"trial_type","trial_index","time_elapsed","internal_node_id","subject","participantCode","walkNumber","success","rt","stimulus","key_press","test_part","leftProb","midProb","rightProb","generatedNum","correct"
"pavlovia",0,996,"0.0-0.0","bs77jusau02e8ya",246,"8.csv","","","","","",NA,NA,NA,NA,""
"fullscreen",1,3535,"0.0-1.0","bs77jusau02e8ya",246,"8.csv","true","","","","",NA,NA,NA,NA,""
"survey-html-form",2,13442,"0.0-2.0","bs77jusau02e8ya",246,"8.csv","","9904.200000047684","","","",NA,NA,NA,NA,""
"image-keyboard-response",3,17411,"0.0-3.0-0.0","bs77jusau02e8ya",246,"8.csv","","3966.399999856949","resources/images/parrot_nobg.png","13","",NA,NA,NA,NA,""
"image-keyboard-response",4,20426,"0.0-3.0-1.0","bs77jusau02e8ya",246,"8.csv","","null","resources/image_sets/111.png","null","",NA,NA,NA,NA,""
"image-keyboard-response",5,75165,"0.0-3.0-2.0","bs77jusau02e8ya",246,"8.csv","","54737.59999990463","resources/image_sets/left_highlight.png","37","",NA,NA,NA,NA,""
"image-keyboard-response",6,80703,"0.0-3.0-3.0","bs77jusau02e8ya",246,"8.csv","","5536.799999952316","resources/image_sets/mid_highlight.png","38","",NA,NA,NA,NA,""
"image-keyboard-response",7,83714,"0.0-3.0-4.0","bs77jusau02e8ya",246,"8.csv","","3010.2000000476837","resources/image_sets/right_highlight.png","39","",NA,NA,NA,NA,""
"image-keyboard-response",8,88283,"0.0-3.0-5.0","bs77jusau02e8ya",246,"8.csv","","4567","resources/image_sets/111.png","13","",NA,NA,NA,NA,""
"image-keyboard-response",9,90274,"0.0-3.0-6.0","bs77jusau02e8ya",246,"8.csv","","1991","resources/images/coin2.png","13","",NA,NA,NA,NA,""
"image-keyboard-response",10,102049,"0.0-3.0-7.0","bs77jusau02e8ya",246,"8.csv","","11774.299999952316","resources/images/fishbone.png","13","",NA,NA,NA,NA,""
"html-keyboard-response",11,105068,"0.0-3.0-8.0","bs77jusau02e8ya",246,"8.csv","","3018","<p>You can track your coin total on the top right of your screen. </p><p>At the end of your journey you will be directed to a survey, so please click on the link before exiting the task</p><p>Press Enter to begin</p>","13","",NA,NA,NA,NA,""
"image-keyboard-response",12,108825,"0.0-4.0-0.0","bs77jusau02e8ya",246,"8.csv","","3756.0999999046326","resources/trios/L1T2A3.jpg","39","restless",0.3,0.9,0.7,0.172161868015471,"true"
"image-keyboard-response",13,109232,"0.0-4.0-1.0","bs77jusau02e8ya",246,"8.csv","","null","resources/maskTrios/BBA3.jpg","null","",NA,NA,NA,NA,""
"image-keyboard-response",14,110442,"0.0-4.0-2.0","bs77jusau02e8ya",246,"8.csv","","null","resources/images/coin2.png","null","",NA,NA,NA,NA,""
"image-keyboard-response",15,117045,"0.0-4.1-0.1","bs77jusau02e8ya",246,"8.csv","","6600.5","resources/trios/L1T2A3.jpg","37","restless",0.3,0.9,0.7,0.787937454560609,"false"
"image-keyboard-response",16,117458,"0.0-4.1-1.1","bs77jusau02e8ya",246,"8.csv","","null","resources/maskTrios/L1BB.jpg","null","",NA,NA,NA,NA,""
"image-keyboard-response",17,118675,"0.0-4.1-2.1","bs77jusau02e8ya",246,"8.csv","","null","resources/images/fishbone.png","null","",NA,NA,NA,NA,""
"image-keyboard-response",18,119165,"0.0-4.2-0.2","bs77jusau02e8ya",246,"8.csv","","488.10000014305115","resources/trios/L1T2A3.jpg","39","restless",0.3,0.9,0.7,0.601254661141572,"true"
"image-keyboard-response",19,119577,"0.0-4.2-1.2","bs77jusau02e8ya",246,"8.csv","","null","resources/maskTrios/BBA3.jpg","null","",NA,NA,NA,NA,""
"image-keyboard-response",20,120787,"0.0-4.2-2.2","bs77jusau02e8ya",246,"8.csv","","null","resources/images/coin2.png","null","",NA,NA,NA,NA,""
"image-keyboard-response",21,121248,"0.0-4.3-0.3","bs77jusau02e8ya",246,"8.csv","","458.5","resources/trios/L1T2A3.jpg","39","restless",0.3,0.8,0.8,0.747275683577199,"true"
"image-keyboard-response",22,121656,"0.0-4.3-1.3","bs77jusau02e8ya",246,"8.csv","","null","resources/maskTrios/BBA3.jpg","null","",NA,NA,NA,NA,""
"image-keyboard-response",23,122872,"0.0-4.3-2.3","bs77jusau02e8ya",246,"8.csv","","null","resources/images/coin2.png","null","",NA,NA,NA,NA,""
"image-keyboard-response",24,123321,"0.0-4.4-0.4","bs77jusau02e8ya",246,"8.csv","","446.7999999523163","resources/trios/L1T2A3.jpg","39","restless",0.3,0.7,0.8,0.889936717238075,"false"
"image-keyboard-response",25,123725,"0.0-4.4-1.4","bs77jusau02e8ya",246,"8.csv","","null","resources/maskTrios/BBA3.jpg","null","",NA,NA,NA,NA,""
"image-keyboard-response",26,124936,"0.0-4.4-2.4","bs77jusau02e8ya",246,"8.csv","","null","resources/images/fishbone.png","null","",NA,NA,NA,NA,""
"image-keyboard-response",27,125491,"0.0-4.5-0.5","bs77jusau02e8ya",246,"8.csv","","554","resources/trios/L1T2A3.jpg","38","restless",0.3,0.7,0.8,0.365114499420543,"true"
"image-keyboard-response",28,125899,"0.0-4.5-1.5","bs77jusau02e8ya",246,"8.csv","","null","resources/maskTrios/BT2B.jpg","null","",NA,NA,NA,NA,""
"image-keyboard-response",29,127116,"0.0-4.5-2.5","bs77jusau02e8ya",246,"8.csv","","null","resources/images/coin2.png","null","",NA,NA,NA,NA,""
"image-keyboard-response",30,127535,"0.0-4.6-0.6","bs77jusau02e8ya",246,"8.csv","","417","resources/trios/L1T2A3.jpg","38","restless",0.3,0.7,0.8,0.178844141119424,"true"
"image-keyboard-response",31,127940,"0.0-4.6-1.6","bs77jusau02e8ya",246,"8.csv","","null","resources/maskTrios/BT2B.jpg","null","",NA,NA,NA,NA,""
"image-keyboard-response",32,129153,"0.0-4.6-2.6","bs77jusau02e8ya",246,"8.csv","","null","resources/images/coin2.png","null","",NA,NA,NA,NA,""
"image-keyboard-response",33,129390,"0.0-4.7-0.7","bs77jusau02e8ya",246,"8.csv","","235.19999980926514","resources/trios/L1T2A3.jpg","37","restless",0.3,0.7,0.8,0.551447976283289,"false"
"image-keyboard-response",34,129806,"0.0-4.7-1.7","bs77jusau02e8ya",246,"8.csv","","null","resources/maskTrios/L1BB.jpg","null","",NA,NA,NA,NA,""
"image-keyboard-response",35,131020,"0.0-4.7-2.7","bs77jusau02e8ya",246,"8.csv","","null","resources/images/fishbone.png","null","",NA,NA,NA,NA,""
"image-keyboard-response",36,131257,"0.0-4.8-0.8","bs77jusau02e8ya",246,"8.csv","","235.20000004768372","resources/trios/L1T2A3.jpg","38","restless",0.3,0.7,0.8,0.0532567376989392,"true"
"image-keyboard-response",37,131662,"0.0-4.8-1.8","bs77jusau02e8ya",246,"8.csv","","null","resources/maskTrios/BT2B.jpg","null","",NA,NA,NA,NA,""
"image-keyboard-response",38,132872,"0.0-4.8-2.8","bs77jusau02e8ya",246,"8.csv","","null","resources/images/coin2.png","null","",NA,NA,NA,NA,""
"image-keyboard-response",39,133188,"0.0-4.9-0.9","bs77jusau02e8ya",246,"8.csv","","314.40000009536743","resources/trios/L1T2A3.jpg","37","restless",0.3,0.7,0.8,0.198429867250024,"true"
"image-keyboard-response",40,133606,"0.0-4.9-1.9","bs77jusau02e8ya",246,"8.csv","","null","resources/maskTrios/L1BB.jpg","null","",NA,NA,NA,NA,""
"image-keyboard-response",41,134822,"0.0-4.9-2.9","bs77jusau02e8ya",246,"8.csv","","null","resources/images/coin2.png","null","",NA,NA,NA,NA,""
"image-keyboard-response",42,135040,"0.0-4.10-0.10","bs77jusau02e8ya",246,"8.csv","","216.09999990463257","resources/trios/L1T2A3.jpg","37","restless",0.3,0.6,0.8,0.43722400440922,"false"
"image-keyboard-response",43,135446,"0.0-4.10-1.10","bs77jusau02e8ya",246,"8.csv","","null","resources/maskTrios/L1BB.jpg","null","",NA,NA,NA,NA,""
"image-keyboard-response",44,136654,"0.0-4.10-2.10","bs77jusau02e8ya",246,"8.csv","","null","resources/images/fishbone.png","null","",NA,NA,NA,NA,""
"image-keyboard-response",45,136956,"0.0-4.11-0.11","bs77jusau02e8ya",246,"8.csv","","301.2000000476837","resources/trios/L1T2A3.jpg","39","restless",0.3,0.6,0.8,0.312804880651933,"true"
"image-keyboard-response",46,137367,"0.0-4.11-1.11","bs77jusau02e8ya",246,"8.csv","","null","resources/maskTrios/BBA3.jpg","null","",NA,NA,NA,NA,""
"image-keyboard-response",47,138577,"0.0-4.11-2.11","bs77jusau02e8ya",246,"8.csv","","null","resources/images/coin2.png","null","",NA,NA,NA,NA,""
"image-keyboard-response",48,139012,"0.0-4.12-0.12","bs77jusau02e8ya",246,"8.csv","","433.60000014305115","resources/trios/L1T2A3.jpg","38","restless",0.3,0.6,0.8,0.875043428286185,"false"
"image-keyboard-response",49,139418,"0.0-4.12-1.12","bs77jusau02e8ya",246,"8.csv","","null","resources/maskTrios/BT2B.jpg","null","",NA,NA,NA,NA,""
"image-keyboard-response",50,140630,"0.0-4.12-2.12","bs77jusau02e8ya",246,"8.csv","","null","resources/images/fishbone.png","null","",NA,NA,NA,NA,""
"image-keyboard-response",51,140877,"0.0-4.13-0.13","bs77jusau02e8ya",246,"8.csv","","245.20000004768372","resources/trios/L1T2A3.jpg","38","restless",0.3,0.6,0.8,0.20591445576261,"true"
"image-keyboard-response",52,141284,"0.0-4.13-1.13","bs77jusau02e8ya",246,"8.csv","","null","resources/maskTrios/BT2B.jpg","null","",NA,NA,NA,NA,""
"image-keyboard-response",53,142497,"0.0-4.13-2.13","bs77jusau02e8ya",246,"8.csv","","null","resources/images/coin2.png","null","",NA,NA,NA,NA,""
"image-keyboard-response",54,142607,"0.0-4.14-0.14","bs77jusau02e8ya",246,"8.csv","","108.90000009536743","resources/trios/L1T2A3.jpg","39","restless",0.3,0.6,0.8,0.0644567341291276,"true"
"image-keyboard-response",55,143022,"0.0-4.14-1.14","bs77jusau02e8ya",246,"8.csv","","null","resources/maskTrios/BBA3.jpg","null","",NA,NA,NA,NA,""
"image-keyboard-response",56,144240,"0.0-4.14-2.14","bs77jusau02e8ya",246,"8.csv","","null","resources/images/coin2.png","null","",NA,NA,NA,NA,""
"image-keyboard-response",57,144563,"0.0-4.15-0.15","bs77jusau02e8ya",246,"8.csv","","321.09999990463257","resources/trios/L1T2A3.jpg","39","restless",0.2,0.5,0.8,0.359705675120732,"true"
"image-keyboard-response",58,144969,"0.0-4.15-1.15","bs77jusau02e8ya",246,"8.csv","","null","resources/maskTrios/BBA3.jpg","null","",NA,NA,NA,NA,""
"image-keyboard-response",59,146184,"0.0-4.15-2.15","bs77jusau02e8ya",246,"8.csv","","null","resources/images/coin2.png","null","",NA,NA,NA,NA,""
"image-keyboard-response",60,146566,"0.0-4.16-0.16","bs77jusau02e8ya",246,"8.csv","","379.40000009536743","resources/trios/L1T2A3.jpg","38","restless",0.2,0.5,0.8,0.509174134325428,"false"
"image-keyboard-response",61,146978,"0.0-4.16-1.16","bs77jusau02e8ya",246,"8.csv","","null","resources/maskTrios/BT2B.jpg","null","",NA,NA,NA,NA,""
"image-keyboard-response",62,148189,"0.0-4.16-2.16","bs77jusau02e8ya",246,"8.csv","","null","resources/images/fishbone.png","null","",NA,NA,NA,NA,""
"image-keyboard-response",63,148411,"0.0-4.17-0.17","bs77jusau02e8ya",246,"8.csv","","219.70000004768372","resources/trios/L1T2A3.jpg","37","restless",0.2,0.5,0.8,0.793376002014868,"false"
"image-keyboard-response",64,148823,"0.0-4.17-1.17","bs77jusau02e8ya",246,"8.csv","","null","resources/maskTrios/L1BB.jpg","null","",NA,NA,NA,NA,""
"image-keyboard-response",65,150035,"0.0-4.17-2.17","bs77jusau02e8ya",246,"8.csv","","null","resources/images/fishbone.png","null","",NA,NA,NA,NA,""
"image-keyboard-response",66,150198,"0.0-4.18-0.18","bs77jusau02e8ya",246,"8.csv","","161.5","resources/trios/L1T2A3.jpg","39","restless",0.2,0.5,0.8,0.0844223532750861,"true"
"image-keyboard-response",67,150614,"0.0-4.18-1.18","bs77jusau02e8ya",246,"8.csv","","null","resources/maskTrios/BBA3.jpg","null","",NA,NA,NA,NA,""
"image-keyboard-response",68,151829,"0.0-4.18-2.18","bs77jusau02e8ya",246,"8.csv","","null","resources/images/coin2.png","null","",NA,NA,NA,NA,""
"image-keyboard-response",69,152131,"0.0-4.19-0.19","bs77jusau02e8ya",246,"8.csv","","300.39999985694885","resources/trios/L1T2A3.jpg","39","restless",0.2,0.5,0.8,0.17286994884887,"true"
"image-keyboard-response",70,152547,"0.0-4.19-1.19","bs77jusau02e8ya",246,"8.csv","","null","resources/maskTrios/BBA3.jpg","null","",NA,NA,NA,NA,""
"image-keyboard-response",71,153758,"0.0-4.19-2.19","bs77jusau02e8ya",246,"8.csv","","null","resources/images/coin2.png","null","",NA,NA,NA,NA,""
"image-keyboard-response",72,154122,"0.0-4.20-0.20","bs77jusau02e8ya",246,"8.csv","","362.7999999523163","resources/trios/L1T2A3.jpg","39","restless",0.2,0.5,0.8,0.330599415471016,"true"
"image-keyboard-response",73,154536,"0.0-4.20-1.20","bs77jusau02e8ya",246,"8.csv","","null","resources/maskTrios/BBA3.jpg","null","",NA,NA,NA,NA,""
"image-keyboard-response",74,155747,"0.0-4.20-2.20","bs77jusau02e8ya",246,"8.csv","","null","resources/images/coin2.png","null","",NA,NA,NA,NA,""
"image-keyboard-response",75,156121,"0.0-4.21-0.21","bs77jusau02e8ya",246,"8.csv","","372.09999990463257","resources/trios/L1T2A3.jpg","38","restless",0.2,0.5,0.8,0.765073726445291,"false"
"image-keyboard-response",76,156524,"0.0-4.21-1.21","bs77jusau02e8ya",246,"8.csv","","null","resources/maskTrios/BT2B.jpg","null","",NA,NA,NA,NA,""
"image-keyboard-response",77,157737,"0.0-4.21-2.21","bs77jusau02e8ya",246,"8.csv","","null","resources/images/fishbone.png","null","",NA,NA,NA,NA,""
"image-keyboard-response",78,158066,"0.0-4.22-0.22","bs77jusau02e8ya",246,"8.csv","","327.5","resources/trios/L1T2A3.jpg","37","restless",0.1,0.5,0.8,0.493262998346775,"false"
"image-keyboard-response",79,158480,"0.0-4.22-1.22","bs77jusau02e8ya",246,"8.csv","","null","resources/maskTrios/L1BB.jpg","null","",NA,NA,NA,NA,""
"image-keyboard-response",80,159694,"0.0-4.22-2.22","bs77jusau02e8ya",246,"8.csv","","null","resources/images/fishbone.png","null","",NA,NA,NA,NA,""
"image-keyboard-response",81,159992,"0.0-4.23-0.23","bs77jusau02e8ya",246,"8.csv","","296.7000000476837","resources/trios/L1T2A3.jpg","39","restless",0.1,0.5,0.8,0.76700939841,"true"
"image-keyboard-response",82,160407,"0.0-4.23-1.23","bs77jusau02e8ya",246,"8.csv","","null","resources/maskTrios/BBA3.jpg","null","",NA,NA,NA,NA,""
"image-keyboard-response",83,161616,"0.0-4.23-2.23","bs77jusau02e8ya",246,"8.csv","","null","resources/images/coin2.png","null","",NA,NA,NA,NA,""
"image-keyboard-response",84,162020,"0.0-4.24-0.24","bs77jusau02e8ya",246,"8.csv","","402.80000019073486","resources/trios/L1T2A3.jpg","39","restless",0.1,0.5,0.8,0.155666628227249,"true"
"image-keyboard-response",85,162425,"0.0-4.24-1.24","bs77jusau02e8ya",246,"8.csv","","null","resources/maskTrios/BBA3.jpg","null","",NA,NA,NA,NA,""
"image-keyboard-response",86,163638,"0.0-4.24-2.24","bs77jusau02e8ya",246,"8.csv","","null","resources/images/coin2.png","null","",NA,NA,NA,NA,""
"image-keyboard-response",87,164129,"0.0-4.25-0.25","bs77jusau02e8ya",246,"8.csv","","489.89999985694885","resources/trios/L1T2A3.jpg","39","restless",0.1,0.5,0.8,0.163029979500585,"true"
"image-keyboard-response",88,164541,"0.0-4.25-1.25","bs77jusau02e8ya",246,"8.csv","","null","resources/maskTrios/BBA3.jpg","null","",NA,NA,NA,NA,""
"image-keyboard-response",89,165754,"0.0-4.25-2.25","bs77jusau02e8ya",246,"8.csv","","null","resources/images/coin2.png","null","",NA,NA,NA,NA,""
"image-keyboard-response",90,167422,"0.0-4.26-0.26","bs77jusau02e8ya",246,"8.csv","","1666.1000001430511","resources/trios/L1T2A3.jpg","39","restless",0.1,0.5,0.8,0.336486394196292,"true"
"image-keyboard-response",91,167834,"0.0-4.26-1.26","bs77jusau02e8ya",246,"8.csv","","null","resources/maskTrios/BBA3.jpg","null","",NA,NA,NA,NA,""
"image-keyboard-response",92,169046,"0.0-4.26-2.26","bs77jusau02e8ya",246,"8.csv","","null","resources/images/coin2.png","null","",NA,NA,NA,NA,""
"image-keyboard-response",93,170879,"0.0-4.27-0.27","bs77jusau02e8ya",246,"8.csv","","1831","resources/trios/L1T2A3.jpg","39","restless",0.1,0.5,0.9,0.449760765837827,"true"
"image-keyboard-response",94,171282,"0.0-4.27-1.27","bs77jusau02e8ya",246,"8.csv","","null","resources/maskTrios/BBA3.jpg","null","",NA,NA,NA,NA,""
"image-keyboard-response",95,172494,"0.0-4.27-2.27","bs77jusau02e8ya",246,"8.csv","","null","resources/images/coin2.png","null","",NA,NA,NA,NA,""
"image-keyboard-response",96,172843,"0.0-4.28-0.28","bs77jusau02e8ya",246,"8.csv","","347.09999990463257","resources/trios/L1T2A3.jpg","39","restless",0.1,0.5,0.9,0.161224876065462,"true"
"image-keyboard-response",97,173252,"0.0-4.28-1.28","bs77jusau02e8ya",246,"8.csv","","null","resources/maskTrios/BBA3.jpg","null","",NA,NA,NA,NA,""
"image-keyboard-response",98,174465,"0.0-4.28-2.28","bs77jusau02e8ya",246,"8.csv","","null","resources/images/coin2.png","null","",NA,NA,NA,NA,""
"image-keyboard-response",99,174763,"0.0-4.29-0.29","bs77jusau02e8ya",246,"8.csv","","296.09999990463257","resources/trios/L1T2A3.jpg","38","restless",0.1,0.5,0.9,0.116184088898165,"true"
"image-keyboard-response",100,175166,"0.0-4.29-1.29","bs77jusau02e8ya",246,"8.csv","","null","resources/maskTrios/BT2B.jpg","null","",NA,NA,NA,NA,""
"image-keyboard-response",101,176380,"0.0-4.29-2.29","bs77jusau02e8ya",246,"8.csv","","null","resources/images/coin2.png","null","",NA,NA,NA,NA,""
"image-keyboard-response",102,176740,"0.0-4.30-0.30","bs77jusau02e8ya",246,"8.csv","","358.2999999523163","resources/trios/L1T2A3.jpg","38","restless",0.1,0.5,0.8,0.640942248123292,"false"
"image-keyboard-response",103,177157,"0.0-4.30-1.30","bs77jusau02e8ya",246,"8.csv","","null","resources/maskTrios/BT2B.jpg","null","",NA,NA,NA,NA,""
"image-keyboard-response",104,178365,"0.0-4.30-2.30","bs77jusau02e8ya",246,"8.csv","","null","resources/images/fishbone.png","null","",NA,NA,NA,NA,""
"image-keyboard-response",105,178636,"0.0-4.31-0.31","bs77jusau02e8ya",246,"8.csv","","270.09999990463257","resources/trios/L1T2A3.jpg","39","restless",0.1,0.5,0.8,0.443870270212278,"true"
"image-keyboard-response",106,179046,"0.0-4.31-1.31","bs77jusau02e8ya",246,"8.csv","","null","resources/maskTrios/BBA3.jpg","null","",NA,NA,NA,NA,""
"image-keyboard-response",107,180253,"0.0-4.31-2.31","bs77jusau02e8ya",246,"8.csv","","null","resources/images/coin2.png","null","",NA,NA,NA,NA,""
"image-keyboard-response",108,180503,"0.0-4.32-0.32","bs77jusau02e8ya",246,"8.csv","","248.29999995231628","resources/trios/L1T2A3.jpg","37","restless",0.1,0.6,0.8,0.969846370988799,"false"
"image-keyboard-response",109,180906,"0.0-4.32-1.32","bs77jusau02e8ya",246,"8.csv","","null","resources/maskTrios/L1BB.jpg","null","",NA,NA,NA,NA,""
"image-keyboard-response",110,182116,"0.0-4.32-2.32","bs77jusau02e8ya",246,"8.csv","","null","resources/images/fishbone.png","null","",NA,NA,NA,NA,""
"image-keyboard-response",111,182331,"0.0-4.33-0.33","bs77jusau02e8ya",246,"8.csv","","213.30000019073486","resources/trios/L1T2A3.jpg","37","restless",0.1,0.6,0.8,0.238716506254981,"false"
"image-keyboard-response",112,182739,"0.0-4.33-1.33","bs77jusau02e8ya",246,"8.csv","","null","resources/maskTrios/L1BB.jpg","null","",NA,NA,NA,NA,""
"image-keyboard-response",113,183955,"0.0-4.33-2.33","bs77jusau02e8ya",246,"8.csv","","null","resources/images/fishbone.png","null","",NA,NA,NA,NA,""
"image-keyboard-response",114,183968,"0.0-4.34-0.34","bs77jusau02e8ya",246,"8.csv","","11.5","resources/trios/L1T2A3.jpg","38","restless",0.1,0.6,0.8,0.323858293476324,"true"
"image-keyboard-response",115,184376,"0.0-4.34-1.34","bs77jusau02e8ya",246,"8.csv","","null","resources/maskTrios/BT2B.jpg","null","",NA,NA,NA,NA,""
"image-keyboard-response",116,185583,"0.0-4.34-2.34","bs77jusau02e8ya",246,"8.csv","","null","resources/images/coin2.png","null","",NA,NA,NA,NA,""
"image-keyboard-response",117,185662,"0.0-4.35-0.35","bs77jusau02e8ya",246,"8.csv","","76.70000004768372","resources/trios/L1T2A3.jpg","39","restless",0.1,0.6,0.8,0.767535800625282,"true"
"image-keyboard-response",118,186065,"0.0-4.35-1.35","bs77jusau02e8ya",246,"8.csv","","null","resources/maskTrios/BBA3.jpg","null","",NA,NA,NA,NA,""
"image-keyboard-response",119,187277,"0.0-4.35-2.35","bs77jusau02e8ya",246,"8.csv","","null","resources/images/coin2.png","null","",NA,NA,NA,NA,""
"image-keyboard-response",120,187544,"0.0-4.36-0.36","bs77jusau02e8ya",246,"8.csv","","265.90000009536743","resources/trios/L1T2A3.jpg","39","restless",0.2,0.6,0.8,0.218258501664488,"true"
"image-keyboard-response",121,187947,"0.0-4.36-1.36","bs77jusau02e8ya",246,"8.csv","","null","resources/maskTrios/BBA3.jpg","null","",NA,NA,NA,NA,""
"image-keyboard-response",122,189155,"0.0-4.36-2.36","bs77jusau02e8ya",246,"8.csv","","null","resources/images/coin2.png","null","",NA,NA,NA,NA,""
"image-keyboard-response",123,189396,"0.0-4.37-0.37","bs77jusau02e8ya",246,"8.csv","","239.69999980926514","resources/trios/L1T2A3.jpg","39","restless",0.2,0.6,0.9,0.277165647774524,"true"
"image-keyboard-response",124,189802,"0.0-4.37-1.37","bs77jusau02e8ya",246,"8.csv","","null","resources/maskTrios/BBA3.jpg","null","",NA,NA,NA,NA,""
"image-keyboard-response",125,191016,"0.0-4.37-2.37","bs77jusau02e8ya",246,"8.csv","","null","resources/images/coin2.png","null","",NA,NA,NA,NA,""
"image-keyboard-response",126,191257,"0.0-4.38-0.38","bs77jusau02e8ya",246,"8.csv","","239.10000014305115","resources/trios/L1T2A3.jpg","39","restless",0.2,0.6,0.9,0.116472633641608,"true"
"image-keyboard-response",127,191672,"0.0-4.38-1.38","bs77jusau02e8ya",246,"8.csv","","null","resources/maskTrios/BBA3.jpg","null","",NA,NA,NA,NA,""
"image-keyboard-response",128,192889,"0.0-4.38-2.38","bs77jusau02e8ya",246,"8.csv","","null","resources/images/coin2.png","null","",NA,NA,NA,NA,""
"image-keyboard-response",129,193040,"0.0-4.39-0.39","bs77jusau02e8ya",246,"8.csv","","149.40000009536743","resources/trios/L1T2A3.jpg","39","restless",0.2,0.6,0.9,0.931605854954622,"false"
"image-keyboard-response",130,193443,"0.0-4.39-1.39","bs77jusau02e8ya",246,"8.csv","","null","resources/maskTrios/BBA3.jpg","null","",NA,NA,NA,NA,""
"image-keyboard-response",131,194658,"0.0-4.39-2.39","bs77jusau02e8ya",246,"8.csv","","null","resources/images/fishbone.png","null","",NA,NA,NA,NA,""
"image-keyboard-response",132,194889,"0.0-4.40-0.40","bs77jusau02e8ya",246,"8.csv","","229.5","resources/trios/L1T2A3.jpg","38","restless",0.2,0.6,0.8,0.48303581479722,"true"
"image-keyboard-response",133,195298,"0.0-4.40-1.40","bs77jusau02e8ya",246,"8.csv","","null","resources/maskTrios/BT2B.jpg","null","",NA,NA,NA,NA,""
"image-keyboard-response",134,196513,"0.0-4.40-2.40","bs77jusau02e8ya",246,"8.csv","","null","resources/images/coin2.png","null","",NA,NA,NA,NA,""
"image-keyboard-response",135,196888,"0.0-4.41-0.41","bs77jusau02e8ya",246,"8.csv","","373.7999999523163","resources/trios/L1T2A3.jpg","39","restless",0.2,0.6,0.8,0.290762146387136,"true"
"image-keyboard-response",136,197305,"0.0-4.41-1.41","bs77jusau02e8ya",246,"8.csv","","null","resources/maskTrios/BBA3.jpg","null","",NA,NA,NA,NA,""
"image-keyboard-response",137,198507,"0.0-4.41-2.41","bs77jusau02e8ya",246,"8.csv","","null","resources/images/coin2.png","null","",NA,NA,NA,NA,""
"image-keyboard-response",138,198749,"0.0-4.42-0.42","bs77jusau02e8ya",246,"8.csv","","239.79999995231628","resources/trios/L1T2A3.jpg","38","restless",0.2,0.6,0.8,0.0430037834103631,"true"
"image-keyboard-response",139,199158,"0.0-4.42-1.42","bs77jusau02e8ya",246,"8.csv","","null","resources/maskTrios/BT2B.jpg","null","",NA,NA,NA,NA,""
"image-keyboard-response",140,200372,"0.0-4.42-2.42","bs77jusau02e8ya",246,"8.csv","","null","resources/images/coin2.png","null","",NA,NA,NA,NA,""
"image-keyboard-response",141,200755,"0.0-4.43-0.43","bs77jusau02e8ya",246,"8.csv","","380.2999999523163","resources/trios/L1T2A3.jpg","39","restless",0.3,0.6,0.8,0.409510855157199,"true"
"image-keyboard-response",142,201168,"0.0-4.43-1.43","bs77jusau02e8ya",246,"8.csv","","null","resources/maskTrios/BBA3.jpg","null","",NA,NA,NA,NA,""
"image-keyboard-response",143,202381,"0.0-4.43-2.43","bs77jusau02e8ya",246,"8.csv","","null","resources/images/coin2.png","null","",NA,NA,NA,NA,""
"image-keyboard-response",144,202621,"0.0-4.44-0.44","bs77jusau02e8ya",246,"8.csv","","238.09999990463257","resources/trios/L1T2A3.jpg","38","restless",0.3,0.6,0.8,0.599024584759556,"true"
"image-keyboard-response",145,203034,"0.0-4.44-1.44","bs77jusau02e8ya",246,"8.csv","","null","resources/maskTrios/BT2B.jpg","null","",NA,NA,NA,NA,""
"image-keyboard-response",146,204239,"0.0-4.44-2.44","bs77jusau02e8ya",246,"8.csv","","null","resources/images/coin2.png","null","",NA,NA,NA,NA,""
"image-keyboard-response",147,204491,"0.0-4.45-0.45","bs77jusau02e8ya",246,"8.csv","","249.60000014305115","resources/trios/L1T2A3.jpg","39","restless",0.3,0.6,0.9,0.740399300146431,"true"
"image-keyboard-response",148,204900,"0.0-4.45-1.45","bs77jusau02e8ya",246,"8.csv","","null","resources/maskTrios/BBA3.jpg","null","",NA,NA,NA,NA,""
"image-keyboard-response",149,206116,"0.0-4.45-2.45","bs77jusau02e8ya",246,"8.csv","","null","resources/images/coin2.png","null","",NA,NA,NA,NA,""
"image-keyboard-response",150,206331,"0.0-4.46-0.46","bs77jusau02e8ya",246,"8.csv","","214.10000014305115","resources/trios/L1T2A3.jpg","38","restless",0.3,0.6,0.9,0.0232453237380588,"true"
"image-keyboard-response",151,206739,"0.0-4.46-1.46","bs77jusau02e8ya",246,"8.csv","","null","resources/maskTrios/BT2B.jpg","null","",NA,NA,NA,NA,""
"image-keyboard-response",152,207951,"0.0-4.46-2.46","bs77jusau02e8ya",246,"8.csv","","null","resources/images/coin2.png","null","",NA,NA,NA,NA,""
"image-keyboard-response",153,208196,"0.0-4.47-0.47","bs77jusau02e8ya",246,"8.csv","","242.5","resources/trios/L1T2A3.jpg","39","restless",0.3,0.6,0.9,0.892354048951919,"true"
"image-keyboard-response",154,208607,"0.0-4.47-1.47","bs77jusau02e8ya",246,"8.csv","","null","resources/maskTrios/BBA3.jpg","null","",NA,NA,NA,NA,""
"image-keyboard-response",155,209822,"0.0-4.47-2.47","bs77jusau02e8ya",246,"8.csv","","null","resources/images/coin2.png","null","",NA,NA,NA,NA,""
"image-keyboard-response",156,210112,"0.0-4.48-0.48","bs77jusau02e8ya",246,"8.csv","","289","resources/trios/L1T2A3.jpg","38","restless",0.4,0.6,0.9,0.214373392863402,"true"
"image-keyboard-response",157,210522,"0.0-4.48-1.48","bs77jusau02e8ya",246,"8.csv","","null","resources/maskTrios/BT2B.jpg","null","",NA,NA,NA,NA,""
"image-keyboard-response",158,211731,"0.0-4.48-2.48","bs77jusau02e8ya",246,"8.csv","","null","resources/images/coin2.png","null","",NA,NA,NA,NA,""
"image-keyboard-response",159,211938,"0.0-4.49-0.49","bs77jusau02e8ya",246,"8.csv","","205.79999995231628","resources/trios/L1T2A3.jpg","39","restless",0.4,0.6,0.9,0.767662380677015,"true"
"image-keyboard-response",160,212356,"0.0-4.49-1.49","bs77jusau02e8ya",246,"8.csv","","null","resources/maskTrios/BBA3.jpg","null","",NA,NA,NA,NA,""
"image-keyboard-response",161,213560,"0.0-4.49-2.49","bs77jusau02e8ya",246,"8.csv","","null","resources/images/coin2.png","null","",NA,NA,NA,NA,""
"image-keyboard-response",162,213723,"0.0-4.50-0.50","bs77jusau02e8ya",246,"8.csv","","162","resources/trios/L1T2A3.jpg","38","restless",0.4,0.6,0.9,0.840835780737004,"false"
"image-keyboard-response",163,214139,"0.0-4.50-1.50","bs77jusau02e8ya",246,"8.csv","","null","resources/maskTrios/BT2B.jpg","null","",NA,NA,NA,NA,""
"image-keyboard-response",164,215341,"0.0-4.50-2.50","bs77jusau02e8ya",246,"8.csv","","null","resources/images/fishbone.png","null","",NA,NA,NA,NA,""
"image-keyboard-response",165,215590,"0.0-4.51-0.51","bs77jusau02e8ya",246,"8.csv","","247.40000009536743","resources/trios/L1T2A3.jpg","37","restless",0.4,0.6,0.9,0.863273735585172,"false"
"image-keyboard-response",166,216006,"0.0-4.51-1.51","bs77jusau02e8ya",246,"8.csv","","null","resources/maskTrios/L1BB.jpg","null","",NA,NA,NA,NA,""
"image-keyboard-response",167,217219,"0.0-4.51-2.51","bs77jusau02e8ya",246,"8.csv","","null","resources/images/fishbone.png","null","",NA,NA,NA,NA,""
"image-keyboard-response",168,217661,"0.0-4.52-0.52","bs77jusau02e8ya",246,"8.csv","","441.2000000476837","resources/trios/L1T2A3.jpg","39","restless",0.4,0.6,0.9,0.067263811368379,"true"
"image-keyboard-response",169,218072,"0.0-4.52-1.52","bs77jusau02e8ya",246,"8.csv","","null","resources/maskTrios/BBA3.jpg","null","",NA,NA,NA,NA,""
"image-keyboard-response",170,219282,"0.0-4.52-2.52","bs77jusau02e8ya",246,"8.csv","","null","resources/images/coin2.png","null","",NA,NA,NA,NA,""
"image-keyboard-response",171,219599,"0.0-4.53-0.53","bs77jusau02e8ya",246,"8.csv","","315","resources/trios/L1T2A3.jpg","39","restless",0.4,0.6,0.9,0.121079702905684,"true"
"image-keyboard-response",172,220012,"0.0-4.53-1.53","bs77jusau02e8ya",246,"8.csv","","null","resources/maskTrios/BBA3.jpg","null","",NA,NA,NA,NA,""
"image-keyboard-response",173,221227,"0.0-4.53-2.53","bs77jusau02e8ya",246,"8.csv","","null","resources/images/coin2.png","null","",NA,NA,NA,NA,""
"image-keyboard-response",174,221469,"0.0-4.54-0.54","bs77jusau02e8ya",246,"8.csv","","241","resources/trios/L1T2A3.jpg","38","restless",0.4,0.6,0.8,0.158986096910906,"true"
"image-keyboard-response",175,221882,"0.0-4.54-1.54","bs77jusau02e8ya",246,"8.csv","","null","resources/maskTrios/BT2B.jpg","null","",NA,NA,NA,NA,""
"image-keyboard-response",176,223089,"0.0-4.54-2.54","bs77jusau02e8ya",246,"8.csv","","null","resources/images/coin2.png","null","",NA,NA,NA,NA,""
"image-keyboard-response",177,223321,"0.0-4.55-0.55","bs77jusau02e8ya",246,"8.csv","","230.89999985694885","resources/trios/L1T2A3.jpg","38","restless",0.4,0.5,0.8,0.0472979198131249,"true"
"image-keyboard-response",178,223726,"0.0-4.55-1.55","bs77jusau02e8ya",246,"8.csv","","null","resources/maskTrios/BT2B.jpg","null","",NA,NA,NA,NA,""
"image-keyboard-response",179,224927,"0.0-4.55-2.55","bs77jusau02e8ya",246,"8.csv","","null","resources/images/coin2.png","null","",NA,NA,NA,NA,""
"image-keyboard-response",180,225164,"0.0-4.56-0.56","bs77jusau02e8ya",246,"8.csv","","234.79999995231628","resources/trios/L1T2A3.jpg","38","restless",0.4,0.4,0.8,0.689227069794541,"false"
"image-keyboard-response",181,225580,"0.0-4.56-1.56","bs77jusau02e8ya",246,"8.csv","","null","resources/maskTrios/BT2B.jpg","null","",NA,NA,NA,NA,""
"image-keyboard-response",182,226791,"0.0-4.56-2.56","bs77jusau02e8ya",246,"8.csv","","null","resources/images/fishbone.png","null","",NA,NA,NA,NA,""
"image-keyboard-response",183,227098,"0.0-4.57-0.57","bs77jusau02e8ya",246,"8.csv","","305.7000000476837","resources/trios/L1T2A3.jpg","38","restless",0.4,0.4,0.8,0.695706158040053,"false"
"image-keyboard-response",184,227504,"0.0-4.57-1.57","bs77jusau02e8ya",246,"8.csv","","null","resources/maskTrios/BT2B.jpg","null","",NA,NA,NA,NA,""
"image-keyboard-response",185,228717,"0.0-4.57-2.57","bs77jusau02e8ya",246,"8.csv","","null","resources/images/fishbone.png","null","",NA,NA,NA,NA,""
"image-keyboard-response",186,229183,"0.0-4.58-0.58","bs77jusau02e8ya",246,"8.csv","","463.89999985694885","resources/trios/L1T2A3.jpg","38","restless",0.4,0.3,0.8,0.440483970617938,"false"
"image-keyboard-response",187,229600,"0.0-4.58-1.58","bs77jusau02e8ya",246,"8.csv","","null","resources/maskTrios/BT2B.jpg","null","",NA,NA,NA,NA,""
"image-keyboard-response",188,230804,"0.0-4.58-2.58","bs77jusau02e8ya",246,"8.csv","","null","resources/images/fishbone.png","null","",NA,NA,NA,NA,""
"image-keyboard-response",189,231339,"0.0-4.59-0.59","bs77jusau02e8ya",246,"8.csv","","532.5999999046326","resources/trios/L1T2A3.jpg","39","restless",0.4,0.3,0.8,0.928197460018377,"false"
"image-keyboard-response",190,231743,"0.0-4.59-1.59","bs77jusau02e8ya",246,"8.csv","","null","resources/maskTrios/BBA3.jpg","null","",NA,NA,NA,NA,""
"image-keyboard-response",191,232957,"0.0-4.59-2.59","bs77jusau02e8ya",246,"8.csv","","null","resources/images/fishbone.png","null","",NA,NA,NA,NA,""
"image-keyboard-response",192,242448,"0.0-4.60-0.60","bs77jusau02e8ya",246,"8.csv","","9488.5","resources/trios/L1T2A3.jpg","38","restless",0.4,0.3,0.7,0.464023386339148,"false"
"image-keyboard-response",193,242853,"0.0-4.60-1.60","bs77jusau02e8ya",246,"8.csv","","null","resources/maskTrios/BT2B.jpg","null","",NA,NA,NA,NA,""
"image-keyboard-response",194,244066,"0.0-4.60-2.60","bs77jusau02e8ya",246,"8.csv","","null","resources/images/fishbone.png","null","",NA,NA,NA,NA,""
"image-keyboard-response",195,244388,"0.0-4.61-0.61","bs77jusau02e8ya",246,"8.csv","","321.19999980926514","resources/trios/L1T2A3.jpg","39","restless",0.4,0.3,0.7,0.876819884393221,"false"
"image-keyboard-response",196,244797,"0.0-4.61-1.61","bs77jusau02e8ya",246,"8.csv","","null","resources/maskTrios/BBA3.jpg","null","",NA,NA,NA,NA,""
"image-keyboard-response",197,246008,"0.0-4.61-2.61","bs77jusau02e8ya",246,"8.csv","","null","resources/images/fishbone.png","null","",NA,NA,NA,NA,""
"image-keyboard-response",198,246163,"0.0-4.62-0.62","bs77jusau02e8ya",246,"8.csv","","152.59999990463257","resources/trios/L1T2A3.jpg","37","restless",0.4,0.3,0.7,0.634697973384128,"false"
"image-keyboard-response",199,246570,"0.0-4.62-1.62","bs77jusau02e8ya",246,"8.csv","","null","resources/maskTrios/L1BB.jpg","null","",NA,NA,NA,NA,""
"image-keyboard-response",200,247786,"0.0-4.62-2.62","bs77jusau02e8ya",246,"8.csv","","null","resources/images/fishbone.png","null","",NA,NA,NA,NA,""
"image-keyboard-response",201,247866,"0.0-4.63-0.63","bs77jusau02e8ya",246,"8.csv","","78.5","resources/trios/L1T2A3.jpg","38","restless",0.4,0.3,0.7,0.00773907376142424,"true"
"image-keyboard-response",202,248280,"0.0-4.63-1.63","bs77jusau02e8ya",246,"8.csv","","null","resources/maskTrios/BT2B.jpg","null","",NA,NA,NA,NA,""
"image-keyboard-response",203,249497,"0.0-4.63-2.63","bs77jusau02e8ya",246,"8.csv","","null","resources/images/coin2.png","null","",NA,NA,NA,NA,""
"image-keyboard-response",204,249815,"0.0-4.64-0.64","bs77jusau02e8ya",246,"8.csv","","315.90000009536743","resources/trios/L1T2A3.jpg","38","restless",0.4,0.3,0.7,0.899866989812476,"false"
"image-keyboard-response",205,250227,"0.0-4.64-1.64","bs77jusau02e8ya",246,"8.csv","","null","resources/maskTrios/BT2B.jpg","null","",NA,NA,NA,NA,""
"image-keyboard-response",206,251437,"0.0-4.64-2.64","bs77jusau02e8ya",246,"8.csv","","null","resources/images/fishbone.png","null","",NA,NA,NA,NA,""
"image-keyboard-response",207,251704,"0.0-4.65-0.65","bs77jusau02e8ya",246,"8.csv","","265.7000000476837","resources/trios/L1T2A3.jpg","39","restless",0.4,0.3,0.7,0.963675019549033,"false"
"image-keyboard-response",208,252120,"0.0-4.65-1.65","bs77jusau02e8ya",246,"8.csv","","null","resources/maskTrios/BBA3.jpg","null","",NA,NA,NA,NA,""
"image-keyboard-response",209,253335,"0.0-4.65-2.65","bs77jusau02e8ya",246,"8.csv","","null","resources/images/fishbone.png","null","",NA,NA,NA,NA,""
"image-keyboard-response",210,253696,"0.0-4.66-0.66","bs77jusau02e8ya",246,"8.csv","","360.09999990463257","resources/trios/L1T2A3.jpg","39","restless",0.3,0.3,0.7,0.939960575795229,"false"
"image-keyboard-response",211,254106,"0.0-4.66-1.66","bs77jusau02e8ya",246,"8.csv","","null","resources/maskTrios/BBA3.jpg","null","",NA,NA,NA,NA,""
"image-keyboard-response",212,255319,"0.0-4.66-2.66","bs77jusau02e8ya",246,"8.csv","","null","resources/images/fishbone.png","null","",NA,NA,NA,NA,""
"image-keyboard-response",213,255332,"0.0-4.67-0.67","bs77jusau02e8ya",246,"8.csv","","11.799999952316284","resources/trios/L1T2A3.jpg","37","restless",0.3,0.3,0.7,0.459323266250859,"false"
"image-keyboard-response",214,255742,"0.0-4.67-1.67","bs77jusau02e8ya",246,"8.csv","","null","resources/maskTrios/L1BB.jpg","null","",NA,NA,NA,NA,""
"image-keyboard-response",215,256958,"0.0-4.67-2.67","bs77jusau02e8ya",246,"8.csv","","null","resources/images/fishbone.png","null","",NA,NA,NA,NA,""
"image-keyboard-response",216,257335,"0.0-4.68-0.68","bs77jusau02e8ya",246,"8.csv","","375.40000009536743","resources/trios/L1T2A3.jpg","38","restless",0.3,0.3,0.7,0.801589062324978,"false"
"image-keyboard-response",217,257752,"0.0-4.68-1.68","bs77jusau02e8ya",246,"8.csv","","null","resources/maskTrios/BT2B.jpg","null","",NA,NA,NA,NA,""
"image-keyboard-response",218,258965,"0.0-4.68-2.68","bs77jusau02e8ya",246,"8.csv","","null","resources/images/fishbone.png","null","",NA,NA,NA,NA,""
"image-keyboard-response",219,259562,"0.0-4.69-0.69","bs77jusau02e8ya",246,"8.csv","","595.0999999046326","resources/trios/L1T2A3.jpg","38","restless",0.3,0.3,0.7,0.525114524539831,"false"
"image-keyboard-response",220,259974,"0.0-4.69-1.69","bs77jusau02e8ya",246,"8.csv","","null","resources/maskTrios/BT2B.jpg","null","",NA,NA,NA,NA,""
"image-keyboard-response",221,261187,"0.0-4.69-2.69","bs77jusau02e8ya",246,"8.csv","","null","resources/images/fishbone.png","null","",NA,NA,NA,NA,""
"image-keyboard-response",222,261722,"0.0-4.70-0.70","bs77jusau02e8ya",246,"8.csv","","533.8999998569489","resources/trios/L1T2A3.jpg","39","restless",0.3,0.3,0.7,0.345696540716987,"true"
"image-keyboard-response",223,262137,"0.0-4.70-1.70","bs77jusau02e8ya",246,"8.csv","","null","resources/maskTrios/BBA3.jpg","null","",NA,NA,NA,NA,""
"image-keyboard-response",224,263351,"0.0-4.70-2.70","bs77jusau02e8ya",246,"8.csv","","null","resources/images/coin2.png","null","",NA,NA,NA,NA,""
"image-keyboard-response",225,263764,"0.0-4.71-0.71","bs77jusau02e8ya",246,"8.csv","","411","resources/trios/L1T2A3.jpg","39","restless",0.3,0.3,0.7,0.719441172343924,"false"
"image-keyboard-response",226,264177,"0.0-4.71-1.71","bs77jusau02e8ya",246,"8.csv","","null","resources/maskTrios/BBA3.jpg","null","",NA,NA,NA,NA,""
"image-keyboard-response",227,265389,"0.0-4.71-2.71","bs77jusau02e8ya",246,"8.csv","","null","resources/images/fishbone.png","null","",NA,NA,NA,NA,""
"image-keyboard-response",228,265665,"0.0-4.72-0.72","bs77jusau02e8ya",246,"8.csv","","274.60000014305115","resources/trios/L1T2A3.jpg","38","restless",0.3,0.3,0.7,0.645836315221608,"false"
"image-keyboard-response",229,266075,"0.0-4.72-1.72","bs77jusau02e8ya",246,"8.csv","","null","resources/maskTrios/BT2B.jpg","null","",NA,NA,NA,NA,""
"image-keyboard-response",230,267284,"0.0-4.72-2.72","bs77jusau02e8ya",246,"8.csv","","null","resources/images/fishbone.png","null","",NA,NA,NA,NA,""
"image-keyboard-response",231,272435,"0.0-4.73-0.73","bs77jusau02e8ya",246,"8.csv","","5150.099999904633","resources/trios/L1T2A3.jpg","38","restless",0.3,0.2,0.6,0.236277793437982,"false"
"image-keyboard-response",232,272842,"0.0-4.73-1.73","bs77jusau02e8ya",246,"8.csv","","null","resources/maskTrios/BT2B.jpg","null","",NA,NA,NA,NA,""
"image-keyboard-response",233,274058,"0.0-4.73-2.73","bs77jusau02e8ya",246,"8.csv","","null","resources/images/fishbone.png","null","",NA,NA,NA,NA,""
"image-keyboard-response",234,274357,"0.0-4.74-0.74","bs77jusau02e8ya",246,"8.csv","","297.39999985694885","resources/trios/L1T2A3.jpg","39","restless",0.3,0.2,0.6,0.741679022276845,"false"
"image-keyboard-response",235,274761,"0.0-4.74-1.74","bs77jusau02e8ya",246,"8.csv","","null","resources/maskTrios/BBA3.jpg","null","",NA,NA,NA,NA,""
"image-keyboard-response",236,275971,"0.0-4.74-2.74","bs77jusau02e8ya",246,"8.csv","","null","resources/images/fishbone.png","null","",NA,NA,NA,NA,""
"image-keyboard-response",237,276279,"0.0-4.75-0.75","bs77jusau02e8ya",246,"8.csv","","305.7000000476837","resources/trios/L1T2A3.jpg","38","restless",0.3,0.2,0.6,0.978088173412804,"false"
"image-keyboard-response",238,276688,"0.0-4.75-1.75","bs77jusau02e8ya",246,"8.csv","","null","resources/maskTrios/BT2B.jpg","null","",NA,NA,NA,NA,""
"image-keyboard-response",239,277899,"0.0-4.75-2.75","bs77jusau02e8ya",246,"8.csv","","null","resources/images/fishbone.png","null","",NA,NA,NA,NA,""
"image-keyboard-response",240,296088,"0.0-4.76-0.76","bs77jusau02e8ya",246,"8.csv","","18187.700000047684","resources/trios/L1T2A3.jpg","39","restless",0.3,0.2,0.6,0.423317914121479,"true"
"image-keyboard-response",241,296502,"0.0-4.76-1.76","bs77jusau02e8ya",246,"8.csv","","null","resources/maskTrios/BBA3.jpg","null","",NA,NA,NA,NA,""
"image-keyboard-response",242,297715,"0.0-4.76-2.76","bs77jusau02e8ya",246,"8.csv","","null","resources/images/coin2.png","null","",NA,NA,NA,NA,""
"image-keyboard-response",243,298091,"0.0-4.77-0.77","bs77jusau02e8ya",246,"8.csv","","374","resources/trios/L1T2A3.jpg","39","restless",0.3,0.2,0.6,0.820411254870141,"false"
"image-keyboard-response",244,298505,"0.0-4.77-1.77","bs77jusau02e8ya",246,"8.csv","","null","resources/maskTrios/BBA3.jpg","null","",NA,NA,NA,NA,""
"image-keyboard-response",245,299716,"0.0-4.77-2.77","bs77jusau02e8ya",246,"8.csv","","null","resources/images/fishbone.png","null","",NA,NA,NA,NA,""
"image-keyboard-response",246,300055,"0.0-4.78-0.78","bs77jusau02e8ya",246,"8.csv","","338.19999980926514","resources/trios/L1T2A3.jpg","39","restless",0.3,0.2,0.6,0.877503996468031,"false"
"image-keyboard-response",247,300462,"0.0-4.78-1.78","bs77jusau02e8ya",246,"8.csv","","null","resources/maskTrios/BBA3.jpg","null","",NA,NA,NA,NA,""
"image-keyboard-response",248,301673,"0.0-4.78-2.78","bs77jusau02e8ya",246,"8.csv","","null","resources/images/fishbone.png","null","",NA,NA,NA,NA,""
"image-keyboard-response",249,302096,"0.0-4.79-0.79","bs77jusau02e8ya",246,"8.csv","","421.2999999523163","resources/trios/L1T2A3.jpg","38","restless",0.3,0.2,0.6,0.699142437343352,"false"
"image-keyboard-response",250,302508,"0.0-4.79-1.79","bs77jusau02e8ya",246,"8.csv","","null","resources/maskTrios/BT2B.jpg","null","",NA,NA,NA,NA,""
"image-keyboard-response",251,303715,"0.0-4.79-2.79","bs77jusau02e8ya",246,"8.csv","","null","resources/images/fishbone.png","null","",NA,NA,NA,NA,""
"image-keyboard-response",252,304104,"0.0-4.80-0.80","bs77jusau02e8ya",246,"8.csv","","387.2999999523163","resources/trios/L1T2A3.jpg","39","restless",0.3,0.2,0.6,0.916685602424159,"false"
"image-keyboard-response",253,304507,"0.0-4.80-1.80","bs77jusau02e8ya",246,"8.csv","","null","resources/maskTrios/BBA3.jpg","null","",NA,NA,NA,NA,""
"image-keyboard-response",254,305723,"0.0-4.80-2.80","bs77jusau02e8ya",246,"8.csv","","null","resources/images/fishbone.png","null","",NA,NA,NA,NA,""
"image-keyboard-response",255,306095,"0.0-4.81-0.81","bs77jusau02e8ya",246,"8.csv","","370","resources/trios/L1T2A3.jpg","37","restless",0.4,0.2,0.5,0.869412279129151,"false"
"image-keyboard-response",256,306501,"0.0-4.81-1.81","bs77jusau02e8ya",246,"8.csv","","null","resources/maskTrios/L1BB.jpg","null","",NA,NA,NA,NA,""
"image-keyboard-response",257,307711,"0.0-4.81-2.81","bs77jusau02e8ya",246,"8.csv","","null","resources/images/fishbone.png","null","",NA,NA,NA,NA,""
"image-keyboard-response",258,308045,"0.0-4.82-0.82","bs77jusau02e8ya",246,"8.csv","","331.7999999523163","resources/trios/L1T2A3.jpg","38","restless",0.4,0.2,0.5,0.00225491589460836,"true"
"image-keyboard-response",259,308455,"0.0-4.82-1.82","bs77jusau02e8ya",246,"8.csv","","null","resources/maskTrios/BT2B.jpg","null","",NA,NA,NA,NA,""
"image-keyboard-response",260,309661,"0.0-4.82-2.82","bs77jusau02e8ya",246,"8.csv","","null","resources/images/coin2.png","null","",NA,NA,NA,NA,""
"image-keyboard-response",261,309955,"0.0-4.83-0.83","bs77jusau02e8ya",246,"8.csv","","291.59999990463257","resources/trios/L1T2A3.jpg","38","restless",0.4,0.2,0.5,0.909891125543345,"false"
"image-keyboard-response",262,310363,"0.0-4.83-1.83","bs77jusau02e8ya",246,"8.csv","","null","resources/maskTrios/BT2B.jpg","null","",NA,NA,NA,NA,""
"image-keyboard-response",263,311575,"0.0-4.83-2.83","bs77jusau02e8ya",246,"8.csv","","null","resources/images/fishbone.png","null","",NA,NA,NA,NA,""
"image-keyboard-response",264,311917,"0.0-4.84-0.84","bs77jusau02e8ya",246,"8.csv","","340.2999999523163","resources/trios/L1T2A3.jpg","39","restless",0.4,0.2,0.5,0.265801353350911,"true"
"image-keyboard-response",265,312319,"0.0-4.84-1.84","bs77jusau02e8ya",246,"8.csv","","null","resources/maskTrios/BBA3.jpg","null","",NA,NA,NA,NA,""
"image-keyboard-response",266,313532,"0.0-4.84-2.84","bs77jusau02e8ya",246,"8.csv","","null","resources/images/coin2.png","null","",NA,NA,NA,NA,""
"image-keyboard-response",267,313810,"0.0-4.85-0.85","bs77jusau02e8ya",246,"8.csv","","276.09999990463257","resources/trios/L1T2A3.jpg","38","restless",0.4,0.2,0.5,0.675438312093684,"false"
"image-keyboard-response",268,314219,"0.0-4.85-1.85","bs77jusau02e8ya",246,"8.csv","","null","resources/maskTrios/BT2B.jpg","null","",NA,NA,NA,NA,""
"image-keyboard-response",269,315432,"0.0-4.85-2.85","bs77jusau02e8ya",246,"8.csv","","null","resources/images/fishbone.png","null","",NA,NA,NA,NA,""
"image-keyboard-response",270,315697,"0.0-4.86-0.86","bs77jusau02e8ya",246,"8.csv","","262.90000009536743","resources/trios/L1T2A3.jpg","39","restless",0.4,0.3,0.5,0.943149827081976,"false"
"image-keyboard-response",271,316100,"0.0-4.86-1.86","bs77jusau02e8ya",246,"8.csv","","null","resources/maskTrios/BBA3.jpg","null","",NA,NA,NA,NA,""
"image-keyboard-response",272,317314,"0.0-4.86-2.86","bs77jusau02e8ya",246,"8.csv","","null","resources/images/fishbone.png","null","",NA,NA,NA,NA,""
"image-keyboard-response",273,317561,"0.0-4.87-0.87","bs77jusau02e8ya",246,"8.csv","","245.5","resources/trios/L1T2A3.jpg","37","restless",0.4,0.3,0.6,0.886655430041504,"false"
"image-keyboard-response",274,317969,"0.0-4.87-1.87","bs77jusau02e8ya",246,"8.csv","","null","resources/maskTrios/L1BB.jpg","null","",NA,NA,NA,NA,""
"image-keyboard-response",275,319181,"0.0-4.87-2.87","bs77jusau02e8ya",246,"8.csv","","null","resources/images/fishbone.png","null","",NA,NA,NA,NA,""
"image-keyboard-response",276,319221,"0.0-4.88-0.88","bs77jusau02e8ya",246,"8.csv","","39.09999990463257","resources/trios/L1T2A3.jpg","38","restless",0.4,0.3,0.6,0.520803863047947,"false"
"image-keyboard-response",277,319633,"0.0-4.88-1.88","bs77jusau02e8ya",246,"8.csv","","null","resources/maskTrios/BT2B.jpg","null","",NA,NA,NA,NA,""
"image-keyboard-response",278,320848,"0.0-4.88-2.88","bs77jusau02e8ya",246,"8.csv","","null","resources/images/fishbone.png","null","",NA,NA,NA,NA,""
"image-keyboard-response",279,321240,"0.0-4.89-0.89","bs77jusau02e8ya",246,"8.csv","","390.2000000476837","resources/trios/L1T2A3.jpg","39","restless",0.4,0.3,0.6,0.988117601045503,"false"
"image-keyboard-response",280,321652,"0.0-4.89-1.89","bs77jusau02e8ya",246,"8.csv","","null","resources/maskTrios/BBA3.jpg","null","",NA,NA,NA,NA,""
"image-keyboard-response",281,322868,"0.0-4.89-2.89","bs77jusau02e8ya",246,"8.csv","","null","resources/images/fishbone.png","null","",NA,NA,NA,NA,""
"image-keyboard-response",282,323092,"0.0-4.90-0.90","bs77jusau02e8ya",246,"8.csv","","221.90000009536743","resources/trios/L1T2A3.jpg","39","restless",0.4,0.3,0.6,0.90070632496844,"false"
"image-keyboard-response",283,323508,"0.0-4.90-1.90","bs77jusau02e8ya",246,"8.csv","","null","resources/maskTrios/BBA3.jpg","null","",NA,NA,NA,NA,""
"image-keyboard-response",284,324720,"0.0-4.90-2.90","bs77jusau02e8ya",246,"8.csv","","null","resources/images/fishbone.png","null","",NA,NA,NA,NA,""
"image-keyboard-response",285,324936,"0.0-4.91-0.91","bs77jusau02e8ya",246,"8.csv","","213.29999995231628","resources/trios/L1T2A3.jpg","37","restless",0.4,0.3,0.6,0.755798651490107,"false"
"image-keyboard-response",286,325345,"0.0-4.91-1.91","bs77jusau02e8ya",246,"8.csv","","null","resources/maskTrios/L1BB.jpg","null","",NA,NA,NA,NA,""
"image-keyboard-response",287,326561,"0.0-4.91-2.91","bs77jusau02e8ya",246,"8.csv","","null","resources/images/fishbone.png","null","",NA,NA,NA,NA,""
"image-keyboard-response",288,326814,"0.0-4.92-0.92","bs77jusau02e8ya",246,"8.csv","","250.5","resources/trios/L1T2A3.jpg","37","restless",0.4,0.3,0.6,0.280757548788525,"true"
"image-keyboard-response",289,327230,"0.0-4.92-1.92","bs77jusau02e8ya",246,"8.csv","","null","resources/maskTrios/L1BB.jpg","null","",NA,NA,NA,NA,""
"image-keyboard-response",290,328442,"0.0-4.92-2.92","bs77jusau02e8ya",246,"8.csv","","null","resources/images/coin2.png","null","",NA,NA,NA,NA,""
"image-keyboard-response",291,328711,"0.0-4.93-0.93","bs77jusau02e8ya",246,"8.csv","","267.7999999523163","resources/trios/L1T2A3.jpg","38","restless",0.4,0.4,0.6,0.234454291613857,"true"
"image-keyboard-response",292,329123,"0.0-4.93-1.93","bs77jusau02e8ya",246,"8.csv","","null","resources/maskTrios/BT2B.jpg","null","",NA,NA,NA,NA,""
"image-keyboard-response",293,330325,"0.0-4.93-2.93","bs77jusau02e8ya",246,"8.csv","","null","resources/images/coin2.png","null","",NA,NA,NA,NA,""
"image-keyboard-response",294,330569,"0.0-4.94-0.94","bs77jusau02e8ya",246,"8.csv","","243.19999980926514","resources/trios/L1T2A3.jpg","39","restless",0.4,0.4,0.6,0.999961719355159,"false"
"image-keyboard-response",295,330976,"0.0-4.94-1.94","bs77jusau02e8ya",246,"8.csv","","null","resources/maskTrios/BBA3.jpg","null","",NA,NA,NA,NA,""
"image-keyboard-response",296,332186,"0.0-4.94-2.94","bs77jusau02e8ya",246,"8.csv","","null","resources/images/fishbone.png","null","",NA,NA,NA,NA,""
"image-keyboard-response",297,332478,"0.0-4.95-0.95","bs77jusau02e8ya",246,"8.csv","","289.90000009536743","resources/trios/L1T2A3.jpg","37","restless",0.4,0.4,0.6,0.0401322356994409,"true"
"image-keyboard-response",298,332884,"0.0-4.95-1.95","bs77jusau02e8ya",246,"8.csv","","null","resources/maskTrios/L1BB.jpg","null","",NA,NA,NA,NA,""
"image-keyboard-response",299,334095,"0.0-4.95-2.95","bs77jusau02e8ya",246,"8.csv","","null","resources/images/coin2.png","null","",NA,NA,NA,NA,""
"image-keyboard-response",300,334337,"0.0-4.96-0.96","bs77jusau02e8ya",246,"8.csv","","241","resources/trios/L1T2A3.jpg","38","restless",0.4,0.4,0.6,0.994900048176868,"false"
"image-keyboard-response",301,334749,"0.0-4.96-1.96","bs77jusau02e8ya",246,"8.csv","","null","resources/maskTrios/BT2B.jpg","null","",NA,NA,NA,NA,""
"image-keyboard-response",302,335959,"0.0-4.96-2.96","bs77jusau02e8ya",246,"8.csv","","null","resources/images/fishbone.png","null","",NA,NA,NA,NA,""
"image-keyboard-response",303,336256,"0.0-4.97-0.97","bs77jusau02e8ya",246,"8.csv","","295.2999999523163","resources/trios/L1T2A3.jpg","37","restless",0.4,0.4,0.6,0.966092627774969,"false"
"image-keyboard-response",304,336659,"0.0-4.97-1.97","bs77jusau02e8ya",246,"8.csv","","null","resources/maskTrios/L1BB.jpg","null","",NA,NA,NA,NA,""
"image-keyboard-response",305,337872,"0.0-4.97-2.97","bs77jusau02e8ya",246,"8.csv","","null","resources/images/fishbone.png","null","",NA,NA,NA,NA,""
"image-keyboard-response",306,337968,"0.0-4.98-0.98","bs77jusau02e8ya",246,"8.csv","","94.09999990463257","resources/trios/L1T2A3.jpg","38","restless",0.4,0.4,0.5,0.155164129277072,"true"
"image-keyboard-response",307,338383,"0.0-4.98-1.98","bs77jusau02e8ya",246,"8.csv","","null","resources/maskTrios/BT2B.jpg","null","",NA,NA,NA,NA,""
"image-keyboard-response",308,339594,"0.0-4.98-2.98","bs77jusau02e8ya",246,"8.csv","","null","resources/images/coin2.png","null","",NA,NA,NA,NA,""
"image-keyboard-response",309,339849,"0.0-4.99-0.99","bs77jusau02e8ya",246,"8.csv","","253.29999995231628","resources/trios/L1T2A3.jpg","38","restless",0.4,0.4,0.5,0.794631838565125,"false"
"image-keyboard-response",310,340263,"0.0-4.99-1.99","bs77jusau02e8ya",246,"8.csv","","null","resources/maskTrios/BT2B.jpg","null","",NA,NA,NA,NA,""
"image-keyboard-response",311,341475,"0.0-4.99-2.99","bs77jusau02e8ya",246,"8.csv","","null","resources/images/fishbone.png","null","",NA,NA,NA,NA,""
"image-keyboard-response",312,341712,"0.0-4.100-0.100","bs77jusau02e8ya",246,"8.csv","","235","resources/trios/L1T2A3.jpg","38","restless",0.4,0.4,0.5,0.126189743936381,"true"
"image-keyboard-response",313,342129,"0.0-4.100-1.100","bs77jusau02e8ya",246,"8.csv","","null","resources/maskTrios/BT2B.jpg","null","",NA,NA,NA,NA,""
"image-keyboard-response",314,343339,"0.0-4.100-2.100","bs77jusau02e8ya",246,"8.csv","","null","resources/images/coin2.png","null","",NA,NA,NA,NA,""
"image-keyboard-response",315,343596,"0.0-4.101-0.101","bs77jusau02e8ya",246,"8.csv","","254.60000014305115","resources/trios/L1T2A3.jpg","37","restless",0.5,0.4,0.5,0.0510836936030263,"true"
"image-keyboard-response",316,344011,"0.0-4.101-1.101","bs77jusau02e8ya",246,"8.csv","","null","resources/maskTrios/L1BB.jpg","null","",NA,NA,NA,NA,""
"image-keyboard-response",317,345219,"0.0-4.101-2.101","bs77jusau02e8ya",246,"8.csv","","null","resources/images/coin2.png","null","",NA,NA,NA,NA,""
"image-keyboard-response",318,345449,"0.0-4.102-0.102","bs77jusau02e8ya",246,"8.csv","","228","resources/trios/L1T2A3.jpg","38","restless",0.5,0.4,0.5,0.638879164728631,"false"
"image-keyboard-response",319,345852,"0.0-4.102-1.102","bs77jusau02e8ya",246,"8.csv","","null","resources/maskTrios/BT2B.jpg","null","",NA,NA,NA,NA,""
"image-keyboard-response",320,347062,"0.0-4.102-2.102","bs77jusau02e8ya",246,"8.csv","","null","resources/images/fishbone.png","null","",NA,NA,NA,NA,""
"image-keyboard-response",321,347269,"0.0-4.103-0.103","bs77jusau02e8ya",246,"8.csv","","205.40000009536743","resources/trios/L1T2A3.jpg","37","restless",0.5,0.4,0.5,0.708494966476914,"false"
"image-keyboard-response",322,347683,"0.0-4.103-1.103","bs77jusau02e8ya",246,"8.csv","","null","resources/maskTrios/L1BB.jpg","null","",NA,NA,NA,NA,""
"image-keyboard-response",323,348899,"0.0-4.103-2.103","bs77jusau02e8ya",246,"8.csv","","null","resources/images/fishbone.png","null","",NA,NA,NA,NA,""
"image-keyboard-response",324,349148,"0.0-4.104-0.104","bs77jusau02e8ya",246,"8.csv","","247.59999990463257","resources/trios/L1T2A3.jpg","39","restless",0.6,0.4,0.5,0.434966978698969,"true"
"image-keyboard-response",325,349554,"0.0-4.104-1.104","bs77jusau02e8ya",246,"8.csv","","null","resources/maskTrios/BBA3.jpg","null","",NA,NA,NA,NA,""
"image-keyboard-response",326,350766,"0.0-4.104-2.104","bs77jusau02e8ya",246,"8.csv","","null","resources/images/coin2.png","null","",NA,NA,NA,NA,""
"image-keyboard-response",327,350805,"0.0-4.105-0.105","bs77jusau02e8ya",246,"8.csv","","37.40000009536743","resources/trios/L1T2A3.jpg","39","restless",0.6,0.4,0.5,0.630048806068787,"false"
"image-keyboard-response",328,351214,"0.0-4.105-1.105","bs77jusau02e8ya",246,"8.csv","","null","resources/maskTrios/BBA3.jpg","null","",NA,NA,NA,NA,""
"image-keyboard-response",329,352424,"0.0-4.105-2.105","bs77jusau02e8ya",246,"8.csv","","null","resources/images/fishbone.png","null","",NA,NA,NA,NA,""
"image-keyboard-response",330,352928,"0.0-4.106-0.106","bs77jusau02e8ya",246,"8.csv","","502.5","resources/trios/L1T2A3.jpg","38","restless",0.6,0.3,0.5,0.519879553987314,"false"
"image-keyboard-response",331,353342,"0.0-4.106-1.106","bs77jusau02e8ya",246,"8.csv","","null","resources/maskTrios/BT2B.jpg","null","",NA,NA,NA,NA,""
"image-keyboard-response",332,354554,"0.0-4.106-2.106","bs77jusau02e8ya",246,"8.csv","","null","resources/images/fishbone.png","null","",NA,NA,NA,NA,""
"image-keyboard-response",333,354643,"0.0-4.107-0.107","bs77jusau02e8ya",246,"8.csv","","87.29999995231628","resources/trios/L1T2A3.jpg","37","restless",0.6,0.3,0.5,0.474987901915401,"true"
"image-keyboard-response",334,355050,"0.0-4.107-1.107","bs77jusau02e8ya",246,"8.csv","","null","resources/maskTrios/L1BB.jpg","null","",NA,NA,NA,NA,""
"image-keyboard-response",335,356263,"0.0-4.107-2.107","bs77jusau02e8ya",246,"8.csv","","null","resources/images/coin2.png","null","",NA,NA,NA,NA,""
"image-keyboard-response",336,356583,"0.0-4.108-0.108","bs77jusau02e8ya",246,"8.csv","","318.40000009536743","resources/trios/L1T2A3.jpg","37","restless",0.6,0.3,0.5,0.0191692242426478,"true"
"image-keyboard-response",337,356993,"0.0-4.108-1.108","bs77jusau02e8ya",246,"8.csv","","null","resources/maskTrios/L1BB.jpg","null","",NA,NA,NA,NA,""
"image-keyboard-response",338,358206,"0.0-4.108-2.108","bs77jusau02e8ya",246,"8.csv","","null","resources/images/coin2.png","null","",NA,NA,NA,NA,""
"image-keyboard-response",339,358444,"0.0-4.109-0.109","bs77jusau02e8ya",246,"8.csv","","236.60000014305115","resources/trios/L1T2A3.jpg","37","restless",0.6,0.3,0.5,0.961764290145206,"false"
"image-keyboard-response",340,358860,"0.0-4.109-1.109","bs77jusau02e8ya",246,"8.csv","","null","resources/maskTrios/L1BB.jpg","null","",NA,NA,NA,NA,""
"image-keyboard-response",341,360073,"0.0-4.109-2.109","bs77jusau02e8ya",246,"8.csv","","null","resources/images/fishbone.png","null","",NA,NA,NA,NA,""
"image-keyboard-response",342,360289,"0.0-4.110-0.110","bs77jusau02e8ya",246,"8.csv","","213.79999995231628","resources/trios/L1T2A3.jpg","38","restless",0.6,0.3,0.5,0.434622227984913,"false"
"image-keyboard-response",343,360692,"0.0-4.110-1.110","bs77jusau02e8ya",246,"8.csv","","null","resources/maskTrios/BT2B.jpg","null","",NA,NA,NA,NA,""
"image-keyboard-response",344,361905,"0.0-4.110-2.110","bs77jusau02e8ya",246,"8.csv","","null","resources/images/fishbone.png","null","",NA,NA,NA,NA,""
"image-keyboard-response",345,361987,"0.0-4.111-0.111","bs77jusau02e8ya",246,"8.csv","","80.29999995231628","resources/trios/L1T2A3.jpg","38","restless",0.7,0.3,0.5,0.44847010092801,"false"
"image-keyboard-response",346,362401,"0.0-4.111-1.111","bs77jusau02e8ya",246,"8.csv","","null","resources/maskTrios/BT2B.jpg","null","",NA,NA,NA,NA,""
"image-keyboard-response",347,363612,"0.0-4.111-2.111","bs77jusau02e8ya",246,"8.csv","","null","resources/images/fishbone.png","null","",NA,NA,NA,NA,""
"image-keyboard-response",348,363942,"0.0-4.112-0.112","bs77jusau02e8ya",246,"8.csv","","328.7000000476837","resources/trios/L1T2A3.jpg","39","restless",0.7,0.3,0.5,0.43123830608052,"true"
"image-keyboard-response",349,364356,"0.0-4.112-1.112","bs77jusau02e8ya",246,"8.csv","","null","resources/maskTrios/BBA3.jpg","null","",NA,NA,NA,NA,""
"image-keyboard-response",350,365570,"0.0-4.112-2.112","bs77jusau02e8ya",246,"8.csv","","null","resources/images/coin2.png","null","",NA,NA,NA,NA,""
"image-keyboard-response",351,365795,"0.0-4.113-0.113","bs77jusau02e8ya",246,"8.csv","","223.5","resources/trios/L1T2A3.jpg","39","restless",0.7,0.3,0.5,0.601000420786163,"false"
"image-keyboard-response",352,366208,"0.0-4.113-1.113","bs77jusau02e8ya",246,"8.csv","","null","resources/maskTrios/BBA3.jpg","null","",NA,NA,NA,NA,""
"image-keyboard-response",353,367411,"0.0-4.113-2.113","bs77jusau02e8ya",246,"8.csv","","null","resources/images/fishbone.png","null","",NA,NA,NA,NA,""
"image-keyboard-response",354,367710,"0.0-4.114-0.114","bs77jusau02e8ya",246,"8.csv","","297.2000000476837","resources/trios/L1T2A3.jpg","39","restless",0.8,0.3,0.5,0.175690365912446,"true"
"image-keyboard-response",355,368126,"0.0-4.114-1.114","bs77jusau02e8ya",246,"8.csv","","null","resources/maskTrios/BBA3.jpg","null","",NA,NA,NA,NA,""
"image-keyboard-response",356,369341,"0.0-4.114-2.114","bs77jusau02e8ya",246,"8.csv","","null","resources/images/coin2.png","null","",NA,NA,NA,NA,""
"image-keyboard-response",357,369571,"0.0-4.115-0.115","bs77jusau02e8ya",246,"8.csv","","228.29999995231628","resources/trios/L1T2A3.jpg","39","restless",0.8,0.3,0.5,0.687367994841191,"false"
"image-keyboard-response",358,369981,"0.0-4.115-1.115","bs77jusau02e8ya",246,"8.csv","","null","resources/maskTrios/BBA3.jpg","null","",NA,NA,NA,NA,""
"image-keyboard-response",359,371191,"0.0-4.115-2.115","bs77jusau02e8ya",246,"8.csv","","null","resources/images/fishbone.png","null","",NA,NA,NA,NA,""
"image-keyboard-response",360,371612,"0.0-4.116-0.116","bs77jusau02e8ya",246,"8.csv","","418.90000009536743","resources/trios/L1T2A3.jpg","38","restless",0.8,0.3,0.6,0.442332209184607,"false"
"image-keyboard-response",361,372018,"0.0-4.116-1.116","bs77jusau02e8ya",246,"8.csv","","null","resources/maskTrios/BT2B.jpg","null","",NA,NA,NA,NA,""
"image-keyboard-response",362,373234,"0.0-4.116-2.116","bs77jusau02e8ya",246,"8.csv","","null","resources/images/fishbone.png","null","",NA,NA,NA,NA,""
"image-keyboard-response",363,373387,"0.0-4.117-0.117","bs77jusau02e8ya",246,"8.csv","","151","resources/trios/L1T2A3.jpg","38","restless",0.8,0.3,0.6,0.913069536142906,"false"
"image-keyboard-response",364,373790,"0.0-4.117-1.117","bs77jusau02e8ya",246,"8.csv","","null","resources/maskTrios/BT2B.jpg","null","",NA,NA,NA,NA,""
"image-keyboard-response",365,375007,"0.0-4.117-2.117","bs77jusau02e8ya",246,"8.csv","","null","resources/images/fishbone.png","null","",NA,NA,NA,NA,""
"image-keyboard-response",366,376561,"0.0-4.118-0.118","bs77jusau02e8ya",246,"8.csv","","1553","resources/trios/L1T2A3.jpg","38","restless",0.8,0.4,0.6,0.601780108286903,"false"
"image-keyboard-response",367,376974,"0.0-4.118-1.118","bs77jusau02e8ya",246,"8.csv","","null","resources/maskTrios/BT2B.jpg","null","",NA,NA,NA,NA,""
"image-keyboard-response",368,378180,"0.0-4.118-2.118","bs77jusau02e8ya",246,"8.csv","","null","resources/images/fishbone.png","null","",NA,NA,NA,NA,""
"image-keyboard-response",369,378456,"0.0-4.119-0.119","bs77jusau02e8ya",246,"8.csv","","274.7000000476837","resources/trios/L1T2A3.jpg","37","restless",0.8,0.4,0.6,0.92731897015264,"false"
"image-keyboard-response",370,378864,"0.0-4.119-1.119","bs77jusau02e8ya",246,"8.csv","","null","resources/maskTrios/L1BB.jpg","null","",NA,NA,NA,NA,""
"image-keyboard-response",371,380077,"0.0-4.119-2.119","bs77jusau02e8ya",246,"8.csv","","null","resources/images/fishbone.png","null","",NA,NA,NA,NA,""
"image-keyboard-response",372,380390,"0.0-4.120-0.120","bs77jusau02e8ya",246,"8.csv","","311.5","resources/trios/L1T2A3.jpg","37","restless",0.8,0.4,0.6,0.404954691806898,"true"
"image-keyboard-response",373,380807,"0.0-4.120-1.120","bs77jusau02e8ya",246,"8.csv","","null","resources/maskTrios/L1BB.jpg","null","",NA,NA,NA,NA,""
"image-keyboard-response",374,382021,"0.0-4.120-2.120","bs77jusau02e8ya",246,"8.csv","","null","resources/images/coin2.png","null","",NA,NA,NA,NA,""
"image-keyboard-response",375,382169,"0.0-4.121-0.121","bs77jusau02e8ya",246,"8.csv","","146.20000004768372","resources/trios/L1T2A3.jpg","37","restless",0.8,0.4,0.6,0.920103589585379,"false"
"image-keyboard-response",376,382583,"0.0-4.121-1.121","bs77jusau02e8ya",246,"8.csv","","null","resources/maskTrios/L1BB.jpg","null","",NA,NA,NA,NA,""
"image-keyboard-response",377,383795,"0.0-4.121-2.121","bs77jusau02e8ya",246,"8.csv","","null","resources/images/fishbone.png","null","",NA,NA,NA,NA,""
"image-keyboard-response",378,384178,"0.0-4.122-0.122","bs77jusau02e8ya",246,"8.csv","","380.59999990463257","resources/trios/L1T2A3.jpg","38","restless",0.8,0.4,0.6,0.810286709892472,"false"
"image-keyboard-response",379,384590,"0.0-4.122-1.122","bs77jusau02e8ya",246,"8.csv","","null","resources/maskTrios/BT2B.jpg","null","",NA,NA,NA,NA,""
"image-keyboard-response",380,385805,"0.0-4.122-2.122","bs77jusau02e8ya",246,"8.csv","","null","resources/images/fishbone.png","null","",NA,NA,NA,NA,""
"image-keyboard-response",381,386153,"0.0-4.123-0.123","bs77jusau02e8ya",246,"8.csv","","346.59999990463257","resources/trios/L1T2A3.jpg","39","restless",0.8,0.4,0.6,0.938992709621568,"false"
"image-keyboard-response",382,386566,"0.0-4.123-1.123","bs77jusau02e8ya",246,"8.csv","","null","resources/maskTrios/BBA3.jpg","null","",NA,NA,NA,NA,""
"image-keyboard-response",383,387782,"0.0-4.123-2.123","bs77jusau02e8ya",246,"8.csv","","null","resources/images/fishbone.png","null","",NA,NA,NA,NA,""
"image-keyboard-response",384,388569,"0.0-4.124-0.124","bs77jusau02e8ya",246,"8.csv","","785.5","resources/trios/L1T2A3.jpg","39","restless",0.8,0.5,0.6,0.303733581528645,"true"
"image-keyboard-response",385,388980,"0.0-4.124-1.124","bs77jusau02e8ya",246,"8.csv","","null","resources/maskTrios/BBA3.jpg","null","",NA,NA,NA,NA,""
"image-keyboard-response",386,390191,"0.0-4.124-2.124","bs77jusau02e8ya",246,"8.csv","","null","resources/images/coin2.png","null","",NA,NA,NA,NA,""
"image-keyboard-response",387,391996,"0.0-4.125-0.125","bs77jusau02e8ya",246,"8.csv","","1802.4000000953674","resources/trios/L1T2A3.jpg","39","restless",0.8,0.5,0.6,0.708152062052337,"false"
"image-keyboard-response",388,392405,"0.0-4.125-1.125","bs77jusau02e8ya",246,"8.csv","","null","resources/maskTrios/BBA3.jpg","null","",NA,NA,NA,NA,""
"image-keyboard-response",389,393615,"0.0-4.125-2.125","bs77jusau02e8ya",246,"8.csv","","null","resources/images/fishbone.png","null","",NA,NA,NA,NA,""
"image-keyboard-response",390,394178,"0.0-4.126-0.126","bs77jusau02e8ya",246,"8.csv","","561.1999998092651","resources/trios/L1T2A3.jpg","39","restless",0.8,0.5,0.6,0.940223176674968,"false"
"image-keyboard-response",391,394583,"0.0-4.126-1.126","bs77jusau02e8ya",246,"8.csv","","null","resources/maskTrios/BBA3.jpg","null","",NA,NA,NA,NA,""
"image-keyboard-response",392,395795,"0.0-4.126-2.126","bs77jusau02e8ya",246,"8.csv","","null","resources/images/fishbone.png","null","",NA,NA,NA,NA,""
"image-keyboard-response",393,396505,"0.0-4.127-0.127","bs77jusau02e8ya",246,"8.csv","","708.4000000953674","resources/trios/L1T2A3.jpg","39","restless",0.8,0.5,0.6,0.535412592588108,"true"
"image-keyboard-response",394,396913,"0.0-4.127-1.127","bs77jusau02e8ya",246,"8.csv","","null","resources/maskTrios/BBA3.jpg","null","",NA,NA,NA,NA,""
"image-keyboard-response",395,398118,"0.0-4.127-2.127","bs77jusau02e8ya",246,"8.csv","","null","resources/images/coin2.png","null","",NA,NA,NA,NA,""
"image-keyboard-response",396,398584,"0.0-4.128-0.128","bs77jusau02e8ya",246,"8.csv","","464.09999990463257","resources/trios/L1T2A3.jpg","39","restless",0.8,0.5,0.6,0.273643504982028,"true"
"image-keyboard-response",397,399000,"0.0-4.128-1.128","bs77jusau02e8ya",246,"8.csv","","null","resources/maskTrios/BBA3.jpg","null","",NA,NA,NA,NA,""
"image-keyboard-response",398,400216,"0.0-4.128-2.128","bs77jusau02e8ya",246,"8.csv","","null","resources/images/coin2.png","null","",NA,NA,NA,NA,""
"image-keyboard-response",399,422708,"0.0-4.129-0.129","bs77jusau02e8ya",246,"8.csv","","22490.89999985695","resources/trios/L1T2A3.jpg","39","restless",0.8,0.5,0.6,0.121898647495115,"true"
"image-keyboard-response",400,423115,"0.0-4.129-1.129","bs77jusau02e8ya",246,"8.csv","","null","resources/maskTrios/BBA3.jpg","null","",NA,NA,NA,NA,""
"image-keyboard-response",401,424321,"0.0-4.129-2.129","bs77jusau02e8ya",246,"8.csv","","null","resources/images/coin2.png","null","",NA,NA,NA,NA,""
"image-keyboard-response",402,425856,"0.0-4.130-0.130","bs77jusau02e8ya",246,"8.csv","","1533.7999999523163","resources/trios/L1T2A3.jpg","39","restless",0.8,0.5,0.6,0.663395151476272,"false"
"image-keyboard-response",403,426268,"0.0-4.130-1.130","bs77jusau02e8ya",246,"8.csv","","null","resources/maskTrios/BBA3.jpg","null","",NA,NA,NA,NA,""
"image-keyboard-response",404,427472,"0.0-4.130-2.130","bs77jusau02e8ya",246,"8.csv","","null","resources/images/fishbone.png","null","",NA,NA,NA,NA,""
"image-keyboard-response",405,428070,"0.0-4.131-0.131","bs77jusau02e8ya",246,"8.csv","","596.5","resources/trios/L1T2A3.jpg","38","restless",0.8,0.6,0.6,0.926500566595666,"false"
"image-keyboard-response",406,428484,"0.0-4.131-1.131","bs77jusau02e8ya",246,"8.csv","","null","resources/maskTrios/BT2B.jpg","null","",NA,NA,NA,NA,""
"image-keyboard-response",407,429691,"0.0-4.131-2.131","bs77jusau02e8ya",246,"8.csv","","null","resources/images/fishbone.png","null","",NA,NA,NA,NA,""
"image-keyboard-response",408,430054,"0.0-4.132-0.132","bs77jusau02e8ya",246,"8.csv","","361.40000009536743","resources/trios/L1T2A3.jpg","37","restless",0.7,0.6,0.6,0.806400023886372,"false"
"image-keyboard-response",409,430469,"0.0-4.132-1.132","bs77jusau02e8ya",246,"8.csv","","null","resources/maskTrios/L1BB.jpg","null","",NA,NA,NA,NA,""
"image-keyboard-response",410,431678,"0.0-4.132-2.132","bs77jusau02e8ya",246,"8.csv","","null","resources/images/fishbone.png","null","",NA,NA,NA,NA,""
"image-keyboard-response",411,444495,"0.0-4.133-0.133","bs77jusau02e8ya",246,"8.csv","","12815.5","resources/trios/L1T2A3.jpg","39","restless",0.7,0.6,0.6,0.994215054876282,"false"
"image-keyboard-response",412,444909,"0.0-4.133-1.133","bs77jusau02e8ya",246,"8.csv","","null","resources/maskTrios/BBA3.jpg","null","",NA,NA,NA,NA,""
"image-keyboard-response",413,446125,"0.0-4.133-2.133","bs77jusau02e8ya",246,"8.csv","","null","resources/images/fishbone.png","null","",NA,NA,NA,NA,""
"image-keyboard-response",414,446493,"0.0-4.134-0.134","bs77jusau02e8ya",246,"8.csv","","366.2999999523163","resources/trios/L1T2A3.jpg","39","restless",0.7,0.6,0.6,0.0345671897273927,"true"
"image-keyboard-response",415,446904,"0.0-4.134-1.134","bs77jusau02e8ya",246,"8.csv","","null","resources/maskTrios/BBA3.jpg","null","",NA,NA,NA,NA,""
"image-keyboard-response",416,448117,"0.0-4.134-2.134","bs77jusau02e8ya",246,"8.csv","","null","resources/images/coin2.png","null","",NA,NA,NA,NA,""
"image-keyboard-response",417,448753,"0.0-4.135-0.135","bs77jusau02e8ya",246,"8.csv","","634.5","resources/trios/L1T2A3.jpg","39","restless",0.7,0.6,0.6,0.428675371262378,"true"
"image-keyboard-response",418,449160,"0.0-4.135-1.135","bs77jusau02e8ya",246,"8.csv","","null","resources/maskTrios/BBA3.jpg","null","",NA,NA,NA,NA,""
"image-keyboard-response",419,450373,"0.0-4.135-2.135","bs77jusau02e8ya",246,"8.csv","","null","resources/images/coin2.png","null","",NA,NA,NA,NA,""
"image-keyboard-response",420,450743,"0.0-4.136-0.136","bs77jusau02e8ya",246,"8.csv","","368.2000000476837","resources/trios/L1T2A3.jpg","38","restless",0.7,0.6,0.6,0.371927974981514,"true"
"image-keyboard-response",421,451153,"0.0-4.136-1.136","bs77jusau02e8ya",246,"8.csv","","null","resources/maskTrios/BT2B.jpg","null","",NA,NA,NA,NA,""
"image-keyboard-response",422,452361,"0.0-4.136-2.136","bs77jusau02e8ya",246,"8.csv","","null","resources/images/coin2.png","null","",NA,NA,NA,NA,""
"image-keyboard-response",423,452651,"0.0-4.137-0.137","bs77jusau02e8ya",246,"8.csv","","288","resources/trios/L1T2A3.jpg","39","restless",0.7,0.6,0.6,0.660255458587627,"false"
"image-keyboard-response",424,453059,"0.0-4.137-1.137","bs77jusau02e8ya",246,"8.csv","","null","resources/maskTrios/BBA3.jpg","null","",NA,NA,NA,NA,""
"image-keyboard-response",425,454270,"0.0-4.137-2.137","bs77jusau02e8ya",246,"8.csv","","null","resources/images/fishbone.png","null","",NA,NA,NA,NA,""
"image-keyboard-response",426,454588,"0.0-4.138-0.138","bs77jusau02e8ya",246,"8.csv","","316.59999990463257","resources/trios/L1T2A3.jpg","38","restless",0.7,0.6,0.5,0.804298999004023,"false"
"image-keyboard-response",427,455002,"0.0-4.138-1.138","bs77jusau02e8ya",246,"8.csv","","null","resources/maskTrios/BT2B.jpg","null","",NA,NA,NA,NA,""
"image-keyboard-response",428,456216,"0.0-4.138-2.138","bs77jusau02e8ya",246,"8.csv","","null","resources/images/fishbone.png","null","",NA,NA,NA,NA,""
"image-keyboard-response",429,456455,"0.0-4.139-0.139","bs77jusau02e8ya",246,"8.csv","","237.70000004768372","resources/trios/L1T2A3.jpg","37","restless",0.6,0.6,0.5,0.604296137871174,"false"
"image-keyboard-response",430,456869,"0.0-4.139-1.139","bs77jusau02e8ya",246,"8.csv","","null","resources/maskTrios/L1BB.jpg","null","",NA,NA,NA,NA,""
"image-keyboard-response",431,458081,"0.0-4.139-2.139","bs77jusau02e8ya",246,"8.csv","","null","resources/images/fishbone.png","null","",NA,NA,NA,NA,""
"image-keyboard-response",432,458378,"0.0-4.140-0.140","bs77jusau02e8ya",246,"8.csv","","295.19999980926514","resources/trios/L1T2A3.jpg","39","restless",0.6,0.6,0.5,0.510805366821804,"false"
"image-keyboard-response",433,458795,"0.0-4.140-1.140","bs77jusau02e8ya",246,"8.csv","","null","resources/maskTrios/BBA3.jpg","null","",NA,NA,NA,NA,""
"image-keyboard-response",434,460008,"0.0-4.140-2.140","bs77jusau02e8ya",246,"8.csv","","null","resources/images/fishbone.png","null","",NA,NA,NA,NA,""
"image-keyboard-response",435,468287,"0.0-4.141-0.141","bs77jusau02e8ya",246,"8.csv","","8276.899999856949","resources/trios/L1T2A3.jpg","39","restless",0.6,0.6,0.5,0.912460348331731,"false"
"image-keyboard-response",436,468690,"0.0-4.141-1.141","bs77jusau02e8ya",246,"8.csv","","null","resources/maskTrios/BBA3.jpg","null","",NA,NA,NA,NA,""
"image-keyboard-response",437,469896,"0.0-4.141-2.141","bs77jusau02e8ya",246,"8.csv","","null","resources/images/fishbone.png","null","",NA,NA,NA,NA,""
"image-keyboard-response",438,470055,"0.0-4.142-0.142","bs77jusau02e8ya",246,"8.csv","","158.29999995231628","resources/trios/L1T2A3.jpg","37","restless",0.6,0.6,0.5,0.361442766602531,"true"
"image-keyboard-response",439,470470,"0.0-4.142-1.142","bs77jusau02e8ya",246,"8.csv","","null","resources/maskTrios/L1BB.jpg","null","",NA,NA,NA,NA,""
"image-keyboard-response",440,471677,"0.0-4.142-2.142","bs77jusau02e8ya",246,"8.csv","","null","resources/images/coin2.png","null","",NA,NA,NA,NA,""
"image-keyboard-response",441,471918,"0.0-4.143-0.143","bs77jusau02e8ya",246,"8.csv","","240.10000014305115","resources/trios/L1T2A3.jpg","37","restless",0.5,0.6,0.5,0.494646933176785,"true"
"image-keyboard-response",442,472329,"0.0-4.143-1.143","bs77jusau02e8ya",246,"8.csv","","null","resources/maskTrios/L1BB.jpg","null","",NA,NA,NA,NA,""
"image-keyboard-response",443,473536,"0.0-4.143-2.143","bs77jusau02e8ya",246,"8.csv","","null","resources/images/coin2.png","null","",NA,NA,NA,NA,""
"image-keyboard-response",444,473766,"0.0-4.144-0.144","bs77jusau02e8ya",246,"8.csv","","228.30000019073486","resources/trios/L1T2A3.jpg","38","restless",0.5,0.6,0.5,0.450254984529575,"true"
"image-keyboard-response",445,474172,"0.0-4.144-1.144","bs77jusau02e8ya",246,"8.csv","","null","resources/maskTrios/BT2B.jpg","null","",NA,NA,NA,NA,""
"image-keyboard-response",446,475387,"0.0-4.144-2.144","bs77jusau02e8ya",246,"8.csv","","null","resources/images/coin2.png","null","",NA,NA,NA,NA,""
"image-keyboard-response",447,475668,"0.0-4.145-0.145","bs77jusau02e8ya",246,"8.csv","","279.2999999523163","resources/trios/L1T2A3.jpg","37","restless",0.5,0.6,0.5,0.734201770413824,"false"
"image-keyboard-response",448,476086,"0.0-4.145-1.145","bs77jusau02e8ya",246,"8.csv","","null","resources/maskTrios/L1BB.jpg","null","",NA,NA,NA,NA,""
"image-keyboard-response",449,477296,"0.0-4.145-2.145","bs77jusau02e8ya",246,"8.csv","","null","resources/images/fishbone.png","null","",NA,NA,NA,NA,""
"image-keyboard-response",450,477531,"0.0-4.146-0.146","bs77jusau02e8ya",246,"8.csv","","233.39999985694885","resources/trios/L1T2A3.jpg","39","restless",0.5,0.6,0.5,0.310788781561313,"true"
"image-keyboard-response",451,477946,"0.0-4.146-1.146","bs77jusau02e8ya",246,"8.csv","","null","resources/maskTrios/BBA3.jpg","null","",NA,NA,NA,NA,""
"image-keyboard-response",452,479160,"0.0-4.146-2.146","bs77jusau02e8ya",246,"8.csv","","null","resources/images/coin2.png","null","",NA,NA,NA,NA,""
"image-keyboard-response",453,479434,"0.0-4.147-0.147","bs77jusau02e8ya",246,"8.csv","","272.7000000476837","resources/trios/L1T2A3.jpg","39","restless",0.4,0.6,0.5,0.804345629379623,"false"
"image-keyboard-response",454,479844,"0.0-4.147-1.147","bs77jusau02e8ya",246,"8.csv","","null","resources/maskTrios/BBA3.jpg","null","",NA,NA,NA,NA,""
"image-keyboard-response",455,481059,"0.0-4.147-2.147","bs77jusau02e8ya",246,"8.csv","","null","resources/images/fishbone.png","null","",NA,NA,NA,NA,""
"image-keyboard-response",456,481111,"0.0-4.148-0.148","bs77jusau02e8ya",246,"8.csv","","50.09999990463257","resources/trios/L1T2A3.jpg","39","restless",0.4,0.6,0.5,0.270593148352464,"true"
"image-keyboard-response",457,481514,"0.0-4.148-1.148","bs77jusau02e8ya",246,"8.csv","","null","resources/maskTrios/BBA3.jpg","null","",NA,NA,NA,NA,""
"image-keyboard-response",458,482730,"0.0-4.148-2.148","bs77jusau02e8ya",246,"8.csv","","null","resources/images/coin2.png","null","",NA,NA,NA,NA,""
"image-keyboard-response",459,482998,"0.0-4.149-0.149","bs77jusau02e8ya",246,"8.csv","","266.09999990463257","resources/trios/L1T2A3.jpg","39","restless",0.4,0.6,0.5,0.744347825404972,"false"
"image-keyboard-response",460,483400,"0.0-4.149-1.149","bs77jusau02e8ya",246,"8.csv","","null","resources/maskTrios/BBA3.jpg","null","",NA,NA,NA,NA,""
"image-keyboard-response",461,484616,"0.0-4.149-2.149","bs77jusau02e8ya",246,"8.csv","","null","resources/images/fishbone.png","null","",NA,NA,NA,NA,""
"image-keyboard-response",462,484895,"0.0-4.150-0.150","bs77jusau02e8ya",246,"8.csv","","277.40000009536743","resources/trios/L1T2A3.jpg","39","restless",0.3,0.6,0.5,0.0657820865379792,"true"
"image-keyboard-response",463,485298,"0.0-4.150-1.150","bs77jusau02e8ya",246,"8.csv","","null","resources/maskTrios/BBA3.jpg","null","",NA,NA,NA,NA,""
"image-keyboard-response",464,486507,"0.0-4.150-2.150","bs77jusau02e8ya",246,"8.csv","","null","resources/images/coin2.png","null","",NA,NA,NA,NA,""
"image-keyboard-response",465,487158,"0.0-4.151-0.151","bs77jusau02e8ya",246,"8.csv","","649.2000000476837","resources/trios/L1T2A3.jpg","39","restless",0.3,0.7,0.5,0.71500339102163,"false"
"image-keyboard-response",466,487575,"0.0-4.151-1.151","bs77jusau02e8ya",246,"8.csv","","null","resources/maskTrios/BBA3.jpg","null","",NA,NA,NA,NA,""
"image-keyboard-response",467,488790,"0.0-4.151-2.151","bs77jusau02e8ya",246,"8.csv","","null","resources/images/fishbone.png","null","",NA,NA,NA,NA,""
"image-keyboard-response",468,489176,"0.0-4.152-0.152","bs77jusau02e8ya",246,"8.csv","","384.2999999523163","resources/trios/L1T2A3.jpg","37","restless",0.3,0.7,0.5,0.767660095779489,"false"
"image-keyboard-response",469,489581,"0.0-4.152-1.152","bs77jusau02e8ya",246,"8.csv","","null","resources/maskTrios/L1BB.jpg","null","",NA,NA,NA,NA,""
"image-keyboard-response",470,490791,"0.0-4.152-2.152","bs77jusau02e8ya",246,"8.csv","","null","resources/images/fishbone.png","null","",NA,NA,NA,NA,""
"image-keyboard-response",471,491451,"0.0-4.153-0.153","bs77jusau02e8ya",246,"8.csv","","658.3000001907349","resources/trios/L1T2A3.jpg","38","restless",0.3,0.7,0.5,0.775828602538957,"false"
"image-keyboard-response",472,491860,"0.0-4.153-1.153","bs77jusau02e8ya",246,"8.csv","","null","resources/maskTrios/BT2B.jpg","null","",NA,NA,NA,NA,""
"image-keyboard-response",473,493071,"0.0-4.153-2.153","bs77jusau02e8ya",246,"8.csv","","null","resources/images/fishbone.png","null","",NA,NA,NA,NA,""
"image-keyboard-response",474,493460,"0.0-4.154-0.154","bs77jusau02e8ya",246,"8.csv","","386.7999999523163","resources/trios/L1T2A3.jpg","38","restless",0.3,0.7,0.5,0.960709518075443,"false"
"image-keyboard-response",475,493862,"0.0-4.154-1.154","bs77jusau02e8ya",246,"8.csv","","null","resources/maskTrios/BT2B.jpg","null","",NA,NA,NA,NA,""
"image-keyboard-response",476,495074,"0.0-4.154-2.154","bs77jusau02e8ya",246,"8.csv","","null","resources/images/fishbone.png","null","",NA,NA,NA,NA,""
"image-keyboard-response",477,495198,"0.0-4.155-0.155","bs77jusau02e8ya",246,"8.csv","","122.20000004768372","resources/trios/L1T2A3.jpg","39","restless",0.3,0.7,0.5,0.133023969886801,"true"
"image-keyboard-response",478,495604,"0.0-4.155-1.155","bs77jusau02e8ya",246,"8.csv","","null","resources/maskTrios/BBA3.jpg","null","",NA,NA,NA,NA,""
"image-keyboard-response",479,496820,"0.0-4.155-2.155","bs77jusau02e8ya",246,"8.csv","","null","resources/images/coin2.png","null","",NA,NA,NA,NA,""
"image-keyboard-response",480,497128,"0.0-4.156-0.156","bs77jusau02e8ya",246,"8.csv","","306.2999999523163","resources/trios/L1T2A3.jpg","39","restless",0.3,0.7,0.5,0.925629081921548,"false"
"image-keyboard-response",481,497537,"0.0-4.156-1.156","bs77jusau02e8ya",246,"8.csv","","null","resources/maskTrios/BBA3.jpg","null","",NA,NA,NA,NA,""
"image-keyboard-response",482,498749,"0.0-4.156-2.156","bs77jusau02e8ya",246,"8.csv","","null","resources/images/fishbone.png","null","",NA,NA,NA,NA,""
"image-keyboard-response",483,499165,"0.0-4.157-0.157","bs77jusau02e8ya",246,"8.csv","","413.60000014305115","resources/trios/L1T2A3.jpg","37","restless",0.3,0.7,0.5,0.856782412998011,"false"
"image-keyboard-response",484,499576,"0.0-4.157-1.157","bs77jusau02e8ya",246,"8.csv","","null","resources/maskTrios/L1BB.jpg","null","",NA,NA,NA,NA,""
"image-keyboard-response",485,500791,"0.0-4.157-2.157","bs77jusau02e8ya",246,"8.csv","","null","resources/images/fishbone.png","null","",NA,NA,NA,NA,""
"image-keyboard-response",486,501294,"0.0-4.158-0.158","bs77jusau02e8ya",246,"8.csv","","501.59999990463257","resources/trios/L1T2A3.jpg","37","restless",0.3,0.7,0.5,0.772514595634561,"false"
"image-keyboard-response",487,501710,"0.0-4.158-1.158","bs77jusau02e8ya",246,"8.csv","","null","resources/maskTrios/L1BB.jpg","null","",NA,NA,NA,NA,""
"image-keyboard-response",488,502923,"0.0-4.158-2.158","bs77jusau02e8ya",246,"8.csv","","null","resources/images/fishbone.png","null","",NA,NA,NA,NA,""
"image-keyboard-response",489,503190,"0.0-4.159-0.159","bs77jusau02e8ya",246,"8.csv","","265.2000000476837","resources/trios/L1T2A3.jpg","39","restless",0.3,0.7,0.4,0.979168176210828,"false"
"image-keyboard-response",490,503607,"0.0-4.159-1.159","bs77jusau02e8ya",246,"8.csv","","null","resources/maskTrios/BBA3.jpg","null","",NA,NA,NA,NA,""
"image-keyboard-response",491,504809,"0.0-4.159-2.159","bs77jusau02e8ya",246,"8.csv","","null","resources/images/fishbone.png","null","",NA,NA,NA,NA,""
"image-keyboard-response",492,505562,"0.0-4.160-0.160","bs77jusau02e8ya",246,"8.csv","","750.6999998092651","resources/trios/L1T2A3.jpg","39","restless",0.3,0.6,0.4,0.193073984842528,"true"
"image-keyboard-response",493,505979,"0.0-4.160-1.160","bs77jusau02e8ya",246,"8.csv","","null","resources/maskTrios/BBA3.jpg","null","",NA,NA,NA,NA,""
"image-keyboard-response",494,507193,"0.0-4.160-2.160","bs77jusau02e8ya",246,"8.csv","","null","resources/images/coin2.png","null","",NA,NA,NA,NA,""
"image-keyboard-response",495,509961,"0.0-4.161-0.161","bs77jusau02e8ya",246,"8.csv","","2766.2000000476837","resources/trios/L1T2A3.jpg","39","restless",0.3,0.6,0.4,0.368677403839371,"true"
"image-keyboard-response",496,510376,"0.0-4.161-1.161","bs77jusau02e8ya",246,"8.csv","","null","resources/maskTrios/BBA3.jpg","null","",NA,NA,NA,NA,""
"image-keyboard-response",497,511584,"0.0-4.161-2.161","bs77jusau02e8ya",246,"8.csv","","null","resources/images/coin2.png","null","",NA,NA,NA,NA,""
"image-keyboard-response",498,511997,"0.0-4.162-0.162","bs77jusau02e8ya",246,"8.csv","","411.2999999523163","resources/trios/L1T2A3.jpg","39","restless",0.3,0.6,0.4,0.954167428626563,"false"
"image-keyboard-response",499,512409,"0.0-4.162-1.162","bs77jusau02e8ya",246,"8.csv","","null","resources/maskTrios/BBA3.jpg","null","",NA,NA,NA,NA,""
"image-keyboard-response",500,513623,"0.0-4.162-2.162","bs77jusau02e8ya",246,"8.csv","","null","resources/images/fishbone.png","null","",NA,NA,NA,NA,""
"image-keyboard-response",501,513960,"0.0-4.163-0.163","bs77jusau02e8ya",246,"8.csv","","335","resources/trios/L1T2A3.jpg","37","restless",0.4,0.6,0.4,0.82252118851496,"false"
"image-keyboard-response",502,514368,"0.0-4.163-1.163","bs77jusau02e8ya",246,"8.csv","","null","resources/maskTrios/L1BB.jpg","null","",NA,NA,NA,NA,""
"image-keyboard-response",503,515577,"0.0-4.163-2.163","bs77jusau02e8ya",246,"8.csv","","null","resources/images/fishbone.png","null","",NA,NA,NA,NA,""
"image-keyboard-response",504,516185,"0.0-4.164-0.164","bs77jusau02e8ya",246,"8.csv","","606.3000001907349","resources/trios/L1T2A3.jpg","38","restless",0.4,0.6,0.4,0.731182927342193,"false"
"image-keyboard-response",505,516599,"0.0-4.164-1.164","bs77jusau02e8ya",246,"8.csv","","null","resources/maskTrios/BT2B.jpg","null","",NA,NA,NA,NA,""
"image-keyboard-response",506,517809,"0.0-4.164-2.164","bs77jusau02e8ya",246,"8.csv","","null","resources/images/fishbone.png","null","",NA,NA,NA,NA,""
"image-keyboard-response",507,519093,"0.0-4.165-0.165","bs77jusau02e8ya",246,"8.csv","","1282.2000000476837","resources/trios/L1T2A3.jpg","38","restless",0.4,0.6,0.4,0.659094462013244,"false"
"image-keyboard-response",508,519497,"0.0-4.165-1.165","bs77jusau02e8ya",246,"8.csv","","null","resources/maskTrios/BT2B.jpg","null","",NA,NA,NA,NA,""
"image-keyboard-response",509,520710,"0.0-4.165-2.165","bs77jusau02e8ya",246,"8.csv","","null","resources/images/fishbone.png","null","",NA,NA,NA,NA,""
"image-keyboard-response",510,521130,"0.0-4.166-0.166","bs77jusau02e8ya",246,"8.csv","","418.2999999523163","resources/trios/L1T2A3.jpg","38","restless",0.4,0.6,0.4,0.742926683285634,"false"
"image-keyboard-response",511,521534,"0.0-4.166-1.166","bs77jusau02e8ya",246,"8.csv","","null","resources/maskTrios/BT2B.jpg","null","",NA,NA,NA,NA,""
"image-keyboard-response",512,522751,"0.0-4.166-2.166","bs77jusau02e8ya",246,"8.csv","","null","resources/images/fishbone.png","null","",NA,NA,NA,NA,""
"image-keyboard-response",513,523103,"0.0-4.167-0.167","bs77jusau02e8ya",246,"8.csv","","350.60000014305115","resources/trios/L1T2A3.jpg","39","restless",0.4,0.6,0.4,0.243057569155403,"true"
"image-keyboard-response",514,523511,"0.0-4.167-1.167","bs77jusau02e8ya",246,"8.csv","","null","resources/maskTrios/BBA3.jpg","null","",NA,NA,NA,NA,""
"image-keyboard-response",515,524725,"0.0-4.167-2.167","bs77jusau02e8ya",246,"8.csv","","null","resources/images/coin2.png","null","",NA,NA,NA,NA,""
"image-keyboard-response",516,525161,"0.0-4.168-0.168","bs77jusau02e8ya",246,"8.csv","","434.2000000476837","resources/trios/L1T2A3.jpg","39","restless",0.4,0.6,0.4,0.108006263796258,"true"
"image-keyboard-response",517,525576,"0.0-4.168-1.168","bs77jusau02e8ya",246,"8.csv","","null","resources/maskTrios/BBA3.jpg","null","",NA,NA,NA,NA,""
"image-keyboard-response",518,526787,"0.0-4.168-2.168","bs77jusau02e8ya",246,"8.csv","","null","resources/images/coin2.png","null","",NA,NA,NA,NA,""
"image-keyboard-response",519,527758,"0.0-4.169-0.169","bs77jusau02e8ya",246,"8.csv","","970","resources/trios/L1T2A3.jpg","39","restless",0.4,0.6,0.4,0.991851267465794,"false"
"image-keyboard-response",520,528174,"0.0-4.169-1.169","bs77jusau02e8ya",246,"8.csv","","null","resources/maskTrios/BBA3.jpg","null","",NA,NA,NA,NA,""
"image-keyboard-response",521,529385,"0.0-4.169-2.169","bs77jusau02e8ya",246,"8.csv","","null","resources/images/fishbone.png","null","",NA,NA,NA,NA,""
"image-keyboard-response",522,529744,"0.0-4.170-0.170","bs77jusau02e8ya",246,"8.csv","","358","resources/trios/L1T2A3.jpg","37","restless",0.4,0.5,0.4,0.120432483374008,"true"
"image-keyboard-response",523,530158,"0.0-4.170-1.170","bs77jusau02e8ya",246,"8.csv","","null","resources/maskTrios/L1BB.jpg","null","",NA,NA,NA,NA,""
"image-keyboard-response",524,531369,"0.0-4.170-2.170","bs77jusau02e8ya",246,"8.csv","","null","resources/images/coin2.png","null","",NA,NA,NA,NA,""
"image-keyboard-response",525,531769,"0.0-4.171-0.171","bs77jusau02e8ya",246,"8.csv","","397.89999985694885","resources/trios/L1T2A3.jpg","38","restless",0.4,0.5,0.4,0.0188626805213903,"true"
"image-keyboard-response",526,532177,"0.0-4.171-1.171","bs77jusau02e8ya",246,"8.csv","","null","resources/maskTrios/BT2B.jpg","null","",NA,NA,NA,NA,""
"image-keyboard-response",527,533387,"0.0-4.171-2.171","bs77jusau02e8ya",246,"8.csv","","null","resources/images/coin2.png","null","",NA,NA,NA,NA,""
"image-keyboard-response",528,533948,"0.0-4.172-0.172","bs77jusau02e8ya",246,"8.csv","","559.0999999046326","resources/trios/L1T2A3.jpg","38","restless",0.4,0.5,0.4,0.0780010530925279,"true"
"image-keyboard-response",529,534352,"0.0-4.172-1.172","bs77jusau02e8ya",246,"8.csv","","null","resources/maskTrios/BT2B.jpg","null","",NA,NA,NA,NA,""
"image-keyboard-response",530,535569,"0.0-4.172-2.172","bs77jusau02e8ya",246,"8.csv","","null","resources/images/coin2.png","null","",NA,NA,NA,NA,""
"image-keyboard-response",531,536361,"0.0-4.173-0.173","bs77jusau02e8ya",246,"8.csv","","790.6999998092651","resources/trios/L1T2A3.jpg","38","restless",0.4,0.5,0.4,0.660861116536305,"false"
"image-keyboard-response",532,536779,"0.0-4.173-1.173","bs77jusau02e8ya",246,"8.csv","","null","resources/maskTrios/BT2B.jpg","null","",NA,NA,NA,NA,""
"image-keyboard-response",533,537989,"0.0-4.173-2.173","bs77jusau02e8ya",246,"8.csv","","null","resources/images/fishbone.png","null","",NA,NA,NA,NA,""
"image-keyboard-response",534,538304,"0.0-4.174-0.174","bs77jusau02e8ya",246,"8.csv","","313.5","resources/trios/L1T2A3.jpg","39","restless",0.4,0.5,0.4,0.184475953109106,"true"
"image-keyboard-response",535,538707,"0.0-4.174-1.174","bs77jusau02e8ya",246,"8.csv","","null","resources/maskTrios/BBA3.jpg","null","",NA,NA,NA,NA,""
"image-keyboard-response",536,539921,"0.0-4.174-2.174","bs77jusau02e8ya",246,"8.csv","","null","resources/images/coin2.png","null","",NA,NA,NA,NA,""
"image-keyboard-response",537,540588,"0.0-4.175-0.175","bs77jusau02e8ya",246,"8.csv","","665.9000000953674","resources/trios/L1T2A3.jpg","39","restless",0.4,0.5,0.4,0.552661415352123,"false"
"image-keyboard-response",538,540993,"0.0-4.175-1.175","bs77jusau02e8ya",246,"8.csv","","null","resources/maskTrios/BBA3.jpg","null","",NA,NA,NA,NA,""
"image-keyboard-response",539,542200,"0.0-4.175-2.175","bs77jusau02e8ya",246,"8.csv","","null","resources/images/fishbone.png","null","",NA,NA,NA,NA,""
"image-keyboard-response",540,542596,"0.0-4.176-0.176","bs77jusau02e8ya",246,"8.csv","","394.39999985694885","resources/trios/L1T2A3.jpg","37","restless",0.4,0.5,0.4,0.0988724201020224,"true"
"image-keyboard-response",541,543011,"0.0-4.176-1.176","bs77jusau02e8ya",246,"8.csv","","null","resources/maskTrios/L1BB.jpg","null","",NA,NA,NA,NA,""
"image-keyboard-response",542,544221,"0.0-4.176-2.176","bs77jusau02e8ya",246,"8.csv","","null","resources/images/coin2.png","null","",NA,NA,NA,NA,""
"image-keyboard-response",543,545014,"0.0-4.177-0.177","bs77jusau02e8ya",246,"8.csv","","792.0999999046326","resources/trios/L1T2A3.jpg","37","restless",0.4,0.5,0.4,0.385936966053672,"true"
"image-keyboard-response",544,545431,"0.0-4.177-1.177","bs77jusau02e8ya",246,"8.csv","","null","resources/maskTrios/L1BB.jpg","null","",NA,NA,NA,NA,""
"image-keyboard-response",545,546646,"0.0-4.177-2.177","bs77jusau02e8ya",246,"8.csv","","null","resources/images/coin2.png","null","",NA,NA,NA,NA,""
"image-keyboard-response",546,549264,"0.0-4.178-0.178","bs77jusau02e8ya",246,"8.csv","","2615.2999999523163","resources/trios/L1T2A3.jpg","37","restless",0.4,0.5,0.4,0.21374560280555,"true"
"image-keyboard-response",547,549680,"0.0-4.178-1.178","bs77jusau02e8ya",246,"8.csv","","null","resources/maskTrios/L1BB.jpg","null","",NA,NA,NA,NA,""
"image-keyboard-response",548,550892,"0.0-4.178-2.178","bs77jusau02e8ya",246,"8.csv","","null","resources/images/coin2.png","null","",NA,NA,NA,NA,""
"image-keyboard-response",549,551178,"0.0-4.179-0.179","bs77jusau02e8ya",246,"8.csv","","284.7000000476837","resources/trios/L1T2A3.jpg","37","restless",0.4,0.5,0.4,0.00483147484555024,"true"
"image-keyboard-response",550,551593,"0.0-4.179-1.179","bs77jusau02e8ya",246,"8.csv","","null","resources/maskTrios/L1BB.jpg","null","",NA,NA,NA,NA,""
"image-keyboard-response",551,552796,"0.0-4.179-2.179","bs77jusau02e8ya",246,"8.csv","","null","resources/images/coin2.png","null","",NA,NA,NA,NA,""
"image-keyboard-response",552,553395,"0.0-4.180-0.180","bs77jusau02e8ya",246,"8.csv","","598.5","resources/trios/L1T2A3.jpg","37","restless",0.4,0.5,0.4,0.42987300808665,"false"
"image-keyboard-response",553,553807,"0.0-4.180-1.180","bs77jusau02e8ya",246,"8.csv","","null","resources/maskTrios/L1BB.jpg","null","",NA,NA,NA,NA,""
"image-keyboard-response",554,555015,"0.0-4.180-2.180","bs77jusau02e8ya",246,"8.csv","","null","resources/images/fishbone.png","null","",NA,NA,NA,NA,""
"image-keyboard-response",555,555330,"0.0-4.181-0.181","bs77jusau02e8ya",246,"8.csv","","313.89999985694885","resources/trios/L1T2A3.jpg","39","restless",0.4,0.5,0.4,0.0708890617639275,"true"
"image-keyboard-response",556,555742,"0.0-4.181-1.181","bs77jusau02e8ya",246,"8.csv","","null","resources/maskTrios/BBA3.jpg","null","",NA,NA,NA,NA,""
"image-keyboard-response",557,556957,"0.0-4.181-2.181","bs77jusau02e8ya",246,"8.csv","","null","resources/images/coin2.png","null","",NA,NA,NA,NA,""
"image-keyboard-response",558,557447,"0.0-4.182-0.182","bs77jusau02e8ya",246,"8.csv","","488.89999985694885","resources/trios/L1T2A3.jpg","39","restless",0.4,0.5,0.5,0.027389585926646,"true"
"image-keyboard-response",559,557859,"0.0-4.182-1.182","bs77jusau02e8ya",246,"8.csv","","null","resources/maskTrios/BBA3.jpg","null","",NA,NA,NA,NA,""
"image-keyboard-response",560,559074,"0.0-4.182-2.182","bs77jusau02e8ya",246,"8.csv","","null","resources/images/coin2.png","null","",NA,NA,NA,NA,""
"image-keyboard-response",561,559204,"0.0-4.183-0.183","bs77jusau02e8ya",246,"8.csv","","128","resources/trios/L1T2A3.jpg","39","restless",0.5,0.5,0.5,0.112039875783501,"true"
"image-keyboard-response",562,559615,"0.0-4.183-1.183","bs77jusau02e8ya",246,"8.csv","","null","resources/maskTrios/BBA3.jpg","null","",NA,NA,NA,NA,""
"image-keyboard-response",563,560828,"0.0-4.183-2.183","bs77jusau02e8ya",246,"8.csv","","null","resources/images/coin2.png","null","",NA,NA,NA,NA,""
"image-keyboard-response",564,561196,"0.0-4.184-0.184","bs77jusau02e8ya",246,"8.csv","","365.40000009536743","resources/trios/L1T2A3.jpg","39","restless",0.5,0.4,0.5,0.223248361211776,"true"
"image-keyboard-response",565,561599,"0.0-4.184-1.184","bs77jusau02e8ya",246,"8.csv","","null","resources/maskTrios/BBA3.jpg","null","",NA,NA,NA,NA,""
"image-keyboard-response",566,562814,"0.0-4.184-2.184","bs77jusau02e8ya",246,"8.csv","","null","resources/images/coin2.png","null","",NA,NA,NA,NA,""
"image-keyboard-response",567,564831,"0.0-4.185-0.185","bs77jusau02e8ya",246,"8.csv","","2015.8999998569489","resources/trios/L1T2A3.jpg","39","restless",0.5,0.4,0.5,0.87119175423123,"false"
"image-keyboard-response",568,565238,"0.0-4.185-1.185","bs77jusau02e8ya",246,"8.csv","","null","resources/maskTrios/BBA3.jpg","null","",NA,NA,NA,NA,""
"image-keyboard-response",569,566453,"0.0-4.185-2.185","bs77jusau02e8ya",246,"8.csv","","null","resources/images/fishbone.png","null","",NA,NA,NA,NA,""
"image-keyboard-response",570,567003,"0.0-4.186-0.186","bs77jusau02e8ya",246,"8.csv","","548.6999998092651","resources/trios/L1T2A3.jpg","37","restless",0.5,0.4,0.5,0.150000622856815,"true"
"image-keyboard-response",571,567417,"0.0-4.186-1.186","bs77jusau02e8ya",246,"8.csv","","null","resources/maskTrios/L1BB.jpg","null","",NA,NA,NA,NA,""
"image-keyboard-response",572,568619,"0.0-4.186-2.186","bs77jusau02e8ya",246,"8.csv","","null","resources/images/coin2.png","null","",NA,NA,NA,NA,""
"image-keyboard-response",573,569209,"0.0-4.187-0.187","bs77jusau02e8ya",246,"8.csv","","588.7999999523163","resources/trios/L1T2A3.jpg","37","restless",0.5,0.4,0.5,0.815381151481836,"false"
"image-keyboard-response",574,569613,"0.0-4.187-1.187","bs77jusau02e8ya",246,"8.csv","","null","resources/maskTrios/L1BB.jpg","null","",NA,NA,NA,NA,""
"image-keyboard-response",575,570822,"0.0-4.187-2.187","bs77jusau02e8ya",246,"8.csv","","null","resources/images/fishbone.png","null","",NA,NA,NA,NA,""
"image-keyboard-response",576,571136,"0.0-4.188-0.188","bs77jusau02e8ya",246,"8.csv","","312.2999999523163","resources/trios/L1T2A3.jpg","39","restless",0.5,0.4,0.5,0.582656553072697,"false"
"image-keyboard-response",577,571549,"0.0-4.188-1.188","bs77jusau02e8ya",246,"8.csv","","null","resources/maskTrios/BBA3.jpg","null","",NA,NA,NA,NA,""
"image-keyboard-response",578,572759,"0.0-4.188-2.188","bs77jusau02e8ya",246,"8.csv","","null","resources/images/fishbone.png","null","",NA,NA,NA,NA,""
"image-keyboard-response",579,573090,"0.0-4.189-0.189","bs77jusau02e8ya",246,"8.csv","","329.10000014305115","resources/trios/L1T2A3.jpg","38","restless",0.5,0.4,0.5,0.69539772607331,"false"
"image-keyboard-response",580,573507,"0.0-4.189-1.189","bs77jusau02e8ya",246,"8.csv","","null","resources/maskTrios/BT2B.jpg","null","",NA,NA,NA,NA,""
"image-keyboard-response",581,574719,"0.0-4.189-2.189","bs77jusau02e8ya",246,"8.csv","","null","resources/images/fishbone.png","null","",NA,NA,NA,NA,""
"image-keyboard-response",582,575062,"0.0-4.190-0.190","bs77jusau02e8ya",246,"8.csv","","341","resources/trios/L1T2A3.jpg","37","restless",0.5,0.4,0.5,0.987859053735164,"false"
"image-keyboard-response",583,575479,"0.0-4.190-1.190","bs77jusau02e8ya",246,"8.csv","","null","resources/maskTrios/L1BB.jpg","null","",NA,NA,NA,NA,""
"image-keyboard-response",584,576689,"0.0-4.190-2.190","bs77jusau02e8ya",246,"8.csv","","null","resources/images/fishbone.png","null","",NA,NA,NA,NA,""
"image-keyboard-response",585,577021,"0.0-4.191-0.191","bs77jusau02e8ya",246,"8.csv","","329.5","resources/trios/L1T2A3.jpg","39","restless",0.5,0.3,0.5,0.886680348112182,"false"
"image-keyboard-response",586,577427,"0.0-4.191-1.191","bs77jusau02e8ya",246,"8.csv","","null","resources/maskTrios/BBA3.jpg","null","",NA,NA,NA,NA,""
"image-keyboard-response",587,578640,"0.0-4.191-2.191","bs77jusau02e8ya",246,"8.csv","","null","resources/images/fishbone.png","null","",NA,NA,NA,NA,""
"image-keyboard-response",588,578938,"0.0-4.192-0.192","bs77jusau02e8ya",246,"8.csv","","296.39999985694885","resources/trios/L1T2A3.jpg","38","restless",0.5,0.3,0.5,0.923676575043697,"false"
"image-keyboard-response",589,579355,"0.0-4.192-1.192","bs77jusau02e8ya",246,"8.csv","","null","resources/maskTrios/BT2B.jpg","null","",NA,NA,NA,NA,""
"image-keyboard-response",590,580569,"0.0-4.192-2.192","bs77jusau02e8ya",246,"8.csv","","null","resources/images/fishbone.png","null","",NA,NA,NA,NA,""
"image-keyboard-response",591,580864,"0.0-4.193-0.193","bs77jusau02e8ya",246,"8.csv","","292.90000009536743","resources/trios/L1T2A3.jpg","38","restless",0.5,0.4,0.5,0.0243323557124673,"true"
"image-keyboard-response",592,581271,"0.0-4.193-1.193","bs77jusau02e8ya",246,"8.csv","","null","resources/maskTrios/BT2B.jpg","null","",NA,NA,NA,NA,""
"image-keyboard-response",593,582483,"0.0-4.193-2.193","bs77jusau02e8ya",246,"8.csv","","null","resources/images/coin2.png","null","",NA,NA,NA,NA,""
"image-keyboard-response",594,583286,"0.0-4.194-0.194","bs77jusau02e8ya",246,"8.csv","","801.5","resources/trios/L1T2A3.jpg","39","restless",0.5,0.4,0.5,0.397265623549862,"true"
"image-keyboard-response",595,583697,"0.0-4.194-1.194","bs77jusau02e8ya",246,"8.csv","","null","resources/maskTrios/BBA3.jpg","null","",NA,NA,NA,NA,""
"image-keyboard-response",596,584909,"0.0-4.194-2.194","bs77jusau02e8ya",246,"8.csv","","null","resources/images/coin2.png","null","",NA,NA,NA,NA,""
"image-keyboard-response",597,585160,"0.0-4.195-0.195","bs77jusau02e8ya",246,"8.csv","","249.29999995231628","resources/trios/L1T2A3.jpg","39","restless",0.5,0.4,0.4,0.960385296095383,"false"
"image-keyboard-response",598,585577,"0.0-4.195-1.195","bs77jusau02e8ya",246,"8.csv","","null","resources/maskTrios/BBA3.jpg","null","",NA,NA,NA,NA,""
"image-keyboard-response",599,586783,"0.0-4.195-2.195","bs77jusau02e8ya",246,"8.csv","","null","resources/images/fishbone.png","null","",NA,NA,NA,NA,""
"image-keyboard-response",600,587013,"0.0-4.196-0.196","bs77jusau02e8ya",246,"8.csv","","227.90000009536743","resources/trios/L1T2A3.jpg","37","restless",0.5,0.4,0.4,0.413134611549356,"true"
"image-keyboard-response",601,587417,"0.0-4.196-1.196","bs77jusau02e8ya",246,"8.csv","","null","resources/maskTrios/L1BB.jpg","null","",NA,NA,NA,NA,""
"image-keyboard-response",602,588629,"0.0-4.196-2.196","bs77jusau02e8ya",246,"8.csv","","null","resources/images/coin2.png","null","",NA,NA,NA,NA,""
"image-keyboard-response",603,589038,"0.0-4.197-0.197","bs77jusau02e8ya",246,"8.csv","","407.80000019073486","resources/trios/L1T2A3.jpg","37","restless",0.5,0.4,0.4,0.0927658219899443,"true"
"image-keyboard-response",604,589453,"0.0-4.197-1.197","bs77jusau02e8ya",246,"8.csv","","null","resources/maskTrios/L1BB.jpg","null","",NA,NA,NA,NA,""
"image-keyboard-response",605,590664,"0.0-4.197-2.197","bs77jusau02e8ya",246,"8.csv","","null","resources/images/coin2.png","null","",NA,NA,NA,NA,""
"image-keyboard-response",606,590985,"0.0-4.198-0.198","bs77jusau02e8ya",246,"8.csv","","318.7999999523163","resources/trios/L1T2A3.jpg","37","restless",0.5,0.4,0.4,0.510966281262216,"false"
"image-keyboard-response",607,591398,"0.0-4.198-1.198","bs77jusau02e8ya",246,"8.csv","","null","resources/maskTrios/L1BB.jpg","null","",NA,NA,NA,NA,""
"image-keyboard-response",608,592612,"0.0-4.198-2.198","bs77jusau02e8ya",246,"8.csv","","null","resources/images/fishbone.png","null","",NA,NA,NA,NA,""
"image-keyboard-response",609,592758,"0.0-4.199-0.199","bs77jusau02e8ya",246,"8.csv","","143.89999985694885","resources/trios/L1T2A3.jpg","39","restless",0.6,0.5,0.4,0.240423747197477,"true"
"image-keyboard-response",610,593172,"0.0-4.199-1.199","bs77jusau02e8ya",246,"8.csv","","null","resources/maskTrios/BBA3.jpg","null","",NA,NA,NA,NA,""
"image-keyboard-response",611,594387,"0.0-4.199-2.199","bs77jusau02e8ya",246,"8.csv","","null","resources/images/coin2.png","null","",NA,NA,NA,NA,""
"survey-text",612,616578,"0.0-5.0","bs77jusau02e8ya",246,"8.csv","","22183.5","","","",NA,NA,NA,NA,""
