"trial_type","trial_index","time_elapsed","internal_node_id","subject","participantCode","walkNumber","success","rt","stimulus","key_press","test_part","leftProb","midProb","rightProb","generatedNum","correct"
"pavlovia",0,1216,"0.0-0.0","6j6vyh25p99m6rq",78,"109.csv","","","","","",NA,NA,NA,NA,""
"fullscreen",1,3714,"0.0-1.0","6j6vyh25p99m6rq",78,"109.csv","true","","","","",NA,NA,NA,NA,""
"survey-html-form",2,25958,"0.0-2.0","6j6vyh25p99m6rq",78,"109.csv","","22242.5","","","",NA,NA,NA,NA,""
"image-keyboard-response",3,36060,"0.0-3.0-0.0","6j6vyh25p99m6rq",78,"109.csv","","10100.60000000894","resources/images/parrot_nobg.png","13","",NA,NA,NA,NA,""
"image-keyboard-response",4,39062,"0.0-3.0-1.0","6j6vyh25p99m6rq",78,"109.csv","","null","resources/image_sets/111.png","null","",NA,NA,NA,NA,""
"image-keyboard-response",5,55139,"0.0-3.0-2.0","6j6vyh25p99m6rq",78,"109.csv","","16076","resources/image_sets/left_highlight.png","37","",NA,NA,NA,NA,""
"image-keyboard-response",6,57151,"0.0-3.0-3.0","6j6vyh25p99m6rq",78,"109.csv","","2010.5999999940395","resources/image_sets/mid_highlight.png","38","",NA,NA,NA,NA,""
"image-keyboard-response",7,58514,"0.0-3.0-4.0","6j6vyh25p99m6rq",78,"109.csv","","1361.800000011921","resources/image_sets/right_highlight.png","39","",NA,NA,NA,NA,""
"image-keyboard-response",8,60591,"0.0-3.0-5.0","6j6vyh25p99m6rq",78,"109.csv","","2076.800000011921","resources/image_sets/111.png","13","",NA,NA,NA,NA,""
"image-keyboard-response",9,66426,"0.0-3.0-6.0","6j6vyh25p99m6rq",78,"109.csv","","5834","resources/images/coin2.png","13","",NA,NA,NA,NA,""
"image-keyboard-response",10,67522,"0.0-3.0-7.0","6j6vyh25p99m6rq",78,"109.csv","","1094.7999999970198","resources/images/fishbone.png","13","",NA,NA,NA,NA,""
"html-keyboard-response",11,68656,"0.0-3.0-8.0","6j6vyh25p99m6rq",78,"109.csv","","1133.5","<p>You can track your coin total on the top right of your screen. </p><p>At the end of your journey you will be directed to a survey, so please click on the link before exiting the task</p><p>Press Enter to begin</p>","13","",NA,NA,NA,NA,""
"image-keyboard-response",12,69856,"0.0-4.0-0.0","6j6vyh25p99m6rq",78,"109.csv","","1198.2999999970198","resources/trios/L4T2A2.jpg","39","restless",0.3,0.9,0.7,0.297181630916816,"true"
"image-keyboard-response",13,70272,"0.0-4.0-1.0","6j6vyh25p99m6rq",78,"109.csv","","null","resources/maskTrios/BBA2.jpg","null","",NA,NA,NA,NA,""
"image-keyboard-response",14,71489,"0.0-4.0-2.0","6j6vyh25p99m6rq",78,"109.csv","","null","resources/images/coin2.png","null","",NA,NA,NA,NA,""
"image-keyboard-response",15,72714,"0.0-4.1-0.1","6j6vyh25p99m6rq",78,"109.csv","","1223.1000000089407","resources/trios/L4T2A2.jpg","38","restless",0.3,0.9,0.7,0.822974319249409,"true"
"image-keyboard-response",16,73121,"0.0-4.1-1.1","6j6vyh25p99m6rq",78,"109.csv","","null","resources/maskTrios/BT2B.jpg","null","",NA,NA,NA,NA,""
"image-keyboard-response",17,74326,"0.0-4.1-2.1","6j6vyh25p99m6rq",78,"109.csv","","null","resources/images/coin2.png","null","",NA,NA,NA,NA,""
"image-keyboard-response",18,74700,"0.0-4.2-0.2","6j6vyh25p99m6rq",78,"109.csv","","373.29999999701977","resources/trios/L4T2A2.jpg","38","restless",0.3,0.9,0.7,0.117832766127415,"true"
"image-keyboard-response",19,75107,"0.0-4.2-1.2","6j6vyh25p99m6rq",78,"109.csv","","null","resources/maskTrios/BT2B.jpg","null","",NA,NA,NA,NA,""
"image-keyboard-response",20,76309,"0.0-4.2-2.2","6j6vyh25p99m6rq",78,"109.csv","","null","resources/images/coin2.png","null","",NA,NA,NA,NA,""
"image-keyboard-response",21,76455,"0.0-4.3-0.3","6j6vyh25p99m6rq",78,"109.csv","","144.59999999403954","resources/trios/L4T2A2.jpg","38","restless",0.2,0.9,0.7,0.101261223311879,"true"
"image-keyboard-response",22,76857,"0.0-4.3-1.3","6j6vyh25p99m6rq",78,"109.csv","","null","resources/maskTrios/BT2B.jpg","null","",NA,NA,NA,NA,""
"image-keyboard-response",23,78061,"0.0-4.3-2.3","6j6vyh25p99m6rq",78,"109.csv","","null","resources/images/coin2.png","null","",NA,NA,NA,NA,""
"image-keyboard-response",24,78076,"0.0-4.4-0.4","6j6vyh25p99m6rq",78,"109.csv","","14.200000002980232","resources/trios/L4T2A2.jpg","38","restless",0.2,0.8,0.8,0.751448853476398,"true"
"image-keyboard-response",25,78489,"0.0-4.4-1.4","6j6vyh25p99m6rq",78,"109.csv","","null","resources/maskTrios/BT2B.jpg","null","",NA,NA,NA,NA,""
"image-keyboard-response",26,79693,"0.0-4.4-2.4","6j6vyh25p99m6rq",78,"109.csv","","null","resources/images/coin2.png","null","",NA,NA,NA,NA,""
"image-keyboard-response",27,79874,"0.0-4.5-0.5","6j6vyh25p99m6rq",78,"109.csv","","179.09999999403954","resources/trios/L4T2A2.jpg","38","restless",0.3,0.8,0.8,0.083379714595736,"true"
"image-keyboard-response",28,80288,"0.0-4.5-1.5","6j6vyh25p99m6rq",78,"109.csv","","null","resources/maskTrios/BT2B.jpg","null","",NA,NA,NA,NA,""
"image-keyboard-response",29,81491,"0.0-4.5-2.5","6j6vyh25p99m6rq",78,"109.csv","","null","resources/images/coin2.png","null","",NA,NA,NA,NA,""
"image-keyboard-response",30,81557,"0.0-4.6-0.6","6j6vyh25p99m6rq",78,"109.csv","","64.70000000298023","resources/trios/L4T2A2.jpg","38","restless",0.3,0.7,0.8,0.0468698101302976,"true"
"image-keyboard-response",31,81971,"0.0-4.6-1.6","6j6vyh25p99m6rq",78,"109.csv","","null","resources/maskTrios/BT2B.jpg","null","",NA,NA,NA,NA,""
"image-keyboard-response",32,83173,"0.0-4.6-2.6","6j6vyh25p99m6rq",78,"109.csv","","null","resources/images/coin2.png","null","",NA,NA,NA,NA,""
"image-keyboard-response",33,83314,"0.0-4.7-0.7","6j6vyh25p99m6rq",78,"109.csv","","139.29999999701977","resources/trios/L4T2A2.jpg","38","restless",0.3,0.7,0.8,0.256498652326489,"true"
"image-keyboard-response",34,83724,"0.0-4.7-1.7","6j6vyh25p99m6rq",78,"109.csv","","null","resources/maskTrios/BT2B.jpg","null","",NA,NA,NA,NA,""
"image-keyboard-response",35,84939,"0.0-4.7-2.7","6j6vyh25p99m6rq",78,"109.csv","","null","resources/images/coin2.png","null","",NA,NA,NA,NA,""
"image-keyboard-response",36,85011,"0.0-4.8-0.8","6j6vyh25p99m6rq",78,"109.csv","","70.29999999701977","resources/trios/L4T2A2.jpg","38","restless",0.3,0.7,0.8,0.0233290683230236,"true"
"image-keyboard-response",37,85414,"0.0-4.8-1.8","6j6vyh25p99m6rq",78,"109.csv","","null","resources/maskTrios/BT2B.jpg","null","",NA,NA,NA,NA,""
"image-keyboard-response",38,86621,"0.0-4.8-2.8","6j6vyh25p99m6rq",78,"109.csv","","null","resources/images/coin2.png","null","",NA,NA,NA,NA,""
"image-keyboard-response",39,86744,"0.0-4.9-0.9","6j6vyh25p99m6rq",78,"109.csv","","121.5","resources/trios/L4T2A2.jpg","38","restless",0.3,0.7,0.8,0.714938113624017,"false"
"image-keyboard-response",40,87155,"0.0-4.9-1.9","6j6vyh25p99m6rq",78,"109.csv","","null","resources/maskTrios/BT2B.jpg","null","",NA,NA,NA,NA,""
"image-keyboard-response",41,88358,"0.0-4.9-2.9","6j6vyh25p99m6rq",78,"109.csv","","null","resources/images/fishbone.png","null","",NA,NA,NA,NA,""
"image-keyboard-response",42,88564,"0.0-4.10-0.10","6j6vyh25p99m6rq",78,"109.csv","","205","resources/trios/L4T2A2.jpg","38","restless",0.3,0.8,0.7,0.62611195022087,"true"
"image-keyboard-response",43,88973,"0.0-4.10-1.10","6j6vyh25p99m6rq",78,"109.csv","","null","resources/maskTrios/BT2B.jpg","null","",NA,NA,NA,NA,""
"image-keyboard-response",44,90176,"0.0-4.10-2.10","6j6vyh25p99m6rq",78,"109.csv","","null","resources/images/coin2.png","null","",NA,NA,NA,NA,""
"image-keyboard-response",45,90355,"0.0-4.11-0.11","6j6vyh25p99m6rq",78,"109.csv","","178.59999999403954","resources/trios/L4T2A2.jpg","38","restless",0.3,0.8,0.6,0.261472339808853,"true"
"image-keyboard-response",46,90762,"0.0-4.11-1.11","6j6vyh25p99m6rq",78,"109.csv","","null","resources/maskTrios/BT2B.jpg","null","",NA,NA,NA,NA,""
"image-keyboard-response",47,91973,"0.0-4.11-2.11","6j6vyh25p99m6rq",78,"109.csv","","null","resources/images/coin2.png","null","",NA,NA,NA,NA,""
"image-keyboard-response",48,92007,"0.0-4.12-0.12","6j6vyh25p99m6rq",78,"109.csv","","33.20000000298023","resources/trios/L4T2A2.jpg","38","restless",0.3,0.8,0.6,0.457985291377608,"true"
"image-keyboard-response",49,92415,"0.0-4.12-1.12","6j6vyh25p99m6rq",78,"109.csv","","null","resources/maskTrios/BT2B.jpg","null","",NA,NA,NA,NA,""
"image-keyboard-response",50,93622,"0.0-4.12-2.12","6j6vyh25p99m6rq",78,"109.csv","","null","resources/images/coin2.png","null","",NA,NA,NA,NA,""
"image-keyboard-response",51,93627,"0.0-4.13-0.13","6j6vyh25p99m6rq",78,"109.csv","","3.4000000059604645","resources/trios/L4T2A2.jpg","38","restless",0.3,0.8,0.6,0.596401072123101,"true"
"image-keyboard-response",52,94038,"0.0-4.13-1.13","6j6vyh25p99m6rq",78,"109.csv","","null","resources/maskTrios/BT2B.jpg","null","",NA,NA,NA,NA,""
"image-keyboard-response",53,95240,"0.0-4.13-2.13","6j6vyh25p99m6rq",78,"109.csv","","null","resources/images/coin2.png","null","",NA,NA,NA,NA,""
"image-keyboard-response",54,95388,"0.0-4.14-0.14","6j6vyh25p99m6rq",78,"109.csv","","146.20000000298023","resources/trios/L4T2A2.jpg","38","restless",0.3,0.8,0.6,0.405919807815437,"true"
"image-keyboard-response",55,95804,"0.0-4.14-1.14","6j6vyh25p99m6rq",78,"109.csv","","null","resources/maskTrios/BT2B.jpg","null","",NA,NA,NA,NA,""
"image-keyboard-response",56,97007,"0.0-4.14-2.14","6j6vyh25p99m6rq",78,"109.csv","","null","resources/images/coin2.png","null","",NA,NA,NA,NA,""
"image-keyboard-response",57,97122,"0.0-4.15-0.15","6j6vyh25p99m6rq",78,"109.csv","","113.30000001192093","resources/trios/L4T2A2.jpg","38","restless",0.3,0.8,0.6,0.331282416727712,"true"
"image-keyboard-response",58,97527,"0.0-4.15-1.15","6j6vyh25p99m6rq",78,"109.csv","","null","resources/maskTrios/BT2B.jpg","null","",NA,NA,NA,NA,""
"image-keyboard-response",59,98742,"0.0-4.15-2.15","6j6vyh25p99m6rq",78,"109.csv","","null","resources/images/coin2.png","null","",NA,NA,NA,NA,""
"image-keyboard-response",60,98829,"0.0-4.16-0.16","6j6vyh25p99m6rq",78,"109.csv","","85.70000000298023","resources/trios/L4T2A2.jpg","38","restless",0.3,0.8,0.6,0.805511294895949,"false"
"image-keyboard-response",61,99239,"0.0-4.16-1.16","6j6vyh25p99m6rq",78,"109.csv","","null","resources/maskTrios/BT2B.jpg","null","",NA,NA,NA,NA,""
"image-keyboard-response",62,100442,"0.0-4.16-2.16","6j6vyh25p99m6rq",78,"109.csv","","null","resources/images/fishbone.png","null","",NA,NA,NA,NA,""
"image-keyboard-response",63,100702,"0.0-4.17-0.17","6j6vyh25p99m6rq",78,"109.csv","","259.09999999403954","resources/trios/L4T2A2.jpg","39","restless",0.3,0.8,0.6,0.547129531200447,"true"
"image-keyboard-response",64,101105,"0.0-4.17-1.17","6j6vyh25p99m6rq",78,"109.csv","","null","resources/maskTrios/BBA2.jpg","null","",NA,NA,NA,NA,""
"image-keyboard-response",65,102309,"0.0-4.17-2.17","6j6vyh25p99m6rq",78,"109.csv","","null","resources/images/coin2.png","null","",NA,NA,NA,NA,""
"image-keyboard-response",66,102421,"0.0-4.18-0.18","6j6vyh25p99m6rq",78,"109.csv","","110.70000000298023","resources/trios/L4T2A2.jpg","39","restless",0.3,0.7,0.6,0.910165040517394,"false"
"image-keyboard-response",67,102838,"0.0-4.18-1.18","6j6vyh25p99m6rq",78,"109.csv","","null","resources/maskTrios/BBA2.jpg","null","",NA,NA,NA,NA,""
"image-keyboard-response",68,104041,"0.0-4.18-2.18","6j6vyh25p99m6rq",78,"109.csv","","null","resources/images/fishbone.png","null","",NA,NA,NA,NA,""
"image-keyboard-response",69,104283,"0.0-4.19-0.19","6j6vyh25p99m6rq",78,"109.csv","","241.09999999403954","resources/trios/L4T2A2.jpg","37","restless",0.3,0.7,0.6,0.453173795580581,"false"
"image-keyboard-response",70,104689,"0.0-4.19-1.19","6j6vyh25p99m6rq",78,"109.csv","","null","resources/maskTrios/L4BB.jpg","null","",NA,NA,NA,NA,""
"image-keyboard-response",71,105893,"0.0-4.19-2.19","6j6vyh25p99m6rq",78,"109.csv","","null","resources/images/fishbone.png","null","",NA,NA,NA,NA,""
"image-keyboard-response",72,106916,"0.0-4.20-0.20","6j6vyh25p99m6rq",78,"109.csv","","1022.5999999940395","resources/trios/L4T2A2.jpg","38","restless",0.3,0.7,0.6,0.884399114806019,"false"
"image-keyboard-response",73,107322,"0.0-4.20-1.20","6j6vyh25p99m6rq",78,"109.csv","","null","resources/maskTrios/BT2B.jpg","null","",NA,NA,NA,NA,""
"image-keyboard-response",74,108538,"0.0-4.20-2.20","6j6vyh25p99m6rq",78,"109.csv","","null","resources/images/fishbone.png","null","",NA,NA,NA,NA,""
"image-keyboard-response",75,108839,"0.0-4.21-0.21","6j6vyh25p99m6rq",78,"109.csv","","299.80000001192093","resources/trios/L4T2A2.jpg","39","restless",0.3,0.7,0.6,0.914769959484631,"false"
"image-keyboard-response",76,109256,"0.0-4.21-1.21","6j6vyh25p99m6rq",78,"109.csv","","null","resources/maskTrios/BBA2.jpg","null","",NA,NA,NA,NA,""
"image-keyboard-response",77,110461,"0.0-4.21-2.21","6j6vyh25p99m6rq",78,"109.csv","","null","resources/images/fishbone.png","null","",NA,NA,NA,NA,""
"image-keyboard-response",78,110594,"0.0-4.22-0.22","6j6vyh25p99m6rq",78,"109.csv","","132.20000000298023","resources/trios/L4T2A2.jpg","37","restless",0.3,0.7,0.6,0.127250979333259,"true"
"image-keyboard-response",79,111006,"0.0-4.22-1.22","6j6vyh25p99m6rq",78,"109.csv","","null","resources/maskTrios/L4BB.jpg","null","",NA,NA,NA,NA,""
"image-keyboard-response",80,112215,"0.0-4.22-2.22","6j6vyh25p99m6rq",78,"109.csv","","null","resources/images/coin2.png","null","",NA,NA,NA,NA,""
"image-keyboard-response",81,112400,"0.0-4.23-0.23","6j6vyh25p99m6rq",78,"109.csv","","183.19999998807907","resources/trios/L4T2A2.jpg","38","restless",0.3,0.7,0.6,0.864135018549971,"false"
"image-keyboard-response",82,112806,"0.0-4.23-1.23","6j6vyh25p99m6rq",78,"109.csv","","null","resources/maskTrios/BT2B.jpg","null","",NA,NA,NA,NA,""
"image-keyboard-response",83,114021,"0.0-4.23-2.23","6j6vyh25p99m6rq",78,"109.csv","","null","resources/images/fishbone.png","null","",NA,NA,NA,NA,""
"image-keyboard-response",84,114588,"0.0-4.24-0.24","6j6vyh25p99m6rq",78,"109.csv","","565.5999999940395","resources/trios/L4T2A2.jpg","39","restless",0.3,0.7,0.5,0.525674482421623,"false"
"image-keyboard-response",85,115001,"0.0-4.24-1.24","6j6vyh25p99m6rq",78,"109.csv","","null","resources/maskTrios/BBA2.jpg","null","",NA,NA,NA,NA,""
"image-keyboard-response",86,116207,"0.0-4.24-2.24","6j6vyh25p99m6rq",78,"109.csv","","null","resources/images/fishbone.png","null","",NA,NA,NA,NA,""
"image-keyboard-response",87,116338,"0.0-4.25-0.25","6j6vyh25p99m6rq",78,"109.csv","","129.79999999701977","resources/trios/L4T2A2.jpg","38","restless",0.3,0.7,0.5,0.719176686614976,"false"
"image-keyboard-response",88,116755,"0.0-4.25-1.25","6j6vyh25p99m6rq",78,"109.csv","","null","resources/maskTrios/BT2B.jpg","null","",NA,NA,NA,NA,""
"image-keyboard-response",89,117957,"0.0-4.25-2.25","6j6vyh25p99m6rq",78,"109.csv","","null","resources/images/fishbone.png","null","",NA,NA,NA,NA,""
"image-keyboard-response",90,123897,"0.0-4.26-0.26","6j6vyh25p99m6rq",78,"109.csv","","5938.4000000059605","resources/trios/L4T2A2.jpg","37","restless",0.3,0.7,0.5,0.619323869557557,"false"
"image-keyboard-response",91,124304,"0.0-4.26-1.26","6j6vyh25p99m6rq",78,"109.csv","","null","resources/maskTrios/L4BB.jpg","null","",NA,NA,NA,NA,""
"image-keyboard-response",92,125513,"0.0-4.26-2.26","6j6vyh25p99m6rq",78,"109.csv","","null","resources/images/fishbone.png","null","",NA,NA,NA,NA,""
"image-keyboard-response",93,125717,"0.0-4.27-0.27","6j6vyh25p99m6rq",78,"109.csv","","201.8999999910593","resources/trios/L4T2A2.jpg","38","restless",0.3,0.7,0.5,0.992268661142649,"false"
"image-keyboard-response",94,126122,"0.0-4.27-1.27","6j6vyh25p99m6rq",78,"109.csv","","null","resources/maskTrios/BT2B.jpg","null","",NA,NA,NA,NA,""
"image-keyboard-response",95,127325,"0.0-4.27-2.27","6j6vyh25p99m6rq",78,"109.csv","","null","resources/images/fishbone.png","null","",NA,NA,NA,NA,""
"image-keyboard-response",96,127431,"0.0-4.28-0.28","6j6vyh25p99m6rq",78,"109.csv","","104.59999999403954","resources/trios/L4T2A2.jpg","38","restless",0.3,0.7,0.5,0.887284535083534,"false"
"image-keyboard-response",97,127840,"0.0-4.28-1.28","6j6vyh25p99m6rq",78,"109.csv","","null","resources/maskTrios/BT2B.jpg","null","",NA,NA,NA,NA,""
"image-keyboard-response",98,129054,"0.0-4.28-2.28","6j6vyh25p99m6rq",78,"109.csv","","null","resources/images/fishbone.png","null","",NA,NA,NA,NA,""
"image-keyboard-response",99,129496,"0.0-4.29-0.29","6j6vyh25p99m6rq",78,"109.csv","","440.6000000089407","resources/trios/L4T2A2.jpg","38","restless",0.3,0.7,0.5,0.277635972085449,"true"
"image-keyboard-response",100,129905,"0.0-4.29-1.29","6j6vyh25p99m6rq",78,"109.csv","","null","resources/maskTrios/BT2B.jpg","null","",NA,NA,NA,NA,""
"image-keyboard-response",101,131108,"0.0-4.29-2.29","6j6vyh25p99m6rq",78,"109.csv","","null","resources/images/coin2.png","null","",NA,NA,NA,NA,""
"image-keyboard-response",102,131579,"0.0-4.30-0.30","6j6vyh25p99m6rq",78,"109.csv","","470.20000000298023","resources/trios/L4T2A2.jpg","38","restless",0.3,0.7,0.5,0.440573299047247,"true"
"image-keyboard-response",103,131987,"0.0-4.30-1.30","6j6vyh25p99m6rq",78,"109.csv","","null","resources/maskTrios/BT2B.jpg","null","",NA,NA,NA,NA,""
"image-keyboard-response",104,133192,"0.0-4.30-2.30","6j6vyh25p99m6rq",78,"109.csv","","null","resources/images/coin2.png","null","",NA,NA,NA,NA,""
"image-keyboard-response",105,133470,"0.0-4.31-0.31","6j6vyh25p99m6rq",78,"109.csv","","277.1000000089407","resources/trios/L4T2A2.jpg","38","restless",0.3,0.7,0.5,0.0556170438551027,"true"
"image-keyboard-response",106,133887,"0.0-4.31-1.31","6j6vyh25p99m6rq",78,"109.csv","","null","resources/maskTrios/BT2B.jpg","null","",NA,NA,NA,NA,""
"image-keyboard-response",107,135095,"0.0-4.31-2.31","6j6vyh25p99m6rq",78,"109.csv","","null","resources/images/coin2.png","null","",NA,NA,NA,NA,""
"image-keyboard-response",108,135456,"0.0-4.32-0.32","6j6vyh25p99m6rq",78,"109.csv","","359.29999999701977","resources/trios/L4T2A2.jpg","38","restless",0.2,0.7,0.5,0.428637179248471,"true"
"image-keyboard-response",109,135867,"0.0-4.32-1.32","6j6vyh25p99m6rq",78,"109.csv","","null","resources/maskTrios/BT2B.jpg","null","",NA,NA,NA,NA,""
"image-keyboard-response",110,137072,"0.0-4.32-2.32","6j6vyh25p99m6rq",78,"109.csv","","null","resources/images/coin2.png","null","",NA,NA,NA,NA,""
"image-keyboard-response",111,137249,"0.0-4.33-0.33","6j6vyh25p99m6rq",78,"109.csv","","175.3999999910593","resources/trios/L4T2A2.jpg","38","restless",0.2,0.7,0.5,0.55860050920215,"true"
"image-keyboard-response",112,137654,"0.0-4.33-1.33","6j6vyh25p99m6rq",78,"109.csv","","null","resources/maskTrios/BT2B.jpg","null","",NA,NA,NA,NA,""
"image-keyboard-response",113,138857,"0.0-4.33-2.33","6j6vyh25p99m6rq",78,"109.csv","","null","resources/images/coin2.png","null","",NA,NA,NA,NA,""
"image-keyboard-response",114,139018,"0.0-4.34-0.34","6j6vyh25p99m6rq",78,"109.csv","","160.29999999701977","resources/trios/L4T2A2.jpg","38","restless",0.2,0.8,0.5,0.952753051110868,"false"
"image-keyboard-response",115,139422,"0.0-4.34-1.34","6j6vyh25p99m6rq",78,"109.csv","","null","resources/maskTrios/BT2B.jpg","null","",NA,NA,NA,NA,""
"image-keyboard-response",116,140638,"0.0-4.34-2.34","6j6vyh25p99m6rq",78,"109.csv","","null","resources/images/fishbone.png","null","",NA,NA,NA,NA,""
"image-keyboard-response",117,140786,"0.0-4.35-0.35","6j6vyh25p99m6rq",78,"109.csv","","145.8999999910593","resources/trios/L4T2A2.jpg","38","restless",0.2,0.8,0.5,0.633026051383352,"true"
"image-keyboard-response",118,141187,"0.0-4.35-1.35","6j6vyh25p99m6rq",78,"109.csv","","null","resources/maskTrios/BT2B.jpg","null","",NA,NA,NA,NA,""
"image-keyboard-response",119,142390,"0.0-4.35-2.35","6j6vyh25p99m6rq",78,"109.csv","","null","resources/images/coin2.png","null","",NA,NA,NA,NA,""
"image-keyboard-response",120,142415,"0.0-4.36-0.36","6j6vyh25p99m6rq",78,"109.csv","","24","resources/trios/L4T2A2.jpg","38","restless",0.2,0.8,0.6,0.210029987238127,"true"
"image-keyboard-response",121,142822,"0.0-4.36-1.36","6j6vyh25p99m6rq",78,"109.csv","","null","resources/maskTrios/BT2B.jpg","null","",NA,NA,NA,NA,""
"image-keyboard-response",122,144023,"0.0-4.36-2.36","6j6vyh25p99m6rq",78,"109.csv","","null","resources/images/coin2.png","null","",NA,NA,NA,NA,""
"image-keyboard-response",123,144234,"0.0-4.37-0.37","6j6vyh25p99m6rq",78,"109.csv","","209.70000000298023","resources/trios/L4T2A2.jpg","38","restless",0.3,0.8,0.6,0.0115239661963651,"true"
"image-keyboard-response",124,144640,"0.0-4.37-1.37","6j6vyh25p99m6rq",78,"109.csv","","null","resources/maskTrios/BT2B.jpg","null","",NA,NA,NA,NA,""
"image-keyboard-response",125,145844,"0.0-4.37-2.37","6j6vyh25p99m6rq",78,"109.csv","","null","resources/images/coin2.png","null","",NA,NA,NA,NA,""
"image-keyboard-response",126,145998,"0.0-4.38-0.38","6j6vyh25p99m6rq",78,"109.csv","","152.59999999403954","resources/trios/L4T2A2.jpg","38","restless",0.3,0.7,0.6,0.311301116734369,"true"
"image-keyboard-response",127,146406,"0.0-4.38-1.38","6j6vyh25p99m6rq",78,"109.csv","","null","resources/maskTrios/BT2B.jpg","null","",NA,NA,NA,NA,""
"image-keyboard-response",128,147621,"0.0-4.38-2.38","6j6vyh25p99m6rq",78,"109.csv","","null","resources/images/coin2.png","null","",NA,NA,NA,NA,""
"image-keyboard-response",129,147805,"0.0-4.39-0.39","6j6vyh25p99m6rq",78,"109.csv","","183","resources/trios/L4T2A2.jpg","38","restless",0.3,0.7,0.6,0.465561855766096,"true"
"image-keyboard-response",130,148207,"0.0-4.39-1.39","6j6vyh25p99m6rq",78,"109.csv","","null","resources/maskTrios/BT2B.jpg","null","",NA,NA,NA,NA,""
"image-keyboard-response",131,149424,"0.0-4.39-2.39","6j6vyh25p99m6rq",78,"109.csv","","null","resources/images/coin2.png","null","",NA,NA,NA,NA,""
"image-keyboard-response",132,149763,"0.0-4.40-0.40","6j6vyh25p99m6rq",78,"109.csv","","338.79999999701977","resources/trios/L4T2A2.jpg","37","restless",0.3,0.7,0.6,0.956205482766128,"false"
"image-keyboard-response",133,150172,"0.0-4.40-1.40","6j6vyh25p99m6rq",78,"109.csv","","null","resources/maskTrios/L4BB.jpg","null","",NA,NA,NA,NA,""
"image-keyboard-response",134,151387,"0.0-4.40-2.40","6j6vyh25p99m6rq",78,"109.csv","","null","resources/images/fishbone.png","null","",NA,NA,NA,NA,""
"image-keyboard-response",135,151389,"0.0-4.41-0.41","6j6vyh25p99m6rq",78,"109.csv","","2","resources/trios/L4T2A2.jpg","37","restless",0.3,0.8,0.6,0.83291496324243,"false"
"image-keyboard-response",136,151804,"0.0-4.41-1.41","6j6vyh25p99m6rq",78,"109.csv","","null","resources/maskTrios/L4BB.jpg","null","",NA,NA,NA,NA,""
"image-keyboard-response",137,153022,"0.0-4.41-2.41","6j6vyh25p99m6rq",78,"109.csv","","null","resources/images/fishbone.png","null","",NA,NA,NA,NA,""
"image-keyboard-response",138,153059,"0.0-4.42-0.42","6j6vyh25p99m6rq",78,"109.csv","","36.29999999701977","resources/trios/L4T2A2.jpg","37","restless",0.3,0.8,0.6,0.839448913181923,"false"
"image-keyboard-response",139,153463,"0.0-4.42-1.42","6j6vyh25p99m6rq",78,"109.csv","","null","resources/maskTrios/L4BB.jpg","null","",NA,NA,NA,NA,""
"image-keyboard-response",140,154674,"0.0-4.42-2.42","6j6vyh25p99m6rq",78,"109.csv","","null","resources/images/fishbone.png","null","",NA,NA,NA,NA,""
"image-keyboard-response",141,154727,"0.0-4.43-0.43","6j6vyh25p99m6rq",78,"109.csv","","51.8999999910593","resources/trios/L4T2A2.jpg","37","restless",0.3,0.8,0.6,0.374714610022363,"false"
"image-keyboard-response",142,155137,"0.0-4.43-1.43","6j6vyh25p99m6rq",78,"109.csv","","null","resources/maskTrios/L4BB.jpg","null","",NA,NA,NA,NA,""
"image-keyboard-response",143,156341,"0.0-4.43-2.43","6j6vyh25p99m6rq",78,"109.csv","","null","resources/images/fishbone.png","null","",NA,NA,NA,NA,""
"image-keyboard-response",144,156355,"0.0-4.44-0.44","6j6vyh25p99m6rq",78,"109.csv","","12.700000002980232","resources/trios/L4T2A2.jpg","37","restless",0.3,0.8,0.6,0.332337421952648,"false"
"image-keyboard-response",145,156758,"0.0-4.44-1.44","6j6vyh25p99m6rq",78,"109.csv","","null","resources/maskTrios/L4BB.jpg","null","",NA,NA,NA,NA,""
"image-keyboard-response",146,157974,"0.0-4.44-2.44","6j6vyh25p99m6rq",78,"109.csv","","null","resources/images/fishbone.png","null","",NA,NA,NA,NA,""
"image-keyboard-response",147,158105,"0.0-4.45-0.45","6j6vyh25p99m6rq",78,"109.csv","","130.29999999701977","resources/trios/L4T2A2.jpg","38","restless",0.3,0.8,0.6,0.435016330292871,"true"
"image-keyboard-response",148,158507,"0.0-4.45-1.45","6j6vyh25p99m6rq",78,"109.csv","","null","resources/maskTrios/BT2B.jpg","null","",NA,NA,NA,NA,""
"image-keyboard-response",149,159711,"0.0-4.45-2.45","6j6vyh25p99m6rq",78,"109.csv","","null","resources/images/coin2.png","null","",NA,NA,NA,NA,""
"image-keyboard-response",150,160293,"0.0-4.46-0.46","6j6vyh25p99m6rq",78,"109.csv","","580.5","resources/trios/L4T2A2.jpg","39","restless",0.3,0.8,0.6,0.0515392156945149,"true"
"image-keyboard-response",151,160704,"0.0-4.46-1.46","6j6vyh25p99m6rq",78,"109.csv","","null","resources/maskTrios/BBA2.jpg","null","",NA,NA,NA,NA,""
"image-keyboard-response",152,161906,"0.0-4.46-2.46","6j6vyh25p99m6rq",78,"109.csv","","null","resources/images/coin2.png","null","",NA,NA,NA,NA,""
"image-keyboard-response",153,162374,"0.0-4.47-0.47","6j6vyh25p99m6rq",78,"109.csv","","466.6000000089407","resources/trios/L4T2A2.jpg","39","restless",0.3,0.8,0.6,0.139148208199555,"true"
"image-keyboard-response",154,162789,"0.0-4.47-1.47","6j6vyh25p99m6rq",78,"109.csv","","null","resources/maskTrios/BBA2.jpg","null","",NA,NA,NA,NA,""
"image-keyboard-response",155,164005,"0.0-4.47-2.47","6j6vyh25p99m6rq",78,"109.csv","","null","resources/images/coin2.png","null","",NA,NA,NA,NA,""
"image-keyboard-response",156,164025,"0.0-4.48-0.48","6j6vyh25p99m6rq",78,"109.csv","","19.100000008940697","resources/trios/L4T2A2.jpg","39","restless",0.3,0.8,0.5,0.665434955651628,"false"
"image-keyboard-response",157,164437,"0.0-4.48-1.48","6j6vyh25p99m6rq",78,"109.csv","","null","resources/maskTrios/BBA2.jpg","null","",NA,NA,NA,NA,""
"image-keyboard-response",158,165639,"0.0-4.48-2.48","6j6vyh25p99m6rq",78,"109.csv","","null","resources/images/fishbone.png","null","",NA,NA,NA,NA,""
"image-keyboard-response",159,165901,"0.0-4.49-0.49","6j6vyh25p99m6rq",78,"109.csv","","260.70000000298023","resources/trios/L4T2A2.jpg","39","restless",0.3,0.8,0.4,0.993994033505325,"false"
"image-keyboard-response",160,166304,"0.0-4.49-1.49","6j6vyh25p99m6rq",78,"109.csv","","null","resources/maskTrios/BBA2.jpg","null","",NA,NA,NA,NA,""
"image-keyboard-response",161,167508,"0.0-4.49-2.49","6j6vyh25p99m6rq",78,"109.csv","","null","resources/images/fishbone.png","null","",NA,NA,NA,NA,""
"image-keyboard-response",162,168047,"0.0-4.50-0.50","6j6vyh25p99m6rq",78,"109.csv","","538.7000000029802","resources/trios/L4T2A2.jpg","39","restless",0.3,0.8,0.4,0.00766346876020441,"true"
"image-keyboard-response",163,168455,"0.0-4.50-1.50","6j6vyh25p99m6rq",78,"109.csv","","null","resources/maskTrios/BBA2.jpg","null","",NA,NA,NA,NA,""
"image-keyboard-response",164,169656,"0.0-4.50-2.50","6j6vyh25p99m6rq",78,"109.csv","","null","resources/images/coin2.png","null","",NA,NA,NA,NA,""
"image-keyboard-response",165,169874,"0.0-4.51-0.51","6j6vyh25p99m6rq",78,"109.csv","","217.20000000298023","resources/trios/L4T2A2.jpg","39","restless",0.3,0.8,0.4,0.724317164681719,"false"
"image-keyboard-response",166,170287,"0.0-4.51-1.51","6j6vyh25p99m6rq",78,"109.csv","","null","resources/maskTrios/BBA2.jpg","null","",NA,NA,NA,NA,""
"image-keyboard-response",167,171489,"0.0-4.51-2.51","6j6vyh25p99m6rq",78,"109.csv","","null","resources/images/fishbone.png","null","",NA,NA,NA,NA,""
"image-keyboard-response",168,172304,"0.0-4.52-0.52","6j6vyh25p99m6rq",78,"109.csv","","814.0999999940395","resources/trios/L4T2A2.jpg","39","restless",0.3,0.8,0.4,0.0441129592289859,"true"
"image-keyboard-response",169,172720,"0.0-4.52-1.52","6j6vyh25p99m6rq",78,"109.csv","","null","resources/maskTrios/BBA2.jpg","null","",NA,NA,NA,NA,""
"image-keyboard-response",170,173924,"0.0-4.52-2.52","6j6vyh25p99m6rq",78,"109.csv","","null","resources/images/coin2.png","null","",NA,NA,NA,NA,""
"image-keyboard-response",171,174507,"0.0-4.53-0.53","6j6vyh25p99m6rq",78,"109.csv","","582.2999999970198","resources/trios/L4T2A2.jpg","39","restless",0.3,0.8,0.4,0.290682420544804,"true"
"image-keyboard-response",172,174921,"0.0-4.53-1.53","6j6vyh25p99m6rq",78,"109.csv","","null","resources/maskTrios/BBA2.jpg","null","",NA,NA,NA,NA,""
"image-keyboard-response",173,176124,"0.0-4.53-2.53","6j6vyh25p99m6rq",78,"109.csv","","null","resources/images/coin2.png","null","",NA,NA,NA,NA,""
"image-keyboard-response",174,177927,"0.0-4.54-0.54","6j6vyh25p99m6rq",78,"109.csv","","1801.7000000029802","resources/trios/L4T2A2.jpg","39","restless",0.3,0.8,0.4,0.117078788373317,"true"
"image-keyboard-response",175,178338,"0.0-4.54-1.54","6j6vyh25p99m6rq",78,"109.csv","","null","resources/maskTrios/BBA2.jpg","null","",NA,NA,NA,NA,""
"image-keyboard-response",176,179545,"0.0-4.54-2.54","6j6vyh25p99m6rq",78,"109.csv","","null","resources/images/coin2.png","null","",NA,NA,NA,NA,""
"image-keyboard-response",177,181261,"0.0-4.55-0.55","6j6vyh25p99m6rq",78,"109.csv","","1715","resources/trios/L4T2A2.jpg","39","restless",0.3,0.8,0.4,0.523169234738383,"false"
"image-keyboard-response",178,181671,"0.0-4.55-1.55","6j6vyh25p99m6rq",78,"109.csv","","null","resources/maskTrios/BBA2.jpg","null","",NA,NA,NA,NA,""
"image-keyboard-response",179,182874,"0.0-4.55-2.55","6j6vyh25p99m6rq",78,"109.csv","","null","resources/images/fishbone.png","null","",NA,NA,NA,NA,""
"image-keyboard-response",180,186003,"0.0-4.56-0.56","6j6vyh25p99m6rq",78,"109.csv","","3128.4000000059605","resources/trios/L4T2A2.jpg","39","restless",0.4,0.8,0.4,0.416238824505983,"false"
"image-keyboard-response",181,186420,"0.0-4.56-1.56","6j6vyh25p99m6rq",78,"109.csv","","null","resources/maskTrios/BBA2.jpg","null","",NA,NA,NA,NA,""
"image-keyboard-response",182,187623,"0.0-4.56-2.56","6j6vyh25p99m6rq",78,"109.csv","","null","resources/images/fishbone.png","null","",NA,NA,NA,NA,""
"image-keyboard-response",183,187811,"0.0-4.57-0.57","6j6vyh25p99m6rq",78,"109.csv","","186.59999999403954","resources/trios/L4T2A2.jpg","39","restless",0.5,0.8,0.4,0.860467080400227,"false"
"image-keyboard-response",184,188220,"0.0-4.57-1.57","6j6vyh25p99m6rq",78,"109.csv","","null","resources/maskTrios/BBA2.jpg","null","",NA,NA,NA,NA,""
"image-keyboard-response",185,189424,"0.0-4.57-2.57","6j6vyh25p99m6rq",78,"109.csv","","null","resources/images/fishbone.png","null","",NA,NA,NA,NA,""
"image-keyboard-response",186,189611,"0.0-4.58-0.58","6j6vyh25p99m6rq",78,"109.csv","","185.59999999403954","resources/trios/L4T2A2.jpg","39","restless",0.5,0.8,0.4,0.234466322876089,"true"
"image-keyboard-response",187,190020,"0.0-4.58-1.58","6j6vyh25p99m6rq",78,"109.csv","","null","resources/maskTrios/BBA2.jpg","null","",NA,NA,NA,NA,""
"image-keyboard-response",188,191223,"0.0-4.58-2.58","6j6vyh25p99m6rq",78,"109.csv","","null","resources/images/coin2.png","null","",NA,NA,NA,NA,""
"image-keyboard-response",189,191396,"0.0-4.59-0.59","6j6vyh25p99m6rq",78,"109.csv","","171.90000000596046","resources/trios/L4T2A2.jpg","39","restless",0.5,0.8,0.4,0.825025633386173,"false"
"image-keyboard-response",190,191803,"0.0-4.59-1.59","6j6vyh25p99m6rq",78,"109.csv","","null","resources/maskTrios/BBA2.jpg","null","",NA,NA,NA,NA,""
"image-keyboard-response",191,193020,"0.0-4.59-2.59","6j6vyh25p99m6rq",78,"109.csv","","null","resources/images/fishbone.png","null","",NA,NA,NA,NA,""
"image-keyboard-response",192,193749,"0.0-4.60-0.60","6j6vyh25p99m6rq",78,"109.csv","","727.5999999940395","resources/trios/L4T2A2.jpg","39","restless",0.5,0.8,0.4,0.86894837575098,"false"
"image-keyboard-response",193,194154,"0.0-4.60-1.60","6j6vyh25p99m6rq",78,"109.csv","","null","resources/maskTrios/BBA2.jpg","null","",NA,NA,NA,NA,""
"image-keyboard-response",194,195356,"0.0-4.60-2.60","6j6vyh25p99m6rq",78,"109.csv","","null","resources/images/fishbone.png","null","",NA,NA,NA,NA,""
"image-keyboard-response",195,195510,"0.0-4.61-0.61","6j6vyh25p99m6rq",78,"109.csv","","152.40000000596046","resources/trios/L4T2A2.jpg","39","restless",0.5,0.8,0.4,0.239573348128452,"true"
"image-keyboard-response",196,195919,"0.0-4.61-1.61","6j6vyh25p99m6rq",78,"109.csv","","null","resources/maskTrios/BBA2.jpg","null","",NA,NA,NA,NA,""
"image-keyboard-response",197,197124,"0.0-4.61-2.61","6j6vyh25p99m6rq",78,"109.csv","","null","resources/images/coin2.png","null","",NA,NA,NA,NA,""
"image-keyboard-response",198,197510,"0.0-4.62-0.62","6j6vyh25p99m6rq",78,"109.csv","","385","resources/trios/L4T2A2.jpg","39","restless",0.5,0.8,0.4,0.652455969691031,"false"
"image-keyboard-response",199,197920,"0.0-4.62-1.62","6j6vyh25p99m6rq",78,"109.csv","","null","resources/maskTrios/BBA2.jpg","null","",NA,NA,NA,NA,""
"image-keyboard-response",200,199136,"0.0-4.62-2.62","6j6vyh25p99m6rq",78,"109.csv","","null","resources/images/fishbone.png","null","",NA,NA,NA,NA,""
"image-keyboard-response",201,199694,"0.0-4.63-0.63","6j6vyh25p99m6rq",78,"109.csv","","557","resources/trios/L4T2A2.jpg","39","restless",0.5,0.8,0.4,0.812807035895857,"false"
"image-keyboard-response",202,200103,"0.0-4.63-1.63","6j6vyh25p99m6rq",78,"109.csv","","null","resources/maskTrios/BBA2.jpg","null","",NA,NA,NA,NA,""
"image-keyboard-response",203,201305,"0.0-4.63-2.63","6j6vyh25p99m6rq",78,"109.csv","","null","resources/images/fishbone.png","null","",NA,NA,NA,NA,""
"image-keyboard-response",204,201786,"0.0-4.64-0.64","6j6vyh25p99m6rq",78,"109.csv","","480","resources/trios/L4T2A2.jpg","39","restless",0.5,0.8,0.4,0.922396351303885,"false"
"image-keyboard-response",205,202203,"0.0-4.64-1.64","6j6vyh25p99m6rq",78,"109.csv","","null","resources/maskTrios/BBA2.jpg","null","",NA,NA,NA,NA,""
"image-keyboard-response",206,203405,"0.0-4.64-2.64","6j6vyh25p99m6rq",78,"109.csv","","null","resources/images/fishbone.png","null","",NA,NA,NA,NA,""
"image-keyboard-response",207,203439,"0.0-4.65-0.65","6j6vyh25p99m6rq",78,"109.csv","","32.6000000089407","resources/trios/L4T2A2.jpg","39","restless",0.5,0.8,0.4,0.677862522230759,"false"
"image-keyboard-response",208,203845,"0.0-4.65-1.65","6j6vyh25p99m6rq",78,"109.csv","","null","resources/maskTrios/BBA2.jpg","null","",NA,NA,NA,NA,""
"image-keyboard-response",209,205052,"0.0-4.65-2.65","6j6vyh25p99m6rq",78,"109.csv","","null","resources/images/fishbone.png","null","",NA,NA,NA,NA,""
"image-keyboard-response",210,205156,"0.0-4.66-0.66","6j6vyh25p99m6rq",78,"109.csv","","102.3999999910593","resources/trios/L4T2A2.jpg","39","restless",0.5,0.8,0.4,0.810941964623585,"false"
"image-keyboard-response",211,205570,"0.0-4.66-1.66","6j6vyh25p99m6rq",78,"109.csv","","null","resources/maskTrios/BBA2.jpg","null","",NA,NA,NA,NA,""
"image-keyboard-response",212,206774,"0.0-4.66-2.66","6j6vyh25p99m6rq",78,"109.csv","","null","resources/images/fishbone.png","null","",NA,NA,NA,NA,""
"image-keyboard-response",213,207416,"0.0-4.67-0.67","6j6vyh25p99m6rq",78,"109.csv","","640.7999999970198","resources/trios/L4T2A2.jpg","39","restless",0.5,0.8,0.4,0.28051900286923,"true"
"image-keyboard-response",214,207820,"0.0-4.67-1.67","6j6vyh25p99m6rq",78,"109.csv","","null","resources/maskTrios/BBA2.jpg","null","",NA,NA,NA,NA,""
"image-keyboard-response",215,209022,"0.0-4.67-2.67","6j6vyh25p99m6rq",78,"109.csv","","null","resources/images/coin2.png","null","",NA,NA,NA,NA,""
"image-keyboard-response",216,209174,"0.0-4.68-0.68","6j6vyh25p99m6rq",78,"109.csv","","150.20000000298023","resources/trios/L4T2A2.jpg","39","restless",0.5,0.8,0.4,0.246399278258428,"true"
"image-keyboard-response",217,209590,"0.0-4.68-1.68","6j6vyh25p99m6rq",78,"109.csv","","null","resources/maskTrios/BBA2.jpg","null","",NA,NA,NA,NA,""
"image-keyboard-response",218,210805,"0.0-4.68-2.68","6j6vyh25p99m6rq",78,"109.csv","","null","resources/images/coin2.png","null","",NA,NA,NA,NA,""
"image-keyboard-response",219,211101,"0.0-4.69-0.69","6j6vyh25p99m6rq",78,"109.csv","","295.40000000596046","resources/trios/L4T2A2.jpg","39","restless",0.5,0.8,0.4,0.954580174063995,"false"
"image-keyboard-response",220,211503,"0.0-4.69-1.69","6j6vyh25p99m6rq",78,"109.csv","","null","resources/maskTrios/BBA2.jpg","null","",NA,NA,NA,NA,""
"image-keyboard-response",221,212707,"0.0-4.69-2.69","6j6vyh25p99m6rq",78,"109.csv","","null","resources/images/fishbone.png","null","",NA,NA,NA,NA,""
"image-keyboard-response",222,212832,"0.0-4.70-0.70","6j6vyh25p99m6rq",78,"109.csv","","123.40000000596046","resources/trios/L4T2A2.jpg","37","restless",0.5,0.7,0.4,0.120165843201486,"true"
"image-keyboard-response",223,213237,"0.0-4.70-1.70","6j6vyh25p99m6rq",78,"109.csv","","null","resources/maskTrios/L4BB.jpg","null","",NA,NA,NA,NA,""
"image-keyboard-response",224,214443,"0.0-4.70-2.70","6j6vyh25p99m6rq",78,"109.csv","","null","resources/images/coin2.png","null","",NA,NA,NA,NA,""
"image-keyboard-response",225,215146,"0.0-4.71-0.71","6j6vyh25p99m6rq",78,"109.csv","","702.1000000089407","resources/trios/L4T2A2.jpg","37","restless",0.5,0.7,0.4,0.380748636487161,"true"
"image-keyboard-response",226,215554,"0.0-4.71-1.71","6j6vyh25p99m6rq",78,"109.csv","","null","resources/maskTrios/L4BB.jpg","null","",NA,NA,NA,NA,""
"image-keyboard-response",227,216756,"0.0-4.71-2.71","6j6vyh25p99m6rq",78,"109.csv","","null","resources/images/coin2.png","null","",NA,NA,NA,NA,""
"image-keyboard-response",228,217046,"0.0-4.72-0.72","6j6vyh25p99m6rq",78,"109.csv","","289.30000001192093","resources/trios/L4T2A2.jpg","37","restless",0.5,0.7,0.4,0.334325778334187,"true"
"image-keyboard-response",229,217453,"0.0-4.72-1.72","6j6vyh25p99m6rq",78,"109.csv","","null","resources/maskTrios/L4BB.jpg","null","",NA,NA,NA,NA,""
"image-keyboard-response",230,218670,"0.0-4.72-2.72","6j6vyh25p99m6rq",78,"109.csv","","null","resources/images/coin2.png","null","",NA,NA,NA,NA,""
"image-keyboard-response",231,218736,"0.0-4.73-0.73","6j6vyh25p99m6rq",78,"109.csv","","65.5","resources/trios/L4T2A2.jpg","37","restless",0.6,0.7,0.4,0.62036858119569,"false"
"image-keyboard-response",232,219138,"0.0-4.73-1.73","6j6vyh25p99m6rq",78,"109.csv","","null","resources/maskTrios/L4BB.jpg","null","",NA,NA,NA,NA,""
"image-keyboard-response",233,220355,"0.0-4.73-2.73","6j6vyh25p99m6rq",78,"109.csv","","null","resources/images/fishbone.png","null","",NA,NA,NA,NA,""
"image-keyboard-response",234,220601,"0.0-4.74-0.74","6j6vyh25p99m6rq",78,"109.csv","","245.1000000089407","resources/trios/L4T2A2.jpg","38","restless",0.6,0.7,0.4,0.589795035414644,"true"
"image-keyboard-response",235,221017,"0.0-4.74-1.74","6j6vyh25p99m6rq",78,"109.csv","","null","resources/maskTrios/BT2B.jpg","null","",NA,NA,NA,NA,""
"image-keyboard-response",236,222222,"0.0-4.74-2.74","6j6vyh25p99m6rq",78,"109.csv","","null","resources/images/coin2.png","null","",NA,NA,NA,NA,""
"image-keyboard-response",237,222417,"0.0-4.75-0.75","6j6vyh25p99m6rq",78,"109.csv","","193.8999999910593","resources/trios/L4T2A2.jpg","39","restless",0.6,0.7,0.4,0.162290211639823,"true"
"image-keyboard-response",238,222821,"0.0-4.75-1.75","6j6vyh25p99m6rq",78,"109.csv","","null","resources/maskTrios/BBA2.jpg","null","",NA,NA,NA,NA,""
"image-keyboard-response",239,224023,"0.0-4.75-2.75","6j6vyh25p99m6rq",78,"109.csv","","null","resources/images/coin2.png","null","",NA,NA,NA,NA,""
"image-keyboard-response",240,224146,"0.0-4.76-0.76","6j6vyh25p99m6rq",78,"109.csv","","121.79999999701977","resources/trios/L4T2A2.jpg","39","restless",0.6,0.7,0.4,0.0709861081127012,"true"
"image-keyboard-response",241,224553,"0.0-4.76-1.76","6j6vyh25p99m6rq",78,"109.csv","","null","resources/maskTrios/BBA2.jpg","null","",NA,NA,NA,NA,""
"image-keyboard-response",242,225769,"0.0-4.76-2.76","6j6vyh25p99m6rq",78,"109.csv","","null","resources/images/coin2.png","null","",NA,NA,NA,NA,""
"image-keyboard-response",243,225790,"0.0-4.77-0.77","6j6vyh25p99m6rq",78,"109.csv","","19.299999997019768","resources/trios/L4T2A2.jpg","39","restless",0.6,0.7,0.4,0.58389026997465,"false"
"image-keyboard-response",244,226204,"0.0-4.77-1.77","6j6vyh25p99m6rq",78,"109.csv","","null","resources/maskTrios/BBA2.jpg","null","",NA,NA,NA,NA,""
"image-keyboard-response",245,227406,"0.0-4.77-2.77","6j6vyh25p99m6rq",78,"109.csv","","null","resources/images/fishbone.png","null","",NA,NA,NA,NA,""
"image-keyboard-response",246,227419,"0.0-4.78-0.78","6j6vyh25p99m6rq",78,"109.csv","","12.200000002980232","resources/trios/L4T2A2.jpg","39","restless",0.6,0.7,0.4,0.399300312523758,"true"
"image-keyboard-response",247,227821,"0.0-4.78-1.78","6j6vyh25p99m6rq",78,"109.csv","","null","resources/maskTrios/BBA2.jpg","null","",NA,NA,NA,NA,""
"image-keyboard-response",248,229024,"0.0-4.78-2.78","6j6vyh25p99m6rq",78,"109.csv","","null","resources/images/coin2.png","null","",NA,NA,NA,NA,""
"image-keyboard-response",249,229596,"0.0-4.79-0.79","6j6vyh25p99m6rq",78,"109.csv","","571.3999999910593","resources/trios/L4T2A2.jpg","39","restless",0.6,0.7,0.4,0.172491271993028,"true"
"image-keyboard-response",250,230004,"0.0-4.79-1.79","6j6vyh25p99m6rq",78,"109.csv","","null","resources/maskTrios/BBA2.jpg","null","",NA,NA,NA,NA,""
"image-keyboard-response",251,231207,"0.0-4.79-2.79","6j6vyh25p99m6rq",78,"109.csv","","null","resources/images/coin2.png","null","",NA,NA,NA,NA,""
"image-keyboard-response",252,231286,"0.0-4.80-0.80","6j6vyh25p99m6rq",78,"109.csv","","77.70000000298023","resources/trios/L4T2A2.jpg","39","restless",0.6,0.7,0.4,0.0767765395965285,"true"
"image-keyboard-response",253,231692,"0.0-4.80-1.80","6j6vyh25p99m6rq",78,"109.csv","","null","resources/maskTrios/BBA2.jpg","null","",NA,NA,NA,NA,""
"image-keyboard-response",254,232904,"0.0-4.80-2.80","6j6vyh25p99m6rq",78,"109.csv","","null","resources/images/coin2.png","null","",NA,NA,NA,NA,""
"image-keyboard-response",255,233309,"0.0-4.81-0.81","6j6vyh25p99m6rq",78,"109.csv","","402.79999999701977","resources/trios/L4T2A2.jpg","39","restless",0.6,0.7,0.4,0.47976497048057,"false"
"image-keyboard-response",256,233721,"0.0-4.81-1.81","6j6vyh25p99m6rq",78,"109.csv","","null","resources/maskTrios/BBA2.jpg","null","",NA,NA,NA,NA,""
"image-keyboard-response",257,234923,"0.0-4.81-2.81","6j6vyh25p99m6rq",78,"109.csv","","null","resources/images/fishbone.png","null","",NA,NA,NA,NA,""
"image-keyboard-response",258,235097,"0.0-4.82-0.82","6j6vyh25p99m6rq",78,"109.csv","","172.09999999403954","resources/trios/L4T2A2.jpg","39","restless",0.6,0.7,0.4,0.590513609605623,"false"
"image-keyboard-response",259,235504,"0.0-4.82-1.82","6j6vyh25p99m6rq",78,"109.csv","","null","resources/maskTrios/BBA2.jpg","null","",NA,NA,NA,NA,""
"image-keyboard-response",260,236708,"0.0-4.82-2.82","6j6vyh25p99m6rq",78,"109.csv","","null","resources/images/fishbone.png","null","",NA,NA,NA,NA,""
"image-keyboard-response",261,237020,"0.0-4.83-0.83","6j6vyh25p99m6rq",78,"109.csv","","310.69999998807907","resources/trios/L4T2A2.jpg","39","restless",0.6,0.7,0.3,0.957976685023352,"false"
"image-keyboard-response",262,237436,"0.0-4.83-1.83","6j6vyh25p99m6rq",78,"109.csv","","null","resources/maskTrios/BBA2.jpg","null","",NA,NA,NA,NA,""
"image-keyboard-response",263,238640,"0.0-4.83-2.83","6j6vyh25p99m6rq",78,"109.csv","","null","resources/images/fishbone.png","null","",NA,NA,NA,NA,""
"image-keyboard-response",264,238822,"0.0-4.84-0.84","6j6vyh25p99m6rq",78,"109.csv","","180.79999999701977","resources/trios/L4T2A2.jpg","39","restless",0.6,0.7,0.3,0.89730242871858,"false"
"image-keyboard-response",265,239238,"0.0-4.84-1.84","6j6vyh25p99m6rq",78,"109.csv","","null","resources/maskTrios/BBA2.jpg","null","",NA,NA,NA,NA,""
"image-keyboard-response",266,240440,"0.0-4.84-2.84","6j6vyh25p99m6rq",78,"109.csv","","null","resources/images/fishbone.png","null","",NA,NA,NA,NA,""
"image-keyboard-response",267,240740,"0.0-4.85-0.85","6j6vyh25p99m6rq",78,"109.csv","","299.3999999910593","resources/trios/L4T2A2.jpg","38","restless",0.5,0.7,0.3,0.507522684800714,"true"
"image-keyboard-response",268,241145,"0.0-4.85-1.85","6j6vyh25p99m6rq",78,"109.csv","","null","resources/maskTrios/BT2B.jpg","null","",NA,NA,NA,NA,""
"image-keyboard-response",269,242354,"0.0-4.85-2.85","6j6vyh25p99m6rq",78,"109.csv","","null","resources/images/coin2.png","null","",NA,NA,NA,NA,""
"image-keyboard-response",270,242506,"0.0-4.86-0.86","6j6vyh25p99m6rq",78,"109.csv","","149.90000000596046","resources/trios/L4T2A2.jpg","38","restless",0.5,0.7,0.3,0.515452820642095,"true"
"image-keyboard-response",271,242920,"0.0-4.86-1.86","6j6vyh25p99m6rq",78,"109.csv","","null","resources/maskTrios/BT2B.jpg","null","",NA,NA,NA,NA,""
"image-keyboard-response",272,244122,"0.0-4.86-2.86","6j6vyh25p99m6rq",78,"109.csv","","null","resources/images/coin2.png","null","",NA,NA,NA,NA,""
"image-keyboard-response",273,244156,"0.0-4.87-0.87","6j6vyh25p99m6rq",78,"109.csv","","32.8999999910593","resources/trios/L4T2A2.jpg","38","restless",0.5,0.7,0.3,0.165488849944444,"true"
"image-keyboard-response",274,244562,"0.0-4.87-1.87","6j6vyh25p99m6rq",78,"109.csv","","null","resources/maskTrios/BT2B.jpg","null","",NA,NA,NA,NA,""
"image-keyboard-response",275,245772,"0.0-4.87-2.87","6j6vyh25p99m6rq",78,"109.csv","","null","resources/images/coin2.png","null","",NA,NA,NA,NA,""
"image-keyboard-response",276,245880,"0.0-4.88-0.88","6j6vyh25p99m6rq",78,"109.csv","","106.79999999701977","resources/trios/L4T2A2.jpg","38","restless",0.5,0.7,0.3,0.912007213074819,"false"
"image-keyboard-response",277,246287,"0.0-4.88-1.88","6j6vyh25p99m6rq",78,"109.csv","","null","resources/maskTrios/BT2B.jpg","null","",NA,NA,NA,NA,""
"image-keyboard-response",278,247491,"0.0-4.88-2.88","6j6vyh25p99m6rq",78,"109.csv","","null","resources/images/fishbone.png","null","",NA,NA,NA,NA,""
"image-keyboard-response",279,247637,"0.0-4.89-0.89","6j6vyh25p99m6rq",78,"109.csv","","145.40000000596046","resources/trios/L4T2A2.jpg","38","restless",0.5,0.8,0.3,0.626589557533311,"true"
"image-keyboard-response",280,248053,"0.0-4.89-1.89","6j6vyh25p99m6rq",78,"109.csv","","null","resources/maskTrios/BT2B.jpg","null","",NA,NA,NA,NA,""
"image-keyboard-response",281,249256,"0.0-4.89-2.89","6j6vyh25p99m6rq",78,"109.csv","","null","resources/images/coin2.png","null","",NA,NA,NA,NA,""
"image-keyboard-response",282,249406,"0.0-4.90-0.90","6j6vyh25p99m6rq",78,"109.csv","","149.20000000298023","resources/trios/L4T2A2.jpg","38","restless",0.5,0.8,0.4,0.702216318222684,"true"
"image-keyboard-response",283,249821,"0.0-4.90-1.90","6j6vyh25p99m6rq",78,"109.csv","","null","resources/maskTrios/BT2B.jpg","null","",NA,NA,NA,NA,""
"image-keyboard-response",284,251028,"0.0-4.90-2.90","6j6vyh25p99m6rq",78,"109.csv","","null","resources/images/coin2.png","null","",NA,NA,NA,NA,""
"image-keyboard-response",285,251047,"0.0-4.91-0.91","6j6vyh25p99m6rq",78,"109.csv","","17.799999997019768","resources/trios/L4T2A2.jpg","38","restless",0.5,0.8,0.4,0.734179117915386,"true"
"image-keyboard-response",286,251453,"0.0-4.91-1.91","6j6vyh25p99m6rq",78,"109.csv","","null","resources/maskTrios/BT2B.jpg","null","",NA,NA,NA,NA,""
"image-keyboard-response",287,252654,"0.0-4.91-2.91","6j6vyh25p99m6rq",78,"109.csv","","null","resources/images/coin2.png","null","",NA,NA,NA,NA,""
"image-keyboard-response",288,252736,"0.0-4.92-0.92","6j6vyh25p99m6rq",78,"109.csv","","81","resources/trios/L4T2A2.jpg","38","restless",0.5,0.8,0.4,0.0990893419617456,"true"
"image-keyboard-response",289,253138,"0.0-4.92-1.92","6j6vyh25p99m6rq",78,"109.csv","","null","resources/maskTrios/BT2B.jpg","null","",NA,NA,NA,NA,""
"image-keyboard-response",290,254340,"0.0-4.92-2.92","6j6vyh25p99m6rq",78,"109.csv","","null","resources/images/coin2.png","null","",NA,NA,NA,NA,""
"image-keyboard-response",291,254599,"0.0-4.93-0.93","6j6vyh25p99m6rq",78,"109.csv","","258.20000000298023","resources/trios/L4T2A2.jpg","38","restless",0.5,0.8,0.4,0.253915156997086,"true"
"image-keyboard-response",292,255004,"0.0-4.93-1.93","6j6vyh25p99m6rq",78,"109.csv","","null","resources/maskTrios/BT2B.jpg","null","",NA,NA,NA,NA,""
"image-keyboard-response",293,256217,"0.0-4.93-2.93","6j6vyh25p99m6rq",78,"109.csv","","null","resources/images/coin2.png","null","",NA,NA,NA,NA,""
"image-keyboard-response",294,256303,"0.0-4.94-0.94","6j6vyh25p99m6rq",78,"109.csv","","85.1000000089407","resources/trios/L4T2A2.jpg","38","restless",0.5,0.8,0.4,0.555005843021751,"true"
"image-keyboard-response",295,256720,"0.0-4.94-1.94","6j6vyh25p99m6rq",78,"109.csv","","null","resources/maskTrios/BT2B.jpg","null","",NA,NA,NA,NA,""
"image-keyboard-response",296,257923,"0.0-4.94-2.94","6j6vyh25p99m6rq",78,"109.csv","","null","resources/images/coin2.png","null","",NA,NA,NA,NA,""
"image-keyboard-response",297,257957,"0.0-4.95-0.95","6j6vyh25p99m6rq",78,"109.csv","","33.29999999701977","resources/trios/L4T2A2.jpg","38","restless",0.5,0.8,0.4,0.816747874802006,"false"
"image-keyboard-response",298,258370,"0.0-4.95-1.95","6j6vyh25p99m6rq",78,"109.csv","","null","resources/maskTrios/BT2B.jpg","null","",NA,NA,NA,NA,""
"image-keyboard-response",299,259586,"0.0-4.95-2.95","6j6vyh25p99m6rq",78,"109.csv","","null","resources/images/fishbone.png","null","",NA,NA,NA,NA,""
"image-keyboard-response",300,259793,"0.0-4.96-0.96","6j6vyh25p99m6rq",78,"109.csv","","205.59999999403954","resources/trios/L4T2A2.jpg","38","restless",0.5,0.8,0.4,0.677743879965113,"true"
"image-keyboard-response",301,260203,"0.0-4.96-1.96","6j6vyh25p99m6rq",78,"109.csv","","null","resources/maskTrios/BT2B.jpg","null","",NA,NA,NA,NA,""
"image-keyboard-response",302,261407,"0.0-4.96-2.96","6j6vyh25p99m6rq",78,"109.csv","","null","resources/images/coin2.png","null","",NA,NA,NA,NA,""
"image-keyboard-response",303,261455,"0.0-4.97-0.97","6j6vyh25p99m6rq",78,"109.csv","","46.8999999910593","resources/trios/L4T2A2.jpg","38","restless",0.5,0.8,0.4,0.893355602545181,"false"
"image-keyboard-response",304,261859,"0.0-4.97-1.97","6j6vyh25p99m6rq",78,"109.csv","","null","resources/maskTrios/BT2B.jpg","null","",NA,NA,NA,NA,""
"image-keyboard-response",305,263071,"0.0-4.97-2.97","6j6vyh25p99m6rq",78,"109.csv","","null","resources/images/fishbone.png","null","",NA,NA,NA,NA,""
"image-keyboard-response",306,263286,"0.0-4.98-0.98","6j6vyh25p99m6rq",78,"109.csv","","214.3999999910593","resources/trios/L4T2A2.jpg","38","restless",0.5,0.8,0.4,0.690286915157067,"true"
"image-keyboard-response",307,263702,"0.0-4.98-1.98","6j6vyh25p99m6rq",78,"109.csv","","null","resources/maskTrios/BT2B.jpg","null","",NA,NA,NA,NA,""
"image-keyboard-response",308,264908,"0.0-4.98-2.98","6j6vyh25p99m6rq",78,"109.csv","","null","resources/images/coin2.png","null","",NA,NA,NA,NA,""
"image-keyboard-response",309,265088,"0.0-4.99-0.99","6j6vyh25p99m6rq",78,"109.csv","","178.8999999910593","resources/trios/L4T2A2.jpg","38","restless",0.5,0.8,0.4,0.812693603732693,"false"
"image-keyboard-response",310,265504,"0.0-4.99-1.99","6j6vyh25p99m6rq",78,"109.csv","","null","resources/maskTrios/BT2B.jpg","null","",NA,NA,NA,NA,""
"image-keyboard-response",311,266720,"0.0-4.99-2.99","6j6vyh25p99m6rq",78,"109.csv","","null","resources/images/fishbone.png","null","",NA,NA,NA,NA,""
"image-keyboard-response",312,266818,"0.0-4.100-0.100","6j6vyh25p99m6rq",78,"109.csv","","97","resources/trios/L4T2A2.jpg","38","restless",0.5,0.8,0.4,0.609846356535548,"true"
"image-keyboard-response",313,267221,"0.0-4.100-1.100","6j6vyh25p99m6rq",78,"109.csv","","null","resources/maskTrios/BT2B.jpg","null","",NA,NA,NA,NA,""
"image-keyboard-response",314,268423,"0.0-4.100-2.100","6j6vyh25p99m6rq",78,"109.csv","","null","resources/images/coin2.png","null","",NA,NA,NA,NA,""
"image-keyboard-response",315,268636,"0.0-4.101-0.101","6j6vyh25p99m6rq",78,"109.csv","","212.1000000089407","resources/trios/L4T2A2.jpg","38","restless",0.5,0.8,0.4,0.161295309457909,"true"
"image-keyboard-response",316,269037,"0.0-4.101-1.101","6j6vyh25p99m6rq",78,"109.csv","","null","resources/maskTrios/BT2B.jpg","null","",NA,NA,NA,NA,""
"image-keyboard-response",317,270239,"0.0-4.101-2.101","6j6vyh25p99m6rq",78,"109.csv","","null","resources/images/coin2.png","null","",NA,NA,NA,NA,""
"image-keyboard-response",318,270309,"0.0-4.102-0.102","6j6vyh25p99m6rq",78,"109.csv","","68.29999999701977","resources/trios/L4T2A2.jpg","38","restless",0.5,0.8,0.4,0.833969457649452,"false"
"image-keyboard-response",319,270719,"0.0-4.102-1.102","6j6vyh25p99m6rq",78,"109.csv","","null","resources/maskTrios/BT2B.jpg","null","",NA,NA,NA,NA,""
"image-keyboard-response",320,271935,"0.0-4.102-2.102","6j6vyh25p99m6rq",78,"109.csv","","null","resources/images/fishbone.png","null","",NA,NA,NA,NA,""
"image-keyboard-response",321,272136,"0.0-4.103-0.103","6j6vyh25p99m6rq",78,"109.csv","","200","resources/trios/L4T2A2.jpg","38","restless",0.4,0.8,0.4,0.147517219418641,"true"
"image-keyboard-response",322,272551,"0.0-4.103-1.103","6j6vyh25p99m6rq",78,"109.csv","","null","resources/maskTrios/BT2B.jpg","null","",NA,NA,NA,NA,""
"image-keyboard-response",323,273754,"0.0-4.103-2.103","6j6vyh25p99m6rq",78,"109.csv","","null","resources/images/coin2.png","null","",NA,NA,NA,NA,""
"image-keyboard-response",324,276673,"0.0-4.104-0.104","6j6vyh25p99m6rq",78,"109.csv","","2917.9000000059605","resources/trios/L4T2A2.jpg","38","restless",0.4,0.8,0.4,0.107088258285996,"true"
"image-keyboard-response",325,277086,"0.0-4.104-1.104","6j6vyh25p99m6rq",78,"109.csv","","null","resources/maskTrios/BT2B.jpg","null","",NA,NA,NA,NA,""
"image-keyboard-response",326,278290,"0.0-4.104-2.104","6j6vyh25p99m6rq",78,"109.csv","","null","resources/images/coin2.png","null","",NA,NA,NA,NA,""
"image-keyboard-response",327,278499,"0.0-4.105-0.105","6j6vyh25p99m6rq",78,"109.csv","","207.5","resources/trios/L4T2A2.jpg","38","restless",0.4,0.8,0.4,0.00440286699755621,"true"
"image-keyboard-response",328,278903,"0.0-4.105-1.105","6j6vyh25p99m6rq",78,"109.csv","","null","resources/maskTrios/BT2B.jpg","null","",NA,NA,NA,NA,""
"image-keyboard-response",329,280119,"0.0-4.105-2.105","6j6vyh25p99m6rq",78,"109.csv","","null","resources/images/coin2.png","null","",NA,NA,NA,NA,""
"image-keyboard-response",330,292101,"0.0-4.106-0.106","6j6vyh25p99m6rq",78,"109.csv","","11984.79999999702","resources/trios/L4T2A2.jpg","39","restless",0.4,0.8,0.4,0.527375158105973,"false"
"image-keyboard-response",331,292516,"0.0-4.106-1.106","6j6vyh25p99m6rq",78,"109.csv","","null","resources/maskTrios/BBA2.jpg","null","",NA,NA,NA,NA,""
"image-keyboard-response",332,293718,"0.0-4.106-2.106","6j6vyh25p99m6rq",78,"109.csv","","null","resources/images/fishbone.png","null","",NA,NA,NA,NA,""
"image-keyboard-response",333,293734,"0.0-4.107-0.107","6j6vyh25p99m6rq",78,"109.csv","","15.099999994039536","resources/trios/L4T2A2.jpg","39","restless",0.5,0.8,0.4,0.946036832456087,"false"
"image-keyboard-response",334,294150,"0.0-4.107-1.107","6j6vyh25p99m6rq",78,"109.csv","","null","resources/maskTrios/BBA2.jpg","null","",NA,NA,NA,NA,""
"image-keyboard-response",335,295355,"0.0-4.107-2.107","6j6vyh25p99m6rq",78,"109.csv","","null","resources/images/fishbone.png","null","",NA,NA,NA,NA,""
"image-keyboard-response",336,295558,"0.0-4.108-0.108","6j6vyh25p99m6rq",78,"109.csv","","201.70000000298023","resources/trios/L4T2A2.jpg","39","restless",0.5,0.8,0.4,0.656982811248978,"false"
"image-keyboard-response",337,295965,"0.0-4.108-1.108","6j6vyh25p99m6rq",78,"109.csv","","null","resources/maskTrios/BBA2.jpg","null","",NA,NA,NA,NA,""
"image-keyboard-response",338,297173,"0.0-4.108-2.108","6j6vyh25p99m6rq",78,"109.csv","","null","resources/images/fishbone.png","null","",NA,NA,NA,NA,""
"image-keyboard-response",339,297350,"0.0-4.109-0.109","6j6vyh25p99m6rq",78,"109.csv","","175.8999999910593","resources/trios/L4T2A2.jpg","39","restless",0.5,0.8,0.4,0.879340823296107,"false"
"image-keyboard-response",340,297765,"0.0-4.109-1.109","6j6vyh25p99m6rq",78,"109.csv","","null","resources/maskTrios/BBA2.jpg","null","",NA,NA,NA,NA,""
"image-keyboard-response",341,298967,"0.0-4.109-2.109","6j6vyh25p99m6rq",78,"109.csv","","null","resources/images/fishbone.png","null","",NA,NA,NA,NA,""
"image-keyboard-response",342,299063,"0.0-4.110-0.110","6j6vyh25p99m6rq",78,"109.csv","","94.6000000089407","resources/trios/L4T2A2.jpg","39","restless",0.5,0.7,0.4,0.676110840112939,"false"
"image-keyboard-response",343,299465,"0.0-4.110-1.110","6j6vyh25p99m6rq",78,"109.csv","","null","resources/maskTrios/BBA2.jpg","null","",NA,NA,NA,NA,""
"image-keyboard-response",344,300675,"0.0-4.110-2.110","6j6vyh25p99m6rq",78,"109.csv","","null","resources/images/fishbone.png","null","",NA,NA,NA,NA,""
"image-keyboard-response",345,300868,"0.0-4.111-0.111","6j6vyh25p99m6rq",78,"109.csv","","191.79999999701977","resources/trios/L4T2A2.jpg","39","restless",0.5,0.7,0.5,0.410472050282032,"true"
"image-keyboard-response",346,301281,"0.0-4.111-1.111","6j6vyh25p99m6rq",78,"109.csv","","null","resources/maskTrios/BBA2.jpg","null","",NA,NA,NA,NA,""
"image-keyboard-response",347,302486,"0.0-4.111-2.111","6j6vyh25p99m6rq",78,"109.csv","","null","resources/images/coin2.png","null","",NA,NA,NA,NA,""
"image-keyboard-response",348,302512,"0.0-4.112-0.112","6j6vyh25p99m6rq",78,"109.csv","","24.099999994039536","resources/trios/L4T2A2.jpg","39","restless",0.5,0.7,0.5,0.212647007024358,"true"
"image-keyboard-response",349,302916,"0.0-4.112-1.112","6j6vyh25p99m6rq",78,"109.csv","","null","resources/maskTrios/BBA2.jpg","null","",NA,NA,NA,NA,""
"image-keyboard-response",350,304117,"0.0-4.112-2.112","6j6vyh25p99m6rq",78,"109.csv","","null","resources/images/coin2.png","null","",NA,NA,NA,NA,""
"image-keyboard-response",351,304255,"0.0-4.113-0.113","6j6vyh25p99m6rq",78,"109.csv","","137.19999998807907","resources/trios/L4T2A2.jpg","39","restless",0.5,0.7,0.5,0.531526647270767,"false"
"image-keyboard-response",352,304666,"0.0-4.113-1.113","6j6vyh25p99m6rq",78,"109.csv","","null","resources/maskTrios/BBA2.jpg","null","",NA,NA,NA,NA,""
"image-keyboard-response",353,305870,"0.0-4.113-2.113","6j6vyh25p99m6rq",78,"109.csv","","null","resources/images/fishbone.png","null","",NA,NA,NA,NA,""
"image-keyboard-response",354,305925,"0.0-4.114-0.114","6j6vyh25p99m6rq",78,"109.csv","","54.1000000089407","resources/trios/L4T2A2.jpg","39","restless",0.5,0.7,0.5,0.848793357670575,"false"
"image-keyboard-response",355,306332,"0.0-4.114-1.114","6j6vyh25p99m6rq",78,"109.csv","","null","resources/maskTrios/BBA2.jpg","null","",NA,NA,NA,NA,""
"image-keyboard-response",356,307535,"0.0-4.114-2.114","6j6vyh25p99m6rq",78,"109.csv","","null","resources/images/fishbone.png","null","",NA,NA,NA,NA,""
"image-keyboard-response",357,307589,"0.0-4.115-0.115","6j6vyh25p99m6rq",78,"109.csv","","52.6000000089407","resources/trios/L4T2A2.jpg","39","restless",0.5,0.7,0.5,0.505190807550392,"false"
"image-keyboard-response",358,307999,"0.0-4.115-1.115","6j6vyh25p99m6rq",78,"109.csv","","null","resources/maskTrios/BBA2.jpg","null","",NA,NA,NA,NA,""
"image-keyboard-response",359,309200,"0.0-4.115-2.115","6j6vyh25p99m6rq",78,"109.csv","","null","resources/images/fishbone.png","null","",NA,NA,NA,NA,""
"image-keyboard-response",360,309275,"0.0-4.116-0.116","6j6vyh25p99m6rq",78,"109.csv","","73.1000000089407","resources/trios/L4T2A2.jpg","39","restless",0.5,0.7,0.5,0.925950262002603,"false"
"image-keyboard-response",361,309683,"0.0-4.116-1.116","6j6vyh25p99m6rq",78,"109.csv","","null","resources/maskTrios/BBA2.jpg","null","",NA,NA,NA,NA,""
"image-keyboard-response",362,310894,"0.0-4.116-2.116","6j6vyh25p99m6rq",78,"109.csv","","null","resources/images/fishbone.png","null","",NA,NA,NA,NA,""
"image-keyboard-response",363,310980,"0.0-4.117-0.117","6j6vyh25p99m6rq",78,"109.csv","","85.3999999910593","resources/trios/L4T2A2.jpg","39","restless",0.5,0.6,0.5,0.356228337195687,"true"
"image-keyboard-response",364,311382,"0.0-4.117-1.117","6j6vyh25p99m6rq",78,"109.csv","","null","resources/maskTrios/BBA2.jpg","null","",NA,NA,NA,NA,""
"image-keyboard-response",365,312599,"0.0-4.117-2.117","6j6vyh25p99m6rq",78,"109.csv","","null","resources/images/coin2.png","null","",NA,NA,NA,NA,""
"image-keyboard-response",366,313549,"0.0-4.118-0.118","6j6vyh25p99m6rq",78,"109.csv","","949.5999999940395","resources/trios/L4T2A2.jpg","39","restless",0.5,0.6,0.5,0.231966815946084,"true"
"image-keyboard-response",367,313964,"0.0-4.118-1.118","6j6vyh25p99m6rq",78,"109.csv","","null","resources/maskTrios/BBA2.jpg","null","",NA,NA,NA,NA,""
"image-keyboard-response",368,315167,"0.0-4.118-2.118","6j6vyh25p99m6rq",78,"109.csv","","null","resources/images/coin2.png","null","",NA,NA,NA,NA,""
"image-keyboard-response",369,315531,"0.0-4.119-0.119","6j6vyh25p99m6rq",78,"109.csv","","362.40000000596046","resources/trios/L4T2A2.jpg","39","restless",0.5,0.6,0.5,0.166885080375873,"true"
"image-keyboard-response",370,315947,"0.0-4.119-1.119","6j6vyh25p99m6rq",78,"109.csv","","null","resources/maskTrios/BBA2.jpg","null","",NA,NA,NA,NA,""
"image-keyboard-response",371,317149,"0.0-4.119-2.119","6j6vyh25p99m6rq",78,"109.csv","","null","resources/images/coin2.png","null","",NA,NA,NA,NA,""
"image-keyboard-response",372,317305,"0.0-4.120-0.120","6j6vyh25p99m6rq",78,"109.csv","","155","resources/trios/L4T2A2.jpg","39","restless",0.5,0.6,0.5,0.20673929564565,"true"
"image-keyboard-response",373,317717,"0.0-4.120-1.120","6j6vyh25p99m6rq",78,"109.csv","","null","resources/maskTrios/BBA2.jpg","null","",NA,NA,NA,NA,""
"image-keyboard-response",374,318931,"0.0-4.120-2.120","6j6vyh25p99m6rq",78,"109.csv","","null","resources/images/coin2.png","null","",NA,NA,NA,NA,""
"image-keyboard-response",375,319041,"0.0-4.121-0.121","6j6vyh25p99m6rq",78,"109.csv","","108.09999999403954","resources/trios/L4T2A2.jpg","39","restless",0.5,0.6,0.5,0.448248460684441,"true"
"image-keyboard-response",376,319450,"0.0-4.121-1.121","6j6vyh25p99m6rq",78,"109.csv","","null","resources/maskTrios/BBA2.jpg","null","",NA,NA,NA,NA,""
"image-keyboard-response",377,320653,"0.0-4.121-2.121","6j6vyh25p99m6rq",78,"109.csv","","null","resources/images/coin2.png","null","",NA,NA,NA,NA,""
"image-keyboard-response",378,320706,"0.0-4.122-0.122","6j6vyh25p99m6rq",78,"109.csv","","52.099999994039536","resources/trios/L4T2A2.jpg","39","restless",0.5,0.6,0.5,0.808434175481199,"false"
"image-keyboard-response",379,321117,"0.0-4.122-1.122","6j6vyh25p99m6rq",78,"109.csv","","null","resources/maskTrios/BBA2.jpg","null","",NA,NA,NA,NA,""
"image-keyboard-response",380,322330,"0.0-4.122-2.122","6j6vyh25p99m6rq",78,"109.csv","","null","resources/images/fishbone.png","null","",NA,NA,NA,NA,""
"image-keyboard-response",381,322611,"0.0-4.123-0.123","6j6vyh25p99m6rq",78,"109.csv","","279.29999999701977","resources/trios/L4T2A2.jpg","39","restless",0.5,0.6,0.5,0.827887415535304,"false"
"image-keyboard-response",382,323016,"0.0-4.123-1.123","6j6vyh25p99m6rq",78,"109.csv","","null","resources/maskTrios/BBA2.jpg","null","",NA,NA,NA,NA,""
"image-keyboard-response",383,324218,"0.0-4.123-2.123","6j6vyh25p99m6rq",78,"109.csv","","null","resources/images/fishbone.png","null","",NA,NA,NA,NA,""
"image-keyboard-response",384,324336,"0.0-4.124-0.124","6j6vyh25p99m6rq",78,"109.csv","","116.5","resources/trios/L4T2A2.jpg","39","restless",0.5,0.6,0.5,0.258898118497274,"true"
"image-keyboard-response",385,324749,"0.0-4.124-1.124","6j6vyh25p99m6rq",78,"109.csv","","null","resources/maskTrios/BBA2.jpg","null","",NA,NA,NA,NA,""
"image-keyboard-response",386,325965,"0.0-4.124-2.124","6j6vyh25p99m6rq",78,"109.csv","","null","resources/images/coin2.png","null","",NA,NA,NA,NA,""
"image-keyboard-response",387,326143,"0.0-4.125-0.125","6j6vyh25p99m6rq",78,"109.csv","","176.8999999910593","resources/trios/L4T2A2.jpg","39","restless",0.5,0.6,0.5,0.0270393021719706,"true"
"image-keyboard-response",388,326549,"0.0-4.125-1.125","6j6vyh25p99m6rq",78,"109.csv","","null","resources/maskTrios/BBA2.jpg","null","",NA,NA,NA,NA,""
"image-keyboard-response",389,327752,"0.0-4.125-2.125","6j6vyh25p99m6rq",78,"109.csv","","null","resources/images/coin2.png","null","",NA,NA,NA,NA,""
"image-keyboard-response",390,327956,"0.0-4.126-0.126","6j6vyh25p99m6rq",78,"109.csv","","202.80000001192093","resources/trios/L4T2A2.jpg","39","restless",0.5,0.6,0.5,0.154407454249186,"true"
"image-keyboard-response",391,328364,"0.0-4.126-1.126","6j6vyh25p99m6rq",78,"109.csv","","null","resources/maskTrios/BBA2.jpg","null","",NA,NA,NA,NA,""
"image-keyboard-response",392,329566,"0.0-4.126-2.126","6j6vyh25p99m6rq",78,"109.csv","","null","resources/images/coin2.png","null","",NA,NA,NA,NA,""
"image-keyboard-response",393,329732,"0.0-4.127-0.127","6j6vyh25p99m6rq",78,"109.csv","","164.29999999701977","resources/trios/L4T2A2.jpg","39","restless",0.5,0.6,0.5,0.409249947369674,"true"
"image-keyboard-response",394,330147,"0.0-4.127-1.127","6j6vyh25p99m6rq",78,"109.csv","","null","resources/maskTrios/BBA2.jpg","null","",NA,NA,NA,NA,""
"image-keyboard-response",395,331352,"0.0-4.127-2.127","6j6vyh25p99m6rq",78,"109.csv","","null","resources/images/coin2.png","null","",NA,NA,NA,NA,""
"image-keyboard-response",396,331915,"0.0-4.128-0.128","6j6vyh25p99m6rq",78,"109.csv","","561.5","resources/trios/L4T2A2.jpg","39","restless",0.5,0.5,0.4,0.311137331603974,"true"
"image-keyboard-response",397,332331,"0.0-4.128-1.128","6j6vyh25p99m6rq",78,"109.csv","","null","resources/maskTrios/BBA2.jpg","null","",NA,NA,NA,NA,""
"image-keyboard-response",398,333534,"0.0-4.128-2.128","6j6vyh25p99m6rq",78,"109.csv","","null","resources/images/coin2.png","null","",NA,NA,NA,NA,""
"image-keyboard-response",399,333551,"0.0-4.129-0.129","6j6vyh25p99m6rq",78,"109.csv","","15.200000002980232","resources/trios/L4T2A2.jpg","39","restless",0.5,0.5,0.4,0.612791546784109,"false"
"image-keyboard-response",400,333965,"0.0-4.129-1.129","6j6vyh25p99m6rq",78,"109.csv","","null","resources/maskTrios/BBA2.jpg","null","",NA,NA,NA,NA,""
"image-keyboard-response",401,335167,"0.0-4.129-2.129","6j6vyh25p99m6rq",78,"109.csv","","null","resources/images/fishbone.png","null","",NA,NA,NA,NA,""
"image-keyboard-response",402,335390,"0.0-4.130-0.130","6j6vyh25p99m6rq",78,"109.csv","","221.40000000596046","resources/trios/L4T2A2.jpg","39","restless",0.5,0.5,0.4,0.308325508451216,"true"
"image-keyboard-response",403,335799,"0.0-4.130-1.130","6j6vyh25p99m6rq",78,"109.csv","","null","resources/maskTrios/BBA2.jpg","null","",NA,NA,NA,NA,""
"image-keyboard-response",404,337014,"0.0-4.130-2.130","6j6vyh25p99m6rq",78,"109.csv","","null","resources/images/coin2.png","null","",NA,NA,NA,NA,""
"image-keyboard-response",405,337058,"0.0-4.131-0.131","6j6vyh25p99m6rq",78,"109.csv","","42","resources/trios/L4T2A2.jpg","39","restless",0.5,0.5,0.4,0.398218060432222,"true"
"image-keyboard-response",406,337464,"0.0-4.131-1.131","6j6vyh25p99m6rq",78,"109.csv","","null","resources/maskTrios/BBA2.jpg","null","",NA,NA,NA,NA,""
"image-keyboard-response",407,338668,"0.0-4.131-2.131","6j6vyh25p99m6rq",78,"109.csv","","null","resources/images/coin2.png","null","",NA,NA,NA,NA,""
"image-keyboard-response",408,338675,"0.0-4.132-0.132","6j6vyh25p99m6rq",78,"109.csv","","5.600000008940697","resources/trios/L4T2A2.jpg","39","restless",0.5,0.5,0.4,0.868389632638191,"false"
"image-keyboard-response",409,339082,"0.0-4.132-1.132","6j6vyh25p99m6rq",78,"109.csv","","null","resources/maskTrios/BBA2.jpg","null","",NA,NA,NA,NA,""
"image-keyboard-response",410,340291,"0.0-4.132-2.132","6j6vyh25p99m6rq",78,"109.csv","","null","resources/images/fishbone.png","null","",NA,NA,NA,NA,""
"image-keyboard-response",411,340615,"0.0-4.133-0.133","6j6vyh25p99m6rq",78,"109.csv","","323.09999999403954","resources/trios/L4T2A2.jpg","39","restless",0.5,0.5,0.4,0.0794323375932775,"true"
"image-keyboard-response",412,341031,"0.0-4.133-1.133","6j6vyh25p99m6rq",78,"109.csv","","null","resources/maskTrios/BBA2.jpg","null","",NA,NA,NA,NA,""
"image-keyboard-response",413,342233,"0.0-4.133-2.133","6j6vyh25p99m6rq",78,"109.csv","","null","resources/images/coin2.png","null","",NA,NA,NA,NA,""
"image-keyboard-response",414,342290,"0.0-4.134-0.134","6j6vyh25p99m6rq",78,"109.csv","","56.400000005960464","resources/trios/L4T2A2.jpg","39","restless",0.5,0.5,0.4,0.52707827219803,"false"
"image-keyboard-response",415,342698,"0.0-4.134-1.134","6j6vyh25p99m6rq",78,"109.csv","","null","resources/maskTrios/BBA2.jpg","null","",NA,NA,NA,NA,""
"image-keyboard-response",416,343901,"0.0-4.134-2.134","6j6vyh25p99m6rq",78,"109.csv","","null","resources/images/fishbone.png","null","",NA,NA,NA,NA,""
"image-keyboard-response",417,343933,"0.0-4.135-0.135","6j6vyh25p99m6rq",78,"109.csv","","31.200000002980232","resources/trios/L4T2A2.jpg","39","restless",0.6,0.5,0.4,0.716200601973209,"false"
"image-keyboard-response",418,344348,"0.0-4.135-1.135","6j6vyh25p99m6rq",78,"109.csv","","null","resources/maskTrios/BBA2.jpg","null","",NA,NA,NA,NA,""
"image-keyboard-response",419,345561,"0.0-4.135-2.135","6j6vyh25p99m6rq",78,"109.csv","","null","resources/images/fishbone.png","null","",NA,NA,NA,NA,""
"image-keyboard-response",420,345677,"0.0-4.136-0.136","6j6vyh25p99m6rq",78,"109.csv","","115.70000000298023","resources/trios/L4T2A2.jpg","39","restless",0.6,0.5,0.4,0.57897331461511,"false"
"image-keyboard-response",421,346082,"0.0-4.136-1.136","6j6vyh25p99m6rq",78,"109.csv","","null","resources/maskTrios/BBA2.jpg","null","",NA,NA,NA,NA,""
"image-keyboard-response",422,347298,"0.0-4.136-2.136","6j6vyh25p99m6rq",78,"109.csv","","null","resources/images/fishbone.png","null","",NA,NA,NA,NA,""
"image-keyboard-response",423,347344,"0.0-4.137-0.137","6j6vyh25p99m6rq",78,"109.csv","","45.5","resources/trios/L4T2A2.jpg","39","restless",0.6,0.5,0.4,0.23521805232679,"true"
"image-keyboard-response",424,347746,"0.0-4.137-1.137","6j6vyh25p99m6rq",78,"109.csv","","null","resources/maskTrios/BBA2.jpg","null","",NA,NA,NA,NA,""
"image-keyboard-response",425,348950,"0.0-4.137-2.137","6j6vyh25p99m6rq",78,"109.csv","","null","resources/images/coin2.png","null","",NA,NA,NA,NA,""
"image-keyboard-response",426,349044,"0.0-4.138-0.138","6j6vyh25p99m6rq",78,"109.csv","","93.1000000089407","resources/trios/L4T2A2.jpg","39","restless",0.6,0.4,0.4,0.46207410171674,"false"
"image-keyboard-response",427,349448,"0.0-4.138-1.138","6j6vyh25p99m6rq",78,"109.csv","","null","resources/maskTrios/BBA2.jpg","null","",NA,NA,NA,NA,""
"image-keyboard-response",428,350664,"0.0-4.138-2.138","6j6vyh25p99m6rq",78,"109.csv","","null","resources/images/fishbone.png","null","",NA,NA,NA,NA,""
"image-keyboard-response",429,350770,"0.0-4.139-0.139","6j6vyh25p99m6rq",78,"109.csv","","105","resources/trios/L4T2A2.jpg","39","restless",0.6,0.4,0.4,0.234906436520343,"true"
"image-keyboard-response",430,351182,"0.0-4.139-1.139","6j6vyh25p99m6rq",78,"109.csv","","null","resources/maskTrios/BBA2.jpg","null","",NA,NA,NA,NA,""
"image-keyboard-response",431,352388,"0.0-4.139-2.139","6j6vyh25p99m6rq",78,"109.csv","","null","resources/images/coin2.png","null","",NA,NA,NA,NA,""
"image-keyboard-response",432,352406,"0.0-4.140-0.140","6j6vyh25p99m6rq",78,"109.csv","","16.600000008940697","resources/trios/L4T2A2.jpg","39","restless",0.6,0.4,0.4,0.722466421935353,"false"
"image-keyboard-response",433,352818,"0.0-4.140-1.140","6j6vyh25p99m6rq",78,"109.csv","","null","resources/maskTrios/BBA2.jpg","null","",NA,NA,NA,NA,""
"image-keyboard-response",434,354035,"0.0-4.140-2.140","6j6vyh25p99m6rq",78,"109.csv","","null","resources/images/fishbone.png","null","",NA,NA,NA,NA,""
"image-keyboard-response",435,354119,"0.0-4.141-0.141","6j6vyh25p99m6rq",78,"109.csv","","82.5","resources/trios/L4T2A2.jpg","39","restless",0.6,0.4,0.4,0.774083743064265,"false"
"image-keyboard-response",436,354534,"0.0-4.141-1.141","6j6vyh25p99m6rq",78,"109.csv","","null","resources/maskTrios/BBA2.jpg","null","",NA,NA,NA,NA,""
"image-keyboard-response",437,355738,"0.0-4.141-2.141","6j6vyh25p99m6rq",78,"109.csv","","null","resources/images/fishbone.png","null","",NA,NA,NA,NA,""
"image-keyboard-response",438,355845,"0.0-4.142-0.142","6j6vyh25p99m6rq",78,"109.csv","","105.09999999403954","resources/trios/L4T2A2.jpg","39","restless",0.6,0.3,0.4,0.340663394329366,"true"
"image-keyboard-response",439,356251,"0.0-4.142-1.142","6j6vyh25p99m6rq",78,"109.csv","","null","resources/maskTrios/BBA2.jpg","null","",NA,NA,NA,NA,""
"image-keyboard-response",440,357467,"0.0-4.142-2.142","6j6vyh25p99m6rq",78,"109.csv","","null","resources/images/coin2.png","null","",NA,NA,NA,NA,""
"image-keyboard-response",441,357769,"0.0-4.143-0.143","6j6vyh25p99m6rq",78,"109.csv","","301.5","resources/trios/L4T2A2.jpg","39","restless",0.6,0.2,0.4,0.194078638340447,"true"
"image-keyboard-response",442,358186,"0.0-4.143-1.143","6j6vyh25p99m6rq",78,"109.csv","","null","resources/maskTrios/BBA2.jpg","null","",NA,NA,NA,NA,""
"image-keyboard-response",443,359402,"0.0-4.143-2.143","6j6vyh25p99m6rq",78,"109.csv","","null","resources/images/coin2.png","null","",NA,NA,NA,NA,""
"image-keyboard-response",444,364814,"0.0-4.144-0.144","6j6vyh25p99m6rq",78,"109.csv","","5411.4000000059605","resources/trios/L4T2A2.jpg","39","restless",0.7,0.2,0.4,0.691758102538045,"false"
"image-keyboard-response",445,365218,"0.0-4.144-1.144","6j6vyh25p99m6rq",78,"109.csv","","null","resources/maskTrios/BBA2.jpg","null","",NA,NA,NA,NA,""
"image-keyboard-response",446,366422,"0.0-4.144-2.144","6j6vyh25p99m6rq",78,"109.csv","","null","resources/images/fishbone.png","null","",NA,NA,NA,NA,""
"image-keyboard-response",447,366580,"0.0-4.145-0.145","6j6vyh25p99m6rq",78,"109.csv","","156.79999999701977","resources/trios/L4T2A2.jpg","39","restless",0.7,0.1,0.4,0.741517468704841,"false"
"image-keyboard-response",448,366986,"0.0-4.145-1.145","6j6vyh25p99m6rq",78,"109.csv","","null","resources/maskTrios/BBA2.jpg","null","",NA,NA,NA,NA,""
"image-keyboard-response",449,368200,"0.0-4.145-2.145","6j6vyh25p99m6rq",78,"109.csv","","null","resources/images/fishbone.png","null","",NA,NA,NA,NA,""
"image-keyboard-response",450,368401,"0.0-4.146-0.146","6j6vyh25p99m6rq",78,"109.csv","","199.40000000596046","resources/trios/L4T2A2.jpg","39","restless",0.7,0.1,0.4,0.984806838287263,"false"
"image-keyboard-response",451,368817,"0.0-4.146-1.146","6j6vyh25p99m6rq",78,"109.csv","","null","resources/maskTrios/BBA2.jpg","null","",NA,NA,NA,NA,""
"image-keyboard-response",452,370023,"0.0-4.146-2.146","6j6vyh25p99m6rq",78,"109.csv","","null","resources/images/fishbone.png","null","",NA,NA,NA,NA,""
"image-keyboard-response",453,370134,"0.0-4.147-0.147","6j6vyh25p99m6rq",78,"109.csv","","110.3999999910593","resources/trios/L4T2A2.jpg","39","restless",0.7,0.1,0.4,0.0335050801119297,"true"
"image-keyboard-response",454,370536,"0.0-4.147-1.147","6j6vyh25p99m6rq",78,"109.csv","","null","resources/maskTrios/BBA2.jpg","null","",NA,NA,NA,NA,""
"image-keyboard-response",455,371751,"0.0-4.147-2.147","6j6vyh25p99m6rq",78,"109.csv","","null","resources/images/coin2.png","null","",NA,NA,NA,NA,""
"image-keyboard-response",456,371952,"0.0-4.148-0.148","6j6vyh25p99m6rq",78,"109.csv","","199.90000000596046","resources/trios/L4T2A2.jpg","39","restless",0.7,0.1,0.4,0.362461822365487,"true"
"image-keyboard-response",457,372366,"0.0-4.148-1.148","6j6vyh25p99m6rq",78,"109.csv","","null","resources/maskTrios/BBA2.jpg","null","",NA,NA,NA,NA,""
"image-keyboard-response",458,373570,"0.0-4.148-2.148","6j6vyh25p99m6rq",78,"109.csv","","null","resources/images/coin2.png","null","",NA,NA,NA,NA,""
"image-keyboard-response",459,373651,"0.0-4.149-0.149","6j6vyh25p99m6rq",78,"109.csv","","78.8999999910593","resources/trios/L4T2A2.jpg","39","restless",0.8,0.1,0.4,0.27754982831877,"true"
"image-keyboard-response",460,374052,"0.0-4.149-1.149","6j6vyh25p99m6rq",78,"109.csv","","null","resources/maskTrios/BBA2.jpg","null","",NA,NA,NA,NA,""
"image-keyboard-response",461,375268,"0.0-4.149-2.149","6j6vyh25p99m6rq",78,"109.csv","","null","resources/images/coin2.png","null","",NA,NA,NA,NA,""
"image-keyboard-response",462,375318,"0.0-4.150-0.150","6j6vyh25p99m6rq",78,"109.csv","","48.20000000298023","resources/trios/L4T2A2.jpg","39","restless",0.8,0.1,0.4,0.19515471665005,"true"
"image-keyboard-response",463,375735,"0.0-4.150-1.150","6j6vyh25p99m6rq",78,"109.csv","","null","resources/maskTrios/BBA2.jpg","null","",NA,NA,NA,NA,""
"image-keyboard-response",464,376938,"0.0-4.150-2.150","6j6vyh25p99m6rq",78,"109.csv","","null","resources/images/coin2.png","null","",NA,NA,NA,NA,""
"image-keyboard-response",465,376945,"0.0-4.151-0.151","6j6vyh25p99m6rq",78,"109.csv","","6.4000000059604645","resources/trios/L4T2A2.jpg","39","restless",0.8,0.1,0.3,0.271421340419578,"true"
"image-keyboard-response",466,377347,"0.0-4.151-1.151","6j6vyh25p99m6rq",78,"109.csv","","null","resources/maskTrios/BBA2.jpg","null","",NA,NA,NA,NA,""
"image-keyboard-response",467,378554,"0.0-4.151-2.151","6j6vyh25p99m6rq",78,"109.csv","","null","resources/images/coin2.png","null","",NA,NA,NA,NA,""
"image-keyboard-response",468,378716,"0.0-4.152-0.152","6j6vyh25p99m6rq",78,"109.csv","","160.90000000596046","resources/trios/L4T2A2.jpg","39","restless",0.8,0.1,0.4,0.982712983832496,"false"
"image-keyboard-response",469,379121,"0.0-4.152-1.152","6j6vyh25p99m6rq",78,"109.csv","","null","resources/maskTrios/BBA2.jpg","null","",NA,NA,NA,NA,""
"image-keyboard-response",470,380333,"0.0-4.152-2.152","6j6vyh25p99m6rq",78,"109.csv","","null","resources/images/fishbone.png","null","",NA,NA,NA,NA,""
"image-keyboard-response",471,380354,"0.0-4.153-0.153","6j6vyh25p99m6rq",78,"109.csv","","19.400000005960464","resources/trios/L4T2A2.jpg","39","restless",0.7,0.1,0.4,0.356715696564513,"true"
"image-keyboard-response",472,380768,"0.0-4.153-1.153","6j6vyh25p99m6rq",78,"109.csv","","null","resources/maskTrios/BBA2.jpg","null","",NA,NA,NA,NA,""
"image-keyboard-response",473,381969,"0.0-4.153-2.153","6j6vyh25p99m6rq",78,"109.csv","","null","resources/images/coin2.png","null","",NA,NA,NA,NA,""
"image-keyboard-response",474,382171,"0.0-4.154-0.154","6j6vyh25p99m6rq",78,"109.csv","","200.3999999910593","resources/trios/L4T2A2.jpg","39","restless",0.7,0.1,0.4,0.393976962884389,"true"
"image-keyboard-response",475,382581,"0.0-4.154-1.154","6j6vyh25p99m6rq",78,"109.csv","","null","resources/maskTrios/BBA2.jpg","null","",NA,NA,NA,NA,""
"image-keyboard-response",476,383789,"0.0-4.154-2.154","6j6vyh25p99m6rq",78,"109.csv","","null","resources/images/coin2.png","null","",NA,NA,NA,NA,""
"image-keyboard-response",477,383837,"0.0-4.155-0.155","6j6vyh25p99m6rq",78,"109.csv","","47.19999998807907","resources/trios/L4T2A2.jpg","39","restless",0.7,0.1,0.4,0.0724269996405666,"true"
"image-keyboard-response",478,384248,"0.0-4.155-1.155","6j6vyh25p99m6rq",78,"109.csv","","null","resources/maskTrios/BBA2.jpg","null","",NA,NA,NA,NA,""
"image-keyboard-response",479,385451,"0.0-4.155-2.155","6j6vyh25p99m6rq",78,"109.csv","","null","resources/images/coin2.png","null","",NA,NA,NA,NA,""
"image-keyboard-response",480,385652,"0.0-4.156-0.156","6j6vyh25p99m6rq",78,"109.csv","","199.90000000596046","resources/trios/L4T2A2.jpg","39","restless",0.7,0.2,0.4,0.913702154104445,"false"
"image-keyboard-response",481,386068,"0.0-4.156-1.156","6j6vyh25p99m6rq",78,"109.csv","","null","resources/maskTrios/BBA2.jpg","null","",NA,NA,NA,NA,""
"image-keyboard-response",482,387277,"0.0-4.156-2.156","6j6vyh25p99m6rq",78,"109.csv","","null","resources/images/fishbone.png","null","",NA,NA,NA,NA,""
"image-keyboard-response",483,387293,"0.0-4.157-0.157","6j6vyh25p99m6rq",78,"109.csv","","14.400000005960464","resources/trios/L4T2A2.jpg","39","restless",0.7,0.2,0.4,0.531016355608039,"false"
"image-keyboard-response",484,387701,"0.0-4.157-1.157","6j6vyh25p99m6rq",78,"109.csv","","null","resources/maskTrios/BBA2.jpg","null","",NA,NA,NA,NA,""
"image-keyboard-response",485,388902,"0.0-4.157-2.157","6j6vyh25p99m6rq",78,"109.csv","","null","resources/images/fishbone.png","null","",NA,NA,NA,NA,""
"image-keyboard-response",486,388954,"0.0-4.158-0.158","6j6vyh25p99m6rq",78,"109.csv","","50.400000005960464","resources/trios/L4T2A2.jpg","39","restless",0.7,0.2,0.5,0.64972686348355,"false"
"image-keyboard-response",487,389368,"0.0-4.158-1.158","6j6vyh25p99m6rq",78,"109.csv","","null","resources/maskTrios/BBA2.jpg","null","",NA,NA,NA,NA,""
"image-keyboard-response",488,390573,"0.0-4.158-2.158","6j6vyh25p99m6rq",78,"109.csv","","null","resources/images/fishbone.png","null","",NA,NA,NA,NA,""
"image-keyboard-response",489,390756,"0.0-4.159-0.159","6j6vyh25p99m6rq",78,"109.csv","","181.59999999403954","resources/trios/L4T2A2.jpg","39","restless",0.7,0.2,0.5,0.756555830995488,"false"
"image-keyboard-response",490,391164,"0.0-4.159-1.159","6j6vyh25p99m6rq",78,"109.csv","","null","resources/maskTrios/BBA2.jpg","null","",NA,NA,NA,NA,""
"image-keyboard-response",491,392374,"0.0-4.159-2.159","6j6vyh25p99m6rq",78,"109.csv","","null","resources/images/fishbone.png","null","",NA,NA,NA,NA,""
"image-keyboard-response",492,392572,"0.0-4.160-0.160","6j6vyh25p99m6rq",78,"109.csv","","196.5","resources/trios/L4T2A2.jpg","39","restless",0.7,0.2,0.5,0.442355149138294,"true"
"image-keyboard-response",493,392985,"0.0-4.160-1.160","6j6vyh25p99m6rq",78,"109.csv","","null","resources/maskTrios/BBA2.jpg","null","",NA,NA,NA,NA,""
"image-keyboard-response",494,394203,"0.0-4.160-2.160","6j6vyh25p99m6rq",78,"109.csv","","null","resources/images/coin2.png","null","",NA,NA,NA,NA,""
"image-keyboard-response",495,394371,"0.0-4.161-0.161","6j6vyh25p99m6rq",78,"109.csv","","167.59999999403954","resources/trios/L4T2A2.jpg","39","restless",0.7,0.2,0.5,0.363625941186598,"true"
"image-keyboard-response",496,394780,"0.0-4.161-1.161","6j6vyh25p99m6rq",78,"109.csv","","null","resources/maskTrios/BBA2.jpg","null","",NA,NA,NA,NA,""
"image-keyboard-response",497,395985,"0.0-4.161-2.161","6j6vyh25p99m6rq",78,"109.csv","","null","resources/images/coin2.png","null","",NA,NA,NA,NA,""
"image-keyboard-response",498,396001,"0.0-4.162-0.162","6j6vyh25p99m6rq",78,"109.csv","","15.300000011920929","resources/trios/L4T2A2.jpg","39","restless",0.7,0.2,0.5,0.79047581577071,"false"
"image-keyboard-response",499,396418,"0.0-4.162-1.162","6j6vyh25p99m6rq",78,"109.csv","","null","resources/maskTrios/BBA2.jpg","null","",NA,NA,NA,NA,""
"image-keyboard-response",500,397626,"0.0-4.162-2.162","6j6vyh25p99m6rq",78,"109.csv","","null","resources/images/fishbone.png","null","",NA,NA,NA,NA,""
"image-keyboard-response",501,397635,"0.0-4.163-0.163","6j6vyh25p99m6rq",78,"109.csv","","7.399999991059303","resources/trios/L4T2A2.jpg","39","restless",0.8,0.2,0.5,0.0929159791472647,"true"
"image-keyboard-response",502,398052,"0.0-4.163-1.163","6j6vyh25p99m6rq",78,"109.csv","","null","resources/maskTrios/BBA2.jpg","null","",NA,NA,NA,NA,""
"image-keyboard-response",503,399268,"0.0-4.163-2.163","6j6vyh25p99m6rq",78,"109.csv","","null","resources/images/coin2.png","null","",NA,NA,NA,NA,""
"image-keyboard-response",504,399351,"0.0-4.164-0.164","6j6vyh25p99m6rq",78,"109.csv","","81.70000000298023","resources/trios/L4T2A2.jpg","39","restless",0.8,0.2,0.5,0.852918236584544,"false"
"image-keyboard-response",505,399766,"0.0-4.164-1.164","6j6vyh25p99m6rq",78,"109.csv","","null","resources/maskTrios/BBA2.jpg","null","",NA,NA,NA,NA,""
"image-keyboard-response",506,400969,"0.0-4.164-2.164","6j6vyh25p99m6rq",78,"109.csv","","null","resources/images/fishbone.png","null","",NA,NA,NA,NA,""
"image-keyboard-response",507,401261,"0.0-4.165-0.165","6j6vyh25p99m6rq",78,"109.csv","","290.70000000298023","resources/trios/L4T2A2.jpg","39","restless",0.8,0.3,0.5,0.425835066397916,"true"
"image-keyboard-response",508,401668,"0.0-4.165-1.165","6j6vyh25p99m6rq",78,"109.csv","","null","resources/maskTrios/BBA2.jpg","null","",NA,NA,NA,NA,""
"image-keyboard-response",509,402871,"0.0-4.165-2.165","6j6vyh25p99m6rq",78,"109.csv","","null","resources/images/coin2.png","null","",NA,NA,NA,NA,""
"image-keyboard-response",510,402989,"0.0-4.166-0.166","6j6vyh25p99m6rq",78,"109.csv","","116.70000000298023","resources/trios/L4T2A2.jpg","39","restless",0.8,0.3,0.5,0.0402498811123635,"true"
"image-keyboard-response",511,403401,"0.0-4.166-1.166","6j6vyh25p99m6rq",78,"109.csv","","null","resources/maskTrios/BBA2.jpg","null","",NA,NA,NA,NA,""
"image-keyboard-response",512,404611,"0.0-4.166-2.166","6j6vyh25p99m6rq",78,"109.csv","","null","resources/images/coin2.png","null","",NA,NA,NA,NA,""
"image-keyboard-response",513,404695,"0.0-4.167-0.167","6j6vyh25p99m6rq",78,"109.csv","","83.1000000089407","resources/trios/L4T2A2.jpg","39","restless",0.8,0.3,0.5,0.53897064599681,"false"
"image-keyboard-response",514,405101,"0.0-4.167-1.167","6j6vyh25p99m6rq",78,"109.csv","","null","resources/maskTrios/BBA2.jpg","null","",NA,NA,NA,NA,""
"image-keyboard-response",515,406303,"0.0-4.167-2.167","6j6vyh25p99m6rq",78,"109.csv","","null","resources/images/fishbone.png","null","",NA,NA,NA,NA,""
"image-keyboard-response",516,406495,"0.0-4.168-0.168","6j6vyh25p99m6rq",78,"109.csv","","190.8999999910593","resources/trios/L4T2A2.jpg","39","restless",0.9,0.3,0.5,0.0968533701396488,"true"
"image-keyboard-response",517,406901,"0.0-4.168-1.168","6j6vyh25p99m6rq",78,"109.csv","","null","resources/maskTrios/BBA2.jpg","null","",NA,NA,NA,NA,""
"image-keyboard-response",518,408118,"0.0-4.168-2.168","6j6vyh25p99m6rq",78,"109.csv","","null","resources/images/coin2.png","null","",NA,NA,NA,NA,""
"image-keyboard-response",519,408294,"0.0-4.169-0.169","6j6vyh25p99m6rq",78,"109.csv","","174.5","resources/trios/L4T2A2.jpg","39","restless",0.9,0.3,0.5,0.416188554938277,"true"
"image-keyboard-response",520,408701,"0.0-4.169-1.169","6j6vyh25p99m6rq",78,"109.csv","","null","resources/maskTrios/BBA2.jpg","null","",NA,NA,NA,NA,""
"image-keyboard-response",521,409903,"0.0-4.169-2.169","6j6vyh25p99m6rq",78,"109.csv","","null","resources/images/coin2.png","null","",NA,NA,NA,NA,""
"image-keyboard-response",522,409930,"0.0-4.170-0.170","6j6vyh25p99m6rq",78,"109.csv","","25.69999998807907","resources/trios/L4T2A2.jpg","39","restless",0.9,0.3,0.5,0.210438199786155,"true"
"image-keyboard-response",523,410336,"0.0-4.170-1.170","6j6vyh25p99m6rq",78,"109.csv","","null","resources/maskTrios/BBA2.jpg","null","",NA,NA,NA,NA,""
"image-keyboard-response",524,411538,"0.0-4.170-2.170","6j6vyh25p99m6rq",78,"109.csv","","null","resources/images/coin2.png","null","",NA,NA,NA,NA,""
"image-keyboard-response",525,411588,"0.0-4.171-0.171","6j6vyh25p99m6rq",78,"109.csv","","49.8999999910593","resources/trios/L4T2A2.jpg","39","restless",0.8,0.3,0.5,0.00475372685388775,"true"
"image-keyboard-response",526,412001,"0.0-4.171-1.171","6j6vyh25p99m6rq",78,"109.csv","","null","resources/maskTrios/BBA2.jpg","null","",NA,NA,NA,NA,""
"image-keyboard-response",527,413203,"0.0-4.171-2.171","6j6vyh25p99m6rq",78,"109.csv","","null","resources/images/coin2.png","null","",NA,NA,NA,NA,""
"image-keyboard-response",528,413388,"0.0-4.172-0.172","6j6vyh25p99m6rq",78,"109.csv","","184.29999999701977","resources/trios/L4T2A2.jpg","39","restless",0.8,0.3,0.5,0.951245530614083,"false"
"image-keyboard-response",529,413800,"0.0-4.172-1.172","6j6vyh25p99m6rq",78,"109.csv","","null","resources/maskTrios/BBA2.jpg","null","",NA,NA,NA,NA,""
"image-keyboard-response",530,415002,"0.0-4.172-2.172","6j6vyh25p99m6rq",78,"109.csv","","null","resources/images/fishbone.png","null","",NA,NA,NA,NA,""
"image-keyboard-response",531,415035,"0.0-4.173-0.173","6j6vyh25p99m6rq",78,"109.csv","","31.299999997019768","resources/trios/L4T2A2.jpg","39","restless",0.8,0.3,0.6,0.738825934213467,"false"
"image-keyboard-response",532,415438,"0.0-4.173-1.173","6j6vyh25p99m6rq",78,"109.csv","","null","resources/maskTrios/BBA2.jpg","null","",NA,NA,NA,NA,""
"image-keyboard-response",533,416653,"0.0-4.173-2.173","6j6vyh25p99m6rq",78,"109.csv","","null","resources/images/fishbone.png","null","",NA,NA,NA,NA,""
"image-keyboard-response",534,416661,"0.0-4.174-0.174","6j6vyh25p99m6rq",78,"109.csv","","7.0999999940395355","resources/trios/L4T2A2.jpg","39","restless",0.7,0.3,0.6,0.471162922334867,"true"
"image-keyboard-response",535,417069,"0.0-4.174-1.174","6j6vyh25p99m6rq",78,"109.csv","","null","resources/maskTrios/BBA2.jpg","null","",NA,NA,NA,NA,""
"image-keyboard-response",536,418285,"0.0-4.174-2.174","6j6vyh25p99m6rq",78,"109.csv","","null","resources/images/coin2.png","null","",NA,NA,NA,NA,""
"image-keyboard-response",537,418445,"0.0-4.175-0.175","6j6vyh25p99m6rq",78,"109.csv","","159.20000000298023","resources/trios/L4T2A2.jpg","39","restless",0.7,0.3,0.6,0.0774773996316902,"true"
"image-keyboard-response",538,418851,"0.0-4.175-1.175","6j6vyh25p99m6rq",78,"109.csv","","null","resources/maskTrios/BBA2.jpg","null","",NA,NA,NA,NA,""
"image-keyboard-response",539,420068,"0.0-4.175-2.175","6j6vyh25p99m6rq",78,"109.csv","","null","resources/images/coin2.png","null","",NA,NA,NA,NA,""
"image-keyboard-response",540,420174,"0.0-4.176-0.176","6j6vyh25p99m6rq",78,"109.csv","","105.30000001192093","resources/trios/L4T2A2.jpg","39","restless",0.7,0.3,0.6,0.691694888553345,"false"
"image-keyboard-response",541,420585,"0.0-4.176-1.176","6j6vyh25p99m6rq",78,"109.csv","","null","resources/maskTrios/BBA2.jpg","null","",NA,NA,NA,NA,""
"image-keyboard-response",542,421797,"0.0-4.176-2.176","6j6vyh25p99m6rq",78,"109.csv","","null","resources/images/fishbone.png","null","",NA,NA,NA,NA,""
"image-keyboard-response",543,421808,"0.0-4.177-0.177","6j6vyh25p99m6rq",78,"109.csv","","10.599999994039536","resources/trios/L4T2A2.jpg","39","restless",0.7,0.3,0.5,0.882868541303825,"false"
"image-keyboard-response",544,422217,"0.0-4.177-1.177","6j6vyh25p99m6rq",78,"109.csv","","null","resources/maskTrios/BBA2.jpg","null","",NA,NA,NA,NA,""
"image-keyboard-response",545,423426,"0.0-4.177-2.177","6j6vyh25p99m6rq",78,"109.csv","","null","resources/images/fishbone.png","null","",NA,NA,NA,NA,""
"image-keyboard-response",546,423634,"0.0-4.178-0.178","6j6vyh25p99m6rq",78,"109.csv","","206.29999999701977","resources/trios/L4T2A2.jpg","39","restless",0.7,0.3,0.5,0.789055703678908,"false"
"image-keyboard-response",547,424050,"0.0-4.178-1.178","6j6vyh25p99m6rq",78,"109.csv","","null","resources/maskTrios/BBA2.jpg","null","",NA,NA,NA,NA,""
"image-keyboard-response",548,425251,"0.0-4.178-2.178","6j6vyh25p99m6rq",78,"109.csv","","null","resources/images/fishbone.png","null","",NA,NA,NA,NA,""
"image-keyboard-response",549,425330,"0.0-4.179-0.179","6j6vyh25p99m6rq",78,"109.csv","","77.30000001192093","resources/trios/L4T2A2.jpg","39","restless",0.7,0.3,0.5,0.755399456803756,"false"
"image-keyboard-response",550,425734,"0.0-4.179-1.179","6j6vyh25p99m6rq",78,"109.csv","","null","resources/maskTrios/BBA2.jpg","null","",NA,NA,NA,NA,""
"image-keyboard-response",551,426945,"0.0-4.179-2.179","6j6vyh25p99m6rq",78,"109.csv","","null","resources/images/fishbone.png","null","",NA,NA,NA,NA,""
"image-keyboard-response",552,429954,"0.0-4.180-0.180","6j6vyh25p99m6rq",78,"109.csv","","3007.699999988079","resources/trios/L4T2A2.jpg","39","restless",0.7,0.3,0.5,0.906466758550961,"false"
"image-keyboard-response",553,430367,"0.0-4.180-1.180","6j6vyh25p99m6rq",78,"109.csv","","null","resources/maskTrios/BBA2.jpg","null","",NA,NA,NA,NA,""
"image-keyboard-response",554,431574,"0.0-4.180-2.180","6j6vyh25p99m6rq",78,"109.csv","","null","resources/images/fishbone.png","null","",NA,NA,NA,NA,""
"image-keyboard-response",555,431603,"0.0-4.181-0.181","6j6vyh25p99m6rq",78,"109.csv","","27.5","resources/trios/L4T2A2.jpg","39","restless",0.7,0.4,0.5,0.379990514490899,"true"
"image-keyboard-response",556,432018,"0.0-4.181-1.181","6j6vyh25p99m6rq",78,"109.csv","","null","resources/maskTrios/BBA2.jpg","null","",NA,NA,NA,NA,""
"image-keyboard-response",557,433219,"0.0-4.181-2.181","6j6vyh25p99m6rq",78,"109.csv","","null","resources/images/coin2.png","null","",NA,NA,NA,NA,""
"image-keyboard-response",558,433313,"0.0-4.182-0.182","6j6vyh25p99m6rq",78,"109.csv","","93","resources/trios/L4T2A2.jpg","39","restless",0.7,0.4,0.5,0.694468746224863,"false"
"image-keyboard-response",559,433717,"0.0-4.182-1.182","6j6vyh25p99m6rq",78,"109.csv","","null","resources/maskTrios/BBA2.jpg","null","",NA,NA,NA,NA,""
"image-keyboard-response",560,434934,"0.0-4.182-2.182","6j6vyh25p99m6rq",78,"109.csv","","null","resources/images/fishbone.png","null","",NA,NA,NA,NA,""
"image-keyboard-response",561,435000,"0.0-4.183-0.183","6j6vyh25p99m6rq",78,"109.csv","","65.5","resources/trios/L4T2A2.jpg","39","restless",0.7,0.4,0.5,0.716951849138619,"false"
"image-keyboard-response",562,435417,"0.0-4.183-1.183","6j6vyh25p99m6rq",78,"109.csv","","null","resources/maskTrios/BBA2.jpg","null","",NA,NA,NA,NA,""
"image-keyboard-response",563,436620,"0.0-4.183-2.183","6j6vyh25p99m6rq",78,"109.csv","","null","resources/images/fishbone.png","null","",NA,NA,NA,NA,""
"image-keyboard-response",564,436705,"0.0-4.184-0.184","6j6vyh25p99m6rq",78,"109.csv","","84.70000000298023","resources/trios/L4T2A2.jpg","39","restless",0.7,0.4,0.5,0.603886108603632,"false"
"image-keyboard-response",565,437117,"0.0-4.184-1.184","6j6vyh25p99m6rq",78,"109.csv","","null","resources/maskTrios/BBA2.jpg","null","",NA,NA,NA,NA,""
"image-keyboard-response",566,438334,"0.0-4.184-2.184","6j6vyh25p99m6rq",78,"109.csv","","null","resources/images/fishbone.png","null","",NA,NA,NA,NA,""
"image-keyboard-response",567,438370,"0.0-4.185-0.185","6j6vyh25p99m6rq",78,"109.csv","","34.69999998807907","resources/trios/L4T2A2.jpg","39","restless",0.6,0.4,0.5,0.850387422585564,"false"
"image-keyboard-response",568,438786,"0.0-4.185-1.185","6j6vyh25p99m6rq",78,"109.csv","","null","resources/maskTrios/BBA2.jpg","null","",NA,NA,NA,NA,""
"image-keyboard-response",569,440002,"0.0-4.185-2.185","6j6vyh25p99m6rq",78,"109.csv","","null","resources/images/fishbone.png","null","",NA,NA,NA,NA,""
"image-keyboard-response",570,440178,"0.0-4.186-0.186","6j6vyh25p99m6rq",78,"109.csv","","175","resources/trios/L4T2A2.jpg","39","restless",0.6,0.4,0.5,0.421042765183352,"true"
"image-keyboard-response",571,440583,"0.0-4.186-1.186","6j6vyh25p99m6rq",78,"109.csv","","null","resources/maskTrios/BBA2.jpg","null","",NA,NA,NA,NA,""
"image-keyboard-response",572,441787,"0.0-4.186-2.186","6j6vyh25p99m6rq",78,"109.csv","","null","resources/images/coin2.png","null","",NA,NA,NA,NA,""
"image-keyboard-response",573,441880,"0.0-4.187-0.187","6j6vyh25p99m6rq",78,"109.csv","","92.5","resources/trios/L4T2A2.jpg","39","restless",0.6,0.4,0.5,0.847311991195528,"false"
"image-keyboard-response",574,442285,"0.0-4.187-1.187","6j6vyh25p99m6rq",78,"109.csv","","null","resources/maskTrios/BBA2.jpg","null","",NA,NA,NA,NA,""
"image-keyboard-response",575,443489,"0.0-4.187-2.187","6j6vyh25p99m6rq",78,"109.csv","","null","resources/images/fishbone.png","null","",NA,NA,NA,NA,""
"image-keyboard-response",576,443726,"0.0-4.188-0.188","6j6vyh25p99m6rq",78,"109.csv","","236.3999999910593","resources/trios/L4T2A2.jpg","39","restless",0.6,0.4,0.5,0.184046236596525,"true"
"image-keyboard-response",577,444133,"0.0-4.188-1.188","6j6vyh25p99m6rq",78,"109.csv","","null","resources/maskTrios/BBA2.jpg","null","",NA,NA,NA,NA,""
"image-keyboard-response",578,445336,"0.0-4.188-2.188","6j6vyh25p99m6rq",78,"109.csv","","null","resources/images/coin2.png","null","",NA,NA,NA,NA,""
"image-keyboard-response",579,445483,"0.0-4.189-0.189","6j6vyh25p99m6rq",78,"109.csv","","145.40000000596046","resources/trios/L4T2A2.jpg","39","restless",0.6,0.4,0.5,0.148988489130635,"true"
"image-keyboard-response",580,445884,"0.0-4.189-1.189","6j6vyh25p99m6rq",78,"109.csv","","null","resources/maskTrios/BBA2.jpg","null","",NA,NA,NA,NA,""
"image-keyboard-response",581,447086,"0.0-4.189-2.189","6j6vyh25p99m6rq",78,"109.csv","","null","resources/images/coin2.png","null","",NA,NA,NA,NA,""
"image-keyboard-response",582,447106,"0.0-4.190-0.190","6j6vyh25p99m6rq",78,"109.csv","","18.5","resources/trios/L4T2A2.jpg","39","restless",0.6,0.4,0.5,0.594262785041419,"false"
"image-keyboard-response",583,447519,"0.0-4.190-1.190","6j6vyh25p99m6rq",78,"109.csv","","null","resources/maskTrios/BBA2.jpg","null","",NA,NA,NA,NA,""
"image-keyboard-response",584,448723,"0.0-4.190-2.190","6j6vyh25p99m6rq",78,"109.csv","","null","resources/images/fishbone.png","null","",NA,NA,NA,NA,""
"image-keyboard-response",585,451419,"0.0-4.191-0.191","6j6vyh25p99m6rq",78,"109.csv","","2695.1000000089407","resources/trios/L4T2A2.jpg","39","restless",0.6,0.3,0.5,0.118551568403626,"true"
"image-keyboard-response",586,451834,"0.0-4.191-1.191","6j6vyh25p99m6rq",78,"109.csv","","null","resources/maskTrios/BBA2.jpg","null","",NA,NA,NA,NA,""
"image-keyboard-response",587,453051,"0.0-4.191-2.191","6j6vyh25p99m6rq",78,"109.csv","","null","resources/images/coin2.png","null","",NA,NA,NA,NA,""
"image-keyboard-response",588,453103,"0.0-4.192-0.192","6j6vyh25p99m6rq",78,"109.csv","","50.70000000298023","resources/trios/L4T2A2.jpg","39","restless",0.6,0.3,0.5,0.956736751965022,"false"
"image-keyboard-response",589,453516,"0.0-4.192-1.192","6j6vyh25p99m6rq",78,"109.csv","","null","resources/maskTrios/BBA2.jpg","null","",NA,NA,NA,NA,""
"image-keyboard-response",590,454720,"0.0-4.192-2.192","6j6vyh25p99m6rq",78,"109.csv","","null","resources/images/fishbone.png","null","",NA,NA,NA,NA,""
"image-keyboard-response",591,454754,"0.0-4.193-0.193","6j6vyh25p99m6rq",78,"109.csv","","32.70000000298023","resources/trios/L4T2A2.jpg","39","restless",0.6,0.3,0.5,0.535502878533378,"false"
"image-keyboard-response",592,455168,"0.0-4.193-1.193","6j6vyh25p99m6rq",78,"109.csv","","null","resources/maskTrios/BBA2.jpg","null","",NA,NA,NA,NA,""
"image-keyboard-response",593,456371,"0.0-4.193-2.193","6j6vyh25p99m6rq",78,"109.csv","","null","resources/images/fishbone.png","null","",NA,NA,NA,NA,""
"image-keyboard-response",594,456445,"0.0-4.194-0.194","6j6vyh25p99m6rq",78,"109.csv","","72.90000000596046","resources/trios/L4T2A2.jpg","39","restless",0.6,0.2,0.6,0.158902369978225,"true"
"image-keyboard-response",595,456850,"0.0-4.194-1.194","6j6vyh25p99m6rq",78,"109.csv","","null","resources/maskTrios/BBA2.jpg","null","",NA,NA,NA,NA,""
"image-keyboard-response",596,458052,"0.0-4.194-2.194","6j6vyh25p99m6rq",78,"109.csv","","null","resources/images/coin2.png","null","",NA,NA,NA,NA,""
"image-keyboard-response",597,458056,"0.0-4.195-0.195","6j6vyh25p99m6rq",78,"109.csv","","3.2000000029802322","resources/trios/L4T2A2.jpg","39","restless",0.6,0.2,0.6,0.256284332965379,"true"
"image-keyboard-response",598,458468,"0.0-4.195-1.195","6j6vyh25p99m6rq",78,"109.csv","","null","resources/maskTrios/BBA2.jpg","null","",NA,NA,NA,NA,""
"image-keyboard-response",599,459670,"0.0-4.195-2.195","6j6vyh25p99m6rq",78,"109.csv","","null","resources/images/coin2.png","null","",NA,NA,NA,NA,""
"image-keyboard-response",600,459873,"0.0-4.196-0.196","6j6vyh25p99m6rq",78,"109.csv","","201.1000000089407","resources/trios/L4T2A2.jpg","39","restless",0.7,0.2,0.6,0.59729089543582,"true"
"image-keyboard-response",601,460283,"0.0-4.196-1.196","6j6vyh25p99m6rq",78,"109.csv","","null","resources/maskTrios/BBA2.jpg","null","",NA,NA,NA,NA,""
"image-keyboard-response",602,461490,"0.0-4.196-2.196","6j6vyh25p99m6rq",78,"109.csv","","null","resources/images/coin2.png","null","",NA,NA,NA,NA,""
"image-keyboard-response",603,461686,"0.0-4.197-0.197","6j6vyh25p99m6rq",78,"109.csv","","195.09999999403954","resources/trios/L4T2A2.jpg","39","restless",0.7,0.2,0.6,0.4184073571913,"true"
"image-keyboard-response",604,462095,"0.0-4.197-1.197","6j6vyh25p99m6rq",78,"109.csv","","null","resources/maskTrios/BBA2.jpg","null","",NA,NA,NA,NA,""
"image-keyboard-response",605,463303,"0.0-4.197-2.197","6j6vyh25p99m6rq",78,"109.csv","","null","resources/images/coin2.png","null","",NA,NA,NA,NA,""
"image-keyboard-response",606,463366,"0.0-4.198-0.198","6j6vyh25p99m6rq",78,"109.csv","","61.599999994039536","resources/trios/L4T2A2.jpg","39","restless",0.7,0.2,0.6,0.177432683306592,"true"
"image-keyboard-response",607,463783,"0.0-4.198-1.198","6j6vyh25p99m6rq",78,"109.csv","","null","resources/maskTrios/BBA2.jpg","null","",NA,NA,NA,NA,""
"image-keyboard-response",608,464988,"0.0-4.198-2.198","6j6vyh25p99m6rq",78,"109.csv","","null","resources/images/coin2.png","null","",NA,NA,NA,NA,""
"image-keyboard-response",609,465062,"0.0-4.199-0.199","6j6vyh25p99m6rq",78,"109.csv","","73.29999999701977","resources/trios/L4T2A2.jpg","39","restless",0.7,0.2,0.6,0.591215703933502,"true"
"image-keyboard-response",610,465467,"0.0-4.199-1.199","6j6vyh25p99m6rq",78,"109.csv","","null","resources/maskTrios/BBA2.jpg","null","",NA,NA,NA,NA,""
"image-keyboard-response",611,466670,"0.0-4.199-2.199","6j6vyh25p99m6rq",78,"109.csv","","null","resources/images/coin2.png","null","",NA,NA,NA,NA,""
