"trial_type","trial_index","time_elapsed","internal_node_id","subject","participantCode","walkNumber","success","rt","stimulus","key_press","test_part","leftProb","midProb","rightProb","generatedNum","correct"
"pavlovia",0,1068,"0.0-0.0","c3vvcyfv2mb2ms3",682,"107.csv","","","","","",NA,NA,NA,NA,""
"fullscreen",1,7795,"0.0-1.0","c3vvcyfv2mb2ms3",682,"107.csv","true","","","","",NA,NA,NA,NA,""
"survey-html-form",2,32204,"0.0-2.0","c3vvcyfv2mb2ms3",682,"107.csv","","24406.700000047684","","","",NA,NA,NA,NA,""
"image-keyboard-response",3,43269,"0.0-3.0-0.0","c3vvcyfv2mb2ms3",682,"107.csv","","11063.700000047684","resources/images/parrot_nobg.png","13","",NA,NA,NA,NA,""
"image-keyboard-response",4,46283,"0.0-3.0-1.0","c3vvcyfv2mb2ms3",682,"107.csv","","null","resources/image_sets/111.png","null","",NA,NA,NA,NA,""
"image-keyboard-response",5,51166,"0.0-3.0-2.0","c3vvcyfv2mb2ms3",682,"107.csv","","4881.899999976158","resources/image_sets/left_highlight.png","37","",NA,NA,NA,NA,""
"image-keyboard-response",6,54241,"0.0-3.0-3.0","c3vvcyfv2mb2ms3",682,"107.csv","","3068.0999999046326","resources/image_sets/mid_highlight.png","38","",NA,NA,NA,NA,""
"image-keyboard-response",7,57563,"0.0-3.0-4.0","c3vvcyfv2mb2ms3",682,"107.csv","","3321.600000023842","resources/image_sets/right_highlight.png","39","",NA,NA,NA,NA,""
"image-keyboard-response",8,62621,"0.0-3.0-5.0","c3vvcyfv2mb2ms3",682,"107.csv","","5057","resources/image_sets/111.png","13","",NA,NA,NA,NA,""
"image-keyboard-response",9,64181,"0.0-3.0-6.0","c3vvcyfv2mb2ms3",682,"107.csv","","1559","resources/images/coin2.png","13","",NA,NA,NA,NA,""
"image-keyboard-response",10,65866,"0.0-3.0-7.0","c3vvcyfv2mb2ms3",682,"107.csv","","1684","resources/images/fishbone.png","13","",NA,NA,NA,NA,""
"html-keyboard-response",11,68951,"0.0-3.0-8.0","c3vvcyfv2mb2ms3",682,"107.csv","","3084.5","<p>You can track your coin total on the top right of your screen. </p><p>At the end of your journey you will be directed to a survey, so please click on the link before exiting the task</p><p>Press Enter to begin</p>","13","",NA,NA,NA,NA,""
"image-keyboard-response",12,70573,"0.0-4.0-0.0","c3vvcyfv2mb2ms3",682,"107.csv","","1620.6999999284744","resources/trios/L4T4A2.jpg","38","restless",0.9,0.7,0.3,0.160568383755564,"true"
"image-keyboard-response",13,70987,"0.0-4.0-1.0","c3vvcyfv2mb2ms3",682,"107.csv","","null","resources/maskTrios/BT4B.jpg","null","",NA,NA,NA,NA,""
"image-keyboard-response",14,72207,"0.0-4.0-2.0","c3vvcyfv2mb2ms3",682,"107.csv","","null","resources/images/coin2.png","null","",NA,NA,NA,NA,""
"image-keyboard-response",15,74199,"0.0-4.1-0.1","c3vvcyfv2mb2ms3",682,"107.csv","","1990.1000000238419","resources/trios/L4T4A2.jpg","39","restless",0.9,0.7,0.3,0.345807654579434,"false"
"image-keyboard-response",16,74605,"0.0-4.1-1.1","c3vvcyfv2mb2ms3",682,"107.csv","","null","resources/maskTrios/BBA2.jpg","null","",NA,NA,NA,NA,""
"image-keyboard-response",17,75807,"0.0-4.1-2.1","c3vvcyfv2mb2ms3",682,"107.csv","","null","resources/images/fishbone.png","null","",NA,NA,NA,NA,""
"image-keyboard-response",18,76516,"0.0-4.2-0.2","c3vvcyfv2mb2ms3",682,"107.csv","","707.1000000238419","resources/trios/L4T4A2.jpg","38","restless",0.9,0.7,0.3,0.0865900436620322,"true"
"image-keyboard-response",19,76919,"0.0-4.2-1.2","c3vvcyfv2mb2ms3",682,"107.csv","","null","resources/maskTrios/BT4B.jpg","null","",NA,NA,NA,NA,""
"image-keyboard-response",20,78123,"0.0-4.2-2.2","c3vvcyfv2mb2ms3",682,"107.csv","","null","resources/images/coin2.png","null","",NA,NA,NA,NA,""
"image-keyboard-response",21,78845,"0.0-4.3-0.3","c3vvcyfv2mb2ms3",682,"107.csv","","720.6000000238419","resources/trios/L4T4A2.jpg","37","restless",0.9,0.7,0.3,0.824357542997854,"true"
"image-keyboard-response",22,79253,"0.0-4.3-1.3","c3vvcyfv2mb2ms3",682,"107.csv","","null","resources/maskTrios/L4BB.jpg","null","",NA,NA,NA,NA,""
"image-keyboard-response",23,80457,"0.0-4.3-2.3","c3vvcyfv2mb2ms3",682,"107.csv","","null","resources/images/coin2.png","null","",NA,NA,NA,NA,""
"image-keyboard-response",24,81059,"0.0-4.4-0.4","c3vvcyfv2mb2ms3",682,"107.csv","","600.5999999046326","resources/trios/L4T4A2.jpg","38","restless",0.8,0.7,0.3,0.322837838741475,"true"
"image-keyboard-response",25,81470,"0.0-4.4-1.4","c3vvcyfv2mb2ms3",682,"107.csv","","null","resources/maskTrios/BT4B.jpg","null","",NA,NA,NA,NA,""
"image-keyboard-response",26,82673,"0.0-4.4-2.4","c3vvcyfv2mb2ms3",682,"107.csv","","null","resources/images/coin2.png","null","",NA,NA,NA,NA,""
"image-keyboard-response",27,83515,"0.0-4.5-0.5","c3vvcyfv2mb2ms3",682,"107.csv","","839.8999999761581","resources/trios/L4T4A2.jpg","38","restless",0.8,0.7,0.3,0.331572564137588,"true"
"image-keyboard-response",28,83921,"0.0-4.5-1.5","c3vvcyfv2mb2ms3",682,"107.csv","","null","resources/maskTrios/BT4B.jpg","null","",NA,NA,NA,NA,""
"image-keyboard-response",29,85124,"0.0-4.5-2.5","c3vvcyfv2mb2ms3",682,"107.csv","","null","resources/images/coin2.png","null","",NA,NA,NA,NA,""
"image-keyboard-response",30,85447,"0.0-4.6-0.6","c3vvcyfv2mb2ms3",682,"107.csv","","321.5","resources/trios/L4T4A2.jpg","38","restless",0.8,0.7,0.3,0.00237253068282817,"true"
"image-keyboard-response",31,85854,"0.0-4.6-1.6","c3vvcyfv2mb2ms3",682,"107.csv","","null","resources/maskTrios/BT4B.jpg","null","",NA,NA,NA,NA,""
"image-keyboard-response",32,87072,"0.0-4.6-2.6","c3vvcyfv2mb2ms3",682,"107.csv","","null","resources/images/coin2.png","null","",NA,NA,NA,NA,""
"image-keyboard-response",33,87445,"0.0-4.7-0.7","c3vvcyfv2mb2ms3",682,"107.csv","","372.40000009536743","resources/trios/L4T4A2.jpg","38","restless",0.8,0.7,0.3,0.856335892444688,"false"
"image-keyboard-response",34,87855,"0.0-4.7-1.7","c3vvcyfv2mb2ms3",682,"107.csv","","null","resources/maskTrios/BT4B.jpg","null","",NA,NA,NA,NA,""
"image-keyboard-response",35,89057,"0.0-4.7-2.7","c3vvcyfv2mb2ms3",682,"107.csv","","null","resources/images/fishbone.png","null","",NA,NA,NA,NA,""
"image-keyboard-response",36,89624,"0.0-4.8-0.8","c3vvcyfv2mb2ms3",682,"107.csv","","565.5","resources/trios/L4T4A2.jpg","37","restless",0.8,0.7,0.3,0.537092234462076,"true"
"image-keyboard-response",37,90036,"0.0-4.8-1.8","c3vvcyfv2mb2ms3",682,"107.csv","","null","resources/maskTrios/L4BB.jpg","null","",NA,NA,NA,NA,""
"image-keyboard-response",38,91239,"0.0-4.8-2.8","c3vvcyfv2mb2ms3",682,"107.csv","","null","resources/images/coin2.png","null","",NA,NA,NA,NA,""
"image-keyboard-response",39,91717,"0.0-4.9-0.9","c3vvcyfv2mb2ms3",682,"107.csv","","476.89999997615814","resources/trios/L4T4A2.jpg","37","restless",0.8,0.7,0.2,0.902392156330315,"false"
"image-keyboard-response",40,92122,"0.0-4.9-1.9","c3vvcyfv2mb2ms3",682,"107.csv","","null","resources/maskTrios/L4BB.jpg","null","",NA,NA,NA,NA,""
"image-keyboard-response",41,93324,"0.0-4.9-2.9","c3vvcyfv2mb2ms3",682,"107.csv","","null","resources/images/fishbone.png","null","",NA,NA,NA,NA,""
"image-keyboard-response",42,93729,"0.0-4.10-0.10","c3vvcyfv2mb2ms3",682,"107.csv","","404","resources/trios/L4T4A2.jpg","39","restless",0.8,0.7,0.2,0.918296300760647,"false"
"image-keyboard-response",43,94138,"0.0-4.10-1.10","c3vvcyfv2mb2ms3",682,"107.csv","","null","resources/maskTrios/BBA2.jpg","null","",NA,NA,NA,NA,""
"image-keyboard-response",44,95355,"0.0-4.10-2.10","c3vvcyfv2mb2ms3",682,"107.csv","","null","resources/images/fishbone.png","null","",NA,NA,NA,NA,""
"image-keyboard-response",45,95711,"0.0-4.11-0.11","c3vvcyfv2mb2ms3",682,"107.csv","","354.89999997615814","resources/trios/L4T4A2.jpg","39","restless",0.8,0.7,0.2,0.230338131109947,"false"
"image-keyboard-response",46,96121,"0.0-4.11-1.11","c3vvcyfv2mb2ms3",682,"107.csv","","null","resources/maskTrios/BBA2.jpg","null","",NA,NA,NA,NA,""
"image-keyboard-response",47,97324,"0.0-4.11-2.11","c3vvcyfv2mb2ms3",682,"107.csv","","null","resources/images/fishbone.png","null","",NA,NA,NA,NA,""
"image-keyboard-response",48,97608,"0.0-4.12-0.12","c3vvcyfv2mb2ms3",682,"107.csv","","282.39999997615814","resources/trios/L4T4A2.jpg","38","restless",0.8,0.7,0.2,0.726328886407311,"false"
"image-keyboard-response",49,98020,"0.0-4.12-1.12","c3vvcyfv2mb2ms3",682,"107.csv","","null","resources/maskTrios/BT4B.jpg","null","",NA,NA,NA,NA,""
"image-keyboard-response",50,99237,"0.0-4.12-2.12","c3vvcyfv2mb2ms3",682,"107.csv","","null","resources/images/fishbone.png","null","",NA,NA,NA,NA,""
"image-keyboard-response",51,99529,"0.0-4.13-0.13","c3vvcyfv2mb2ms3",682,"107.csv","","291","resources/trios/L4T4A2.jpg","39","restless",0.8,0.7,0.2,0.190546864286848,"true"
"image-keyboard-response",52,99938,"0.0-4.13-1.13","c3vvcyfv2mb2ms3",682,"107.csv","","null","resources/maskTrios/BBA2.jpg","null","",NA,NA,NA,NA,""
"image-keyboard-response",53,101141,"0.0-4.13-2.13","c3vvcyfv2mb2ms3",682,"107.csv","","null","resources/images/coin2.png","null","",NA,NA,NA,NA,""
"image-keyboard-response",54,101655,"0.0-4.14-0.14","c3vvcyfv2mb2ms3",682,"107.csv","","512.8999999761581","resources/trios/L4T4A2.jpg","39","restless",0.8,0.7,0.2,0.887490995045558,"false"
"image-keyboard-response",55,102070,"0.0-4.14-1.14","c3vvcyfv2mb2ms3",682,"107.csv","","null","resources/maskTrios/BBA2.jpg","null","",NA,NA,NA,NA,""
"image-keyboard-response",56,103287,"0.0-4.14-2.14","c3vvcyfv2mb2ms3",682,"107.csv","","null","resources/images/fishbone.png","null","",NA,NA,NA,NA,""
"image-keyboard-response",57,103933,"0.0-4.15-0.15","c3vvcyfv2mb2ms3",682,"107.csv","","645.1000000238419","resources/trios/L4T4A2.jpg","37","restless",0.7,0.7,0.2,0.741421567343707,"false"
"image-keyboard-response",58,104337,"0.0-4.15-1.15","c3vvcyfv2mb2ms3",682,"107.csv","","null","resources/maskTrios/L4BB.jpg","null","",NA,NA,NA,NA,""
"image-keyboard-response",59,105539,"0.0-4.15-2.15","c3vvcyfv2mb2ms3",682,"107.csv","","null","resources/images/fishbone.png","null","",NA,NA,NA,NA,""
"image-keyboard-response",60,105809,"0.0-4.16-0.16","c3vvcyfv2mb2ms3",682,"107.csv","","268.09999990463257","resources/trios/L4T4A2.jpg","38","restless",0.7,0.7,0.2,0.59863286063997,"true"
"image-keyboard-response",61,106221,"0.0-4.16-1.16","c3vvcyfv2mb2ms3",682,"107.csv","","null","resources/maskTrios/BT4B.jpg","null","",NA,NA,NA,NA,""
"image-keyboard-response",62,107438,"0.0-4.16-2.16","c3vvcyfv2mb2ms3",682,"107.csv","","null","resources/images/coin2.png","null","",NA,NA,NA,NA,""
"image-keyboard-response",63,107930,"0.0-4.17-0.17","c3vvcyfv2mb2ms3",682,"107.csv","","490.7000000476837","resources/trios/L4T4A2.jpg","38","restless",0.7,0.7,0.3,0.380396831650031,"true"
"image-keyboard-response",64,108338,"0.0-4.17-1.17","c3vvcyfv2mb2ms3",682,"107.csv","","null","resources/maskTrios/BT4B.jpg","null","",NA,NA,NA,NA,""
"image-keyboard-response",65,109541,"0.0-4.17-2.17","c3vvcyfv2mb2ms3",682,"107.csv","","null","resources/images/coin2.png","null","",NA,NA,NA,NA,""
"image-keyboard-response",66,109924,"0.0-4.18-0.18","c3vvcyfv2mb2ms3",682,"107.csv","","380.89999997615814","resources/trios/L4T4A2.jpg","38","restless",0.7,0.7,0.3,0.79135814067786,"false"
"image-keyboard-response",67,110340,"0.0-4.18-1.18","c3vvcyfv2mb2ms3",682,"107.csv","","null","resources/maskTrios/BT4B.jpg","null","",NA,NA,NA,NA,""
"image-keyboard-response",68,111557,"0.0-4.18-2.18","c3vvcyfv2mb2ms3",682,"107.csv","","null","resources/images/fishbone.png","null","",NA,NA,NA,NA,""
"image-keyboard-response",69,113629,"0.0-4.19-0.19","c3vvcyfv2mb2ms3",682,"107.csv","","2071.0999999046326","resources/trios/L4T4A2.jpg","37","restless",0.7,0.7,0.2,0.467132413418297,"true"
"image-keyboard-response",70,114039,"0.0-4.19-1.19","c3vvcyfv2mb2ms3",682,"107.csv","","null","resources/maskTrios/L4BB.jpg","null","",NA,NA,NA,NA,""
"image-keyboard-response",71,115263,"0.0-4.19-2.19","c3vvcyfv2mb2ms3",682,"107.csv","","null","resources/images/coin2.png","null","",NA,NA,NA,NA,""
"image-keyboard-response",72,116527,"0.0-4.20-0.20","c3vvcyfv2mb2ms3",682,"107.csv","","1263.2000000476837","resources/trios/L4T4A2.jpg","37","restless",0.7,0.6,0.2,0.616273823985914,"true"
"image-keyboard-response",73,116942,"0.0-4.20-1.20","c3vvcyfv2mb2ms3",682,"107.csv","","null","resources/maskTrios/L4BB.jpg","null","",NA,NA,NA,NA,""
"image-keyboard-response",74,118147,"0.0-4.20-2.20","c3vvcyfv2mb2ms3",682,"107.csv","","null","resources/images/coin2.png","null","",NA,NA,NA,NA,""
"image-keyboard-response",75,118964,"0.0-4.21-0.21","c3vvcyfv2mb2ms3",682,"107.csv","","815.6000000238419","resources/trios/L4T4A2.jpg","37","restless",0.6,0.5,0.2,0.567660490562505,"true"
"image-keyboard-response",76,119376,"0.0-4.21-1.21","c3vvcyfv2mb2ms3",682,"107.csv","","null","resources/maskTrios/L4BB.jpg","null","",NA,NA,NA,NA,""
"image-keyboard-response",77,120579,"0.0-4.21-2.21","c3vvcyfv2mb2ms3",682,"107.csv","","null","resources/images/coin2.png","null","",NA,NA,NA,NA,""
"image-keyboard-response",78,121137,"0.0-4.22-0.22","c3vvcyfv2mb2ms3",682,"107.csv","","556.6000000238419","resources/trios/L4T4A2.jpg","37","restless",0.7,0.5,0.3,0.22522439691784,"true"
"image-keyboard-response",79,121544,"0.0-4.22-1.22","c3vvcyfv2mb2ms3",682,"107.csv","","null","resources/maskTrios/L4BB.jpg","null","",NA,NA,NA,NA,""
"image-keyboard-response",80,122746,"0.0-4.22-2.22","c3vvcyfv2mb2ms3",682,"107.csv","","null","resources/images/coin2.png","null","",NA,NA,NA,NA,""
"image-keyboard-response",81,123255,"0.0-4.23-0.23","c3vvcyfv2mb2ms3",682,"107.csv","","508","resources/trios/L4T4A2.jpg","37","restless",0.7,0.5,0.3,0.405693110777809,"true"
"image-keyboard-response",82,123660,"0.0-4.23-1.23","c3vvcyfv2mb2ms3",682,"107.csv","","null","resources/maskTrios/L4BB.jpg","null","",NA,NA,NA,NA,""
"image-keyboard-response",83,124863,"0.0-4.23-2.23","c3vvcyfv2mb2ms3",682,"107.csv","","null","resources/images/coin2.png","null","",NA,NA,NA,NA,""
"image-keyboard-response",84,125480,"0.0-4.24-0.24","c3vvcyfv2mb2ms3",682,"107.csv","","614.8999999761581","resources/trios/L4T4A2.jpg","37","restless",0.7,0.5,0.3,0.252920515607326,"true"
"image-keyboard-response",85,125895,"0.0-4.24-1.24","c3vvcyfv2mb2ms3",682,"107.csv","","null","resources/maskTrios/L4BB.jpg","null","",NA,NA,NA,NA,""
"image-keyboard-response",86,127096,"0.0-4.24-2.24","c3vvcyfv2mb2ms3",682,"107.csv","","null","resources/images/coin2.png","null","",NA,NA,NA,NA,""
"image-keyboard-response",87,127518,"0.0-4.25-0.25","c3vvcyfv2mb2ms3",682,"107.csv","","420.60000002384186","resources/trios/L4T4A2.jpg","37","restless",0.7,0.5,0.3,0.418363007735025,"true"
"image-keyboard-response",88,127926,"0.0-4.25-1.25","c3vvcyfv2mb2ms3",682,"107.csv","","null","resources/maskTrios/L4BB.jpg","null","",NA,NA,NA,NA,""
"image-keyboard-response",89,129128,"0.0-4.25-2.25","c3vvcyfv2mb2ms3",682,"107.csv","","null","resources/images/coin2.png","null","",NA,NA,NA,NA,""
"image-keyboard-response",90,129829,"0.0-4.26-0.26","c3vvcyfv2mb2ms3",682,"107.csv","","698.5","resources/trios/L4T4A2.jpg","37","restless",0.7,0.5,0.3,0.316750078672678,"true"
"image-keyboard-response",91,130243,"0.0-4.26-1.26","c3vvcyfv2mb2ms3",682,"107.csv","","null","resources/maskTrios/L4BB.jpg","null","",NA,NA,NA,NA,""
"image-keyboard-response",92,131445,"0.0-4.26-2.26","c3vvcyfv2mb2ms3",682,"107.csv","","null","resources/images/coin2.png","null","",NA,NA,NA,NA,""
"image-keyboard-response",93,131856,"0.0-4.27-0.27","c3vvcyfv2mb2ms3",682,"107.csv","","409.10000002384186","resources/trios/L4T4A2.jpg","37","restless",0.7,0.5,0.3,0.858303837671301,"false"
"image-keyboard-response",94,132260,"0.0-4.27-1.27","c3vvcyfv2mb2ms3",682,"107.csv","","null","resources/maskTrios/L4BB.jpg","null","",NA,NA,NA,NA,""
"image-keyboard-response",95,133461,"0.0-4.27-2.27","c3vvcyfv2mb2ms3",682,"107.csv","","null","resources/images/fishbone.png","null","",NA,NA,NA,NA,""
"image-keyboard-response",96,133853,"0.0-4.28-0.28","c3vvcyfv2mb2ms3",682,"107.csv","","390.39999997615814","resources/trios/L4T4A2.jpg","37","restless",0.7,0.5,0.4,0.866846722410859,"false"
"image-keyboard-response",97,134259,"0.0-4.28-1.28","c3vvcyfv2mb2ms3",682,"107.csv","","null","resources/maskTrios/L4BB.jpg","null","",NA,NA,NA,NA,""
"image-keyboard-response",98,135462,"0.0-4.28-2.28","c3vvcyfv2mb2ms3",682,"107.csv","","null","resources/images/fishbone.png","null","",NA,NA,NA,NA,""
"image-keyboard-response",99,135844,"0.0-4.29-0.29","c3vvcyfv2mb2ms3",682,"107.csv","","380.6999999284744","resources/trios/L4T4A2.jpg","38","restless",0.7,0.5,0.4,0.405755643104877,"true"
"image-keyboard-response",100,136260,"0.0-4.29-1.29","c3vvcyfv2mb2ms3",682,"107.csv","","null","resources/maskTrios/BT4B.jpg","null","",NA,NA,NA,NA,""
"image-keyboard-response",101,137462,"0.0-4.29-2.29","c3vvcyfv2mb2ms3",682,"107.csv","","null","resources/images/coin2.png","null","",NA,NA,NA,NA,""
"image-keyboard-response",102,137817,"0.0-4.30-0.30","c3vvcyfv2mb2ms3",682,"107.csv","","353.90000009536743","resources/trios/L4T4A2.jpg","38","restless",0.7,0.4,0.4,0.175153701350323,"true"
"image-keyboard-response",103,138226,"0.0-4.30-1.30","c3vvcyfv2mb2ms3",682,"107.csv","","null","resources/maskTrios/BT4B.jpg","null","",NA,NA,NA,NA,""
"image-keyboard-response",104,139430,"0.0-4.30-2.30","c3vvcyfv2mb2ms3",682,"107.csv","","null","resources/images/coin2.png","null","",NA,NA,NA,NA,""
"image-keyboard-response",105,139800,"0.0-4.31-0.31","c3vvcyfv2mb2ms3",682,"107.csv","","369","resources/trios/L4T4A2.jpg","39","restless",0.7,0.4,0.4,0.502178258014875,"false"
"image-keyboard-response",106,140210,"0.0-4.31-1.31","c3vvcyfv2mb2ms3",682,"107.csv","","null","resources/maskTrios/BBA2.jpg","null","",NA,NA,NA,NA,""
"image-keyboard-response",107,141413,"0.0-4.31-2.31","c3vvcyfv2mb2ms3",682,"107.csv","","null","resources/images/fishbone.png","null","",NA,NA,NA,NA,""
"image-keyboard-response",108,141754,"0.0-4.32-0.32","c3vvcyfv2mb2ms3",682,"107.csv","","339.7999999523163","resources/trios/L4T4A2.jpg","39","restless",0.7,0.4,0.4,0.47689134735229,"false"
"image-keyboard-response",109,142160,"0.0-4.32-1.32","c3vvcyfv2mb2ms3",682,"107.csv","","null","resources/maskTrios/BBA2.jpg","null","",NA,NA,NA,NA,""
"image-keyboard-response",110,143362,"0.0-4.32-2.32","c3vvcyfv2mb2ms3",682,"107.csv","","null","resources/images/fishbone.png","null","",NA,NA,NA,NA,""
"image-keyboard-response",111,143472,"0.0-4.33-0.33","c3vvcyfv2mb2ms3",682,"107.csv","","108.20000004768372","resources/trios/L4T4A2.jpg","37","restless",0.7,0.4,0.4,0.838329857197514,"false"
"image-keyboard-response",112,143876,"0.0-4.33-1.33","c3vvcyfv2mb2ms3",682,"107.csv","","null","resources/maskTrios/L4BB.jpg","null","",NA,NA,NA,NA,""
"image-keyboard-response",113,145079,"0.0-4.33-2.33","c3vvcyfv2mb2ms3",682,"107.csv","","null","resources/images/fishbone.png","null","",NA,NA,NA,NA,""
"image-keyboard-response",114,145370,"0.0-4.34-0.34","c3vvcyfv2mb2ms3",682,"107.csv","","288.7000000476837","resources/trios/L4T4A2.jpg","39","restless",0.7,0.4,0.4,0.267297695031995,"true"
"image-keyboard-response",115,145777,"0.0-4.34-1.34","c3vvcyfv2mb2ms3",682,"107.csv","","null","resources/maskTrios/BBA2.jpg","null","",NA,NA,NA,NA,""
"image-keyboard-response",116,146980,"0.0-4.34-2.34","c3vvcyfv2mb2ms3",682,"107.csv","","null","resources/images/coin2.png","null","",NA,NA,NA,NA,""
"image-keyboard-response",117,147424,"0.0-4.35-0.35","c3vvcyfv2mb2ms3",682,"107.csv","","442.5","resources/trios/L4T4A2.jpg","38","restless",0.7,0.4,0.3,0.0422939578328767,"true"
"image-keyboard-response",118,147826,"0.0-4.35-1.35","c3vvcyfv2mb2ms3",682,"107.csv","","null","resources/maskTrios/BT4B.jpg","null","",NA,NA,NA,NA,""
"image-keyboard-response",119,149028,"0.0-4.35-2.35","c3vvcyfv2mb2ms3",682,"107.csv","","null","resources/images/coin2.png","null","",NA,NA,NA,NA,""
"image-keyboard-response",120,149562,"0.0-4.36-0.36","c3vvcyfv2mb2ms3",682,"107.csv","","532.1999999284744","resources/trios/L4T4A2.jpg","38","restless",0.7,0.4,0.2,0.189986321790806,"true"
"image-keyboard-response",121,149976,"0.0-4.36-1.36","c3vvcyfv2mb2ms3",682,"107.csv","","null","resources/maskTrios/BT4B.jpg","null","",NA,NA,NA,NA,""
"image-keyboard-response",122,151179,"0.0-4.36-2.36","c3vvcyfv2mb2ms3",682,"107.csv","","null","resources/images/coin2.png","null","",NA,NA,NA,NA,""
"image-keyboard-response",123,151685,"0.0-4.37-0.37","c3vvcyfv2mb2ms3",682,"107.csv","","504.60000002384186","resources/trios/L4T4A2.jpg","37","restless",0.7,0.4,0.2,0.472894871540574,"true"
"image-keyboard-response",124,152093,"0.0-4.37-1.37","c3vvcyfv2mb2ms3",682,"107.csv","","null","resources/maskTrios/L4BB.jpg","null","",NA,NA,NA,NA,""
"image-keyboard-response",125,153295,"0.0-4.37-2.37","c3vvcyfv2mb2ms3",682,"107.csv","","null","resources/images/coin2.png","null","",NA,NA,NA,NA,""
"image-keyboard-response",126,153732,"0.0-4.38-0.38","c3vvcyfv2mb2ms3",682,"107.csv","","434.89999997615814","resources/trios/L4T4A2.jpg","37","restless",0.7,0.4,0.3,0.0675423730136291,"true"
"image-keyboard-response",127,154143,"0.0-4.38-1.38","c3vvcyfv2mb2ms3",682,"107.csv","","null","resources/maskTrios/L4BB.jpg","null","",NA,NA,NA,NA,""
"image-keyboard-response",128,155345,"0.0-4.38-2.38","c3vvcyfv2mb2ms3",682,"107.csv","","null","resources/images/coin2.png","null","",NA,NA,NA,NA,""
"image-keyboard-response",129,155902,"0.0-4.39-0.39","c3vvcyfv2mb2ms3",682,"107.csv","","554.7999999523163","resources/trios/L4T4A2.jpg","37","restless",0.7,0.4,0.3,0.918336620578092,"false"
"image-keyboard-response",130,156310,"0.0-4.39-1.39","c3vvcyfv2mb2ms3",682,"107.csv","","null","resources/maskTrios/L4BB.jpg","null","",NA,NA,NA,NA,""
"image-keyboard-response",131,157513,"0.0-4.39-2.39","c3vvcyfv2mb2ms3",682,"107.csv","","null","resources/images/fishbone.png","null","",NA,NA,NA,NA,""
"image-keyboard-response",132,158412,"0.0-4.40-0.40","c3vvcyfv2mb2ms3",682,"107.csv","","897.8999999761581","resources/trios/L4T4A2.jpg","39","restless",0.7,0.4,0.3,0.654770939097881,"false"
"image-keyboard-response",133,158827,"0.0-4.40-1.40","c3vvcyfv2mb2ms3",682,"107.csv","","null","resources/maskTrios/BBA2.jpg","null","",NA,NA,NA,NA,""
"image-keyboard-response",134,160030,"0.0-4.40-2.40","c3vvcyfv2mb2ms3",682,"107.csv","","null","resources/images/fishbone.png","null","",NA,NA,NA,NA,""
"image-keyboard-response",135,160318,"0.0-4.41-0.41","c3vvcyfv2mb2ms3",682,"107.csv","","286.60000002384186","resources/trios/L4T4A2.jpg","39","restless",0.6,0.4,0.3,0.818927868479569,"false"
"image-keyboard-response",136,160727,"0.0-4.41-1.41","c3vvcyfv2mb2ms3",682,"107.csv","","null","resources/maskTrios/BBA2.jpg","null","",NA,NA,NA,NA,""
"image-keyboard-response",137,161930,"0.0-4.41-2.41","c3vvcyfv2mb2ms3",682,"107.csv","","null","resources/images/fishbone.png","null","",NA,NA,NA,NA,""
"image-keyboard-response",138,162220,"0.0-4.42-0.42","c3vvcyfv2mb2ms3",682,"107.csv","","288.39999997615814","resources/trios/L4T4A2.jpg","38","restless",0.6,0.4,0.3,0.42678266057303,"false"
"image-keyboard-response",139,162626,"0.0-4.42-1.42","c3vvcyfv2mb2ms3",682,"107.csv","","null","resources/maskTrios/BT4B.jpg","null","",NA,NA,NA,NA,""
"image-keyboard-response",140,163828,"0.0-4.42-2.42","c3vvcyfv2mb2ms3",682,"107.csv","","null","resources/images/fishbone.png","null","",NA,NA,NA,NA,""
"image-keyboard-response",141,164134,"0.0-4.43-0.43","c3vvcyfv2mb2ms3",682,"107.csv","","303.89999997615814","resources/trios/L4T4A2.jpg","37","restless",0.6,0.4,0.3,0.881682882912789,"false"
"image-keyboard-response",142,164543,"0.0-4.43-1.43","c3vvcyfv2mb2ms3",682,"107.csv","","null","resources/maskTrios/L4BB.jpg","null","",NA,NA,NA,NA,""
"image-keyboard-response",143,165746,"0.0-4.43-2.43","c3vvcyfv2mb2ms3",682,"107.csv","","null","resources/images/fishbone.png","null","",NA,NA,NA,NA,""
"image-keyboard-response",144,166021,"0.0-4.44-0.44","c3vvcyfv2mb2ms3",682,"107.csv","","274.40000009536743","resources/trios/L4T4A2.jpg","39","restless",0.6,0.4,0.3,0.298573809851849,"true"
"image-keyboard-response",145,166427,"0.0-4.44-1.44","c3vvcyfv2mb2ms3",682,"107.csv","","null","resources/maskTrios/BBA2.jpg","null","",NA,NA,NA,NA,""
"image-keyboard-response",146,167631,"0.0-4.44-2.44","c3vvcyfv2mb2ms3",682,"107.csv","","null","resources/images/coin2.png","null","",NA,NA,NA,NA,""
"image-keyboard-response",147,167912,"0.0-4.45-0.45","c3vvcyfv2mb2ms3",682,"107.csv","","279.60000002384186","resources/trios/L4T4A2.jpg","39","restless",0.6,0.4,0.3,0.153666744892222,"true"
"image-keyboard-response",148,168326,"0.0-4.45-1.45","c3vvcyfv2mb2ms3",682,"107.csv","","null","resources/maskTrios/BBA2.jpg","null","",NA,NA,NA,NA,""
"image-keyboard-response",149,169528,"0.0-4.45-2.45","c3vvcyfv2mb2ms3",682,"107.csv","","null","resources/images/coin2.png","null","",NA,NA,NA,NA,""
"image-keyboard-response",150,169929,"0.0-4.46-0.46","c3vvcyfv2mb2ms3",682,"107.csv","","399.8000000715256","resources/trios/L4T4A2.jpg","39","restless",0.6,0.4,0.3,0.794456143337319,"false"
"image-keyboard-response",151,170344,"0.0-4.46-1.46","c3vvcyfv2mb2ms3",682,"107.csv","","null","resources/maskTrios/BBA2.jpg","null","",NA,NA,NA,NA,""
"image-keyboard-response",152,171561,"0.0-4.46-2.46","c3vvcyfv2mb2ms3",682,"107.csv","","null","resources/images/fishbone.png","null","",NA,NA,NA,NA,""
"image-keyboard-response",153,171766,"0.0-4.47-0.47","c3vvcyfv2mb2ms3",682,"107.csv","","203.29999995231628","resources/trios/L4T4A2.jpg","38","restless",0.6,0.4,0.3,0.611040175159849,"false"
"image-keyboard-response",154,172176,"0.0-4.47-1.47","c3vvcyfv2mb2ms3",682,"107.csv","","null","resources/maskTrios/BT4B.jpg","null","",NA,NA,NA,NA,""
"image-keyboard-response",155,173393,"0.0-4.47-2.47","c3vvcyfv2mb2ms3",682,"107.csv","","null","resources/images/fishbone.png","null","",NA,NA,NA,NA,""
"image-keyboard-response",156,173745,"0.0-4.48-0.48","c3vvcyfv2mb2ms3",682,"107.csv","","350.2000000476837","resources/trios/L4T4A2.jpg","37","restless",0.7,0.4,0.3,0.343188870235454,"true"
"image-keyboard-response",157,174160,"0.0-4.48-1.48","c3vvcyfv2mb2ms3",682,"107.csv","","null","resources/maskTrios/L4BB.jpg","null","",NA,NA,NA,NA,""
"image-keyboard-response",158,175368,"0.0-4.48-2.48","c3vvcyfv2mb2ms3",682,"107.csv","","null","resources/images/coin2.png","null","",NA,NA,NA,NA,""
"image-keyboard-response",159,175736,"0.0-4.49-0.49","c3vvcyfv2mb2ms3",682,"107.csv","","367.10000002384186","resources/trios/L4T4A2.jpg","37","restless",0.7,0.4,0.3,0.259725348333769,"true"
"image-keyboard-response",160,176147,"0.0-4.49-1.49","c3vvcyfv2mb2ms3",682,"107.csv","","null","resources/maskTrios/L4BB.jpg","null","",NA,NA,NA,NA,""
"image-keyboard-response",161,177349,"0.0-4.49-2.49","c3vvcyfv2mb2ms3",682,"107.csv","","null","resources/images/coin2.png","null","",NA,NA,NA,NA,""
"image-keyboard-response",162,177682,"0.0-4.50-0.50","c3vvcyfv2mb2ms3",682,"107.csv","","331.2000000476837","resources/trios/L4T4A2.jpg","37","restless",0.7,0.4,0.3,0.746982996379499,"false"
"image-keyboard-response",163,178098,"0.0-4.50-1.50","c3vvcyfv2mb2ms3",682,"107.csv","","null","resources/maskTrios/L4BB.jpg","null","",NA,NA,NA,NA,""
"image-keyboard-response",164,179301,"0.0-4.50-2.50","c3vvcyfv2mb2ms3",682,"107.csv","","null","resources/images/fishbone.png","null","",NA,NA,NA,NA,""
"image-keyboard-response",165,179578,"0.0-4.51-0.51","c3vvcyfv2mb2ms3",682,"107.csv","","275.5","resources/trios/L4T4A2.jpg","38","restless",0.7,0.5,0.3,0.395064103606704,"true"
"image-keyboard-response",166,179980,"0.0-4.51-1.51","c3vvcyfv2mb2ms3",682,"107.csv","","null","resources/maskTrios/BT4B.jpg","null","",NA,NA,NA,NA,""
"image-keyboard-response",167,181184,"0.0-4.51-2.51","c3vvcyfv2mb2ms3",682,"107.csv","","null","resources/images/coin2.png","null","",NA,NA,NA,NA,""
"image-keyboard-response",168,181612,"0.0-4.52-0.52","c3vvcyfv2mb2ms3",682,"107.csv","","426.5","resources/trios/L4T4A2.jpg","38","restless",0.7,0.5,0.4,0.752455915616975,"false"
"image-keyboard-response",169,182015,"0.0-4.52-1.52","c3vvcyfv2mb2ms3",682,"107.csv","","null","resources/maskTrios/BT4B.jpg","null","",NA,NA,NA,NA,""
"image-keyboard-response",170,183217,"0.0-4.52-2.52","c3vvcyfv2mb2ms3",682,"107.csv","","null","resources/images/fishbone.png","null","",NA,NA,NA,NA,""
"image-keyboard-response",171,183624,"0.0-4.53-0.53","c3vvcyfv2mb2ms3",682,"107.csv","","405.40000009536743","resources/trios/L4T4A2.jpg","39","restless",0.7,0.5,0.4,0.817888467180333,"false"
"image-keyboard-response",172,184032,"0.0-4.53-1.53","c3vvcyfv2mb2ms3",682,"107.csv","","null","resources/maskTrios/BBA2.jpg","null","",NA,NA,NA,NA,""
"image-keyboard-response",173,185234,"0.0-4.53-2.53","c3vvcyfv2mb2ms3",682,"107.csv","","null","resources/images/fishbone.png","null","",NA,NA,NA,NA,""
"image-keyboard-response",174,185637,"0.0-4.54-0.54","c3vvcyfv2mb2ms3",682,"107.csv","","400.7999999523163","resources/trios/L4T4A2.jpg","37","restless",0.7,0.5,0.4,0.486956032209538,"true"
"image-keyboard-response",175,186048,"0.0-4.54-1.54","c3vvcyfv2mb2ms3",682,"107.csv","","null","resources/maskTrios/L4BB.jpg","null","",NA,NA,NA,NA,""
"image-keyboard-response",176,187251,"0.0-4.54-2.54","c3vvcyfv2mb2ms3",682,"107.csv","","null","resources/images/coin2.png","null","",NA,NA,NA,NA,""
"image-keyboard-response",177,187588,"0.0-4.55-0.55","c3vvcyfv2mb2ms3",682,"107.csv","","336.3000000715256","resources/trios/L4T4A2.jpg","37","restless",0.7,0.5,0.4,0.810629818007104,"false"
"image-keyboard-response",178,187998,"0.0-4.55-1.55","c3vvcyfv2mb2ms3",682,"107.csv","","null","resources/maskTrios/L4BB.jpg","null","",NA,NA,NA,NA,""
"image-keyboard-response",179,189200,"0.0-4.55-2.55","c3vvcyfv2mb2ms3",682,"107.csv","","null","resources/images/fishbone.png","null","",NA,NA,NA,NA,""
"image-keyboard-response",180,189569,"0.0-4.56-0.56","c3vvcyfv2mb2ms3",682,"107.csv","","368.6999999284744","resources/trios/L4T4A2.jpg","38","restless",0.7,0.5,0.4,0.899636497094696,"false"
"image-keyboard-response",181,189981,"0.0-4.56-1.56","c3vvcyfv2mb2ms3",682,"107.csv","","null","resources/maskTrios/BT4B.jpg","null","",NA,NA,NA,NA,""
"image-keyboard-response",182,191184,"0.0-4.56-2.56","c3vvcyfv2mb2ms3",682,"107.csv","","null","resources/images/fishbone.png","null","",NA,NA,NA,NA,""
"image-keyboard-response",183,191548,"0.0-4.57-0.57","c3vvcyfv2mb2ms3",682,"107.csv","","362.40000009536743","resources/trios/L4T4A2.jpg","39","restless",0.7,0.5,0.4,0.287047764461678,"true"
"image-keyboard-response",184,191949,"0.0-4.57-1.57","c3vvcyfv2mb2ms3",682,"107.csv","","null","resources/maskTrios/BBA2.jpg","null","",NA,NA,NA,NA,""
"image-keyboard-response",185,193166,"0.0-4.57-2.57","c3vvcyfv2mb2ms3",682,"107.csv","","null","resources/images/coin2.png","null","",NA,NA,NA,NA,""
"image-keyboard-response",186,193706,"0.0-4.58-0.58","c3vvcyfv2mb2ms3",682,"107.csv","","538.1999999284744","resources/trios/L4T4A2.jpg","39","restless",0.7,0.5,0.4,0.27095566468241,"true"
"image-keyboard-response",187,194115,"0.0-4.58-1.58","c3vvcyfv2mb2ms3",682,"107.csv","","null","resources/maskTrios/BBA2.jpg","null","",NA,NA,NA,NA,""
"image-keyboard-response",188,195317,"0.0-4.58-2.58","c3vvcyfv2mb2ms3",682,"107.csv","","null","resources/images/coin2.png","null","",NA,NA,NA,NA,""
"image-keyboard-response",189,196495,"0.0-4.59-0.59","c3vvcyfv2mb2ms3",682,"107.csv","","1175.9000000953674","resources/trios/L4T4A2.jpg","37","restless",0.7,0.5,0.4,0.985429803519163,"false"
"image-keyboard-response",190,196897,"0.0-4.59-1.59","c3vvcyfv2mb2ms3",682,"107.csv","","null","resources/maskTrios/L4BB.jpg","null","",NA,NA,NA,NA,""
"image-keyboard-response",191,198099,"0.0-4.59-2.59","c3vvcyfv2mb2ms3",682,"107.csv","","null","resources/images/fishbone.png","null","",NA,NA,NA,NA,""
"image-keyboard-response",192,198694,"0.0-4.60-0.60","c3vvcyfv2mb2ms3",682,"107.csv","","593.1999999284744","resources/trios/L4T4A2.jpg","39","restless",0.7,0.5,0.4,0.961802807415036,"false"
"image-keyboard-response",193,199097,"0.0-4.60-1.60","c3vvcyfv2mb2ms3",682,"107.csv","","null","resources/maskTrios/BBA2.jpg","null","",NA,NA,NA,NA,""
"image-keyboard-response",194,200299,"0.0-4.60-2.60","c3vvcyfv2mb2ms3",682,"107.csv","","null","resources/images/fishbone.png","null","",NA,NA,NA,NA,""
"image-keyboard-response",195,200592,"0.0-4.61-0.61","c3vvcyfv2mb2ms3",682,"107.csv","","291.3000000715256","resources/trios/L4T4A2.jpg","38","restless",0.6,0.5,0.4,0.644425396853082,"false"
"image-keyboard-response",196,200998,"0.0-4.61-1.61","c3vvcyfv2mb2ms3",682,"107.csv","","null","resources/maskTrios/BT4B.jpg","null","",NA,NA,NA,NA,""
"image-keyboard-response",197,202201,"0.0-4.61-2.61","c3vvcyfv2mb2ms3",682,"107.csv","","null","resources/images/fishbone.png","null","",NA,NA,NA,NA,""
"image-keyboard-response",198,202780,"0.0-4.62-0.62","c3vvcyfv2mb2ms3",682,"107.csv","","577.5","resources/trios/L4T4A2.jpg","37","restless",0.6,0.5,0.4,0.921599650204399,"false"
"image-keyboard-response",199,203182,"0.0-4.62-1.62","c3vvcyfv2mb2ms3",682,"107.csv","","null","resources/maskTrios/L4BB.jpg","null","",NA,NA,NA,NA,""
"image-keyboard-response",200,204399,"0.0-4.62-2.62","c3vvcyfv2mb2ms3",682,"107.csv","","null","resources/images/fishbone.png","null","",NA,NA,NA,NA,""
"image-keyboard-response",201,204676,"0.0-4.63-0.63","c3vvcyfv2mb2ms3",682,"107.csv","","275.7000000476837","resources/trios/L4T4A2.jpg","39","restless",0.6,0.5,0.4,0.0618981657814297,"true"
"image-keyboard-response",202,205081,"0.0-4.63-1.63","c3vvcyfv2mb2ms3",682,"107.csv","","null","resources/maskTrios/BBA2.jpg","null","",NA,NA,NA,NA,""
"image-keyboard-response",203,206284,"0.0-4.63-2.63","c3vvcyfv2mb2ms3",682,"107.csv","","null","resources/images/coin2.png","null","",NA,NA,NA,NA,""
"image-keyboard-response",204,206715,"0.0-4.64-0.64","c3vvcyfv2mb2ms3",682,"107.csv","","430.10000002384186","resources/trios/L4T4A2.jpg","39","restless",0.6,0.5,0.4,0.203325726531573,"true"
"image-keyboard-response",205,207130,"0.0-4.64-1.64","c3vvcyfv2mb2ms3",682,"107.csv","","null","resources/maskTrios/BBA2.jpg","null","",NA,NA,NA,NA,""
"image-keyboard-response",206,208335,"0.0-4.64-2.64","c3vvcyfv2mb2ms3",682,"107.csv","","null","resources/images/coin2.png","null","",NA,NA,NA,NA,""
"image-keyboard-response",207,208888,"0.0-4.65-0.65","c3vvcyfv2mb2ms3",682,"107.csv","","551.8999999761581","resources/trios/L4T4A2.jpg","39","restless",0.6,0.5,0.4,0.558289560438288,"false"
"image-keyboard-response",208,209299,"0.0-4.65-1.65","c3vvcyfv2mb2ms3",682,"107.csv","","null","resources/maskTrios/BBA2.jpg","null","",NA,NA,NA,NA,""
"image-keyboard-response",209,210501,"0.0-4.65-2.65","c3vvcyfv2mb2ms3",682,"107.csv","","null","resources/images/fishbone.png","null","",NA,NA,NA,NA,""
"image-keyboard-response",210,210906,"0.0-4.66-0.66","c3vvcyfv2mb2ms3",682,"107.csv","","403.6999999284744","resources/trios/L4T4A2.jpg","38","restless",0.6,0.5,0.5,0.527065719407174,"false"
"image-keyboard-response",211,211315,"0.0-4.66-1.66","c3vvcyfv2mb2ms3",682,"107.csv","","null","resources/maskTrios/BT4B.jpg","null","",NA,NA,NA,NA,""
"image-keyboard-response",212,212517,"0.0-4.66-2.66","c3vvcyfv2mb2ms3",682,"107.csv","","null","resources/images/fishbone.png","null","",NA,NA,NA,NA,""
"image-keyboard-response",213,221545,"0.0-4.67-0.67","c3vvcyfv2mb2ms3",682,"107.csv","","9026.699999928474","resources/trios/L4T4A2.jpg","37","restless",0.6,0.5,0.5,0.690498935692443,"false"
"image-keyboard-response",214,221962,"0.0-4.67-1.67","c3vvcyfv2mb2ms3",682,"107.csv","","null","resources/maskTrios/L4BB.jpg","null","",NA,NA,NA,NA,""
"image-keyboard-response",215,223167,"0.0-4.67-2.67","c3vvcyfv2mb2ms3",682,"107.csv","","null","resources/images/fishbone.png","null","",NA,NA,NA,NA,""
"image-keyboard-response",216,226244,"0.0-4.68-0.68","c3vvcyfv2mb2ms3",682,"107.csv","","3075.2000000476837","resources/trios/L4T4A2.jpg","38","restless",0.6,0.5,0.5,0.461589647746719,"true"
"image-keyboard-response",217,226649,"0.0-4.68-1.68","c3vvcyfv2mb2ms3",682,"107.csv","","null","resources/maskTrios/BT4B.jpg","null","",NA,NA,NA,NA,""
"image-keyboard-response",218,227851,"0.0-4.68-2.68","c3vvcyfv2mb2ms3",682,"107.csv","","null","resources/images/coin2.png","null","",NA,NA,NA,NA,""
"image-keyboard-response",219,228868,"0.0-4.69-0.69","c3vvcyfv2mb2ms3",682,"107.csv","","1015.6000000238419","resources/trios/L4T4A2.jpg","38","restless",0.6,0.5,0.5,0.0558036929567556,"true"
"image-keyboard-response",220,229281,"0.0-4.69-1.69","c3vvcyfv2mb2ms3",682,"107.csv","","null","resources/maskTrios/BT4B.jpg","null","",NA,NA,NA,NA,""
"image-keyboard-response",221,230483,"0.0-4.69-2.69","c3vvcyfv2mb2ms3",682,"107.csv","","null","resources/images/coin2.png","null","",NA,NA,NA,NA,""
"image-keyboard-response",222,232232,"0.0-4.70-0.70","c3vvcyfv2mb2ms3",682,"107.csv","","1748.5999999046326","resources/trios/L4T4A2.jpg","38","restless",0.6,0.5,0.5,0.337971336723914,"true"
"image-keyboard-response",223,232649,"0.0-4.70-1.70","c3vvcyfv2mb2ms3",682,"107.csv","","null","resources/maskTrios/BT4B.jpg","null","",NA,NA,NA,NA,""
"image-keyboard-response",224,233852,"0.0-4.70-2.70","c3vvcyfv2mb2ms3",682,"107.csv","","null","resources/images/coin2.png","null","",NA,NA,NA,NA,""
"image-keyboard-response",225,234462,"0.0-4.71-0.71","c3vvcyfv2mb2ms3",682,"107.csv","","608.6000000238419","resources/trios/L4T4A2.jpg","38","restless",0.6,0.5,0.5,0.620769925397135,"false"
"image-keyboard-response",226,234865,"0.0-4.71-1.71","c3vvcyfv2mb2ms3",682,"107.csv","","null","resources/maskTrios/BT4B.jpg","null","",NA,NA,NA,NA,""
"image-keyboard-response",227,236070,"0.0-4.71-2.71","c3vvcyfv2mb2ms3",682,"107.csv","","null","resources/images/fishbone.png","null","",NA,NA,NA,NA,""
"image-keyboard-response",228,237708,"0.0-4.72-0.72","c3vvcyfv2mb2ms3",682,"107.csv","","1636.2999999523163","resources/trios/L4T4A2.jpg","37","restless",0.6,0.5,0.5,0.613984991045556,"false"
"image-keyboard-response",229,238118,"0.0-4.72-1.72","c3vvcyfv2mb2ms3",682,"107.csv","","null","resources/maskTrios/L4BB.jpg","null","",NA,NA,NA,NA,""
"image-keyboard-response",230,239321,"0.0-4.72-2.72","c3vvcyfv2mb2ms3",682,"107.csv","","null","resources/images/fishbone.png","null","",NA,NA,NA,NA,""
"image-keyboard-response",231,239888,"0.0-4.73-0.73","c3vvcyfv2mb2ms3",682,"107.csv","","566","resources/trios/L4T4A2.jpg","39","restless",0.6,0.5,0.5,0.0452644850260049,"true"
"image-keyboard-response",232,240302,"0.0-4.73-1.73","c3vvcyfv2mb2ms3",682,"107.csv","","null","resources/maskTrios/BBA2.jpg","null","",NA,NA,NA,NA,""
"image-keyboard-response",233,241510,"0.0-4.73-2.73","c3vvcyfv2mb2ms3",682,"107.csv","","null","resources/images/coin2.png","null","",NA,NA,NA,NA,""
"image-keyboard-response",234,242313,"0.0-4.74-0.74","c3vvcyfv2mb2ms3",682,"107.csv","","801.1000000238419","resources/trios/L4T4A2.jpg","39","restless",0.6,0.5,0.5,0.645168157108452,"false"
"image-keyboard-response",235,242718,"0.0-4.74-1.74","c3vvcyfv2mb2ms3",682,"107.csv","","null","resources/maskTrios/BBA2.jpg","null","",NA,NA,NA,NA,""
"image-keyboard-response",236,243921,"0.0-4.74-2.74","c3vvcyfv2mb2ms3",682,"107.csv","","null","resources/images/fishbone.png","null","",NA,NA,NA,NA,""
"image-keyboard-response",237,246886,"0.0-4.75-0.75","c3vvcyfv2mb2ms3",682,"107.csv","","2963.6999999284744","resources/trios/L4T4A2.jpg","38","restless",0.6,0.5,0.5,0.377126639017735,"true"
"image-keyboard-response",238,247302,"0.0-4.75-1.75","c3vvcyfv2mb2ms3",682,"107.csv","","null","resources/maskTrios/BT4B.jpg","null","",NA,NA,NA,NA,""
"image-keyboard-response",239,248519,"0.0-4.75-2.75","c3vvcyfv2mb2ms3",682,"107.csv","","null","resources/images/coin2.png","null","",NA,NA,NA,NA,""
"image-keyboard-response",240,248794,"0.0-4.76-0.76","c3vvcyfv2mb2ms3",682,"107.csv","","273.7999999523163","resources/trios/L4T4A2.jpg","38","restless",0.6,0.5,0.5,0.422699857674924,"true"
"image-keyboard-response",241,249202,"0.0-4.76-1.76","c3vvcyfv2mb2ms3",682,"107.csv","","null","resources/maskTrios/BT4B.jpg","null","",NA,NA,NA,NA,""
"image-keyboard-response",242,250407,"0.0-4.76-2.76","c3vvcyfv2mb2ms3",682,"107.csv","","null","resources/images/coin2.png","null","",NA,NA,NA,NA,""
"image-keyboard-response",243,250830,"0.0-4.77-0.77","c3vvcyfv2mb2ms3",682,"107.csv","","421.7999999523163","resources/trios/L4T4A2.jpg","39","restless",0.6,0.5,0.5,0.755741445083562,"false"
"image-keyboard-response",244,251235,"0.0-4.77-1.77","c3vvcyfv2mb2ms3",682,"107.csv","","null","resources/maskTrios/BBA2.jpg","null","",NA,NA,NA,NA,""
"image-keyboard-response",245,252452,"0.0-4.77-2.77","c3vvcyfv2mb2ms3",682,"107.csv","","null","resources/images/fishbone.png","null","",NA,NA,NA,NA,""
"image-keyboard-response",246,252845,"0.0-4.78-0.78","c3vvcyfv2mb2ms3",682,"107.csv","","391.5","resources/trios/L4T4A2.jpg","38","restless",0.6,0.5,0.5,0.336187820528817,"true"
"image-keyboard-response",247,253251,"0.0-4.78-1.78","c3vvcyfv2mb2ms3",682,"107.csv","","null","resources/maskTrios/BT4B.jpg","null","",NA,NA,NA,NA,""
"image-keyboard-response",248,254455,"0.0-4.78-2.78","c3vvcyfv2mb2ms3",682,"107.csv","","null","resources/images/coin2.png","null","",NA,NA,NA,NA,""
"image-keyboard-response",249,255002,"0.0-4.79-0.79","c3vvcyfv2mb2ms3",682,"107.csv","","546","resources/trios/L4T4A2.jpg","38","restless",0.6,0.5,0.5,0.459521776393936,"true"
"image-keyboard-response",250,255418,"0.0-4.79-1.79","c3vvcyfv2mb2ms3",682,"107.csv","","null","resources/maskTrios/BT4B.jpg","null","",NA,NA,NA,NA,""
"image-keyboard-response",251,256623,"0.0-4.79-2.79","c3vvcyfv2mb2ms3",682,"107.csv","","null","resources/images/coin2.png","null","",NA,NA,NA,NA,""
"image-keyboard-response",252,256908,"0.0-4.80-0.80","c3vvcyfv2mb2ms3",682,"107.csv","","283.2999999523163","resources/trios/L4T4A2.jpg","38","restless",0.6,0.5,0.5,0.820312165465566,"false"
"image-keyboard-response",253,257319,"0.0-4.80-1.80","c3vvcyfv2mb2ms3",682,"107.csv","","null","resources/maskTrios/BT4B.jpg","null","",NA,NA,NA,NA,""
"image-keyboard-response",254,258521,"0.0-4.80-2.80","c3vvcyfv2mb2ms3",682,"107.csv","","null","resources/images/fishbone.png","null","",NA,NA,NA,NA,""
"image-keyboard-response",255,258978,"0.0-4.81-0.81","c3vvcyfv2mb2ms3",682,"107.csv","","455.5","resources/trios/L4T4A2.jpg","37","restless",0.6,0.5,0.5,0.674632272675627,"false"
"image-keyboard-response",256,259385,"0.0-4.81-1.81","c3vvcyfv2mb2ms3",682,"107.csv","","null","resources/maskTrios/L4BB.jpg","null","",NA,NA,NA,NA,""
"image-keyboard-response",257,260587,"0.0-4.81-2.81","c3vvcyfv2mb2ms3",682,"107.csv","","null","resources/images/fishbone.png","null","",NA,NA,NA,NA,""
"image-keyboard-response",258,260884,"0.0-4.82-0.82","c3vvcyfv2mb2ms3",682,"107.csv","","295.5","resources/trios/L4T4A2.jpg","39","restless",0.6,0.5,0.5,0.746350670124442,"false"
"image-keyboard-response",259,261286,"0.0-4.82-1.82","c3vvcyfv2mb2ms3",682,"107.csv","","null","resources/maskTrios/BBA2.jpg","null","",NA,NA,NA,NA,""
"image-keyboard-response",260,262490,"0.0-4.82-2.82","c3vvcyfv2mb2ms3",682,"107.csv","","null","resources/images/fishbone.png","null","",NA,NA,NA,NA,""
"image-keyboard-response",261,262554,"0.0-4.83-0.83","c3vvcyfv2mb2ms3",682,"107.csv","","63.09999990463257","resources/trios/L4T4A2.jpg","38","restless",0.6,0.5,0.5,0.201248203354718,"true"
"image-keyboard-response",262,262968,"0.0-4.83-1.83","c3vvcyfv2mb2ms3",682,"107.csv","","null","resources/maskTrios/BT4B.jpg","null","",NA,NA,NA,NA,""
"image-keyboard-response",263,264171,"0.0-4.83-2.83","c3vvcyfv2mb2ms3",682,"107.csv","","null","resources/images/coin2.png","null","",NA,NA,NA,NA,""
"image-keyboard-response",264,264537,"0.0-4.84-0.84","c3vvcyfv2mb2ms3",682,"107.csv","","364.3000000715256","resources/trios/L4T4A2.jpg","38","restless",0.7,0.5,0.5,0.385087052191943,"true"
"image-keyboard-response",265,264953,"0.0-4.84-1.84","c3vvcyfv2mb2ms3",682,"107.csv","","null","resources/maskTrios/BT4B.jpg","null","",NA,NA,NA,NA,""
"image-keyboard-response",266,266170,"0.0-4.84-2.84","c3vvcyfv2mb2ms3",682,"107.csv","","null","resources/images/coin2.png","null","",NA,NA,NA,NA,""
"image-keyboard-response",267,266530,"0.0-4.85-0.85","c3vvcyfv2mb2ms3",682,"107.csv","","358.60000002384186","resources/trios/L4T4A2.jpg","38","restless",0.7,0.5,0.5,0.643201463099651,"false"
"image-keyboard-response",268,266935,"0.0-4.85-1.85","c3vvcyfv2mb2ms3",682,"107.csv","","null","resources/maskTrios/BT4B.jpg","null","",NA,NA,NA,NA,""
"image-keyboard-response",269,268138,"0.0-4.85-2.85","c3vvcyfv2mb2ms3",682,"107.csv","","null","resources/images/fishbone.png","null","",NA,NA,NA,NA,""
"image-keyboard-response",270,268632,"0.0-4.86-0.86","c3vvcyfv2mb2ms3",682,"107.csv","","492.6999999284744","resources/trios/L4T4A2.jpg","37","restless",0.7,0.5,0.5,0.0979794531066007,"true"
"image-keyboard-response",271,269036,"0.0-4.86-1.86","c3vvcyfv2mb2ms3",682,"107.csv","","null","resources/maskTrios/L4BB.jpg","null","",NA,NA,NA,NA,""
"image-keyboard-response",272,270239,"0.0-4.86-2.86","c3vvcyfv2mb2ms3",682,"107.csv","","null","resources/images/coin2.png","null","",NA,NA,NA,NA,""
"image-keyboard-response",273,270636,"0.0-4.87-0.87","c3vvcyfv2mb2ms3",682,"107.csv","","395.7000000476837","resources/trios/L4T4A2.jpg","37","restless",0.7,0.5,0.5,0.690587010924181,"true"
"image-keyboard-response",274,271052,"0.0-4.87-1.87","c3vvcyfv2mb2ms3",682,"107.csv","","null","resources/maskTrios/L4BB.jpg","null","",NA,NA,NA,NA,""
"image-keyboard-response",275,272256,"0.0-4.87-2.87","c3vvcyfv2mb2ms3",682,"107.csv","","null","resources/images/coin2.png","null","",NA,NA,NA,NA,""
"image-keyboard-response",276,272896,"0.0-4.88-0.88","c3vvcyfv2mb2ms3",682,"107.csv","","639.2999999523163","resources/trios/L4T4A2.jpg","37","restless",0.7,0.5,0.5,0.529475754204779,"true"
"image-keyboard-response",277,273301,"0.0-4.88-1.88","c3vvcyfv2mb2ms3",682,"107.csv","","null","resources/maskTrios/L4BB.jpg","null","",NA,NA,NA,NA,""
"image-keyboard-response",278,274503,"0.0-4.88-2.88","c3vvcyfv2mb2ms3",682,"107.csv","","null","resources/images/coin2.png","null","",NA,NA,NA,NA,""
"image-keyboard-response",279,275029,"0.0-4.89-0.89","c3vvcyfv2mb2ms3",682,"107.csv","","524.2000000476837","resources/trios/L4T4A2.jpg","37","restless",0.7,0.5,0.5,0.561746965692144,"true"
"image-keyboard-response",280,275435,"0.0-4.89-1.89","c3vvcyfv2mb2ms3",682,"107.csv","","null","resources/maskTrios/L4BB.jpg","null","",NA,NA,NA,NA,""
"image-keyboard-response",281,276638,"0.0-4.89-2.89","c3vvcyfv2mb2ms3",682,"107.csv","","null","resources/images/coin2.png","null","",NA,NA,NA,NA,""
"image-keyboard-response",282,277168,"0.0-4.90-0.90","c3vvcyfv2mb2ms3",682,"107.csv","","528.2000000476837","resources/trios/L4T4A2.jpg","37","restless",0.7,0.6,0.5,0.678444518150414,"true"
"image-keyboard-response",283,277584,"0.0-4.90-1.90","c3vvcyfv2mb2ms3",682,"107.csv","","null","resources/maskTrios/L4BB.jpg","null","",NA,NA,NA,NA,""
"image-keyboard-response",284,278786,"0.0-4.90-2.90","c3vvcyfv2mb2ms3",682,"107.csv","","null","resources/images/coin2.png","null","",NA,NA,NA,NA,""
"image-keyboard-response",285,279286,"0.0-4.91-0.91","c3vvcyfv2mb2ms3",682,"107.csv","","498.60000002384186","resources/trios/L4T4A2.jpg","37","restless",0.7,0.6,0.5,0.994732820200028,"false"
"image-keyboard-response",286,279701,"0.0-4.91-1.91","c3vvcyfv2mb2ms3",682,"107.csv","","null","resources/maskTrios/L4BB.jpg","null","",NA,NA,NA,NA,""
"image-keyboard-response",287,280906,"0.0-4.91-2.91","c3vvcyfv2mb2ms3",682,"107.csv","","null","resources/images/fishbone.png","null","",NA,NA,NA,NA,""
"image-keyboard-response",288,281084,"0.0-4.92-0.92","c3vvcyfv2mb2ms3",682,"107.csv","","176.80000007152557","resources/trios/L4T4A2.jpg","38","restless",0.7,0.6,0.5,0.662428174803747,"false"
"image-keyboard-response",289,281501,"0.0-4.92-1.92","c3vvcyfv2mb2ms3",682,"107.csv","","null","resources/maskTrios/BT4B.jpg","null","",NA,NA,NA,NA,""
"image-keyboard-response",290,282703,"0.0-4.92-2.92","c3vvcyfv2mb2ms3",682,"107.csv","","null","resources/images/fishbone.png","null","",NA,NA,NA,NA,""
"image-keyboard-response",291,283160,"0.0-4.93-0.93","c3vvcyfv2mb2ms3",682,"107.csv","","455.89999997615814","resources/trios/L4T4A2.jpg","39","restless",0.7,0.7,0.5,0.199263917927666,"true"
"image-keyboard-response",292,283568,"0.0-4.93-1.93","c3vvcyfv2mb2ms3",682,"107.csv","","null","resources/maskTrios/BBA2.jpg","null","",NA,NA,NA,NA,""
"image-keyboard-response",293,284772,"0.0-4.93-2.93","c3vvcyfv2mb2ms3",682,"107.csv","","null","resources/images/coin2.png","null","",NA,NA,NA,NA,""
"image-keyboard-response",294,285169,"0.0-4.94-0.94","c3vvcyfv2mb2ms3",682,"107.csv","","395.60000002384186","resources/trios/L4T4A2.jpg","37","restless",0.7,0.8,0.5,0.375642468364836,"true"
"image-keyboard-response",295,285572,"0.0-4.94-1.94","c3vvcyfv2mb2ms3",682,"107.csv","","null","resources/maskTrios/L4BB.jpg","null","",NA,NA,NA,NA,""
"image-keyboard-response",296,286775,"0.0-4.94-2.94","c3vvcyfv2mb2ms3",682,"107.csv","","null","resources/images/coin2.png","null","",NA,NA,NA,NA,""
"image-keyboard-response",297,287134,"0.0-4.95-0.95","c3vvcyfv2mb2ms3",682,"107.csv","","357.2999999523163","resources/trios/L4T4A2.jpg","37","restless",0.7,0.8,0.5,0.555804898386141,"true"
"image-keyboard-response",298,287551,"0.0-4.95-1.95","c3vvcyfv2mb2ms3",682,"107.csv","","null","resources/maskTrios/L4BB.jpg","null","",NA,NA,NA,NA,""
"image-keyboard-response",299,288753,"0.0-4.95-2.95","c3vvcyfv2mb2ms3",682,"107.csv","","null","resources/images/coin2.png","null","",NA,NA,NA,NA,""
"image-keyboard-response",300,289132,"0.0-4.96-0.96","c3vvcyfv2mb2ms3",682,"107.csv","","377.3000000715256","resources/trios/L4T4A2.jpg","37","restless",0.7,0.9,0.5,0.213131113721346,"true"
"image-keyboard-response",301,289535,"0.0-4.96-1.96","c3vvcyfv2mb2ms3",682,"107.csv","","null","resources/maskTrios/L4BB.jpg","null","",NA,NA,NA,NA,""
"image-keyboard-response",302,290738,"0.0-4.96-2.96","c3vvcyfv2mb2ms3",682,"107.csv","","null","resources/images/coin2.png","null","",NA,NA,NA,NA,""
"image-keyboard-response",303,291050,"0.0-4.97-0.97","c3vvcyfv2mb2ms3",682,"107.csv","","310.09999990463257","resources/trios/L4T4A2.jpg","38","restless",0.7,0.9,0.5,0.843826118299658,"true"
"image-keyboard-response",304,291468,"0.0-4.97-1.97","c3vvcyfv2mb2ms3",682,"107.csv","","null","resources/maskTrios/BT4B.jpg","null","",NA,NA,NA,NA,""
"image-keyboard-response",305,292672,"0.0-4.97-2.97","c3vvcyfv2mb2ms3",682,"107.csv","","null","resources/images/coin2.png","null","",NA,NA,NA,NA,""
"image-keyboard-response",306,292952,"0.0-4.98-0.98","c3vvcyfv2mb2ms3",682,"107.csv","","279","resources/trios/L4T4A2.jpg","38","restless",0.7,0.9,0.5,0.0128547066051277,"true"
"image-keyboard-response",307,293369,"0.0-4.98-1.98","c3vvcyfv2mb2ms3",682,"107.csv","","null","resources/maskTrios/BT4B.jpg","null","",NA,NA,NA,NA,""
"image-keyboard-response",308,294573,"0.0-4.98-2.98","c3vvcyfv2mb2ms3",682,"107.csv","","null","resources/images/coin2.png","null","",NA,NA,NA,NA,""
"image-keyboard-response",309,294975,"0.0-4.99-0.99","c3vvcyfv2mb2ms3",682,"107.csv","","400.60000002384186","resources/trios/L4T4A2.jpg","38","restless",0.7,0.9,0.5,0.497629251372606,"true"
"image-keyboard-response",310,295386,"0.0-4.99-1.99","c3vvcyfv2mb2ms3",682,"107.csv","","null","resources/maskTrios/BT4B.jpg","null","",NA,NA,NA,NA,""
"image-keyboard-response",311,296593,"0.0-4.99-2.99","c3vvcyfv2mb2ms3",682,"107.csv","","null","resources/images/coin2.png","null","",NA,NA,NA,NA,""
"image-keyboard-response",312,296975,"0.0-4.100-0.100","c3vvcyfv2mb2ms3",682,"107.csv","","380.89999997615814","resources/trios/L4T4A2.jpg","39","restless",0.7,0.9,0.5,0.859533949691337,"false"
"image-keyboard-response",313,297389,"0.0-4.100-1.100","c3vvcyfv2mb2ms3",682,"107.csv","","null","resources/maskTrios/BBA2.jpg","null","",NA,NA,NA,NA,""
"image-keyboard-response",314,298594,"0.0-4.100-2.100","c3vvcyfv2mb2ms3",682,"107.csv","","null","resources/images/fishbone.png","null","",NA,NA,NA,NA,""
"image-keyboard-response",315,299078,"0.0-4.101-0.101","c3vvcyfv2mb2ms3",682,"107.csv","","482.60000002384186","resources/trios/L4T4A2.jpg","39","restless",0.7,0.9,0.5,0.241847069556957,"true"
"image-keyboard-response",316,299490,"0.0-4.101-1.101","c3vvcyfv2mb2ms3",682,"107.csv","","null","resources/maskTrios/BBA2.jpg","null","",NA,NA,NA,NA,""
"image-keyboard-response",317,300692,"0.0-4.101-2.101","c3vvcyfv2mb2ms3",682,"107.csv","","null","resources/images/coin2.png","null","",NA,NA,NA,NA,""
"image-keyboard-response",318,301029,"0.0-4.102-0.102","c3vvcyfv2mb2ms3",682,"107.csv","","335.5","resources/trios/L4T4A2.jpg","37","restless",0.7,0.9,0.6,0.239483251948065,"true"
"image-keyboard-response",319,301440,"0.0-4.102-1.102","c3vvcyfv2mb2ms3",682,"107.csv","","null","resources/maskTrios/L4BB.jpg","null","",NA,NA,NA,NA,""
"image-keyboard-response",320,302642,"0.0-4.102-2.102","c3vvcyfv2mb2ms3",682,"107.csv","","null","resources/images/coin2.png","null","",NA,NA,NA,NA,""
"image-keyboard-response",321,303013,"0.0-4.103-0.103","c3vvcyfv2mb2ms3",682,"107.csv","","369.10000002384186","resources/trios/L4T4A2.jpg","37","restless",0.7,0.9,0.6,0.00166433784541908,"true"
"image-keyboard-response",322,303423,"0.0-4.103-1.103","c3vvcyfv2mb2ms3",682,"107.csv","","null","resources/maskTrios/L4BB.jpg","null","",NA,NA,NA,NA,""
"image-keyboard-response",323,304625,"0.0-4.103-2.103","c3vvcyfv2mb2ms3",682,"107.csv","","null","resources/images/coin2.png","null","",NA,NA,NA,NA,""
"image-keyboard-response",324,305316,"0.0-4.104-0.104","c3vvcyfv2mb2ms3",682,"107.csv","","689.7999999523163","resources/trios/L4T4A2.jpg","37","restless",0.7,0.8,0.6,0.494945644683559,"true"
"image-keyboard-response",325,305723,"0.0-4.104-1.104","c3vvcyfv2mb2ms3",682,"107.csv","","null","resources/maskTrios/L4BB.jpg","null","",NA,NA,NA,NA,""
"image-keyboard-response",326,306925,"0.0-4.104-2.104","c3vvcyfv2mb2ms3",682,"107.csv","","null","resources/images/coin2.png","null","",NA,NA,NA,NA,""
"image-keyboard-response",327,307219,"0.0-4.105-0.105","c3vvcyfv2mb2ms3",682,"107.csv","","292.10000002384186","resources/trios/L4T4A2.jpg","38","restless",0.7,0.7,0.6,0.717962626322529,"false"
"image-keyboard-response",328,307624,"0.0-4.105-1.105","c3vvcyfv2mb2ms3",682,"107.csv","","null","resources/maskTrios/BT4B.jpg","null","",NA,NA,NA,NA,""
"image-keyboard-response",329,308841,"0.0-4.105-2.105","c3vvcyfv2mb2ms3",682,"107.csv","","null","resources/images/fishbone.png","null","",NA,NA,NA,NA,""
"image-keyboard-response",330,309148,"0.0-4.106-0.106","c3vvcyfv2mb2ms3",682,"107.csv","","305.60000002384186","resources/trios/L4T4A2.jpg","39","restless",0.7,0.7,0.6,0.995627300273841,"false"
"image-keyboard-response",331,309556,"0.0-4.106-1.106","c3vvcyfv2mb2ms3",682,"107.csv","","null","resources/maskTrios/BBA2.jpg","null","",NA,NA,NA,NA,""
"image-keyboard-response",332,310759,"0.0-4.106-2.106","c3vvcyfv2mb2ms3",682,"107.csv","","null","resources/images/fishbone.png","null","",NA,NA,NA,NA,""
"image-keyboard-response",333,311438,"0.0-4.107-0.107","c3vvcyfv2mb2ms3",682,"107.csv","","677.6999999284744","resources/trios/L4T4A2.jpg","38","restless",0.7,0.7,0.6,0.194528919299648,"true"
"image-keyboard-response",334,311841,"0.0-4.107-1.107","c3vvcyfv2mb2ms3",682,"107.csv","","null","resources/maskTrios/BT4B.jpg","null","",NA,NA,NA,NA,""
"image-keyboard-response",335,313044,"0.0-4.107-2.107","c3vvcyfv2mb2ms3",682,"107.csv","","null","resources/images/coin2.png","null","",NA,NA,NA,NA,""
"image-keyboard-response",336,313420,"0.0-4.108-0.108","c3vvcyfv2mb2ms3",682,"107.csv","","375.1999999284744","resources/trios/L4T4A2.jpg","38","restless",0.7,0.7,0.6,0.828161675497044,"false"
"image-keyboard-response",337,313823,"0.0-4.108-1.108","c3vvcyfv2mb2ms3",682,"107.csv","","null","resources/maskTrios/BT4B.jpg","null","",NA,NA,NA,NA,""
"image-keyboard-response",338,315026,"0.0-4.108-2.108","c3vvcyfv2mb2ms3",682,"107.csv","","null","resources/images/fishbone.png","null","",NA,NA,NA,NA,""
"image-keyboard-response",339,315392,"0.0-4.109-0.109","c3vvcyfv2mb2ms3",682,"107.csv","","365.1999999284744","resources/trios/L4T4A2.jpg","37","restless",0.7,0.7,0.6,0.980214138016515,"false"
"image-keyboard-response",340,315806,"0.0-4.109-1.109","c3vvcyfv2mb2ms3",682,"107.csv","","null","resources/maskTrios/L4BB.jpg","null","",NA,NA,NA,NA,""
"image-keyboard-response",341,317009,"0.0-4.109-2.109","c3vvcyfv2mb2ms3",682,"107.csv","","null","resources/images/fishbone.png","null","",NA,NA,NA,NA,""
"image-keyboard-response",342,317541,"0.0-4.110-0.110","c3vvcyfv2mb2ms3",682,"107.csv","","530.8000000715256","resources/trios/L4T4A2.jpg","39","restless",0.7,0.7,0.6,0.695495537245581,"false"
"image-keyboard-response",343,317957,"0.0-4.110-1.110","c3vvcyfv2mb2ms3",682,"107.csv","","null","resources/maskTrios/BBA2.jpg","null","",NA,NA,NA,NA,""
"image-keyboard-response",344,319174,"0.0-4.110-2.110","c3vvcyfv2mb2ms3",682,"107.csv","","null","resources/images/fishbone.png","null","",NA,NA,NA,NA,""
"image-keyboard-response",345,319416,"0.0-4.111-0.111","c3vvcyfv2mb2ms3",682,"107.csv","","241.29999995231628","resources/trios/L4T4A2.jpg","38","restless",0.7,0.7,0.6,0.652331425107908,"true"
"image-keyboard-response",346,319821,"0.0-4.111-1.111","c3vvcyfv2mb2ms3",682,"107.csv","","null","resources/maskTrios/BT4B.jpg","null","",NA,NA,NA,NA,""
"image-keyboard-response",347,321025,"0.0-4.111-2.111","c3vvcyfv2mb2ms3",682,"107.csv","","null","resources/images/coin2.png","null","",NA,NA,NA,NA,""
"image-keyboard-response",348,321214,"0.0-4.112-0.112","c3vvcyfv2mb2ms3",682,"107.csv","","187.90000009536743","resources/trios/L4T4A2.jpg","38","restless",0.7,0.7,0.6,0.220899470364728,"true"
"image-keyboard-response",349,321622,"0.0-4.112-1.112","c3vvcyfv2mb2ms3",682,"107.csv","","null","resources/maskTrios/BT4B.jpg","null","",NA,NA,NA,NA,""
"image-keyboard-response",350,322840,"0.0-4.112-2.112","c3vvcyfv2mb2ms3",682,"107.csv","","null","resources/images/coin2.png","null","",NA,NA,NA,NA,""
"image-keyboard-response",351,323190,"0.0-4.113-0.113","c3vvcyfv2mb2ms3",682,"107.csv","","349.09999990463257","resources/trios/L4T4A2.jpg","38","restless",0.7,0.7,0.6,0.956224237838099,"false"
"image-keyboard-response",352,323605,"0.0-4.113-1.113","c3vvcyfv2mb2ms3",682,"107.csv","","null","resources/maskTrios/BT4B.jpg","null","",NA,NA,NA,NA,""
"image-keyboard-response",353,324808,"0.0-4.113-2.113","c3vvcyfv2mb2ms3",682,"107.csv","","null","resources/images/fishbone.png","null","",NA,NA,NA,NA,""
"image-keyboard-response",354,325344,"0.0-4.114-0.114","c3vvcyfv2mb2ms3",682,"107.csv","","534.7999999523163","resources/trios/L4T4A2.jpg","39","restless",0.7,0.7,0.6,0.00875997208124257,"true"
"image-keyboard-response",355,325756,"0.0-4.114-1.114","c3vvcyfv2mb2ms3",682,"107.csv","","null","resources/maskTrios/BBA2.jpg","null","",NA,NA,NA,NA,""
"image-keyboard-response",356,326959,"0.0-4.114-2.114","c3vvcyfv2mb2ms3",682,"107.csv","","null","resources/images/coin2.png","null","",NA,NA,NA,NA,""
"image-keyboard-response",357,327478,"0.0-4.115-0.115","c3vvcyfv2mb2ms3",682,"107.csv","","517.3000000715256","resources/trios/L4T4A2.jpg","37","restless",0.7,0.7,0.6,0.550482136976408,"true"
"image-keyboard-response",358,327889,"0.0-4.115-1.115","c3vvcyfv2mb2ms3",682,"107.csv","","null","resources/maskTrios/L4BB.jpg","null","",NA,NA,NA,NA,""
"image-keyboard-response",359,329092,"0.0-4.115-2.115","c3vvcyfv2mb2ms3",682,"107.csv","","null","resources/images/coin2.png","null","",NA,NA,NA,NA,""
"image-keyboard-response",360,329527,"0.0-4.116-0.116","c3vvcyfv2mb2ms3",682,"107.csv","","433.60000002384186","resources/trios/L4T4A2.jpg","37","restless",0.7,0.7,0.7,0.669108926732352,"true"
"image-keyboard-response",361,329939,"0.0-4.116-1.116","c3vvcyfv2mb2ms3",682,"107.csv","","null","resources/maskTrios/L4BB.jpg","null","",NA,NA,NA,NA,""
"image-keyboard-response",362,331142,"0.0-4.116-2.116","c3vvcyfv2mb2ms3",682,"107.csv","","null","resources/images/coin2.png","null","",NA,NA,NA,NA,""
"image-keyboard-response",363,331548,"0.0-4.117-0.117","c3vvcyfv2mb2ms3",682,"107.csv","","404.6999999284744","resources/trios/L4T4A2.jpg","37","restless",0.6,0.6,0.7,0.000536815326385831,"true"
"image-keyboard-response",364,331957,"0.0-4.117-1.117","c3vvcyfv2mb2ms3",682,"107.csv","","null","resources/maskTrios/L4BB.jpg","null","",NA,NA,NA,NA,""
"image-keyboard-response",365,333160,"0.0-4.117-2.117","c3vvcyfv2mb2ms3",682,"107.csv","","null","resources/images/coin2.png","null","",NA,NA,NA,NA,""
"image-keyboard-response",366,333378,"0.0-4.118-0.118","c3vvcyfv2mb2ms3",682,"107.csv","","216.30000007152557","resources/trios/L4T4A2.jpg","38","restless",0.6,0.6,0.7,0.109353998164592,"true"
"image-keyboard-response",367,333782,"0.0-4.118-1.118","c3vvcyfv2mb2ms3",682,"107.csv","","null","resources/maskTrios/BT4B.jpg","null","",NA,NA,NA,NA,""
"image-keyboard-response",368,334994,"0.0-4.118-2.118","c3vvcyfv2mb2ms3",682,"107.csv","","null","resources/images/coin2.png","null","",NA,NA,NA,NA,""
"image-keyboard-response",369,335340,"0.0-4.119-0.119","c3vvcyfv2mb2ms3",682,"107.csv","","344.7999999523163","resources/trios/L4T4A2.jpg","38","restless",0.6,0.6,0.7,0.139041199098578,"true"
"image-keyboard-response",370,335756,"0.0-4.119-1.119","c3vvcyfv2mb2ms3",682,"107.csv","","null","resources/maskTrios/BT4B.jpg","null","",NA,NA,NA,NA,""
"image-keyboard-response",371,336958,"0.0-4.119-2.119","c3vvcyfv2mb2ms3",682,"107.csv","","null","resources/images/coin2.png","null","",NA,NA,NA,NA,""
"image-keyboard-response",372,337394,"0.0-4.120-0.120","c3vvcyfv2mb2ms3",682,"107.csv","","434.3000000715256","resources/trios/L4T4A2.jpg","39","restless",0.6,0.6,0.7,0.335374842291051,"true"
"image-keyboard-response",373,337806,"0.0-4.120-1.120","c3vvcyfv2mb2ms3",682,"107.csv","","null","resources/maskTrios/BBA2.jpg","null","",NA,NA,NA,NA,""
"image-keyboard-response",374,339008,"0.0-4.120-2.120","c3vvcyfv2mb2ms3",682,"107.csv","","null","resources/images/coin2.png","null","",NA,NA,NA,NA,""
"image-keyboard-response",375,339320,"0.0-4.121-0.121","c3vvcyfv2mb2ms3",682,"107.csv","","311","resources/trios/L4T4A2.jpg","37","restless",0.6,0.6,0.7,0.169890120803792,"true"
"image-keyboard-response",376,339723,"0.0-4.121-1.121","c3vvcyfv2mb2ms3",682,"107.csv","","null","resources/maskTrios/L4BB.jpg","null","",NA,NA,NA,NA,""
"image-keyboard-response",377,340930,"0.0-4.121-2.121","c3vvcyfv2mb2ms3",682,"107.csv","","null","resources/images/coin2.png","null","",NA,NA,NA,NA,""
"image-keyboard-response",378,341263,"0.0-4.122-0.122","c3vvcyfv2mb2ms3",682,"107.csv","","331.7000000476837","resources/trios/L4T4A2.jpg","37","restless",0.6,0.6,0.7,0.496480259169989,"true"
"image-keyboard-response",379,341675,"0.0-4.122-1.122","c3vvcyfv2mb2ms3",682,"107.csv","","null","resources/maskTrios/L4BB.jpg","null","",NA,NA,NA,NA,""
"image-keyboard-response",380,342877,"0.0-4.122-2.122","c3vvcyfv2mb2ms3",682,"107.csv","","null","resources/images/coin2.png","null","",NA,NA,NA,NA,""
"image-keyboard-response",381,342896,"0.0-4.123-0.123","c3vvcyfv2mb2ms3",682,"107.csv","","18.100000023841858","resources/trios/L4T4A2.jpg","37","restless",0.7,0.6,0.7,0.75842884878703,"false"
"image-keyboard-response",382,343307,"0.0-4.123-1.123","c3vvcyfv2mb2ms3",682,"107.csv","","null","resources/maskTrios/L4BB.jpg","null","",NA,NA,NA,NA,""
"image-keyboard-response",383,344510,"0.0-4.123-2.123","c3vvcyfv2mb2ms3",682,"107.csv","","null","resources/images/fishbone.png","null","",NA,NA,NA,NA,""
"image-keyboard-response",384,344816,"0.0-4.124-0.124","c3vvcyfv2mb2ms3",682,"107.csv","","304.7999999523163","resources/trios/L4T4A2.jpg","38","restless",0.7,0.5,0.7,0.801996539748153,"false"
"image-keyboard-response",385,345222,"0.0-4.124-1.124","c3vvcyfv2mb2ms3",682,"107.csv","","null","resources/maskTrios/BT4B.jpg","null","",NA,NA,NA,NA,""
"image-keyboard-response",386,346425,"0.0-4.124-2.124","c3vvcyfv2mb2ms3",682,"107.csv","","null","resources/images/fishbone.png","null","",NA,NA,NA,NA,""
"image-keyboard-response",387,346872,"0.0-4.125-0.125","c3vvcyfv2mb2ms3",682,"107.csv","","445.7000000476837","resources/trios/L4T4A2.jpg","39","restless",0.7,0.5,0.7,0.420572475102358,"true"
"image-keyboard-response",388,347288,"0.0-4.125-1.125","c3vvcyfv2mb2ms3",682,"107.csv","","null","resources/maskTrios/BBA2.jpg","null","",NA,NA,NA,NA,""
"image-keyboard-response",389,348492,"0.0-4.125-2.125","c3vvcyfv2mb2ms3",682,"107.csv","","null","resources/images/coin2.png","null","",NA,NA,NA,NA,""
"image-keyboard-response",390,348850,"0.0-4.126-0.126","c3vvcyfv2mb2ms3",682,"107.csv","","356.60000002384186","resources/trios/L4T4A2.jpg","37","restless",0.7,0.5,0.7,0.669614028843945,"true"
"image-keyboard-response",391,349255,"0.0-4.126-1.126","c3vvcyfv2mb2ms3",682,"107.csv","","null","resources/maskTrios/L4BB.jpg","null","",NA,NA,NA,NA,""
"image-keyboard-response",392,350472,"0.0-4.126-2.126","c3vvcyfv2mb2ms3",682,"107.csv","","null","resources/images/coin2.png","null","",NA,NA,NA,NA,""
"image-keyboard-response",393,350792,"0.0-4.127-0.127","c3vvcyfv2mb2ms3",682,"107.csv","","318.6999999284744","resources/trios/L4T4A2.jpg","37","restless",0.6,0.5,0.7,0.237524186351128,"true"
"image-keyboard-response",394,351207,"0.0-4.127-1.127","c3vvcyfv2mb2ms3",682,"107.csv","","null","resources/maskTrios/L4BB.jpg","null","",NA,NA,NA,NA,""
"image-keyboard-response",395,352424,"0.0-4.127-2.127","c3vvcyfv2mb2ms3",682,"107.csv","","null","resources/images/coin2.png","null","",NA,NA,NA,NA,""
"image-keyboard-response",396,352733,"0.0-4.128-0.128","c3vvcyfv2mb2ms3",682,"107.csv","","307.89999997615814","resources/trios/L4T4A2.jpg","38","restless",0.6,0.5,0.7,0.3931903562935,"true"
"image-keyboard-response",397,353139,"0.0-4.128-1.128","c3vvcyfv2mb2ms3",682,"107.csv","","null","resources/maskTrios/BT4B.jpg","null","",NA,NA,NA,NA,""
"image-keyboard-response",398,354342,"0.0-4.128-2.128","c3vvcyfv2mb2ms3",682,"107.csv","","null","resources/images/coin2.png","null","",NA,NA,NA,NA,""
"image-keyboard-response",399,354676,"0.0-4.129-0.129","c3vvcyfv2mb2ms3",682,"107.csv","","333.2999999523163","resources/trios/L4T4A2.jpg","38","restless",0.6,0.5,0.7,0.454241340657319,"true"
"image-keyboard-response",400,355091,"0.0-4.129-1.129","c3vvcyfv2mb2ms3",682,"107.csv","","null","resources/maskTrios/BT4B.jpg","null","",NA,NA,NA,NA,""
"image-keyboard-response",401,356292,"0.0-4.129-2.129","c3vvcyfv2mb2ms3",682,"107.csv","","null","resources/images/coin2.png","null","",NA,NA,NA,NA,""
"image-keyboard-response",402,356617,"0.0-4.130-0.130","c3vvcyfv2mb2ms3",682,"107.csv","","332.6999999284744","resources/trios/L4T4A2.jpg","39","restless",0.6,0.5,0.7,0.217772243244255,"true"
"image-keyboard-response",403,357030,"0.0-4.130-1.130","c3vvcyfv2mb2ms3",682,"107.csv","","null","resources/maskTrios/BBA2.jpg","null","",NA,NA,NA,NA,""
"image-keyboard-response",404,358234,"0.0-4.130-2.130","c3vvcyfv2mb2ms3",682,"107.csv","","null","resources/images/coin2.png","null","",NA,NA,NA,NA,""
"image-keyboard-response",405,358882,"0.0-4.131-0.131","c3vvcyfv2mb2ms3",682,"107.csv","","647","resources/trios/L4T4A2.jpg","37","restless",0.5,0.5,0.8,0.0309687451677525,"true"
"image-keyboard-response",406,359297,"0.0-4.131-1.131","c3vvcyfv2mb2ms3",682,"107.csv","","null","resources/maskTrios/L4BB.jpg","null","",NA,NA,NA,NA,""
"image-keyboard-response",407,360499,"0.0-4.131-2.131","c3vvcyfv2mb2ms3",682,"107.csv","","null","resources/images/coin2.png","null","",NA,NA,NA,NA,""
"image-keyboard-response",408,360825,"0.0-4.132-0.132","c3vvcyfv2mb2ms3",682,"107.csv","","324.5","resources/trios/L4T4A2.jpg","37","restless",0.5,0.5,0.8,0.954506561553173,"false"
"image-keyboard-response",409,361228,"0.0-4.132-1.132","c3vvcyfv2mb2ms3",682,"107.csv","","null","resources/maskTrios/L4BB.jpg","null","",NA,NA,NA,NA,""
"image-keyboard-response",410,362432,"0.0-4.132-2.132","c3vvcyfv2mb2ms3",682,"107.csv","","null","resources/images/fishbone.png","null","",NA,NA,NA,NA,""
"image-keyboard-response",411,362752,"0.0-4.133-0.133","c3vvcyfv2mb2ms3",682,"107.csv","","317.6999999284744","resources/trios/L4T4A2.jpg","38","restless",0.5,0.5,0.8,0.266479798143692,"true"
"image-keyboard-response",412,363164,"0.0-4.133-1.133","c3vvcyfv2mb2ms3",682,"107.csv","","null","resources/maskTrios/BT4B.jpg","null","",NA,NA,NA,NA,""
"image-keyboard-response",413,364366,"0.0-4.133-2.133","c3vvcyfv2mb2ms3",682,"107.csv","","null","resources/images/coin2.png","null","",NA,NA,NA,NA,""
"image-keyboard-response",414,364657,"0.0-4.134-0.134","c3vvcyfv2mb2ms3",682,"107.csv","","288.7999999523163","resources/trios/L4T4A2.jpg","38","restless",0.5,0.5,0.8,0.425952833515703,"true"
"image-keyboard-response",415,365062,"0.0-4.134-1.134","c3vvcyfv2mb2ms3",682,"107.csv","","null","resources/maskTrios/BT4B.jpg","null","",NA,NA,NA,NA,""
"image-keyboard-response",416,366265,"0.0-4.134-2.134","c3vvcyfv2mb2ms3",682,"107.csv","","null","resources/images/coin2.png","null","",NA,NA,NA,NA,""
"image-keyboard-response",417,366761,"0.0-4.135-0.135","c3vvcyfv2mb2ms3",682,"107.csv","","494.39999997615814","resources/trios/L4T4A2.jpg","39","restless",0.5,0.5,0.8,0.764648003866685,"true"
"image-keyboard-response",418,367165,"0.0-4.135-1.135","c3vvcyfv2mb2ms3",682,"107.csv","","null","resources/maskTrios/BBA2.jpg","null","",NA,NA,NA,NA,""
"image-keyboard-response",419,368381,"0.0-4.135-2.135","c3vvcyfv2mb2ms3",682,"107.csv","","null","resources/images/coin2.png","null","",NA,NA,NA,NA,""
"image-keyboard-response",420,369127,"0.0-4.136-0.136","c3vvcyfv2mb2ms3",682,"107.csv","","743.8999999761581","resources/trios/L4T4A2.jpg","39","restless",0.5,0.5,0.8,0.192866613807382,"true"
"image-keyboard-response",421,369529,"0.0-4.136-1.136","c3vvcyfv2mb2ms3",682,"107.csv","","null","resources/maskTrios/BBA2.jpg","null","",NA,NA,NA,NA,""
"image-keyboard-response",422,370732,"0.0-4.136-2.136","c3vvcyfv2mb2ms3",682,"107.csv","","null","resources/images/coin2.png","null","",NA,NA,NA,NA,""
"image-keyboard-response",423,371091,"0.0-4.137-0.137","c3vvcyfv2mb2ms3",682,"107.csv","","358.3000000715256","resources/trios/L4T4A2.jpg","37","restless",0.5,0.5,0.8,0.385334115066555,"true"
"image-keyboard-response",424,371497,"0.0-4.137-1.137","c3vvcyfv2mb2ms3",682,"107.csv","","null","resources/maskTrios/L4BB.jpg","null","",NA,NA,NA,NA,""
"image-keyboard-response",425,372701,"0.0-4.137-2.137","c3vvcyfv2mb2ms3",682,"107.csv","","null","resources/images/coin2.png","null","",NA,NA,NA,NA,""
"image-keyboard-response",426,373036,"0.0-4.138-0.138","c3vvcyfv2mb2ms3",682,"107.csv","","333.89999997615814","resources/trios/L4T4A2.jpg","37","restless",0.5,0.5,0.8,0.859490247412075,"false"
"image-keyboard-response",427,373447,"0.0-4.138-1.138","c3vvcyfv2mb2ms3",682,"107.csv","","null","resources/maskTrios/L4BB.jpg","null","",NA,NA,NA,NA,""
"image-keyboard-response",428,374664,"0.0-4.138-2.138","c3vvcyfv2mb2ms3",682,"107.csv","","null","resources/images/fishbone.png","null","",NA,NA,NA,NA,""
"image-keyboard-response",429,374980,"0.0-4.139-0.139","c3vvcyfv2mb2ms3",682,"107.csv","","315.10000002384186","resources/trios/L4T4A2.jpg","38","restless",0.5,0.4,0.8,0.397232317897198,"true"
"image-keyboard-response",430,375396,"0.0-4.139-1.139","c3vvcyfv2mb2ms3",682,"107.csv","","null","resources/maskTrios/BT4B.jpg","null","",NA,NA,NA,NA,""
"image-keyboard-response",431,376599,"0.0-4.139-2.139","c3vvcyfv2mb2ms3",682,"107.csv","","null","resources/images/coin2.png","null","",NA,NA,NA,NA,""
"image-keyboard-response",432,376899,"0.0-4.140-0.140","c3vvcyfv2mb2ms3",682,"107.csv","","298.5","resources/trios/L4T4A2.jpg","38","restless",0.5,0.4,0.8,0.429091932283948,"false"
"image-keyboard-response",433,377314,"0.0-4.140-1.140","c3vvcyfv2mb2ms3",682,"107.csv","","null","resources/maskTrios/BT4B.jpg","null","",NA,NA,NA,NA,""
"image-keyboard-response",434,378515,"0.0-4.140-2.140","c3vvcyfv2mb2ms3",682,"107.csv","","null","resources/images/fishbone.png","null","",NA,NA,NA,NA,""
"image-keyboard-response",435,378814,"0.0-4.141-0.141","c3vvcyfv2mb2ms3",682,"107.csv","","298","resources/trios/L4T4A2.jpg","39","restless",0.5,0.4,0.8,0.621800630148331,"true"
"image-keyboard-response",436,379230,"0.0-4.141-1.141","c3vvcyfv2mb2ms3",682,"107.csv","","null","resources/maskTrios/BBA2.jpg","null","",NA,NA,NA,NA,""
"image-keyboard-response",437,380435,"0.0-4.141-2.141","c3vvcyfv2mb2ms3",682,"107.csv","","null","resources/images/coin2.png","null","",NA,NA,NA,NA,""
"image-keyboard-response",438,380777,"0.0-4.142-0.142","c3vvcyfv2mb2ms3",682,"107.csv","","340.5","resources/trios/L4T4A2.jpg","39","restless",0.4,0.4,0.8,0.180736426973059,"true"
"image-keyboard-response",439,381180,"0.0-4.142-1.142","c3vvcyfv2mb2ms3",682,"107.csv","","null","resources/maskTrios/BBA2.jpg","null","",NA,NA,NA,NA,""
"image-keyboard-response",440,382383,"0.0-4.142-2.142","c3vvcyfv2mb2ms3",682,"107.csv","","null","resources/images/coin2.png","null","",NA,NA,NA,NA,""
"image-keyboard-response",441,382749,"0.0-4.143-0.143","c3vvcyfv2mb2ms3",682,"107.csv","","364.3000000715256","resources/trios/L4T4A2.jpg","39","restless",0.4,0.4,0.8,0.0912992692887911,"true"
"image-keyboard-response",442,383164,"0.0-4.143-1.143","c3vvcyfv2mb2ms3",682,"107.csv","","null","resources/maskTrios/BBA2.jpg","null","",NA,NA,NA,NA,""
"image-keyboard-response",443,384366,"0.0-4.143-2.143","c3vvcyfv2mb2ms3",682,"107.csv","","null","resources/images/coin2.png","null","",NA,NA,NA,NA,""
"image-keyboard-response",444,384723,"0.0-4.144-0.144","c3vvcyfv2mb2ms3",682,"107.csv","","355.3000000715256","resources/trios/L4T4A2.jpg","37","restless",0.4,0.4,0.8,0.527372163745339,"false"
"image-keyboard-response",445,385129,"0.0-4.144-1.144","c3vvcyfv2mb2ms3",682,"107.csv","","null","resources/maskTrios/L4BB.jpg","null","",NA,NA,NA,NA,""
"image-keyboard-response",446,386332,"0.0-4.144-2.144","c3vvcyfv2mb2ms3",682,"107.csv","","null","resources/images/fishbone.png","null","",NA,NA,NA,NA,""
"image-keyboard-response",447,386668,"0.0-4.145-0.145","c3vvcyfv2mb2ms3",682,"107.csv","","335.3000000715256","resources/trios/L4T4A2.jpg","39","restless",0.4,0.4,0.8,0.216717172033464,"true"
"image-keyboard-response",448,387082,"0.0-4.145-1.145","c3vvcyfv2mb2ms3",682,"107.csv","","null","resources/maskTrios/BBA2.jpg","null","",NA,NA,NA,NA,""
"image-keyboard-response",449,388298,"0.0-4.145-2.145","c3vvcyfv2mb2ms3",682,"107.csv","","null","resources/images/coin2.png","null","",NA,NA,NA,NA,""
"image-keyboard-response",450,388680,"0.0-4.146-0.146","c3vvcyfv2mb2ms3",682,"107.csv","","380.5","resources/trios/L4T4A2.jpg","39","restless",0.4,0.4,0.8,0.7976933182718,"true"
"image-keyboard-response",451,389096,"0.0-4.146-1.146","c3vvcyfv2mb2ms3",682,"107.csv","","null","resources/maskTrios/BBA2.jpg","null","",NA,NA,NA,NA,""
"image-keyboard-response",452,390299,"0.0-4.146-2.146","c3vvcyfv2mb2ms3",682,"107.csv","","null","resources/images/coin2.png","null","",NA,NA,NA,NA,""
"image-keyboard-response",453,390749,"0.0-4.147-0.147","c3vvcyfv2mb2ms3",682,"107.csv","","448.1999999284744","resources/trios/L4T4A2.jpg","39","restless",0.4,0.4,0.8,0.440599855228878,"true"
"image-keyboard-response",454,391163,"0.0-4.147-1.147","c3vvcyfv2mb2ms3",682,"107.csv","","null","resources/maskTrios/BBA2.jpg","null","",NA,NA,NA,NA,""
"image-keyboard-response",455,392366,"0.0-4.147-2.147","c3vvcyfv2mb2ms3",682,"107.csv","","null","resources/images/coin2.png","null","",NA,NA,NA,NA,""
"image-keyboard-response",456,392833,"0.0-4.148-0.148","c3vvcyfv2mb2ms3",682,"107.csv","","465","resources/trios/L4T4A2.jpg","39","restless",0.4,0.4,0.8,0.1760027632504,"true"
"image-keyboard-response",457,393247,"0.0-4.148-1.148","c3vvcyfv2mb2ms3",682,"107.csv","","null","resources/maskTrios/BBA2.jpg","null","",NA,NA,NA,NA,""
"image-keyboard-response",458,394449,"0.0-4.148-2.148","c3vvcyfv2mb2ms3",682,"107.csv","","null","resources/images/coin2.png","null","",NA,NA,NA,NA,""
"image-keyboard-response",459,394775,"0.0-4.149-0.149","c3vvcyfv2mb2ms3",682,"107.csv","","325.09999990463257","resources/trios/L4T4A2.jpg","39","restless",0.4,0.4,0.8,0.222737622915471,"true"
"image-keyboard-response",460,395180,"0.0-4.149-1.149","c3vvcyfv2mb2ms3",682,"107.csv","","null","resources/maskTrios/BBA2.jpg","null","",NA,NA,NA,NA,""
"image-keyboard-response",461,396398,"0.0-4.149-2.149","c3vvcyfv2mb2ms3",682,"107.csv","","null","resources/images/coin2.png","null","",NA,NA,NA,NA,""
"image-keyboard-response",462,396615,"0.0-4.150-0.150","c3vvcyfv2mb2ms3",682,"107.csv","","215.29999995231628","resources/trios/L4T4A2.jpg","39","restless",0.4,0.4,0.8,0.660131449121944,"true"
"image-keyboard-response",463,397031,"0.0-4.150-1.150","c3vvcyfv2mb2ms3",682,"107.csv","","null","resources/maskTrios/BBA2.jpg","null","",NA,NA,NA,NA,""
"image-keyboard-response",464,398234,"0.0-4.150-2.150","c3vvcyfv2mb2ms3",682,"107.csv","","null","resources/images/coin2.png","null","",NA,NA,NA,NA,""
"image-keyboard-response",465,398477,"0.0-4.151-0.151","c3vvcyfv2mb2ms3",682,"107.csv","","240.69999992847443","resources/trios/L4T4A2.jpg","39","restless",0.4,0.4,0.8,0.313563434713699,"true"
"image-keyboard-response",466,398879,"0.0-4.151-1.151","c3vvcyfv2mb2ms3",682,"107.csv","","null","resources/maskTrios/BBA2.jpg","null","",NA,NA,NA,NA,""
"image-keyboard-response",467,400081,"0.0-4.151-2.151","c3vvcyfv2mb2ms3",682,"107.csv","","null","resources/images/coin2.png","null","",NA,NA,NA,NA,""
"image-keyboard-response",468,400459,"0.0-4.152-0.152","c3vvcyfv2mb2ms3",682,"107.csv","","375.7000000476837","resources/trios/L4T4A2.jpg","39","restless",0.3,0.4,0.8,0.325342970468116,"true"
"image-keyboard-response",469,400863,"0.0-4.152-1.152","c3vvcyfv2mb2ms3",682,"107.csv","","null","resources/maskTrios/BBA2.jpg","null","",NA,NA,NA,NA,""
"image-keyboard-response",470,402080,"0.0-4.152-2.152","c3vvcyfv2mb2ms3",682,"107.csv","","null","resources/images/coin2.png","null","",NA,NA,NA,NA,""
"image-keyboard-response",471,402793,"0.0-4.153-0.153","c3vvcyfv2mb2ms3",682,"107.csv","","711.3999999761581","resources/trios/L4T4A2.jpg","39","restless",0.3,0.4,0.7,0.946997796158229,"false"
"image-keyboard-response",472,403196,"0.0-4.153-1.153","c3vvcyfv2mb2ms3",682,"107.csv","","null","resources/maskTrios/BBA2.jpg","null","",NA,NA,NA,NA,""
"image-keyboard-response",473,404399,"0.0-4.153-2.153","c3vvcyfv2mb2ms3",682,"107.csv","","null","resources/images/fishbone.png","null","",NA,NA,NA,NA,""
"image-keyboard-response",474,404846,"0.0-4.154-0.154","c3vvcyfv2mb2ms3",682,"107.csv","","445.8000000715256","resources/trios/L4T4A2.jpg","37","restless",0.3,0.4,0.7,0.0292846546729089,"true"
"image-keyboard-response",475,405263,"0.0-4.154-1.154","c3vvcyfv2mb2ms3",682,"107.csv","","null","resources/maskTrios/L4BB.jpg","null","",NA,NA,NA,NA,""
"image-keyboard-response",476,406467,"0.0-4.154-2.154","c3vvcyfv2mb2ms3",682,"107.csv","","null","resources/images/coin2.png","null","",NA,NA,NA,NA,""
"image-keyboard-response",477,406867,"0.0-4.155-0.155","c3vvcyfv2mb2ms3",682,"107.csv","","397.6999999284744","resources/trios/L4T4A2.jpg","37","restless",0.3,0.4,0.7,0.0806544026466081,"true"
"image-keyboard-response",478,407281,"0.0-4.155-1.155","c3vvcyfv2mb2ms3",682,"107.csv","","null","resources/maskTrios/L4BB.jpg","null","",NA,NA,NA,NA,""
"image-keyboard-response",479,408497,"0.0-4.155-2.155","c3vvcyfv2mb2ms3",682,"107.csv","","null","resources/images/coin2.png","null","",NA,NA,NA,NA,""
"image-keyboard-response",480,408858,"0.0-4.156-0.156","c3vvcyfv2mb2ms3",682,"107.csv","","359.6999999284744","resources/trios/L4T4A2.jpg","37","restless",0.3,0.4,0.7,0.440917053109817,"false"
"image-keyboard-response",481,409265,"0.0-4.156-1.156","c3vvcyfv2mb2ms3",682,"107.csv","","null","resources/maskTrios/L4BB.jpg","null","",NA,NA,NA,NA,""
"image-keyboard-response",482,410468,"0.0-4.156-2.156","c3vvcyfv2mb2ms3",682,"107.csv","","null","resources/images/fishbone.png","null","",NA,NA,NA,NA,""
"image-keyboard-response",483,410761,"0.0-4.157-0.157","c3vvcyfv2mb2ms3",682,"107.csv","","291.39999997615814","resources/trios/L4T4A2.jpg","38","restless",0.3,0.4,0.6,0.404544466175202,"false"
"image-keyboard-response",484,411163,"0.0-4.157-1.157","c3vvcyfv2mb2ms3",682,"107.csv","","null","resources/maskTrios/BT4B.jpg","null","",NA,NA,NA,NA,""
"image-keyboard-response",485,412366,"0.0-4.157-2.157","c3vvcyfv2mb2ms3",682,"107.csv","","null","resources/images/fishbone.png","null","",NA,NA,NA,NA,""
"image-keyboard-response",486,412643,"0.0-4.158-0.158","c3vvcyfv2mb2ms3",682,"107.csv","","275.2999999523163","resources/trios/L4T4A2.jpg","38","restless",0.3,0.4,0.6,0.113071681082114,"true"
"image-keyboard-response",487,413046,"0.0-4.158-1.158","c3vvcyfv2mb2ms3",682,"107.csv","","null","resources/maskTrios/BT4B.jpg","null","",NA,NA,NA,NA,""
"image-keyboard-response",488,414254,"0.0-4.158-2.158","c3vvcyfv2mb2ms3",682,"107.csv","","null","resources/images/coin2.png","null","",NA,NA,NA,NA,""
"image-keyboard-response",489,414534,"0.0-4.159-0.159","c3vvcyfv2mb2ms3",682,"107.csv","","279","resources/trios/L4T4A2.jpg","38","restless",0.3,0.4,0.7,0.528143978562501,"false"
"image-keyboard-response",490,414946,"0.0-4.159-1.159","c3vvcyfv2mb2ms3",682,"107.csv","","null","resources/maskTrios/BT4B.jpg","null","",NA,NA,NA,NA,""
"image-keyboard-response",491,416150,"0.0-4.159-2.159","c3vvcyfv2mb2ms3",682,"107.csv","","null","resources/images/fishbone.png","null","",NA,NA,NA,NA,""
"image-keyboard-response",492,416458,"0.0-4.160-0.160","c3vvcyfv2mb2ms3",682,"107.csv","","306","resources/trios/L4T4A2.jpg","39","restless",0.3,0.4,0.6,0.326961978549018,"true"
"image-keyboard-response",493,416882,"0.0-4.160-1.160","c3vvcyfv2mb2ms3",682,"107.csv","","null","resources/maskTrios/BBA2.jpg","null","",NA,NA,NA,NA,""
"image-keyboard-response",494,418085,"0.0-4.160-2.160","c3vvcyfv2mb2ms3",682,"107.csv","","null","resources/images/coin2.png","null","",NA,NA,NA,NA,""
"image-keyboard-response",495,418443,"0.0-4.161-0.161","c3vvcyfv2mb2ms3",682,"107.csv","","356.10000002384186","resources/trios/L4T4A2.jpg","39","restless",0.3,0.4,0.6,0.42955136718431,"true"
"image-keyboard-response",496,418847,"0.0-4.161-1.161","c3vvcyfv2mb2ms3",682,"107.csv","","null","resources/maskTrios/BBA2.jpg","null","",NA,NA,NA,NA,""
"image-keyboard-response",497,420048,"0.0-4.161-2.161","c3vvcyfv2mb2ms3",682,"107.csv","","null","resources/images/coin2.png","null","",NA,NA,NA,NA,""
"image-keyboard-response",498,420415,"0.0-4.162-0.162","c3vvcyfv2mb2ms3",682,"107.csv","","364.6999999284744","resources/trios/L4T4A2.jpg","39","restless",0.3,0.4,0.6,0.195760452871273,"true"
"image-keyboard-response",499,420831,"0.0-4.162-1.162","c3vvcyfv2mb2ms3",682,"107.csv","","null","resources/maskTrios/BBA2.jpg","null","",NA,NA,NA,NA,""
"image-keyboard-response",500,422037,"0.0-4.162-2.162","c3vvcyfv2mb2ms3",682,"107.csv","","null","resources/images/coin2.png","null","",NA,NA,NA,NA,""
"image-keyboard-response",501,422376,"0.0-4.163-0.163","c3vvcyfv2mb2ms3",682,"107.csv","","338.40000009536743","resources/trios/L4T4A2.jpg","39","restless",0.3,0.4,0.6,0.522880617263616,"true"
"image-keyboard-response",502,422781,"0.0-4.163-1.163","c3vvcyfv2mb2ms3",682,"107.csv","","null","resources/maskTrios/BBA2.jpg","null","",NA,NA,NA,NA,""
"image-keyboard-response",503,423985,"0.0-4.163-2.163","c3vvcyfv2mb2ms3",682,"107.csv","","null","resources/images/coin2.png","null","",NA,NA,NA,NA,""
"image-keyboard-response",504,424319,"0.0-4.164-0.164","c3vvcyfv2mb2ms3",682,"107.csv","","332.60000002384186","resources/trios/L4T4A2.jpg","39","restless",0.3,0.4,0.5,0.903996654462358,"false"
"image-keyboard-response",505,424731,"0.0-4.164-1.164","c3vvcyfv2mb2ms3",682,"107.csv","","null","resources/maskTrios/BBA2.jpg","null","",NA,NA,NA,NA,""
"image-keyboard-response",506,425933,"0.0-4.164-2.164","c3vvcyfv2mb2ms3",682,"107.csv","","null","resources/images/fishbone.png","null","",NA,NA,NA,NA,""
"image-keyboard-response",507,426007,"0.0-4.165-0.165","c3vvcyfv2mb2ms3",682,"107.csv","","72.60000002384186","resources/trios/L4T4A2.jpg","37","restless",0.3,0.4,0.5,0.907685136816037,"false"
"image-keyboard-response",508,426417,"0.0-4.165-1.165","c3vvcyfv2mb2ms3",682,"107.csv","","null","resources/maskTrios/L4BB.jpg","null","",NA,NA,NA,NA,""
"image-keyboard-response",509,427632,"0.0-4.165-2.165","c3vvcyfv2mb2ms3",682,"107.csv","","null","resources/images/fishbone.png","null","",NA,NA,NA,NA,""
"image-keyboard-response",510,427885,"0.0-4.166-0.166","c3vvcyfv2mb2ms3",682,"107.csv","","251.39999997615814","resources/trios/L4T4A2.jpg","38","restless",0.3,0.4,0.5,0.493376127725359,"false"
"image-keyboard-response",511,428299,"0.0-4.166-1.166","c3vvcyfv2mb2ms3",682,"107.csv","","null","resources/maskTrios/BT4B.jpg","null","",NA,NA,NA,NA,""
"image-keyboard-response",512,429500,"0.0-4.166-2.166","c3vvcyfv2mb2ms3",682,"107.csv","","null","resources/images/fishbone.png","null","",NA,NA,NA,NA,""
"image-keyboard-response",513,429858,"0.0-4.167-0.167","c3vvcyfv2mb2ms3",682,"107.csv","","356.7000000476837","resources/trios/L4T4A2.jpg","37","restless",0.3,0.4,0.5,0.199590109695654,"true"
"image-keyboard-response",514,430264,"0.0-4.167-1.167","c3vvcyfv2mb2ms3",682,"107.csv","","null","resources/maskTrios/L4BB.jpg","null","",NA,NA,NA,NA,""
"image-keyboard-response",515,431467,"0.0-4.167-2.167","c3vvcyfv2mb2ms3",682,"107.csv","","null","resources/images/coin2.png","null","",NA,NA,NA,NA,""
"image-keyboard-response",516,431769,"0.0-4.168-0.168","c3vvcyfv2mb2ms3",682,"107.csv","","300.39999997615814","resources/trios/L4T4A2.jpg","37","restless",0.3,0.4,0.5,0.27459440235567,"true"
"image-keyboard-response",517,432181,"0.0-4.168-1.168","c3vvcyfv2mb2ms3",682,"107.csv","","null","resources/maskTrios/L4BB.jpg","null","",NA,NA,NA,NA,""
"image-keyboard-response",518,433385,"0.0-4.168-2.168","c3vvcyfv2mb2ms3",682,"107.csv","","null","resources/images/coin2.png","null","",NA,NA,NA,NA,""
"image-keyboard-response",519,433737,"0.0-4.169-0.169","c3vvcyfv2mb2ms3",682,"107.csv","","350.39999997615814","resources/trios/L4T4A2.jpg","37","restless",0.4,0.4,0.5,0.948091172588196,"false"
"image-keyboard-response",520,434147,"0.0-4.169-1.169","c3vvcyfv2mb2ms3",682,"107.csv","","null","resources/maskTrios/L4BB.jpg","null","",NA,NA,NA,NA,""
"image-keyboard-response",521,435349,"0.0-4.169-2.169","c3vvcyfv2mb2ms3",682,"107.csv","","null","resources/images/fishbone.png","null","",NA,NA,NA,NA,""
"image-keyboard-response",522,435745,"0.0-4.170-0.170","c3vvcyfv2mb2ms3",682,"107.csv","","393.59999990463257","resources/trios/L4T4A2.jpg","39","restless",0.4,0.4,0.5,0.907873307228515,"false"
"image-keyboard-response",523,436147,"0.0-4.170-1.170","c3vvcyfv2mb2ms3",682,"107.csv","","null","resources/maskTrios/BBA2.jpg","null","",NA,NA,NA,NA,""
"image-keyboard-response",524,437352,"0.0-4.170-2.170","c3vvcyfv2mb2ms3",682,"107.csv","","null","resources/images/fishbone.png","null","",NA,NA,NA,NA,""
"image-keyboard-response",525,437855,"0.0-4.171-0.171","c3vvcyfv2mb2ms3",682,"107.csv","","501.60000002384186","resources/trios/L4T4A2.jpg","38","restless",0.4,0.5,0.5,0.561399955971199,"false"
"image-keyboard-response",526,438265,"0.0-4.171-1.171","c3vvcyfv2mb2ms3",682,"107.csv","","null","resources/maskTrios/BT4B.jpg","null","",NA,NA,NA,NA,""
"image-keyboard-response",527,439467,"0.0-4.171-2.171","c3vvcyfv2mb2ms3",682,"107.csv","","null","resources/images/fishbone.png","null","",NA,NA,NA,NA,""
"image-keyboard-response",528,439500,"0.0-4.172-0.172","c3vvcyfv2mb2ms3",682,"107.csv","","31.199999928474426","resources/trios/L4T4A2.jpg","37","restless",0.4,0.5,0.4,0.361827538301106,"true"
"image-keyboard-response",529,439915,"0.0-4.172-1.172","c3vvcyfv2mb2ms3",682,"107.csv","","null","resources/maskTrios/L4BB.jpg","null","",NA,NA,NA,NA,""
"image-keyboard-response",530,441118,"0.0-4.172-2.172","c3vvcyfv2mb2ms3",682,"107.csv","","null","resources/images/coin2.png","null","",NA,NA,NA,NA,""
"image-keyboard-response",531,441374,"0.0-4.173-0.173","c3vvcyfv2mb2ms3",682,"107.csv","","254.60000002384186","resources/trios/L4T4A2.jpg","37","restless",0.4,0.5,0.4,0.571602556342248,"false"
"image-keyboard-response",532,441780,"0.0-4.173-1.173","c3vvcyfv2mb2ms3",682,"107.csv","","null","resources/maskTrios/L4BB.jpg","null","",NA,NA,NA,NA,""
"image-keyboard-response",533,442984,"0.0-4.173-2.173","c3vvcyfv2mb2ms3",682,"107.csv","","null","resources/images/fishbone.png","null","",NA,NA,NA,NA,""
"image-keyboard-response",534,443326,"0.0-4.174-0.174","c3vvcyfv2mb2ms3",682,"107.csv","","341.10000002384186","resources/trios/L4T4A2.jpg","38","restless",0.4,0.5,0.4,0.565138975235931,"false"
"image-keyboard-response",535,443731,"0.0-4.174-1.174","c3vvcyfv2mb2ms3",682,"107.csv","","null","resources/maskTrios/BT4B.jpg","null","",NA,NA,NA,NA,""
"image-keyboard-response",536,444949,"0.0-4.174-2.174","c3vvcyfv2mb2ms3",682,"107.csv","","null","resources/images/fishbone.png","null","",NA,NA,NA,NA,""
"image-keyboard-response",537,445152,"0.0-4.175-0.175","c3vvcyfv2mb2ms3",682,"107.csv","","202.20000004768372","resources/trios/L4T4A2.jpg","39","restless",0.4,0.5,0.4,0.0217496449083223,"true"
"image-keyboard-response",538,445564,"0.0-4.175-1.175","c3vvcyfv2mb2ms3",682,"107.csv","","null","resources/maskTrios/BBA2.jpg","null","",NA,NA,NA,NA,""
"image-keyboard-response",539,446781,"0.0-4.175-2.175","c3vvcyfv2mb2ms3",682,"107.csv","","null","resources/images/coin2.png","null","",NA,NA,NA,NA,""
"image-keyboard-response",540,447023,"0.0-4.176-0.176","c3vvcyfv2mb2ms3",682,"107.csv","","240.60000002384186","resources/trios/L4T4A2.jpg","39","restless",0.4,0.5,0.4,0.814350809939431,"false"
"image-keyboard-response",541,447431,"0.0-4.176-1.176","c3vvcyfv2mb2ms3",682,"107.csv","","null","resources/maskTrios/BBA2.jpg","null","",NA,NA,NA,NA,""
"image-keyboard-response",542,448635,"0.0-4.176-2.176","c3vvcyfv2mb2ms3",682,"107.csv","","null","resources/images/fishbone.png","null","",NA,NA,NA,NA,""
"image-keyboard-response",543,448749,"0.0-4.177-0.177","c3vvcyfv2mb2ms3",682,"107.csv","","112.59999990463257","resources/trios/L4T4A2.jpg","37","restless",0.4,0.6,0.4,0.224635422497878,"true"
"image-keyboard-response",544,449165,"0.0-4.177-1.177","c3vvcyfv2mb2ms3",682,"107.csv","","null","resources/maskTrios/L4BB.jpg","null","",NA,NA,NA,NA,""
"image-keyboard-response",545,450368,"0.0-4.177-2.177","c3vvcyfv2mb2ms3",682,"107.csv","","null","resources/images/coin2.png","null","",NA,NA,NA,NA,""
"image-keyboard-response",546,450646,"0.0-4.178-0.178","c3vvcyfv2mb2ms3",682,"107.csv","","276.5","resources/trios/L4T4A2.jpg","37","restless",0.3,0.6,0.4,0.788891985200546,"false"
"image-keyboard-response",547,451048,"0.0-4.178-1.178","c3vvcyfv2mb2ms3",682,"107.csv","","null","resources/maskTrios/L4BB.jpg","null","",NA,NA,NA,NA,""
"image-keyboard-response",548,452252,"0.0-4.178-2.178","c3vvcyfv2mb2ms3",682,"107.csv","","null","resources/images/fishbone.png","null","",NA,NA,NA,NA,""
"image-keyboard-response",549,452583,"0.0-4.179-0.179","c3vvcyfv2mb2ms3",682,"107.csv","","329.2000000476837","resources/trios/L4T4A2.jpg","38","restless",0.3,0.6,0.4,0.140212751393159,"true"
"image-keyboard-response",550,452996,"0.0-4.179-1.179","c3vvcyfv2mb2ms3",682,"107.csv","","null","resources/maskTrios/BT4B.jpg","null","",NA,NA,NA,NA,""
"image-keyboard-response",551,454200,"0.0-4.179-2.179","c3vvcyfv2mb2ms3",682,"107.csv","","null","resources/images/coin2.png","null","",NA,NA,NA,NA,""
"image-keyboard-response",552,454381,"0.0-4.180-0.180","c3vvcyfv2mb2ms3",682,"107.csv","","179.5","resources/trios/L4T4A2.jpg","38","restless",0.3,0.6,0.4,0.614765411134152,"false"
"image-keyboard-response",553,454783,"0.0-4.180-1.180","c3vvcyfv2mb2ms3",682,"107.csv","","null","resources/maskTrios/BT4B.jpg","null","",NA,NA,NA,NA,""
"image-keyboard-response",554,455998,"0.0-4.180-2.180","c3vvcyfv2mb2ms3",682,"107.csv","","null","resources/images/fishbone.png","null","",NA,NA,NA,NA,""
"image-keyboard-response",555,456545,"0.0-4.181-0.181","c3vvcyfv2mb2ms3",682,"107.csv","","545.3999999761581","resources/trios/L4T4A2.jpg","39","restless",0.3,0.6,0.4,0.629587593731481,"false"
"image-keyboard-response",556,456946,"0.0-4.181-1.181","c3vvcyfv2mb2ms3",682,"107.csv","","null","resources/maskTrios/BBA2.jpg","null","",NA,NA,NA,NA,""
"image-keyboard-response",557,458148,"0.0-4.181-2.181","c3vvcyfv2mb2ms3",682,"107.csv","","null","resources/images/fishbone.png","null","",NA,NA,NA,NA,""
"image-keyboard-response",558,458419,"0.0-4.182-0.182","c3vvcyfv2mb2ms3",682,"107.csv","","269","resources/trios/L4T4A2.jpg","37","restless",0.3,0.6,0.4,0.972703515480901,"false"
"image-keyboard-response",559,458830,"0.0-4.182-1.182","c3vvcyfv2mb2ms3",682,"107.csv","","null","resources/maskTrios/L4BB.jpg","null","",NA,NA,NA,NA,""
"image-keyboard-response",560,460047,"0.0-4.182-2.182","c3vvcyfv2mb2ms3",682,"107.csv","","null","resources/images/fishbone.png","null","",NA,NA,NA,NA,""
"image-keyboard-response",561,460245,"0.0-4.183-0.183","c3vvcyfv2mb2ms3",682,"107.csv","","196.29999995231628","resources/trios/L4T4A2.jpg","38","restless",0.3,0.5,0.5,0.90906585845188,"false"
"image-keyboard-response",562,460648,"0.0-4.183-1.183","c3vvcyfv2mb2ms3",682,"107.csv","","null","resources/maskTrios/BT4B.jpg","null","",NA,NA,NA,NA,""
"image-keyboard-response",563,461852,"0.0-4.183-2.183","c3vvcyfv2mb2ms3",682,"107.csv","","null","resources/images/fishbone.png","null","",NA,NA,NA,NA,""
"image-keyboard-response",564,462116,"0.0-4.184-0.184","c3vvcyfv2mb2ms3",682,"107.csv","","261.89999997615814","resources/trios/L4T4A2.jpg","38","restless",0.3,0.5,0.5,0.986258325338474,"false"
"image-keyboard-response",565,462532,"0.0-4.184-1.184","c3vvcyfv2mb2ms3",682,"107.csv","","null","resources/maskTrios/BT4B.jpg","null","",NA,NA,NA,NA,""
"image-keyboard-response",566,463735,"0.0-4.184-2.184","c3vvcyfv2mb2ms3",682,"107.csv","","null","resources/images/fishbone.png","null","",NA,NA,NA,NA,""
"image-keyboard-response",567,464033,"0.0-4.185-0.185","c3vvcyfv2mb2ms3",682,"107.csv","","296.5","resources/trios/L4T4A2.jpg","39","restless",0.3,0.5,0.5,0.0875918183679953,"true"
"image-keyboard-response",568,464447,"0.0-4.185-1.185","c3vvcyfv2mb2ms3",682,"107.csv","","null","resources/maskTrios/BBA2.jpg","null","",NA,NA,NA,NA,""
"image-keyboard-response",569,465651,"0.0-4.185-2.185","c3vvcyfv2mb2ms3",682,"107.csv","","null","resources/images/coin2.png","null","",NA,NA,NA,NA,""
"image-keyboard-response",570,465998,"0.0-4.186-0.186","c3vvcyfv2mb2ms3",682,"107.csv","","346","resources/trios/L4T4A2.jpg","39","restless",0.3,0.5,0.5,0.915315524212812,"false"
"image-keyboard-response",571,466415,"0.0-4.186-1.186","c3vvcyfv2mb2ms3",682,"107.csv","","null","resources/maskTrios/BBA2.jpg","null","",NA,NA,NA,NA,""
"image-keyboard-response",572,467631,"0.0-4.186-2.186","c3vvcyfv2mb2ms3",682,"107.csv","","null","resources/images/fishbone.png","null","",NA,NA,NA,NA,""
"image-keyboard-response",573,467891,"0.0-4.187-0.187","c3vvcyfv2mb2ms3",682,"107.csv","","257.89999997615814","resources/trios/L4T4A2.jpg","37","restless",0.3,0.5,0.5,0.277400455747594,"true"
"image-keyboard-response",574,468299,"0.0-4.187-1.187","c3vvcyfv2mb2ms3",682,"107.csv","","null","resources/maskTrios/L4BB.jpg","null","",NA,NA,NA,NA,""
"image-keyboard-response",575,469516,"0.0-4.187-2.187","c3vvcyfv2mb2ms3",682,"107.csv","","null","resources/images/coin2.png","null","",NA,NA,NA,NA,""
"image-keyboard-response",576,469764,"0.0-4.188-0.188","c3vvcyfv2mb2ms3",682,"107.csv","","246.69999992847443","resources/trios/L4T4A2.jpg","37","restless",0.2,0.5,0.5,0.544110198926863,"false"
"image-keyboard-response",577,470181,"0.0-4.188-1.188","c3vvcyfv2mb2ms3",682,"107.csv","","null","resources/maskTrios/L4BB.jpg","null","",NA,NA,NA,NA,""
"image-keyboard-response",578,471399,"0.0-4.188-2.188","c3vvcyfv2mb2ms3",682,"107.csv","","null","resources/images/fishbone.png","null","",NA,NA,NA,NA,""
"image-keyboard-response",579,471741,"0.0-4.189-0.189","c3vvcyfv2mb2ms3",682,"107.csv","","340.60000002384186","resources/trios/L4T4A2.jpg","38","restless",0.2,0.5,0.5,0.460837124877106,"true"
"image-keyboard-response",580,472148,"0.0-4.189-1.189","c3vvcyfv2mb2ms3",682,"107.csv","","null","resources/maskTrios/BT4B.jpg","null","",NA,NA,NA,NA,""
"image-keyboard-response",581,473352,"0.0-4.189-2.189","c3vvcyfv2mb2ms3",682,"107.csv","","null","resources/images/coin2.png","null","",NA,NA,NA,NA,""
"image-keyboard-response",582,473699,"0.0-4.190-0.190","c3vvcyfv2mb2ms3",682,"107.csv","","346","resources/trios/L4T4A2.jpg","38","restless",0.2,0.5,0.5,0.288239856840549,"true"
"image-keyboard-response",583,474114,"0.0-4.190-1.190","c3vvcyfv2mb2ms3",682,"107.csv","","null","resources/maskTrios/BT4B.jpg","null","",NA,NA,NA,NA,""
"image-keyboard-response",584,475318,"0.0-4.190-2.190","c3vvcyfv2mb2ms3",682,"107.csv","","null","resources/images/coin2.png","null","",NA,NA,NA,NA,""
"image-keyboard-response",585,475564,"0.0-4.191-0.191","c3vvcyfv2mb2ms3",682,"107.csv","","245.20000004768372","resources/trios/L4T4A2.jpg","39","restless",0.2,0.5,0.5,0.647064597283298,"false"
"image-keyboard-response",586,475981,"0.0-4.191-1.191","c3vvcyfv2mb2ms3",682,"107.csv","","null","resources/maskTrios/BBA2.jpg","null","",NA,NA,NA,NA,""
"image-keyboard-response",587,477187,"0.0-4.191-2.191","c3vvcyfv2mb2ms3",682,"107.csv","","null","resources/images/fishbone.png","null","",NA,NA,NA,NA,""
"image-keyboard-response",588,477481,"0.0-4.192-0.192","c3vvcyfv2mb2ms3",682,"107.csv","","291.89999997615814","resources/trios/L4T4A2.jpg","38","restless",0.2,0.5,0.5,0.0380580459810356,"true"
"image-keyboard-response",589,477885,"0.0-4.192-1.192","c3vvcyfv2mb2ms3",682,"107.csv","","null","resources/maskTrios/BT4B.jpg","null","",NA,NA,NA,NA,""
"image-keyboard-response",590,479087,"0.0-4.192-2.192","c3vvcyfv2mb2ms3",682,"107.csv","","null","resources/images/coin2.png","null","",NA,NA,NA,NA,""
"image-keyboard-response",591,479685,"0.0-4.193-0.193","c3vvcyfv2mb2ms3",682,"107.csv","","595.8999999761581","resources/trios/L4T4A2.jpg","38","restless",0.2,0.5,0.5,0.72637332914641,"false"
"image-keyboard-response",592,480101,"0.0-4.193-1.193","c3vvcyfv2mb2ms3",682,"107.csv","","null","resources/maskTrios/BT4B.jpg","null","",NA,NA,NA,NA,""
"image-keyboard-response",593,481304,"0.0-4.193-2.193","c3vvcyfv2mb2ms3",682,"107.csv","","null","resources/images/fishbone.png","null","",NA,NA,NA,NA,""
"image-keyboard-response",594,481620,"0.0-4.194-0.194","c3vvcyfv2mb2ms3",682,"107.csv","","315.40000009536743","resources/trios/L4T4A2.jpg","39","restless",0.2,0.5,0.5,0.556660049272663,"false"
"image-keyboard-response",595,482035,"0.0-4.194-1.194","c3vvcyfv2mb2ms3",682,"107.csv","","null","resources/maskTrios/BBA2.jpg","null","",NA,NA,NA,NA,""
"image-keyboard-response",596,483237,"0.0-4.194-2.194","c3vvcyfv2mb2ms3",682,"107.csv","","null","resources/images/fishbone.png","null","",NA,NA,NA,NA,""
"image-keyboard-response",597,483569,"0.0-4.195-0.195","c3vvcyfv2mb2ms3",682,"107.csv","","330.5","resources/trios/L4T4A2.jpg","37","restless",0.2,0.5,0.5,0.946048382753422,"false"
"image-keyboard-response",598,483985,"0.0-4.195-1.195","c3vvcyfv2mb2ms3",682,"107.csv","","null","resources/maskTrios/L4BB.jpg","null","",NA,NA,NA,NA,""
"image-keyboard-response",599,485187,"0.0-4.195-2.195","c3vvcyfv2mb2ms3",682,"107.csv","","null","resources/images/fishbone.png","null","",NA,NA,NA,NA,""
"image-keyboard-response",600,485456,"0.0-4.196-0.196","c3vvcyfv2mb2ms3",682,"107.csv","","266.7999999523163","resources/trios/L4T4A2.jpg","38","restless",0.2,0.5,0.5,0.614448041882997,"false"
"image-keyboard-response",601,485869,"0.0-4.196-1.196","c3vvcyfv2mb2ms3",682,"107.csv","","null","resources/maskTrios/BT4B.jpg","null","",NA,NA,NA,NA,""
"image-keyboard-response",602,487072,"0.0-4.196-2.196","c3vvcyfv2mb2ms3",682,"107.csv","","null","resources/images/fishbone.png","null","",NA,NA,NA,NA,""
"image-keyboard-response",603,487417,"0.0-4.197-0.197","c3vvcyfv2mb2ms3",682,"107.csv","","342.89999997615814","resources/trios/L4T4A2.jpg","38","restless",0.2,0.5,0.5,0.720813556026496,"false"
"image-keyboard-response",604,487834,"0.0-4.197-1.197","c3vvcyfv2mb2ms3",682,"107.csv","","null","resources/maskTrios/BT4B.jpg","null","",NA,NA,NA,NA,""
"image-keyboard-response",605,489037,"0.0-4.197-2.197","c3vvcyfv2mb2ms3",682,"107.csv","","null","resources/images/fishbone.png","null","",NA,NA,NA,NA,""
"image-keyboard-response",606,489479,"0.0-4.198-0.198","c3vvcyfv2mb2ms3",682,"107.csv","","440.10000002384186","resources/trios/L4T4A2.jpg","37","restless",0.2,0.4,0.5,0.293654292419325,"false"
"image-keyboard-response",607,489885,"0.0-4.198-1.198","c3vvcyfv2mb2ms3",682,"107.csv","","null","resources/maskTrios/L4BB.jpg","null","",NA,NA,NA,NA,""
"image-keyboard-response",608,491103,"0.0-4.198-2.198","c3vvcyfv2mb2ms3",682,"107.csv","","null","resources/images/fishbone.png","null","",NA,NA,NA,NA,""
