"trial_type","trial_index","time_elapsed","internal_node_id","subject","participantCode","walkNumber","success","rt","stimulus","key_press","test_part","leftProb","midProb","rightProb","generatedNum","correct"
"pavlovia",0,1073,"0.0-0.0","yrdqbys9rhspseh",802,"184.csv","","","","","",NA,NA,NA,NA,""
"fullscreen",1,3492,"0.0-1.0","yrdqbys9rhspseh",802,"184.csv","true","","","","",NA,NA,NA,NA,""
"survey-html-form",2,8402,"0.0-2.0","yrdqbys9rhspseh",802,"184.csv","","4903.799999952316","","","",NA,NA,NA,NA,""
"image-keyboard-response",3,16390,"0.0-3.0-0.0","yrdqbys9rhspseh",802,"184.csv","","7986.100000023842","resources/images/parrot_nobg.png","13","",NA,NA,NA,NA,""
"image-keyboard-response",4,19397,"0.0-3.0-1.0","yrdqbys9rhspseh",802,"184.csv","","null","resources/image_sets/111.png","null","",NA,NA,NA,NA,""
"image-keyboard-response",5,21534,"0.0-3.0-2.0","yrdqbys9rhspseh",802,"184.csv","","2135.899999976158","resources/image_sets/left_highlight.png","37","",NA,NA,NA,NA,""
"image-keyboard-response",6,22406,"0.0-3.0-3.0","yrdqbys9rhspseh",802,"184.csv","","870.6000000238419","resources/image_sets/mid_highlight.png","38","",NA,NA,NA,NA,""
"image-keyboard-response",7,22816,"0.0-3.0-4.0","yrdqbys9rhspseh",802,"184.csv","","408.8000000715256","resources/image_sets/right_highlight.png","39","",NA,NA,NA,NA,""
"image-keyboard-response",8,23871,"0.0-3.0-5.0","yrdqbys9rhspseh",802,"184.csv","","1054","resources/image_sets/111.png","13","",NA,NA,NA,NA,""
"image-keyboard-response",9,24971,"0.0-3.0-6.0","yrdqbys9rhspseh",802,"184.csv","","1098.3999999761581","resources/images/coin2.png","13","",NA,NA,NA,NA,""
"image-keyboard-response",10,25884,"0.0-3.0-7.0","yrdqbys9rhspseh",802,"184.csv","","912.1000000238419","resources/images/fishbone.png","13","",NA,NA,NA,NA,""
"html-keyboard-response",11,27061,"0.0-3.0-8.0","yrdqbys9rhspseh",802,"184.csv","","1176.1000000238419","<p>You can track your coin total on the top right of your screen. </p><p>At the end of your journey you will be directed to a survey, so please click on the link before exiting the task</p><p>Press Enter to begin</p>","13","",NA,NA,NA,NA,""
"image-keyboard-response",12,28324,"0.0-4.0-0.0","yrdqbys9rhspseh",802,"184.csv","","1261.3000000715256","resources/trios/L4T2A3.jpg","38","restless",0.7,0.9,0.3,0.903700560975478,"false"
"image-keyboard-response",13,28729,"0.0-4.0-1.0","yrdqbys9rhspseh",802,"184.csv","","null","resources/maskTrios/BT2B.jpg","null","",NA,NA,NA,NA,""
"image-keyboard-response",14,29937,"0.0-4.0-2.0","yrdqbys9rhspseh",802,"184.csv","","null","resources/images/fishbone.png","null","",NA,NA,NA,NA,""
"image-keyboard-response",15,30715,"0.0-4.1-0.1","yrdqbys9rhspseh",802,"184.csv","","775.0999999046326","resources/trios/L4T2A3.jpg","37","restless",0.7,0.9,0.3,0.648850104785916,"true"
"image-keyboard-response",16,31118,"0.0-4.1-1.1","yrdqbys9rhspseh",802,"184.csv","","null","resources/maskTrios/L4BB.jpg","null","",NA,NA,NA,NA,""
"image-keyboard-response",17,32326,"0.0-4.1-2.1","yrdqbys9rhspseh",802,"184.csv","","null","resources/images/coin2.png","null","",NA,NA,NA,NA,""
"image-keyboard-response",18,33103,"0.0-4.2-0.2","yrdqbys9rhspseh",802,"184.csv","","773.9000000953674","resources/trios/L4T2A3.jpg","37","restless",0.7,0.9,0.2,0.579015757302293,"true"
"image-keyboard-response",19,33507,"0.0-4.2-1.2","yrdqbys9rhspseh",802,"184.csv","","null","resources/maskTrios/L4BB.jpg","null","",NA,NA,NA,NA,""
"image-keyboard-response",20,34712,"0.0-4.2-2.2","yrdqbys9rhspseh",802,"184.csv","","null","resources/images/coin2.png","null","",NA,NA,NA,NA,""
"image-keyboard-response",21,35120,"0.0-4.3-0.3","yrdqbys9rhspseh",802,"184.csv","","405.5","resources/trios/L4T2A3.jpg","37","restless",0.6,0.9,0.2,0.553999042020184,"true"
"image-keyboard-response",22,35527,"0.0-4.3-1.3","yrdqbys9rhspseh",802,"184.csv","","null","resources/maskTrios/L4BB.jpg","null","",NA,NA,NA,NA,""
"image-keyboard-response",23,36730,"0.0-4.3-2.3","yrdqbys9rhspseh",802,"184.csv","","null","resources/images/coin2.png","null","",NA,NA,NA,NA,""
"image-keyboard-response",24,37245,"0.0-4.4-0.4","yrdqbys9rhspseh",802,"184.csv","","512.6999999284744","resources/trios/L4T2A3.jpg","37","restless",0.6,0.8,0.3,0.0747124448947956,"true"
"image-keyboard-response",25,37652,"0.0-4.4-1.4","yrdqbys9rhspseh",802,"184.csv","","null","resources/maskTrios/L4BB.jpg","null","",NA,NA,NA,NA,""
"image-keyboard-response",26,38859,"0.0-4.4-2.4","yrdqbys9rhspseh",802,"184.csv","","null","resources/images/coin2.png","null","",NA,NA,NA,NA,""
"image-keyboard-response",27,39363,"0.0-4.5-0.5","yrdqbys9rhspseh",802,"184.csv","","501.40000009536743","resources/trios/L4T2A3.jpg","39","restless",0.5,0.8,0.3,0.761927086271758,"false"
"image-keyboard-response",28,39767,"0.0-4.5-1.5","yrdqbys9rhspseh",802,"184.csv","","null","resources/maskTrios/BBA3.jpg","null","",NA,NA,NA,NA,""
"image-keyboard-response",29,40974,"0.0-4.5-2.5","yrdqbys9rhspseh",802,"184.csv","","null","resources/images/fishbone.png","null","",NA,NA,NA,NA,""
"image-keyboard-response",30,41437,"0.0-4.6-0.6","yrdqbys9rhspseh",802,"184.csv","","460.7000000476837","resources/trios/L4T2A3.jpg","37","restless",0.5,0.8,0.3,0.889522208835776,"false"
"image-keyboard-response",31,41842,"0.0-4.6-1.6","yrdqbys9rhspseh",802,"184.csv","","null","resources/maskTrios/L4BB.jpg","null","",NA,NA,NA,NA,""
"image-keyboard-response",32,43050,"0.0-4.6-2.6","yrdqbys9rhspseh",802,"184.csv","","null","resources/images/fishbone.png","null","",NA,NA,NA,NA,""
"image-keyboard-response",33,43426,"0.0-4.7-0.7","yrdqbys9rhspseh",802,"184.csv","","374.2000000476837","resources/trios/L4T2A3.jpg","38","restless",0.5,0.8,0.3,0.0246987755019392,"true"
"image-keyboard-response",34,43831,"0.0-4.7-1.7","yrdqbys9rhspseh",802,"184.csv","","null","resources/maskTrios/BT2B.jpg","null","",NA,NA,NA,NA,""
"image-keyboard-response",35,45038,"0.0-4.7-2.7","yrdqbys9rhspseh",802,"184.csv","","null","resources/images/coin2.png","null","",NA,NA,NA,NA,""
"image-keyboard-response",36,45317,"0.0-4.8-0.8","yrdqbys9rhspseh",802,"184.csv","","276.7999999523163","resources/trios/L4T2A3.jpg","38","restless",0.5,0.8,0.3,0.114888044537175,"true"
"image-keyboard-response",37,45720,"0.0-4.8-1.8","yrdqbys9rhspseh",802,"184.csv","","null","resources/maskTrios/BT2B.jpg","null","",NA,NA,NA,NA,""
"image-keyboard-response",38,46927,"0.0-4.8-2.8","yrdqbys9rhspseh",802,"184.csv","","null","resources/images/coin2.png","null","",NA,NA,NA,NA,""
"image-keyboard-response",39,47201,"0.0-4.9-0.9","yrdqbys9rhspseh",802,"184.csv","","272.39999997615814","resources/trios/L4T2A3.jpg","38","restless",0.5,0.7,0.4,0.68515284251022,"true"
"image-keyboard-response",40,47608,"0.0-4.9-1.9","yrdqbys9rhspseh",802,"184.csv","","null","resources/maskTrios/BT2B.jpg","null","",NA,NA,NA,NA,""
"image-keyboard-response",41,48816,"0.0-4.9-2.9","yrdqbys9rhspseh",802,"184.csv","","null","resources/images/coin2.png","null","",NA,NA,NA,NA,""
"image-keyboard-response",42,49111,"0.0-4.10-0.10","yrdqbys9rhspseh",802,"184.csv","","293.7000000476837","resources/trios/L4T2A3.jpg","38","restless",0.5,0.7,0.4,0.341716932794461,"true"
"image-keyboard-response",43,49518,"0.0-4.10-1.10","yrdqbys9rhspseh",802,"184.csv","","null","resources/maskTrios/BT2B.jpg","null","",NA,NA,NA,NA,""
"image-keyboard-response",44,50725,"0.0-4.10-2.10","yrdqbys9rhspseh",802,"184.csv","","null","resources/images/coin2.png","null","",NA,NA,NA,NA,""
"image-keyboard-response",45,51241,"0.0-4.11-0.11","yrdqbys9rhspseh",802,"184.csv","","513.1999999284744","resources/trios/L4T2A3.jpg","38","restless",0.5,0.8,0.4,0.233097919770584,"true"
"image-keyboard-response",46,51647,"0.0-4.11-1.11","yrdqbys9rhspseh",802,"184.csv","","null","resources/maskTrios/BT2B.jpg","null","",NA,NA,NA,NA,""
"image-keyboard-response",47,52854,"0.0-4.11-2.11","yrdqbys9rhspseh",802,"184.csv","","null","resources/images/coin2.png","null","",NA,NA,NA,NA,""
"image-keyboard-response",48,53869,"0.0-4.12-0.12","yrdqbys9rhspseh",802,"184.csv","","1013","resources/trios/L4T2A3.jpg","38","restless",0.5,0.8,0.4,0.405729809528994,"true"
"image-keyboard-response",49,54275,"0.0-4.12-1.12","yrdqbys9rhspseh",802,"184.csv","","null","resources/maskTrios/BT2B.jpg","null","",NA,NA,NA,NA,""
"image-keyboard-response",50,55483,"0.0-4.12-2.12","yrdqbys9rhspseh",802,"184.csv","","null","resources/images/coin2.png","null","",NA,NA,NA,NA,""
"image-keyboard-response",51,55575,"0.0-4.13-0.13","yrdqbys9rhspseh",802,"184.csv","","91.20000004768372","resources/trios/L4T2A3.jpg","38","restless",0.5,0.8,0.4,0.98546921776223,"false"
"image-keyboard-response",52,55977,"0.0-4.13-1.13","yrdqbys9rhspseh",802,"184.csv","","null","resources/maskTrios/BT2B.jpg","null","",NA,NA,NA,NA,""
"image-keyboard-response",53,57181,"0.0-4.13-2.13","yrdqbys9rhspseh",802,"184.csv","","null","resources/images/fishbone.png","null","",NA,NA,NA,NA,""
"image-keyboard-response",54,57389,"0.0-4.14-0.14","yrdqbys9rhspseh",802,"184.csv","","205.29999995231628","resources/trios/L4T2A3.jpg","39","restless",0.5,0.8,0.4,0.338103060798458,"true"
"image-keyboard-response",55,57793,"0.0-4.14-1.14","yrdqbys9rhspseh",802,"184.csv","","null","resources/maskTrios/BBA3.jpg","null","",NA,NA,NA,NA,""
"image-keyboard-response",56,59000,"0.0-4.14-2.14","yrdqbys9rhspseh",802,"184.csv","","null","resources/images/coin2.png","null","",NA,NA,NA,NA,""
"image-keyboard-response",57,59167,"0.0-4.15-0.15","yrdqbys9rhspseh",802,"184.csv","","165.30000007152557","resources/trios/L4T2A3.jpg","39","restless",0.5,0.8,0.4,0.769837639995186,"false"
"image-keyboard-response",58,59570,"0.0-4.15-1.15","yrdqbys9rhspseh",802,"184.csv","","null","resources/maskTrios/BBA3.jpg","null","",NA,NA,NA,NA,""
"image-keyboard-response",59,60777,"0.0-4.15-2.15","yrdqbys9rhspseh",802,"184.csv","","null","resources/images/fishbone.png","null","",NA,NA,NA,NA,""
"image-keyboard-response",60,61151,"0.0-4.16-0.16","yrdqbys9rhspseh",802,"184.csv","","371.60000002384186","resources/trios/L4T2A3.jpg","37","restless",0.5,0.8,0.4,0.334740542998704,"true"
"image-keyboard-response",61,61556,"0.0-4.16-1.16","yrdqbys9rhspseh",802,"184.csv","","null","resources/maskTrios/L4BB.jpg","null","",NA,NA,NA,NA,""
"image-keyboard-response",62,62763,"0.0-4.16-2.16","yrdqbys9rhspseh",802,"184.csv","","null","resources/images/coin2.png","null","",NA,NA,NA,NA,""
"image-keyboard-response",63,63016,"0.0-4.17-0.17","yrdqbys9rhspseh",802,"184.csv","","251.5","resources/trios/L4T2A3.jpg","37","restless",0.5,0.8,0.4,0.346341249897326,"true"
"image-keyboard-response",64,63423,"0.0-4.17-1.17","yrdqbys9rhspseh",802,"184.csv","","null","resources/maskTrios/L4BB.jpg","null","",NA,NA,NA,NA,""
"image-keyboard-response",65,64630,"0.0-4.17-2.17","yrdqbys9rhspseh",802,"184.csv","","null","resources/images/coin2.png","null","",NA,NA,NA,NA,""
"image-keyboard-response",66,64841,"0.0-4.18-0.18","yrdqbys9rhspseh",802,"184.csv","","208.5","resources/trios/L4T2A3.jpg","37","restless",0.5,0.8,0.4,0.181124253019666,"true"
"image-keyboard-response",67,65247,"0.0-4.18-1.18","yrdqbys9rhspseh",802,"184.csv","","null","resources/maskTrios/L4BB.jpg","null","",NA,NA,NA,NA,""
"image-keyboard-response",68,66452,"0.0-4.18-2.18","yrdqbys9rhspseh",802,"184.csv","","null","resources/images/coin2.png","null","",NA,NA,NA,NA,""
"image-keyboard-response",69,66798,"0.0-4.19-0.19","yrdqbys9rhspseh",802,"184.csv","","344","resources/trios/L4T2A3.jpg","37","restless",0.5,0.8,0.4,0.96578978670473,"false"
"image-keyboard-response",70,67205,"0.0-4.19-1.19","yrdqbys9rhspseh",802,"184.csv","","null","resources/maskTrios/L4BB.jpg","null","",NA,NA,NA,NA,""
"image-keyboard-response",71,68413,"0.0-4.19-2.19","yrdqbys9rhspseh",802,"184.csv","","null","resources/images/fishbone.png","null","",NA,NA,NA,NA,""
"image-keyboard-response",72,68769,"0.0-4.20-0.20","yrdqbys9rhspseh",802,"184.csv","","354.5","resources/trios/L4T2A3.jpg","38","restless",0.5,0.8,0.4,0.745825511538544,"true"
"image-keyboard-response",73,69175,"0.0-4.20-1.20","yrdqbys9rhspseh",802,"184.csv","","null","resources/maskTrios/BT2B.jpg","null","",NA,NA,NA,NA,""
"image-keyboard-response",74,70381,"0.0-4.20-2.20","yrdqbys9rhspseh",802,"184.csv","","null","resources/images/coin2.png","null","",NA,NA,NA,NA,""
"image-keyboard-response",75,70408,"0.0-4.21-0.21","yrdqbys9rhspseh",802,"184.csv","","25.200000047683716","resources/trios/L4T2A3.jpg","38","restless",0.5,0.8,0.5,0.0566671130311946,"true"
"image-keyboard-response",76,70814,"0.0-4.21-1.21","yrdqbys9rhspseh",802,"184.csv","","null","resources/maskTrios/BT2B.jpg","null","",NA,NA,NA,NA,""
"image-keyboard-response",77,72021,"0.0-4.21-2.21","yrdqbys9rhspseh",802,"184.csv","","null","resources/images/coin2.png","null","",NA,NA,NA,NA,""
"image-keyboard-response",78,72194,"0.0-4.22-0.22","yrdqbys9rhspseh",802,"184.csv","","170.59999990463257","resources/trios/L4T2A3.jpg","39","restless",0.5,0.7,0.6,0.732384981911238,"false"
"image-keyboard-response",79,72600,"0.0-4.22-1.22","yrdqbys9rhspseh",802,"184.csv","","null","resources/maskTrios/BBA3.jpg","null","",NA,NA,NA,NA,""
"image-keyboard-response",80,73807,"0.0-4.22-2.22","yrdqbys9rhspseh",802,"184.csv","","null","resources/images/fishbone.png","null","",NA,NA,NA,NA,""
"image-keyboard-response",81,73981,"0.0-4.23-0.23","yrdqbys9rhspseh",802,"184.csv","","172.19999992847443","resources/trios/L4T2A3.jpg","38","restless",0.5,0.6,0.7,0.578072139037071,"true"
"image-keyboard-response",82,74387,"0.0-4.23-1.23","yrdqbys9rhspseh",802,"184.csv","","null","resources/maskTrios/BT2B.jpg","null","",NA,NA,NA,NA,""
"image-keyboard-response",83,75595,"0.0-4.23-2.23","yrdqbys9rhspseh",802,"184.csv","","null","resources/images/coin2.png","null","",NA,NA,NA,NA,""
"image-keyboard-response",84,75668,"0.0-4.24-0.24","yrdqbys9rhspseh",802,"184.csv","","71.40000009536743","resources/trios/L4T2A3.jpg","38","restless",0.5,0.6,0.7,0.501525798954442,"true"
"image-keyboard-response",85,76072,"0.0-4.24-1.24","yrdqbys9rhspseh",802,"184.csv","","null","resources/maskTrios/BT2B.jpg","null","",NA,NA,NA,NA,""
"image-keyboard-response",86,77279,"0.0-4.24-2.24","yrdqbys9rhspseh",802,"184.csv","","null","resources/images/coin2.png","null","",NA,NA,NA,NA,""
"image-keyboard-response",87,78063,"0.0-4.25-0.25","yrdqbys9rhspseh",802,"184.csv","","781.2999999523163","resources/trios/L4T2A3.jpg","38","restless",0.5,0.6,0.7,0.0639298869912841,"true"
"image-keyboard-response",88,78468,"0.0-4.25-1.25","yrdqbys9rhspseh",802,"184.csv","","null","resources/maskTrios/BT2B.jpg","null","",NA,NA,NA,NA,""
"image-keyboard-response",89,79674,"0.0-4.25-2.25","yrdqbys9rhspseh",802,"184.csv","","null","resources/images/coin2.png","null","",NA,NA,NA,NA,""
"image-keyboard-response",90,79814,"0.0-4.26-0.26","yrdqbys9rhspseh",802,"184.csv","","138.90000009536743","resources/trios/L4T2A3.jpg","38","restless",0.5,0.6,0.7,0.45311174263815,"true"
"image-keyboard-response",91,80222,"0.0-4.26-1.26","yrdqbys9rhspseh",802,"184.csv","","null","resources/maskTrios/BT2B.jpg","null","",NA,NA,NA,NA,""
"image-keyboard-response",92,81429,"0.0-4.26-2.26","yrdqbys9rhspseh",802,"184.csv","","null","resources/images/coin2.png","null","",NA,NA,NA,NA,""
"image-keyboard-response",93,82186,"0.0-4.27-0.27","yrdqbys9rhspseh",802,"184.csv","","754.8999999761581","resources/trios/L4T2A3.jpg","38","restless",0.6,0.6,0.7,0.994725218559686,"false"
"image-keyboard-response",94,82593,"0.0-4.27-1.27","yrdqbys9rhspseh",802,"184.csv","","null","resources/maskTrios/BT2B.jpg","null","",NA,NA,NA,NA,""
"image-keyboard-response",95,83796,"0.0-4.27-2.27","yrdqbys9rhspseh",802,"184.csv","","null","resources/images/fishbone.png","null","",NA,NA,NA,NA,""
"image-keyboard-response",96,83850,"0.0-4.28-0.28","yrdqbys9rhspseh",802,"184.csv","","52","resources/trios/L4T2A3.jpg","39","restless",0.5,0.6,0.7,0.0653723486202686,"true"
"image-keyboard-response",97,84257,"0.0-4.28-1.28","yrdqbys9rhspseh",802,"184.csv","","null","resources/maskTrios/BBA3.jpg","null","",NA,NA,NA,NA,""
"image-keyboard-response",98,85465,"0.0-4.28-2.28","yrdqbys9rhspseh",802,"184.csv","","null","resources/images/coin2.png","null","",NA,NA,NA,NA,""
"image-keyboard-response",99,85683,"0.0-4.29-0.29","yrdqbys9rhspseh",802,"184.csv","","216.5","resources/trios/L4T2A3.jpg","39","restless",0.4,0.6,0.7,0.709583349170174,"false"
"image-keyboard-response",100,86090,"0.0-4.29-1.29","yrdqbys9rhspseh",802,"184.csv","","null","resources/maskTrios/BBA3.jpg","null","",NA,NA,NA,NA,""
"image-keyboard-response",101,87297,"0.0-4.29-2.29","yrdqbys9rhspseh",802,"184.csv","","null","resources/images/fishbone.png","null","",NA,NA,NA,NA,""
"image-keyboard-response",102,87624,"0.0-4.30-0.30","yrdqbys9rhspseh",802,"184.csv","","325.6999999284744","resources/trios/L4T2A3.jpg","37","restless",0.3,0.6,0.7,0.0449692199475249,"true"
"image-keyboard-response",103,88030,"0.0-4.30-1.30","yrdqbys9rhspseh",802,"184.csv","","null","resources/maskTrios/L4BB.jpg","null","",NA,NA,NA,NA,""
"image-keyboard-response",104,89234,"0.0-4.30-2.30","yrdqbys9rhspseh",802,"184.csv","","null","resources/images/coin2.png","null","",NA,NA,NA,NA,""
"image-keyboard-response",105,89720,"0.0-4.31-0.31","yrdqbys9rhspseh",802,"184.csv","","484.10000002384186","resources/trios/L4T2A3.jpg","37","restless",0.3,0.6,0.7,0.740685995805143,"false"
"image-keyboard-response",106,90127,"0.0-4.31-1.31","yrdqbys9rhspseh",802,"184.csv","","null","resources/maskTrios/L4BB.jpg","null","",NA,NA,NA,NA,""
"image-keyboard-response",107,91333,"0.0-4.31-2.31","yrdqbys9rhspseh",802,"184.csv","","null","resources/images/fishbone.png","null","",NA,NA,NA,NA,""
"image-keyboard-response",108,91339,"0.0-4.32-0.32","yrdqbys9rhspseh",802,"184.csv","","3.6999999284744263","resources/trios/L4T2A3.jpg","38","restless",0.3,0.6,0.7,0.40397979287641,"true"
"image-keyboard-response",109,91742,"0.0-4.32-1.32","yrdqbys9rhspseh",802,"184.csv","","null","resources/maskTrios/BT2B.jpg","null","",NA,NA,NA,NA,""
"image-keyboard-response",110,92948,"0.0-4.32-2.32","yrdqbys9rhspseh",802,"184.csv","","null","resources/images/coin2.png","null","",NA,NA,NA,NA,""
"image-keyboard-response",111,93019,"0.0-4.33-0.33","yrdqbys9rhspseh",802,"184.csv","","68.89999997615814","resources/trios/L4T2A3.jpg","38","restless",0.4,0.6,0.7,0.488014225606275,"true"
"image-keyboard-response",112,93426,"0.0-4.33-1.33","yrdqbys9rhspseh",802,"184.csv","","null","resources/maskTrios/BT2B.jpg","null","",NA,NA,NA,NA,""
"image-keyboard-response",113,94630,"0.0-4.33-2.33","yrdqbys9rhspseh",802,"184.csv","","null","resources/images/coin2.png","null","",NA,NA,NA,NA,""
"image-keyboard-response",114,94857,"0.0-4.34-0.34","yrdqbys9rhspseh",802,"184.csv","","225.40000009536743","resources/trios/L4T2A3.jpg","38","restless",0.4,0.6,0.7,0.262437545788331,"true"
"image-keyboard-response",115,95260,"0.0-4.34-1.34","yrdqbys9rhspseh",802,"184.csv","","null","resources/maskTrios/BT2B.jpg","null","",NA,NA,NA,NA,""
"image-keyboard-response",116,96467,"0.0-4.34-2.34","yrdqbys9rhspseh",802,"184.csv","","null","resources/images/coin2.png","null","",NA,NA,NA,NA,""
"image-keyboard-response",117,96777,"0.0-4.35-0.35","yrdqbys9rhspseh",802,"184.csv","","307.8000000715256","resources/trios/L4T2A3.jpg","38","restless",0.4,0.6,0.7,0.0944211095181531,"true"
"image-keyboard-response",118,97184,"0.0-4.35-1.35","yrdqbys9rhspseh",802,"184.csv","","null","resources/maskTrios/BT2B.jpg","null","",NA,NA,NA,NA,""
"image-keyboard-response",119,98392,"0.0-4.35-2.35","yrdqbys9rhspseh",802,"184.csv","","null","resources/images/coin2.png","null","",NA,NA,NA,NA,""
"image-keyboard-response",120,99086,"0.0-4.36-0.36","yrdqbys9rhspseh",802,"184.csv","","692.5","resources/trios/L4T2A3.jpg","38","restless",0.4,0.6,0.8,0.831274642662025,"false"
"image-keyboard-response",121,99493,"0.0-4.36-1.36","yrdqbys9rhspseh",802,"184.csv","","null","resources/maskTrios/BT2B.jpg","null","",NA,NA,NA,NA,""
"image-keyboard-response",122,100695,"0.0-4.36-2.36","yrdqbys9rhspseh",802,"184.csv","","null","resources/images/fishbone.png","null","",NA,NA,NA,NA,""
"image-keyboard-response",123,100703,"0.0-4.37-0.37","yrdqbys9rhspseh",802,"184.csv","","6","resources/trios/L4T2A3.jpg","39","restless",0.4,0.5,0.8,0.961585558298823,"false"
"image-keyboard-response",124,101109,"0.0-4.37-1.37","yrdqbys9rhspseh",802,"184.csv","","null","resources/maskTrios/BBA3.jpg","null","",NA,NA,NA,NA,""
"image-keyboard-response",125,102316,"0.0-4.37-2.37","yrdqbys9rhspseh",802,"184.csv","","null","resources/images/fishbone.png","null","",NA,NA,NA,NA,""
"image-keyboard-response",126,102892,"0.0-4.38-0.38","yrdqbys9rhspseh",802,"184.csv","","574.6000000238419","resources/trios/L4T2A3.jpg","37","restless",0.4,0.5,0.8,0.662682278210267,"false"
"image-keyboard-response",127,103298,"0.0-4.38-1.38","yrdqbys9rhspseh",802,"184.csv","","null","resources/maskTrios/L4BB.jpg","null","",NA,NA,NA,NA,""
"image-keyboard-response",128,104502,"0.0-4.38-2.38","yrdqbys9rhspseh",802,"184.csv","","null","resources/images/fishbone.png","null","",NA,NA,NA,NA,""
"image-keyboard-response",129,104610,"0.0-4.39-0.39","yrdqbys9rhspseh",802,"184.csv","","106.20000004768372","resources/trios/L4T2A3.jpg","38","restless",0.5,0.5,0.8,0.207776177347838,"true"
"image-keyboard-response",130,105015,"0.0-4.39-1.39","yrdqbys9rhspseh",802,"184.csv","","null","resources/maskTrios/BT2B.jpg","null","",NA,NA,NA,NA,""
"image-keyboard-response",131,106222,"0.0-4.39-2.39","yrdqbys9rhspseh",802,"184.csv","","null","resources/images/coin2.png","null","",NA,NA,NA,NA,""
"image-keyboard-response",132,106438,"0.0-4.40-0.40","yrdqbys9rhspseh",802,"184.csv","","214.39999997615814","resources/trios/L4T2A3.jpg","38","restless",0.5,0.5,0.8,0.841854196041202,"false"
"image-keyboard-response",133,106845,"0.0-4.40-1.40","yrdqbys9rhspseh",802,"184.csv","","null","resources/maskTrios/BT2B.jpg","null","",NA,NA,NA,NA,""
"image-keyboard-response",134,108048,"0.0-4.40-2.40","yrdqbys9rhspseh",802,"184.csv","","null","resources/images/fishbone.png","null","",NA,NA,NA,NA,""
"image-keyboard-response",135,108265,"0.0-4.41-0.41","yrdqbys9rhspseh",802,"184.csv","","215.5","resources/trios/L4T2A3.jpg","39","restless",0.5,0.5,0.8,0.543575983948138,"true"
"image-keyboard-response",136,108672,"0.0-4.41-1.41","yrdqbys9rhspseh",802,"184.csv","","null","resources/maskTrios/BBA3.jpg","null","",NA,NA,NA,NA,""
"image-keyboard-response",137,109880,"0.0-4.41-2.41","yrdqbys9rhspseh",802,"184.csv","","null","resources/images/coin2.png","null","",NA,NA,NA,NA,""
"image-keyboard-response",138,110293,"0.0-4.42-0.42","yrdqbys9rhspseh",802,"184.csv","","411.89999997615814","resources/trios/L4T2A3.jpg","39","restless",0.5,0.5,0.8,0.156026236383004,"true"
"image-keyboard-response",139,110699,"0.0-4.42-1.42","yrdqbys9rhspseh",802,"184.csv","","null","resources/maskTrios/BBA3.jpg","null","",NA,NA,NA,NA,""
"image-keyboard-response",140,111906,"0.0-4.42-2.42","yrdqbys9rhspseh",802,"184.csv","","null","resources/images/coin2.png","null","",NA,NA,NA,NA,""
"image-keyboard-response",141,112305,"0.0-4.43-0.43","yrdqbys9rhspseh",802,"184.csv","","397.40000009536743","resources/trios/L4T2A3.jpg","39","restless",0.5,0.5,0.8,0.312226955646443,"true"
"image-keyboard-response",142,112712,"0.0-4.43-1.43","yrdqbys9rhspseh",802,"184.csv","","null","resources/maskTrios/BBA3.jpg","null","",NA,NA,NA,NA,""
"image-keyboard-response",143,113919,"0.0-4.43-2.43","yrdqbys9rhspseh",802,"184.csv","","null","resources/images/coin2.png","null","",NA,NA,NA,NA,""
"image-keyboard-response",144,114779,"0.0-4.44-0.44","yrdqbys9rhspseh",802,"184.csv","","858.5","resources/trios/L4T2A3.jpg","39","restless",0.5,0.5,0.8,0.335054728599742,"true"
"image-keyboard-response",145,115181,"0.0-4.44-1.44","yrdqbys9rhspseh",802,"184.csv","","null","resources/maskTrios/BBA3.jpg","null","",NA,NA,NA,NA,""
"image-keyboard-response",146,116388,"0.0-4.44-2.44","yrdqbys9rhspseh",802,"184.csv","","null","resources/images/coin2.png","null","",NA,NA,NA,NA,""
"image-keyboard-response",147,117006,"0.0-4.45-0.45","yrdqbys9rhspseh",802,"184.csv","","615.7999999523163","resources/trios/L4T2A3.jpg","39","restless",0.5,0.5,0.8,0.480529663267279,"true"
"image-keyboard-response",148,117414,"0.0-4.45-1.45","yrdqbys9rhspseh",802,"184.csv","","null","resources/maskTrios/BBA3.jpg","null","",NA,NA,NA,NA,""
"image-keyboard-response",149,118617,"0.0-4.45-2.45","yrdqbys9rhspseh",802,"184.csv","","null","resources/images/coin2.png","null","",NA,NA,NA,NA,""
"image-keyboard-response",150,119017,"0.0-4.46-0.46","yrdqbys9rhspseh",802,"184.csv","","398.8000000715256","resources/trios/L4T2A3.jpg","39","restless",0.5,0.5,0.8,0.799156740986527,"true"
"image-keyboard-response",151,119424,"0.0-4.46-1.46","yrdqbys9rhspseh",802,"184.csv","","null","resources/maskTrios/BBA3.jpg","null","",NA,NA,NA,NA,""
"image-keyboard-response",152,120632,"0.0-4.46-2.46","yrdqbys9rhspseh",802,"184.csv","","null","resources/images/coin2.png","null","",NA,NA,NA,NA,""
"image-keyboard-response",153,121524,"0.0-4.47-0.47","yrdqbys9rhspseh",802,"184.csv","","890.1999999284744","resources/trios/L4T2A3.jpg","39","restless",0.5,0.5,0.8,0.266352800122325,"true"
"image-keyboard-response",154,121931,"0.0-4.47-1.47","yrdqbys9rhspseh",802,"184.csv","","null","resources/maskTrios/BBA3.jpg","null","",NA,NA,NA,NA,""
"image-keyboard-response",155,123138,"0.0-4.47-2.47","yrdqbys9rhspseh",802,"184.csv","","null","resources/images/coin2.png","null","",NA,NA,NA,NA,""
"image-keyboard-response",156,123405,"0.0-4.48-0.48","yrdqbys9rhspseh",802,"184.csv","","265.7000000476837","resources/trios/L4T2A3.jpg","39","restless",0.5,0.5,0.8,0.765434885697282,"true"
"image-keyboard-response",157,123813,"0.0-4.48-1.48","yrdqbys9rhspseh",802,"184.csv","","null","resources/maskTrios/BBA3.jpg","null","",NA,NA,NA,NA,""
"image-keyboard-response",158,125016,"0.0-4.48-2.48","yrdqbys9rhspseh",802,"184.csv","","null","resources/images/coin2.png","null","",NA,NA,NA,NA,""
"image-keyboard-response",159,126203,"0.0-4.49-0.49","yrdqbys9rhspseh",802,"184.csv","","1185.4000000953674","resources/trios/L4T2A3.jpg","39","restless",0.5,0.4,0.8,0.457784164499349,"true"
"image-keyboard-response",160,126609,"0.0-4.49-1.49","yrdqbys9rhspseh",802,"184.csv","","null","resources/maskTrios/BBA3.jpg","null","",NA,NA,NA,NA,""
"image-keyboard-response",161,127816,"0.0-4.49-2.49","yrdqbys9rhspseh",802,"184.csv","","null","resources/images/coin2.png","null","",NA,NA,NA,NA,""
"image-keyboard-response",162,128029,"0.0-4.50-0.50","yrdqbys9rhspseh",802,"184.csv","","210.5","resources/trios/L4T2A3.jpg","39","restless",0.5,0.4,0.8,0.871704239410515,"false"
"image-keyboard-response",163,128435,"0.0-4.50-1.50","yrdqbys9rhspseh",802,"184.csv","","null","resources/maskTrios/BBA3.jpg","null","",NA,NA,NA,NA,""
"image-keyboard-response",164,129642,"0.0-4.50-2.50","yrdqbys9rhspseh",802,"184.csv","","null","resources/images/fishbone.png","null","",NA,NA,NA,NA,""
"image-keyboard-response",165,129906,"0.0-4.51-0.51","yrdqbys9rhspseh",802,"184.csv","","262.7999999523163","resources/trios/L4T2A3.jpg","37","restless",0.5,0.4,0.8,0.879958066358889,"false"
"image-keyboard-response",166,130313,"0.0-4.51-1.51","yrdqbys9rhspseh",802,"184.csv","","null","resources/maskTrios/L4BB.jpg","null","",NA,NA,NA,NA,""
"image-keyboard-response",167,131516,"0.0-4.51-2.51","yrdqbys9rhspseh",802,"184.csv","","null","resources/images/fishbone.png","null","",NA,NA,NA,NA,""
"image-keyboard-response",168,131517,"0.0-4.52-0.52","yrdqbys9rhspseh",802,"184.csv","","0.20000004768371582","resources/trios/L4T2A3.jpg","38","restless",0.5,0.4,0.8,0.46587013941063,"false"
"image-keyboard-response",169,131920,"0.0-4.52-1.52","yrdqbys9rhspseh",802,"184.csv","","null","resources/maskTrios/BT2B.jpg","null","",NA,NA,NA,NA,""
"image-keyboard-response",170,133126,"0.0-4.52-2.52","yrdqbys9rhspseh",802,"184.csv","","null","resources/images/fishbone.png","null","",NA,NA,NA,NA,""
"image-keyboard-response",171,133169,"0.0-4.53-0.53","yrdqbys9rhspseh",802,"184.csv","","40.59999990463257","resources/trios/L4T2A3.jpg","39","restless",0.6,0.4,0.8,0.118465739834848,"true"
"image-keyboard-response",172,133571,"0.0-4.53-1.53","yrdqbys9rhspseh",802,"184.csv","","null","resources/maskTrios/BBA3.jpg","null","",NA,NA,NA,NA,""
"image-keyboard-response",173,134775,"0.0-4.53-2.53","yrdqbys9rhspseh",802,"184.csv","","null","resources/images/coin2.png","null","",NA,NA,NA,NA,""
"image-keyboard-response",174,134918,"0.0-4.54-0.54","yrdqbys9rhspseh",802,"184.csv","","142.5","resources/trios/L4T2A3.jpg","39","restless",0.6,0.4,0.8,0.278754278518552,"true"
"image-keyboard-response",175,135325,"0.0-4.54-1.54","yrdqbys9rhspseh",802,"184.csv","","null","resources/maskTrios/BBA3.jpg","null","",NA,NA,NA,NA,""
"image-keyboard-response",176,136532,"0.0-4.54-2.54","yrdqbys9rhspseh",802,"184.csv","","null","resources/images/coin2.png","null","",NA,NA,NA,NA,""
"image-keyboard-response",177,136653,"0.0-4.55-0.55","yrdqbys9rhspseh",802,"184.csv","","119.29999995231628","resources/trios/L4T2A3.jpg","39","restless",0.6,0.4,0.8,0.91960309572809,"false"
"image-keyboard-response",178,137055,"0.0-4.55-1.55","yrdqbys9rhspseh",802,"184.csv","","null","resources/maskTrios/BBA3.jpg","null","",NA,NA,NA,NA,""
"image-keyboard-response",179,138260,"0.0-4.55-2.55","yrdqbys9rhspseh",802,"184.csv","","null","resources/images/fishbone.png","null","",NA,NA,NA,NA,""
"image-keyboard-response",180,138385,"0.0-4.56-0.56","yrdqbys9rhspseh",802,"184.csv","","123.29999995231628","resources/trios/L4T2A3.jpg","37","restless",0.6,0.4,0.8,0.374264292144499,"true"
"image-keyboard-response",181,138792,"0.0-4.56-1.56","yrdqbys9rhspseh",802,"184.csv","","null","resources/maskTrios/L4BB.jpg","null","",NA,NA,NA,NA,""
"image-keyboard-response",182,140000,"0.0-4.56-2.56","yrdqbys9rhspseh",802,"184.csv","","null","resources/images/coin2.png","null","",NA,NA,NA,NA,""
"image-keyboard-response",183,140230,"0.0-4.57-0.57","yrdqbys9rhspseh",802,"184.csv","","228.30000007152557","resources/trios/L4T2A3.jpg","37","restless",0.6,0.4,0.9,0.413680267342767,"true"
"image-keyboard-response",184,140637,"0.0-4.57-1.57","yrdqbys9rhspseh",802,"184.csv","","null","resources/maskTrios/L4BB.jpg","null","",NA,NA,NA,NA,""
"image-keyboard-response",185,141842,"0.0-4.57-2.57","yrdqbys9rhspseh",802,"184.csv","","null","resources/images/coin2.png","null","",NA,NA,NA,NA,""
"image-keyboard-response",186,142151,"0.0-4.58-0.58","yrdqbys9rhspseh",802,"184.csv","","306.09999990463257","resources/trios/L4T2A3.jpg","37","restless",0.6,0.5,0.9,0.89773874506212,"false"
"image-keyboard-response",187,142558,"0.0-4.58-1.58","yrdqbys9rhspseh",802,"184.csv","","null","resources/maskTrios/L4BB.jpg","null","",NA,NA,NA,NA,""
"image-keyboard-response",188,143765,"0.0-4.58-2.58","yrdqbys9rhspseh",802,"184.csv","","null","resources/images/fishbone.png","null","",NA,NA,NA,NA,""
"image-keyboard-response",189,143828,"0.0-4.59-0.59","yrdqbys9rhspseh",802,"184.csv","","62","resources/trios/L4T2A3.jpg","38","restless",0.6,0.6,0.9,0.588790815418146,"true"
"image-keyboard-response",190,144231,"0.0-4.59-1.59","yrdqbys9rhspseh",802,"184.csv","","null","resources/maskTrios/BT2B.jpg","null","",NA,NA,NA,NA,""
"image-keyboard-response",191,145437,"0.0-4.59-2.59","yrdqbys9rhspseh",802,"184.csv","","null","resources/images/coin2.png","null","",NA,NA,NA,NA,""
"image-keyboard-response",192,145548,"0.0-4.60-0.60","yrdqbys9rhspseh",802,"184.csv","","109","resources/trios/L4T2A3.jpg","38","restless",0.6,0.6,0.9,0.793783382552191,"false"
"image-keyboard-response",193,145952,"0.0-4.60-1.60","yrdqbys9rhspseh",802,"184.csv","","null","resources/maskTrios/BT2B.jpg","null","",NA,NA,NA,NA,""
"image-keyboard-response",194,147159,"0.0-4.60-2.60","yrdqbys9rhspseh",802,"184.csv","","null","resources/images/fishbone.png","null","",NA,NA,NA,NA,""
"image-keyboard-response",195,147413,"0.0-4.61-0.61","yrdqbys9rhspseh",802,"184.csv","","252.5","resources/trios/L4T2A3.jpg","39","restless",0.6,0.6,0.9,0.721823291825689,"true"
"image-keyboard-response",196,147820,"0.0-4.61-1.61","yrdqbys9rhspseh",802,"184.csv","","null","resources/maskTrios/BBA3.jpg","null","",NA,NA,NA,NA,""
"image-keyboard-response",197,149026,"0.0-4.61-2.61","yrdqbys9rhspseh",802,"184.csv","","null","resources/images/coin2.png","null","",NA,NA,NA,NA,""
"image-keyboard-response",198,149112,"0.0-4.62-0.62","yrdqbys9rhspseh",802,"184.csv","","84.30000007152557","resources/trios/L4T2A3.jpg","39","restless",0.6,0.5,0.8,0.817790476264168,"false"
"image-keyboard-response",199,149520,"0.0-4.62-1.62","yrdqbys9rhspseh",802,"184.csv","","null","resources/maskTrios/BBA3.jpg","null","",NA,NA,NA,NA,""
"image-keyboard-response",200,150727,"0.0-4.62-2.62","yrdqbys9rhspseh",802,"184.csv","","null","resources/images/fishbone.png","null","",NA,NA,NA,NA,""
"image-keyboard-response",201,151007,"0.0-4.63-0.63","yrdqbys9rhspseh",802,"184.csv","","277.7999999523163","resources/trios/L4T2A3.jpg","37","restless",0.6,0.5,0.9,0.425397020259866,"true"
"image-keyboard-response",202,151413,"0.0-4.63-1.63","yrdqbys9rhspseh",802,"184.csv","","null","resources/maskTrios/L4BB.jpg","null","",NA,NA,NA,NA,""
"image-keyboard-response",203,152619,"0.0-4.63-2.63","yrdqbys9rhspseh",802,"184.csv","","null","resources/images/coin2.png","null","",NA,NA,NA,NA,""
"image-keyboard-response",204,152749,"0.0-4.64-0.64","yrdqbys9rhspseh",802,"184.csv","","128.5","resources/trios/L4T2A3.jpg","37","restless",0.6,0.5,0.9,0.114187335086957,"true"
"image-keyboard-response",205,153156,"0.0-4.64-1.64","yrdqbys9rhspseh",802,"184.csv","","null","resources/maskTrios/L4BB.jpg","null","",NA,NA,NA,NA,""
"image-keyboard-response",206,154364,"0.0-4.64-2.64","yrdqbys9rhspseh",802,"184.csv","","null","resources/images/coin2.png","null","",NA,NA,NA,NA,""
"image-keyboard-response",207,154632,"0.0-4.65-0.65","yrdqbys9rhspseh",802,"184.csv","","267","resources/trios/L4T2A3.jpg","38","restless",0.6,0.5,0.9,0.964854192854336,"false"
"image-keyboard-response",208,155039,"0.0-4.65-1.65","yrdqbys9rhspseh",802,"184.csv","","null","resources/maskTrios/BT2B.jpg","null","",NA,NA,NA,NA,""
"image-keyboard-response",209,156243,"0.0-4.65-2.65","yrdqbys9rhspseh",802,"184.csv","","null","resources/images/fishbone.png","null","",NA,NA,NA,NA,""
"image-keyboard-response",210,156458,"0.0-4.66-0.66","yrdqbys9rhspseh",802,"184.csv","","212.89999997615814","resources/trios/L4T2A3.jpg","38","restless",0.6,0.5,0.9,0.00487557183964782,"true"
"image-keyboard-response",211,156865,"0.0-4.66-1.66","yrdqbys9rhspseh",802,"184.csv","","null","resources/maskTrios/BT2B.jpg","null","",NA,NA,NA,NA,""
"image-keyboard-response",212,158072,"0.0-4.66-2.66","yrdqbys9rhspseh",802,"184.csv","","null","resources/images/coin2.png","null","",NA,NA,NA,NA,""
"image-keyboard-response",213,158340,"0.0-4.67-0.67","yrdqbys9rhspseh",802,"184.csv","","265.89999997615814","resources/trios/L4T2A3.jpg","38","restless",0.6,0.6,0.9,0.0953706371637124,"true"
"image-keyboard-response",214,158745,"0.0-4.67-1.67","yrdqbys9rhspseh",802,"184.csv","","null","resources/maskTrios/BT2B.jpg","null","",NA,NA,NA,NA,""
"image-keyboard-response",215,159953,"0.0-4.67-2.67","yrdqbys9rhspseh",802,"184.csv","","null","resources/images/coin2.png","null","",NA,NA,NA,NA,""
"image-keyboard-response",216,160251,"0.0-4.68-0.68","yrdqbys9rhspseh",802,"184.csv","","296.6999999284744","resources/trios/L4T2A3.jpg","39","restless",0.6,0.6,0.9,0.34295681432731,"true"
"image-keyboard-response",217,160658,"0.0-4.68-1.68","yrdqbys9rhspseh",802,"184.csv","","null","resources/maskTrios/BBA3.jpg","null","",NA,NA,NA,NA,""
"image-keyboard-response",218,161865,"0.0-4.68-2.68","yrdqbys9rhspseh",802,"184.csv","","null","resources/images/coin2.png","null","",NA,NA,NA,NA,""
"image-keyboard-response",219,162010,"0.0-4.69-0.69","yrdqbys9rhspseh",802,"184.csv","","142.39999997615814","resources/trios/L4T2A3.jpg","39","restless",0.6,0.6,0.8,0.843333472576488,"false"
"image-keyboard-response",220,162417,"0.0-4.69-1.69","yrdqbys9rhspseh",802,"184.csv","","null","resources/maskTrios/BBA3.jpg","null","",NA,NA,NA,NA,""
"image-keyboard-response",221,163625,"0.0-4.69-2.69","yrdqbys9rhspseh",802,"184.csv","","null","resources/images/fishbone.png","null","",NA,NA,NA,NA,""
"image-keyboard-response",222,163706,"0.0-4.70-0.70","yrdqbys9rhspseh",802,"184.csv","","79.10000002384186","resources/trios/L4T2A3.jpg","37","restless",0.6,0.6,0.8,0.193557312574543,"true"
"image-keyboard-response",223,164113,"0.0-4.70-1.70","yrdqbys9rhspseh",802,"184.csv","","null","resources/maskTrios/L4BB.jpg","null","",NA,NA,NA,NA,""
"image-keyboard-response",224,165320,"0.0-4.70-2.70","yrdqbys9rhspseh",802,"184.csv","","null","resources/images/coin2.png","null","",NA,NA,NA,NA,""
"image-keyboard-response",225,165446,"0.0-4.71-0.71","yrdqbys9rhspseh",802,"184.csv","","123.59999990463257","resources/trios/L4T2A3.jpg","37","restless",0.7,0.6,0.8,0.933317110827572,"false"
"image-keyboard-response",226,165852,"0.0-4.71-1.71","yrdqbys9rhspseh",802,"184.csv","","null","resources/maskTrios/L4BB.jpg","null","",NA,NA,NA,NA,""
"image-keyboard-response",227,167058,"0.0-4.71-2.71","yrdqbys9rhspseh",802,"184.csv","","null","resources/images/fishbone.png","null","",NA,NA,NA,NA,""
"image-keyboard-response",228,167907,"0.0-4.72-0.72","yrdqbys9rhspseh",802,"184.csv","","848.1000000238419","resources/trios/L4T2A3.jpg","38","restless",0.7,0.6,0.8,0.128019047446913,"true"
"image-keyboard-response",229,168313,"0.0-4.72-1.72","yrdqbys9rhspseh",802,"184.csv","","null","resources/maskTrios/BT2B.jpg","null","",NA,NA,NA,NA,""
"image-keyboard-response",230,169521,"0.0-4.72-2.72","yrdqbys9rhspseh",802,"184.csv","","null","resources/images/coin2.png","null","",NA,NA,NA,NA,""
"image-keyboard-response",231,169787,"0.0-4.73-0.73","yrdqbys9rhspseh",802,"184.csv","","264.7999999523163","resources/trios/L4T2A3.jpg","38","restless",0.7,0.6,0.7,0.0714462216916223,"true"
"image-keyboard-response",232,170191,"0.0-4.73-1.73","yrdqbys9rhspseh",802,"184.csv","","null","resources/maskTrios/BT2B.jpg","null","",NA,NA,NA,NA,""
"image-keyboard-response",233,171399,"0.0-4.73-2.73","yrdqbys9rhspseh",802,"184.csv","","null","resources/images/coin2.png","null","",NA,NA,NA,NA,""
"image-keyboard-response",234,171447,"0.0-4.74-0.74","yrdqbys9rhspseh",802,"184.csv","","47.299999952316284","resources/trios/L4T2A3.jpg","38","restless",0.7,0.6,0.7,0.0415553751977404,"true"
"image-keyboard-response",235,171851,"0.0-4.74-1.74","yrdqbys9rhspseh",802,"184.csv","","null","resources/maskTrios/BT2B.jpg","null","",NA,NA,NA,NA,""
"image-keyboard-response",236,173058,"0.0-4.74-2.74","yrdqbys9rhspseh",802,"184.csv","","null","resources/images/coin2.png","null","",NA,NA,NA,NA,""
"image-keyboard-response",237,173115,"0.0-4.75-0.75","yrdqbys9rhspseh",802,"184.csv","","55","resources/trios/L4T2A3.jpg","38","restless",0.7,0.6,0.7,0.324954830828005,"true"
"image-keyboard-response",238,173521,"0.0-4.75-1.75","yrdqbys9rhspseh",802,"184.csv","","null","resources/maskTrios/BT2B.jpg","null","",NA,NA,NA,NA,""
"image-keyboard-response",239,174723,"0.0-4.75-2.75","yrdqbys9rhspseh",802,"184.csv","","null","resources/images/coin2.png","null","",NA,NA,NA,NA,""
"image-keyboard-response",240,175593,"0.0-4.76-0.76","yrdqbys9rhspseh",802,"184.csv","","867.2999999523163","resources/trios/L4T2A3.jpg","38","restless",0.7,0.6,0.6,0.0524897256941437,"true"
"image-keyboard-response",241,175999,"0.0-4.76-1.76","yrdqbys9rhspseh",802,"184.csv","","null","resources/maskTrios/BT2B.jpg","null","",NA,NA,NA,NA,""
"image-keyboard-response",242,177202,"0.0-4.76-2.76","yrdqbys9rhspseh",802,"184.csv","","null","resources/images/coin2.png","null","",NA,NA,NA,NA,""
"image-keyboard-response",243,177488,"0.0-4.77-0.77","yrdqbys9rhspseh",802,"184.csv","","284.60000002384186","resources/trios/L4T2A3.jpg","38","restless",0.7,0.6,0.6,0.584883901237103,"true"
"image-keyboard-response",244,177895,"0.0-4.77-1.77","yrdqbys9rhspseh",802,"184.csv","","null","resources/maskTrios/BT2B.jpg","null","",NA,NA,NA,NA,""
"image-keyboard-response",245,179102,"0.0-4.77-2.77","yrdqbys9rhspseh",802,"184.csv","","null","resources/images/coin2.png","null","",NA,NA,NA,NA,""
"image-keyboard-response",246,179258,"0.0-4.78-0.78","yrdqbys9rhspseh",802,"184.csv","","154.5","resources/trios/L4T2A3.jpg","38","restless",0.7,0.6,0.6,0.49056441561964,"true"
"image-keyboard-response",247,179666,"0.0-4.78-1.78","yrdqbys9rhspseh",802,"184.csv","","null","resources/maskTrios/BT2B.jpg","null","",NA,NA,NA,NA,""
"image-keyboard-response",248,180869,"0.0-4.78-2.78","yrdqbys9rhspseh",802,"184.csv","","null","resources/images/coin2.png","null","",NA,NA,NA,NA,""
"image-keyboard-response",249,181187,"0.0-4.79-0.79","yrdqbys9rhspseh",802,"184.csv","","315.89999997615814","resources/trios/L4T2A3.jpg","38","restless",0.7,0.6,0.6,0.674349040765277,"false"
"image-keyboard-response",250,181593,"0.0-4.79-1.79","yrdqbys9rhspseh",802,"184.csv","","null","resources/maskTrios/BT2B.jpg","null","",NA,NA,NA,NA,""
"image-keyboard-response",251,182800,"0.0-4.79-2.79","yrdqbys9rhspseh",802,"184.csv","","null","resources/images/fishbone.png","null","",NA,NA,NA,NA,""
"image-keyboard-response",252,182988,"0.0-4.80-0.80","yrdqbys9rhspseh",802,"184.csv","","185.5","resources/trios/L4T2A3.jpg","39","restless",0.7,0.6,0.6,0.867714179083793,"false"
"image-keyboard-response",253,183392,"0.0-4.80-1.80","yrdqbys9rhspseh",802,"184.csv","","null","resources/maskTrios/BBA3.jpg","null","",NA,NA,NA,NA,""
"image-keyboard-response",254,184600,"0.0-4.80-2.80","yrdqbys9rhspseh",802,"184.csv","","null","resources/images/fishbone.png","null","",NA,NA,NA,NA,""
"image-keyboard-response",255,185947,"0.0-4.81-0.81","yrdqbys9rhspseh",802,"184.csv","","1345.3999999761581","resources/trios/L4T2A3.jpg","39","restless",0.7,0.6,0.6,0.014126268726036,"true"
"image-keyboard-response",256,186353,"0.0-4.81-1.81","yrdqbys9rhspseh",802,"184.csv","","null","resources/maskTrios/BBA3.jpg","null","",NA,NA,NA,NA,""
"image-keyboard-response",257,187560,"0.0-4.81-2.81","yrdqbys9rhspseh",802,"184.csv","","null","resources/images/coin2.png","null","",NA,NA,NA,NA,""
"image-keyboard-response",258,199077,"0.0-4.82-0.82","yrdqbys9rhspseh",802,"184.csv","","11514.799999952316","resources/trios/L4T2A3.jpg","39","restless",0.7,0.5,0.6,0.94735566317474,"false"
"image-keyboard-response",259,199484,"0.0-4.82-1.82","yrdqbys9rhspseh",802,"184.csv","","null","resources/maskTrios/BBA3.jpg","null","",NA,NA,NA,NA,""
"image-keyboard-response",260,200688,"0.0-4.82-2.82","yrdqbys9rhspseh",802,"184.csv","","null","resources/images/fishbone.png","null","",NA,NA,NA,NA,""
"image-keyboard-response",261,201024,"0.0-4.83-0.83","yrdqbys9rhspseh",802,"184.csv","","333.2999999523163","resources/trios/L4T2A3.jpg","37","restless",0.7,0.5,0.6,0.29706966451441,"true"
"image-keyboard-response",262,201426,"0.0-4.83-1.83","yrdqbys9rhspseh",802,"184.csv","","null","resources/maskTrios/L4BB.jpg","null","",NA,NA,NA,NA,""
"image-keyboard-response",263,202631,"0.0-4.83-2.83","yrdqbys9rhspseh",802,"184.csv","","null","resources/images/coin2.png","null","",NA,NA,NA,NA,""
"image-keyboard-response",264,202982,"0.0-4.84-0.84","yrdqbys9rhspseh",802,"184.csv","","348.7000000476837","resources/trios/L4T2A3.jpg","37","restless",0.7,0.5,0.6,0.040448855654533,"true"
"image-keyboard-response",265,203388,"0.0-4.84-1.84","yrdqbys9rhspseh",802,"184.csv","","null","resources/maskTrios/L4BB.jpg","null","",NA,NA,NA,NA,""
"image-keyboard-response",266,204595,"0.0-4.84-2.84","yrdqbys9rhspseh",802,"184.csv","","null","resources/images/coin2.png","null","",NA,NA,NA,NA,""
"image-keyboard-response",267,204733,"0.0-4.85-0.85","yrdqbys9rhspseh",802,"184.csv","","135.89999997615814","resources/trios/L4T2A3.jpg","38","restless",0.7,0.5,0.6,0.657324213890812,"false"
"image-keyboard-response",268,205136,"0.0-4.85-1.85","yrdqbys9rhspseh",802,"184.csv","","null","resources/maskTrios/BT2B.jpg","null","",NA,NA,NA,NA,""
"image-keyboard-response",269,206343,"0.0-4.85-2.85","yrdqbys9rhspseh",802,"184.csv","","null","resources/images/fishbone.png","null","",NA,NA,NA,NA,""
"image-keyboard-response",270,206446,"0.0-4.86-0.86","yrdqbys9rhspseh",802,"184.csv","","100.39999997615814","resources/trios/L4T2A3.jpg","39","restless",0.7,0.5,0.6,0.436754262994858,"true"
"image-keyboard-response",271,206853,"0.0-4.86-1.86","yrdqbys9rhspseh",802,"184.csv","","null","resources/maskTrios/BBA3.jpg","null","",NA,NA,NA,NA,""
"image-keyboard-response",272,208058,"0.0-4.86-2.86","yrdqbys9rhspseh",802,"184.csv","","null","resources/images/coin2.png","null","",NA,NA,NA,NA,""
"image-keyboard-response",273,208340,"0.0-4.87-0.87","yrdqbys9rhspseh",802,"184.csv","","279.8000000715256","resources/trios/L4T2A3.jpg","39","restless",0.7,0.5,0.6,0.020827472529513,"true"
"image-keyboard-response",274,208746,"0.0-4.87-1.87","yrdqbys9rhspseh",802,"184.csv","","null","resources/maskTrios/BBA3.jpg","null","",NA,NA,NA,NA,""
"image-keyboard-response",275,209950,"0.0-4.87-2.87","yrdqbys9rhspseh",802,"184.csv","","null","resources/images/coin2.png","null","",NA,NA,NA,NA,""
"image-keyboard-response",276,210189,"0.0-4.88-0.88","yrdqbys9rhspseh",802,"184.csv","","237.90000009536743","resources/trios/L4T2A3.jpg","39","restless",0.7,0.5,0.6,0.292017105689357,"true"
"image-keyboard-response",277,210593,"0.0-4.88-1.88","yrdqbys9rhspseh",802,"184.csv","","null","resources/maskTrios/BBA3.jpg","null","",NA,NA,NA,NA,""
"image-keyboard-response",278,211801,"0.0-4.88-2.88","yrdqbys9rhspseh",802,"184.csv","","null","resources/images/coin2.png","null","",NA,NA,NA,NA,""
"image-keyboard-response",279,211918,"0.0-4.89-0.89","yrdqbys9rhspseh",802,"184.csv","","115.10000002384186","resources/trios/L4T2A3.jpg","39","restless",0.7,0.5,0.6,0.696193232250762,"false"
"image-keyboard-response",280,212325,"0.0-4.89-1.89","yrdqbys9rhspseh",802,"184.csv","","null","resources/maskTrios/BBA3.jpg","null","",NA,NA,NA,NA,""
"image-keyboard-response",281,213532,"0.0-4.89-2.89","yrdqbys9rhspseh",802,"184.csv","","null","resources/images/fishbone.png","null","",NA,NA,NA,NA,""
"image-keyboard-response",282,213787,"0.0-4.90-0.90","yrdqbys9rhspseh",802,"184.csv","","252.89999997615814","resources/trios/L4T2A3.jpg","37","restless",0.7,0.6,0.6,0.636716692771834,"true"
"image-keyboard-response",283,214193,"0.0-4.90-1.90","yrdqbys9rhspseh",802,"184.csv","","null","resources/maskTrios/L4BB.jpg","null","",NA,NA,NA,NA,""
"image-keyboard-response",284,215401,"0.0-4.90-2.90","yrdqbys9rhspseh",802,"184.csv","","null","resources/images/coin2.png","null","",NA,NA,NA,NA,""
"image-keyboard-response",285,215684,"0.0-4.91-0.91","yrdqbys9rhspseh",802,"184.csv","","280.7999999523163","resources/trios/L4T2A3.jpg","38","restless",0.7,0.6,0.6,0.69747178434487,"false"
"image-keyboard-response",286,216091,"0.0-4.91-1.91","yrdqbys9rhspseh",802,"184.csv","","null","resources/maskTrios/BT2B.jpg","null","",NA,NA,NA,NA,""
"image-keyboard-response",287,217294,"0.0-4.91-2.91","yrdqbys9rhspseh",802,"184.csv","","null","resources/images/fishbone.png","null","",NA,NA,NA,NA,""
"image-keyboard-response",288,217502,"0.0-4.92-0.92","yrdqbys9rhspseh",802,"184.csv","","205.30000007152557","resources/trios/L4T2A3.jpg","39","restless",0.7,0.6,0.6,0.785647429979316,"false"
"image-keyboard-response",289,217908,"0.0-4.92-1.92","yrdqbys9rhspseh",802,"184.csv","","null","resources/maskTrios/BBA3.jpg","null","",NA,NA,NA,NA,""
"image-keyboard-response",290,219112,"0.0-4.92-2.92","yrdqbys9rhspseh",802,"184.csv","","null","resources/images/fishbone.png","null","",NA,NA,NA,NA,""
"image-keyboard-response",291,219416,"0.0-4.93-0.93","yrdqbys9rhspseh",802,"184.csv","","301.89999997615814","resources/trios/L4T2A3.jpg","37","restless",0.7,0.6,0.7,0.425417998872421,"true"
"image-keyboard-response",292,219823,"0.0-4.93-1.93","yrdqbys9rhspseh",802,"184.csv","","null","resources/maskTrios/L4BB.jpg","null","",NA,NA,NA,NA,""
"image-keyboard-response",293,221031,"0.0-4.93-2.93","yrdqbys9rhspseh",802,"184.csv","","null","resources/images/coin2.png","null","",NA,NA,NA,NA,""
"image-keyboard-response",294,221905,"0.0-4.94-0.94","yrdqbys9rhspseh",802,"184.csv","","872.1000000238419","resources/trios/L4T2A3.jpg","37","restless",0.7,0.6,0.6,0.843800780388491,"false"
"image-keyboard-response",295,222312,"0.0-4.94-1.94","yrdqbys9rhspseh",802,"184.csv","","null","resources/maskTrios/L4BB.jpg","null","",NA,NA,NA,NA,""
"image-keyboard-response",296,223519,"0.0-4.94-2.94","yrdqbys9rhspseh",802,"184.csv","","null","resources/images/fishbone.png","null","",NA,NA,NA,NA,""
"image-keyboard-response",297,223583,"0.0-4.95-0.95","yrdqbys9rhspseh",802,"184.csv","","62","resources/trios/L4T2A3.jpg","38","restless",0.7,0.6,0.6,0.777728075126167,"false"
"image-keyboard-response",298,223987,"0.0-4.95-1.95","yrdqbys9rhspseh",802,"184.csv","","null","resources/maskTrios/BT2B.jpg","null","",NA,NA,NA,NA,""
"image-keyboard-response",299,225194,"0.0-4.95-2.95","yrdqbys9rhspseh",802,"184.csv","","null","resources/images/fishbone.png","null","",NA,NA,NA,NA,""
"image-keyboard-response",300,225220,"0.0-4.96-0.96","yrdqbys9rhspseh",802,"184.csv","","23.899999976158142","resources/trios/L4T2A3.jpg","39","restless",0.7,0.6,0.6,0.969678771089132,"false"
"image-keyboard-response",301,225624,"0.0-4.96-1.96","yrdqbys9rhspseh",802,"184.csv","","null","resources/maskTrios/BBA3.jpg","null","",NA,NA,NA,NA,""
"image-keyboard-response",302,226832,"0.0-4.96-2.96","yrdqbys9rhspseh",802,"184.csv","","null","resources/images/fishbone.png","null","",NA,NA,NA,NA,""
"image-keyboard-response",303,227392,"0.0-4.97-0.97","yrdqbys9rhspseh",802,"184.csv","","558.2000000476837","resources/trios/L4T2A3.jpg","37","restless",0.7,0.6,0.6,0.032695328356666,"true"
"image-keyboard-response",304,227799,"0.0-4.97-1.97","yrdqbys9rhspseh",802,"184.csv","","null","resources/maskTrios/L4BB.jpg","null","",NA,NA,NA,NA,""
"image-keyboard-response",305,229003,"0.0-4.97-2.97","yrdqbys9rhspseh",802,"184.csv","","null","resources/images/coin2.png","null","",NA,NA,NA,NA,""
"image-keyboard-response",306,229151,"0.0-4.98-0.98","yrdqbys9rhspseh",802,"184.csv","","145.39999997615814","resources/trios/L4T2A3.jpg","37","restless",0.7,0.6,0.6,0.53719894682795,"true"
"image-keyboard-response",307,229558,"0.0-4.98-1.98","yrdqbys9rhspseh",802,"184.csv","","null","resources/maskTrios/L4BB.jpg","null","",NA,NA,NA,NA,""
"image-keyboard-response",308,230765,"0.0-4.98-2.98","yrdqbys9rhspseh",802,"184.csv","","null","resources/images/coin2.png","null","",NA,NA,NA,NA,""
"image-keyboard-response",309,230863,"0.0-4.99-0.99","yrdqbys9rhspseh",802,"184.csv","","95.5","resources/trios/L4T2A3.jpg","37","restless",0.7,0.6,0.6,0.120828043855044,"true"
"image-keyboard-response",310,231269,"0.0-4.99-1.99","yrdqbys9rhspseh",802,"184.csv","","null","resources/maskTrios/L4BB.jpg","null","",NA,NA,NA,NA,""
"image-keyboard-response",311,232476,"0.0-4.99-2.99","yrdqbys9rhspseh",802,"184.csv","","null","resources/images/coin2.png","null","",NA,NA,NA,NA,""
"image-keyboard-response",312,234037,"0.0-4.100-0.100","yrdqbys9rhspseh",802,"184.csv","","1558.8999999761581","resources/trios/L4T2A3.jpg","37","restless",0.7,0.7,0.6,0.74417533466162,"false"
"image-keyboard-response",313,234443,"0.0-4.100-1.100","yrdqbys9rhspseh",802,"184.csv","","null","resources/maskTrios/L4BB.jpg","null","",NA,NA,NA,NA,""
"image-keyboard-response",314,235650,"0.0-4.100-2.100","yrdqbys9rhspseh",802,"184.csv","","null","resources/images/fishbone.png","null","",NA,NA,NA,NA,""
"image-keyboard-response",315,235876,"0.0-4.101-0.101","yrdqbys9rhspseh",802,"184.csv","","225","resources/trios/L4T2A3.jpg","38","restless",0.7,0.7,0.6,0.596883826132968,"true"
"image-keyboard-response",316,236283,"0.0-4.101-1.101","yrdqbys9rhspseh",802,"184.csv","","null","resources/maskTrios/BT2B.jpg","null","",NA,NA,NA,NA,""
"image-keyboard-response",317,237490,"0.0-4.101-2.101","yrdqbys9rhspseh",802,"184.csv","","null","resources/images/coin2.png","null","",NA,NA,NA,NA,""
"image-keyboard-response",318,238087,"0.0-4.102-0.102","yrdqbys9rhspseh",802,"184.csv","","595","resources/trios/L4T2A3.jpg","38","restless",0.7,0.7,0.6,0.238963121738468,"true"
"image-keyboard-response",319,238494,"0.0-4.102-1.102","yrdqbys9rhspseh",802,"184.csv","","null","resources/maskTrios/BT2B.jpg","null","",NA,NA,NA,NA,""
"image-keyboard-response",320,239702,"0.0-4.102-2.102","yrdqbys9rhspseh",802,"184.csv","","null","resources/images/coin2.png","null","",NA,NA,NA,NA,""
"image-keyboard-response",321,240239,"0.0-4.103-0.103","yrdqbys9rhspseh",802,"184.csv","","535.3999999761581","resources/trios/L4T2A3.jpg","38","restless",0.7,0.8,0.5,0.86986865121072,"false"
"image-keyboard-response",322,240645,"0.0-4.103-1.103","yrdqbys9rhspseh",802,"184.csv","","null","resources/maskTrios/BT2B.jpg","null","",NA,NA,NA,NA,""
"image-keyboard-response",323,241852,"0.0-4.103-2.103","yrdqbys9rhspseh",802,"184.csv","","null","resources/images/fishbone.png","null","",NA,NA,NA,NA,""
"image-keyboard-response",324,242169,"0.0-4.104-0.104","yrdqbys9rhspseh",802,"184.csv","","316.10000002384186","resources/trios/L4T2A3.jpg","39","restless",0.7,0.8,0.5,0.322194081359035,"true"
"image-keyboard-response",325,242577,"0.0-4.104-1.104","yrdqbys9rhspseh",802,"184.csv","","null","resources/maskTrios/BBA3.jpg","null","",NA,NA,NA,NA,""
"image-keyboard-response",326,243784,"0.0-4.104-2.104","yrdqbys9rhspseh",802,"184.csv","","null","resources/images/coin2.png","null","",NA,NA,NA,NA,""
"image-keyboard-response",327,244227,"0.0-4.105-0.105","yrdqbys9rhspseh",802,"184.csv","","440.89999997615814","resources/trios/L4T2A3.jpg","39","restless",0.7,0.8,0.5,0.442813333769834,"true"
"image-keyboard-response",328,244632,"0.0-4.105-1.105","yrdqbys9rhspseh",802,"184.csv","","null","resources/maskTrios/BBA3.jpg","null","",NA,NA,NA,NA,""
"image-keyboard-response",329,245840,"0.0-4.105-2.105","yrdqbys9rhspseh",802,"184.csv","","null","resources/images/coin2.png","null","",NA,NA,NA,NA,""
"image-keyboard-response",330,246366,"0.0-4.106-0.106","yrdqbys9rhspseh",802,"184.csv","","524.5","resources/trios/L4T2A3.jpg","39","restless",0.7,0.8,0.5,0.430985368369776,"true"
"image-keyboard-response",331,246771,"0.0-4.106-1.106","yrdqbys9rhspseh",802,"184.csv","","null","resources/maskTrios/BBA3.jpg","null","",NA,NA,NA,NA,""
"image-keyboard-response",332,247978,"0.0-4.106-2.106","yrdqbys9rhspseh",802,"184.csv","","null","resources/images/coin2.png","null","",NA,NA,NA,NA,""
"image-keyboard-response",333,248290,"0.0-4.107-0.107","yrdqbys9rhspseh",802,"184.csv","","309.7999999523163","resources/trios/L4T2A3.jpg","39","restless",0.7,0.8,0.5,0.492646071485528,"true"
"image-keyboard-response",334,248697,"0.0-4.107-1.107","yrdqbys9rhspseh",802,"184.csv","","null","resources/maskTrios/BBA3.jpg","null","",NA,NA,NA,NA,""
"image-keyboard-response",335,249904,"0.0-4.107-2.107","yrdqbys9rhspseh",802,"184.csv","","null","resources/images/coin2.png","null","",NA,NA,NA,NA,""
"image-keyboard-response",336,250178,"0.0-4.108-0.108","yrdqbys9rhspseh",802,"184.csv","","271.89999997615814","resources/trios/L4T2A3.jpg","39","restless",0.7,0.7,0.5,0.595457193279898,"false"
"image-keyboard-response",337,250581,"0.0-4.108-1.108","yrdqbys9rhspseh",802,"184.csv","","null","resources/maskTrios/BBA3.jpg","null","",NA,NA,NA,NA,""
"image-keyboard-response",338,251786,"0.0-4.108-2.108","yrdqbys9rhspseh",802,"184.csv","","null","resources/images/fishbone.png","null","",NA,NA,NA,NA,""
"image-keyboard-response",339,251804,"0.0-4.109-0.109","yrdqbys9rhspseh",802,"184.csv","","16.300000071525574","resources/trios/L4T2A3.jpg","37","restless",0.7,0.7,0.5,0.681451169049884,"true"
"image-keyboard-response",340,252209,"0.0-4.109-1.109","yrdqbys9rhspseh",802,"184.csv","","null","resources/maskTrios/L4BB.jpg","null","",NA,NA,NA,NA,""
"image-keyboard-response",341,253416,"0.0-4.109-2.109","yrdqbys9rhspseh",802,"184.csv","","null","resources/images/coin2.png","null","",NA,NA,NA,NA,""
"image-keyboard-response",342,253430,"0.0-4.110-0.110","yrdqbys9rhspseh",802,"184.csv","","12","resources/trios/L4T2A3.jpg","37","restless",0.7,0.7,0.5,0.548876814255341,"true"
"image-keyboard-response",343,253833,"0.0-4.110-1.110","yrdqbys9rhspseh",802,"184.csv","","null","resources/maskTrios/L4BB.jpg","null","",NA,NA,NA,NA,""
"image-keyboard-response",344,255041,"0.0-4.110-2.110","yrdqbys9rhspseh",802,"184.csv","","null","resources/images/coin2.png","null","",NA,NA,NA,NA,""
"image-keyboard-response",345,255248,"0.0-4.111-0.111","yrdqbys9rhspseh",802,"184.csv","","205.80000007152557","resources/trios/L4T2A3.jpg","37","restless",0.7,0.7,0.5,0.597513913335306,"true"
"image-keyboard-response",346,255655,"0.0-4.111-1.111","yrdqbys9rhspseh",802,"184.csv","","null","resources/maskTrios/L4BB.jpg","null","",NA,NA,NA,NA,""
"image-keyboard-response",347,256858,"0.0-4.111-2.111","yrdqbys9rhspseh",802,"184.csv","","null","resources/images/coin2.png","null","",NA,NA,NA,NA,""
"image-keyboard-response",348,257429,"0.0-4.112-0.112","yrdqbys9rhspseh",802,"184.csv","","569.4000000953674","resources/trios/L4T2A3.jpg","37","restless",0.7,0.6,0.5,0.41106842613169,"true"
"image-keyboard-response",349,257832,"0.0-4.112-1.112","yrdqbys9rhspseh",802,"184.csv","","null","resources/maskTrios/L4BB.jpg","null","",NA,NA,NA,NA,""
"image-keyboard-response",350,259037,"0.0-4.112-2.112","yrdqbys9rhspseh",802,"184.csv","","null","resources/images/coin2.png","null","",NA,NA,NA,NA,""
"image-keyboard-response",351,259334,"0.0-4.113-0.113","yrdqbys9rhspseh",802,"184.csv","","296","resources/trios/L4T2A3.jpg","37","restless",0.7,0.6,0.5,0.465066589864626,"true"
"image-keyboard-response",352,259738,"0.0-4.113-1.113","yrdqbys9rhspseh",802,"184.csv","","null","resources/maskTrios/L4BB.jpg","null","",NA,NA,NA,NA,""
"image-keyboard-response",353,260941,"0.0-4.113-2.113","yrdqbys9rhspseh",802,"184.csv","","null","resources/images/coin2.png","null","",NA,NA,NA,NA,""
"image-keyboard-response",354,261278,"0.0-4.114-0.114","yrdqbys9rhspseh",802,"184.csv","","335.1999999284744","resources/trios/L4T2A3.jpg","37","restless",0.7,0.6,0.5,0.358338187862387,"true"
"image-keyboard-response",355,261681,"0.0-4.114-1.114","yrdqbys9rhspseh",802,"184.csv","","null","resources/maskTrios/L4BB.jpg","null","",NA,NA,NA,NA,""
"image-keyboard-response",356,262888,"0.0-4.114-2.114","yrdqbys9rhspseh",802,"184.csv","","null","resources/images/coin2.png","null","",NA,NA,NA,NA,""
"image-keyboard-response",357,264074,"0.0-4.115-0.115","yrdqbys9rhspseh",802,"184.csv","","1183.1999999284744","resources/trios/L4T2A3.jpg","37","restless",0.7,0.6,0.5,0.195906160744693,"true"
"image-keyboard-response",358,264476,"0.0-4.115-1.115","yrdqbys9rhspseh",802,"184.csv","","null","resources/maskTrios/L4BB.jpg","null","",NA,NA,NA,NA,""
"image-keyboard-response",359,265681,"0.0-4.115-2.115","yrdqbys9rhspseh",802,"184.csv","","null","resources/images/coin2.png","null","",NA,NA,NA,NA,""
"image-keyboard-response",360,265838,"0.0-4.116-0.116","yrdqbys9rhspseh",802,"184.csv","","154.60000002384186","resources/trios/L4T2A3.jpg","37","restless",0.7,0.6,0.5,0.012414537074281,"true"
"image-keyboard-response",361,266241,"0.0-4.116-1.116","yrdqbys9rhspseh",802,"184.csv","","null","resources/maskTrios/L4BB.jpg","null","",NA,NA,NA,NA,""
"image-keyboard-response",362,267448,"0.0-4.116-2.116","yrdqbys9rhspseh",802,"184.csv","","null","resources/images/coin2.png","null","",NA,NA,NA,NA,""
"image-keyboard-response",363,268831,"0.0-4.117-0.117","yrdqbys9rhspseh",802,"184.csv","","1381.1000000238419","resources/trios/L4T2A3.jpg","37","restless",0.7,0.6,0.5,0.428945496352275,"true"
"image-keyboard-response",364,269234,"0.0-4.117-1.117","yrdqbys9rhspseh",802,"184.csv","","null","resources/maskTrios/L4BB.jpg","null","",NA,NA,NA,NA,""
"image-keyboard-response",365,270440,"0.0-4.117-2.117","yrdqbys9rhspseh",802,"184.csv","","null","resources/images/coin2.png","null","",NA,NA,NA,NA,""
"image-keyboard-response",366,270962,"0.0-4.118-0.118","yrdqbys9rhspseh",802,"184.csv","","519.6999999284744","resources/trios/L4T2A3.jpg","37","restless",0.7,0.6,0.5,0.646372585307487,"true"
"image-keyboard-response",367,271365,"0.0-4.118-1.118","yrdqbys9rhspseh",802,"184.csv","","null","resources/maskTrios/L4BB.jpg","null","",NA,NA,NA,NA,""
"image-keyboard-response",368,272572,"0.0-4.118-2.118","yrdqbys9rhspseh",802,"184.csv","","null","resources/images/coin2.png","null","",NA,NA,NA,NA,""
"image-keyboard-response",369,273326,"0.0-4.119-0.119","yrdqbys9rhspseh",802,"184.csv","","752.1999999284744","resources/trios/L4T2A3.jpg","37","restless",0.7,0.6,0.5,0.541920863606815,"true"
"image-keyboard-response",370,273730,"0.0-4.119-1.119","yrdqbys9rhspseh",802,"184.csv","","null","resources/maskTrios/L4BB.jpg","null","",NA,NA,NA,NA,""
"image-keyboard-response",371,274935,"0.0-4.119-2.119","yrdqbys9rhspseh",802,"184.csv","","null","resources/images/coin2.png","null","",NA,NA,NA,NA,""
"image-keyboard-response",372,275384,"0.0-4.120-0.120","yrdqbys9rhspseh",802,"184.csv","","447.60000002384186","resources/trios/L4T2A3.jpg","37","restless",0.7,0.5,0.5,0.655159093482872,"true"
"image-keyboard-response",373,275787,"0.0-4.120-1.120","yrdqbys9rhspseh",802,"184.csv","","null","resources/maskTrios/L4BB.jpg","null","",NA,NA,NA,NA,""
"image-keyboard-response",374,276994,"0.0-4.120-2.120","yrdqbys9rhspseh",802,"184.csv","","null","resources/images/coin2.png","null","",NA,NA,NA,NA,""
"image-keyboard-response",375,277751,"0.0-4.121-0.121","yrdqbys9rhspseh",802,"184.csv","","755.3000000715256","resources/trios/L4T2A3.jpg","37","restless",0.7,0.5,0.5,0.61039408441794,"true"
"image-keyboard-response",376,278158,"0.0-4.121-1.121","yrdqbys9rhspseh",802,"184.csv","","null","resources/maskTrios/L4BB.jpg","null","",NA,NA,NA,NA,""
"image-keyboard-response",377,279360,"0.0-4.121-2.121","yrdqbys9rhspseh",802,"184.csv","","null","resources/images/coin2.png","null","",NA,NA,NA,NA,""
"image-keyboard-response",378,279648,"0.0-4.122-0.122","yrdqbys9rhspseh",802,"184.csv","","285.89999997615814","resources/trios/L4T2A3.jpg","37","restless",0.8,0.5,0.6,0.134112538744027,"true"
"image-keyboard-response",379,280055,"0.0-4.122-1.122","yrdqbys9rhspseh",802,"184.csv","","null","resources/maskTrios/L4BB.jpg","null","",NA,NA,NA,NA,""
"image-keyboard-response",380,281259,"0.0-4.122-2.122","yrdqbys9rhspseh",802,"184.csv","","null","resources/images/coin2.png","null","",NA,NA,NA,NA,""
"image-keyboard-response",381,281838,"0.0-4.123-0.123","yrdqbys9rhspseh",802,"184.csv","","576.3999999761581","resources/trios/L4T2A3.jpg","37","restless",0.8,0.5,0.6,0.0623152024341189,"true"
"image-keyboard-response",382,282243,"0.0-4.123-1.123","yrdqbys9rhspseh",802,"184.csv","","null","resources/maskTrios/L4BB.jpg","null","",NA,NA,NA,NA,""
"image-keyboard-response",383,283447,"0.0-4.123-2.123","yrdqbys9rhspseh",802,"184.csv","","null","resources/images/coin2.png","null","",NA,NA,NA,NA,""
"image-keyboard-response",384,285053,"0.0-4.124-0.124","yrdqbys9rhspseh",802,"184.csv","","1604.2999999523163","resources/trios/L4T2A3.jpg","37","restless",0.8,0.5,0.6,0.967113159831769,"false"
"image-keyboard-response",385,285460,"0.0-4.124-1.124","yrdqbys9rhspseh",802,"184.csv","","null","resources/maskTrios/L4BB.jpg","null","",NA,NA,NA,NA,""
"image-keyboard-response",386,286667,"0.0-4.124-2.124","yrdqbys9rhspseh",802,"184.csv","","null","resources/images/fishbone.png","null","",NA,NA,NA,NA,""
"image-keyboard-response",387,287470,"0.0-4.125-0.125","yrdqbys9rhspseh",802,"184.csv","","801.3999999761581","resources/trios/L4T2A3.jpg","37","restless",0.8,0.5,0.6,0.877828331841218,"false"
"image-keyboard-response",388,287878,"0.0-4.125-1.125","yrdqbys9rhspseh",802,"184.csv","","null","resources/maskTrios/L4BB.jpg","null","",NA,NA,NA,NA,""
"image-keyboard-response",389,289082,"0.0-4.125-2.125","yrdqbys9rhspseh",802,"184.csv","","null","resources/images/fishbone.png","null","",NA,NA,NA,NA,""
"image-keyboard-response",390,289116,"0.0-4.126-0.126","yrdqbys9rhspseh",802,"184.csv","","32.200000047683716","resources/trios/L4T2A3.jpg","38","restless",0.9,0.5,0.6,0.293406923867243,"true"
"image-keyboard-response",391,289520,"0.0-4.126-1.126","yrdqbys9rhspseh",802,"184.csv","","null","resources/maskTrios/BT2B.jpg","null","",NA,NA,NA,NA,""
"image-keyboard-response",392,290726,"0.0-4.126-2.126","yrdqbys9rhspseh",802,"184.csv","","null","resources/images/coin2.png","null","",NA,NA,NA,NA,""
"image-keyboard-response",393,290927,"0.0-4.127-0.127","yrdqbys9rhspseh",802,"184.csv","","200","resources/trios/L4T2A3.jpg","38","restless",0.8,0.5,0.6,0.47550862949632,"true"
"image-keyboard-response",394,291331,"0.0-4.127-1.127","yrdqbys9rhspseh",802,"184.csv","","null","resources/maskTrios/BT2B.jpg","null","",NA,NA,NA,NA,""
"image-keyboard-response",395,292538,"0.0-4.127-2.127","yrdqbys9rhspseh",802,"184.csv","","null","resources/images/coin2.png","null","",NA,NA,NA,NA,""
"image-keyboard-response",396,294497,"0.0-4.128-0.128","yrdqbys9rhspseh",802,"184.csv","","1956.3999999761581","resources/trios/L4T2A3.jpg","38","restless",0.8,0.5,0.6,0.403178781581966,"true"
"image-keyboard-response",397,294899,"0.0-4.128-1.128","yrdqbys9rhspseh",802,"184.csv","","null","resources/maskTrios/BT2B.jpg","null","",NA,NA,NA,NA,""
"image-keyboard-response",398,296102,"0.0-4.128-2.128","yrdqbys9rhspseh",802,"184.csv","","null","resources/images/coin2.png","null","",NA,NA,NA,NA,""
"image-keyboard-response",399,296536,"0.0-4.129-0.129","yrdqbys9rhspseh",802,"184.csv","","431.3000000715256","resources/trios/L4T2A3.jpg","38","restless",0.8,0.5,0.6,0.110600780073975,"true"
"image-keyboard-response",400,296939,"0.0-4.129-1.129","yrdqbys9rhspseh",802,"184.csv","","null","resources/maskTrios/BT2B.jpg","null","",NA,NA,NA,NA,""
"image-keyboard-response",401,298141,"0.0-4.129-2.129","yrdqbys9rhspseh",802,"184.csv","","null","resources/images/coin2.png","null","",NA,NA,NA,NA,""
"image-keyboard-response",402,301509,"0.0-4.130-0.130","yrdqbys9rhspseh",802,"184.csv","","3365.5","resources/trios/L4T2A3.jpg","38","restless",0.8,0.5,0.6,0.0470718405508352,"true"
"image-keyboard-response",403,301912,"0.0-4.130-1.130","yrdqbys9rhspseh",802,"184.csv","","null","resources/maskTrios/BT2B.jpg","null","",NA,NA,NA,NA,""
"image-keyboard-response",404,303120,"0.0-4.130-2.130","yrdqbys9rhspseh",802,"184.csv","","null","resources/images/coin2.png","null","",NA,NA,NA,NA,""
"image-keyboard-response",405,303879,"0.0-4.131-0.131","yrdqbys9rhspseh",802,"184.csv","","756.5","resources/trios/L4T2A3.jpg","38","restless",0.9,0.5,0.6,0.421321880352432,"true"
"image-keyboard-response",406,304281,"0.0-4.131-1.131","yrdqbys9rhspseh",802,"184.csv","","null","resources/maskTrios/BT2B.jpg","null","",NA,NA,NA,NA,""
"image-keyboard-response",407,305489,"0.0-4.131-2.131","yrdqbys9rhspseh",802,"184.csv","","null","resources/images/coin2.png","null","",NA,NA,NA,NA,""
"image-keyboard-response",408,306262,"0.0-4.132-0.132","yrdqbys9rhspseh",802,"184.csv","","771.7000000476837","resources/trios/L4T2A3.jpg","38","restless",0.9,0.5,0.6,0.931559339155768,"false"
"image-keyboard-response",409,306670,"0.0-4.132-1.132","yrdqbys9rhspseh",802,"184.csv","","null","resources/maskTrios/BT2B.jpg","null","",NA,NA,NA,NA,""
"image-keyboard-response",410,307878,"0.0-4.132-2.132","yrdqbys9rhspseh",802,"184.csv","","null","resources/images/fishbone.png","null","",NA,NA,NA,NA,""
"image-keyboard-response",411,308030,"0.0-4.133-0.133","yrdqbys9rhspseh",802,"184.csv","","149.39999997615814","resources/trios/L4T2A3.jpg","39","restless",0.9,0.5,0.6,0.206751089514177,"true"
"image-keyboard-response",412,308436,"0.0-4.133-1.133","yrdqbys9rhspseh",802,"184.csv","","null","resources/maskTrios/BBA3.jpg","null","",NA,NA,NA,NA,""
"image-keyboard-response",413,309643,"0.0-4.133-2.133","yrdqbys9rhspseh",802,"184.csv","","null","resources/images/coin2.png","null","",NA,NA,NA,NA,""
"image-keyboard-response",414,309672,"0.0-4.134-0.134","yrdqbys9rhspseh",802,"184.csv","","27.100000023841858","resources/trios/L4T2A3.jpg","39","restless",0.9,0.4,0.6,0.0811451398064496,"true"
"image-keyboard-response",415,310077,"0.0-4.134-1.134","yrdqbys9rhspseh",802,"184.csv","","null","resources/maskTrios/BBA3.jpg","null","",NA,NA,NA,NA,""
"image-keyboard-response",416,311281,"0.0-4.134-2.134","yrdqbys9rhspseh",802,"184.csv","","null","resources/images/coin2.png","null","",NA,NA,NA,NA,""
"image-keyboard-response",417,311389,"0.0-4.135-0.135","yrdqbys9rhspseh",802,"184.csv","","105.39999997615814","resources/trios/L4T2A3.jpg","39","restless",0.9,0.4,0.6,0.281312361525898,"true"
"image-keyboard-response",418,311796,"0.0-4.135-1.135","yrdqbys9rhspseh",802,"184.csv","","null","resources/maskTrios/BBA3.jpg","null","",NA,NA,NA,NA,""
"image-keyboard-response",419,313003,"0.0-4.135-2.135","yrdqbys9rhspseh",802,"184.csv","","null","resources/images/coin2.png","null","",NA,NA,NA,NA,""
"image-keyboard-response",420,313156,"0.0-4.136-0.136","yrdqbys9rhspseh",802,"184.csv","","151.60000002384186","resources/trios/L4T2A3.jpg","39","restless",0.8,0.4,0.6,0.410749621106444,"true"
"image-keyboard-response",421,313560,"0.0-4.136-1.136","yrdqbys9rhspseh",802,"184.csv","","null","resources/maskTrios/BBA3.jpg","null","",NA,NA,NA,NA,""
"image-keyboard-response",422,314767,"0.0-4.136-2.136","yrdqbys9rhspseh",802,"184.csv","","null","resources/images/coin2.png","null","",NA,NA,NA,NA,""
"image-keyboard-response",423,314802,"0.0-4.137-0.137","yrdqbys9rhspseh",802,"184.csv","","33.299999952316284","resources/trios/L4T2A3.jpg","39","restless",0.7,0.4,0.5,0.223116435386323,"true"
"image-keyboard-response",424,315204,"0.0-4.137-1.137","yrdqbys9rhspseh",802,"184.csv","","null","resources/maskTrios/BBA3.jpg","null","",NA,NA,NA,NA,""
"image-keyboard-response",425,316411,"0.0-4.137-2.137","yrdqbys9rhspseh",802,"184.csv","","null","resources/images/coin2.png","null","",NA,NA,NA,NA,""
"image-keyboard-response",426,316431,"0.0-4.138-0.138","yrdqbys9rhspseh",802,"184.csv","","18.100000023841858","resources/trios/L4T2A3.jpg","39","restless",0.7,0.4,0.5,0.915260185603154,"false"
"image-keyboard-response",427,316835,"0.0-4.138-1.138","yrdqbys9rhspseh",802,"184.csv","","null","resources/maskTrios/BBA3.jpg","null","",NA,NA,NA,NA,""
"image-keyboard-response",428,318042,"0.0-4.138-2.138","yrdqbys9rhspseh",802,"184.csv","","null","resources/images/fishbone.png","null","",NA,NA,NA,NA,""
"image-keyboard-response",429,318155,"0.0-4.139-0.139","yrdqbys9rhspseh",802,"184.csv","","110.59999990463257","resources/trios/L4T2A3.jpg","37","restless",0.7,0.4,0.4,0.419891965614766,"true"
"image-keyboard-response",430,318561,"0.0-4.139-1.139","yrdqbys9rhspseh",802,"184.csv","","null","resources/maskTrios/L4BB.jpg","null","",NA,NA,NA,NA,""
"image-keyboard-response",431,319765,"0.0-4.139-2.139","yrdqbys9rhspseh",802,"184.csv","","null","resources/images/coin2.png","null","",NA,NA,NA,NA,""
"image-keyboard-response",432,319867,"0.0-4.140-0.140","yrdqbys9rhspseh",802,"184.csv","","101","resources/trios/L4T2A3.jpg","37","restless",0.7,0.4,0.4,0.805243416158901,"false"
"image-keyboard-response",433,320273,"0.0-4.140-1.140","yrdqbys9rhspseh",802,"184.csv","","null","resources/maskTrios/L4BB.jpg","null","",NA,NA,NA,NA,""
"image-keyboard-response",434,321479,"0.0-4.140-2.140","yrdqbys9rhspseh",802,"184.csv","","null","resources/images/fishbone.png","null","",NA,NA,NA,NA,""
"image-keyboard-response",435,321649,"0.0-4.141-0.141","yrdqbys9rhspseh",802,"184.csv","","167.5","resources/trios/L4T2A3.jpg","37","restless",0.7,0.4,0.4,0.888941635085088,"false"
"image-keyboard-response",436,322056,"0.0-4.141-1.141","yrdqbys9rhspseh",802,"184.csv","","null","resources/maskTrios/L4BB.jpg","null","",NA,NA,NA,NA,""
"image-keyboard-response",437,323262,"0.0-4.141-2.141","yrdqbys9rhspseh",802,"184.csv","","null","resources/images/fishbone.png","null","",NA,NA,NA,NA,""
"image-keyboard-response",438,323292,"0.0-4.142-0.142","yrdqbys9rhspseh",802,"184.csv","","27","resources/trios/L4T2A3.jpg","38","restless",0.7,0.4,0.4,0.323089244703634,"true"
"image-keyboard-response",439,323696,"0.0-4.142-1.142","yrdqbys9rhspseh",802,"184.csv","","null","resources/maskTrios/BT2B.jpg","null","",NA,NA,NA,NA,""
"image-keyboard-response",440,324903,"0.0-4.142-2.142","yrdqbys9rhspseh",802,"184.csv","","null","resources/images/coin2.png","null","",NA,NA,NA,NA,""
"image-keyboard-response",441,325002,"0.0-4.143-0.143","yrdqbys9rhspseh",802,"184.csv","","97.30000007152557","resources/trios/L4T2A3.jpg","38","restless",0.7,0.4,0.4,0.169453664509038,"true"
"image-keyboard-response",442,325409,"0.0-4.143-1.143","yrdqbys9rhspseh",802,"184.csv","","null","resources/maskTrios/BT2B.jpg","null","",NA,NA,NA,NA,""
"image-keyboard-response",443,326612,"0.0-4.143-2.143","yrdqbys9rhspseh",802,"184.csv","","null","resources/images/coin2.png","null","",NA,NA,NA,NA,""
"image-keyboard-response",444,327074,"0.0-4.144-0.144","yrdqbys9rhspseh",802,"184.csv","","460","resources/trios/L4T2A3.jpg","38","restless",0.7,0.4,0.4,0.845358452423381,"false"
"image-keyboard-response",445,327480,"0.0-4.144-1.144","yrdqbys9rhspseh",802,"184.csv","","null","resources/maskTrios/BT2B.jpg","null","",NA,NA,NA,NA,""
"image-keyboard-response",446,328688,"0.0-4.144-2.144","yrdqbys9rhspseh",802,"184.csv","","null","resources/images/fishbone.png","null","",NA,NA,NA,NA,""
"image-keyboard-response",447,328802,"0.0-4.145-0.145","yrdqbys9rhspseh",802,"184.csv","","112.09999990463257","resources/trios/L4T2A3.jpg","39","restless",0.7,0.4,0.4,0.451980068600701,"false"
"image-keyboard-response",448,329207,"0.0-4.145-1.145","yrdqbys9rhspseh",802,"184.csv","","null","resources/maskTrios/BBA3.jpg","null","",NA,NA,NA,NA,""
"image-keyboard-response",449,330414,"0.0-4.145-2.145","yrdqbys9rhspseh",802,"184.csv","","null","resources/images/fishbone.png","null","",NA,NA,NA,NA,""
"image-keyboard-response",450,330826,"0.0-4.146-0.146","yrdqbys9rhspseh",802,"184.csv","","410.10000002384186","resources/trios/L4T2A3.jpg","37","restless",0.7,0.4,0.4,0.635475479092203,"true"
"image-keyboard-response",451,331228,"0.0-4.146-1.146","yrdqbys9rhspseh",802,"184.csv","","null","resources/maskTrios/L4BB.jpg","null","",NA,NA,NA,NA,""
"image-keyboard-response",452,332431,"0.0-4.146-2.146","yrdqbys9rhspseh",802,"184.csv","","null","resources/images/coin2.png","null","",NA,NA,NA,NA,""
"image-keyboard-response",453,332658,"0.0-4.147-0.147","yrdqbys9rhspseh",802,"184.csv","","224.09999990463257","resources/trios/L4T2A3.jpg","37","restless",0.7,0.4,0.4,0.215595273770695,"true"
"image-keyboard-response",454,333065,"0.0-4.147-1.147","yrdqbys9rhspseh",802,"184.csv","","null","resources/maskTrios/L4BB.jpg","null","",NA,NA,NA,NA,""
"image-keyboard-response",455,334270,"0.0-4.147-2.147","yrdqbys9rhspseh",802,"184.csv","","null","resources/images/coin2.png","null","",NA,NA,NA,NA,""
"image-keyboard-response",456,334473,"0.0-4.148-0.148","yrdqbys9rhspseh",802,"184.csv","","201.40000009536743","resources/trios/L4T2A3.jpg","37","restless",0.6,0.4,0.4,0.0424398640380517,"true"
"image-keyboard-response",457,334879,"0.0-4.148-1.148","yrdqbys9rhspseh",802,"184.csv","","null","resources/maskTrios/L4BB.jpg","null","",NA,NA,NA,NA,""
"image-keyboard-response",458,336087,"0.0-4.148-2.148","yrdqbys9rhspseh",802,"184.csv","","null","resources/images/coin2.png","null","",NA,NA,NA,NA,""
"image-keyboard-response",459,337468,"0.0-4.149-0.149","yrdqbys9rhspseh",802,"184.csv","","1379.8999999761581","resources/trios/L4T2A3.jpg","38","restless",0.6,0.3,0.4,0.0120008788561261,"true"
"image-keyboard-response",460,337875,"0.0-4.149-1.149","yrdqbys9rhspseh",802,"184.csv","","null","resources/maskTrios/BT2B.jpg","null","",NA,NA,NA,NA,""
"image-keyboard-response",461,339083,"0.0-4.149-2.149","yrdqbys9rhspseh",802,"184.csv","","null","resources/images/coin2.png","null","",NA,NA,NA,NA,""
"image-keyboard-response",462,339252,"0.0-4.150-0.150","yrdqbys9rhspseh",802,"184.csv","","167.10000002384186","resources/trios/L4T2A3.jpg","38","restless",0.6,0.2,0.4,0.86568584322054,"false"
"image-keyboard-response",463,339659,"0.0-4.150-1.150","yrdqbys9rhspseh",802,"184.csv","","null","resources/maskTrios/BT2B.jpg","null","",NA,NA,NA,NA,""
"image-keyboard-response",464,340867,"0.0-4.150-2.150","yrdqbys9rhspseh",802,"184.csv","","null","resources/images/fishbone.png","null","",NA,NA,NA,NA,""
"image-keyboard-response",465,340928,"0.0-4.151-0.151","yrdqbys9rhspseh",802,"184.csv","","58.799999952316284","resources/trios/L4T2A3.jpg","39","restless",0.6,0.2,0.4,0.353137087528966,"true"
"image-keyboard-response",466,341331,"0.0-4.151-1.151","yrdqbys9rhspseh",802,"184.csv","","null","resources/maskTrios/BBA3.jpg","null","",NA,NA,NA,NA,""
"image-keyboard-response",467,342537,"0.0-4.151-2.151","yrdqbys9rhspseh",802,"184.csv","","null","resources/images/coin2.png","null","",NA,NA,NA,NA,""
"image-keyboard-response",468,342565,"0.0-4.152-0.152","yrdqbys9rhspseh",802,"184.csv","","24.899999976158142","resources/trios/L4T2A3.jpg","39","restless",0.6,0.2,0.5,0.414893932818621,"true"
"image-keyboard-response",469,342971,"0.0-4.152-1.152","yrdqbys9rhspseh",802,"184.csv","","null","resources/maskTrios/BBA3.jpg","null","",NA,NA,NA,NA,""
"image-keyboard-response",470,344179,"0.0-4.152-2.152","yrdqbys9rhspseh",802,"184.csv","","null","resources/images/coin2.png","null","",NA,NA,NA,NA,""
"image-keyboard-response",471,344239,"0.0-4.153-0.153","yrdqbys9rhspseh",802,"184.csv","","57.799999952316284","resources/trios/L4T2A3.jpg","39","restless",0.6,0.2,0.5,0.32780668486618,"true"
"image-keyboard-response",472,344644,"0.0-4.153-1.153","yrdqbys9rhspseh",802,"184.csv","","null","resources/maskTrios/BBA3.jpg","null","",NA,NA,NA,NA,""
"image-keyboard-response",473,345851,"0.0-4.153-2.153","yrdqbys9rhspseh",802,"184.csv","","null","resources/images/coin2.png","null","",NA,NA,NA,NA,""
"image-keyboard-response",474,345870,"0.0-4.154-0.154","yrdqbys9rhspseh",802,"184.csv","","16.799999952316284","resources/trios/L4T2A3.jpg","39","restless",0.6,0.2,0.5,0.176810333406233,"true"
"image-keyboard-response",475,346276,"0.0-4.154-1.154","yrdqbys9rhspseh",802,"184.csv","","null","resources/maskTrios/BBA3.jpg","null","",NA,NA,NA,NA,""
"image-keyboard-response",476,347481,"0.0-4.154-2.154","yrdqbys9rhspseh",802,"184.csv","","null","resources/images/coin2.png","null","",NA,NA,NA,NA,""
"image-keyboard-response",477,347605,"0.0-4.155-0.155","yrdqbys9rhspseh",802,"184.csv","","122.19999992847443","resources/trios/L4T2A3.jpg","39","restless",0.6,0.2,0.5,0.177320357210575,"true"
"image-keyboard-response",478,348012,"0.0-4.155-1.155","yrdqbys9rhspseh",802,"184.csv","","null","resources/maskTrios/BBA3.jpg","null","",NA,NA,NA,NA,""
"image-keyboard-response",479,349217,"0.0-4.155-2.155","yrdqbys9rhspseh",802,"184.csv","","null","resources/images/coin2.png","null","",NA,NA,NA,NA,""
"image-keyboard-response",480,349240,"0.0-4.156-0.156","yrdqbys9rhspseh",802,"184.csv","","21","resources/trios/L4T2A3.jpg","39","restless",0.6,0.3,0.5,0.223726178614383,"true"
"image-keyboard-response",481,349647,"0.0-4.156-1.156","yrdqbys9rhspseh",802,"184.csv","","null","resources/maskTrios/BBA3.jpg","null","",NA,NA,NA,NA,""
"image-keyboard-response",482,350850,"0.0-4.156-2.156","yrdqbys9rhspseh",802,"184.csv","","null","resources/images/coin2.png","null","",NA,NA,NA,NA,""
"image-keyboard-response",483,350957,"0.0-4.157-0.157","yrdqbys9rhspseh",802,"184.csv","","105.5","resources/trios/L4T2A3.jpg","39","restless",0.6,0.3,0.5,0.430586773459682,"true"
"image-keyboard-response",484,351360,"0.0-4.157-1.157","yrdqbys9rhspseh",802,"184.csv","","null","resources/maskTrios/BBA3.jpg","null","",NA,NA,NA,NA,""
"image-keyboard-response",485,352567,"0.0-4.157-2.157","yrdqbys9rhspseh",802,"184.csv","","null","resources/images/coin2.png","null","",NA,NA,NA,NA,""
"image-keyboard-response",486,352693,"0.0-4.158-0.158","yrdqbys9rhspseh",802,"184.csv","","123.39999997615814","resources/trios/L4T2A3.jpg","39","restless",0.6,0.3,0.5,0.517763300927391,"false"
"image-keyboard-response",487,353100,"0.0-4.158-1.158","yrdqbys9rhspseh",802,"184.csv","","null","resources/maskTrios/BBA3.jpg","null","",NA,NA,NA,NA,""
"image-keyboard-response",488,354307,"0.0-4.158-2.158","yrdqbys9rhspseh",802,"184.csv","","null","resources/images/fishbone.png","null","",NA,NA,NA,NA,""
"image-keyboard-response",489,354444,"0.0-4.159-0.159","yrdqbys9rhspseh",802,"184.csv","","134.60000002384186","resources/trios/L4T2A3.jpg","37","restless",0.6,0.3,0.5,0.724972134437135,"false"
"image-keyboard-response",490,354851,"0.0-4.159-1.159","yrdqbys9rhspseh",802,"184.csv","","null","resources/maskTrios/L4BB.jpg","null","",NA,NA,NA,NA,""
"image-keyboard-response",491,356054,"0.0-4.159-2.159","yrdqbys9rhspseh",802,"184.csv","","null","resources/images/fishbone.png","null","",NA,NA,NA,NA,""
"image-keyboard-response",492,356087,"0.0-4.160-0.160","yrdqbys9rhspseh",802,"184.csv","","30.5","resources/trios/L4T2A3.jpg","38","restless",0.6,0.3,0.5,0.68732267799674,"false"
"image-keyboard-response",493,356491,"0.0-4.160-1.160","yrdqbys9rhspseh",802,"184.csv","","null","resources/maskTrios/BT2B.jpg","null","",NA,NA,NA,NA,""
"image-keyboard-response",494,357696,"0.0-4.160-2.160","yrdqbys9rhspseh",802,"184.csv","","null","resources/images/fishbone.png","null","",NA,NA,NA,NA,""
"image-keyboard-response",495,357744,"0.0-4.161-0.161","yrdqbys9rhspseh",802,"184.csv","","45.60000002384186","resources/trios/L4T2A3.jpg","38","restless",0.6,0.3,0.5,0.808674705172712,"false"
"image-keyboard-response",496,358147,"0.0-4.161-1.161","yrdqbys9rhspseh",802,"184.csv","","null","resources/maskTrios/BT2B.jpg","null","",NA,NA,NA,NA,""
"image-keyboard-response",497,359353,"0.0-4.161-2.161","yrdqbys9rhspseh",802,"184.csv","","null","resources/images/fishbone.png","null","",NA,NA,NA,NA,""
"image-keyboard-response",498,359472,"0.0-4.162-0.162","yrdqbys9rhspseh",802,"184.csv","","116.80000007152557","resources/trios/L4T2A3.jpg","38","restless",0.6,0.3,0.5,0.0427160833620432,"true"
"image-keyboard-response",499,359880,"0.0-4.162-1.162","yrdqbys9rhspseh",802,"184.csv","","null","resources/maskTrios/BT2B.jpg","null","",NA,NA,NA,NA,""
"image-keyboard-response",500,361087,"0.0-4.162-2.162","yrdqbys9rhspseh",802,"184.csv","","null","resources/images/coin2.png","null","",NA,NA,NA,NA,""
"image-keyboard-response",501,361154,"0.0-4.163-0.163","yrdqbys9rhspseh",802,"184.csv","","65.19999992847443","resources/trios/L4T2A3.jpg","38","restless",0.6,0.3,0.5,0.183457934674905,"true"
"image-keyboard-response",502,361561,"0.0-4.163-1.163","yrdqbys9rhspseh",802,"184.csv","","null","resources/maskTrios/BT2B.jpg","null","",NA,NA,NA,NA,""
"image-keyboard-response",503,362763,"0.0-4.163-2.163","yrdqbys9rhspseh",802,"184.csv","","null","resources/images/coin2.png","null","",NA,NA,NA,NA,""
"image-keyboard-response",504,363676,"0.0-4.164-0.164","yrdqbys9rhspseh",802,"184.csv","","910.5","resources/trios/L4T2A3.jpg","38","restless",0.6,0.3,0.5,0.447651293810575,"false"
"image-keyboard-response",505,364083,"0.0-4.164-1.164","yrdqbys9rhspseh",802,"184.csv","","null","resources/maskTrios/BT2B.jpg","null","",NA,NA,NA,NA,""
"image-keyboard-response",506,365287,"0.0-4.164-2.164","yrdqbys9rhspseh",802,"184.csv","","null","resources/images/fishbone.png","null","",NA,NA,NA,NA,""
"image-keyboard-response",507,365300,"0.0-4.165-0.165","yrdqbys9rhspseh",802,"184.csv","","10.199999928474426","resources/trios/L4T2A3.jpg","39","restless",0.6,0.3,0.6,0.0782238716991956,"true"
"image-keyboard-response",508,365706,"0.0-4.165-1.165","yrdqbys9rhspseh",802,"184.csv","","null","resources/maskTrios/BBA3.jpg","null","",NA,NA,NA,NA,""
"image-keyboard-response",509,366908,"0.0-4.165-2.165","yrdqbys9rhspseh",802,"184.csv","","null","resources/images/coin2.png","null","",NA,NA,NA,NA,""
"image-keyboard-response",510,366931,"0.0-4.166-0.166","yrdqbys9rhspseh",802,"184.csv","","20.90000009536743","resources/trios/L4T2A3.jpg","39","restless",0.6,0.3,0.6,0.648378885940935,"false"
"image-keyboard-response",511,367333,"0.0-4.166-1.166","yrdqbys9rhspseh",802,"184.csv","","null","resources/maskTrios/BBA3.jpg","null","",NA,NA,NA,NA,""
"image-keyboard-response",512,368536,"0.0-4.166-2.166","yrdqbys9rhspseh",802,"184.csv","","null","resources/images/fishbone.png","null","",NA,NA,NA,NA,""
"image-keyboard-response",513,368539,"0.0-4.167-0.167","yrdqbys9rhspseh",802,"184.csv","","1.8000000715255737","resources/trios/L4T2A3.jpg","37","restless",0.6,0.3,0.6,0.891931942700875,"false"
"image-keyboard-response",514,368941,"0.0-4.167-1.167","yrdqbys9rhspseh",802,"184.csv","","null","resources/maskTrios/L4BB.jpg","null","",NA,NA,NA,NA,""
"image-keyboard-response",515,370145,"0.0-4.167-2.167","yrdqbys9rhspseh",802,"184.csv","","null","resources/images/fishbone.png","null","",NA,NA,NA,NA,""
"image-keyboard-response",516,370284,"0.0-4.168-0.168","yrdqbys9rhspseh",802,"184.csv","","137.89999997615814","resources/trios/L4T2A3.jpg","38","restless",0.6,0.3,0.6,0.578425872849452,"false"
"image-keyboard-response",517,370687,"0.0-4.168-1.168","yrdqbys9rhspseh",802,"184.csv","","null","resources/maskTrios/BT2B.jpg","null","",NA,NA,NA,NA,""
"image-keyboard-response",518,371895,"0.0-4.168-2.168","yrdqbys9rhspseh",802,"184.csv","","null","resources/images/fishbone.png","null","",NA,NA,NA,NA,""
"image-keyboard-response",519,371900,"0.0-4.169-0.169","yrdqbys9rhspseh",802,"184.csv","","3.100000023841858","resources/trios/L4T2A3.jpg","39","restless",0.6,0.3,0.6,0.116266768429967,"true"
"image-keyboard-response",520,372303,"0.0-4.169-1.169","yrdqbys9rhspseh",802,"184.csv","","null","resources/maskTrios/BBA3.jpg","null","",NA,NA,NA,NA,""
"image-keyboard-response",521,373508,"0.0-4.169-2.169","yrdqbys9rhspseh",802,"184.csv","","null","resources/images/coin2.png","null","",NA,NA,NA,NA,""
"image-keyboard-response",522,373568,"0.0-4.170-0.170","yrdqbys9rhspseh",802,"184.csv","","58","resources/trios/L4T2A3.jpg","39","restless",0.6,0.3,0.6,0.794576034022449,"false"
"image-keyboard-response",523,373975,"0.0-4.170-1.170","yrdqbys9rhspseh",802,"184.csv","","null","resources/maskTrios/BBA3.jpg","null","",NA,NA,NA,NA,""
"image-keyboard-response",524,375181,"0.0-4.170-2.170","yrdqbys9rhspseh",802,"184.csv","","null","resources/images/fishbone.png","null","",NA,NA,NA,NA,""
"image-keyboard-response",525,375217,"0.0-4.171-0.171","yrdqbys9rhspseh",802,"184.csv","","34","resources/trios/L4T2A3.jpg","37","restless",0.7,0.3,0.6,0.872340154244567,"false"
"image-keyboard-response",526,375620,"0.0-4.171-1.171","yrdqbys9rhspseh",802,"184.csv","","null","resources/maskTrios/L4BB.jpg","null","",NA,NA,NA,NA,""
"image-keyboard-response",527,376827,"0.0-4.171-2.171","yrdqbys9rhspseh",802,"184.csv","","null","resources/images/fishbone.png","null","",NA,NA,NA,NA,""
"image-keyboard-response",528,376975,"0.0-4.172-0.172","yrdqbys9rhspseh",802,"184.csv","","147.30000007152557","resources/trios/L4T2A3.jpg","39","restless",0.7,0.3,0.6,0.199316265747578,"true"
"image-keyboard-response",529,377383,"0.0-4.172-1.172","yrdqbys9rhspseh",802,"184.csv","","null","resources/maskTrios/BBA3.jpg","null","",NA,NA,NA,NA,""
"image-keyboard-response",530,378587,"0.0-4.172-2.172","yrdqbys9rhspseh",802,"184.csv","","null","resources/images/coin2.png","null","",NA,NA,NA,NA,""
"image-keyboard-response",531,378625,"0.0-4.173-0.173","yrdqbys9rhspseh",802,"184.csv","","36","resources/trios/L4T2A3.jpg","37","restless",0.7,0.3,0.6,0.888778994960055,"false"
"image-keyboard-response",532,379029,"0.0-4.173-1.173","yrdqbys9rhspseh",802,"184.csv","","null","resources/maskTrios/L4BB.jpg","null","",NA,NA,NA,NA,""
"image-keyboard-response",533,380231,"0.0-4.173-2.173","yrdqbys9rhspseh",802,"184.csv","","null","resources/images/fishbone.png","null","",NA,NA,NA,NA,""
"image-keyboard-response",534,380235,"0.0-4.174-0.174","yrdqbys9rhspseh",802,"184.csv","","3.100000023841858","resources/trios/L4T2A3.jpg","38","restless",0.7,0.3,0.6,0.583452822780757,"false"
"image-keyboard-response",535,380639,"0.0-4.174-1.174","yrdqbys9rhspseh",802,"184.csv","","null","resources/maskTrios/BT2B.jpg","null","",NA,NA,NA,NA,""
"image-keyboard-response",536,381842,"0.0-4.174-2.174","yrdqbys9rhspseh",802,"184.csv","","null","resources/images/fishbone.png","null","",NA,NA,NA,NA,""
"image-keyboard-response",537,381920,"0.0-4.175-0.175","yrdqbys9rhspseh",802,"184.csv","","76.5","resources/trios/L4T2A3.jpg","39","restless",0.7,0.3,0.6,0.137282454861166,"true"
"image-keyboard-response",538,382328,"0.0-4.175-1.175","yrdqbys9rhspseh",802,"184.csv","","null","resources/maskTrios/BBA3.jpg","null","",NA,NA,NA,NA,""
"image-keyboard-response",539,383531,"0.0-4.175-2.175","yrdqbys9rhspseh",802,"184.csv","","null","resources/images/coin2.png","null","",NA,NA,NA,NA,""
"image-keyboard-response",540,383687,"0.0-4.176-0.176","yrdqbys9rhspseh",802,"184.csv","","154.39999997615814","resources/trios/L4T2A3.jpg","39","restless",0.7,0.3,0.6,0.0122424917957287,"true"
"image-keyboard-response",541,384091,"0.0-4.176-1.176","yrdqbys9rhspseh",802,"184.csv","","null","resources/maskTrios/BBA3.jpg","null","",NA,NA,NA,NA,""
"image-keyboard-response",542,385295,"0.0-4.176-2.176","yrdqbys9rhspseh",802,"184.csv","","null","resources/images/coin2.png","null","",NA,NA,NA,NA,""
"image-keyboard-response",543,385387,"0.0-4.177-0.177","yrdqbys9rhspseh",802,"184.csv","","90.60000002384186","resources/trios/L4T2A3.jpg","39","restless",0.7,0.3,0.6,0.481587630903448,"true"
"image-keyboard-response",544,385791,"0.0-4.177-1.177","yrdqbys9rhspseh",802,"184.csv","","null","resources/maskTrios/BBA3.jpg","null","",NA,NA,NA,NA,""
"image-keyboard-response",545,386999,"0.0-4.177-2.177","yrdqbys9rhspseh",802,"184.csv","","null","resources/images/coin2.png","null","",NA,NA,NA,NA,""
"image-keyboard-response",546,387165,"0.0-4.178-0.178","yrdqbys9rhspseh",802,"184.csv","","164.30000007152557","resources/trios/L4T2A3.jpg","39","restless",0.7,0.3,0.6,0.652923854357114,"false"
"image-keyboard-response",547,387572,"0.0-4.178-1.178","yrdqbys9rhspseh",802,"184.csv","","null","resources/maskTrios/BBA3.jpg","null","",NA,NA,NA,NA,""
"image-keyboard-response",548,388780,"0.0-4.178-2.178","yrdqbys9rhspseh",802,"184.csv","","null","resources/images/fishbone.png","null","",NA,NA,NA,NA,""
"image-keyboard-response",549,388789,"0.0-4.179-0.179","yrdqbys9rhspseh",802,"184.csv","","7.100000023841858","resources/trios/L4T2A3.jpg","39","restless",0.7,0.3,0.6,0.534925060010745,"true"
"image-keyboard-response",550,389192,"0.0-4.179-1.179","yrdqbys9rhspseh",802,"184.csv","","null","resources/maskTrios/BBA3.jpg","null","",NA,NA,NA,NA,""
"image-keyboard-response",551,390394,"0.0-4.179-2.179","yrdqbys9rhspseh",802,"184.csv","","null","resources/images/coin2.png","null","",NA,NA,NA,NA,""
"image-keyboard-response",552,391206,"0.0-4.180-0.180","yrdqbys9rhspseh",802,"184.csv","","810.5","resources/trios/L4T2A3.jpg","39","restless",0.7,0.4,0.6,0.640715297481321,"false"
"image-keyboard-response",553,391614,"0.0-4.180-1.180","yrdqbys9rhspseh",802,"184.csv","","null","resources/maskTrios/BBA3.jpg","null","",NA,NA,NA,NA,""
"image-keyboard-response",554,392819,"0.0-4.180-2.180","yrdqbys9rhspseh",802,"184.csv","","null","resources/images/fishbone.png","null","",NA,NA,NA,NA,""
"image-keyboard-response",555,392868,"0.0-4.181-0.181","yrdqbys9rhspseh",802,"184.csv","","47.200000047683716","resources/trios/L4T2A3.jpg","38","restless",0.7,0.4,0.5,0.303484181298607,"true"
"image-keyboard-response",556,393275,"0.0-4.181-1.181","yrdqbys9rhspseh",802,"184.csv","","null","resources/maskTrios/BT2B.jpg","null","",NA,NA,NA,NA,""
"image-keyboard-response",557,394481,"0.0-4.181-2.181","yrdqbys9rhspseh",802,"184.csv","","null","resources/images/coin2.png","null","",NA,NA,NA,NA,""
"image-keyboard-response",558,394689,"0.0-4.182-0.182","yrdqbys9rhspseh",802,"184.csv","","205.89999997615814","resources/trios/L4T2A3.jpg","37","restless",0.7,0.4,0.5,0.46170645808313,"true"
"image-keyboard-response",559,395095,"0.0-4.182-1.182","yrdqbys9rhspseh",802,"184.csv","","null","resources/maskTrios/L4BB.jpg","null","",NA,NA,NA,NA,""
"image-keyboard-response",560,396302,"0.0-4.182-2.182","yrdqbys9rhspseh",802,"184.csv","","null","resources/images/coin2.png","null","",NA,NA,NA,NA,""
"image-keyboard-response",561,396438,"0.0-4.183-0.183","yrdqbys9rhspseh",802,"184.csv","","134.5","resources/trios/L4T2A3.jpg","38","restless",0.7,0.4,0.5,0.461017356172926,"false"
"image-keyboard-response",562,396841,"0.0-4.183-1.183","yrdqbys9rhspseh",802,"184.csv","","null","resources/maskTrios/BT2B.jpg","null","",NA,NA,NA,NA,""
"image-keyboard-response",563,398048,"0.0-4.183-2.183","yrdqbys9rhspseh",802,"184.csv","","null","resources/images/fishbone.png","null","",NA,NA,NA,NA,""
"image-keyboard-response",564,398543,"0.0-4.184-0.184","yrdqbys9rhspseh",802,"184.csv","","493.7999999523163","resources/trios/L4T2A3.jpg","38","restless",0.8,0.4,0.4,0.861178857044289,"false"
"image-keyboard-response",565,398951,"0.0-4.184-1.184","yrdqbys9rhspseh",802,"184.csv","","null","resources/maskTrios/BT2B.jpg","null","",NA,NA,NA,NA,""
"image-keyboard-response",566,400158,"0.0-4.184-2.184","yrdqbys9rhspseh",802,"184.csv","","null","resources/images/fishbone.png","null","",NA,NA,NA,NA,""
"image-keyboard-response",567,400229,"0.0-4.185-0.185","yrdqbys9rhspseh",802,"184.csv","","69.80000007152557","resources/trios/L4T2A3.jpg","39","restless",0.8,0.4,0.4,0.139271696053229,"true"
"image-keyboard-response",568,400636,"0.0-4.185-1.185","yrdqbys9rhspseh",802,"184.csv","","null","resources/maskTrios/BBA3.jpg","null","",NA,NA,NA,NA,""
"image-keyboard-response",569,401844,"0.0-4.185-2.185","yrdqbys9rhspseh",802,"184.csv","","null","resources/images/coin2.png","null","",NA,NA,NA,NA,""
"image-keyboard-response",570,401877,"0.0-4.186-0.186","yrdqbys9rhspseh",802,"184.csv","","31.199999928474426","resources/trios/L4T2A3.jpg","39","restless",0.8,0.4,0.4,0.634764911945311,"false"
"image-keyboard-response",571,402281,"0.0-4.186-1.186","yrdqbys9rhspseh",802,"184.csv","","null","resources/maskTrios/BBA3.jpg","null","",NA,NA,NA,NA,""
"image-keyboard-response",572,403485,"0.0-4.186-2.186","yrdqbys9rhspseh",802,"184.csv","","null","resources/images/fishbone.png","null","",NA,NA,NA,NA,""
"image-keyboard-response",573,403519,"0.0-4.187-0.187","yrdqbys9rhspseh",802,"184.csv","","31.899999976158142","resources/trios/L4T2A3.jpg","39","restless",0.8,0.4,0.4,0.310794740995394,"true"
"image-keyboard-response",574,403926,"0.0-4.187-1.187","yrdqbys9rhspseh",802,"184.csv","","null","resources/maskTrios/BBA3.jpg","null","",NA,NA,NA,NA,""
"image-keyboard-response",575,405131,"0.0-4.187-2.187","yrdqbys9rhspseh",802,"184.csv","","null","resources/images/coin2.png","null","",NA,NA,NA,NA,""
"image-keyboard-response",576,405360,"0.0-4.188-0.188","yrdqbys9rhspseh",802,"184.csv","","227.5","resources/trios/L4T2A3.jpg","39","restless",0.8,0.4,0.4,0.545456882789759,"false"
"image-keyboard-response",577,405768,"0.0-4.188-1.188","yrdqbys9rhspseh",802,"184.csv","","null","resources/maskTrios/BBA3.jpg","null","",NA,NA,NA,NA,""
"image-keyboard-response",578,406973,"0.0-4.188-2.188","yrdqbys9rhspseh",802,"184.csv","","null","resources/images/fishbone.png","null","",NA,NA,NA,NA,""
"image-keyboard-response",579,407145,"0.0-4.189-0.189","yrdqbys9rhspseh",802,"184.csv","","170.10000002384186","resources/trios/L4T2A3.jpg","39","restless",0.8,0.4,0.4,0.0441681692984066,"true"
"image-keyboard-response",580,407552,"0.0-4.189-1.189","yrdqbys9rhspseh",802,"184.csv","","null","resources/maskTrios/BBA3.jpg","null","",NA,NA,NA,NA,""
"image-keyboard-response",581,408760,"0.0-4.189-2.189","yrdqbys9rhspseh",802,"184.csv","","null","resources/images/coin2.png","null","",NA,NA,NA,NA,""
"image-keyboard-response",582,408854,"0.0-4.190-0.190","yrdqbys9rhspseh",802,"184.csv","","92.60000002384186","resources/trios/L4T2A3.jpg","39","restless",0.8,0.4,0.4,0.132901286734299,"true"
"image-keyboard-response",583,409261,"0.0-4.190-1.190","yrdqbys9rhspseh",802,"184.csv","","null","resources/maskTrios/BBA3.jpg","null","",NA,NA,NA,NA,""
"image-keyboard-response",584,410464,"0.0-4.190-2.190","yrdqbys9rhspseh",802,"184.csv","","null","resources/images/coin2.png","null","",NA,NA,NA,NA,""
"image-keyboard-response",585,410500,"0.0-4.191-0.191","yrdqbys9rhspseh",802,"184.csv","","34.60000002384186","resources/trios/L4T2A3.jpg","39","restless",0.7,0.4,0.4,0.683638705611046,"false"
"image-keyboard-response",586,410904,"0.0-4.191-1.191","yrdqbys9rhspseh",802,"184.csv","","null","resources/maskTrios/BBA3.jpg","null","",NA,NA,NA,NA,""
"image-keyboard-response",587,412111,"0.0-4.191-2.191","yrdqbys9rhspseh",802,"184.csv","","null","resources/images/fishbone.png","null","",NA,NA,NA,NA,""
"image-keyboard-response",588,412686,"0.0-4.192-0.192","yrdqbys9rhspseh",802,"184.csv","","572.6000000238419","resources/trios/L4T2A3.jpg","39","restless",0.7,0.4,0.4,0.582772284750936,"false"
"image-keyboard-response",589,413093,"0.0-4.192-1.192","yrdqbys9rhspseh",802,"184.csv","","null","resources/maskTrios/BBA3.jpg","null","",NA,NA,NA,NA,""
"image-keyboard-response",590,414300,"0.0-4.192-2.192","yrdqbys9rhspseh",802,"184.csv","","null","resources/images/fishbone.png","null","",NA,NA,NA,NA,""
"image-keyboard-response",591,415278,"0.0-4.193-0.193","yrdqbys9rhspseh",802,"184.csv","","975","resources/trios/L4T2A3.jpg","39","restless",0.7,0.4,0.4,0.807624105365637,"false"
"image-keyboard-response",592,415681,"0.0-4.193-1.193","yrdqbys9rhspseh",802,"184.csv","","null","resources/maskTrios/BBA3.jpg","null","",NA,NA,NA,NA,""
"image-keyboard-response",593,416887,"0.0-4.193-2.193","yrdqbys9rhspseh",802,"184.csv","","null","resources/images/fishbone.png","null","",NA,NA,NA,NA,""
"image-keyboard-response",594,416900,"0.0-4.194-0.194","yrdqbys9rhspseh",802,"184.csv","","10.400000095367432","resources/trios/L4T2A3.jpg","38","restless",0.7,0.4,0.4,0.0317321504522825,"true"
"image-keyboard-response",595,417305,"0.0-4.194-1.194","yrdqbys9rhspseh",802,"184.csv","","null","resources/maskTrios/BT2B.jpg","null","",NA,NA,NA,NA,""
"image-keyboard-response",596,418506,"0.0-4.194-2.194","yrdqbys9rhspseh",802,"184.csv","","null","resources/images/coin2.png","null","",NA,NA,NA,NA,""
"image-keyboard-response",597,418639,"0.0-4.195-0.195","yrdqbys9rhspseh",802,"184.csv","","130.59999990463257","resources/trios/L4T2A3.jpg","38","restless",0.7,0.4,0.4,0.140395719229657,"true"
"image-keyboard-response",598,419044,"0.0-4.195-1.195","yrdqbys9rhspseh",802,"184.csv","","null","resources/maskTrios/BT2B.jpg","null","",NA,NA,NA,NA,""
"image-keyboard-response",599,420250,"0.0-4.195-2.195","yrdqbys9rhspseh",802,"184.csv","","null","resources/images/coin2.png","null","",NA,NA,NA,NA,""
"image-keyboard-response",600,420353,"0.0-4.196-0.196","yrdqbys9rhspseh",802,"184.csv","","100.59999990463257","resources/trios/L4T2A3.jpg","38","restless",0.7,0.4,0.4,0.718046420473456,"false"
"image-keyboard-response",601,420761,"0.0-4.196-1.196","yrdqbys9rhspseh",802,"184.csv","","null","resources/maskTrios/BT2B.jpg","null","",NA,NA,NA,NA,""
"image-keyboard-response",602,421965,"0.0-4.196-2.196","yrdqbys9rhspseh",802,"184.csv","","null","resources/images/fishbone.png","null","",NA,NA,NA,NA,""
"image-keyboard-response",603,422061,"0.0-4.197-0.197","yrdqbys9rhspseh",802,"184.csv","","94.60000002384186","resources/trios/L4T2A3.jpg","39","restless",0.7,0.4,0.4,0.769261318120714,"false"
"image-keyboard-response",604,422465,"0.0-4.197-1.197","yrdqbys9rhspseh",802,"184.csv","","null","resources/maskTrios/BBA3.jpg","null","",NA,NA,NA,NA,""
"image-keyboard-response",605,423670,"0.0-4.197-2.197","yrdqbys9rhspseh",802,"184.csv","","null","resources/images/fishbone.png","null","",NA,NA,NA,NA,""
"image-keyboard-response",606,423703,"0.0-4.198-0.198","yrdqbys9rhspseh",802,"184.csv","","31.5","resources/trios/L4T2A3.jpg","39","restless",0.7,0.4,0.4,0.955986793521917,"false"
"image-keyboard-response",607,424107,"0.0-4.198-1.198","yrdqbys9rhspseh",802,"184.csv","","null","resources/maskTrios/BBA3.jpg","null","",NA,NA,NA,NA,""
"image-keyboard-response",608,425313,"0.0-4.198-2.198","yrdqbys9rhspseh",802,"184.csv","","null","resources/images/fishbone.png","null","",NA,NA,NA,NA,""
"image-keyboard-response",609,425323,"0.0-4.199-0.199","yrdqbys9rhspseh",802,"184.csv","","8.399999976158142","resources/trios/L4T2A3.jpg","37","restless",0.7,0.3,0.4,0.389880580459383,"true"
