"trial_type","trial_index","time_elapsed","internal_node_id","subject","participantCode","walkNumber","success","rt","stimulus","key_press","test_part","leftProb","midProb","rightProb","generatedNum","correct"
"pavlovia",0,861,"0.0-0.0","98by5h1gpuv99my",454,"173.csv","","","","","",NA,NA,NA,NA,""
"fullscreen",1,3186,"0.0-1.0","98by5h1gpuv99my",454,"173.csv","true","","","","",NA,NA,NA,NA,""
"survey-html-form",2,12766,"0.0-2.0","98by5h1gpuv99my",454,"173.csv","","9577.5","","","",NA,NA,NA,NA,""
"image-keyboard-response",3,17381,"0.0-3.0-0.0","98by5h1gpuv99my",454,"173.csv","","4613.899999999907","resources/images/parrot_nobg.png","13","",NA,NA,NA,NA,""
"image-keyboard-response",4,20383,"0.0-3.0-1.0","98by5h1gpuv99my",454,"173.csv","","null","resources/image_sets/111.png","null","",NA,NA,NA,NA,""
"image-keyboard-response",5,23570,"0.0-3.0-2.0","98by5h1gpuv99my",454,"173.csv","","3186","resources/image_sets/left_highlight.png","37","",NA,NA,NA,NA,""
"image-keyboard-response",6,25040,"0.0-3.0-3.0","98by5h1gpuv99my",454,"173.csv","","1469.2999999998137","resources/image_sets/mid_highlight.png","38","",NA,NA,NA,NA,""
"image-keyboard-response",7,25845,"0.0-3.0-4.0","98by5h1gpuv99my",454,"173.csv","","803.8000000002794","resources/image_sets/right_highlight.png","39","",NA,NA,NA,NA,""
"image-keyboard-response",8,30049,"0.0-3.0-5.0","98by5h1gpuv99my",454,"173.csv","","4202.899999999907","resources/image_sets/111.png","13","",NA,NA,NA,NA,""
"image-keyboard-response",9,31073,"0.0-3.0-6.0","98by5h1gpuv99my",454,"173.csv","","1024","resources/images/coin2.png","13","",NA,NA,NA,NA,""
"image-keyboard-response",10,32413,"0.0-3.0-7.0","98by5h1gpuv99my",454,"173.csv","","1338.5","resources/images/fishbone.png","13","",NA,NA,NA,NA,""
"html-keyboard-response",11,33959,"0.0-3.0-8.0","98by5h1gpuv99my",454,"173.csv","","1545.7000000001863","<p>You can track your coin total on the top right of your screen. </p><p>At the end of your journey you will be directed to a survey, so please click on the link before exiting the task</p><p>Press Enter to begin</p>","13","",NA,NA,NA,NA,""
"image-keyboard-response",12,34741,"0.0-4.0-0.0","98by5h1gpuv99my",454,"173.csv","","780.7000000001863","resources/trios/L4T2A3.jpg","38","restless",0.7,0.9,0.3,0.952023754442813,"false"
"image-keyboard-response",13,35144,"0.0-4.0-1.0","98by5h1gpuv99my",454,"173.csv","","null","resources/maskTrios/BT2B.jpg","null","",NA,NA,NA,NA,""
"image-keyboard-response",14,36359,"0.0-4.0-2.0","98by5h1gpuv99my",454,"173.csv","","null","resources/images/fishbone.png","null","",NA,NA,NA,NA,""
"image-keyboard-response",15,36564,"0.0-4.1-0.1","98by5h1gpuv99my",454,"173.csv","","203.29999999981374","resources/trios/L4T2A3.jpg","39","restless",0.7,0.8,0.3,0.134399143380679,"true"
"image-keyboard-response",16,36969,"0.0-4.1-1.1","98by5h1gpuv99my",454,"173.csv","","null","resources/maskTrios/BBA3.jpg","null","",NA,NA,NA,NA,""
"image-keyboard-response",17,38175,"0.0-4.1-2.1","98by5h1gpuv99my",454,"173.csv","","null","resources/images/coin2.png","null","",NA,NA,NA,NA,""
"image-keyboard-response",18,38443,"0.0-4.2-0.2","98by5h1gpuv99my",454,"173.csv","","267.29999999981374","resources/trios/L4T2A3.jpg","39","restless",0.7,0.8,0.3,0.69169632469538,"false"
"image-keyboard-response",19,38848,"0.0-4.2-1.2","98by5h1gpuv99my",454,"173.csv","","null","resources/maskTrios/BBA3.jpg","null","",NA,NA,NA,NA,""
"image-keyboard-response",20,40051,"0.0-4.2-2.2","98by5h1gpuv99my",454,"173.csv","","null","resources/images/fishbone.png","null","",NA,NA,NA,NA,""
"image-keyboard-response",21,40273,"0.0-4.3-0.3","98by5h1gpuv99my",454,"173.csv","","221","resources/trios/L4T2A3.jpg","37","restless",0.7,0.7,0.3,0.858630926141002,"false"
"image-keyboard-response",22,40676,"0.0-4.3-1.3","98by5h1gpuv99my",454,"173.csv","","null","resources/maskTrios/L4BB.jpg","null","",NA,NA,NA,NA,""
"image-keyboard-response",23,41886,"0.0-4.3-2.3","98by5h1gpuv99my",454,"173.csv","","null","resources/images/fishbone.png","null","",NA,NA,NA,NA,""
"image-keyboard-response",24,41934,"0.0-4.4-0.4","98by5h1gpuv99my",454,"173.csv","","45.700000000186265","resources/trios/L4T2A3.jpg","38","restless",0.7,0.7,0.3,0.357104591435719,"true"
"image-keyboard-response",25,42341,"0.0-4.4-1.4","98by5h1gpuv99my",454,"173.csv","","null","resources/maskTrios/BT2B.jpg","null","",NA,NA,NA,NA,""
"image-keyboard-response",26,43548,"0.0-4.4-2.4","98by5h1gpuv99my",454,"173.csv","","null","resources/images/coin2.png","null","",NA,NA,NA,NA,""
"image-keyboard-response",27,43597,"0.0-4.5-0.5","98by5h1gpuv99my",454,"173.csv","","47.60000000009313","resources/trios/L4T2A3.jpg","39","restless",0.8,0.7,0.3,0.953910297529065,"false"
"image-keyboard-response",28,43999,"0.0-4.5-1.5","98by5h1gpuv99my",454,"173.csv","","null","resources/maskTrios/BBA3.jpg","null","",NA,NA,NA,NA,""
"image-keyboard-response",29,45214,"0.0-4.5-2.5","98by5h1gpuv99my",454,"173.csv","","null","resources/images/fishbone.png","null","",NA,NA,NA,NA,""
"image-keyboard-response",30,45293,"0.0-4.6-0.6","98by5h1gpuv99my",454,"173.csv","","77.90000000037253","resources/trios/L4T2A3.jpg","37","restless",0.8,0.7,0.4,0.0212723589254344,"true"
"image-keyboard-response",31,45696,"0.0-4.6-1.6","98by5h1gpuv99my",454,"173.csv","","null","resources/maskTrios/L4BB.jpg","null","",NA,NA,NA,NA,""
"image-keyboard-response",32,46905,"0.0-4.6-2.6","98by5h1gpuv99my",454,"173.csv","","null","resources/images/coin2.png","null","",NA,NA,NA,NA,""
"image-keyboard-response",33,47079,"0.0-4.7-0.7","98by5h1gpuv99my",454,"173.csv","","172.29999999981374","resources/trios/L4T2A3.jpg","38","restless",0.8,0.7,0.4,0.982656018974423,"false"
"image-keyboard-response",34,47494,"0.0-4.7-1.7","98by5h1gpuv99my",454,"173.csv","","null","resources/maskTrios/BT2B.jpg","null","",NA,NA,NA,NA,""
"image-keyboard-response",35,48708,"0.0-4.7-2.7","98by5h1gpuv99my",454,"173.csv","","null","resources/images/fishbone.png","null","",NA,NA,NA,NA,""
"image-keyboard-response",36,48711,"0.0-4.8-0.8","98by5h1gpuv99my",454,"173.csv","","1.5","resources/trios/L4T2A3.jpg","37","restless",0.7,0.7,0.4,0.366901907989845,"true"
"image-keyboard-response",37,49116,"0.0-4.8-1.8","98by5h1gpuv99my",454,"173.csv","","null","resources/maskTrios/L4BB.jpg","null","",NA,NA,NA,NA,""
"image-keyboard-response",38,50326,"0.0-4.8-2.8","98by5h1gpuv99my",454,"173.csv","","null","resources/images/coin2.png","null","",NA,NA,NA,NA,""
"image-keyboard-response",39,50375,"0.0-4.9-0.9","98by5h1gpuv99my",454,"173.csv","","48.200000000186265","resources/trios/L4T2A3.jpg","39","restless",0.7,0.7,0.4,0.856505566049731,"false"
"image-keyboard-response",40,50791,"0.0-4.9-1.9","98by5h1gpuv99my",454,"173.csv","","null","resources/maskTrios/BBA3.jpg","null","",NA,NA,NA,NA,""
"image-keyboard-response",41,51994,"0.0-4.9-2.9","98by5h1gpuv99my",454,"173.csv","","null","resources/images/fishbone.png","null","",NA,NA,NA,NA,""
"image-keyboard-response",42,52197,"0.0-4.10-0.10","98by5h1gpuv99my",454,"173.csv","","201.8000000002794","resources/trios/L4T2A3.jpg","37","restless",0.7,0.7,0.4,0.809996566449411,"false"
"image-keyboard-response",43,52603,"0.0-4.10-1.10","98by5h1gpuv99my",454,"173.csv","","null","resources/maskTrios/L4BB.jpg","null","",NA,NA,NA,NA,""
"image-keyboard-response",44,53808,"0.0-4.10-2.10","98by5h1gpuv99my",454,"173.csv","","null","resources/images/fishbone.png","null","",NA,NA,NA,NA,""
"image-keyboard-response",45,53918,"0.0-4.11-0.11","98by5h1gpuv99my",454,"173.csv","","109.1999999997206","resources/trios/L4T2A3.jpg","38","restless",0.7,0.7,0.4,0.781767266100229,"false"
"image-keyboard-response",46,54323,"0.0-4.11-1.11","98by5h1gpuv99my",454,"173.csv","","null","resources/maskTrios/BT2B.jpg","null","",NA,NA,NA,NA,""
"image-keyboard-response",47,55538,"0.0-4.11-2.11","98by5h1gpuv99my",454,"173.csv","","null","resources/images/fishbone.png","null","",NA,NA,NA,NA,""
"image-keyboard-response",48,55587,"0.0-4.12-0.12","98by5h1gpuv99my",454,"173.csv","","47.299999999813735","resources/trios/L4T2A3.jpg","38","restless",0.7,0.7,0.4,0.892307314260938,"false"
"image-keyboard-response",49,56002,"0.0-4.12-1.12","98by5h1gpuv99my",454,"173.csv","","null","resources/maskTrios/BT2B.jpg","null","",NA,NA,NA,NA,""
"image-keyboard-response",50,57205,"0.0-4.12-2.12","98by5h1gpuv99my",454,"173.csv","","null","resources/images/fishbone.png","null","",NA,NA,NA,NA,""
"image-keyboard-response",51,57254,"0.0-4.13-0.13","98by5h1gpuv99my",454,"173.csv","","48","resources/trios/L4T2A3.jpg","39","restless",0.7,0.7,0.4,0.431387092810599,"false"
"image-keyboard-response",52,57670,"0.0-4.13-1.13","98by5h1gpuv99my",454,"173.csv","","null","resources/maskTrios/BBA3.jpg","null","",NA,NA,NA,NA,""
"image-keyboard-response",53,58873,"0.0-4.13-2.13","98by5h1gpuv99my",454,"173.csv","","null","resources/images/fishbone.png","null","",NA,NA,NA,NA,""
"image-keyboard-response",54,58987,"0.0-4.14-0.14","98by5h1gpuv99my",454,"173.csv","","113.10000000009313","resources/trios/L4T2A3.jpg","37","restless",0.7,0.7,0.4,0.430234506593075,"true"
"image-keyboard-response",55,59400,"0.0-4.14-1.14","98by5h1gpuv99my",454,"173.csv","","null","resources/maskTrios/L4BB.jpg","null","",NA,NA,NA,NA,""
"image-keyboard-response",56,60602,"0.0-4.14-2.14","98by5h1gpuv99my",454,"173.csv","","null","resources/images/coin2.png","null","",NA,NA,NA,NA,""
"image-keyboard-response",57,60713,"0.0-4.15-0.15","98by5h1gpuv99my",454,"173.csv","","109.8000000002794","resources/trios/L4T2A3.jpg","38","restless",0.7,0.7,0.4,0.253505682403905,"true"
"image-keyboard-response",58,61129,"0.0-4.15-1.15","98by5h1gpuv99my",454,"173.csv","","null","resources/maskTrios/BT2B.jpg","null","",NA,NA,NA,NA,""
"image-keyboard-response",59,62333,"0.0-4.15-2.15","98by5h1gpuv99my",454,"173.csv","","null","resources/images/coin2.png","null","",NA,NA,NA,NA,""
"image-keyboard-response",60,62366,"0.0-4.16-0.16","98by5h1gpuv99my",454,"173.csv","","31.5","resources/trios/L4T2A3.jpg","37","restless",0.6,0.7,0.4,0.516669132286423,"true"
"image-keyboard-response",61,62772,"0.0-4.16-1.16","98by5h1gpuv99my",454,"173.csv","","null","resources/maskTrios/L4BB.jpg","null","",NA,NA,NA,NA,""
"image-keyboard-response",62,63974,"0.0-4.16-2.16","98by5h1gpuv99my",454,"173.csv","","null","resources/images/coin2.png","null","",NA,NA,NA,NA,""
"image-keyboard-response",63,64023,"0.0-4.17-0.17","98by5h1gpuv99my",454,"173.csv","","47.40000000037253","resources/trios/L4T2A3.jpg","38","restless",0.6,0.7,0.5,0.237642182434441,"true"
"image-keyboard-response",64,64425,"0.0-4.17-1.17","98by5h1gpuv99my",454,"173.csv","","null","resources/maskTrios/BT2B.jpg","null","",NA,NA,NA,NA,""
"image-keyboard-response",65,65632,"0.0-4.17-2.17","98by5h1gpuv99my",454,"173.csv","","null","resources/images/coin2.png","null","",NA,NA,NA,NA,""
"image-keyboard-response",66,65757,"0.0-4.18-0.18","98by5h1gpuv99my",454,"173.csv","","123.59999999962747","resources/trios/L4T2A3.jpg","37","restless",0.6,0.7,0.5,0.029365989442351,"true"
"image-keyboard-response",67,66160,"0.0-4.18-1.18","98by5h1gpuv99my",454,"173.csv","","null","resources/maskTrios/L4BB.jpg","null","",NA,NA,NA,NA,""
"image-keyboard-response",68,67362,"0.0-4.18-2.18","98by5h1gpuv99my",454,"173.csv","","null","resources/images/coin2.png","null","",NA,NA,NA,NA,""
"image-keyboard-response",69,67489,"0.0-4.19-0.19","98by5h1gpuv99my",454,"173.csv","","126.10000000009313","resources/trios/L4T2A3.jpg","38","restless",0.5,0.7,0.5,0.545251273892559,"true"
"image-keyboard-response",70,67895,"0.0-4.19-1.19","98by5h1gpuv99my",454,"173.csv","","null","resources/maskTrios/BT2B.jpg","null","",NA,NA,NA,NA,""
"image-keyboard-response",71,69099,"0.0-4.19-2.19","98by5h1gpuv99my",454,"173.csv","","null","resources/images/coin2.png","null","",NA,NA,NA,NA,""
"image-keyboard-response",72,69115,"0.0-4.20-0.20","98by5h1gpuv99my",454,"173.csv","","15.600000000093132","resources/trios/L4T2A3.jpg","37","restless",0.5,0.7,0.5,0.570425603772326,"false"
"image-keyboard-response",73,69517,"0.0-4.20-1.20","98by5h1gpuv99my",454,"173.csv","","null","resources/maskTrios/L4BB.jpg","null","",NA,NA,NA,NA,""
"image-keyboard-response",74,70726,"0.0-4.20-2.20","98by5h1gpuv99my",454,"173.csv","","null","resources/images/fishbone.png","null","",NA,NA,NA,NA,""
"image-keyboard-response",75,70886,"0.0-4.21-0.21","98by5h1gpuv99my",454,"173.csv","","158.1999999997206","resources/trios/L4T2A3.jpg","38","restless",0.5,0.6,0.5,0.736460589849498,"false"
"image-keyboard-response",76,71300,"0.0-4.21-1.21","98by5h1gpuv99my",454,"173.csv","","null","resources/maskTrios/BT2B.jpg","null","",NA,NA,NA,NA,""
"image-keyboard-response",77,72506,"0.0-4.21-2.21","98by5h1gpuv99my",454,"173.csv","","null","resources/images/fishbone.png","null","",NA,NA,NA,NA,""
"image-keyboard-response",78,72585,"0.0-4.22-0.22","98by5h1gpuv99my",454,"173.csv","","78.39999999990687","resources/trios/L4T2A3.jpg","39","restless",0.5,0.6,0.5,0.423020050948193,"true"
"image-keyboard-response",79,72988,"0.0-4.22-1.22","98by5h1gpuv99my",454,"173.csv","","null","resources/maskTrios/BBA3.jpg","null","",NA,NA,NA,NA,""
"image-keyboard-response",80,74196,"0.0-4.22-2.22","98by5h1gpuv99my",454,"173.csv","","null","resources/images/coin2.png","null","",NA,NA,NA,NA,""
"image-keyboard-response",81,74213,"0.0-4.23-0.23","98by5h1gpuv99my",454,"173.csv","","16.100000000093132","resources/trios/L4T2A3.jpg","39","restless",0.5,0.6,0.5,0.328419060396355,"true"
"image-keyboard-response",82,74619,"0.0-4.23-1.23","98by5h1gpuv99my",454,"173.csv","","null","resources/maskTrios/BBA3.jpg","null","",NA,NA,NA,NA,""
"image-keyboard-response",83,75825,"0.0-4.23-2.23","98by5h1gpuv99my",454,"173.csv","","null","resources/images/coin2.png","null","",NA,NA,NA,NA,""
"image-keyboard-response",84,75985,"0.0-4.24-0.24","98by5h1gpuv99my",454,"173.csv","","159.10000000009313","resources/trios/L4T2A3.jpg","39","restless",0.5,0.6,0.6,0.245118608251621,"true"
"image-keyboard-response",85,76400,"0.0-4.24-1.24","98by5h1gpuv99my",454,"173.csv","","null","resources/maskTrios/BBA3.jpg","null","",NA,NA,NA,NA,""
"image-keyboard-response",86,77604,"0.0-4.24-2.24","98by5h1gpuv99my",454,"173.csv","","null","resources/images/coin2.png","null","",NA,NA,NA,NA,""
"image-keyboard-response",87,78042,"0.0-4.25-0.25","98by5h1gpuv99my",454,"173.csv","","436.5","resources/trios/L4T2A3.jpg","39","restless",0.5,0.6,0.6,0.929134175690729,"false"
"image-keyboard-response",88,78446,"0.0-4.25-1.25","98by5h1gpuv99my",454,"173.csv","","null","resources/maskTrios/BBA3.jpg","null","",NA,NA,NA,NA,""
"image-keyboard-response",89,79652,"0.0-4.25-2.25","98by5h1gpuv99my",454,"173.csv","","null","resources/images/fishbone.png","null","",NA,NA,NA,NA,""
"image-keyboard-response",90,79730,"0.0-4.26-0.26","98by5h1gpuv99my",454,"173.csv","","76.79999999981374","resources/trios/L4T2A3.jpg","37","restless",0.5,0.6,0.7,0.225684584902786,"true"
"image-keyboard-response",91,80147,"0.0-4.26-1.26","98by5h1gpuv99my",454,"173.csv","","null","resources/maskTrios/L4BB.jpg","null","",NA,NA,NA,NA,""
"image-keyboard-response",92,81355,"0.0-4.26-2.26","98by5h1gpuv99my",454,"173.csv","","null","resources/images/coin2.png","null","",NA,NA,NA,NA,""
"image-keyboard-response",93,81496,"0.0-4.27-0.27","98by5h1gpuv99my",454,"173.csv","","140.5","resources/trios/L4T2A3.jpg","38","restless",0.5,0.6,0.7,0.0103078710329276,"true"
"image-keyboard-response",94,81903,"0.0-4.27-1.27","98by5h1gpuv99my",454,"173.csv","","null","resources/maskTrios/BT2B.jpg","null","",NA,NA,NA,NA,""
"image-keyboard-response",95,83110,"0.0-4.27-2.27","98by5h1gpuv99my",454,"173.csv","","null","resources/images/coin2.png","null","",NA,NA,NA,NA,""
"image-keyboard-response",96,83487,"0.0-4.28-0.28","98by5h1gpuv99my",454,"173.csv","","376.29999999981374","resources/trios/L4T2A3.jpg","37","restless",0.5,0.5,0.7,0.735456583764293,"false"
"image-keyboard-response",97,83890,"0.0-4.28-1.28","98by5h1gpuv99my",454,"173.csv","","null","resources/maskTrios/L4BB.jpg","null","",NA,NA,NA,NA,""
"image-keyboard-response",98,85097,"0.0-4.28-2.28","98by5h1gpuv99my",454,"173.csv","","null","resources/images/fishbone.png","null","",NA,NA,NA,NA,""
"image-keyboard-response",99,85098,"0.0-4.29-0.29","98by5h1gpuv99my",454,"173.csv","","0.2999999998137355","resources/trios/L4T2A3.jpg","38","restless",0.5,0.5,0.7,0.149806588793794,"true"
"image-keyboard-response",100,85507,"0.0-4.29-1.29","98by5h1gpuv99my",454,"173.csv","","null","resources/maskTrios/BT2B.jpg","null","",NA,NA,NA,NA,""
"image-keyboard-response",101,86711,"0.0-4.29-2.29","98by5h1gpuv99my",454,"173.csv","","null","resources/images/coin2.png","null","",NA,NA,NA,NA,""
"image-keyboard-response",102,86744,"0.0-4.30-0.30","98by5h1gpuv99my",454,"173.csv","","32.5","resources/trios/L4T2A3.jpg","38","restless",0.5,0.5,0.7,0.342883167744685,"true"
"image-keyboard-response",103,87146,"0.0-4.30-1.30","98by5h1gpuv99my",454,"173.csv","","null","resources/maskTrios/BT2B.jpg","null","",NA,NA,NA,NA,""
"image-keyboard-response",104,88353,"0.0-4.30-2.30","98by5h1gpuv99my",454,"173.csv","","null","resources/images/coin2.png","null","",NA,NA,NA,NA,""
"image-keyboard-response",105,88480,"0.0-4.31-0.31","98by5h1gpuv99my",454,"173.csv","","125.39999999990687","resources/trios/L4T2A3.jpg","38","restless",0.5,0.5,0.7,0.911970428799891,"false"
"image-keyboard-response",106,88885,"0.0-4.31-1.31","98by5h1gpuv99my",454,"173.csv","","null","resources/maskTrios/BT2B.jpg","null","",NA,NA,NA,NA,""
"image-keyboard-response",107,90100,"0.0-4.31-2.31","98by5h1gpuv99my",454,"173.csv","","null","resources/images/fishbone.png","null","",NA,NA,NA,NA,""
"image-keyboard-response",108,90258,"0.0-4.32-0.32","98by5h1gpuv99my",454,"173.csv","","156.8000000002794","resources/trios/L4T2A3.jpg","39","restless",0.5,0.5,0.7,0.0283311328511118,"true"
"image-keyboard-response",109,90663,"0.0-4.32-1.32","98by5h1gpuv99my",454,"173.csv","","null","resources/maskTrios/BBA3.jpg","null","",NA,NA,NA,NA,""
"image-keyboard-response",110,91864,"0.0-4.32-2.32","98by5h1gpuv99my",454,"173.csv","","null","resources/images/coin2.png","null","",NA,NA,NA,NA,""
"image-keyboard-response",111,91961,"0.0-4.33-0.33","98by5h1gpuv99my",454,"173.csv","","94.6999999997206","resources/trios/L4T2A3.jpg","39","restless",0.5,0.5,0.6,0.0387205783991607,"true"
"image-keyboard-response",112,92376,"0.0-4.33-1.33","98by5h1gpuv99my",454,"173.csv","","null","resources/maskTrios/BBA3.jpg","null","",NA,NA,NA,NA,""
"image-keyboard-response",113,93581,"0.0-4.33-2.33","98by5h1gpuv99my",454,"173.csv","","null","resources/images/coin2.png","null","",NA,NA,NA,NA,""
"image-keyboard-response",114,93755,"0.0-4.34-0.34","98by5h1gpuv99my",454,"173.csv","","172.40000000037253","resources/trios/L4T2A3.jpg","39","restless",0.5,0.6,0.6,0.885839787200498,"false"
"image-keyboard-response",115,94159,"0.0-4.34-1.34","98by5h1gpuv99my",454,"173.csv","","null","resources/maskTrios/BBA3.jpg","null","",NA,NA,NA,NA,""
"image-keyboard-response",116,95363,"0.0-4.34-2.34","98by5h1gpuv99my",454,"173.csv","","null","resources/images/fishbone.png","null","",NA,NA,NA,NA,""
"image-keyboard-response",117,95475,"0.0-4.35-0.35","98by5h1gpuv99my",454,"173.csv","","111.8000000002794","resources/trios/L4T2A3.jpg","37","restless",0.5,0.6,0.6,0.839276800981681,"false"
"image-keyboard-response",118,95880,"0.0-4.35-1.35","98by5h1gpuv99my",454,"173.csv","","null","resources/maskTrios/L4BB.jpg","null","",NA,NA,NA,NA,""
"image-keyboard-response",119,97084,"0.0-4.35-2.35","98by5h1gpuv99my",454,"173.csv","","null","resources/images/fishbone.png","null","",NA,NA,NA,NA,""
"image-keyboard-response",120,97240,"0.0-4.36-0.36","98by5h1gpuv99my",454,"173.csv","","154.89999999990687","resources/trios/L4T2A3.jpg","38","restless",0.5,0.6,0.7,0.285473725455922,"true"
"image-keyboard-response",121,97647,"0.0-4.36-1.36","98by5h1gpuv99my",454,"173.csv","","null","resources/maskTrios/BT2B.jpg","null","",NA,NA,NA,NA,""
"image-keyboard-response",122,98861,"0.0-4.36-2.36","98by5h1gpuv99my",454,"173.csv","","null","resources/images/coin2.png","null","",NA,NA,NA,NA,""
"image-keyboard-response",123,99001,"0.0-4.37-0.37","98by5h1gpuv99my",454,"173.csv","","139","resources/trios/L4T2A3.jpg","38","restless",0.5,0.6,0.7,0.184072831019261,"true"
"image-keyboard-response",124,99408,"0.0-4.37-1.37","98by5h1gpuv99my",454,"173.csv","","null","resources/maskTrios/BT2B.jpg","null","",NA,NA,NA,NA,""
"image-keyboard-response",125,100613,"0.0-4.37-2.37","98by5h1gpuv99my",454,"173.csv","","null","resources/images/coin2.png","null","",NA,NA,NA,NA,""
"image-keyboard-response",126,100708,"0.0-4.38-0.38","98by5h1gpuv99my",454,"173.csv","","93.60000000009313","resources/trios/L4T2A3.jpg","38","restless",0.4,0.6,0.7,0.405599694641667,"true"
"image-keyboard-response",127,101124,"0.0-4.38-1.38","98by5h1gpuv99my",454,"173.csv","","null","resources/maskTrios/BT2B.jpg","null","",NA,NA,NA,NA,""
"image-keyboard-response",128,102331,"0.0-4.38-2.38","98by5h1gpuv99my",454,"173.csv","","null","resources/images/coin2.png","null","",NA,NA,NA,NA,""
"image-keyboard-response",129,102536,"0.0-4.39-0.39","98by5h1gpuv99my",454,"173.csv","","203.6999999997206","resources/trios/L4T2A3.jpg","38","restless",0.4,0.6,0.7,0.679592693481975,"false"
"image-keyboard-response",130,102939,"0.0-4.39-1.39","98by5h1gpuv99my",454,"173.csv","","null","resources/maskTrios/BT2B.jpg","null","",NA,NA,NA,NA,""
"image-keyboard-response",131,104141,"0.0-4.39-2.39","98by5h1gpuv99my",454,"173.csv","","null","resources/images/fishbone.png","null","",NA,NA,NA,NA,""
"image-keyboard-response",132,104235,"0.0-4.40-0.40","98by5h1gpuv99my",454,"173.csv","","93.3000000002794","resources/trios/L4T2A3.jpg","37","restless",0.4,0.6,0.6,0.559263477348745,"false"
"image-keyboard-response",133,104640,"0.0-4.40-1.40","98by5h1gpuv99my",454,"173.csv","","null","resources/maskTrios/L4BB.jpg","null","",NA,NA,NA,NA,""
"image-keyboard-response",134,105843,"0.0-4.40-2.40","98by5h1gpuv99my",454,"173.csv","","null","resources/images/fishbone.png","null","",NA,NA,NA,NA,""
"image-keyboard-response",135,105940,"0.0-4.41-0.41","98by5h1gpuv99my",454,"173.csv","","95.70000000018626","resources/trios/L4T2A3.jpg","39","restless",0.4,0.6,0.6,0.195170132064741,"true"
"image-keyboard-response",136,106342,"0.0-4.41-1.41","98by5h1gpuv99my",454,"173.csv","","null","resources/maskTrios/BBA3.jpg","null","",NA,NA,NA,NA,""
"image-keyboard-response",137,107558,"0.0-4.41-2.41","98by5h1gpuv99my",454,"173.csv","","null","resources/images/coin2.png","null","",NA,NA,NA,NA,""
"image-keyboard-response",138,107638,"0.0-4.42-0.42","98by5h1gpuv99my",454,"173.csv","","78.29999999981374","resources/trios/L4T2A3.jpg","39","restless",0.4,0.6,0.6,0.409165307355256,"true"
"image-keyboard-response",139,108041,"0.0-4.42-1.42","98by5h1gpuv99my",454,"173.csv","","null","resources/maskTrios/BBA3.jpg","null","",NA,NA,NA,NA,""
"image-keyboard-response",140,109247,"0.0-4.42-2.42","98by5h1gpuv99my",454,"173.csv","","null","resources/images/coin2.png","null","",NA,NA,NA,NA,""
"image-keyboard-response",141,109281,"0.0-4.43-0.43","98by5h1gpuv99my",454,"173.csv","","33.5","resources/trios/L4T2A3.jpg","39","restless",0.4,0.6,0.6,0.109516935483233,"true"
"image-keyboard-response",142,109683,"0.0-4.43-1.43","98by5h1gpuv99my",454,"173.csv","","null","resources/maskTrios/BBA3.jpg","null","",NA,NA,NA,NA,""
"image-keyboard-response",143,110889,"0.0-4.43-2.43","98by5h1gpuv99my",454,"173.csv","","null","resources/images/coin2.png","null","",NA,NA,NA,NA,""
"image-keyboard-response",144,111014,"0.0-4.44-0.44","98by5h1gpuv99my",454,"173.csv","","123.79999999981374","resources/trios/L4T2A3.jpg","39","restless",0.4,0.6,0.6,0.632320433768772,"false"
"image-keyboard-response",145,111416,"0.0-4.44-1.44","98by5h1gpuv99my",454,"173.csv","","null","resources/maskTrios/BBA3.jpg","null","",NA,NA,NA,NA,""
"image-keyboard-response",146,112632,"0.0-4.44-2.44","98by5h1gpuv99my",454,"173.csv","","null","resources/images/fishbone.png","null","",NA,NA,NA,NA,""
"image-keyboard-response",147,112650,"0.0-4.45-0.45","98by5h1gpuv99my",454,"173.csv","","16.200000000186265","resources/trios/L4T2A3.jpg","37","restless",0.4,0.6,0.6,0.24018142771942,"true"
"image-keyboard-response",148,113066,"0.0-4.45-1.45","98by5h1gpuv99my",454,"173.csv","","null","resources/maskTrios/L4BB.jpg","null","",NA,NA,NA,NA,""
"image-keyboard-response",149,114269,"0.0-4.45-2.45","98by5h1gpuv99my",454,"173.csv","","null","resources/images/coin2.png","null","",NA,NA,NA,NA,""
"image-keyboard-response",150,114444,"0.0-4.46-0.46","98by5h1gpuv99my",454,"173.csv","","173.20000000018626","resources/trios/L4T2A3.jpg","37","restless",0.4,0.6,0.6,0.899898135409121,"false"
"image-keyboard-response",151,114848,"0.0-4.46-1.46","98by5h1gpuv99my",454,"173.csv","","null","resources/maskTrios/L4BB.jpg","null","",NA,NA,NA,NA,""
"image-keyboard-response",152,116055,"0.0-4.46-2.46","98by5h1gpuv99my",454,"173.csv","","null","resources/images/fishbone.png","null","",NA,NA,NA,NA,""
"image-keyboard-response",153,116462,"0.0-4.47-0.47","98by5h1gpuv99my",454,"173.csv","","405.39999999990687","resources/trios/L4T2A3.jpg","38","restless",0.3,0.6,0.6,0.0946781602628013,"true"
"image-keyboard-response",154,116864,"0.0-4.47-1.47","98by5h1gpuv99my",454,"173.csv","","null","resources/maskTrios/BT2B.jpg","null","",NA,NA,NA,NA,""
"image-keyboard-response",155,118071,"0.0-4.47-2.47","98by5h1gpuv99my",454,"173.csv","","null","resources/images/coin2.png","null","",NA,NA,NA,NA,""
"image-keyboard-response",156,118120,"0.0-4.48-0.48","98by5h1gpuv99my",454,"173.csv","","47.6999999997206","resources/trios/L4T2A3.jpg","38","restless",0.3,0.6,0.6,0.000917230599904117,"true"
"image-keyboard-response",157,118527,"0.0-4.48-1.48","98by5h1gpuv99my",454,"173.csv","","null","resources/maskTrios/BT2B.jpg","null","",NA,NA,NA,NA,""
"image-keyboard-response",158,119735,"0.0-4.48-2.48","98by5h1gpuv99my",454,"173.csv","","null","resources/images/coin2.png","null","",NA,NA,NA,NA,""
"image-keyboard-response",159,119798,"0.0-4.49-0.49","98by5h1gpuv99my",454,"173.csv","","61.8000000002794","resources/trios/L4T2A3.jpg","38","restless",0.3,0.6,0.6,0.646324433902304,"false"
"image-keyboard-response",160,120201,"0.0-4.49-1.49","98by5h1gpuv99my",454,"173.csv","","null","resources/maskTrios/BT2B.jpg","null","",NA,NA,NA,NA,""
"image-keyboard-response",161,121404,"0.0-4.49-2.49","98by5h1gpuv99my",454,"173.csv","","null","resources/images/fishbone.png","null","",NA,NA,NA,NA,""
"image-keyboard-response",162,121579,"0.0-4.50-0.50","98by5h1gpuv99my",454,"173.csv","","173.39999999990687","resources/trios/L4T2A3.jpg","37","restless",0.3,0.6,0.6,0.774463868261629,"false"
"image-keyboard-response",163,121982,"0.0-4.50-1.50","98by5h1gpuv99my",454,"173.csv","","null","resources/maskTrios/L4BB.jpg","null","",NA,NA,NA,NA,""
"image-keyboard-response",164,123192,"0.0-4.50-2.50","98by5h1gpuv99my",454,"173.csv","","null","resources/images/fishbone.png","null","",NA,NA,NA,NA,""
"image-keyboard-response",165,123194,"0.0-4.51-0.51","98by5h1gpuv99my",454,"173.csv","","1.2000000001862645","resources/trios/L4T2A3.jpg","39","restless",0.2,0.6,0.6,0.0495699948489519,"true"
"image-keyboard-response",166,123597,"0.0-4.51-1.51","98by5h1gpuv99my",454,"173.csv","","null","resources/maskTrios/BBA3.jpg","null","",NA,NA,NA,NA,""
"image-keyboard-response",167,124803,"0.0-4.51-2.51","98by5h1gpuv99my",454,"173.csv","","null","resources/images/coin2.png","null","",NA,NA,NA,NA,""
"image-keyboard-response",168,124979,"0.0-4.52-0.52","98by5h1gpuv99my",454,"173.csv","","173.79999999981374","resources/trios/L4T2A3.jpg","39","restless",0.2,0.5,0.6,0.170282639765988,"true"
"image-keyboard-response",169,125380,"0.0-4.52-1.52","98by5h1gpuv99my",454,"173.csv","","null","resources/maskTrios/BBA3.jpg","null","",NA,NA,NA,NA,""
"image-keyboard-response",170,126587,"0.0-4.52-2.52","98by5h1gpuv99my",454,"173.csv","","null","resources/images/coin2.png","null","",NA,NA,NA,NA,""
"image-keyboard-response",171,126777,"0.0-4.53-0.53","98by5h1gpuv99my",454,"173.csv","","188.79999999981374","resources/trios/L4T2A3.jpg","39","restless",0.2,0.5,0.6,0.186899901568632,"true"
"image-keyboard-response",172,127182,"0.0-4.53-1.53","98by5h1gpuv99my",454,"173.csv","","null","resources/maskTrios/BBA3.jpg","null","",NA,NA,NA,NA,""
"image-keyboard-response",173,128390,"0.0-4.53-2.53","98by5h1gpuv99my",454,"173.csv","","null","resources/images/coin2.png","null","",NA,NA,NA,NA,""
"image-keyboard-response",174,128754,"0.0-4.54-0.54","98by5h1gpuv99my",454,"173.csv","","363","resources/trios/L4T2A3.jpg","39","restless",0.2,0.5,0.6,0.733491948564535,"false"
"image-keyboard-response",175,129170,"0.0-4.54-1.54","98by5h1gpuv99my",454,"173.csv","","null","resources/maskTrios/BBA3.jpg","null","",NA,NA,NA,NA,""
"image-keyboard-response",176,130373,"0.0-4.54-2.54","98by5h1gpuv99my",454,"173.csv","","null","resources/images/fishbone.png","null","",NA,NA,NA,NA,""
"image-keyboard-response",177,130439,"0.0-4.55-0.55","98by5h1gpuv99my",454,"173.csv","","64.39999999990687","resources/trios/L4T2A3.jpg","38","restless",0.2,0.5,0.6,0.210454629417911,"true"
"image-keyboard-response",178,130840,"0.0-4.55-1.55","98by5h1gpuv99my",454,"173.csv","","null","resources/maskTrios/BT2B.jpg","null","",NA,NA,NA,NA,""
"image-keyboard-response",179,132056,"0.0-4.55-2.55","98by5h1gpuv99my",454,"173.csv","","null","resources/images/coin2.png","null","",NA,NA,NA,NA,""
"image-keyboard-response",180,132526,"0.0-4.56-0.56","98by5h1gpuv99my",454,"173.csv","","468.8000000002794","resources/trios/L4T2A3.jpg","38","restless",0.2,0.5,0.6,0.802115092193505,"false"
"image-keyboard-response",181,132932,"0.0-4.56-1.56","98by5h1gpuv99my",454,"173.csv","","null","resources/maskTrios/BT2B.jpg","null","",NA,NA,NA,NA,""
"image-keyboard-response",182,134148,"0.0-4.56-2.56","98by5h1gpuv99my",454,"173.csv","","null","resources/images/fishbone.png","null","",NA,NA,NA,NA,""
"image-keyboard-response",183,134243,"0.0-4.57-0.57","98by5h1gpuv99my",454,"173.csv","","94.5","resources/trios/L4T2A3.jpg","37","restless",0.2,0.5,0.6,0.392075546452456,"false"
"image-keyboard-response",184,134660,"0.0-4.57-1.57","98by5h1gpuv99my",454,"173.csv","","null","resources/maskTrios/L4BB.jpg","null","",NA,NA,NA,NA,""
"image-keyboard-response",185,135868,"0.0-4.57-2.57","98by5h1gpuv99my",454,"173.csv","","null","resources/images/fishbone.png","null","",NA,NA,NA,NA,""
"image-keyboard-response",186,135870,"0.0-4.58-0.58","98by5h1gpuv99my",454,"173.csv","","0.5","resources/trios/L4T2A3.jpg","39","restless",0.2,0.5,0.6,0.742551133989054,"false"
"image-keyboard-response",187,136275,"0.0-4.58-1.58","98by5h1gpuv99my",454,"173.csv","","null","resources/maskTrios/BBA3.jpg","null","",NA,NA,NA,NA,""
"image-keyboard-response",188,137477,"0.0-4.58-2.58","98by5h1gpuv99my",454,"173.csv","","null","resources/images/fishbone.png","null","",NA,NA,NA,NA,""
"image-keyboard-response",189,137647,"0.0-4.59-0.59","98by5h1gpuv99my",454,"173.csv","","169.39999999990687","resources/trios/L4T2A3.jpg","38","restless",0.1,0.5,0.7,0.215957110787247,"true"
"image-keyboard-response",190,138050,"0.0-4.59-1.59","98by5h1gpuv99my",454,"173.csv","","null","resources/maskTrios/BT2B.jpg","null","",NA,NA,NA,NA,""
"image-keyboard-response",191,139253,"0.0-4.59-2.59","98by5h1gpuv99my",454,"173.csv","","null","resources/images/coin2.png","null","",NA,NA,NA,NA,""
"image-keyboard-response",192,139332,"0.0-4.60-0.60","98by5h1gpuv99my",454,"173.csv","","77","resources/trios/L4T2A3.jpg","38","restless",0.1,0.5,0.7,0.168798528669306,"true"
"image-keyboard-response",193,139735,"0.0-4.60-1.60","98by5h1gpuv99my",454,"173.csv","","null","resources/maskTrios/BT2B.jpg","null","",NA,NA,NA,NA,""
"image-keyboard-response",194,140939,"0.0-4.60-2.60","98by5h1gpuv99my",454,"173.csv","","null","resources/images/coin2.png","null","",NA,NA,NA,NA,""
"image-keyboard-response",195,141035,"0.0-4.61-0.61","98by5h1gpuv99my",454,"173.csv","","95.20000000018626","resources/trios/L4T2A3.jpg","38","restless",0.1,0.6,0.7,0.494511650278929,"true"
"image-keyboard-response",196,141452,"0.0-4.61-1.61","98by5h1gpuv99my",454,"173.csv","","null","resources/maskTrios/BT2B.jpg","null","",NA,NA,NA,NA,""
"image-keyboard-response",197,142657,"0.0-4.61-2.61","98by5h1gpuv99my",454,"173.csv","","null","resources/images/coin2.png","null","",NA,NA,NA,NA,""
"image-keyboard-response",198,142723,"0.0-4.62-0.62","98by5h1gpuv99my",454,"173.csv","","64","resources/trios/L4T2A3.jpg","38","restless",0.1,0.6,0.7,0.479343228504955,"true"
"image-keyboard-response",199,143125,"0.0-4.62-1.62","98by5h1gpuv99my",454,"173.csv","","null","resources/maskTrios/BT2B.jpg","null","",NA,NA,NA,NA,""
"image-keyboard-response",200,144327,"0.0-4.62-2.62","98by5h1gpuv99my",454,"173.csv","","null","resources/images/coin2.png","null","",NA,NA,NA,NA,""
"image-keyboard-response",201,144344,"0.0-4.63-0.63","98by5h1gpuv99my",454,"173.csv","","16","resources/trios/L4T2A3.jpg","38","restless",0.1,0.5,0.7,0.849638026101734,"false"
"image-keyboard-response",202,144748,"0.0-4.63-1.63","98by5h1gpuv99my",454,"173.csv","","null","resources/maskTrios/BT2B.jpg","null","",NA,NA,NA,NA,""
"image-keyboard-response",203,145963,"0.0-4.63-2.63","98by5h1gpuv99my",454,"173.csv","","null","resources/images/fishbone.png","null","",NA,NA,NA,NA,""
"image-keyboard-response",204,146026,"0.0-4.64-0.64","98by5h1gpuv99my",454,"173.csv","","62.10000000009313","resources/trios/L4T2A3.jpg","39","restless",0.1,0.5,0.7,0.235808131143513,"true"
"image-keyboard-response",205,146431,"0.0-4.64-1.64","98by5h1gpuv99my",454,"173.csv","","null","resources/maskTrios/BBA3.jpg","null","",NA,NA,NA,NA,""
"image-keyboard-response",206,147645,"0.0-4.64-2.64","98by5h1gpuv99my",454,"173.csv","","null","resources/images/coin2.png","null","",NA,NA,NA,NA,""
"image-keyboard-response",207,147820,"0.0-4.65-0.65","98by5h1gpuv99my",454,"173.csv","","174","resources/trios/L4T2A3.jpg","39","restless",0.1,0.5,0.7,0.189205839813952,"true"
"image-keyboard-response",208,148222,"0.0-4.65-1.65","98by5h1gpuv99my",454,"173.csv","","null","resources/maskTrios/BBA3.jpg","null","",NA,NA,NA,NA,""
"image-keyboard-response",209,149426,"0.0-4.65-2.65","98by5h1gpuv99my",454,"173.csv","","null","resources/images/coin2.png","null","",NA,NA,NA,NA,""
"image-keyboard-response",210,150035,"0.0-4.66-0.66","98by5h1gpuv99my",454,"173.csv","","608.5999999996275","resources/trios/L4T2A3.jpg","39","restless",0.1,0.5,0.7,0.783072658079885,"false"
"image-keyboard-response",211,150440,"0.0-4.66-1.66","98by5h1gpuv99my",454,"173.csv","","null","resources/maskTrios/BBA3.jpg","null","",NA,NA,NA,NA,""
"image-keyboard-response",212,151656,"0.0-4.66-2.66","98by5h1gpuv99my",454,"173.csv","","null","resources/images/fishbone.png","null","",NA,NA,NA,NA,""
"image-keyboard-response",213,151878,"0.0-4.67-0.67","98by5h1gpuv99my",454,"173.csv","","220.90000000037253","resources/trios/L4T2A3.jpg","37","restless",0.1,0.5,0.7,0.169440672608835,"false"
"image-keyboard-response",214,152294,"0.0-4.67-1.67","98by5h1gpuv99my",454,"173.csv","","null","resources/maskTrios/L4BB.jpg","null","",NA,NA,NA,NA,""
"image-keyboard-response",215,153495,"0.0-4.67-2.67","98by5h1gpuv99my",454,"173.csv","","null","resources/images/fishbone.png","null","",NA,NA,NA,NA,""
"image-keyboard-response",216,153625,"0.0-4.68-0.68","98by5h1gpuv99my",454,"173.csv","","127.89999999990687","resources/trios/L4T2A3.jpg","38","restless",0.2,0.5,0.7,0.285211781858742,"true"
"image-keyboard-response",217,154029,"0.0-4.68-1.68","98by5h1gpuv99my",454,"173.csv","","null","resources/maskTrios/BT2B.jpg","null","",NA,NA,NA,NA,""
"image-keyboard-response",218,155240,"0.0-4.68-2.68","98by5h1gpuv99my",454,"173.csv","","null","resources/images/coin2.png","null","",NA,NA,NA,NA,""
"image-keyboard-response",219,155602,"0.0-4.69-0.69","98by5h1gpuv99my",454,"173.csv","","360.29999999981374","resources/trios/L4T2A3.jpg","38","restless",0.3,0.5,0.7,0.856046929507594,"false"
"image-keyboard-response",220,156019,"0.0-4.69-1.69","98by5h1gpuv99my",454,"173.csv","","null","resources/maskTrios/BT2B.jpg","null","",NA,NA,NA,NA,""
"image-keyboard-response",221,157224,"0.0-4.69-2.69","98by5h1gpuv99my",454,"173.csv","","null","resources/images/fishbone.png","null","",NA,NA,NA,NA,""
"image-keyboard-response",222,157508,"0.0-4.70-0.70","98by5h1gpuv99my",454,"173.csv","","282.29999999981374","resources/trios/L4T2A3.jpg","39","restless",0.3,0.4,0.7,0.825574044278049,"false"
"image-keyboard-response",223,157921,"0.0-4.70-1.70","98by5h1gpuv99my",454,"173.csv","","null","resources/maskTrios/BBA3.jpg","null","",NA,NA,NA,NA,""
"image-keyboard-response",224,159134,"0.0-4.70-2.70","98by5h1gpuv99my",454,"173.csv","","null","resources/images/fishbone.png","null","",NA,NA,NA,NA,""
"image-keyboard-response",225,159184,"0.0-4.71-0.71","98by5h1gpuv99my",454,"173.csv","","48.200000000186265","resources/trios/L4T2A3.jpg","37","restless",0.3,0.3,0.7,0.339200180833623,"false"
"image-keyboard-response",226,159585,"0.0-4.71-1.71","98by5h1gpuv99my",454,"173.csv","","null","resources/maskTrios/L4BB.jpg","null","",NA,NA,NA,NA,""
"image-keyboard-response",227,160788,"0.0-4.71-2.71","98by5h1gpuv99my",454,"173.csv","","null","resources/images/fishbone.png","null","",NA,NA,NA,NA,""
"image-keyboard-response",228,160882,"0.0-4.72-0.72","98by5h1gpuv99my",454,"173.csv","","92.20000000018626","resources/trios/L4T2A3.jpg","38","restless",0.3,0.2,0.7,0.447614220042565,"false"
"image-keyboard-response",229,161285,"0.0-4.72-1.72","98by5h1gpuv99my",454,"173.csv","","null","resources/maskTrios/BT2B.jpg","null","",NA,NA,NA,NA,""
"image-keyboard-response",230,162497,"0.0-4.72-2.72","98by5h1gpuv99my",454,"173.csv","","null","resources/images/fishbone.png","null","",NA,NA,NA,NA,""
"image-keyboard-response",231,162814,"0.0-4.73-0.73","98by5h1gpuv99my",454,"173.csv","","315.90000000037253","resources/trios/L4T2A3.jpg","38","restless",0.3,0.2,0.7,0.301736588259749,"false"
"image-keyboard-response",232,163216,"0.0-4.73-1.73","98by5h1gpuv99my",454,"173.csv","","null","resources/maskTrios/BT2B.jpg","null","",NA,NA,NA,NA,""
"image-keyboard-response",233,164418,"0.0-4.73-2.73","98by5h1gpuv99my",454,"173.csv","","null","resources/images/fishbone.png","null","",NA,NA,NA,NA,""
"image-keyboard-response",234,164467,"0.0-4.74-0.74","98by5h1gpuv99my",454,"173.csv","","47.700000000186265","resources/trios/L4T2A3.jpg","39","restless",0.3,0.2,0.7,0.0694347490872693,"true"
"image-keyboard-response",235,164870,"0.0-4.74-1.74","98by5h1gpuv99my",454,"173.csv","","null","resources/maskTrios/BBA3.jpg","null","",NA,NA,NA,NA,""
"image-keyboard-response",236,166088,"0.0-4.74-2.74","98by5h1gpuv99my",454,"173.csv","","null","resources/images/coin2.png","null","",NA,NA,NA,NA,""
"image-keyboard-response",237,166231,"0.0-4.75-0.75","98by5h1gpuv99my",454,"173.csv","","141.39999999990687","resources/trios/L4T2A3.jpg","39","restless",0.3,0.2,0.7,0.600370058927306,"true"
"image-keyboard-response",238,166637,"0.0-4.75-1.75","98by5h1gpuv99my",454,"173.csv","","null","resources/maskTrios/BBA3.jpg","null","",NA,NA,NA,NA,""
"image-keyboard-response",239,167841,"0.0-4.75-2.75","98by5h1gpuv99my",454,"173.csv","","null","resources/images/coin2.png","null","",NA,NA,NA,NA,""
"image-keyboard-response",240,168060,"0.0-4.76-0.76","98by5h1gpuv99my",454,"173.csv","","218.1999999997206","resources/trios/L4T2A3.jpg","39","restless",0.2,0.2,0.6,0.332885557978082,"true"
"image-keyboard-response",241,168465,"0.0-4.76-1.76","98by5h1gpuv99my",454,"173.csv","","null","resources/maskTrios/BBA3.jpg","null","",NA,NA,NA,NA,""
"image-keyboard-response",242,169680,"0.0-4.76-2.76","98by5h1gpuv99my",454,"173.csv","","null","resources/images/coin2.png","null","",NA,NA,NA,NA,""
"image-keyboard-response",243,169852,"0.0-4.77-0.77","98by5h1gpuv99my",454,"173.csv","","171.10000000009313","resources/trios/L4T2A3.jpg","39","restless",0.2,0.2,0.6,0.960227032974994,"false"
"image-keyboard-response",244,170254,"0.0-4.77-1.77","98by5h1gpuv99my",454,"173.csv","","null","resources/maskTrios/BBA3.jpg","null","",NA,NA,NA,NA,""
"image-keyboard-response",245,171457,"0.0-4.77-2.77","98by5h1gpuv99my",454,"173.csv","","null","resources/images/fishbone.png","null","",NA,NA,NA,NA,""
"image-keyboard-response",246,171767,"0.0-4.78-0.78","98by5h1gpuv99my",454,"173.csv","","309.60000000009313","resources/trios/L4T2A3.jpg","37","restless",0.2,0.2,0.6,0.929873531766075,"false"
"image-keyboard-response",247,172182,"0.0-4.78-1.78","98by5h1gpuv99my",454,"173.csv","","null","resources/maskTrios/L4BB.jpg","null","",NA,NA,NA,NA,""
"image-keyboard-response",248,173386,"0.0-4.78-2.78","98by5h1gpuv99my",454,"173.csv","","null","resources/images/fishbone.png","null","",NA,NA,NA,NA,""
"image-keyboard-response",249,173434,"0.0-4.79-0.79","98by5h1gpuv99my",454,"173.csv","","47.10000000009313","resources/trios/L4T2A3.jpg","37","restless",0.2,0.2,0.6,0.439368456946601,"false"
"image-keyboard-response",250,173851,"0.0-4.79-1.79","98by5h1gpuv99my",454,"173.csv","","null","resources/maskTrios/L4BB.jpg","null","",NA,NA,NA,NA,""
"image-keyboard-response",251,175066,"0.0-4.79-2.79","98by5h1gpuv99my",454,"173.csv","","null","resources/images/fishbone.png","null","",NA,NA,NA,NA,""
"image-keyboard-response",252,175225,"0.0-4.80-0.80","98by5h1gpuv99my",454,"173.csv","","158","resources/trios/L4T2A3.jpg","38","restless",0.2,0.2,0.6,0.166816119278238,"true"
"image-keyboard-response",253,175630,"0.0-4.80-1.80","98by5h1gpuv99my",454,"173.csv","","null","resources/maskTrios/BT2B.jpg","null","",NA,NA,NA,NA,""
"image-keyboard-response",254,176846,"0.0-4.80-2.80","98by5h1gpuv99my",454,"173.csv","","null","resources/images/coin2.png","null","",NA,NA,NA,NA,""
"image-keyboard-response",255,176990,"0.0-4.81-0.81","98by5h1gpuv99my",454,"173.csv","","142.60000000009313","resources/trios/L4T2A3.jpg","38","restless",0.2,0.3,0.6,0.756280861561765,"false"
"image-keyboard-response",256,177407,"0.0-4.81-1.81","98by5h1gpuv99my",454,"173.csv","","null","resources/maskTrios/BT2B.jpg","null","",NA,NA,NA,NA,""
"image-keyboard-response",257,178609,"0.0-4.81-2.81","98by5h1gpuv99my",454,"173.csv","","null","resources/images/fishbone.png","null","",NA,NA,NA,NA,""
"image-keyboard-response",258,178751,"0.0-4.82-0.82","98by5h1gpuv99my",454,"173.csv","","140.1999999997206","resources/trios/L4T2A3.jpg","39","restless",0.2,0.3,0.6,0.230573467474823,"true"
"image-keyboard-response",259,179154,"0.0-4.82-1.82","98by5h1gpuv99my",454,"173.csv","","null","resources/maskTrios/BBA3.jpg","null","",NA,NA,NA,NA,""
"image-keyboard-response",260,180355,"0.0-4.82-2.82","98by5h1gpuv99my",454,"173.csv","","null","resources/images/coin2.png","null","",NA,NA,NA,NA,""
"image-keyboard-response",261,180748,"0.0-4.83-0.83","98by5h1gpuv99my",454,"173.csv","","391.10000000009313","resources/trios/L4T2A3.jpg","39","restless",0.2,0.4,0.6,0.315032991815303,"true"
"image-keyboard-response",262,181150,"0.0-4.83-1.83","98by5h1gpuv99my",454,"173.csv","","null","resources/maskTrios/BBA3.jpg","null","",NA,NA,NA,NA,""
"image-keyboard-response",263,182361,"0.0-4.83-2.83","98by5h1gpuv99my",454,"173.csv","","null","resources/images/coin2.png","null","",NA,NA,NA,NA,""
"image-keyboard-response",264,182410,"0.0-4.84-0.84","98by5h1gpuv99my",454,"173.csv","","48.10000000009313","resources/trios/L4T2A3.jpg","39","restless",0.2,0.4,0.6,0.117736037367195,"true"
"image-keyboard-response",265,182813,"0.0-4.84-1.84","98by5h1gpuv99my",454,"173.csv","","null","resources/maskTrios/BBA3.jpg","null","",NA,NA,NA,NA,""
"image-keyboard-response",266,184026,"0.0-4.84-2.84","98by5h1gpuv99my",454,"173.csv","","null","resources/images/coin2.png","null","",NA,NA,NA,NA,""
"image-keyboard-response",267,184060,"0.0-4.85-0.85","98by5h1gpuv99my",454,"173.csv","","32.5","resources/trios/L4T2A3.jpg","39","restless",0.2,0.4,0.6,0.775201439127225,"false"
"image-keyboard-response",268,184463,"0.0-4.85-1.85","98by5h1gpuv99my",454,"173.csv","","null","resources/maskTrios/BBA3.jpg","null","",NA,NA,NA,NA,""
"image-keyboard-response",269,185675,"0.0-4.85-2.85","98by5h1gpuv99my",454,"173.csv","","null","resources/images/fishbone.png","null","",NA,NA,NA,NA,""
"image-keyboard-response",270,185739,"0.0-4.86-0.86","98by5h1gpuv99my",454,"173.csv","","62.5","resources/trios/L4T2A3.jpg","37","restless",0.1,0.4,0.6,0.54177442811348,"false"
"image-keyboard-response",271,186141,"0.0-4.86-1.86","98by5h1gpuv99my",454,"173.csv","","null","resources/maskTrios/L4BB.jpg","null","",NA,NA,NA,NA,""
"image-keyboard-response",272,187344,"0.0-4.86-2.86","98by5h1gpuv99my",454,"173.csv","","null","resources/images/fishbone.png","null","",NA,NA,NA,NA,""
"image-keyboard-response",273,187488,"0.0-4.87-0.87","98by5h1gpuv99my",454,"173.csv","","142","resources/trios/L4T2A3.jpg","38","restless",0.1,0.4,0.6,0.18994191701281,"true"
"image-keyboard-response",274,187904,"0.0-4.87-1.87","98by5h1gpuv99my",454,"173.csv","","null","resources/maskTrios/BT2B.jpg","null","",NA,NA,NA,NA,""
"image-keyboard-response",275,189119,"0.0-4.87-2.87","98by5h1gpuv99my",454,"173.csv","","null","resources/images/coin2.png","null","",NA,NA,NA,NA,""
"image-keyboard-response",276,189245,"0.0-4.88-0.88","98by5h1gpuv99my",454,"173.csv","","125.40000000037253","resources/trios/L4T2A3.jpg","38","restless",0.1,0.4,0.7,0.1770715647831,"true"
"image-keyboard-response",277,189652,"0.0-4.88-1.88","98by5h1gpuv99my",454,"173.csv","","null","resources/maskTrios/BT2B.jpg","null","",NA,NA,NA,NA,""
"image-keyboard-response",278,190868,"0.0-4.88-2.88","98by5h1gpuv99my",454,"173.csv","","null","resources/images/coin2.png","null","",NA,NA,NA,NA,""
"image-keyboard-response",279,190901,"0.0-4.89-0.89","98by5h1gpuv99my",454,"173.csv","","31.399999999906868","resources/trios/L4T2A3.jpg","38","restless",0.1,0.5,0.7,0.685158343169404,"false"
"image-keyboard-response",280,191305,"0.0-4.89-1.89","98by5h1gpuv99my",454,"173.csv","","null","resources/maskTrios/BT2B.jpg","null","",NA,NA,NA,NA,""
"image-keyboard-response",281,192506,"0.0-4.89-2.89","98by5h1gpuv99my",454,"173.csv","","null","resources/images/fishbone.png","null","",NA,NA,NA,NA,""
"image-keyboard-response",282,192725,"0.0-4.90-0.90","98by5h1gpuv99my",454,"173.csv","","218.39999999990687","resources/trios/L4T2A3.jpg","39","restless",0.1,0.5,0.7,0.777797987731965,"false"
"image-keyboard-response",283,193131,"0.0-4.90-1.90","98by5h1gpuv99my",454,"173.csv","","null","resources/maskTrios/BBA3.jpg","null","",NA,NA,NA,NA,""
"image-keyboard-response",284,194332,"0.0-4.90-2.90","98by5h1gpuv99my",454,"173.csv","","null","resources/images/fishbone.png","null","",NA,NA,NA,NA,""
"image-keyboard-response",285,194394,"0.0-4.91-0.91","98by5h1gpuv99my",454,"173.csv","","60.89999999990687","resources/trios/L4T2A3.jpg","37","restless",0.1,0.5,0.7,0.192869654279153,"false"
"image-keyboard-response",286,194798,"0.0-4.91-1.91","98by5h1gpuv99my",454,"173.csv","","null","resources/maskTrios/L4BB.jpg","null","",NA,NA,NA,NA,""
"image-keyboard-response",287,196015,"0.0-4.91-2.91","98by5h1gpuv99my",454,"173.csv","","null","resources/images/fishbone.png","null","",NA,NA,NA,NA,""
"image-keyboard-response",288,196313,"0.0-4.92-0.92","98by5h1gpuv99my",454,"173.csv","","296.79999999981374","resources/trios/L4T2A3.jpg","38","restless",0.1,0.5,0.8,0.994262195867754,"false"
"image-keyboard-response",289,196717,"0.0-4.92-1.92","98by5h1gpuv99my",454,"173.csv","","null","resources/maskTrios/BT2B.jpg","null","",NA,NA,NA,NA,""
"image-keyboard-response",290,197933,"0.0-4.92-2.92","98by5h1gpuv99my",454,"173.csv","","null","resources/images/fishbone.png","null","",NA,NA,NA,NA,""
"image-keyboard-response",291,198014,"0.0-4.93-0.93","98by5h1gpuv99my",454,"173.csv","","79.79999999981374","resources/trios/L4T2A3.jpg","39","restless",0.1,0.5,0.8,0.938677830505552,"false"
"image-keyboard-response",292,198417,"0.0-4.93-1.93","98by5h1gpuv99my",454,"173.csv","","null","resources/maskTrios/BBA3.jpg","null","",NA,NA,NA,NA,""
"image-keyboard-response",293,199632,"0.0-4.93-2.93","98by5h1gpuv99my",454,"173.csv","","null","resources/images/fishbone.png","null","",NA,NA,NA,NA,""
"image-keyboard-response",294,199682,"0.0-4.94-0.94","98by5h1gpuv99my",454,"173.csv","","48.799999999813735","resources/trios/L4T2A3.jpg","37","restless",0.1,0.5,0.8,0.265667847854013,"false"
"image-keyboard-response",295,200085,"0.0-4.94-1.94","98by5h1gpuv99my",454,"173.csv","","null","resources/maskTrios/L4BB.jpg","null","",NA,NA,NA,NA,""
"image-keyboard-response",296,201290,"0.0-4.94-2.94","98by5h1gpuv99my",454,"173.csv","","null","resources/images/fishbone.png","null","",NA,NA,NA,NA,""
"image-keyboard-response",297,201478,"0.0-4.95-0.95","98by5h1gpuv99my",454,"173.csv","","185.79999999981374","resources/trios/L4T2A3.jpg","38","restless",0.2,0.5,0.7,0.0641245865697035,"true"
"image-keyboard-response",298,201883,"0.0-4.95-1.95","98by5h1gpuv99my",454,"173.csv","","null","resources/maskTrios/BT2B.jpg","null","",NA,NA,NA,NA,""
"image-keyboard-response",299,203086,"0.0-4.95-2.95","98by5h1gpuv99my",454,"173.csv","","null","resources/images/coin2.png","null","",NA,NA,NA,NA,""
"image-keyboard-response",300,203260,"0.0-4.96-0.96","98by5h1gpuv99my",454,"173.csv","","172.8000000002794","resources/trios/L4T2A3.jpg","38","restless",0.2,0.5,0.7,0.509352588814561,"false"
"image-keyboard-response",301,203666,"0.0-4.96-1.96","98by5h1gpuv99my",454,"173.csv","","null","resources/maskTrios/BT2B.jpg","null","",NA,NA,NA,NA,""
"image-keyboard-response",302,204873,"0.0-4.96-2.96","98by5h1gpuv99my",454,"173.csv","","null","resources/images/fishbone.png","null","",NA,NA,NA,NA,""
"image-keyboard-response",303,204982,"0.0-4.97-0.97","98by5h1gpuv99my",454,"173.csv","","108.20000000018626","resources/trios/L4T2A3.jpg","39","restless",0.2,0.5,0.7,0.101184665088262,"true"
"image-keyboard-response",304,205387,"0.0-4.97-1.97","98by5h1gpuv99my",454,"173.csv","","null","resources/maskTrios/BBA3.jpg","null","",NA,NA,NA,NA,""
"image-keyboard-response",305,206603,"0.0-4.97-2.97","98by5h1gpuv99my",454,"173.csv","","null","resources/images/coin2.png","null","",NA,NA,NA,NA,""
"image-keyboard-response",306,206776,"0.0-4.98-0.98","98by5h1gpuv99my",454,"173.csv","","171.60000000009313","resources/trios/L4T2A3.jpg","39","restless",0.2,0.5,0.7,0.965855743962233,"false"
"image-keyboard-response",307,207179,"0.0-4.98-1.98","98by5h1gpuv99my",454,"173.csv","","null","resources/maskTrios/BBA3.jpg","null","",NA,NA,NA,NA,""
"image-keyboard-response",308,208394,"0.0-4.98-2.98","98by5h1gpuv99my",454,"173.csv","","null","resources/images/fishbone.png","null","",NA,NA,NA,NA,""
"image-keyboard-response",309,208442,"0.0-4.99-0.99","98by5h1gpuv99my",454,"173.csv","","47.39999999990687","resources/trios/L4T2A3.jpg","39","restless",0.2,0.5,0.7,0.697687225196049,"true"
"image-keyboard-response",310,208846,"0.0-4.99-1.99","98by5h1gpuv99my",454,"173.csv","","null","resources/maskTrios/BBA3.jpg","null","",NA,NA,NA,NA,""
"image-keyboard-response",311,210049,"0.0-4.99-2.99","98by5h1gpuv99my",454,"173.csv","","null","resources/images/coin2.png","null","",NA,NA,NA,NA,""
"image-keyboard-response",312,210099,"0.0-4.100-0.100","98by5h1gpuv99my",454,"173.csv","","49.3000000002794","resources/trios/L4T2A3.jpg","37","restless",0.2,0.5,0.7,0.91894605694304,"false"
"image-keyboard-response",313,210515,"0.0-4.100-1.100","98by5h1gpuv99my",454,"173.csv","","null","resources/maskTrios/L4BB.jpg","null","",NA,NA,NA,NA,""
"image-keyboard-response",314,211719,"0.0-4.100-2.100","98by5h1gpuv99my",454,"173.csv","","null","resources/images/fishbone.png","null","",NA,NA,NA,NA,""
"image-keyboard-response",315,211829,"0.0-4.101-0.101","98by5h1gpuv99my",454,"173.csv","","108.20000000018626","resources/trios/L4T2A3.jpg","38","restless",0.2,0.5,0.7,0.246990956730393,"true"
"image-keyboard-response",316,212244,"0.0-4.101-1.101","98by5h1gpuv99my",454,"173.csv","","null","resources/maskTrios/BT2B.jpg","null","",NA,NA,NA,NA,""
"image-keyboard-response",317,213448,"0.0-4.101-2.101","98by5h1gpuv99my",454,"173.csv","","null","resources/images/coin2.png","null","",NA,NA,NA,NA,""
"image-keyboard-response",318,213606,"0.0-4.102-0.102","98by5h1gpuv99my",454,"173.csv","","156","resources/trios/L4T2A3.jpg","38","restless",0.1,0.5,0.7,0.704815827770194,"false"
"image-keyboard-response",319,214011,"0.0-4.102-1.102","98by5h1gpuv99my",454,"173.csv","","null","resources/maskTrios/BT2B.jpg","null","",NA,NA,NA,NA,""
"image-keyboard-response",320,215216,"0.0-4.102-2.102","98by5h1gpuv99my",454,"173.csv","","null","resources/images/fishbone.png","null","",NA,NA,NA,NA,""
"image-keyboard-response",321,215233,"0.0-4.103-0.103","98by5h1gpuv99my",454,"173.csv","","15.399999999906868","resources/trios/L4T2A3.jpg","38","restless",0.2,0.5,0.7,0.187795597948924,"true"
"image-keyboard-response",322,215640,"0.0-4.103-1.103","98by5h1gpuv99my",454,"173.csv","","null","resources/maskTrios/BT2B.jpg","null","",NA,NA,NA,NA,""
"image-keyboard-response",323,216844,"0.0-4.103-2.103","98by5h1gpuv99my",454,"173.csv","","null","resources/images/coin2.png","null","",NA,NA,NA,NA,""
"image-keyboard-response",324,217067,"0.0-4.104-0.104","98by5h1gpuv99my",454,"173.csv","","220.89999999990687","resources/trios/L4T2A3.jpg","38","restless",0.2,0.5,0.7,0.960451169700952,"false"
"image-keyboard-response",325,217469,"0.0-4.104-1.104","98by5h1gpuv99my",454,"173.csv","","null","resources/maskTrios/BT2B.jpg","null","",NA,NA,NA,NA,""
"image-keyboard-response",326,218676,"0.0-4.104-2.104","98by5h1gpuv99my",454,"173.csv","","null","resources/images/fishbone.png","null","",NA,NA,NA,NA,""
"image-keyboard-response",327,218711,"0.0-4.105-0.105","98by5h1gpuv99my",454,"173.csv","","32.89999999990687","resources/trios/L4T2A3.jpg","39","restless",0.2,0.5,0.7,0.904158822485932,"false"
"image-keyboard-response",328,219127,"0.0-4.105-1.105","98by5h1gpuv99my",454,"173.csv","","null","resources/maskTrios/BBA3.jpg","null","",NA,NA,NA,NA,""
"image-keyboard-response",329,220330,"0.0-4.105-2.105","98by5h1gpuv99my",454,"173.csv","","null","resources/images/fishbone.png","null","",NA,NA,NA,NA,""
"image-keyboard-response",330,220594,"0.0-4.106-0.106","98by5h1gpuv99my",454,"173.csv","","263.3000000002794","resources/trios/L4T2A3.jpg","39","restless",0.3,0.5,0.8,0.93992825770518,"false"
"image-keyboard-response",331,220997,"0.0-4.106-1.106","98by5h1gpuv99my",454,"173.csv","","null","resources/maskTrios/BBA3.jpg","null","",NA,NA,NA,NA,""
"image-keyboard-response",332,222200,"0.0-4.106-2.106","98by5h1gpuv99my",454,"173.csv","","null","resources/images/fishbone.png","null","",NA,NA,NA,NA,""
"image-keyboard-response",333,222373,"0.0-4.107-0.107","98by5h1gpuv99my",454,"173.csv","","172.10000000009313","resources/trios/L4T2A3.jpg","37","restless",0.3,0.5,0.8,0.791653511917367,"false"
"image-keyboard-response",334,222774,"0.0-4.107-1.107","98by5h1gpuv99my",454,"173.csv","","null","resources/maskTrios/L4BB.jpg","null","",NA,NA,NA,NA,""
"image-keyboard-response",335,223989,"0.0-4.107-2.107","98by5h1gpuv99my",454,"173.csv","","null","resources/images/fishbone.png","null","",NA,NA,NA,NA,""
"image-keyboard-response",336,223991,"0.0-4.108-0.108","98by5h1gpuv99my",454,"173.csv","","0.39999999990686774","resources/trios/L4T2A3.jpg","38","restless",0.4,0.5,0.8,0.120150687984305,"true"
"image-keyboard-response",337,224408,"0.0-4.108-1.108","98by5h1gpuv99my",454,"173.csv","","null","resources/maskTrios/BT2B.jpg","null","",NA,NA,NA,NA,""
"image-keyboard-response",338,225620,"0.0-4.108-2.108","98by5h1gpuv99my",454,"173.csv","","null","resources/images/coin2.png","null","",NA,NA,NA,NA,""
"image-keyboard-response",339,225932,"0.0-4.109-0.109","98by5h1gpuv99my",454,"173.csv","","310.79999999981374","resources/trios/L4T2A3.jpg","37","restless",0.4,0.5,0.8,0.474229370833628,"false"
"image-keyboard-response",340,226338,"0.0-4.109-1.109","98by5h1gpuv99my",454,"173.csv","","null","resources/maskTrios/L4BB.jpg","null","",NA,NA,NA,NA,""
"image-keyboard-response",341,227549,"0.0-4.109-2.109","98by5h1gpuv99my",454,"173.csv","","null","resources/images/fishbone.png","null","",NA,NA,NA,NA,""
"image-keyboard-response",342,227664,"0.0-4.110-0.110","98by5h1gpuv99my",454,"173.csv","","113.8000000002794","resources/trios/L4T2A3.jpg","37","restless",0.4,0.5,0.8,0.103461879980091,"true"
"image-keyboard-response",343,228065,"0.0-4.110-1.110","98by5h1gpuv99my",454,"173.csv","","null","resources/maskTrios/L4BB.jpg","null","",NA,NA,NA,NA,""
"image-keyboard-response",344,229281,"0.0-4.110-2.110","98by5h1gpuv99my",454,"173.csv","","null","resources/images/coin2.png","null","",NA,NA,NA,NA,""
"image-keyboard-response",345,229349,"0.0-4.111-0.111","98by5h1gpuv99my",454,"173.csv","","66.3000000002794","resources/trios/L4T2A3.jpg","37","restless",0.4,0.5,0.9,0.606238961853967,"false"
"image-keyboard-response",346,229765,"0.0-4.111-1.111","98by5h1gpuv99my",454,"173.csv","","null","resources/maskTrios/L4BB.jpg","null","",NA,NA,NA,NA,""
"image-keyboard-response",347,230974,"0.0-4.111-2.111","98by5h1gpuv99my",454,"173.csv","","null","resources/images/fishbone.png","null","",NA,NA,NA,NA,""
"image-keyboard-response",348,231037,"0.0-4.112-0.112","98by5h1gpuv99my",454,"173.csv","","61.8000000002794","resources/trios/L4T2A3.jpg","38","restless",0.4,0.6,0.8,0.594421345569087,"true"
"image-keyboard-response",349,231440,"0.0-4.112-1.112","98by5h1gpuv99my",454,"173.csv","","null","resources/maskTrios/BT2B.jpg","null","",NA,NA,NA,NA,""
"image-keyboard-response",350,232650,"0.0-4.112-2.112","98by5h1gpuv99my",454,"173.csv","","null","resources/images/coin2.png","null","",NA,NA,NA,NA,""
"image-keyboard-response",351,232809,"0.0-4.113-0.113","98by5h1gpuv99my",454,"173.csv","","158.20000000018626","resources/trios/L4T2A3.jpg","38","restless",0.4,0.6,0.8,0.109050007334731,"true"
"image-keyboard-response",352,233226,"0.0-4.113-1.113","98by5h1gpuv99my",454,"173.csv","","null","resources/maskTrios/BT2B.jpg","null","",NA,NA,NA,NA,""
"image-keyboard-response",353,234429,"0.0-4.113-2.113","98by5h1gpuv99my",454,"173.csv","","null","resources/images/coin2.png","null","",NA,NA,NA,NA,""
"image-keyboard-response",354,234507,"0.0-4.114-0.114","98by5h1gpuv99my",454,"173.csv","","77.39999999990687","resources/trios/L4T2A3.jpg","38","restless",0.4,0.6,0.8,0.0636789627369059,"true"
"image-keyboard-response",355,234912,"0.0-4.114-1.114","98by5h1gpuv99my",454,"173.csv","","null","resources/maskTrios/BT2B.jpg","null","",NA,NA,NA,NA,""
"image-keyboard-response",356,236127,"0.0-4.114-2.114","98by5h1gpuv99my",454,"173.csv","","null","resources/images/coin2.png","null","",NA,NA,NA,NA,""
"image-keyboard-response",357,236331,"0.0-4.115-0.115","98by5h1gpuv99my",454,"173.csv","","202.70000000018626","resources/trios/L4T2A3.jpg","38","restless",0.4,0.6,0.9,0.809022165361309,"false"
"image-keyboard-response",358,236736,"0.0-4.115-1.115","98by5h1gpuv99my",454,"173.csv","","null","resources/maskTrios/BT2B.jpg","null","",NA,NA,NA,NA,""
"image-keyboard-response",359,237941,"0.0-4.115-2.115","98by5h1gpuv99my",454,"173.csv","","null","resources/images/fishbone.png","null","",NA,NA,NA,NA,""
"image-keyboard-response",360,237990,"0.0-4.116-0.116","98by5h1gpuv99my",454,"173.csv","","47","resources/trios/L4T2A3.jpg","39","restless",0.4,0.6,0.9,0.0139543144602752,"true"
"image-keyboard-response",361,238394,"0.0-4.116-1.116","98by5h1gpuv99my",454,"173.csv","","null","resources/maskTrios/BBA3.jpg","null","",NA,NA,NA,NA,""
"image-keyboard-response",362,239609,"0.0-4.116-2.116","98by5h1gpuv99my",454,"173.csv","","null","resources/images/coin2.png","null","",NA,NA,NA,NA,""
"image-keyboard-response",363,239689,"0.0-4.117-0.117","98by5h1gpuv99my",454,"173.csv","","78.5","resources/trios/L4T2A3.jpg","39","restless",0.4,0.6,0.9,0.643186105302769,"true"
"image-keyboard-response",364,240093,"0.0-4.117-1.117","98by5h1gpuv99my",454,"173.csv","","null","resources/maskTrios/BBA3.jpg","null","",NA,NA,NA,NA,""
"image-keyboard-response",365,241309,"0.0-4.117-2.117","98by5h1gpuv99my",454,"173.csv","","null","resources/images/coin2.png","null","",NA,NA,NA,NA,""
"image-keyboard-response",366,241420,"0.0-4.118-0.118","98by5h1gpuv99my",454,"173.csv","","109.39999999990687","resources/trios/L4T2A3.jpg","39","restless",0.4,0.6,0.9,0.544791585974258,"true"
"image-keyboard-response",367,241821,"0.0-4.118-1.118","98by5h1gpuv99my",454,"173.csv","","null","resources/maskTrios/BBA3.jpg","null","",NA,NA,NA,NA,""
"image-keyboard-response",368,243028,"0.0-4.118-2.118","98by5h1gpuv99my",454,"173.csv","","null","resources/images/coin2.png","null","",NA,NA,NA,NA,""
"image-keyboard-response",369,243172,"0.0-4.119-0.119","98by5h1gpuv99my",454,"173.csv","","142.70000000018626","resources/trios/L4T2A3.jpg","39","restless",0.4,0.6,0.9,0.101174162085754,"true"
"image-keyboard-response",370,243575,"0.0-4.119-1.119","98by5h1gpuv99my",454,"173.csv","","null","resources/maskTrios/BBA3.jpg","null","",NA,NA,NA,NA,""
"image-keyboard-response",371,244788,"0.0-4.119-2.119","98by5h1gpuv99my",454,"173.csv","","null","resources/images/coin2.png","null","",NA,NA,NA,NA,""
"image-keyboard-response",372,244962,"0.0-4.120-0.120","98by5h1gpuv99my",454,"173.csv","","172.29999999981374","resources/trios/L4T2A3.jpg","39","restless",0.4,0.6,0.9,0.541675535693378,"true"
"image-keyboard-response",373,245367,"0.0-4.120-1.120","98by5h1gpuv99my",454,"173.csv","","null","resources/maskTrios/BBA3.jpg","null","",NA,NA,NA,NA,""
"image-keyboard-response",374,246572,"0.0-4.120-2.120","98by5h1gpuv99my",454,"173.csv","","null","resources/images/coin2.png","null","",NA,NA,NA,NA,""
"image-keyboard-response",375,246792,"0.0-4.121-0.121","98by5h1gpuv99my",454,"173.csv","","218.70000000018626","resources/trios/L4T2A3.jpg","39","restless",0.4,0.6,0.9,0.406437966702216,"true"
"image-keyboard-response",376,247195,"0.0-4.121-1.121","98by5h1gpuv99my",454,"173.csv","","null","resources/maskTrios/BBA3.jpg","null","",NA,NA,NA,NA,""
"image-keyboard-response",377,248411,"0.0-4.121-2.121","98by5h1gpuv99my",454,"173.csv","","null","resources/images/coin2.png","null","",NA,NA,NA,NA,""
"image-keyboard-response",378,248599,"0.0-4.122-0.122","98by5h1gpuv99my",454,"173.csv","","186.8000000002794","resources/trios/L4T2A3.jpg","39","restless",0.4,0.6,0.9,0.239711776086428,"true"
"image-keyboard-response",379,249002,"0.0-4.122-1.122","98by5h1gpuv99my",454,"173.csv","","null","resources/maskTrios/BBA3.jpg","null","",NA,NA,NA,NA,""
"image-keyboard-response",380,250204,"0.0-4.122-2.122","98by5h1gpuv99my",454,"173.csv","","null","resources/images/coin2.png","null","",NA,NA,NA,NA,""
"image-keyboard-response",381,250240,"0.0-4.123-0.123","98by5h1gpuv99my",454,"173.csv","","34.10000000009313","resources/trios/L4T2A3.jpg","39","restless",0.4,0.6,0.9,0.737053911000611,"true"
"image-keyboard-response",382,250655,"0.0-4.123-1.123","98by5h1gpuv99my",454,"173.csv","","null","resources/maskTrios/BBA3.jpg","null","",NA,NA,NA,NA,""
"image-keyboard-response",383,251871,"0.0-4.123-2.123","98by5h1gpuv99my",454,"173.csv","","null","resources/images/coin2.png","null","",NA,NA,NA,NA,""
"image-keyboard-response",384,252043,"0.0-4.124-0.124","98by5h1gpuv99my",454,"173.csv","","171.29999999981374","resources/trios/L4T2A3.jpg","39","restless",0.5,0.6,0.8,0.393236308760697,"true"
"image-keyboard-response",385,252446,"0.0-4.124-1.124","98by5h1gpuv99my",454,"173.csv","","null","resources/maskTrios/BBA3.jpg","null","",NA,NA,NA,NA,""
"image-keyboard-response",386,253654,"0.0-4.124-2.124","98by5h1gpuv99my",454,"173.csv","","null","resources/images/coin2.png","null","",NA,NA,NA,NA,""
"image-keyboard-response",387,253674,"0.0-4.125-0.125","98by5h1gpuv99my",454,"173.csv","","19.09999999962747","resources/trios/L4T2A3.jpg","39","restless",0.5,0.6,0.8,0.394507351069703,"true"
"image-keyboard-response",388,254090,"0.0-4.125-1.125","98by5h1gpuv99my",454,"173.csv","","null","resources/maskTrios/BBA3.jpg","null","",NA,NA,NA,NA,""
"image-keyboard-response",389,255292,"0.0-4.125-2.125","98by5h1gpuv99my",454,"173.csv","","null","resources/images/coin2.png","null","",NA,NA,NA,NA,""
"image-keyboard-response",390,255497,"0.0-4.126-0.126","98by5h1gpuv99my",454,"173.csv","","202.20000000018626","resources/trios/L4T2A3.jpg","39","restless",0.5,0.6,0.7,0.373390097058153,"true"
"image-keyboard-response",391,255900,"0.0-4.126-1.126","98by5h1gpuv99my",454,"173.csv","","null","resources/maskTrios/BBA3.jpg","null","",NA,NA,NA,NA,""
"image-keyboard-response",392,257103,"0.0-4.126-2.126","98by5h1gpuv99my",454,"173.csv","","null","resources/images/coin2.png","null","",NA,NA,NA,NA,""
"image-keyboard-response",393,257322,"0.0-4.127-0.127","98by5h1gpuv99my",454,"173.csv","","217.3000000002794","resources/trios/L4T2A3.jpg","39","restless",0.5,0.6,0.7,0.907893648252911,"false"
"image-keyboard-response",394,257725,"0.0-4.127-1.127","98by5h1gpuv99my",454,"173.csv","","null","resources/maskTrios/BBA3.jpg","null","",NA,NA,NA,NA,""
"image-keyboard-response",395,258928,"0.0-4.127-2.127","98by5h1gpuv99my",454,"173.csv","","null","resources/images/fishbone.png","null","",NA,NA,NA,NA,""
"image-keyboard-response",396,259054,"0.0-4.128-0.128","98by5h1gpuv99my",454,"173.csv","","125.20000000018626","resources/trios/L4T2A3.jpg","38","restless",0.5,0.5,0.7,0.49181550129626,"true"
"image-keyboard-response",397,259457,"0.0-4.128-1.128","98by5h1gpuv99my",454,"173.csv","","null","resources/maskTrios/BT2B.jpg","null","",NA,NA,NA,NA,""
"image-keyboard-response",398,260672,"0.0-4.128-2.128","98by5h1gpuv99my",454,"173.csv","","null","resources/images/coin2.png","null","",NA,NA,NA,NA,""
"image-keyboard-response",399,260814,"0.0-4.129-0.129","98by5h1gpuv99my",454,"173.csv","","140.90000000037253","resources/trios/L4T2A3.jpg","38","restless",0.5,0.5,0.7,0.848764672473461,"false"
"image-keyboard-response",400,261217,"0.0-4.129-1.129","98by5h1gpuv99my",454,"173.csv","","null","resources/maskTrios/BT2B.jpg","null","",NA,NA,NA,NA,""
"image-keyboard-response",401,262432,"0.0-4.129-2.129","98by5h1gpuv99my",454,"173.csv","","null","resources/images/fishbone.png","null","",NA,NA,NA,NA,""
"image-keyboard-response",402,263388,"0.0-4.130-0.130","98by5h1gpuv99my",454,"173.csv","","954.5","resources/trios/L4T2A3.jpg","37","restless",0.5,0.5,0.7,0.256971634454959,"true"
"image-keyboard-response",403,263792,"0.0-4.130-1.130","98by5h1gpuv99my",454,"173.csv","","null","resources/maskTrios/L4BB.jpg","null","",NA,NA,NA,NA,""
"image-keyboard-response",404,264995,"0.0-4.130-2.130","98by5h1gpuv99my",454,"173.csv","","null","resources/images/coin2.png","null","",NA,NA,NA,NA,""
"image-keyboard-response",405,265185,"0.0-4.131-0.131","98by5h1gpuv99my",454,"173.csv","","188.79999999981374","resources/trios/L4T2A3.jpg","37","restless",0.5,0.5,0.7,0.637358903246683,"false"
"image-keyboard-response",406,265588,"0.0-4.131-1.131","98by5h1gpuv99my",454,"173.csv","","null","resources/maskTrios/L4BB.jpg","null","",NA,NA,NA,NA,""
"image-keyboard-response",407,266802,"0.0-4.131-2.131","98by5h1gpuv99my",454,"173.csv","","null","resources/images/fishbone.png","null","",NA,NA,NA,NA,""
"image-keyboard-response",408,266945,"0.0-4.132-0.132","98by5h1gpuv99my",454,"173.csv","","142.59999999962747","resources/trios/L4T2A3.jpg","38","restless",0.5,0.5,0.7,0.593721400359714,"false"
"image-keyboard-response",409,267362,"0.0-4.132-1.132","98by5h1gpuv99my",454,"173.csv","","null","resources/maskTrios/BT2B.jpg","null","",NA,NA,NA,NA,""
"image-keyboard-response",410,268576,"0.0-4.132-2.132","98by5h1gpuv99my",454,"173.csv","","null","resources/images/fishbone.png","null","",NA,NA,NA,NA,""
"image-keyboard-response",411,268671,"0.0-4.133-0.133","98by5h1gpuv99my",454,"173.csv","","93.29999999981374","resources/trios/L4T2A3.jpg","39","restless",0.5,0.5,0.7,0.434498271671696,"true"
"image-keyboard-response",412,269074,"0.0-4.133-1.133","98by5h1gpuv99my",454,"173.csv","","null","resources/maskTrios/BBA3.jpg","null","",NA,NA,NA,NA,""
"image-keyboard-response",413,270289,"0.0-4.133-2.133","98by5h1gpuv99my",454,"173.csv","","null","resources/images/coin2.png","null","",NA,NA,NA,NA,""
"image-keyboard-response",414,270322,"0.0-4.134-0.134","98by5h1gpuv99my",454,"173.csv","","31.899999999906868","resources/trios/L4T2A3.jpg","39","restless",0.5,0.5,0.7,9.64590887930772e-05,"true"
"image-keyboard-response",415,270726,"0.0-4.134-1.134","98by5h1gpuv99my",454,"173.csv","","null","resources/maskTrios/BBA3.jpg","null","",NA,NA,NA,NA,""
"image-keyboard-response",416,271943,"0.0-4.134-2.134","98by5h1gpuv99my",454,"173.csv","","null","resources/images/coin2.png","null","",NA,NA,NA,NA,""
"image-keyboard-response",417,272102,"0.0-4.135-0.135","98by5h1gpuv99my",454,"173.csv","","157.29999999981374","resources/trios/L4T2A3.jpg","39","restless",0.5,0.5,0.7,0.513002367254315,"true"
"image-keyboard-response",418,272504,"0.0-4.135-1.135","98by5h1gpuv99my",454,"173.csv","","null","resources/maskTrios/BBA3.jpg","null","",NA,NA,NA,NA,""
"image-keyboard-response",419,273721,"0.0-4.135-2.135","98by5h1gpuv99my",454,"173.csv","","null","resources/images/coin2.png","null","",NA,NA,NA,NA,""
"image-keyboard-response",420,273757,"0.0-4.136-0.136","98by5h1gpuv99my",454,"173.csv","","33.799999999813735","resources/trios/L4T2A3.jpg","39","restless",0.5,0.5,0.7,0.90338066388856,"false"
"image-keyboard-response",421,274172,"0.0-4.136-1.136","98by5h1gpuv99my",454,"173.csv","","null","resources/maskTrios/BBA3.jpg","null","",NA,NA,NA,NA,""
"image-keyboard-response",422,275375,"0.0-4.136-2.136","98by5h1gpuv99my",454,"173.csv","","null","resources/images/fishbone.png","null","",NA,NA,NA,NA,""
"image-keyboard-response",423,275549,"0.0-4.137-0.137","98by5h1gpuv99my",454,"173.csv","","172.39999999990687","resources/trios/L4T2A3.jpg","38","restless",0.4,0.5,0.7,0.276475586896097,"true"
"image-keyboard-response",424,275952,"0.0-4.137-1.137","98by5h1gpuv99my",454,"173.csv","","null","resources/maskTrios/BT2B.jpg","null","",NA,NA,NA,NA,""
"image-keyboard-response",425,277165,"0.0-4.137-2.137","98by5h1gpuv99my",454,"173.csv","","null","resources/images/coin2.png","null","",NA,NA,NA,NA,""
"image-keyboard-response",426,277310,"0.0-4.138-0.138","98by5h1gpuv99my",454,"173.csv","","144.70000000018626","resources/trios/L4T2A3.jpg","38","restless",0.4,0.5,0.7,0.557579385637393,"false"
"image-keyboard-response",427,277724,"0.0-4.138-1.138","98by5h1gpuv99my",454,"173.csv","","null","resources/maskTrios/BT2B.jpg","null","",NA,NA,NA,NA,""
"image-keyboard-response",428,278931,"0.0-4.138-2.138","98by5h1gpuv99my",454,"173.csv","","null","resources/images/fishbone.png","null","",NA,NA,NA,NA,""
"image-keyboard-response",429,279167,"0.0-4.139-0.139","98by5h1gpuv99my",454,"173.csv","","234.79999999981374","resources/trios/L4T2A3.jpg","38","restless",0.4,0.4,0.7,0.809428922454303,"false"
"image-keyboard-response",430,279573,"0.0-4.139-1.139","98by5h1gpuv99my",454,"173.csv","","null","resources/maskTrios/BT2B.jpg","null","",NA,NA,NA,NA,""
"image-keyboard-response",431,280786,"0.0-4.139-2.139","98by5h1gpuv99my",454,"173.csv","","null","resources/images/fishbone.png","null","",NA,NA,NA,NA,""
"image-keyboard-response",432,280804,"0.0-4.140-0.140","98by5h1gpuv99my",454,"173.csv","","15.899999999906868","resources/trios/L4T2A3.jpg","37","restless",0.4,0.4,0.7,0.336124230333874,"true"
"image-keyboard-response",433,281210,"0.0-4.140-1.140","98by5h1gpuv99my",454,"173.csv","","null","resources/maskTrios/L4BB.jpg","null","",NA,NA,NA,NA,""
"image-keyboard-response",434,282411,"0.0-4.140-2.140","98by5h1gpuv99my",454,"173.csv","","null","resources/images/coin2.png","null","",NA,NA,NA,NA,""
"image-keyboard-response",435,282569,"0.0-4.141-0.141","98by5h1gpuv99my",454,"173.csv","","156.1999999997206","resources/trios/L4T2A3.jpg","37","restless",0.4,0.3,0.7,0.993161309045364,"false"
"image-keyboard-response",436,282973,"0.0-4.141-1.141","98by5h1gpuv99my",454,"173.csv","","null","resources/maskTrios/L4BB.jpg","null","",NA,NA,NA,NA,""
"image-keyboard-response",437,284190,"0.0-4.141-2.141","98by5h1gpuv99my",454,"173.csv","","null","resources/images/fishbone.png","null","",NA,NA,NA,NA,""
"image-keyboard-response",438,284316,"0.0-4.142-0.142","98by5h1gpuv99my",454,"173.csv","","124.5","resources/trios/L4T2A3.jpg","39","restless",0.4,0.3,0.7,0.544517226237804,"true"
"image-keyboard-response",439,284722,"0.0-4.142-1.142","98by5h1gpuv99my",454,"173.csv","","null","resources/maskTrios/BBA3.jpg","null","",NA,NA,NA,NA,""
"image-keyboard-response",440,285924,"0.0-4.142-2.142","98by5h1gpuv99my",454,"173.csv","","null","resources/images/coin2.png","null","",NA,NA,NA,NA,""
"image-keyboard-response",441,285973,"0.0-4.143-0.143","98by5h1gpuv99my",454,"173.csv","","48.700000000186265","resources/trios/L4T2A3.jpg","39","restless",0.4,0.3,0.7,0.718934119981632,"false"
"image-keyboard-response",442,286376,"0.0-4.143-1.143","98by5h1gpuv99my",454,"173.csv","","null","resources/maskTrios/BBA3.jpg","null","",NA,NA,NA,NA,""
"image-keyboard-response",443,287590,"0.0-4.143-2.143","98by5h1gpuv99my",454,"173.csv","","null","resources/images/fishbone.png","null","",NA,NA,NA,NA,""
"image-keyboard-response",444,287608,"0.0-4.144-0.144","98by5h1gpuv99my",454,"173.csv","","16.199999999720603","resources/trios/L4T2A3.jpg","38","restless",0.4,0.3,0.7,0.664632247603449,"false"
"image-keyboard-response",445,288011,"0.0-4.144-1.144","98by5h1gpuv99my",454,"173.csv","","null","resources/maskTrios/BT2B.jpg","null","",NA,NA,NA,NA,""
"image-keyboard-response",446,289220,"0.0-4.144-2.144","98by5h1gpuv99my",454,"173.csv","","null","resources/images/fishbone.png","null","",NA,NA,NA,NA,""
"image-keyboard-response",447,289287,"0.0-4.145-0.145","98by5h1gpuv99my",454,"173.csv","","65.70000000018626","resources/trios/L4T2A3.jpg","37","restless",0.4,0.3,0.7,0.26439558590897,"true"
"image-keyboard-response",448,289690,"0.0-4.145-1.145","98by5h1gpuv99my",454,"173.csv","","null","resources/maskTrios/L4BB.jpg","null","",NA,NA,NA,NA,""
"image-keyboard-response",449,290892,"0.0-4.145-2.145","98by5h1gpuv99my",454,"173.csv","","null","resources/images/coin2.png","null","",NA,NA,NA,NA,""
"image-keyboard-response",450,291107,"0.0-4.146-0.146","98by5h1gpuv99my",454,"173.csv","","214.20000000018626","resources/trios/L4T2A3.jpg","37","restless",0.4,0.3,0.7,0.198198602746514,"true"
"image-keyboard-response",451,291510,"0.0-4.146-1.146","98by5h1gpuv99my",454,"173.csv","","null","resources/maskTrios/L4BB.jpg","null","",NA,NA,NA,NA,""
"image-keyboard-response",452,292724,"0.0-4.146-2.146","98by5h1gpuv99my",454,"173.csv","","null","resources/images/coin2.png","null","",NA,NA,NA,NA,""
"image-keyboard-response",453,292818,"0.0-4.147-0.147","98by5h1gpuv99my",454,"173.csv","","93.10000000009313","resources/trios/L4T2A3.jpg","37","restless",0.4,0.3,0.6,0.456500355886693,"false"
"image-keyboard-response",454,293220,"0.0-4.147-1.147","98by5h1gpuv99my",454,"173.csv","","null","resources/maskTrios/L4BB.jpg","null","",NA,NA,NA,NA,""
"image-keyboard-response",455,294434,"0.0-4.147-2.147","98by5h1gpuv99my",454,"173.csv","","null","resources/images/fishbone.png","null","",NA,NA,NA,NA,""
"image-keyboard-response",456,294453,"0.0-4.148-0.148","98by5h1gpuv99my",454,"173.csv","","17.799999999813735","resources/trios/L4T2A3.jpg","39","restless",0.4,0.3,0.6,0.597904328912958,"true"
"image-keyboard-response",457,294868,"0.0-4.148-1.148","98by5h1gpuv99my",454,"173.csv","","null","resources/maskTrios/BBA3.jpg","null","",NA,NA,NA,NA,""
"image-keyboard-response",458,296085,"0.0-4.148-2.148","98by5h1gpuv99my",454,"173.csv","","null","resources/images/coin2.png","null","",NA,NA,NA,NA,""
"image-keyboard-response",459,296242,"0.0-4.149-0.149","98by5h1gpuv99my",454,"173.csv","","155.39999999990687","resources/trios/L4T2A3.jpg","39","restless",0.3,0.3,0.6,0.941474669692311,"false"
"image-keyboard-response",460,296649,"0.0-4.149-1.149","98by5h1gpuv99my",454,"173.csv","","null","resources/maskTrios/BBA3.jpg","null","",NA,NA,NA,NA,""
"image-keyboard-response",461,297852,"0.0-4.149-2.149","98by5h1gpuv99my",454,"173.csv","","null","resources/images/fishbone.png","null","",NA,NA,NA,NA,""
"image-keyboard-response",462,297900,"0.0-4.150-0.150","98by5h1gpuv99my",454,"173.csv","","46.60000000009313","resources/trios/L4T2A3.jpg","38","restless",0.3,0.3,0.6,0.678280472672175,"false"
"image-keyboard-response",463,298302,"0.0-4.150-1.150","98by5h1gpuv99my",454,"173.csv","","null","resources/maskTrios/BT2B.jpg","null","",NA,NA,NA,NA,""
"image-keyboard-response",464,299516,"0.0-4.150-2.150","98by5h1gpuv99my",454,"173.csv","","null","resources/images/fishbone.png","null","",NA,NA,NA,NA,""
"image-keyboard-response",465,299518,"0.0-4.151-0.151","98by5h1gpuv99my",454,"173.csv","","0.5","resources/trios/L4T2A3.jpg","37","restless",0.3,0.3,0.6,0.0490801603291833,"true"
"image-keyboard-response",466,299921,"0.0-4.151-1.151","98by5h1gpuv99my",454,"173.csv","","null","resources/maskTrios/L4BB.jpg","null","",NA,NA,NA,NA,""
"image-keyboard-response",467,301125,"0.0-4.151-2.151","98by5h1gpuv99my",454,"173.csv","","null","resources/images/coin2.png","null","",NA,NA,NA,NA,""
"image-keyboard-response",468,301220,"0.0-4.152-0.152","98by5h1gpuv99my",454,"173.csv","","94.20000000018626","resources/trios/L4T2A3.jpg","37","restless",0.3,0.3,0.6,0.00644089391774605,"true"
"image-keyboard-response",469,301622,"0.0-4.152-1.152","98by5h1gpuv99my",454,"173.csv","","null","resources/maskTrios/L4BB.jpg","null","",NA,NA,NA,NA,""
"image-keyboard-response",470,302828,"0.0-4.152-2.152","98by5h1gpuv99my",454,"173.csv","","null","resources/images/coin2.png","null","",NA,NA,NA,NA,""
"image-keyboard-response",471,302956,"0.0-4.153-0.153","98by5h1gpuv99my",454,"173.csv","","126.5","resources/trios/L4T2A3.jpg","37","restless",0.3,0.3,0.6,0.184047366920387,"true"
"image-keyboard-response",472,303372,"0.0-4.153-1.153","98by5h1gpuv99my",454,"173.csv","","null","resources/maskTrios/L4BB.jpg","null","",NA,NA,NA,NA,""
"image-keyboard-response",473,304578,"0.0-4.153-2.153","98by5h1gpuv99my",454,"173.csv","","null","resources/images/coin2.png","null","",NA,NA,NA,NA,""
"image-keyboard-response",474,304753,"0.0-4.154-0.154","98by5h1gpuv99my",454,"173.csv","","173.60000000009313","resources/trios/L4T2A3.jpg","37","restless",0.3,0.4,0.6,0.881940778369421,"false"
"image-keyboard-response",475,305154,"0.0-4.154-1.154","98by5h1gpuv99my",454,"173.csv","","null","resources/maskTrios/L4BB.jpg","null","",NA,NA,NA,NA,""
"image-keyboard-response",476,306371,"0.0-4.154-2.154","98by5h1gpuv99my",454,"173.csv","","null","resources/images/fishbone.png","null","",NA,NA,NA,NA,""
"image-keyboard-response",477,306573,"0.0-4.155-0.155","98by5h1gpuv99my",454,"173.csv","","200.60000000009313","resources/trios/L4T2A3.jpg","38","restless",0.2,0.4,0.6,0.504049109647841,"false"
"image-keyboard-response",478,306976,"0.0-4.155-1.155","98by5h1gpuv99my",454,"173.csv","","null","resources/maskTrios/BT2B.jpg","null","",NA,NA,NA,NA,""
"image-keyboard-response",479,308190,"0.0-4.155-2.155","98by5h1gpuv99my",454,"173.csv","","null","resources/images/fishbone.png","null","",NA,NA,NA,NA,""
"image-keyboard-response",480,308426,"0.0-4.156-0.156","98by5h1gpuv99my",454,"173.csv","","234.20000000018626","resources/trios/L4T2A3.jpg","39","restless",0.2,0.4,0.5,0.068900643902559,"true"
"image-keyboard-response",481,308829,"0.0-4.156-1.156","98by5h1gpuv99my",454,"173.csv","","null","resources/maskTrios/BBA3.jpg","null","",NA,NA,NA,NA,""
"image-keyboard-response",482,310044,"0.0-4.156-2.156","98by5h1gpuv99my",454,"173.csv","","null","resources/images/coin2.png","null","",NA,NA,NA,NA,""
"image-keyboard-response",483,310124,"0.0-4.157-0.157","98by5h1gpuv99my",454,"173.csv","","78.6999999997206","resources/trios/L4T2A3.jpg","39","restless",0.3,0.4,0.5,0.590257673402145,"false"
"image-keyboard-response",484,310527,"0.0-4.157-1.157","98by5h1gpuv99my",454,"173.csv","","null","resources/maskTrios/BBA3.jpg","null","",NA,NA,NA,NA,""
"image-keyboard-response",485,311730,"0.0-4.157-2.157","98by5h1gpuv99my",454,"173.csv","","null","resources/images/fishbone.png","null","",NA,NA,NA,NA,""
"image-keyboard-response",486,311810,"0.0-4.158-0.158","98by5h1gpuv99my",454,"173.csv","","78.3000000002794","resources/trios/L4T2A3.jpg","38","restless",0.4,0.5,0.5,0.294487667253469,"true"
"image-keyboard-response",487,312213,"0.0-4.158-1.158","98by5h1gpuv99my",454,"173.csv","","null","resources/maskTrios/BT2B.jpg","null","",NA,NA,NA,NA,""
"image-keyboard-response",488,313418,"0.0-4.158-2.158","98by5h1gpuv99my",454,"173.csv","","null","resources/images/coin2.png","null","",NA,NA,NA,NA,""
"image-keyboard-response",489,313452,"0.0-4.159-0.159","98by5h1gpuv99my",454,"173.csv","","32.89999999990687","resources/trios/L4T2A3.jpg","38","restless",0.4,0.5,0.4,0.760518019918397,"false"
"image-keyboard-response",490,313853,"0.0-4.159-1.159","98by5h1gpuv99my",454,"173.csv","","null","resources/maskTrios/BT2B.jpg","null","",NA,NA,NA,NA,""
"image-keyboard-response",491,315055,"0.0-4.159-2.159","98by5h1gpuv99my",454,"173.csv","","null","resources/images/fishbone.png","null","",NA,NA,NA,NA,""
"image-keyboard-response",492,315073,"0.0-4.160-0.160","98by5h1gpuv99my",454,"173.csv","","16.5","resources/trios/L4T2A3.jpg","37","restless",0.4,0.6,0.4,0.508145171998087,"false"
"image-keyboard-response",493,315475,"0.0-4.160-1.160","98by5h1gpuv99my",454,"173.csv","","null","resources/maskTrios/L4BB.jpg","null","",NA,NA,NA,NA,""
"image-keyboard-response",494,316682,"0.0-4.160-2.160","98by5h1gpuv99my",454,"173.csv","","null","resources/images/fishbone.png","null","",NA,NA,NA,NA,""
"image-keyboard-response",495,316731,"0.0-4.161-0.161","98by5h1gpuv99my",454,"173.csv","","47.200000000186265","resources/trios/L4T2A3.jpg","38","restless",0.4,0.6,0.4,0.94327249121607,"false"
"image-keyboard-response",496,317134,"0.0-4.161-1.161","98by5h1gpuv99my",454,"173.csv","","null","resources/maskTrios/BT2B.jpg","null","",NA,NA,NA,NA,""
"image-keyboard-response",497,318344,"0.0-4.161-2.161","98by5h1gpuv99my",454,"173.csv","","null","resources/images/fishbone.png","null","",NA,NA,NA,NA,""
"image-keyboard-response",498,318378,"0.0-4.162-0.162","98by5h1gpuv99my",454,"173.csv","","33.1999999997206","resources/trios/L4T2A3.jpg","39","restless",0.4,0.6,0.4,0.877582489023077,"false"
"image-keyboard-response",499,318781,"0.0-4.162-1.162","98by5h1gpuv99my",454,"173.csv","","null","resources/maskTrios/BBA3.jpg","null","",NA,NA,NA,NA,""
"image-keyboard-response",500,319998,"0.0-4.162-2.162","98by5h1gpuv99my",454,"173.csv","","null","resources/images/fishbone.png","null","",NA,NA,NA,NA,""
"image-keyboard-response",501,320218,"0.0-4.163-0.163","98by5h1gpuv99my",454,"173.csv","","219.39999999990687","resources/trios/L4T2A3.jpg","38","restless",0.4,0.6,0.4,0.0791027447098804,"true"
"image-keyboard-response",502,320623,"0.0-4.163-1.163","98by5h1gpuv99my",454,"173.csv","","null","resources/maskTrios/BT2B.jpg","null","",NA,NA,NA,NA,""
"image-keyboard-response",503,321825,"0.0-4.163-2.163","98by5h1gpuv99my",454,"173.csv","","null","resources/images/coin2.png","null","",NA,NA,NA,NA,""
"image-keyboard-response",504,321922,"0.0-4.164-0.164","98by5h1gpuv99my",454,"173.csv","","96","resources/trios/L4T2A3.jpg","38","restless",0.5,0.6,0.5,0.559074847726746,"true"
"image-keyboard-response",505,322323,"0.0-4.164-1.164","98by5h1gpuv99my",454,"173.csv","","null","resources/maskTrios/BT2B.jpg","null","",NA,NA,NA,NA,""
"image-keyboard-response",506,323527,"0.0-4.164-2.164","98by5h1gpuv99my",454,"173.csv","","null","resources/images/coin2.png","null","",NA,NA,NA,NA,""
"image-keyboard-response",507,323685,"0.0-4.165-0.165","98by5h1gpuv99my",454,"173.csv","","156.79999999981374","resources/trios/L4T2A3.jpg","38","restless",0.6,0.6,0.5,0.613367690228876,"false"
"image-keyboard-response",508,324088,"0.0-4.165-1.165","98by5h1gpuv99my",454,"173.csv","","null","resources/maskTrios/BT2B.jpg","null","",NA,NA,NA,NA,""
"image-keyboard-response",509,325295,"0.0-4.165-2.165","98by5h1gpuv99my",454,"173.csv","","null","resources/images/fishbone.png","null","",NA,NA,NA,NA,""
"image-keyboard-response",510,325423,"0.0-4.166-0.166","98by5h1gpuv99my",454,"173.csv","","125.6999999997206","resources/trios/L4T2A3.jpg","37","restless",0.6,0.6,0.5,0.190499024178248,"true"
"image-keyboard-response",511,325840,"0.0-4.166-1.166","98by5h1gpuv99my",454,"173.csv","","null","resources/maskTrios/L4BB.jpg","null","",NA,NA,NA,NA,""
"image-keyboard-response",512,327055,"0.0-4.166-2.166","98by5h1gpuv99my",454,"173.csv","","null","resources/images/coin2.png","null","",NA,NA,NA,NA,""
"image-keyboard-response",513,327259,"0.0-4.167-0.167","98by5h1gpuv99my",454,"173.csv","","203.10000000009313","resources/trios/L4T2A3.jpg","37","restless",0.6,0.6,0.5,0.850088899513251,"false"
"image-keyboard-response",514,327662,"0.0-4.167-1.167","98by5h1gpuv99my",454,"173.csv","","null","resources/maskTrios/L4BB.jpg","null","",NA,NA,NA,NA,""
"image-keyboard-response",515,328875,"0.0-4.167-2.167","98by5h1gpuv99my",454,"173.csv","","null","resources/images/fishbone.png","null","",NA,NA,NA,NA,""
"image-keyboard-response",516,329064,"0.0-4.168-0.168","98by5h1gpuv99my",454,"173.csv","","188.5","resources/trios/L4T2A3.jpg","38","restless",0.6,0.6,0.5,0.366981557207504,"true"
"image-keyboard-response",517,329467,"0.0-4.168-1.168","98by5h1gpuv99my",454,"173.csv","","null","resources/maskTrios/BT2B.jpg","null","",NA,NA,NA,NA,""
"image-keyboard-response",518,330681,"0.0-4.168-2.168","98by5h1gpuv99my",454,"173.csv","","null","resources/images/coin2.png","null","",NA,NA,NA,NA,""
"image-keyboard-response",519,330775,"0.0-4.169-0.169","98by5h1gpuv99my",454,"173.csv","","92.60000000009313","resources/trios/L4T2A3.jpg","38","restless",0.6,0.6,0.5,0.595010387320006,"true"
"image-keyboard-response",520,331181,"0.0-4.169-1.169","98by5h1gpuv99my",454,"173.csv","","null","resources/maskTrios/BT2B.jpg","null","",NA,NA,NA,NA,""
"image-keyboard-response",521,332387,"0.0-4.169-2.169","98by5h1gpuv99my",454,"173.csv","","null","resources/images/coin2.png","null","",NA,NA,NA,NA,""
"image-keyboard-response",522,332545,"0.0-4.170-0.170","98by5h1gpuv99my",454,"173.csv","","157.39999999990687","resources/trios/L4T2A3.jpg","38","restless",0.6,0.5,0.5,0.304669056867745,"true"
"image-keyboard-response",523,332963,"0.0-4.170-1.170","98by5h1gpuv99my",454,"173.csv","","null","resources/maskTrios/BT2B.jpg","null","",NA,NA,NA,NA,""
"image-keyboard-response",524,334174,"0.0-4.170-2.170","98by5h1gpuv99my",454,"173.csv","","null","resources/images/coin2.png","null","",NA,NA,NA,NA,""
"image-keyboard-response",525,334361,"0.0-4.171-0.171","98by5h1gpuv99my",454,"173.csv","","185.5","resources/trios/L4T2A3.jpg","38","restless",0.6,0.5,0.5,0.897185670486741,"false"
"image-keyboard-response",526,334768,"0.0-4.171-1.171","98by5h1gpuv99my",454,"173.csv","","null","resources/maskTrios/BT2B.jpg","null","",NA,NA,NA,NA,""
"image-keyboard-response",527,335970,"0.0-4.171-2.171","98by5h1gpuv99my",454,"173.csv","","null","resources/images/fishbone.png","null","",NA,NA,NA,NA,""
"image-keyboard-response",528,336112,"0.0-4.172-0.172","98by5h1gpuv99my",454,"173.csv","","140.5","resources/trios/L4T2A3.jpg","39","restless",0.6,0.5,0.5,0.368433281095617,"true"
"image-keyboard-response",529,336528,"0.0-4.172-1.172","98by5h1gpuv99my",454,"173.csv","","null","resources/maskTrios/BBA3.jpg","null","",NA,NA,NA,NA,""
"image-keyboard-response",530,337746,"0.0-4.172-2.172","98by5h1gpuv99my",454,"173.csv","","null","resources/images/coin2.png","null","",NA,NA,NA,NA,""
"image-keyboard-response",531,337810,"0.0-4.173-0.173","98by5h1gpuv99my",454,"173.csv","","63.60000000009313","resources/trios/L4T2A3.jpg","39","restless",0.6,0.5,0.5,0.852437617334729,"false"
"image-keyboard-response",532,338214,"0.0-4.173-1.173","98by5h1gpuv99my",454,"173.csv","","null","resources/maskTrios/BBA3.jpg","null","",NA,NA,NA,NA,""
"image-keyboard-response",533,339417,"0.0-4.173-2.173","98by5h1gpuv99my",454,"173.csv","","null","resources/images/fishbone.png","null","",NA,NA,NA,NA,""
"image-keyboard-response",534,339420,"0.0-4.174-0.174","98by5h1gpuv99my",454,"173.csv","","1.3999999999068677","resources/trios/L4T2A3.jpg","37","restless",0.6,0.5,0.5,0.607084949689099,"false"
"image-keyboard-response",535,339822,"0.0-4.174-1.174","98by5h1gpuv99my",454,"173.csv","","null","resources/maskTrios/L4BB.jpg","null","",NA,NA,NA,NA,""
"image-keyboard-response",536,341027,"0.0-4.174-2.174","98by5h1gpuv99my",454,"173.csv","","null","resources/images/fishbone.png","null","",NA,NA,NA,NA,""
"image-keyboard-response",537,341231,"0.0-4.175-0.175","98by5h1gpuv99my",454,"173.csv","","202.5","resources/trios/L4T2A3.jpg","37","restless",0.7,0.6,0.5,0.615577984442444,"true"
"image-keyboard-response",538,341635,"0.0-4.175-1.175","98by5h1gpuv99my",454,"173.csv","","null","resources/maskTrios/L4BB.jpg","null","",NA,NA,NA,NA,""
"image-keyboard-response",539,342847,"0.0-4.175-2.175","98by5h1gpuv99my",454,"173.csv","","null","resources/images/coin2.png","null","",NA,NA,NA,NA,""
"image-keyboard-response",540,342958,"0.0-4.176-0.176","98by5h1gpuv99my",454,"173.csv","","109.5","resources/trios/L4T2A3.jpg","37","restless",0.7,0.5,0.5,0.766438094910936,"false"
"image-keyboard-response",541,343359,"0.0-4.176-1.176","98by5h1gpuv99my",454,"173.csv","","null","resources/maskTrios/L4BB.jpg","null","",NA,NA,NA,NA,""
"image-keyboard-response",542,344563,"0.0-4.176-2.176","98by5h1gpuv99my",454,"173.csv","","null","resources/images/fishbone.png","null","",NA,NA,NA,NA,""
"image-keyboard-response",543,344706,"0.0-4.177-0.177","98by5h1gpuv99my",454,"173.csv","","142.20000000018626","resources/trios/L4T2A3.jpg","39","restless",0.7,0.6,0.5,0.229130679839526,"true"
"image-keyboard-response",544,345109,"0.0-4.177-1.177","98by5h1gpuv99my",454,"173.csv","","null","resources/maskTrios/BBA3.jpg","null","",NA,NA,NA,NA,""
"image-keyboard-response",545,346325,"0.0-4.177-2.177","98by5h1gpuv99my",454,"173.csv","","null","resources/images/coin2.png","null","",NA,NA,NA,NA,""
"image-keyboard-response",546,346390,"0.0-4.178-0.178","98by5h1gpuv99my",454,"173.csv","","63.200000000186265","resources/trios/L4T2A3.jpg","39","restless",0.7,0.6,0.5,0.286307607632388,"true"
"image-keyboard-response",547,346793,"0.0-4.178-1.178","98by5h1gpuv99my",454,"173.csv","","null","resources/maskTrios/BBA3.jpg","null","",NA,NA,NA,NA,""
"image-keyboard-response",548,347999,"0.0-4.178-2.178","98by5h1gpuv99my",454,"173.csv","","null","resources/images/coin2.png","null","",NA,NA,NA,NA,""
"image-keyboard-response",549,348186,"0.0-4.179-0.179","98by5h1gpuv99my",454,"173.csv","","186.29999999981374","resources/trios/L4T2A3.jpg","39","restless",0.7,0.6,0.5,0.966542767890701,"false"
"image-keyboard-response",550,348591,"0.0-4.179-1.179","98by5h1gpuv99my",454,"173.csv","","null","resources/maskTrios/BBA3.jpg","null","",NA,NA,NA,NA,""
"image-keyboard-response",551,349804,"0.0-4.179-2.179","98by5h1gpuv99my",454,"173.csv","","null","resources/images/fishbone.png","null","",NA,NA,NA,NA,""
"image-keyboard-response",552,349930,"0.0-4.180-0.180","98by5h1gpuv99my",454,"173.csv","","124.10000000009313","resources/trios/L4T2A3.jpg","39","restless",0.7,0.6,0.5,0.732598165575698,"false"
"image-keyboard-response",553,350346,"0.0-4.180-1.180","98by5h1gpuv99my",454,"173.csv","","null","resources/maskTrios/BBA3.jpg","null","",NA,NA,NA,NA,""
"image-keyboard-response",554,351561,"0.0-4.180-2.180","98by5h1gpuv99my",454,"173.csv","","null","resources/images/fishbone.png","null","",NA,NA,NA,NA,""
"image-keyboard-response",555,351642,"0.0-4.181-0.181","98by5h1gpuv99my",454,"173.csv","","79.10000000009313","resources/trios/L4T2A3.jpg","38","restless",0.7,0.6,0.5,0.45834549135217,"true"
"image-keyboard-response",556,352044,"0.0-4.181-1.181","98by5h1gpuv99my",454,"173.csv","","null","resources/maskTrios/BT2B.jpg","null","",NA,NA,NA,NA,""
"image-keyboard-response",557,353255,"0.0-4.181-2.181","98by5h1gpuv99my",454,"173.csv","","null","resources/images/coin2.png","null","",NA,NA,NA,NA,""
"image-keyboard-response",558,353320,"0.0-4.182-0.182","98by5h1gpuv99my",454,"173.csv","","63.39999999990687","resources/trios/L4T2A3.jpg","38","restless",0.7,0.5,0.5,0.173227313313409,"true"
"image-keyboard-response",559,353722,"0.0-4.182-1.182","98by5h1gpuv99my",454,"173.csv","","null","resources/maskTrios/BT2B.jpg","null","",NA,NA,NA,NA,""
"image-keyboard-response",560,354938,"0.0-4.182-2.182","98by5h1gpuv99my",454,"173.csv","","null","resources/images/coin2.png","null","",NA,NA,NA,NA,""
"image-keyboard-response",561,355063,"0.0-4.183-0.183","98by5h1gpuv99my",454,"173.csv","","124.39999999990687","resources/trios/L4T2A3.jpg","38","restless",0.7,0.5,0.5,0.3268881717178,"true"
"image-keyboard-response",562,355468,"0.0-4.183-1.183","98by5h1gpuv99my",454,"173.csv","","null","resources/maskTrios/BT2B.jpg","null","",NA,NA,NA,NA,""
"image-keyboard-response",563,356676,"0.0-4.183-2.183","98by5h1gpuv99my",454,"173.csv","","null","resources/images/coin2.png","null","",NA,NA,NA,NA,""
"image-keyboard-response",564,356708,"0.0-4.184-0.184","98by5h1gpuv99my",454,"173.csv","","31.300000000279397","resources/trios/L4T2A3.jpg","38","restless",0.7,0.5,0.5,0.771244786999231,"false"
"image-keyboard-response",565,357122,"0.0-4.184-1.184","98by5h1gpuv99my",454,"173.csv","","null","resources/maskTrios/BT2B.jpg","null","",NA,NA,NA,NA,""
"image-keyboard-response",566,358337,"0.0-4.184-2.184","98by5h1gpuv99my",454,"173.csv","","null","resources/images/fishbone.png","null","",NA,NA,NA,NA,""
"image-keyboard-response",567,358356,"0.0-4.185-0.185","98by5h1gpuv99my",454,"173.csv","","18.800000000279397","resources/trios/L4T2A3.jpg","38","restless",0.7,0.5,0.5,0.834881313110782,"false"
"image-keyboard-response",568,358773,"0.0-4.185-1.185","98by5h1gpuv99my",454,"173.csv","","null","resources/maskTrios/BT2B.jpg","null","",NA,NA,NA,NA,""
"image-keyboard-response",569,359989,"0.0-4.185-2.185","98by5h1gpuv99my",454,"173.csv","","null","resources/images/fishbone.png","null","",NA,NA,NA,NA,""
"image-keyboard-response",570,360085,"0.0-4.186-0.186","98by5h1gpuv99my",454,"173.csv","","93.89999999990687","resources/trios/L4T2A3.jpg","37","restless",0.7,0.5,0.4,0.477492906385975,"true"
"image-keyboard-response",571,360489,"0.0-4.186-1.186","98by5h1gpuv99my",454,"173.csv","","null","resources/maskTrios/L4BB.jpg","null","",NA,NA,NA,NA,""
"image-keyboard-response",572,361704,"0.0-4.186-2.186","98by5h1gpuv99my",454,"173.csv","","null","resources/images/coin2.png","null","",NA,NA,NA,NA,""
"image-keyboard-response",573,361738,"0.0-4.187-0.187","98by5h1gpuv99my",454,"173.csv","","33.200000000186265","resources/trios/L4T2A3.jpg","37","restless",0.7,0.4,0.5,0.935290261493352,"false"
"image-keyboard-response",574,362142,"0.0-4.187-1.187","98by5h1gpuv99my",454,"173.csv","","null","resources/maskTrios/L4BB.jpg","null","",NA,NA,NA,NA,""
"image-keyboard-response",575,363355,"0.0-4.187-2.187","98by5h1gpuv99my",454,"173.csv","","null","resources/images/fishbone.png","null","",NA,NA,NA,NA,""
"image-keyboard-response",576,363496,"0.0-4.188-0.188","98by5h1gpuv99my",454,"173.csv","","139.10000000009313","resources/trios/L4T2A3.jpg","38","restless",0.7,0.4,0.5,0.280765971070122,"true"
"image-keyboard-response",577,363899,"0.0-4.188-1.188","98by5h1gpuv99my",454,"173.csv","","null","resources/maskTrios/BT2B.jpg","null","",NA,NA,NA,NA,""
"image-keyboard-response",578,365115,"0.0-4.188-2.188","98by5h1gpuv99my",454,"173.csv","","null","resources/images/coin2.png","null","",NA,NA,NA,NA,""
"image-keyboard-response",579,365320,"0.0-4.189-0.189","98by5h1gpuv99my",454,"173.csv","","203.3000000002794","resources/trios/L4T2A3.jpg","38","restless",0.7,0.4,0.5,0.532107152709093,"false"
"image-keyboard-response",580,365722,"0.0-4.189-1.189","98by5h1gpuv99my",454,"173.csv","","null","resources/maskTrios/BT2B.jpg","null","",NA,NA,NA,NA,""
"image-keyboard-response",581,366936,"0.0-4.189-2.189","98by5h1gpuv99my",454,"173.csv","","null","resources/images/fishbone.png","null","",NA,NA,NA,NA,""
"image-keyboard-response",582,367093,"0.0-4.190-0.190","98by5h1gpuv99my",454,"173.csv","","155.89999999990687","resources/trios/L4T2A3.jpg","38","restless",0.7,0.4,0.5,0.991413689229345,"false"
"image-keyboard-response",583,367496,"0.0-4.190-1.190","98by5h1gpuv99my",454,"173.csv","","null","resources/maskTrios/BT2B.jpg","null","",NA,NA,NA,NA,""
"image-keyboard-response",584,368711,"0.0-4.190-2.190","98by5h1gpuv99my",454,"173.csv","","null","resources/images/fishbone.png","null","",NA,NA,NA,NA,""
"image-keyboard-response",585,368884,"0.0-4.191-0.191","98by5h1gpuv99my",454,"173.csv","","170.6999999997206","resources/trios/L4T2A3.jpg","37","restless",0.7,0.4,0.5,0.680629947280774,"true"
"image-keyboard-response",586,369287,"0.0-4.191-1.191","98by5h1gpuv99my",454,"173.csv","","null","resources/maskTrios/L4BB.jpg","null","",NA,NA,NA,NA,""
"image-keyboard-response",587,370490,"0.0-4.191-2.191","98by5h1gpuv99my",454,"173.csv","","null","resources/images/coin2.png","null","",NA,NA,NA,NA,""
"image-keyboard-response",588,370708,"0.0-4.192-0.192","98by5h1gpuv99my",454,"173.csv","","217.40000000037253","resources/trios/L4T2A3.jpg","37","restless",0.6,0.4,0.5,0.745964070961823,"false"
"image-keyboard-response",589,371114,"0.0-4.192-1.192","98by5h1gpuv99my",454,"173.csv","","null","resources/maskTrios/L4BB.jpg","null","",NA,NA,NA,NA,""
"image-keyboard-response",590,372318,"0.0-4.192-2.192","98by5h1gpuv99my",454,"173.csv","","null","resources/images/fishbone.png","null","",NA,NA,NA,NA,""
"image-keyboard-response",591,372475,"0.0-4.193-0.193","98by5h1gpuv99my",454,"173.csv","","155.79999999981374","resources/trios/L4T2A3.jpg","39","restless",0.6,0.4,0.5,0.807492152111583,"false"
"image-keyboard-response",592,372877,"0.0-4.193-1.193","98by5h1gpuv99my",454,"173.csv","","null","resources/maskTrios/BBA3.jpg","null","",NA,NA,NA,NA,""
"image-keyboard-response",593,374079,"0.0-4.193-2.193","98by5h1gpuv99my",454,"173.csv","","null","resources/images/fishbone.png","null","",NA,NA,NA,NA,""
"image-keyboard-response",594,374159,"0.0-4.194-0.194","98by5h1gpuv99my",454,"173.csv","","78.39999999990687","resources/trios/L4T2A3.jpg","38","restless",0.6,0.4,0.6,0.741987112248468,"false"
"image-keyboard-response",595,374575,"0.0-4.194-1.194","98by5h1gpuv99my",454,"173.csv","","null","resources/maskTrios/BT2B.jpg","null","",NA,NA,NA,NA,""
"image-keyboard-response",596,375791,"0.0-4.194-2.194","98by5h1gpuv99my",454,"173.csv","","null","resources/images/fishbone.png","null","",NA,NA,NA,NA,""
"image-keyboard-response",597,375963,"0.0-4.195-0.195","98by5h1gpuv99my",454,"173.csv","","171.09999999962747","resources/trios/L4T2A3.jpg","38","restless",0.6,0.5,0.6,0.880760738802306,"false"
"image-keyboard-response",598,376365,"0.0-4.195-1.195","98by5h1gpuv99my",454,"173.csv","","null","resources/maskTrios/BT2B.jpg","null","",NA,NA,NA,NA,""
"image-keyboard-response",599,377571,"0.0-4.195-2.195","98by5h1gpuv99my",454,"173.csv","","null","resources/images/fishbone.png","null","",NA,NA,NA,NA,""
"image-keyboard-response",600,377603,"0.0-4.196-0.196","98by5h1gpuv99my",454,"173.csv","","31","resources/trios/L4T2A3.jpg","37","restless",0.6,0.5,0.6,0.978840522658403,"false"
"image-keyboard-response",601,378020,"0.0-4.196-1.196","98by5h1gpuv99my",454,"173.csv","","null","resources/maskTrios/L4BB.jpg","null","",NA,NA,NA,NA,""
"image-keyboard-response",602,379228,"0.0-4.196-2.196","98by5h1gpuv99my",454,"173.csv","","null","resources/images/fishbone.png","null","",NA,NA,NA,NA,""
"image-keyboard-response",603,379275,"0.0-4.197-0.197","98by5h1gpuv99my",454,"173.csv","","46.39999999990687","resources/trios/L4T2A3.jpg","37","restless",0.6,0.5,0.6,0.741942399298002,"false"
"image-keyboard-response",604,379680,"0.0-4.197-1.197","98by5h1gpuv99my",454,"173.csv","","null","resources/maskTrios/L4BB.jpg","null","",NA,NA,NA,NA,""
"image-keyboard-response",605,380883,"0.0-4.197-2.197","98by5h1gpuv99my",454,"173.csv","","null","resources/images/fishbone.png","null","",NA,NA,NA,NA,""
"image-keyboard-response",606,380963,"0.0-4.198-0.198","98by5h1gpuv99my",454,"173.csv","","77.6999999997206","resources/trios/L4T2A3.jpg","38","restless",0.6,0.5,0.6,0.131772359011627,"true"
"image-keyboard-response",607,381365,"0.0-4.198-1.198","98by5h1gpuv99my",454,"173.csv","","null","resources/maskTrios/BT2B.jpg","null","",NA,NA,NA,NA,""
"image-keyboard-response",608,382576,"0.0-4.198-2.198","98by5h1gpuv99my",454,"173.csv","","null","resources/images/coin2.png","null","",NA,NA,NA,NA,""
