"trial_type","trial_index","time_elapsed","internal_node_id","subject","participantCode","walkNumber","success","rt","stimulus","key_press","test_part","leftProb","midProb","rightProb","generatedNum","correct"
"pavlovia",0,1222,"0.0-0.0","ds8h3zx340twnzm",43,"188.csv","","","","","",NA,NA,NA,NA,""
"fullscreen",1,3798,"0.0-1.0","ds8h3zx340twnzm",43,"188.csv","true","","","","",NA,NA,NA,NA,""
"survey-html-form",2,16225,"0.0-2.0","ds8h3zx340twnzm",43,"188.csv","","12422.39999999106","","","",NA,NA,NA,NA,""
"image-keyboard-response",3,23953,"0.0-3.0-0.0","ds8h3zx340twnzm",43,"188.csv","","7725.699999988079","resources/images/parrot_nobg.png","13","",NA,NA,NA,NA,""
"image-keyboard-response",4,26958,"0.0-3.0-1.0","ds8h3zx340twnzm",43,"188.csv","","null","resources/image_sets/111.png","null","",NA,NA,NA,NA,""
"image-keyboard-response",5,29147,"0.0-3.0-2.0","ds8h3zx340twnzm",43,"188.csv","","2188.1000000089407","resources/image_sets/left_highlight.png","37","",NA,NA,NA,NA,""
"image-keyboard-response",6,31078,"0.0-3.0-3.0","ds8h3zx340twnzm",43,"188.csv","","1928.9000000059605","resources/image_sets/mid_highlight.png","38","",NA,NA,NA,NA,""
"image-keyboard-response",7,32419,"0.0-3.0-4.0","ds8h3zx340twnzm",43,"188.csv","","1340.2999999970198","resources/image_sets/right_highlight.png","39","",NA,NA,NA,NA,""
"image-keyboard-response",8,34082,"0.0-3.0-5.0","ds8h3zx340twnzm",43,"188.csv","","1662.0999999940395","resources/image_sets/111.png","13","",NA,NA,NA,NA,""
"image-keyboard-response",9,35735,"0.0-3.0-6.0","ds8h3zx340twnzm",43,"188.csv","","1652","resources/images/coin2.png","13","",NA,NA,NA,NA,""
"image-keyboard-response",10,37039,"0.0-3.0-7.0","ds8h3zx340twnzm",43,"188.csv","","1303.1000000089407","resources/images/fishbone.png","13","",NA,NA,NA,NA,""
"html-keyboard-response",11,39251,"0.0-3.0-8.0","ds8h3zx340twnzm",43,"188.csv","","2210.800000011921","<p>You can track your coin total on the top right of your screen. </p><p>At the end of your journey you will be directed to a survey, so please click on the link before exiting the task</p><p>Press Enter to begin</p>","13","",NA,NA,NA,NA,""
"image-keyboard-response",12,40221,"0.0-4.0-0.0","ds8h3zx340twnzm",43,"188.csv","","969.2000000029802","resources/trios/L1T4A3.jpg","37","restless",0.9,0.7,0.3,0.807133626205001,"true"
"image-keyboard-response",13,40630,"0.0-4.0-1.0","ds8h3zx340twnzm",43,"188.csv","","null","resources/maskTrios/L1BB.jpg","null","",NA,NA,NA,NA,""
"image-keyboard-response",14,41845,"0.0-4.0-2.0","ds8h3zx340twnzm",43,"188.csv","","null","resources/images/coin2.png","null","",NA,NA,NA,NA,""
"image-keyboard-response",15,42898,"0.0-4.1-0.1","ds8h3zx340twnzm",43,"188.csv","","1050.7000000029802","resources/trios/L1T4A3.jpg","38","restless",0.9,0.7,0.3,0.627246901929353,"true"
"image-keyboard-response",16,43311,"0.0-4.1-1.1","ds8h3zx340twnzm",43,"188.csv","","null","resources/maskTrios/BT4B.jpg","null","",NA,NA,NA,NA,""
"image-keyboard-response",17,44516,"0.0-4.1-2.1","ds8h3zx340twnzm",43,"188.csv","","null","resources/images/coin2.png","null","",NA,NA,NA,NA,""
"image-keyboard-response",18,44888,"0.0-4.2-0.2","ds8h3zx340twnzm",43,"188.csv","","370.5","resources/trios/L1T4A3.jpg","37","restless",0.9,0.7,0.3,0.828692981798856,"true"
"image-keyboard-response",19,45294,"0.0-4.2-1.2","ds8h3zx340twnzm",43,"188.csv","","null","resources/maskTrios/L1BB.jpg","null","",NA,NA,NA,NA,""
"image-keyboard-response",20,46498,"0.0-4.2-2.2","ds8h3zx340twnzm",43,"188.csv","","null","resources/images/coin2.png","null","",NA,NA,NA,NA,""
"image-keyboard-response",21,49863,"0.0-4.3-0.3","ds8h3zx340twnzm",43,"188.csv","","3363.9000000059605","resources/trios/L1T4A3.jpg","39","restless",0.9,0.7,0.3,0.970746066541434,"false"
"image-keyboard-response",22,50281,"0.0-4.3-1.3","ds8h3zx340twnzm",43,"188.csv","","null","resources/maskTrios/BBA3.jpg","null","",NA,NA,NA,NA,""
"image-keyboard-response",23,51497,"0.0-4.3-2.3","ds8h3zx340twnzm",43,"188.csv","","null","resources/images/fishbone.png","null","",NA,NA,NA,NA,""
"image-keyboard-response",24,57525,"0.0-4.4-0.4","ds8h3zx340twnzm",43,"188.csv","","6025.899999991059","resources/trios/L1T4A3.jpg","37","restless",0.9,0.7,0.3,0.584129136119072,"true"
"image-keyboard-response",25,57932,"0.0-4.4-1.4","ds8h3zx340twnzm",43,"188.csv","","null","resources/maskTrios/L1BB.jpg","null","",NA,NA,NA,NA,""
"image-keyboard-response",26,59149,"0.0-4.4-2.4","ds8h3zx340twnzm",43,"188.csv","","null","resources/images/coin2.png","null","",NA,NA,NA,NA,""
"image-keyboard-response",27,59851,"0.0-4.5-0.5","ds8h3zx340twnzm",43,"188.csv","","700.7999999970198","resources/trios/L1T4A3.jpg","37","restless",0.9,0.7,0.3,0.47829399940426,"true"
"image-keyboard-response",28,60264,"0.0-4.5-1.5","ds8h3zx340twnzm",43,"188.csv","","null","resources/maskTrios/L1BB.jpg","null","",NA,NA,NA,NA,""
"image-keyboard-response",29,61477,"0.0-4.5-2.5","ds8h3zx340twnzm",43,"188.csv","","null","resources/images/coin2.png","null","",NA,NA,NA,NA,""
"image-keyboard-response",30,61850,"0.0-4.6-0.6","ds8h3zx340twnzm",43,"188.csv","","371","resources/trios/L1T4A3.jpg","39","restless",0.9,0.7,0.2,0.988841863452995,"false"
"image-keyboard-response",31,62262,"0.0-4.6-1.6","ds8h3zx340twnzm",43,"188.csv","","null","resources/maskTrios/BBA3.jpg","null","",NA,NA,NA,NA,""
"image-keyboard-response",32,63474,"0.0-4.6-2.6","ds8h3zx340twnzm",43,"188.csv","","null","resources/images/fishbone.png","null","",NA,NA,NA,NA,""
"image-keyboard-response",33,63968,"0.0-4.7-0.7","ds8h3zx340twnzm",43,"188.csv","","493.1000000089407","resources/trios/L1T4A3.jpg","38","restless",0.9,0.7,0.2,0.514750831552554,"true"
"image-keyboard-response",34,64383,"0.0-4.7-1.7","ds8h3zx340twnzm",43,"188.csv","","null","resources/maskTrios/BT4B.jpg","null","",NA,NA,NA,NA,""
"image-keyboard-response",35,65600,"0.0-4.7-2.7","ds8h3zx340twnzm",43,"188.csv","","null","resources/images/coin2.png","null","",NA,NA,NA,NA,""
"image-keyboard-response",36,66095,"0.0-4.8-0.8","ds8h3zx340twnzm",43,"188.csv","","494","resources/trios/L1T4A3.jpg","38","restless",0.9,0.7,0.2,0.384016287222704,"true"
"image-keyboard-response",37,66498,"0.0-4.8-1.8","ds8h3zx340twnzm",43,"188.csv","","null","resources/maskTrios/BT4B.jpg","null","",NA,NA,NA,NA,""
"image-keyboard-response",38,67709,"0.0-4.8-2.8","ds8h3zx340twnzm",43,"188.csv","","null","resources/images/coin2.png","null","",NA,NA,NA,NA,""
"image-keyboard-response",39,68091,"0.0-4.9-0.9","ds8h3zx340twnzm",43,"188.csv","","381.1000000089407","resources/trios/L1T4A3.jpg","37","restless",0.9,0.7,0.2,0.212085031046957,"true"
"image-keyboard-response",40,68493,"0.0-4.9-1.9","ds8h3zx340twnzm",43,"188.csv","","null","resources/maskTrios/L1BB.jpg","null","",NA,NA,NA,NA,""
"image-keyboard-response",41,69696,"0.0-4.9-2.9","ds8h3zx340twnzm",43,"188.csv","","null","resources/images/coin2.png","null","",NA,NA,NA,NA,""
"image-keyboard-response",42,70462,"0.0-4.10-0.10","ds8h3zx340twnzm",43,"188.csv","","764.9000000059605","resources/trios/L1T4A3.jpg","38","restless",0.9,0.7,0.2,0.0879158881717494,"true"
"image-keyboard-response",43,70880,"0.0-4.10-1.10","ds8h3zx340twnzm",43,"188.csv","","null","resources/maskTrios/BT4B.jpg","null","",NA,NA,NA,NA,""
"image-keyboard-response",44,72100,"0.0-4.10-2.10","ds8h3zx340twnzm",43,"188.csv","","null","resources/images/coin2.png","null","",NA,NA,NA,NA,""
"image-keyboard-response",45,72417,"0.0-4.11-0.11","ds8h3zx340twnzm",43,"188.csv","","316.79999999701977","resources/trios/L1T4A3.jpg","39","restless",0.9,0.7,0.2,0.546762791459914,"false"
"image-keyboard-response",46,72827,"0.0-4.11-1.11","ds8h3zx340twnzm",43,"188.csv","","null","resources/maskTrios/BBA3.jpg","null","",NA,NA,NA,NA,""
"image-keyboard-response",47,74043,"0.0-4.11-2.11","ds8h3zx340twnzm",43,"188.csv","","null","resources/images/fishbone.png","null","",NA,NA,NA,NA,""
"image-keyboard-response",48,74271,"0.0-4.12-0.12","ds8h3zx340twnzm",43,"188.csv","","226.79999999701977","resources/trios/L1T4A3.jpg","37","restless",0.9,0.7,0.2,0.943127795745722,"false"
"image-keyboard-response",49,74674,"0.0-4.12-1.12","ds8h3zx340twnzm",43,"188.csv","","null","resources/maskTrios/L1BB.jpg","null","",NA,NA,NA,NA,""
"image-keyboard-response",50,75884,"0.0-4.12-2.12","ds8h3zx340twnzm",43,"188.csv","","null","resources/images/fishbone.png","null","",NA,NA,NA,NA,""
"image-keyboard-response",51,76165,"0.0-4.13-0.13","ds8h3zx340twnzm",43,"188.csv","","279.79999999701977","resources/trios/L1T4A3.jpg","38","restless",0.9,0.7,0.3,0.00427593096574452,"true"
"image-keyboard-response",52,76574,"0.0-4.13-1.13","ds8h3zx340twnzm",43,"188.csv","","null","resources/maskTrios/BT4B.jpg","null","",NA,NA,NA,NA,""
"image-keyboard-response",53,77790,"0.0-4.13-2.13","ds8h3zx340twnzm",43,"188.csv","","null","resources/images/coin2.png","null","",NA,NA,NA,NA,""
"image-keyboard-response",54,77814,"0.0-4.14-0.14","ds8h3zx340twnzm",43,"188.csv","","23","resources/trios/L1T4A3.jpg","38","restless",0.9,0.8,0.3,0.141893220632086,"true"
"image-keyboard-response",55,78228,"0.0-4.14-1.14","ds8h3zx340twnzm",43,"188.csv","","null","resources/maskTrios/BT4B.jpg","null","",NA,NA,NA,NA,""
"image-keyboard-response",56,79442,"0.0-4.14-2.14","ds8h3zx340twnzm",43,"188.csv","","null","resources/images/coin2.png","null","",NA,NA,NA,NA,""
"image-keyboard-response",57,79723,"0.0-4.15-0.15","ds8h3zx340twnzm",43,"188.csv","","280.79999999701977","resources/trios/L1T4A3.jpg","38","restless",0.9,0.8,0.3,0.430209729396595,"true"
"image-keyboard-response",58,80132,"0.0-4.15-1.15","ds8h3zx340twnzm",43,"188.csv","","null","resources/maskTrios/BT4B.jpg","null","",NA,NA,NA,NA,""
"image-keyboard-response",59,81345,"0.0-4.15-2.15","ds8h3zx340twnzm",43,"188.csv","","null","resources/images/coin2.png","null","",NA,NA,NA,NA,""
"image-keyboard-response",60,81565,"0.0-4.16-0.16","ds8h3zx340twnzm",43,"188.csv","","214.90000000596046","resources/trios/L1T4A3.jpg","37","restless",0.9,0.8,0.4,0.0610650092028422,"true"
"image-keyboard-response",61,81979,"0.0-4.16-1.16","ds8h3zx340twnzm",43,"188.csv","","null","resources/maskTrios/L1BB.jpg","null","",NA,NA,NA,NA,""
"image-keyboard-response",62,83197,"0.0-4.16-2.16","ds8h3zx340twnzm",43,"188.csv","","null","resources/images/coin2.png","null","",NA,NA,NA,NA,""
"image-keyboard-response",63,83410,"0.0-4.17-0.17","ds8h3zx340twnzm",43,"188.csv","","211.5","resources/trios/L1T4A3.jpg","39","restless",0.9,0.8,0.4,0.669263827069189,"false"
"image-keyboard-response",64,83825,"0.0-4.17-1.17","ds8h3zx340twnzm",43,"188.csv","","null","resources/maskTrios/BBA3.jpg","null","",NA,NA,NA,NA,""
"image-keyboard-response",65,85029,"0.0-4.17-2.17","ds8h3zx340twnzm",43,"188.csv","","null","resources/images/fishbone.png","null","",NA,NA,NA,NA,""
"image-keyboard-response",66,86228,"0.0-4.18-0.18","ds8h3zx340twnzm",43,"188.csv","","1197.6000000089407","resources/trios/L1T4A3.jpg","39","restless",0.9,0.8,0.4,0.750508166651807,"false"
"image-keyboard-response",67,86651,"0.0-4.18-1.18","ds8h3zx340twnzm",43,"188.csv","","null","resources/maskTrios/BBA3.jpg","null","",NA,NA,NA,NA,""
"image-keyboard-response",68,87856,"0.0-4.18-2.18","ds8h3zx340twnzm",43,"188.csv","","null","resources/images/fishbone.png","null","",NA,NA,NA,NA,""
"image-keyboard-response",69,88889,"0.0-4.19-0.19","ds8h3zx340twnzm",43,"188.csv","","1032.2000000029802","resources/trios/L1T4A3.jpg","37","restless",0.9,0.8,0.4,0.602895442469637,"true"
"image-keyboard-response",70,89304,"0.0-4.19-1.19","ds8h3zx340twnzm",43,"188.csv","","null","resources/maskTrios/L1BB.jpg","null","",NA,NA,NA,NA,""
"image-keyboard-response",71,90509,"0.0-4.19-2.19","ds8h3zx340twnzm",43,"188.csv","","null","resources/images/coin2.png","null","",NA,NA,NA,NA,""
"image-keyboard-response",72,90758,"0.0-4.20-0.20","ds8h3zx340twnzm",43,"188.csv","","248.59999999403954","resources/trios/L1T4A3.jpg","38","restless",0.8,0.8,0.4,0.953012740197783,"false"
"image-keyboard-response",73,91164,"0.0-4.20-1.20","ds8h3zx340twnzm",43,"188.csv","","null","resources/maskTrios/BT4B.jpg","null","",NA,NA,NA,NA,""
"image-keyboard-response",74,92379,"0.0-4.20-2.20","ds8h3zx340twnzm",43,"188.csv","","null","resources/images/fishbone.png","null","",NA,NA,NA,NA,""
"image-keyboard-response",75,92613,"0.0-4.21-0.21","ds8h3zx340twnzm",43,"188.csv","","233.70000000298023","resources/trios/L1T4A3.jpg","37","restless",0.8,0.8,0.4,0.414138769326455,"true"
"image-keyboard-response",76,93024,"0.0-4.21-1.21","ds8h3zx340twnzm",43,"188.csv","","null","resources/maskTrios/L1BB.jpg","null","",NA,NA,NA,NA,""
"image-keyboard-response",77,94228,"0.0-4.21-2.21","ds8h3zx340twnzm",43,"188.csv","","null","resources/images/coin2.png","null","",NA,NA,NA,NA,""
"image-keyboard-response",78,94553,"0.0-4.22-0.22","ds8h3zx340twnzm",43,"188.csv","","323.8999999910593","resources/trios/L1T4A3.jpg","39","restless",0.8,0.8,0.4,0.325254082438261,"true"
"image-keyboard-response",79,94955,"0.0-4.22-1.22","ds8h3zx340twnzm",43,"188.csv","","null","resources/maskTrios/BBA3.jpg","null","",NA,NA,NA,NA,""
"image-keyboard-response",80,96160,"0.0-4.22-2.22","ds8h3zx340twnzm",43,"188.csv","","null","resources/images/coin2.png","null","",NA,NA,NA,NA,""
"image-keyboard-response",81,96395,"0.0-4.23-0.23","ds8h3zx340twnzm",43,"188.csv","","234.40000000596046","resources/trios/L1T4A3.jpg","37","restless",0.8,0.8,0.4,0.709162032692273,"true"
"image-keyboard-response",82,96806,"0.0-4.23-1.23","ds8h3zx340twnzm",43,"188.csv","","null","resources/maskTrios/L1BB.jpg","null","",NA,NA,NA,NA,""
"image-keyboard-response",83,98024,"0.0-4.23-2.23","ds8h3zx340twnzm",43,"188.csv","","null","resources/images/coin2.png","null","",NA,NA,NA,NA,""
"image-keyboard-response",84,98227,"0.0-4.24-0.24","ds8h3zx340twnzm",43,"188.csv","","201.30000001192093","resources/trios/L1T4A3.jpg","38","restless",0.8,0.8,0.4,0.337568786169032,"true"
"image-keyboard-response",85,98642,"0.0-4.24-1.24","ds8h3zx340twnzm",43,"188.csv","","null","resources/maskTrios/BT4B.jpg","null","",NA,NA,NA,NA,""
"image-keyboard-response",86,99860,"0.0-4.24-2.24","ds8h3zx340twnzm",43,"188.csv","","null","resources/images/coin2.png","null","",NA,NA,NA,NA,""
"image-keyboard-response",87,99905,"0.0-4.25-0.25","ds8h3zx340twnzm",43,"188.csv","","44","resources/trios/L1T4A3.jpg","37","restless",0.8,0.8,0.5,0.413776904198899,"true"
"image-keyboard-response",88,100322,"0.0-4.25-1.25","ds8h3zx340twnzm",43,"188.csv","","null","resources/maskTrios/L1BB.jpg","null","",NA,NA,NA,NA,""
"image-keyboard-response",89,101528,"0.0-4.25-2.25","ds8h3zx340twnzm",43,"188.csv","","null","resources/images/coin2.png","null","",NA,NA,NA,NA,""
"image-keyboard-response",90,101655,"0.0-4.26-0.26","ds8h3zx340twnzm",43,"188.csv","","126.20000000298023","resources/trios/L1T4A3.jpg","37","restless",0.8,0.8,0.5,0.538970157014893,"true"
"image-keyboard-response",91,102072,"0.0-4.26-1.26","ds8h3zx340twnzm",43,"188.csv","","null","resources/maskTrios/L1BB.jpg","null","",NA,NA,NA,NA,""
"image-keyboard-response",92,103278,"0.0-4.26-2.26","ds8h3zx340twnzm",43,"188.csv","","null","resources/images/coin2.png","null","",NA,NA,NA,NA,""
"image-keyboard-response",93,103467,"0.0-4.27-0.27","ds8h3zx340twnzm",43,"188.csv","","187.29999999701977","resources/trios/L1T4A3.jpg","37","restless",0.8,0.9,0.5,0.591317533564737,"true"
"image-keyboard-response",94,103872,"0.0-4.27-1.27","ds8h3zx340twnzm",43,"188.csv","","null","resources/maskTrios/L1BB.jpg","null","",NA,NA,NA,NA,""
"image-keyboard-response",95,105077,"0.0-4.27-2.27","ds8h3zx340twnzm",43,"188.csv","","null","resources/images/coin2.png","null","",NA,NA,NA,NA,""
"image-keyboard-response",96,105265,"0.0-4.28-0.28","ds8h3zx340twnzm",43,"188.csv","","185.40000000596046","resources/trios/L1T4A3.jpg","37","restless",0.8,0.9,0.5,0.217811227391629,"true"
"image-keyboard-response",97,105678,"0.0-4.28-1.28","ds8h3zx340twnzm",43,"188.csv","","null","resources/maskTrios/L1BB.jpg","null","",NA,NA,NA,NA,""
"image-keyboard-response",98,106887,"0.0-4.28-2.28","ds8h3zx340twnzm",43,"188.csv","","null","resources/images/coin2.png","null","",NA,NA,NA,NA,""
"image-keyboard-response",99,107135,"0.0-4.29-0.29","ds8h3zx340twnzm",43,"188.csv","","245.5","resources/trios/L1T4A3.jpg","37","restless",0.8,0.9,0.5,0.636651141009139,"true"
"image-keyboard-response",100,107545,"0.0-4.29-1.29","ds8h3zx340twnzm",43,"188.csv","","null","resources/maskTrios/L1BB.jpg","null","",NA,NA,NA,NA,""
"image-keyboard-response",101,108763,"0.0-4.29-2.29","ds8h3zx340twnzm",43,"188.csv","","null","resources/images/coin2.png","null","",NA,NA,NA,NA,""
"image-keyboard-response",102,108858,"0.0-4.30-0.30","ds8h3zx340twnzm",43,"188.csv","","93.5","resources/trios/L1T4A3.jpg","37","restless",0.8,0.9,0.5,0.564468998073493,"true"
"image-keyboard-response",103,109264,"0.0-4.30-1.30","ds8h3zx340twnzm",43,"188.csv","","null","resources/maskTrios/L1BB.jpg","null","",NA,NA,NA,NA,""
"image-keyboard-response",104,110477,"0.0-4.30-2.30","ds8h3zx340twnzm",43,"188.csv","","null","resources/images/coin2.png","null","",NA,NA,NA,NA,""
"image-keyboard-response",105,110863,"0.0-4.31-0.31","ds8h3zx340twnzm",43,"188.csv","","385","resources/trios/L1T4A3.jpg","37","restless",0.8,0.9,0.5,0.377997092023136,"true"
"image-keyboard-response",106,111274,"0.0-4.31-1.31","ds8h3zx340twnzm",43,"188.csv","","null","resources/maskTrios/L1BB.jpg","null","",NA,NA,NA,NA,""
"image-keyboard-response",107,112478,"0.0-4.31-2.31","ds8h3zx340twnzm",43,"188.csv","","null","resources/images/coin2.png","null","",NA,NA,NA,NA,""
"image-keyboard-response",108,112679,"0.0-4.32-0.32","ds8h3zx340twnzm",43,"188.csv","","199.3999999910593","resources/trios/L1T4A3.jpg","37","restless",0.8,0.9,0.5,0.0946160644244023,"true"
"image-keyboard-response",109,113092,"0.0-4.32-1.32","ds8h3zx340twnzm",43,"188.csv","","null","resources/maskTrios/L1BB.jpg","null","",NA,NA,NA,NA,""
"image-keyboard-response",110,114311,"0.0-4.32-2.32","ds8h3zx340twnzm",43,"188.csv","","null","resources/images/coin2.png","null","",NA,NA,NA,NA,""
"image-keyboard-response",111,114411,"0.0-4.33-0.33","ds8h3zx340twnzm",43,"188.csv","","98.40000000596046","resources/trios/L1T4A3.jpg","37","restless",0.8,0.8,0.6,0.570024114159759,"true"
"image-keyboard-response",112,114825,"0.0-4.33-1.33","ds8h3zx340twnzm",43,"188.csv","","null","resources/maskTrios/L1BB.jpg","null","",NA,NA,NA,NA,""
"image-keyboard-response",113,116028,"0.0-4.33-2.33","ds8h3zx340twnzm",43,"188.csv","","null","resources/images/coin2.png","null","",NA,NA,NA,NA,""
"image-keyboard-response",114,116067,"0.0-4.34-0.34","ds8h3zx340twnzm",43,"188.csv","","37.79999999701977","resources/trios/L1T4A3.jpg","37","restless",0.8,0.8,0.6,0.958739808831491,"false"
"image-keyboard-response",115,116472,"0.0-4.34-1.34","ds8h3zx340twnzm",43,"188.csv","","null","resources/maskTrios/L1BB.jpg","null","",NA,NA,NA,NA,""
"image-keyboard-response",116,117678,"0.0-4.34-2.34","ds8h3zx340twnzm",43,"188.csv","","null","resources/images/fishbone.png","null","",NA,NA,NA,NA,""
"image-keyboard-response",117,117868,"0.0-4.35-0.35","ds8h3zx340twnzm",43,"188.csv","","189","resources/trios/L1T4A3.jpg","38","restless",0.8,0.8,0.6,0.150341429769544,"true"
"image-keyboard-response",118,118275,"0.0-4.35-1.35","ds8h3zx340twnzm",43,"188.csv","","null","resources/maskTrios/BT4B.jpg","null","",NA,NA,NA,NA,""
"image-keyboard-response",119,119490,"0.0-4.35-2.35","ds8h3zx340twnzm",43,"188.csv","","null","resources/images/coin2.png","null","",NA,NA,NA,NA,""
"image-keyboard-response",120,119493,"0.0-4.36-0.36","ds8h3zx340twnzm",43,"188.csv","","1.199999988079071","resources/trios/L1T4A3.jpg","38","restless",0.8,0.8,0.6,0.0333559920800479,"true"
"image-keyboard-response",121,119910,"0.0-4.36-1.36","ds8h3zx340twnzm",43,"188.csv","","null","resources/maskTrios/BT4B.jpg","null","",NA,NA,NA,NA,""
"image-keyboard-response",122,121128,"0.0-4.36-2.36","ds8h3zx340twnzm",43,"188.csv","","null","resources/images/coin2.png","null","",NA,NA,NA,NA,""
"image-keyboard-response",123,121180,"0.0-4.37-0.37","ds8h3zx340twnzm",43,"188.csv","","50.30000001192093","resources/trios/L1T4A3.jpg","38","restless",0.8,0.8,0.6,0.678160472446161,"true"
"image-keyboard-response",124,121592,"0.0-4.37-1.37","ds8h3zx340twnzm",43,"188.csv","","null","resources/maskTrios/BT4B.jpg","null","",NA,NA,NA,NA,""
"image-keyboard-response",125,122797,"0.0-4.37-2.37","ds8h3zx340twnzm",43,"188.csv","","null","resources/images/coin2.png","null","",NA,NA,NA,NA,""
"image-keyboard-response",126,122803,"0.0-4.38-0.38","ds8h3zx340twnzm",43,"188.csv","","4.799999997019768","resources/trios/L1T4A3.jpg","38","restless",0.8,0.7,0.6,0.342880631530338,"true"
"image-keyboard-response",127,123204,"0.0-4.38-1.38","ds8h3zx340twnzm",43,"188.csv","","null","resources/maskTrios/BT4B.jpg","null","",NA,NA,NA,NA,""
"image-keyboard-response",128,124410,"0.0-4.38-2.38","ds8h3zx340twnzm",43,"188.csv","","null","resources/images/coin2.png","null","",NA,NA,NA,NA,""
"image-keyboard-response",129,124747,"0.0-4.39-0.39","ds8h3zx340twnzm",43,"188.csv","","336","resources/trios/L1T4A3.jpg","38","restless",0.8,0.7,0.6,0.395347599007293,"true"
"image-keyboard-response",130,125156,"0.0-4.39-1.39","ds8h3zx340twnzm",43,"188.csv","","null","resources/maskTrios/BT4B.jpg","null","",NA,NA,NA,NA,""
"image-keyboard-response",131,126378,"0.0-4.39-2.39","ds8h3zx340twnzm",43,"188.csv","","null","resources/images/coin2.png","null","",NA,NA,NA,NA,""
"image-keyboard-response",132,126732,"0.0-4.40-0.40","ds8h3zx340twnzm",43,"188.csv","","352.20000000298023","resources/trios/L1T4A3.jpg","38","restless",0.8,0.7,0.6,0.56694418462238,"true"
"image-keyboard-response",133,127143,"0.0-4.40-1.40","ds8h3zx340twnzm",43,"188.csv","","null","resources/maskTrios/BT4B.jpg","null","",NA,NA,NA,NA,""
"image-keyboard-response",134,128353,"0.0-4.40-2.40","ds8h3zx340twnzm",43,"188.csv","","null","resources/images/coin2.png","null","",NA,NA,NA,NA,""
"image-keyboard-response",135,128573,"0.0-4.41-0.41","ds8h3zx340twnzm",43,"188.csv","","218.40000000596046","resources/trios/L1T4A3.jpg","38","restless",0.8,0.7,0.6,0.494590010335497,"true"
"image-keyboard-response",136,128989,"0.0-4.41-1.41","ds8h3zx340twnzm",43,"188.csv","","null","resources/maskTrios/BT4B.jpg","null","",NA,NA,NA,NA,""
"image-keyboard-response",137,130191,"0.0-4.41-2.41","ds8h3zx340twnzm",43,"188.csv","","null","resources/images/coin2.png","null","",NA,NA,NA,NA,""
"image-keyboard-response",138,130403,"0.0-4.42-0.42","ds8h3zx340twnzm",43,"188.csv","","210.79999999701977","resources/trios/L1T4A3.jpg","38","restless",0.8,0.7,0.6,0.238586378066002,"true"
"image-keyboard-response",139,130805,"0.0-4.42-1.42","ds8h3zx340twnzm",43,"188.csv","","null","resources/maskTrios/BT4B.jpg","null","",NA,NA,NA,NA,""
"image-keyboard-response",140,132010,"0.0-4.42-2.42","ds8h3zx340twnzm",43,"188.csv","","null","resources/images/coin2.png","null","",NA,NA,NA,NA,""
"image-keyboard-response",141,132197,"0.0-4.43-0.43","ds8h3zx340twnzm",43,"188.csv","","186.09999999403954","resources/trios/L1T4A3.jpg","38","restless",0.8,0.7,0.5,0.670221617625316,"true"
"image-keyboard-response",142,132602,"0.0-4.43-1.43","ds8h3zx340twnzm",43,"188.csv","","null","resources/maskTrios/BT4B.jpg","null","",NA,NA,NA,NA,""
"image-keyboard-response",143,133812,"0.0-4.43-2.43","ds8h3zx340twnzm",43,"188.csv","","null","resources/images/coin2.png","null","",NA,NA,NA,NA,""
"image-keyboard-response",144,134005,"0.0-4.44-0.44","ds8h3zx340twnzm",43,"188.csv","","192.20000000298023","resources/trios/L1T4A3.jpg","38","restless",0.8,0.7,0.5,0.902198905938188,"false"
"image-keyboard-response",145,134421,"0.0-4.44-1.44","ds8h3zx340twnzm",43,"188.csv","","null","resources/maskTrios/BT4B.jpg","null","",NA,NA,NA,NA,""
"image-keyboard-response",146,135623,"0.0-4.44-2.44","ds8h3zx340twnzm",43,"188.csv","","null","resources/images/fishbone.png","null","",NA,NA,NA,NA,""
"image-keyboard-response",147,135800,"0.0-4.45-0.45","ds8h3zx340twnzm",43,"188.csv","","175.29999999701977","resources/trios/L1T4A3.jpg","39","restless",0.8,0.7,0.5,0.545471328391183,"false"
"image-keyboard-response",148,136208,"0.0-4.45-1.45","ds8h3zx340twnzm",43,"188.csv","","null","resources/maskTrios/BBA3.jpg","null","",NA,NA,NA,NA,""
"image-keyboard-response",149,137420,"0.0-4.45-2.45","ds8h3zx340twnzm",43,"188.csv","","null","resources/images/fishbone.png","null","",NA,NA,NA,NA,""
"image-keyboard-response",150,137612,"0.0-4.46-0.46","ds8h3zx340twnzm",43,"188.csv","","191.40000000596046","resources/trios/L1T4A3.jpg","37","restless",0.8,0.7,0.5,0.092381649816859,"true"
"image-keyboard-response",151,138026,"0.0-4.46-1.46","ds8h3zx340twnzm",43,"188.csv","","null","resources/maskTrios/L1BB.jpg","null","",NA,NA,NA,NA,""
"image-keyboard-response",152,139244,"0.0-4.46-2.46","ds8h3zx340twnzm",43,"188.csv","","null","resources/images/coin2.png","null","",NA,NA,NA,NA,""
"image-keyboard-response",153,139520,"0.0-4.47-0.47","ds8h3zx340twnzm",43,"188.csv","","275.29999999701977","resources/trios/L1T4A3.jpg","37","restless",0.8,0.7,0.5,0.670921691462662,"true"
"image-keyboard-response",154,139924,"0.0-4.47-1.47","ds8h3zx340twnzm",43,"188.csv","","null","resources/maskTrios/L1BB.jpg","null","",NA,NA,NA,NA,""
"image-keyboard-response",155,141138,"0.0-4.47-2.47","ds8h3zx340twnzm",43,"188.csv","","null","resources/images/coin2.png","null","",NA,NA,NA,NA,""
"image-keyboard-response",156,141332,"0.0-4.48-0.48","ds8h3zx340twnzm",43,"188.csv","","192.40000000596046","resources/trios/L1T4A3.jpg","37","restless",0.8,0.7,0.5,0.0465529639654028,"true"
"image-keyboard-response",157,141738,"0.0-4.48-1.48","ds8h3zx340twnzm",43,"188.csv","","null","resources/maskTrios/L1BB.jpg","null","",NA,NA,NA,NA,""
"image-keyboard-response",158,142956,"0.0-4.48-2.48","ds8h3zx340twnzm",43,"188.csv","","null","resources/images/coin2.png","null","",NA,NA,NA,NA,""
"image-keyboard-response",159,143448,"0.0-4.49-0.49","ds8h3zx340twnzm",43,"188.csv","","491.3999999910593","resources/trios/L1T4A3.jpg","37","restless",0.8,0.7,0.5,0.610866289241571,"true"
"image-keyboard-response",160,143858,"0.0-4.49-1.49","ds8h3zx340twnzm",43,"188.csv","","null","resources/maskTrios/L1BB.jpg","null","",NA,NA,NA,NA,""
"image-keyboard-response",161,145079,"0.0-4.49-2.49","ds8h3zx340twnzm",43,"188.csv","","null","resources/images/coin2.png","null","",NA,NA,NA,NA,""
"image-keyboard-response",162,145348,"0.0-4.50-0.50","ds8h3zx340twnzm",43,"188.csv","","267.29999999701977","resources/trios/L1T4A3.jpg","37","restless",0.8,0.6,0.5,0.526389632913078,"true"
"image-keyboard-response",163,145756,"0.0-4.50-1.50","ds8h3zx340twnzm",43,"188.csv","","null","resources/maskTrios/L1BB.jpg","null","",NA,NA,NA,NA,""
"image-keyboard-response",164,146958,"0.0-4.50-2.50","ds8h3zx340twnzm",43,"188.csv","","null","resources/images/coin2.png","null","",NA,NA,NA,NA,""
"image-keyboard-response",165,147320,"0.0-4.51-0.51","ds8h3zx340twnzm",43,"188.csv","","361.09999999403954","resources/trios/L1T4A3.jpg","37","restless",0.8,0.6,0.6,0.845596354035068,"false"
"image-keyboard-response",166,147728,"0.0-4.51-1.51","ds8h3zx340twnzm",43,"188.csv","","null","resources/maskTrios/L1BB.jpg","null","",NA,NA,NA,NA,""
"image-keyboard-response",167,148936,"0.0-4.51-2.51","ds8h3zx340twnzm",43,"188.csv","","null","resources/images/fishbone.png","null","",NA,NA,NA,NA,""
"image-keyboard-response",168,149195,"0.0-4.52-0.52","ds8h3zx340twnzm",43,"188.csv","","257.20000000298023","resources/trios/L1T4A3.jpg","39","restless",0.8,0.6,0.6,0.722491073690382,"false"
"image-keyboard-response",169,149638,"0.0-4.52-1.52","ds8h3zx340twnzm",43,"188.csv","","null","resources/maskTrios/BBA3.jpg","null","",NA,NA,NA,NA,""
"image-keyboard-response",170,150853,"0.0-4.52-2.52","ds8h3zx340twnzm",43,"188.csv","","null","resources/images/fishbone.png","null","",NA,NA,NA,NA,""
"image-keyboard-response",171,151105,"0.0-4.53-0.53","ds8h3zx340twnzm",43,"188.csv","","250.90000000596046","resources/trios/L1T4A3.jpg","38","restless",0.8,0.6,0.5,0.799803619369357,"false"
"image-keyboard-response",172,151518,"0.0-4.53-1.53","ds8h3zx340twnzm",43,"188.csv","","null","resources/maskTrios/BT4B.jpg","null","",NA,NA,NA,NA,""
"image-keyboard-response",173,152735,"0.0-4.53-2.53","ds8h3zx340twnzm",43,"188.csv","","null","resources/images/fishbone.png","null","",NA,NA,NA,NA,""
"image-keyboard-response",174,152864,"0.0-4.54-0.54","ds8h3zx340twnzm",43,"188.csv","","128","resources/trios/L1T4A3.jpg","38","restless",0.8,0.6,0.5,0.00920441218404489,"true"
"image-keyboard-response",175,153269,"0.0-4.54-1.54","ds8h3zx340twnzm",43,"188.csv","","null","resources/maskTrios/BT4B.jpg","null","",NA,NA,NA,NA,""
"image-keyboard-response",176,154472,"0.0-4.54-2.54","ds8h3zx340twnzm",43,"188.csv","","null","resources/images/coin2.png","null","",NA,NA,NA,NA,""
"image-keyboard-response",177,154662,"0.0-4.55-0.55","ds8h3zx340twnzm",43,"188.csv","","188.6000000089407","resources/trios/L1T4A3.jpg","38","restless",0.8,0.6,0.5,0.879691780431772,"false"
"image-keyboard-response",178,155077,"0.0-4.55-1.55","ds8h3zx340twnzm",43,"188.csv","","null","resources/maskTrios/BT4B.jpg","null","",NA,NA,NA,NA,""
"image-keyboard-response",179,156289,"0.0-4.55-2.55","ds8h3zx340twnzm",43,"188.csv","","null","resources/images/fishbone.png","null","",NA,NA,NA,NA,""
"image-keyboard-response",180,156563,"0.0-4.56-0.56","ds8h3zx340twnzm",43,"188.csv","","273.09999999403954","resources/trios/L1T4A3.jpg","39","restless",0.8,0.6,0.5,0.739841825000061,"false"
"image-keyboard-response",181,156974,"0.0-4.56-1.56","ds8h3zx340twnzm",43,"188.csv","","null","resources/maskTrios/BBA3.jpg","null","",NA,NA,NA,NA,""
"image-keyboard-response",182,158178,"0.0-4.56-2.56","ds8h3zx340twnzm",43,"188.csv","","null","resources/images/fishbone.png","null","",NA,NA,NA,NA,""
"image-keyboard-response",183,158348,"0.0-4.57-0.57","ds8h3zx340twnzm",43,"188.csv","","168.30000001192093","resources/trios/L1T4A3.jpg","39","restless",0.8,0.6,0.5,0.671386804486277,"false"
"image-keyboard-response",184,158755,"0.0-4.57-1.57","ds8h3zx340twnzm",43,"188.csv","","null","resources/maskTrios/BBA3.jpg","null","",NA,NA,NA,NA,""
"image-keyboard-response",185,159958,"0.0-4.57-2.57","ds8h3zx340twnzm",43,"188.csv","","null","resources/images/fishbone.png","null","",NA,NA,NA,NA,""
"image-keyboard-response",186,160244,"0.0-4.58-0.58","ds8h3zx340twnzm",43,"188.csv","","284.40000000596046","resources/trios/L1T4A3.jpg","37","restless",0.8,0.6,0.5,0.512812542812508,"true"
"image-keyboard-response",187,160658,"0.0-4.58-1.58","ds8h3zx340twnzm",43,"188.csv","","null","resources/maskTrios/L1BB.jpg","null","",NA,NA,NA,NA,""
"image-keyboard-response",188,161878,"0.0-4.58-2.58","ds8h3zx340twnzm",43,"188.csv","","null","resources/images/coin2.png","null","",NA,NA,NA,NA,""
"image-keyboard-response",189,162099,"0.0-4.59-0.59","ds8h3zx340twnzm",43,"188.csv","","220","resources/trios/L1T4A3.jpg","37","restless",0.7,0.5,0.4,0.100095685881675,"true"
"image-keyboard-response",190,162506,"0.0-4.59-1.59","ds8h3zx340twnzm",43,"188.csv","","null","resources/maskTrios/L1BB.jpg","null","",NA,NA,NA,NA,""
"image-keyboard-response",191,163721,"0.0-4.59-2.59","ds8h3zx340twnzm",43,"188.csv","","null","resources/images/coin2.png","null","",NA,NA,NA,NA,""
"image-keyboard-response",192,163964,"0.0-4.60-0.60","ds8h3zx340twnzm",43,"188.csv","","241.5","resources/trios/L1T4A3.jpg","37","restless",0.7,0.5,0.4,0.45599735189097,"true"
"image-keyboard-response",193,164373,"0.0-4.60-1.60","ds8h3zx340twnzm",43,"188.csv","","null","resources/maskTrios/L1BB.jpg","null","",NA,NA,NA,NA,""
"image-keyboard-response",194,165591,"0.0-4.60-2.60","ds8h3zx340twnzm",43,"188.csv","","null","resources/images/coin2.png","null","",NA,NA,NA,NA,""
"image-keyboard-response",195,165809,"0.0-4.61-0.61","ds8h3zx340twnzm",43,"188.csv","","216.70000000298023","resources/trios/L1T4A3.jpg","37","restless",0.7,0.5,0.4,0.924187896242559,"false"
"image-keyboard-response",196,166221,"0.0-4.61-1.61","ds8h3zx340twnzm",43,"188.csv","","null","resources/maskTrios/L1BB.jpg","null","",NA,NA,NA,NA,""
"image-keyboard-response",197,167426,"0.0-4.61-2.61","ds8h3zx340twnzm",43,"188.csv","","null","resources/images/fishbone.png","null","",NA,NA,NA,NA,""
"image-keyboard-response",198,167627,"0.0-4.62-0.62","ds8h3zx340twnzm",43,"188.csv","","200.09999999403954","resources/trios/L1T4A3.jpg","39","restless",0.7,0.5,0.4,0.376769502149469,"true"
"image-keyboard-response",199,168032,"0.0-4.62-1.62","ds8h3zx340twnzm",43,"188.csv","","null","resources/maskTrios/BBA3.jpg","null","",NA,NA,NA,NA,""
"image-keyboard-response",200,169235,"0.0-4.62-2.62","ds8h3zx340twnzm",43,"188.csv","","null","resources/images/coin2.png","null","",NA,NA,NA,NA,""
"image-keyboard-response",201,169612,"0.0-4.63-0.63","ds8h3zx340twnzm",43,"188.csv","","375.70000000298023","resources/trios/L1T4A3.jpg","39","restless",0.7,0.5,0.4,0.166329523719754,"true"
"image-keyboard-response",202,170026,"0.0-4.63-1.63","ds8h3zx340twnzm",43,"188.csv","","null","resources/maskTrios/BBA3.jpg","null","",NA,NA,NA,NA,""
"image-keyboard-response",203,171235,"0.0-4.63-2.63","ds8h3zx340twnzm",43,"188.csv","","null","resources/images/coin2.png","null","",NA,NA,NA,NA,""
"image-keyboard-response",204,171480,"0.0-4.64-0.64","ds8h3zx340twnzm",43,"188.csv","","243.3999999910593","resources/trios/L1T4A3.jpg","39","restless",0.7,0.5,0.4,0.324165832197598,"true"
"image-keyboard-response",205,171892,"0.0-4.64-1.64","ds8h3zx340twnzm",43,"188.csv","","null","resources/maskTrios/BBA3.jpg","null","",NA,NA,NA,NA,""
"image-keyboard-response",206,173110,"0.0-4.64-2.64","ds8h3zx340twnzm",43,"188.csv","","null","resources/images/coin2.png","null","",NA,NA,NA,NA,""
"image-keyboard-response",207,173284,"0.0-4.65-0.65","ds8h3zx340twnzm",43,"188.csv","","172.79999999701977","resources/trios/L1T4A3.jpg","39","restless",0.7,0.5,0.5,0.43851213349423,"true"
"image-keyboard-response",208,173692,"0.0-4.65-1.65","ds8h3zx340twnzm",43,"188.csv","","null","resources/maskTrios/BBA3.jpg","null","",NA,NA,NA,NA,""
"image-keyboard-response",209,174905,"0.0-4.65-2.65","ds8h3zx340twnzm",43,"188.csv","","null","resources/images/coin2.png","null","",NA,NA,NA,NA,""
"image-keyboard-response",210,175095,"0.0-4.66-0.66","ds8h3zx340twnzm",43,"188.csv","","188.79999999701977","resources/trios/L1T4A3.jpg","39","restless",0.7,0.4,0.5,0.05688477581495,"true"
"image-keyboard-response",211,175506,"0.0-4.66-1.66","ds8h3zx340twnzm",43,"188.csv","","null","resources/maskTrios/BBA3.jpg","null","",NA,NA,NA,NA,""
"image-keyboard-response",212,176726,"0.0-4.66-2.66","ds8h3zx340twnzm",43,"188.csv","","null","resources/images/coin2.png","null","",NA,NA,NA,NA,""
"image-keyboard-response",213,176764,"0.0-4.67-0.67","ds8h3zx340twnzm",43,"188.csv","","37.29999999701977","resources/trios/L1T4A3.jpg","39","restless",0.6,0.5,0.6,0.883636937727981,"false"
"image-keyboard-response",214,177167,"0.0-4.67-1.67","ds8h3zx340twnzm",43,"188.csv","","null","resources/maskTrios/BBA3.jpg","null","",NA,NA,NA,NA,""
"image-keyboard-response",215,178386,"0.0-4.67-2.67","ds8h3zx340twnzm",43,"188.csv","","null","resources/images/fishbone.png","null","",NA,NA,NA,NA,""
"image-keyboard-response",216,178603,"0.0-4.68-0.68","ds8h3zx340twnzm",43,"188.csv","","215.40000000596046","resources/trios/L1T4A3.jpg","38","restless",0.6,0.5,0.6,0.591020880089847,"false"
"image-keyboard-response",217,179010,"0.0-4.68-1.68","ds8h3zx340twnzm",43,"188.csv","","null","resources/maskTrios/BT4B.jpg","null","",NA,NA,NA,NA,""
"image-keyboard-response",218,180218,"0.0-4.68-2.68","ds8h3zx340twnzm",43,"188.csv","","null","resources/images/fishbone.png","null","",NA,NA,NA,NA,""
"image-keyboard-response",219,180417,"0.0-4.69-0.69","ds8h3zx340twnzm",43,"188.csv","","197.59999999403954","resources/trios/L1T4A3.jpg","37","restless",0.5,0.5,0.6,0.217777580233227,"true"
"image-keyboard-response",220,180823,"0.0-4.69-1.69","ds8h3zx340twnzm",43,"188.csv","","null","resources/maskTrios/L1BB.jpg","null","",NA,NA,NA,NA,""
"image-keyboard-response",221,182026,"0.0-4.69-2.69","ds8h3zx340twnzm",43,"188.csv","","null","resources/images/coin2.png","null","",NA,NA,NA,NA,""
"image-keyboard-response",222,182211,"0.0-4.70-0.70","ds8h3zx340twnzm",43,"188.csv","","182.5","resources/trios/L1T4A3.jpg","37","restless",0.5,0.5,0.6,0.333298592629785,"true"
"image-keyboard-response",223,182613,"0.0-4.70-1.70","ds8h3zx340twnzm",43,"188.csv","","null","resources/maskTrios/L1BB.jpg","null","",NA,NA,NA,NA,""
"image-keyboard-response",224,183826,"0.0-4.70-2.70","ds8h3zx340twnzm",43,"188.csv","","null","resources/images/coin2.png","null","",NA,NA,NA,NA,""
"image-keyboard-response",225,183985,"0.0-4.71-0.71","ds8h3zx340twnzm",43,"188.csv","","158","resources/trios/L1T4A3.jpg","37","restless",0.5,0.5,0.6,0.36375183622693,"true"
"image-keyboard-response",226,184403,"0.0-4.71-1.71","ds8h3zx340twnzm",43,"188.csv","","null","resources/maskTrios/L1BB.jpg","null","",NA,NA,NA,NA,""
"image-keyboard-response",227,185609,"0.0-4.71-2.71","ds8h3zx340twnzm",43,"188.csv","","null","resources/images/coin2.png","null","",NA,NA,NA,NA,""
"image-keyboard-response",228,185803,"0.0-4.72-0.72","ds8h3zx340twnzm",43,"188.csv","","193.59999999403954","resources/trios/L1T4A3.jpg","37","restless",0.4,0.5,0.6,0.664811932992832,"false"
"image-keyboard-response",229,186207,"0.0-4.72-1.72","ds8h3zx340twnzm",43,"188.csv","","null","resources/maskTrios/L1BB.jpg","null","",NA,NA,NA,NA,""
"image-keyboard-response",230,187425,"0.0-4.72-2.72","ds8h3zx340twnzm",43,"188.csv","","null","resources/images/fishbone.png","null","",NA,NA,NA,NA,""
"image-keyboard-response",231,189889,"0.0-4.73-0.73","ds8h3zx340twnzm",43,"188.csv","","2463.0999999940395","resources/trios/L1T4A3.jpg","39","restless",0.4,0.5,0.6,0.851619895922363,"false"
"image-keyboard-response",232,190305,"0.0-4.73-1.73","ds8h3zx340twnzm",43,"188.csv","","null","resources/maskTrios/BBA3.jpg","null","",NA,NA,NA,NA,""
"image-keyboard-response",233,191521,"0.0-4.73-2.73","ds8h3zx340twnzm",43,"188.csv","","null","resources/images/fishbone.png","null","",NA,NA,NA,NA,""
"image-keyboard-response",234,192028,"0.0-4.74-0.74","ds8h3zx340twnzm",43,"188.csv","","505","resources/trios/L1T4A3.jpg","38","restless",0.4,0.5,0.6,0.424540162824219,"true"
"image-keyboard-response",235,192439,"0.0-4.74-1.74","ds8h3zx340twnzm",43,"188.csv","","null","resources/maskTrios/BT4B.jpg","null","",NA,NA,NA,NA,""
"image-keyboard-response",236,193656,"0.0-4.74-2.74","ds8h3zx340twnzm",43,"188.csv","","null","resources/images/coin2.png","null","",NA,NA,NA,NA,""
"image-keyboard-response",237,194614,"0.0-4.75-0.75","ds8h3zx340twnzm",43,"188.csv","","956.4000000059605","resources/trios/L1T4A3.jpg","37","restless",0.4,0.5,0.6,0.652817274802679,"false"
"image-keyboard-response",238,195024,"0.0-4.75-1.75","ds8h3zx340twnzm",43,"188.csv","","null","resources/maskTrios/L1BB.jpg","null","",NA,NA,NA,NA,""
"image-keyboard-response",239,196234,"0.0-4.75-2.75","ds8h3zx340twnzm",43,"188.csv","","null","resources/images/fishbone.png","null","",NA,NA,NA,NA,""
"image-keyboard-response",240,202200,"0.0-4.76-0.76","ds8h3zx340twnzm",43,"188.csv","","5963.5","resources/trios/L1T4A3.jpg","37","restless",0.4,0.5,0.6,0.949699199725963,"false"
"image-keyboard-response",241,202609,"0.0-4.76-1.76","ds8h3zx340twnzm",43,"188.csv","","null","resources/maskTrios/L1BB.jpg","null","",NA,NA,NA,NA,""
"image-keyboard-response",242,203816,"0.0-4.76-2.76","ds8h3zx340twnzm",43,"188.csv","","null","resources/images/fishbone.png","null","",NA,NA,NA,NA,""
"image-keyboard-response",243,204190,"0.0-4.77-0.77","ds8h3zx340twnzm",43,"188.csv","","372.6000000089407","resources/trios/L1T4A3.jpg","39","restless",0.4,0.5,0.6,0.572064477092934,"true"
"image-keyboard-response",244,204607,"0.0-4.77-1.77","ds8h3zx340twnzm",43,"188.csv","","null","resources/maskTrios/BBA3.jpg","null","",NA,NA,NA,NA,""
"image-keyboard-response",245,205811,"0.0-4.77-2.77","ds8h3zx340twnzm",43,"188.csv","","null","resources/images/coin2.png","null","",NA,NA,NA,NA,""
"image-keyboard-response",246,206273,"0.0-4.78-0.78","ds8h3zx340twnzm",43,"188.csv","","461.70000000298023","resources/trios/L1T4A3.jpg","39","restless",0.4,0.5,0.6,0.614688855272389,"false"
"image-keyboard-response",247,206692,"0.0-4.78-1.78","ds8h3zx340twnzm",43,"188.csv","","null","resources/maskTrios/BBA3.jpg","null","",NA,NA,NA,NA,""
"image-keyboard-response",248,207903,"0.0-4.78-2.78","ds8h3zx340twnzm",43,"188.csv","","null","resources/images/fishbone.png","null","",NA,NA,NA,NA,""
"image-keyboard-response",249,208189,"0.0-4.79-0.79","ds8h3zx340twnzm",43,"188.csv","","284.8999999910593","resources/trios/L1T4A3.jpg","38","restless",0.4,0.5,0.5,0.110526159959637,"true"
"image-keyboard-response",250,208608,"0.0-4.79-1.79","ds8h3zx340twnzm",43,"188.csv","","null","resources/maskTrios/BT4B.jpg","null","",NA,NA,NA,NA,""
"image-keyboard-response",251,209819,"0.0-4.79-2.79","ds8h3zx340twnzm",43,"188.csv","","null","resources/images/coin2.png","null","",NA,NA,NA,NA,""
"image-keyboard-response",252,214883,"0.0-4.80-0.80","ds8h3zx340twnzm",43,"188.csv","","5063.5999999940395","resources/trios/L1T4A3.jpg","38","restless",0.4,0.5,0.5,0.434496824904181,"true"
"image-keyboard-response",253,215295,"0.0-4.80-1.80","ds8h3zx340twnzm",43,"188.csv","","null","resources/maskTrios/BT4B.jpg","null","",NA,NA,NA,NA,""
"image-keyboard-response",254,216497,"0.0-4.80-2.80","ds8h3zx340twnzm",43,"188.csv","","null","resources/images/coin2.png","null","",NA,NA,NA,NA,""
"image-keyboard-response",255,217205,"0.0-4.81-0.81","ds8h3zx340twnzm",43,"188.csv","","707.0999999940395","resources/trios/L1T4A3.jpg","37","restless",0.4,0.5,0.5,0.758491973942597,"false"
"image-keyboard-response",256,217616,"0.0-4.81-1.81","ds8h3zx340twnzm",43,"188.csv","","null","resources/maskTrios/L1BB.jpg","null","",NA,NA,NA,NA,""
"image-keyboard-response",257,218831,"0.0-4.81-2.81","ds8h3zx340twnzm",43,"188.csv","","null","resources/images/fishbone.png","null","",NA,NA,NA,NA,""
"image-keyboard-response",258,219520,"0.0-4.82-0.82","ds8h3zx340twnzm",43,"188.csv","","686.5999999940395","resources/trios/L1T4A3.jpg","38","restless",0.4,0.5,0.5,0.721411082978038,"false"
"image-keyboard-response",259,219923,"0.0-4.82-1.82","ds8h3zx340twnzm",43,"188.csv","","null","resources/maskTrios/BT4B.jpg","null","",NA,NA,NA,NA,""
"image-keyboard-response",260,221131,"0.0-4.82-2.82","ds8h3zx340twnzm",43,"188.csv","","null","resources/images/fishbone.png","null","",NA,NA,NA,NA,""
"image-keyboard-response",261,221299,"0.0-4.83-0.83","ds8h3zx340twnzm",43,"188.csv","","166.79999999701977","resources/trios/L1T4A3.jpg","39","restless",0.4,0.5,0.5,0.248013468437555,"true"
"image-keyboard-response",262,221703,"0.0-4.83-1.83","ds8h3zx340twnzm",43,"188.csv","","null","resources/maskTrios/BBA3.jpg","null","",NA,NA,NA,NA,""
"image-keyboard-response",263,222911,"0.0-4.83-2.83","ds8h3zx340twnzm",43,"188.csv","","null","resources/images/coin2.png","null","",NA,NA,NA,NA,""
"image-keyboard-response",264,223150,"0.0-4.84-0.84","ds8h3zx340twnzm",43,"188.csv","","238.29999999701977","resources/trios/L1T4A3.jpg","39","restless",0.4,0.5,0.5,0.349757794246117,"true"
"image-keyboard-response",265,223553,"0.0-4.84-1.84","ds8h3zx340twnzm",43,"188.csv","","null","resources/maskTrios/BBA3.jpg","null","",NA,NA,NA,NA,""
"image-keyboard-response",266,224768,"0.0-4.84-2.84","ds8h3zx340twnzm",43,"188.csv","","null","resources/images/coin2.png","null","",NA,NA,NA,NA,""
"image-keyboard-response",267,225035,"0.0-4.85-0.85","ds8h3zx340twnzm",43,"188.csv","","266.30000001192093","resources/trios/L1T4A3.jpg","39","restless",0.4,0.6,0.5,0.797196816437073,"false"
"image-keyboard-response",268,225437,"0.0-4.85-1.85","ds8h3zx340twnzm",43,"188.csv","","null","resources/maskTrios/BBA3.jpg","null","",NA,NA,NA,NA,""
"image-keyboard-response",269,226655,"0.0-4.85-2.85","ds8h3zx340twnzm",43,"188.csv","","null","resources/images/fishbone.png","null","",NA,NA,NA,NA,""
"image-keyboard-response",270,226918,"0.0-4.86-0.86","ds8h3zx340twnzm",43,"188.csv","","260.79999999701977","resources/trios/L1T4A3.jpg","37","restless",0.4,0.6,0.6,0.896389874026554,"false"
"image-keyboard-response",271,227320,"0.0-4.86-1.86","ds8h3zx340twnzm",43,"188.csv","","null","resources/maskTrios/L1BB.jpg","null","",NA,NA,NA,NA,""
"image-keyboard-response",272,228532,"0.0-4.86-2.86","ds8h3zx340twnzm",43,"188.csv","","null","resources/images/fishbone.png","null","",NA,NA,NA,NA,""
"image-keyboard-response",273,228728,"0.0-4.87-0.87","ds8h3zx340twnzm",43,"188.csv","","195.1000000089407","resources/trios/L1T4A3.jpg","38","restless",0.4,0.6,0.6,0.47013241580887,"true"
"image-keyboard-response",274,229140,"0.0-4.87-1.87","ds8h3zx340twnzm",43,"188.csv","","null","resources/maskTrios/BT4B.jpg","null","",NA,NA,NA,NA,""
"image-keyboard-response",275,230356,"0.0-4.87-2.87","ds8h3zx340twnzm",43,"188.csv","","null","resources/images/coin2.png","null","",NA,NA,NA,NA,""
"image-keyboard-response",276,230574,"0.0-4.88-0.88","ds8h3zx340twnzm",43,"188.csv","","216.29999999701977","resources/trios/L1T4A3.jpg","38","restless",0.4,0.6,0.6,0.404647478842209,"true"
"image-keyboard-response",277,230985,"0.0-4.88-1.88","ds8h3zx340twnzm",43,"188.csv","","null","resources/maskTrios/BT4B.jpg","null","",NA,NA,NA,NA,""
"image-keyboard-response",278,232198,"0.0-4.88-2.88","ds8h3zx340twnzm",43,"188.csv","","null","resources/images/coin2.png","null","",NA,NA,NA,NA,""
"image-keyboard-response",279,232426,"0.0-4.89-0.89","ds8h3zx340twnzm",43,"188.csv","","226.79999999701977","resources/trios/L1T4A3.jpg","38","restless",0.4,0.6,0.6,0.860230246130557,"false"
"image-keyboard-response",280,232835,"0.0-4.89-1.89","ds8h3zx340twnzm",43,"188.csv","","null","resources/maskTrios/BT4B.jpg","null","",NA,NA,NA,NA,""
"image-keyboard-response",281,234050,"0.0-4.89-2.89","ds8h3zx340twnzm",43,"188.csv","","null","resources/images/fishbone.png","null","",NA,NA,NA,NA,""
"image-keyboard-response",282,234281,"0.0-4.90-0.90","ds8h3zx340twnzm",43,"188.csv","","230.40000000596046","resources/trios/L1T4A3.jpg","37","restless",0.4,0.7,0.6,0.0910998713777131,"true"
"image-keyboard-response",283,234687,"0.0-4.90-1.90","ds8h3zx340twnzm",43,"188.csv","","null","resources/maskTrios/L1BB.jpg","null","",NA,NA,NA,NA,""
"image-keyboard-response",284,235892,"0.0-4.90-2.90","ds8h3zx340twnzm",43,"188.csv","","null","resources/images/coin2.png","null","",NA,NA,NA,NA,""
"image-keyboard-response",285,236099,"0.0-4.91-0.91","ds8h3zx340twnzm",43,"188.csv","","206.20000000298023","resources/trios/L1T4A3.jpg","37","restless",0.4,0.7,0.6,0.336156859987112,"true"
"image-keyboard-response",286,236514,"0.0-4.91-1.91","ds8h3zx340twnzm",43,"188.csv","","null","resources/maskTrios/L1BB.jpg","null","",NA,NA,NA,NA,""
"image-keyboard-response",287,237733,"0.0-4.91-2.91","ds8h3zx340twnzm",43,"188.csv","","null","resources/images/coin2.png","null","",NA,NA,NA,NA,""
"image-keyboard-response",288,238649,"0.0-4.92-0.92","ds8h3zx340twnzm",43,"188.csv","","914.7999999970198","resources/trios/L1T4A3.jpg","37","restless",0.4,0.7,0.6,0.490307813020975,"false"
"image-keyboard-response",289,239054,"0.0-4.92-1.92","ds8h3zx340twnzm",43,"188.csv","","null","resources/maskTrios/L1BB.jpg","null","",NA,NA,NA,NA,""
"image-keyboard-response",290,240262,"0.0-4.92-2.92","ds8h3zx340twnzm",43,"188.csv","","null","resources/images/fishbone.png","null","",NA,NA,NA,NA,""
"image-keyboard-response",291,240550,"0.0-4.93-0.93","ds8h3zx340twnzm",43,"188.csv","","286.5","resources/trios/L1T4A3.jpg","39","restless",0.4,0.7,0.6,0.417069893450872,"true"
"image-keyboard-response",292,240957,"0.0-4.93-1.93","ds8h3zx340twnzm",43,"188.csv","","null","resources/maskTrios/BBA3.jpg","null","",NA,NA,NA,NA,""
"image-keyboard-response",293,242171,"0.0-4.93-2.93","ds8h3zx340twnzm",43,"188.csv","","null","resources/images/coin2.png","null","",NA,NA,NA,NA,""
"image-keyboard-response",294,242989,"0.0-4.94-0.94","ds8h3zx340twnzm",43,"188.csv","","817.2999999970198","resources/trios/L1T4A3.jpg","39","restless",0.4,0.7,0.7,0.601050818015681,"true"
"image-keyboard-response",295,243397,"0.0-4.94-1.94","ds8h3zx340twnzm",43,"188.csv","","null","resources/maskTrios/BBA3.jpg","null","",NA,NA,NA,NA,""
"image-keyboard-response",296,244603,"0.0-4.94-2.94","ds8h3zx340twnzm",43,"188.csv","","null","resources/images/coin2.png","null","",NA,NA,NA,NA,""
"image-keyboard-response",297,245454,"0.0-4.95-0.95","ds8h3zx340twnzm",43,"188.csv","","849.0999999940395","resources/trios/L1T4A3.jpg","39","restless",0.4,0.7,0.6,0.252580334776015,"true"
"image-keyboard-response",298,245868,"0.0-4.95-1.95","ds8h3zx340twnzm",43,"188.csv","","null","resources/maskTrios/BBA3.jpg","null","",NA,NA,NA,NA,""
"image-keyboard-response",299,247084,"0.0-4.95-2.95","ds8h3zx340twnzm",43,"188.csv","","null","resources/images/coin2.png","null","",NA,NA,NA,NA,""
"image-keyboard-response",300,247425,"0.0-4.96-0.96","ds8h3zx340twnzm",43,"188.csv","","340","resources/trios/L1T4A3.jpg","39","restless",0.3,0.7,0.6,0.615735550914862,"false"
"image-keyboard-response",301,247834,"0.0-4.96-1.96","ds8h3zx340twnzm",43,"188.csv","","null","resources/maskTrios/BBA3.jpg","null","",NA,NA,NA,NA,""
"image-keyboard-response",302,249044,"0.0-4.96-2.96","ds8h3zx340twnzm",43,"188.csv","","null","resources/images/fishbone.png","null","",NA,NA,NA,NA,""
"image-keyboard-response",303,249229,"0.0-4.97-0.97","ds8h3zx340twnzm",43,"188.csv","","183.8999999910593","resources/trios/L1T4A3.jpg","38","restless",0.3,0.7,0.6,0.370113187608093,"true"
"image-keyboard-response",304,249633,"0.0-4.97-1.97","ds8h3zx340twnzm",43,"188.csv","","null","resources/maskTrios/BT4B.jpg","null","",NA,NA,NA,NA,""
"image-keyboard-response",305,250836,"0.0-4.97-2.97","ds8h3zx340twnzm",43,"188.csv","","null","resources/images/coin2.png","null","",NA,NA,NA,NA,""
"image-keyboard-response",306,251119,"0.0-4.98-0.98","ds8h3zx340twnzm",43,"188.csv","","280.79999999701977","resources/trios/L1T4A3.jpg","38","restless",0.3,0.7,0.6,0.370322680458145,"true"
"image-keyboard-response",307,251530,"0.0-4.98-1.98","ds8h3zx340twnzm",43,"188.csv","","null","resources/maskTrios/BT4B.jpg","null","",NA,NA,NA,NA,""
"image-keyboard-response",308,252736,"0.0-4.98-2.98","ds8h3zx340twnzm",43,"188.csv","","null","resources/images/coin2.png","null","",NA,NA,NA,NA,""
"image-keyboard-response",309,253006,"0.0-4.99-0.99","ds8h3zx340twnzm",43,"188.csv","","267.29999999701977","resources/trios/L1T4A3.jpg","38","restless",0.3,0.7,0.6,0.263855500366357,"true"
"image-keyboard-response",310,253420,"0.0-4.99-1.99","ds8h3zx340twnzm",43,"188.csv","","null","resources/maskTrios/BT4B.jpg","null","",NA,NA,NA,NA,""
"image-keyboard-response",311,254632,"0.0-4.99-2.99","ds8h3zx340twnzm",43,"188.csv","","null","resources/images/coin2.png","null","",NA,NA,NA,NA,""
"image-keyboard-response",312,254923,"0.0-4.100-0.100","ds8h3zx340twnzm",43,"188.csv","","289.80000001192093","resources/trios/L1T4A3.jpg","38","restless",0.3,0.7,0.6,0.857285340352655,"false"
"image-keyboard-response",313,255339,"0.0-4.100-1.100","ds8h3zx340twnzm",43,"188.csv","","null","resources/maskTrios/BT4B.jpg","null","",NA,NA,NA,NA,""
"image-keyboard-response",314,256552,"0.0-4.100-2.100","ds8h3zx340twnzm",43,"188.csv","","null","resources/images/fishbone.png","null","",NA,NA,NA,NA,""
"image-keyboard-response",315,256750,"0.0-4.101-0.101","ds8h3zx340twnzm",43,"188.csv","","196.09999999403954","resources/trios/L1T4A3.jpg","37","restless",0.3,0.7,0.6,0.77107679391957,"false"
"image-keyboard-response",316,257168,"0.0-4.101-1.101","ds8h3zx340twnzm",43,"188.csv","","null","resources/maskTrios/L1BB.jpg","null","",NA,NA,NA,NA,""
"image-keyboard-response",317,258371,"0.0-4.101-2.101","ds8h3zx340twnzm",43,"188.csv","","null","resources/images/fishbone.png","null","",NA,NA,NA,NA,""
"image-keyboard-response",318,258677,"0.0-4.102-0.102","ds8h3zx340twnzm",43,"188.csv","","305.6000000089407","resources/trios/L1T4A3.jpg","39","restless",0.3,0.7,0.6,0.587018386926184,"true"
"image-keyboard-response",319,259090,"0.0-4.102-1.102","ds8h3zx340twnzm",43,"188.csv","","null","resources/maskTrios/BBA3.jpg","null","",NA,NA,NA,NA,""
"image-keyboard-response",320,260304,"0.0-4.102-2.102","ds8h3zx340twnzm",43,"188.csv","","null","resources/images/coin2.png","null","",NA,NA,NA,NA,""
"image-keyboard-response",321,260667,"0.0-4.103-0.103","ds8h3zx340twnzm",43,"188.csv","","360.70000000298023","resources/trios/L1T4A3.jpg","39","restless",0.4,0.8,0.6,0.278946289110017,"true"
"image-keyboard-response",322,261081,"0.0-4.103-1.103","ds8h3zx340twnzm",43,"188.csv","","null","resources/maskTrios/BBA3.jpg","null","",NA,NA,NA,NA,""
"image-keyboard-response",323,262284,"0.0-4.103-2.103","ds8h3zx340twnzm",43,"188.csv","","null","resources/images/coin2.png","null","",NA,NA,NA,NA,""
"image-keyboard-response",324,262787,"0.0-4.104-0.104","ds8h3zx340twnzm",43,"188.csv","","500.40000000596046","resources/trios/L1T4A3.jpg","39","restless",0.4,0.8,0.6,0.330563822871151,"true"
"image-keyboard-response",325,263201,"0.0-4.104-1.104","ds8h3zx340twnzm",43,"188.csv","","null","resources/maskTrios/BBA3.jpg","null","",NA,NA,NA,NA,""
"image-keyboard-response",326,264417,"0.0-4.104-2.104","ds8h3zx340twnzm",43,"188.csv","","null","resources/images/coin2.png","null","",NA,NA,NA,NA,""
"image-keyboard-response",327,264924,"0.0-4.105-0.105","ds8h3zx340twnzm",43,"188.csv","","505.6000000089407","resources/trios/L1T4A3.jpg","39","restless",0.4,0.9,0.6,0.93315684668322,"false"
"image-keyboard-response",328,265333,"0.0-4.105-1.105","ds8h3zx340twnzm",43,"188.csv","","null","resources/maskTrios/BBA3.jpg","null","",NA,NA,NA,NA,""
"image-keyboard-response",329,266548,"0.0-4.105-2.105","ds8h3zx340twnzm",43,"188.csv","","null","resources/images/fishbone.png","null","",NA,NA,NA,NA,""
"image-keyboard-response",330,267570,"0.0-4.106-0.106","ds8h3zx340twnzm",43,"188.csv","","1021.2999999970198","resources/trios/L1T4A3.jpg","37","restless",0.4,0.9,0.6,0.314508866820417,"true"
"image-keyboard-response",331,267985,"0.0-4.106-1.106","ds8h3zx340twnzm",43,"188.csv","","null","resources/maskTrios/L1BB.jpg","null","",NA,NA,NA,NA,""
"image-keyboard-response",332,269202,"0.0-4.106-2.106","ds8h3zx340twnzm",43,"188.csv","","null","resources/images/coin2.png","null","",NA,NA,NA,NA,""
"image-keyboard-response",333,270095,"0.0-4.107-0.107","ds8h3zx340twnzm",43,"188.csv","","891.6000000089407","resources/trios/L1T4A3.jpg","37","restless",0.4,0.8,0.6,0.455555558458113,"false"
"image-keyboard-response",334,270500,"0.0-4.107-1.107","ds8h3zx340twnzm",43,"188.csv","","null","resources/maskTrios/L1BB.jpg","null","",NA,NA,NA,NA,""
"image-keyboard-response",335,271701,"0.0-4.107-2.107","ds8h3zx340twnzm",43,"188.csv","","null","resources/images/fishbone.png","null","",NA,NA,NA,NA,""
"image-keyboard-response",336,271982,"0.0-4.108-0.108","ds8h3zx340twnzm",43,"188.csv","","278.20000000298023","resources/trios/L1T4A3.jpg","38","restless",0.4,0.8,0.6,0.495996958335037,"true"
"image-keyboard-response",337,272383,"0.0-4.108-1.108","ds8h3zx340twnzm",43,"188.csv","","null","resources/maskTrios/BT4B.jpg","null","",NA,NA,NA,NA,""
"image-keyboard-response",338,273593,"0.0-4.108-2.108","ds8h3zx340twnzm",43,"188.csv","","null","resources/images/coin2.png","null","",NA,NA,NA,NA,""
"image-keyboard-response",339,274134,"0.0-4.109-0.109","ds8h3zx340twnzm",43,"188.csv","","540.2999999970198","resources/trios/L1T4A3.jpg","39","restless",0.4,0.8,0.6,0.997188661992514,"false"
"image-keyboard-response",340,274551,"0.0-4.109-1.109","ds8h3zx340twnzm",43,"188.csv","","null","resources/maskTrios/BBA3.jpg","null","",NA,NA,NA,NA,""
"image-keyboard-response",341,275770,"0.0-4.109-2.109","ds8h3zx340twnzm",43,"188.csv","","null","resources/images/fishbone.png","null","",NA,NA,NA,NA,""
"image-keyboard-response",342,276053,"0.0-4.110-0.110","ds8h3zx340twnzm",43,"188.csv","","282.79999999701977","resources/trios/L1T4A3.jpg","38","restless",0.4,0.8,0.6,0.824133993075628,"false"
"image-keyboard-response",343,276461,"0.0-4.110-1.110","ds8h3zx340twnzm",43,"188.csv","","null","resources/maskTrios/BT4B.jpg","null","",NA,NA,NA,NA,""
"image-keyboard-response",344,277664,"0.0-4.110-2.110","ds8h3zx340twnzm",43,"188.csv","","null","resources/images/fishbone.png","null","",NA,NA,NA,NA,""
"image-keyboard-response",345,278066,"0.0-4.111-0.111","ds8h3zx340twnzm",43,"188.csv","","400.20000000298023","resources/trios/L1T4A3.jpg","37","restless",0.4,0.8,0.5,0.863552072076684,"false"
"image-keyboard-response",346,278474,"0.0-4.111-1.111","ds8h3zx340twnzm",43,"188.csv","","null","resources/maskTrios/L1BB.jpg","null","",NA,NA,NA,NA,""
"image-keyboard-response",347,279677,"0.0-4.111-2.111","ds8h3zx340twnzm",43,"188.csv","","null","resources/images/fishbone.png","null","",NA,NA,NA,NA,""
"image-keyboard-response",348,279912,"0.0-4.112-0.112","ds8h3zx340twnzm",43,"188.csv","","233.8999999910593","resources/trios/L1T4A3.jpg","39","restless",0.4,0.8,0.5,0.0593598445422887,"true"
"image-keyboard-response",349,280317,"0.0-4.112-1.112","ds8h3zx340twnzm",43,"188.csv","","null","resources/maskTrios/BBA3.jpg","null","",NA,NA,NA,NA,""
"image-keyboard-response",350,281523,"0.0-4.112-2.112","ds8h3zx340twnzm",43,"188.csv","","null","resources/images/coin2.png","null","",NA,NA,NA,NA,""
"image-keyboard-response",351,281945,"0.0-4.113-0.113","ds8h3zx340twnzm",43,"188.csv","","420.70000000298023","resources/trios/L1T4A3.jpg","39","restless",0.4,0.8,0.5,0.512688821952877,"false"
"image-keyboard-response",352,282350,"0.0-4.113-1.113","ds8h3zx340twnzm",43,"188.csv","","null","resources/maskTrios/BBA3.jpg","null","",NA,NA,NA,NA,""
"image-keyboard-response",353,283567,"0.0-4.113-2.113","ds8h3zx340twnzm",43,"188.csv","","null","resources/images/fishbone.png","null","",NA,NA,NA,NA,""
"image-keyboard-response",354,283889,"0.0-4.114-0.114","ds8h3zx340twnzm",43,"188.csv","","321.1000000089407","resources/trios/L1T4A3.jpg","38","restless",0.4,0.8,0.5,0.730957727147988,"true"
"image-keyboard-response",355,284299,"0.0-4.114-1.114","ds8h3zx340twnzm",43,"188.csv","","null","resources/maskTrios/BT4B.jpg","null","",NA,NA,NA,NA,""
"image-keyboard-response",356,285515,"0.0-4.114-2.114","ds8h3zx340twnzm",43,"188.csv","","null","resources/images/coin2.png","null","",NA,NA,NA,NA,""
"image-keyboard-response",357,286227,"0.0-4.115-0.115","ds8h3zx340twnzm",43,"188.csv","","710.6999999880791","resources/trios/L1T4A3.jpg","38","restless",0.4,0.8,0.5,0.848016700788864,"false"
"image-keyboard-response",358,286631,"0.0-4.115-1.115","ds8h3zx340twnzm",43,"188.csv","","null","resources/maskTrios/BT4B.jpg","null","",NA,NA,NA,NA,""
"image-keyboard-response",359,287833,"0.0-4.115-2.115","ds8h3zx340twnzm",43,"188.csv","","null","resources/images/fishbone.png","null","",NA,NA,NA,NA,""
"image-keyboard-response",360,288391,"0.0-4.116-0.116","ds8h3zx340twnzm",43,"188.csv","","553.2999999970198","resources/trios/L1T4A3.jpg","37","restless",0.4,0.8,0.5,0.962234849317616,"false"
"image-keyboard-response",361,288797,"0.0-4.116-1.116","ds8h3zx340twnzm",43,"188.csv","","null","resources/maskTrios/L1BB.jpg","null","",NA,NA,NA,NA,""
"image-keyboard-response",362,290018,"0.0-4.116-2.116","ds8h3zx340twnzm",43,"188.csv","","null","resources/images/fishbone.png","null","",NA,NA,NA,NA,""
"image-keyboard-response",363,291260,"0.0-4.117-0.117","ds8h3zx340twnzm",43,"188.csv","","1240.7000000029802","resources/trios/L1T4A3.jpg","39","restless",0.3,0.7,0.5,0.447957895546341,"true"
"image-keyboard-response",364,291668,"0.0-4.117-1.117","ds8h3zx340twnzm",43,"188.csv","","null","resources/maskTrios/BBA3.jpg","null","",NA,NA,NA,NA,""
"image-keyboard-response",365,292882,"0.0-4.117-2.117","ds8h3zx340twnzm",43,"188.csv","","null","resources/images/coin2.png","null","",NA,NA,NA,NA,""
"image-keyboard-response",366,293361,"0.0-4.118-0.118","ds8h3zx340twnzm",43,"188.csv","","477.6000000089407","resources/trios/L1T4A3.jpg","37","restless",0.3,0.7,0.5,0.456750783338653,"false"
"image-keyboard-response",367,293768,"0.0-4.118-1.118","ds8h3zx340twnzm",43,"188.csv","","null","resources/maskTrios/L1BB.jpg","null","",NA,NA,NA,NA,""
"image-keyboard-response",368,294981,"0.0-4.118-2.118","ds8h3zx340twnzm",43,"188.csv","","null","resources/images/fishbone.png","null","",NA,NA,NA,NA,""
"image-keyboard-response",369,295403,"0.0-4.119-0.119","ds8h3zx340twnzm",43,"188.csv","","421.29999999701977","resources/trios/L1T4A3.jpg","39","restless",0.3,0.7,0.5,0.542834947085526,"false"
"image-keyboard-response",370,295824,"0.0-4.119-1.119","ds8h3zx340twnzm",43,"188.csv","","null","resources/maskTrios/BBA3.jpg","null","",NA,NA,NA,NA,""
"image-keyboard-response",371,297027,"0.0-4.119-2.119","ds8h3zx340twnzm",43,"188.csv","","null","resources/images/fishbone.png","null","",NA,NA,NA,NA,""
"image-keyboard-response",372,297421,"0.0-4.120-0.120","ds8h3zx340twnzm",43,"188.csv","","392.70000000298023","resources/trios/L1T4A3.jpg","38","restless",0.3,0.7,0.5,0.679639453510916,"true"
"image-keyboard-response",373,297826,"0.0-4.120-1.120","ds8h3zx340twnzm",43,"188.csv","","null","resources/maskTrios/BT4B.jpg","null","",NA,NA,NA,NA,""
"image-keyboard-response",374,299033,"0.0-4.120-2.120","ds8h3zx340twnzm",43,"188.csv","","null","resources/images/coin2.png","null","",NA,NA,NA,NA,""
"image-keyboard-response",375,303054,"0.0-4.121-0.121","ds8h3zx340twnzm",43,"188.csv","","4020","resources/trios/L1T4A3.jpg","37","restless",0.2,0.7,0.5,0.579333009067545,"false"
"image-keyboard-response",376,303461,"0.0-4.121-1.121","ds8h3zx340twnzm",43,"188.csv","","null","resources/maskTrios/L1BB.jpg","null","",NA,NA,NA,NA,""
"image-keyboard-response",377,304687,"0.0-4.121-2.121","ds8h3zx340twnzm",43,"188.csv","","null","resources/images/fishbone.png","null","",NA,NA,NA,NA,""
"image-keyboard-response",378,304971,"0.0-4.122-0.122","ds8h3zx340twnzm",43,"188.csv","","282.20000000298023","resources/trios/L1T4A3.jpg","38","restless",0.3,0.7,0.5,0.0531625817620736,"true"
"image-keyboard-response",379,305381,"0.0-4.122-1.122","ds8h3zx340twnzm",43,"188.csv","","null","resources/maskTrios/BT4B.jpg","null","",NA,NA,NA,NA,""
"image-keyboard-response",380,306599,"0.0-4.122-2.122","ds8h3zx340twnzm",43,"188.csv","","null","resources/images/coin2.png","null","",NA,NA,NA,NA,""
"image-keyboard-response",381,307310,"0.0-4.123-0.123","ds8h3zx340twnzm",43,"188.csv","","709.7999999970198","resources/trios/L1T4A3.jpg","39","restless",0.3,0.7,0.5,0.75977468383794,"false"
"image-keyboard-response",382,307717,"0.0-4.123-1.123","ds8h3zx340twnzm",43,"188.csv","","null","resources/maskTrios/BBA3.jpg","null","",NA,NA,NA,NA,""
"image-keyboard-response",383,308918,"0.0-4.123-2.123","ds8h3zx340twnzm",43,"188.csv","","null","resources/images/fishbone.png","null","",NA,NA,NA,NA,""
"image-keyboard-response",384,309429,"0.0-4.124-0.124","ds8h3zx340twnzm",43,"188.csv","","510.20000000298023","resources/trios/L1T4A3.jpg","38","restless",0.3,0.7,0.5,0.225581513814811,"true"
"image-keyboard-response",385,309832,"0.0-4.124-1.124","ds8h3zx340twnzm",43,"188.csv","","null","resources/maskTrios/BT4B.jpg","null","",NA,NA,NA,NA,""
"image-keyboard-response",386,311035,"0.0-4.124-2.124","ds8h3zx340twnzm",43,"188.csv","","null","resources/images/coin2.png","null","",NA,NA,NA,NA,""
"image-keyboard-response",387,311410,"0.0-4.125-0.125","ds8h3zx340twnzm",43,"188.csv","","372.3999999910593","resources/trios/L1T4A3.jpg","38","restless",0.3,0.7,0.5,0.530025367002859,"true"
"image-keyboard-response",388,311826,"0.0-4.125-1.125","ds8h3zx340twnzm",43,"188.csv","","null","resources/maskTrios/BT4B.jpg","null","",NA,NA,NA,NA,""
"image-keyboard-response",389,313030,"0.0-4.125-2.125","ds8h3zx340twnzm",43,"188.csv","","null","resources/images/coin2.png","null","",NA,NA,NA,NA,""
"image-keyboard-response",390,313525,"0.0-4.126-0.126","ds8h3zx340twnzm",43,"188.csv","","493.5","resources/trios/L1T4A3.jpg","38","restless",0.3,0.7,0.5,0.0976706055617018,"true"
"image-keyboard-response",391,313933,"0.0-4.126-1.126","ds8h3zx340twnzm",43,"188.csv","","null","resources/maskTrios/BT4B.jpg","null","",NA,NA,NA,NA,""
"image-keyboard-response",392,315152,"0.0-4.126-2.126","ds8h3zx340twnzm",43,"188.csv","","null","resources/images/coin2.png","null","",NA,NA,NA,NA,""
"image-keyboard-response",393,315428,"0.0-4.127-0.127","ds8h3zx340twnzm",43,"188.csv","","274.09999999403954","resources/trios/L1T4A3.jpg","38","restless",0.3,0.7,0.5,0.223743911508737,"true"
"image-keyboard-response",394,315842,"0.0-4.127-1.127","ds8h3zx340twnzm",43,"188.csv","","null","resources/maskTrios/BT4B.jpg","null","",NA,NA,NA,NA,""
"image-keyboard-response",395,317048,"0.0-4.127-2.127","ds8h3zx340twnzm",43,"188.csv","","null","resources/images/coin2.png","null","",NA,NA,NA,NA,""
"image-keyboard-response",396,320154,"0.0-4.128-0.128","ds8h3zx340twnzm",43,"188.csv","","3105.1000000089407","resources/trios/L1T4A3.jpg","38","restless",0.3,0.7,0.5,0.821642936174386,"false"
"image-keyboard-response",397,320563,"0.0-4.128-1.128","ds8h3zx340twnzm",43,"188.csv","","null","resources/maskTrios/BT4B.jpg","null","",NA,NA,NA,NA,""
"image-keyboard-response",398,321768,"0.0-4.128-2.128","ds8h3zx340twnzm",43,"188.csv","","null","resources/images/fishbone.png","null","",NA,NA,NA,NA,""
"image-keyboard-response",399,325090,"0.0-4.129-0.129","ds8h3zx340twnzm",43,"188.csv","","3321.4000000059605","resources/trios/L1T4A3.jpg","38","restless",0.3,0.7,0.5,0.712647838178726,"false"
"image-keyboard-response",400,325500,"0.0-4.129-1.129","ds8h3zx340twnzm",43,"188.csv","","null","resources/maskTrios/BT4B.jpg","null","",NA,NA,NA,NA,""
"image-keyboard-response",401,326716,"0.0-4.129-2.129","ds8h3zx340twnzm",43,"188.csv","","null","resources/images/fishbone.png","null","",NA,NA,NA,NA,""
"image-keyboard-response",402,327152,"0.0-4.130-0.130","ds8h3zx340twnzm",43,"188.csv","","434.09999999403954","resources/trios/L1T4A3.jpg","37","restless",0.3,0.7,0.5,0.500700507356497,"false"
"image-keyboard-response",403,327567,"0.0-4.130-1.130","ds8h3zx340twnzm",43,"188.csv","","null","resources/maskTrios/L1BB.jpg","null","",NA,NA,NA,NA,""
"image-keyboard-response",404,328777,"0.0-4.130-2.130","ds8h3zx340twnzm",43,"188.csv","","null","resources/images/fishbone.png","null","",NA,NA,NA,NA,""
"image-keyboard-response",405,329047,"0.0-4.131-0.131","ds8h3zx340twnzm",43,"188.csv","","269.19999998807907","resources/trios/L1T4A3.jpg","39","restless",0.3,0.7,0.4,0.392981837311767,"true"
"image-keyboard-response",406,329464,"0.0-4.131-1.131","ds8h3zx340twnzm",43,"188.csv","","null","resources/maskTrios/BBA3.jpg","null","",NA,NA,NA,NA,""
"image-keyboard-response",407,330680,"0.0-4.131-2.131","ds8h3zx340twnzm",43,"188.csv","","null","resources/images/coin2.png","null","",NA,NA,NA,NA,""
"image-keyboard-response",408,333154,"0.0-4.132-0.132","ds8h3zx340twnzm",43,"188.csv","","2473.0999999940395","resources/trios/L1T4A3.jpg","37","restless",0.2,0.7,0.4,0.221770988785124,"false"
"image-keyboard-response",409,333559,"0.0-4.132-1.132","ds8h3zx340twnzm",43,"188.csv","","null","resources/maskTrios/L1BB.jpg","null","",NA,NA,NA,NA,""
"image-keyboard-response",410,334765,"0.0-4.132-2.132","ds8h3zx340twnzm",43,"188.csv","","null","resources/images/fishbone.png","null","",NA,NA,NA,NA,""
"image-keyboard-response",411,334801,"0.0-4.133-0.133","ds8h3zx340twnzm",43,"188.csv","","33.80000001192093","resources/trios/L1T4A3.jpg","38","restless",0.2,0.7,0.4,0.467985202680158,"true"
"image-keyboard-response",412,335211,"0.0-4.133-1.133","ds8h3zx340twnzm",43,"188.csv","","null","resources/maskTrios/BT4B.jpg","null","",NA,NA,NA,NA,""
"image-keyboard-response",413,336429,"0.0-4.133-2.133","ds8h3zx340twnzm",43,"188.csv","","null","resources/images/coin2.png","null","",NA,NA,NA,NA,""
"image-keyboard-response",414,336818,"0.0-4.134-0.134","ds8h3zx340twnzm",43,"188.csv","","387.59999999403954","resources/trios/L1T4A3.jpg","38","restless",0.2,0.7,0.4,0.125999302179056,"true"
"image-keyboard-response",415,337226,"0.0-4.134-1.134","ds8h3zx340twnzm",43,"188.csv","","null","resources/maskTrios/BT4B.jpg","null","",NA,NA,NA,NA,""
"image-keyboard-response",416,338434,"0.0-4.134-2.134","ds8h3zx340twnzm",43,"188.csv","","null","resources/images/coin2.png","null","",NA,NA,NA,NA,""
"image-keyboard-response",417,338767,"0.0-4.135-0.135","ds8h3zx340twnzm",43,"188.csv","","331.20000000298023","resources/trios/L1T4A3.jpg","38","restless",0.2,0.7,0.4,0.632324593301825,"true"
"image-keyboard-response",418,339183,"0.0-4.135-1.135","ds8h3zx340twnzm",43,"188.csv","","null","resources/maskTrios/BT4B.jpg","null","",NA,NA,NA,NA,""
"image-keyboard-response",419,340395,"0.0-4.135-2.135","ds8h3zx340twnzm",43,"188.csv","","null","resources/images/coin2.png","null","",NA,NA,NA,NA,""
"image-keyboard-response",420,340625,"0.0-4.136-0.136","ds8h3zx340twnzm",43,"188.csv","","227.6000000089407","resources/trios/L1T4A3.jpg","38","restless",0.2,0.7,0.4,0.081446600372121,"true"
"image-keyboard-response",421,341029,"0.0-4.136-1.136","ds8h3zx340twnzm",43,"188.csv","","null","resources/maskTrios/BT4B.jpg","null","",NA,NA,NA,NA,""
"image-keyboard-response",422,342234,"0.0-4.136-2.136","ds8h3zx340twnzm",43,"188.csv","","null","resources/images/coin2.png","null","",NA,NA,NA,NA,""
"image-keyboard-response",423,342968,"0.0-4.137-0.137","ds8h3zx340twnzm",43,"188.csv","","733.7000000029802","resources/trios/L1T4A3.jpg","38","restless",0.2,0.7,0.4,0.449273895924082,"true"
"image-keyboard-response",424,343378,"0.0-4.137-1.137","ds8h3zx340twnzm",43,"188.csv","","null","resources/maskTrios/BT4B.jpg","null","",NA,NA,NA,NA,""
"image-keyboard-response",425,344592,"0.0-4.137-2.137","ds8h3zx340twnzm",43,"188.csv","","null","resources/images/coin2.png","null","",NA,NA,NA,NA,""
"image-keyboard-response",426,344874,"0.0-4.138-0.138","ds8h3zx340twnzm",43,"188.csv","","280.70000000298023","resources/trios/L1T4A3.jpg","38","restless",0.2,0.7,0.4,0.353930956505422,"true"
"image-keyboard-response",427,345296,"0.0-4.138-1.138","ds8h3zx340twnzm",43,"188.csv","","null","resources/maskTrios/BT4B.jpg","null","",NA,NA,NA,NA,""
"image-keyboard-response",428,346511,"0.0-4.138-2.138","ds8h3zx340twnzm",43,"188.csv","","null","resources/images/coin2.png","null","",NA,NA,NA,NA,""
"image-keyboard-response",429,346755,"0.0-4.139-0.139","ds8h3zx340twnzm",43,"188.csv","","242.70000000298023","resources/trios/L1T4A3.jpg","38","restless",0.2,0.7,0.4,0.671095410194533,"true"
"image-keyboard-response",430,347166,"0.0-4.139-1.139","ds8h3zx340twnzm",43,"188.csv","","null","resources/maskTrios/BT4B.jpg","null","",NA,NA,NA,NA,""
"image-keyboard-response",431,348379,"0.0-4.139-2.139","ds8h3zx340twnzm",43,"188.csv","","null","resources/images/coin2.png","null","",NA,NA,NA,NA,""
"image-keyboard-response",432,348776,"0.0-4.140-0.140","ds8h3zx340twnzm",43,"188.csv","","395.5","resources/trios/L1T4A3.jpg","38","restless",0.2,0.7,0.4,0.619764937813025,"true"
"image-keyboard-response",433,349178,"0.0-4.140-1.140","ds8h3zx340twnzm",43,"188.csv","","null","resources/maskTrios/BT4B.jpg","null","",NA,NA,NA,NA,""
"image-keyboard-response",434,350392,"0.0-4.140-2.140","ds8h3zx340twnzm",43,"188.csv","","null","resources/images/coin2.png","null","",NA,NA,NA,NA,""
"image-keyboard-response",435,350883,"0.0-4.141-0.141","ds8h3zx340twnzm",43,"188.csv","","489.5","resources/trios/L1T4A3.jpg","38","restless",0.2,0.7,0.4,0.97154442861929,"false"
"image-keyboard-response",436,351285,"0.0-4.141-1.141","ds8h3zx340twnzm",43,"188.csv","","null","resources/maskTrios/BT4B.jpg","null","",NA,NA,NA,NA,""
"image-keyboard-response",437,352500,"0.0-4.141-2.141","ds8h3zx340twnzm",43,"188.csv","","null","resources/images/fishbone.png","null","",NA,NA,NA,NA,""
"image-keyboard-response",438,352958,"0.0-4.142-0.142","ds8h3zx340twnzm",43,"188.csv","","457.40000000596046","resources/trios/L1T4A3.jpg","38","restless",0.2,0.7,0.4,0.989536790994886,"false"
"image-keyboard-response",439,353363,"0.0-4.142-1.142","ds8h3zx340twnzm",43,"188.csv","","null","resources/maskTrios/BT4B.jpg","null","",NA,NA,NA,NA,""
"image-keyboard-response",440,354579,"0.0-4.142-2.142","ds8h3zx340twnzm",43,"188.csv","","null","resources/images/fishbone.png","null","",NA,NA,NA,NA,""
"image-keyboard-response",441,354783,"0.0-4.143-0.143","ds8h3zx340twnzm",43,"188.csv","","202.79999999701977","resources/trios/L1T4A3.jpg","39","restless",0.2,0.6,0.4,0.768905704186455,"false"
"image-keyboard-response",442,355238,"0.0-4.143-1.143","ds8h3zx340twnzm",43,"188.csv","","null","resources/maskTrios/BBA3.jpg","null","",NA,NA,NA,NA,""
"image-keyboard-response",443,356442,"0.0-4.143-2.143","ds8h3zx340twnzm",43,"188.csv","","null","resources/images/fishbone.png","null","",NA,NA,NA,NA,""
"image-keyboard-response",444,356669,"0.0-4.144-0.144","ds8h3zx340twnzm",43,"188.csv","","226.1000000089407","resources/trios/L1T4A3.jpg","37","restless",0.2,0.6,0.4,0.279784794989064,"false"
"image-keyboard-response",445,357081,"0.0-4.144-1.144","ds8h3zx340twnzm",43,"188.csv","","null","resources/maskTrios/L1BB.jpg","null","",NA,NA,NA,NA,""
"image-keyboard-response",446,358292,"0.0-4.144-2.144","ds8h3zx340twnzm",43,"188.csv","","null","resources/images/fishbone.png","null","",NA,NA,NA,NA,""
"image-keyboard-response",447,358448,"0.0-4.145-0.145","ds8h3zx340twnzm",43,"188.csv","","155.20000000298023","resources/trios/L1T4A3.jpg","37","restless",0.2,0.6,0.4,0.047358147098933,"true"
"image-keyboard-response",448,358862,"0.0-4.145-1.145","ds8h3zx340twnzm",43,"188.csv","","null","resources/maskTrios/L1BB.jpg","null","",NA,NA,NA,NA,""
"image-keyboard-response",449,360078,"0.0-4.145-2.145","ds8h3zx340twnzm",43,"188.csv","","null","resources/images/coin2.png","null","",NA,NA,NA,NA,""
"image-keyboard-response",450,360309,"0.0-4.146-0.146","ds8h3zx340twnzm",43,"188.csv","","230.29999999701977","resources/trios/L1T4A3.jpg","37","restless",0.2,0.6,0.4,0.211971038311437,"false"
"image-keyboard-response",451,360714,"0.0-4.146-1.146","ds8h3zx340twnzm",43,"188.csv","","null","resources/maskTrios/L1BB.jpg","null","",NA,NA,NA,NA,""
"image-keyboard-response",452,361925,"0.0-4.146-2.146","ds8h3zx340twnzm",43,"188.csv","","null","resources/images/fishbone.png","null","",NA,NA,NA,NA,""
"image-keyboard-response",453,362221,"0.0-4.147-0.147","ds8h3zx340twnzm",43,"188.csv","","295.40000000596046","resources/trios/L1T4A3.jpg","37","restless",0.2,0.6,0.4,0.898283454202483,"false"
"image-keyboard-response",454,362625,"0.0-4.147-1.147","ds8h3zx340twnzm",43,"188.csv","","null","resources/maskTrios/L1BB.jpg","null","",NA,NA,NA,NA,""
"image-keyboard-response",455,363841,"0.0-4.147-2.147","ds8h3zx340twnzm",43,"188.csv","","null","resources/images/fishbone.png","null","",NA,NA,NA,NA,""
"image-keyboard-response",456,364041,"0.0-4.148-0.148","ds8h3zx340twnzm",43,"188.csv","","198.5","resources/trios/L1T4A3.jpg","37","restless",0.1,0.5,0.5,0.300148630308853,"false"
"image-keyboard-response",457,364457,"0.0-4.148-1.148","ds8h3zx340twnzm",43,"188.csv","","null","resources/maskTrios/L1BB.jpg","null","",NA,NA,NA,NA,""
"image-keyboard-response",458,365663,"0.0-4.148-2.148","ds8h3zx340twnzm",43,"188.csv","","null","resources/images/fishbone.png","null","",NA,NA,NA,NA,""
"image-keyboard-response",459,365792,"0.0-4.149-0.149","ds8h3zx340twnzm",43,"188.csv","","124.6000000089407","resources/trios/L1T4A3.jpg","37","restless",0.1,0.5,0.5,0.451843403074796,"false"
"image-keyboard-response",460,366209,"0.0-4.149-1.149","ds8h3zx340twnzm",43,"188.csv","","null","resources/maskTrios/L1BB.jpg","null","",NA,NA,NA,NA,""
"image-keyboard-response",461,367411,"0.0-4.149-2.149","ds8h3zx340twnzm",43,"188.csv","","null","resources/images/fishbone.png","null","",NA,NA,NA,NA,""
"image-keyboard-response",462,367594,"0.0-4.150-0.150","ds8h3zx340twnzm",43,"188.csv","","181.09999999403954","resources/trios/L1T4A3.jpg","37","restless",0.1,0.5,0.6,0.963757944762032,"false"
"image-keyboard-response",463,367997,"0.0-4.150-1.150","ds8h3zx340twnzm",43,"188.csv","","null","resources/maskTrios/L1BB.jpg","null","",NA,NA,NA,NA,""
"image-keyboard-response",464,369212,"0.0-4.150-2.150","ds8h3zx340twnzm",43,"188.csv","","null","resources/images/fishbone.png","null","",NA,NA,NA,NA,""
"image-keyboard-response",465,369239,"0.0-4.151-0.151","ds8h3zx340twnzm",43,"188.csv","","25.200000002980232","resources/trios/L1T4A3.jpg","38","restless",0.1,0.5,0.6,0.981094708889027,"false"
"image-keyboard-response",466,369648,"0.0-4.151-1.151","ds8h3zx340twnzm",43,"188.csv","","null","resources/maskTrios/BT4B.jpg","null","",NA,NA,NA,NA,""
"image-keyboard-response",467,370850,"0.0-4.151-2.151","ds8h3zx340twnzm",43,"188.csv","","null","resources/images/fishbone.png","null","",NA,NA,NA,NA,""
"image-keyboard-response",468,370860,"0.0-4.152-0.152","ds8h3zx340twnzm",43,"188.csv","","9.099999994039536","resources/trios/L1T4A3.jpg","39","restless",0.1,0.5,0.6,0.433511529455855,"true"
"image-keyboard-response",469,371264,"0.0-4.152-1.152","ds8h3zx340twnzm",43,"188.csv","","null","resources/maskTrios/BBA3.jpg","null","",NA,NA,NA,NA,""
"image-keyboard-response",470,372480,"0.0-4.152-2.152","ds8h3zx340twnzm",43,"188.csv","","null","resources/images/coin2.png","null","",NA,NA,NA,NA,""
"image-keyboard-response",471,372608,"0.0-4.153-0.153","ds8h3zx340twnzm",43,"188.csv","","127.29999999701977","resources/trios/L1T4A3.jpg","39","restless",0.1,0.6,0.6,0.347490544022942,"true"
"image-keyboard-response",472,373011,"0.0-4.153-1.153","ds8h3zx340twnzm",43,"188.csv","","null","resources/maskTrios/BBA3.jpg","null","",NA,NA,NA,NA,""
"image-keyboard-response",473,374214,"0.0-4.153-2.153","ds8h3zx340twnzm",43,"188.csv","","null","resources/images/coin2.png","null","",NA,NA,NA,NA,""
"image-keyboard-response",474,374524,"0.0-4.154-0.154","ds8h3zx340twnzm",43,"188.csv","","308.8999999910593","resources/trios/L1T4A3.jpg","39","restless",0.1,0.6,0.6,0.699319178024406,"false"
"image-keyboard-response",475,374928,"0.0-4.154-1.154","ds8h3zx340twnzm",43,"188.csv","","null","resources/maskTrios/BBA3.jpg","null","",NA,NA,NA,NA,""
"image-keyboard-response",476,376143,"0.0-4.154-2.154","ds8h3zx340twnzm",43,"188.csv","","null","resources/images/fishbone.png","null","",NA,NA,NA,NA,""
"image-keyboard-response",477,376513,"0.0-4.155-0.155","ds8h3zx340twnzm",43,"188.csv","","368.20000000298023","resources/trios/L1T4A3.jpg","38","restless",0.1,0.6,0.5,0.735162197933902,"false"
"image-keyboard-response",478,376924,"0.0-4.155-1.155","ds8h3zx340twnzm",43,"188.csv","","null","resources/maskTrios/BT4B.jpg","null","",NA,NA,NA,NA,""
"image-keyboard-response",479,378139,"0.0-4.155-2.155","ds8h3zx340twnzm",43,"188.csv","","null","resources/images/fishbone.png","null","",NA,NA,NA,NA,""
"image-keyboard-response",480,378250,"0.0-4.156-0.156","ds8h3zx340twnzm",43,"188.csv","","110","resources/trios/L1T4A3.jpg","37","restless",0.1,0.6,0.5,0.990412973171057,"false"
"image-keyboard-response",481,378659,"0.0-4.156-1.156","ds8h3zx340twnzm",43,"188.csv","","null","resources/maskTrios/L1BB.jpg","null","",NA,NA,NA,NA,""
"image-keyboard-response",482,379877,"0.0-4.156-2.156","ds8h3zx340twnzm",43,"188.csv","","null","resources/images/fishbone.png","null","",NA,NA,NA,NA,""
"image-keyboard-response",483,379907,"0.0-4.157-0.157","ds8h3zx340twnzm",43,"188.csv","","29","resources/trios/L1T4A3.jpg","39","restless",0.1,0.6,0.5,0.348012830714916,"true"
"image-keyboard-response",484,380311,"0.0-4.157-1.157","ds8h3zx340twnzm",43,"188.csv","","null","resources/maskTrios/BBA3.jpg","null","",NA,NA,NA,NA,""
"image-keyboard-response",485,381528,"0.0-4.157-2.157","ds8h3zx340twnzm",43,"188.csv","","null","resources/images/coin2.png","null","",NA,NA,NA,NA,""
"image-keyboard-response",486,381731,"0.0-4.158-0.158","ds8h3zx340twnzm",43,"188.csv","","201","resources/trios/L1T4A3.jpg","39","restless",0.1,0.6,0.5,0.610364217742188,"false"
"image-keyboard-response",487,382149,"0.0-4.158-1.158","ds8h3zx340twnzm",43,"188.csv","","null","resources/maskTrios/BBA3.jpg","null","",NA,NA,NA,NA,""
"image-keyboard-response",488,383362,"0.0-4.158-2.158","ds8h3zx340twnzm",43,"188.csv","","null","resources/images/fishbone.png","null","",NA,NA,NA,NA,""
"image-keyboard-response",489,383576,"0.0-4.159-0.159","ds8h3zx340twnzm",43,"188.csv","","213","resources/trios/L1T4A3.jpg","38","restless",0.1,0.6,0.5,0.768054492469602,"false"
"image-keyboard-response",490,383983,"0.0-4.159-1.159","ds8h3zx340twnzm",43,"188.csv","","null","resources/maskTrios/BT4B.jpg","null","",NA,NA,NA,NA,""
"image-keyboard-response",491,385187,"0.0-4.159-2.159","ds8h3zx340twnzm",43,"188.csv","","null","resources/images/fishbone.png","null","",NA,NA,NA,NA,""
"image-keyboard-response",492,385349,"0.0-4.160-0.160","ds8h3zx340twnzm",43,"188.csv","","161.20000000298023","resources/trios/L1T4A3.jpg","37","restless",0.1,0.6,0.5,0.270854134071948,"false"
"image-keyboard-response",493,385762,"0.0-4.160-1.160","ds8h3zx340twnzm",43,"188.csv","","null","resources/maskTrios/L1BB.jpg","null","",NA,NA,NA,NA,""
"image-keyboard-response",494,386975,"0.0-4.160-2.160","ds8h3zx340twnzm",43,"188.csv","","null","resources/images/fishbone.png","null","",NA,NA,NA,NA,""
"image-keyboard-response",495,387052,"0.0-4.161-0.161","ds8h3zx340twnzm",43,"188.csv","","75.1000000089407","resources/trios/L1T4A3.jpg","39","restless",0.1,0.6,0.5,0.851515656237847,"false"
"image-keyboard-response",496,387465,"0.0-4.161-1.161","ds8h3zx340twnzm",43,"188.csv","","null","resources/maskTrios/BBA3.jpg","null","",NA,NA,NA,NA,""
"image-keyboard-response",497,388672,"0.0-4.161-2.161","ds8h3zx340twnzm",43,"188.csv","","null","resources/images/fishbone.png","null","",NA,NA,NA,NA,""
"image-keyboard-response",498,388801,"0.0-4.162-0.162","ds8h3zx340twnzm",43,"188.csv","","127.19999998807907","resources/trios/L1T4A3.jpg","38","restless",0.1,0.6,0.5,0.336440484435768,"true"
"image-keyboard-response",499,389210,"0.0-4.162-1.162","ds8h3zx340twnzm",43,"188.csv","","null","resources/maskTrios/BT4B.jpg","null","",NA,NA,NA,NA,""
"image-keyboard-response",500,390424,"0.0-4.162-2.162","ds8h3zx340twnzm",43,"188.csv","","null","resources/images/coin2.png","null","",NA,NA,NA,NA,""
"image-keyboard-response",501,390506,"0.0-4.163-0.163","ds8h3zx340twnzm",43,"188.csv","","80.90000000596046","resources/trios/L1T4A3.jpg","38","restless",0.2,0.6,0.5,0.46041998704116,"true"
"image-keyboard-response",502,390912,"0.0-4.163-1.163","ds8h3zx340twnzm",43,"188.csv","","null","resources/maskTrios/BT4B.jpg","null","",NA,NA,NA,NA,""
"image-keyboard-response",503,392129,"0.0-4.163-2.163","ds8h3zx340twnzm",43,"188.csv","","null","resources/images/coin2.png","null","",NA,NA,NA,NA,""
"image-keyboard-response",504,392183,"0.0-4.164-0.164","ds8h3zx340twnzm",43,"188.csv","","53.3999999910593","resources/trios/L1T4A3.jpg","38","restless",0.2,0.6,0.5,0.891645341036404,"false"
"image-keyboard-response",505,392593,"0.0-4.164-1.164","ds8h3zx340twnzm",43,"188.csv","","null","resources/maskTrios/BT4B.jpg","null","",NA,NA,NA,NA,""
"image-keyboard-response",506,393796,"0.0-4.164-2.164","ds8h3zx340twnzm",43,"188.csv","","null","resources/images/fishbone.png","null","",NA,NA,NA,NA,""
"image-keyboard-response",507,394197,"0.0-4.165-0.165","ds8h3zx340twnzm",43,"188.csv","","399.70000000298023","resources/trios/L1T4A3.jpg","37","restless",0.2,0.6,0.5,0.625993424976711,"false"
"image-keyboard-response",508,394609,"0.0-4.165-1.165","ds8h3zx340twnzm",43,"188.csv","","null","resources/maskTrios/L1BB.jpg","null","",NA,NA,NA,NA,""
"image-keyboard-response",509,395813,"0.0-4.165-2.165","ds8h3zx340twnzm",43,"188.csv","","null","resources/images/fishbone.png","null","",NA,NA,NA,NA,""
"image-keyboard-response",510,396069,"0.0-4.166-0.166","ds8h3zx340twnzm",43,"188.csv","","254.79999999701977","resources/trios/L1T4A3.jpg","39","restless",0.3,0.6,0.5,0.0391925226079277,"true"
"image-keyboard-response",511,396475,"0.0-4.166-1.166","ds8h3zx340twnzm",43,"188.csv","","null","resources/maskTrios/BBA3.jpg","null","",NA,NA,NA,NA,""
"image-keyboard-response",512,397686,"0.0-4.166-2.166","ds8h3zx340twnzm",43,"188.csv","","null","resources/images/coin2.png","null","",NA,NA,NA,NA,""
"image-keyboard-response",513,397874,"0.0-4.167-0.167","ds8h3zx340twnzm",43,"188.csv","","186.6000000089407","resources/trios/L1T4A3.jpg","39","restless",0.3,0.6,0.5,0.614095775386552,"false"
"image-keyboard-response",514,398279,"0.0-4.167-1.167","ds8h3zx340twnzm",43,"188.csv","","null","resources/maskTrios/BBA3.jpg","null","",NA,NA,NA,NA,""
"image-keyboard-response",515,399493,"0.0-4.167-2.167","ds8h3zx340twnzm",43,"188.csv","","null","resources/images/fishbone.png","null","",NA,NA,NA,NA,""
"image-keyboard-response",516,399573,"0.0-4.168-0.168","ds8h3zx340twnzm",43,"188.csv","","76.40000000596046","resources/trios/L1T4A3.jpg","38","restless",0.4,0.6,0.5,0.98663701558357,"false"
"image-keyboard-response",517,399987,"0.0-4.168-1.168","ds8h3zx340twnzm",43,"188.csv","","null","resources/maskTrios/BT4B.jpg","null","",NA,NA,NA,NA,""
"image-keyboard-response",518,401189,"0.0-4.168-2.168","ds8h3zx340twnzm",43,"188.csv","","null","resources/images/fishbone.png","null","",NA,NA,NA,NA,""
"image-keyboard-response",519,401403,"0.0-4.169-0.169","ds8h3zx340twnzm",43,"188.csv","","213.40000000596046","resources/trios/L1T4A3.jpg","37","restless",0.4,0.5,0.5,0.44206178671183,"false"
"image-keyboard-response",520,401814,"0.0-4.169-1.169","ds8h3zx340twnzm",43,"188.csv","","null","resources/maskTrios/L1BB.jpg","null","",NA,NA,NA,NA,""
"image-keyboard-response",521,403025,"0.0-4.169-2.169","ds8h3zx340twnzm",43,"188.csv","","null","resources/images/fishbone.png","null","",NA,NA,NA,NA,""
"image-keyboard-response",522,403228,"0.0-4.170-0.170","ds8h3zx340twnzm",43,"188.csv","","201","resources/trios/L1T4A3.jpg","39","restless",0.4,0.5,0.5,0.89286100097045,"false"
"image-keyboard-response",523,403638,"0.0-4.170-1.170","ds8h3zx340twnzm",43,"188.csv","","null","resources/maskTrios/BBA3.jpg","null","",NA,NA,NA,NA,""
"image-keyboard-response",524,404840,"0.0-4.170-2.170","ds8h3zx340twnzm",43,"188.csv","","null","resources/images/fishbone.png","null","",NA,NA,NA,NA,""
"image-keyboard-response",525,404969,"0.0-4.171-0.171","ds8h3zx340twnzm",43,"188.csv","","127.59999999403954","resources/trios/L1T4A3.jpg","38","restless",0.5,0.4,0.5,0.0478366109451884,"true"
"image-keyboard-response",526,405378,"0.0-4.171-1.171","ds8h3zx340twnzm",43,"188.csv","","null","resources/maskTrios/BT4B.jpg","null","",NA,NA,NA,NA,""
"image-keyboard-response",527,406595,"0.0-4.171-2.171","ds8h3zx340twnzm",43,"188.csv","","null","resources/images/coin2.png","null","",NA,NA,NA,NA,""
"image-keyboard-response",528,406885,"0.0-4.172-0.172","ds8h3zx340twnzm",43,"188.csv","","288.70000000298023","resources/trios/L1T4A3.jpg","38","restless",0.5,0.4,0.5,0.248574420271503,"true"
"image-keyboard-response",529,407293,"0.0-4.172-1.172","ds8h3zx340twnzm",43,"188.csv","","null","resources/maskTrios/BT4B.jpg","null","",NA,NA,NA,NA,""
"image-keyboard-response",530,408512,"0.0-4.172-2.172","ds8h3zx340twnzm",43,"188.csv","","null","resources/images/coin2.png","null","",NA,NA,NA,NA,""
"image-keyboard-response",531,409058,"0.0-4.173-0.173","ds8h3zx340twnzm",43,"188.csv","","545.3999999910593","resources/trios/L1T4A3.jpg","38","restless",0.5,0.4,0.5,0.904439073216482,"false"
"image-keyboard-response",532,409479,"0.0-4.173-1.173","ds8h3zx340twnzm",43,"188.csv","","null","resources/maskTrios/BT4B.jpg","null","",NA,NA,NA,NA,""
"image-keyboard-response",533,410695,"0.0-4.173-2.173","ds8h3zx340twnzm",43,"188.csv","","null","resources/images/fishbone.png","null","",NA,NA,NA,NA,""
"image-keyboard-response",534,411081,"0.0-4.174-0.174","ds8h3zx340twnzm",43,"188.csv","","384.30000001192093","resources/trios/L1T4A3.jpg","37","restless",0.5,0.4,0.5,0.163046472330405,"true"
"image-keyboard-response",535,411498,"0.0-4.174-1.174","ds8h3zx340twnzm",43,"188.csv","","null","resources/maskTrios/L1BB.jpg","null","",NA,NA,NA,NA,""
"image-keyboard-response",536,412709,"0.0-4.174-2.174","ds8h3zx340twnzm",43,"188.csv","","null","resources/images/coin2.png","null","",NA,NA,NA,NA,""
"image-keyboard-response",537,413153,"0.0-4.175-0.175","ds8h3zx340twnzm",43,"188.csv","","441.59999999403954","resources/trios/L1T4A3.jpg","39","restless",0.5,0.4,0.5,0.722777878837332,"false"
"image-keyboard-response",538,413562,"0.0-4.175-1.175","ds8h3zx340twnzm",43,"188.csv","","null","resources/maskTrios/BBA3.jpg","null","",NA,NA,NA,NA,""
"image-keyboard-response",539,414778,"0.0-4.175-2.175","ds8h3zx340twnzm",43,"188.csv","","null","resources/images/fishbone.png","null","",NA,NA,NA,NA,""
"image-keyboard-response",540,415103,"0.0-4.176-0.176","ds8h3zx340twnzm",43,"188.csv","","324.5","resources/trios/L1T4A3.jpg","37","restless",0.5,0.4,0.5,0.746590485834488,"false"
"image-keyboard-response",541,415511,"0.0-4.176-1.176","ds8h3zx340twnzm",43,"188.csv","","null","resources/maskTrios/L1BB.jpg","null","",NA,NA,NA,NA,""
"image-keyboard-response",542,416728,"0.0-4.176-2.176","ds8h3zx340twnzm",43,"188.csv","","null","resources/images/fishbone.png","null","",NA,NA,NA,NA,""
"image-keyboard-response",543,416996,"0.0-4.177-0.177","ds8h3zx340twnzm",43,"188.csv","","266","resources/trios/L1T4A3.jpg","38","restless",0.5,0.4,0.4,0.739160431400707,"false"
"image-keyboard-response",544,417407,"0.0-4.177-1.177","ds8h3zx340twnzm",43,"188.csv","","null","resources/maskTrios/BT4B.jpg","null","",NA,NA,NA,NA,""
"image-keyboard-response",545,418625,"0.0-4.177-2.177","ds8h3zx340twnzm",43,"188.csv","","null","resources/images/fishbone.png","null","",NA,NA,NA,NA,""
"image-keyboard-response",546,418888,"0.0-4.178-0.178","ds8h3zx340twnzm",43,"188.csv","","258.8999999910593","resources/trios/L1T4A3.jpg","37","restless",0.5,0.4,0.4,0.817414628915896,"false"
"image-keyboard-response",547,419297,"0.0-4.178-1.178","ds8h3zx340twnzm",43,"188.csv","","null","resources/maskTrios/L1BB.jpg","null","",NA,NA,NA,NA,""
"image-keyboard-response",548,420501,"0.0-4.178-2.178","ds8h3zx340twnzm",43,"188.csv","","null","resources/images/fishbone.png","null","",NA,NA,NA,NA,""
"image-keyboard-response",549,420752,"0.0-4.179-0.179","ds8h3zx340twnzm",43,"188.csv","","250.59999999403954","resources/trios/L1T4A3.jpg","39","restless",0.5,0.4,0.4,0.936821691096366,"false"
"image-keyboard-response",550,421155,"0.0-4.179-1.179","ds8h3zx340twnzm",43,"188.csv","","null","resources/maskTrios/BBA3.jpg","null","",NA,NA,NA,NA,""
"image-keyboard-response",551,422359,"0.0-4.179-2.179","ds8h3zx340twnzm",43,"188.csv","","null","resources/images/fishbone.png","null","",NA,NA,NA,NA,""
"image-keyboard-response",552,422649,"0.0-4.180-0.180","ds8h3zx340twnzm",43,"188.csv","","287.69999998807907","resources/trios/L1T4A3.jpg","38","restless",0.5,0.3,0.4,0.3322959497463,"false"
"image-keyboard-response",553,423062,"0.0-4.180-1.180","ds8h3zx340twnzm",43,"188.csv","","null","resources/maskTrios/BT4B.jpg","null","",NA,NA,NA,NA,""
"image-keyboard-response",554,424274,"0.0-4.180-2.180","ds8h3zx340twnzm",43,"188.csv","","null","resources/images/fishbone.png","null","",NA,NA,NA,NA,""
"image-keyboard-response",555,424484,"0.0-4.181-0.181","ds8h3zx340twnzm",43,"188.csv","","208.70000000298023","resources/trios/L1T4A3.jpg","38","restless",0.5,0.3,0.4,0.908631645012378,"false"
"image-keyboard-response",556,424890,"0.0-4.181-1.181","ds8h3zx340twnzm",43,"188.csv","","null","resources/maskTrios/BT4B.jpg","null","",NA,NA,NA,NA,""
"image-keyboard-response",557,426094,"0.0-4.181-2.181","ds8h3zx340twnzm",43,"188.csv","","null","resources/images/fishbone.png","null","",NA,NA,NA,NA,""
"image-keyboard-response",558,426480,"0.0-4.182-0.182","ds8h3zx340twnzm",43,"188.csv","","384.5","resources/trios/L1T4A3.jpg","37","restless",0.5,0.2,0.4,0.692359437033548,"false"
"image-keyboard-response",559,426893,"0.0-4.182-1.182","ds8h3zx340twnzm",43,"188.csv","","null","resources/maskTrios/L1BB.jpg","null","",NA,NA,NA,NA,""
"image-keyboard-response",560,428109,"0.0-4.182-2.182","ds8h3zx340twnzm",43,"188.csv","","null","resources/images/fishbone.png","null","",NA,NA,NA,NA,""
"image-keyboard-response",561,428869,"0.0-4.183-0.183","ds8h3zx340twnzm",43,"188.csv","","758.1000000089407","resources/trios/L1T4A3.jpg","39","restless",0.5,0.2,0.5,0.268131563635679,"true"
"image-keyboard-response",562,429277,"0.0-4.183-1.183","ds8h3zx340twnzm",43,"188.csv","","null","resources/maskTrios/BBA3.jpg","null","",NA,NA,NA,NA,""
"image-keyboard-response",563,430491,"0.0-4.183-2.183","ds8h3zx340twnzm",43,"188.csv","","null","resources/images/coin2.png","null","",NA,NA,NA,NA,""
"image-keyboard-response",564,434046,"0.0-4.184-0.184","ds8h3zx340twnzm",43,"188.csv","","3550.199999988079","resources/trios/L1T4A3.jpg","38","restless",0.5,0.2,0.5,0.874929267970655,"false"
"image-keyboard-response",565,434457,"0.0-4.184-1.184","ds8h3zx340twnzm",43,"188.csv","","null","resources/maskTrios/BT4B.jpg","null","",NA,NA,NA,NA,""
"image-keyboard-response",566,435670,"0.0-4.184-2.184","ds8h3zx340twnzm",43,"188.csv","","null","resources/images/fishbone.png","null","",NA,NA,NA,NA,""
"image-keyboard-response",567,437276,"0.0-4.185-0.185","ds8h3zx340twnzm",43,"188.csv","","1612","resources/trios/L1T4A3.jpg","39","restless",0.5,0.2,0.4,0.83397317939724,"false"
"image-keyboard-response",568,437684,"0.0-4.185-1.185","ds8h3zx340twnzm",43,"188.csv","","null","resources/maskTrios/BBA3.jpg","null","",NA,NA,NA,NA,""
"image-keyboard-response",569,438900,"0.0-4.185-2.185","ds8h3zx340twnzm",43,"188.csv","","null","resources/images/fishbone.png","null","",NA,NA,NA,NA,""
"image-keyboard-response",570,443821,"0.0-4.186-0.186","ds8h3zx340twnzm",43,"188.csv","","4920.300000011921","resources/trios/L1T4A3.jpg","37","restless",0.5,0.1,0.4,0.490724666860222,"true"
"image-keyboard-response",571,444230,"0.0-4.186-1.186","ds8h3zx340twnzm",43,"188.csv","","null","resources/maskTrios/L1BB.jpg","null","",NA,NA,NA,NA,""
"image-keyboard-response",572,445434,"0.0-4.186-2.186","ds8h3zx340twnzm",43,"188.csv","","null","resources/images/coin2.png","null","",NA,NA,NA,NA,""
"image-keyboard-response",573,446307,"0.0-4.187-0.187","ds8h3zx340twnzm",43,"188.csv","","872.2999999970198","resources/trios/L1T4A3.jpg","37","restless",0.5,0.1,0.4,0.111417198453828,"true"
"image-keyboard-response",574,446726,"0.0-4.187-1.187","ds8h3zx340twnzm",43,"188.csv","","null","resources/maskTrios/L1BB.jpg","null","",NA,NA,NA,NA,""
"image-keyboard-response",575,447938,"0.0-4.187-2.187","ds8h3zx340twnzm",43,"188.csv","","null","resources/images/coin2.png","null","",NA,NA,NA,NA,""
"image-keyboard-response",576,448525,"0.0-4.188-0.188","ds8h3zx340twnzm",43,"188.csv","","586.2000000029802","resources/trios/L1T4A3.jpg","37","restless",0.5,0.1,0.3,0.574751041947738,"false"
"image-keyboard-response",577,448930,"0.0-4.188-1.188","ds8h3zx340twnzm",43,"188.csv","","null","resources/maskTrios/L1BB.jpg","null","",NA,NA,NA,NA,""
"image-keyboard-response",578,450146,"0.0-4.188-2.188","ds8h3zx340twnzm",43,"188.csv","","null","resources/images/fishbone.png","null","",NA,NA,NA,NA,""
"image-keyboard-response",579,450702,"0.0-4.189-0.189","ds8h3zx340twnzm",43,"188.csv","","555.7000000029802","resources/trios/L1T4A3.jpg","39","restless",0.5,0.1,0.4,0.585049680756424,"false"
"image-keyboard-response",580,451111,"0.0-4.189-1.189","ds8h3zx340twnzm",43,"188.csv","","null","resources/maskTrios/BBA3.jpg","null","",NA,NA,NA,NA,""
"image-keyboard-response",581,452329,"0.0-4.189-2.189","ds8h3zx340twnzm",43,"188.csv","","null","resources/images/fishbone.png","null","",NA,NA,NA,NA,""
"image-keyboard-response",582,452542,"0.0-4.190-0.190","ds8h3zx340twnzm",43,"188.csv","","210.09999999403954","resources/trios/L1T4A3.jpg","38","restless",0.5,0.1,0.4,0.690359115270202,"false"
"image-keyboard-response",583,452952,"0.0-4.190-1.190","ds8h3zx340twnzm",43,"188.csv","","null","resources/maskTrios/BT4B.jpg","null","",NA,NA,NA,NA,""
"image-keyboard-response",584,454162,"0.0-4.190-2.190","ds8h3zx340twnzm",43,"188.csv","","null","resources/images/fishbone.png","null","",NA,NA,NA,NA,""
"image-keyboard-response",585,454520,"0.0-4.191-0.191","ds8h3zx340twnzm",43,"188.csv","","356.70000000298023","resources/trios/L1T4A3.jpg","39","restless",0.5,0.1,0.4,0.715371199986276,"false"
"image-keyboard-response",586,454933,"0.0-4.191-1.191","ds8h3zx340twnzm",43,"188.csv","","null","resources/maskTrios/BBA3.jpg","null","",NA,NA,NA,NA,""
"image-keyboard-response",587,456150,"0.0-4.191-2.191","ds8h3zx340twnzm",43,"188.csv","","null","resources/images/fishbone.png","null","",NA,NA,NA,NA,""
"image-keyboard-response",588,456459,"0.0-4.192-0.192","ds8h3zx340twnzm",43,"188.csv","","306.79999999701977","resources/trios/L1T4A3.jpg","37","restless",0.5,0.1,0.4,0.959194088207048,"false"
"image-keyboard-response",589,456866,"0.0-4.192-1.192","ds8h3zx340twnzm",43,"188.csv","","null","resources/maskTrios/L1BB.jpg","null","",NA,NA,NA,NA,""
"image-keyboard-response",590,458073,"0.0-4.192-2.192","ds8h3zx340twnzm",43,"188.csv","","null","resources/images/fishbone.png","null","",NA,NA,NA,NA,""
"image-keyboard-response",591,458281,"0.0-4.193-0.193","ds8h3zx340twnzm",43,"188.csv","","207.20000000298023","resources/trios/L1T4A3.jpg","38","restless",0.5,0.2,0.4,0.241830398363356,"false"
"image-keyboard-response",592,458684,"0.0-4.193-1.193","ds8h3zx340twnzm",43,"188.csv","","null","resources/maskTrios/BT4B.jpg","null","",NA,NA,NA,NA,""
"image-keyboard-response",593,459890,"0.0-4.193-2.193","ds8h3zx340twnzm",43,"188.csv","","null","resources/images/fishbone.png","null","",NA,NA,NA,NA,""
"image-keyboard-response",594,460246,"0.0-4.194-0.194","ds8h3zx340twnzm",43,"188.csv","","354.5","resources/trios/L1T4A3.jpg","39","restless",0.5,0.2,0.4,0.13010388100956,"true"
"image-keyboard-response",595,460650,"0.0-4.194-1.194","ds8h3zx340twnzm",43,"188.csv","","null","resources/maskTrios/BBA3.jpg","null","",NA,NA,NA,NA,""
"image-keyboard-response",596,461862,"0.0-4.194-2.194","ds8h3zx340twnzm",43,"188.csv","","null","resources/images/coin2.png","null","",NA,NA,NA,NA,""
"image-keyboard-response",597,462175,"0.0-4.195-0.195","ds8h3zx340twnzm",43,"188.csv","","311.6000000089407","resources/trios/L1T4A3.jpg","39","restless",0.5,0.2,0.4,0.452707014885426,"false"
"image-keyboard-response",598,462585,"0.0-4.195-1.195","ds8h3zx340twnzm",43,"188.csv","","null","resources/maskTrios/BBA3.jpg","null","",NA,NA,NA,NA,""
"image-keyboard-response",599,463788,"0.0-4.195-2.195","ds8h3zx340twnzm",43,"188.csv","","null","resources/images/fishbone.png","null","",NA,NA,NA,NA,""
"image-keyboard-response",600,464131,"0.0-4.196-0.196","ds8h3zx340twnzm",43,"188.csv","","341.79999999701977","resources/trios/L1T4A3.jpg","39","restless",0.5,0.2,0.4,0.331002102378188,"true"
"image-keyboard-response",601,464535,"0.0-4.196-1.196","ds8h3zx340twnzm",43,"188.csv","","null","resources/maskTrios/BBA3.jpg","null","",NA,NA,NA,NA,""
"image-keyboard-response",602,465750,"0.0-4.196-2.196","ds8h3zx340twnzm",43,"188.csv","","null","resources/images/coin2.png","null","",NA,NA,NA,NA,""
"image-keyboard-response",603,466020,"0.0-4.197-0.197","ds8h3zx340twnzm",43,"188.csv","","268.1000000089407","resources/trios/L1T4A3.jpg","37","restless",0.5,0.2,0.4,0.52242641674235,"false"
"image-keyboard-response",604,466441,"0.0-4.197-1.197","ds8h3zx340twnzm",43,"188.csv","","null","resources/maskTrios/L1BB.jpg","null","",NA,NA,NA,NA,""
"image-keyboard-response",605,467646,"0.0-4.197-2.197","ds8h3zx340twnzm",43,"188.csv","","null","resources/images/fishbone.png","null","",NA,NA,NA,NA,""
"image-keyboard-response",606,467856,"0.0-4.198-0.198","ds8h3zx340twnzm",43,"188.csv","","209.5","resources/trios/L1T4A3.jpg","38","restless",0.5,0.2,0.4,0.139894138475478,"true"
"image-keyboard-response",607,468266,"0.0-4.198-1.198","ds8h3zx340twnzm",43,"188.csv","","null","resources/maskTrios/BT4B.jpg","null","",NA,NA,NA,NA,""
"image-keyboard-response",608,469481,"0.0-4.198-2.198","ds8h3zx340twnzm",43,"188.csv","","null","resources/images/coin2.png","null","",NA,NA,NA,NA,""
"image-keyboard-response",609,469742,"0.0-4.199-0.199","ds8h3zx340twnzm",43,"188.csv","","259.19999998807907","resources/trios/L1T4A3.jpg","38","restless",0.5,0.2,0.4,0.598873476853169,"false"
"image-keyboard-response",610,470151,"0.0-4.199-1.199","ds8h3zx340twnzm",43,"188.csv","","null","resources/maskTrios/BT4B.jpg","null","",NA,NA,NA,NA,""
"image-keyboard-response",611,471365,"0.0-4.199-2.199","ds8h3zx340twnzm",43,"188.csv","","null","resources/images/fishbone.png","null","",NA,NA,NA,NA,""
"survey-text",612,513746,"0.0-5.0","ds8h3zx340twnzm",43,"188.csv","","42367.60000000894","","","",NA,NA,NA,NA,""
