"trial_type","trial_index","time_elapsed","internal_node_id","subject","participantCode","walkNumber","success","rt","stimulus","key_press","test_part","leftProb","midProb","rightProb","generatedNum","correct"
"pavlovia",0,1156,"0.0-0.0","d7c5zmytwlqw3yu",942,"187.csv","","","","","",NA,NA,NA,NA,""
"fullscreen",1,4900,"0.0-1.0","d7c5zmytwlqw3yu",942,"187.csv","true","","","","",NA,NA,NA,NA,""
"survey-html-form",2,9396,"0.0-2.0","d7c5zmytwlqw3yu",942,"187.csv","","4486.70000000298","","","",NA,NA,NA,NA,""
"image-keyboard-response",3,33322,"0.0-3.0-0.0","d7c5zmytwlqw3yu",942,"187.csv","","23923.89999999851","resources/images/parrot_nobg.png","13","",NA,NA,NA,NA,""
"image-keyboard-response",4,36325,"0.0-3.0-1.0","d7c5zmytwlqw3yu",942,"187.csv","","null","resources/image_sets/111.png","null","",NA,NA,NA,NA,""
"image-keyboard-response",5,40653,"0.0-3.0-2.0","d7c5zmytwlqw3yu",942,"187.csv","","4326.20000000298","resources/image_sets/left_highlight.png","37","",NA,NA,NA,NA,""
"image-keyboard-response",6,43195,"0.0-3.0-3.0","d7c5zmytwlqw3yu",942,"187.csv","","2540.6999999955297","resources/image_sets/mid_highlight.png","38","",NA,NA,NA,NA,""
"image-keyboard-response",7,45093,"0.0-3.0-4.0","d7c5zmytwlqw3yu",942,"187.csv","","1897.2999999970198","resources/image_sets/right_highlight.png","39","",NA,NA,NA,NA,""
"image-keyboard-response",8,49600,"0.0-3.0-5.0","d7c5zmytwlqw3yu",942,"187.csv","","4505.60000000149","resources/image_sets/111.png","13","",NA,NA,NA,NA,""
"image-keyboard-response",9,52366,"0.0-3.0-6.0","d7c5zmytwlqw3yu",942,"187.csv","","2765.10000000149","resources/images/coin2.png","13","",NA,NA,NA,NA,""
"image-keyboard-response",10,54585,"0.0-3.0-7.0","d7c5zmytwlqw3yu",942,"187.csv","","2218.6999999955297","resources/images/fishbone.png","13","",NA,NA,NA,NA,""
"html-keyboard-response",11,61913,"0.0-3.0-8.0","d7c5zmytwlqw3yu",942,"187.csv","","7327.0999999940395","<p>You can track your coin total on the top right of your screen. </p><p>At the end of your journey you will be directed to a survey, so please click on the link before exiting the task</p><p>Press Enter to begin</p>","13","",NA,NA,NA,NA,""
"image-keyboard-response",12,65551,"0.0-4.0-0.0","d7c5zmytwlqw3yu",942,"187.csv","","3635.7999999970198","resources/trios/L4T2A2.jpg","37","restless",0.9,0.7,0.3,0.949979666307226,"false"
"image-keyboard-response",13,65955,"0.0-4.0-1.0","d7c5zmytwlqw3yu",942,"187.csv","","null","resources/maskTrios/L4BB.jpg","null","",NA,NA,NA,NA,""
"image-keyboard-response",14,67159,"0.0-4.0-2.0","d7c5zmytwlqw3yu",942,"187.csv","","null","resources/images/fishbone.png","null","",NA,NA,NA,NA,""
"image-keyboard-response",15,71924,"0.0-4.1-0.1","d7c5zmytwlqw3yu",942,"187.csv","","4763","resources/trios/L4T2A2.jpg","38","restless",0.9,0.7,0.3,0.189284001017787,"true"
"image-keyboard-response",16,72327,"0.0-4.1-1.1","d7c5zmytwlqw3yu",942,"187.csv","","null","resources/maskTrios/BT2B.jpg","null","",NA,NA,NA,NA,""
"image-keyboard-response",17,73533,"0.0-4.1-2.1","d7c5zmytwlqw3yu",942,"187.csv","","null","resources/images/coin2.png","null","",NA,NA,NA,NA,""
"image-keyboard-response",18,74301,"0.0-4.2-0.2","d7c5zmytwlqw3yu",942,"187.csv","","765.2999999970198","resources/trios/L4T2A2.jpg","38","restless",0.8,0.7,0.3,0.745870867707781,"false"
"image-keyboard-response",19,74704,"0.0-4.2-1.2","d7c5zmytwlqw3yu",942,"187.csv","","null","resources/maskTrios/BT2B.jpg","null","",NA,NA,NA,NA,""
"image-keyboard-response",20,75907,"0.0-4.2-2.2","d7c5zmytwlqw3yu",942,"187.csv","","null","resources/images/fishbone.png","null","",NA,NA,NA,NA,""
"image-keyboard-response",21,77446,"0.0-4.3-0.3","d7c5zmytwlqw3yu",942,"187.csv","","1536.8999999985099","resources/trios/L4T2A2.jpg","39","restless",0.8,0.7,0.4,0.584176712631916,"false"
"image-keyboard-response",22,77849,"0.0-4.3-1.3","d7c5zmytwlqw3yu",942,"187.csv","","null","resources/maskTrios/BBA2.jpg","null","",NA,NA,NA,NA,""
"image-keyboard-response",23,79051,"0.0-4.3-2.3","d7c5zmytwlqw3yu",942,"187.csv","","null","resources/images/fishbone.png","null","",NA,NA,NA,NA,""
"image-keyboard-response",24,80996,"0.0-4.4-0.4","d7c5zmytwlqw3yu",942,"187.csv","","1942.6000000014901","resources/trios/L4T2A2.jpg","37","restless",0.8,0.7,0.4,0.828787623683675,"false"
"image-keyboard-response",25,81399,"0.0-4.4-1.4","d7c5zmytwlqw3yu",942,"187.csv","","null","resources/maskTrios/L4BB.jpg","null","",NA,NA,NA,NA,""
"image-keyboard-response",26,82601,"0.0-4.4-2.4","d7c5zmytwlqw3yu",942,"187.csv","","null","resources/images/fishbone.png","null","",NA,NA,NA,NA,""
"image-keyboard-response",27,83776,"0.0-4.5-0.5","d7c5zmytwlqw3yu",942,"187.csv","","1172.8999999985099","resources/trios/L4T2A2.jpg","38","restless",0.8,0.7,0.4,0.583443717092548,"true"
"image-keyboard-response",28,84179,"0.0-4.5-1.5","d7c5zmytwlqw3yu",942,"187.csv","","null","resources/maskTrios/BT2B.jpg","null","",NA,NA,NA,NA,""
"image-keyboard-response",29,85382,"0.0-4.5-2.5","d7c5zmytwlqw3yu",942,"187.csv","","null","resources/images/coin2.png","null","",NA,NA,NA,NA,""
"image-keyboard-response",30,86277,"0.0-4.6-0.6","d7c5zmytwlqw3yu",942,"187.csv","","893.1000000014901","resources/trios/L4T2A2.jpg","38","restless",0.8,0.7,0.4,0.455750309597666,"true"
"image-keyboard-response",31,86680,"0.0-4.6-1.6","d7c5zmytwlqw3yu",942,"187.csv","","null","resources/maskTrios/BT2B.jpg","null","",NA,NA,NA,NA,""
"image-keyboard-response",32,87882,"0.0-4.6-2.6","d7c5zmytwlqw3yu",942,"187.csv","","null","resources/images/coin2.png","null","",NA,NA,NA,NA,""
"image-keyboard-response",33,88763,"0.0-4.7-0.7","d7c5zmytwlqw3yu",942,"187.csv","","878.7999999970198","resources/trios/L4T2A2.jpg","38","restless",0.8,0.7,0.4,0.108202474518722,"true"
"image-keyboard-response",34,89166,"0.0-4.7-1.7","d7c5zmytwlqw3yu",942,"187.csv","","null","resources/maskTrios/BT2B.jpg","null","",NA,NA,NA,NA,""
"image-keyboard-response",35,90369,"0.0-4.7-2.7","d7c5zmytwlqw3yu",942,"187.csv","","null","resources/images/coin2.png","null","",NA,NA,NA,NA,""
"image-keyboard-response",36,90821,"0.0-4.8-0.8","d7c5zmytwlqw3yu",942,"187.csv","","450.1000000014901","resources/trios/L4T2A2.jpg","38","restless",0.8,0.7,0.4,0.0766892093821565,"true"
"image-keyboard-response",37,91223,"0.0-4.8-1.8","d7c5zmytwlqw3yu",942,"187.csv","","null","resources/maskTrios/BT2B.jpg","null","",NA,NA,NA,NA,""
"image-keyboard-response",38,92426,"0.0-4.8-2.8","d7c5zmytwlqw3yu",942,"187.csv","","null","resources/images/coin2.png","null","",NA,NA,NA,NA,""
"image-keyboard-response",39,92969,"0.0-4.9-0.9","d7c5zmytwlqw3yu",942,"187.csv","","541.0999999940395","resources/trios/L4T2A2.jpg","38","restless",0.8,0.7,0.4,0.323774296657391,"true"
"image-keyboard-response",40,93373,"0.0-4.9-1.9","d7c5zmytwlqw3yu",942,"187.csv","","null","resources/maskTrios/BT2B.jpg","null","",NA,NA,NA,NA,""
"image-keyboard-response",41,94576,"0.0-4.9-2.9","d7c5zmytwlqw3yu",942,"187.csv","","null","resources/images/coin2.png","null","",NA,NA,NA,NA,""
"image-keyboard-response",42,94938,"0.0-4.10-0.10","d7c5zmytwlqw3yu",942,"187.csv","","359.8999999985099","resources/trios/L4T2A2.jpg","38","restless",0.8,0.7,0.4,0.565128068465945,"true"
"image-keyboard-response",43,95341,"0.0-4.10-1.10","d7c5zmytwlqw3yu",942,"187.csv","","null","resources/maskTrios/BT2B.jpg","null","",NA,NA,NA,NA,""
"image-keyboard-response",44,96545,"0.0-4.10-2.10","d7c5zmytwlqw3yu",942,"187.csv","","null","resources/images/coin2.png","null","",NA,NA,NA,NA,""
"image-keyboard-response",45,97075,"0.0-4.11-0.11","d7c5zmytwlqw3yu",942,"187.csv","","528.7999999970198","resources/trios/L4T2A2.jpg","38","restless",0.7,0.7,0.4,0.806392055769776,"false"
"image-keyboard-response",46,97478,"0.0-4.11-1.11","d7c5zmytwlqw3yu",942,"187.csv","","null","resources/maskTrios/BT2B.jpg","null","",NA,NA,NA,NA,""
"image-keyboard-response",47,98682,"0.0-4.11-2.11","d7c5zmytwlqw3yu",942,"187.csv","","null","resources/images/fishbone.png","null","",NA,NA,NA,NA,""
"image-keyboard-response",48,99434,"0.0-4.12-0.12","d7c5zmytwlqw3yu",942,"187.csv","","750.7000000029802","resources/trios/L4T2A2.jpg","39","restless",0.7,0.7,0.4,0.174489581180407,"true"
"image-keyboard-response",49,99837,"0.0-4.12-1.12","d7c5zmytwlqw3yu",942,"187.csv","","null","resources/maskTrios/BBA2.jpg","null","",NA,NA,NA,NA,""
"image-keyboard-response",50,101040,"0.0-4.12-2.12","d7c5zmytwlqw3yu",942,"187.csv","","null","resources/images/coin2.png","null","",NA,NA,NA,NA,""
"image-keyboard-response",51,101458,"0.0-4.13-0.13","d7c5zmytwlqw3yu",942,"187.csv","","416.69999999552965","resources/trios/L4T2A2.jpg","39","restless",0.7,0.7,0.4,0.795897225321809,"false"
"image-keyboard-response",52,101862,"0.0-4.13-1.13","d7c5zmytwlqw3yu",942,"187.csv","","null","resources/maskTrios/BBA2.jpg","null","",NA,NA,NA,NA,""
"image-keyboard-response",53,103064,"0.0-4.13-2.13","d7c5zmytwlqw3yu",942,"187.csv","","null","resources/images/fishbone.png","null","",NA,NA,NA,NA,""
"image-keyboard-response",54,103392,"0.0-4.14-0.14","d7c5zmytwlqw3yu",942,"187.csv","","326.5","resources/trios/L4T2A2.jpg","39","restless",0.7,0.7,0.4,0.265417899358339,"true"
"image-keyboard-response",55,103795,"0.0-4.14-1.14","d7c5zmytwlqw3yu",942,"187.csv","","null","resources/maskTrios/BBA2.jpg","null","",NA,NA,NA,NA,""
"image-keyboard-response",56,104998,"0.0-4.14-2.14","d7c5zmytwlqw3yu",942,"187.csv","","null","resources/images/coin2.png","null","",NA,NA,NA,NA,""
"image-keyboard-response",57,105458,"0.0-4.15-0.15","d7c5zmytwlqw3yu",942,"187.csv","","458.6000000014901","resources/trios/L4T2A2.jpg","39","restless",0.7,0.7,0.4,0.755471520814045,"false"
"image-keyboard-response",58,105861,"0.0-4.15-1.15","d7c5zmytwlqw3yu",942,"187.csv","","null","resources/maskTrios/BBA2.jpg","null","",NA,NA,NA,NA,""
"image-keyboard-response",59,107064,"0.0-4.15-2.15","d7c5zmytwlqw3yu",942,"187.csv","","null","resources/images/fishbone.png","null","",NA,NA,NA,NA,""
"image-keyboard-response",60,107472,"0.0-4.16-0.16","d7c5zmytwlqw3yu",942,"187.csv","","406.3999999985099","resources/trios/L4T2A2.jpg","39","restless",0.7,0.7,0.4,0.430398475874188,"false"
"image-keyboard-response",61,107876,"0.0-4.16-1.16","d7c5zmytwlqw3yu",942,"187.csv","","null","resources/maskTrios/BBA2.jpg","null","",NA,NA,NA,NA,""
"image-keyboard-response",62,109079,"0.0-4.16-2.16","d7c5zmytwlqw3yu",942,"187.csv","","null","resources/images/fishbone.png","null","",NA,NA,NA,NA,""
"image-keyboard-response",63,109406,"0.0-4.17-0.17","d7c5zmytwlqw3yu",942,"187.csv","","325.79999999701977","resources/trios/L4T2A2.jpg","37","restless",0.7,0.7,0.4,0.157271152784015,"true"
"image-keyboard-response",64,109810,"0.0-4.17-1.17","d7c5zmytwlqw3yu",942,"187.csv","","null","resources/maskTrios/L4BB.jpg","null","",NA,NA,NA,NA,""
"image-keyboard-response",65,111013,"0.0-4.17-2.17","d7c5zmytwlqw3yu",942,"187.csv","","null","resources/images/coin2.png","null","",NA,NA,NA,NA,""
"image-keyboard-response",66,111510,"0.0-4.18-0.18","d7c5zmytwlqw3yu",942,"187.csv","","494.40000000596046","resources/trios/L4T2A2.jpg","37","restless",0.7,0.7,0.4,0.305387260955268,"true"
"image-keyboard-response",67,111913,"0.0-4.18-1.18","d7c5zmytwlqw3yu",942,"187.csv","","null","resources/maskTrios/L4BB.jpg","null","",NA,NA,NA,NA,""
"image-keyboard-response",68,113116,"0.0-4.18-2.18","d7c5zmytwlqw3yu",942,"187.csv","","null","resources/images/coin2.png","null","",NA,NA,NA,NA,""
"image-keyboard-response",69,113524,"0.0-4.19-0.19","d7c5zmytwlqw3yu",942,"187.csv","","406.30000000447035","resources/trios/L4T2A2.jpg","37","restless",0.7,0.7,0.4,0.170269377944303,"true"
"image-keyboard-response",70,113927,"0.0-4.19-1.19","d7c5zmytwlqw3yu",942,"187.csv","","null","resources/maskTrios/L4BB.jpg","null","",NA,NA,NA,NA,""
"image-keyboard-response",71,115131,"0.0-4.19-2.19","d7c5zmytwlqw3yu",942,"187.csv","","null","resources/images/coin2.png","null","",NA,NA,NA,NA,""
"image-keyboard-response",72,115508,"0.0-4.20-0.20","d7c5zmytwlqw3yu",942,"187.csv","","375.79999999701977","resources/trios/L4T2A2.jpg","37","restless",0.6,0.7,0.4,0.438939124586756,"true"
"image-keyboard-response",73,115911,"0.0-4.20-1.20","d7c5zmytwlqw3yu",942,"187.csv","","null","resources/maskTrios/L4BB.jpg","null","",NA,NA,NA,NA,""
"image-keyboard-response",74,117114,"0.0-4.20-2.20","d7c5zmytwlqw3yu",942,"187.csv","","null","resources/images/coin2.png","null","",NA,NA,NA,NA,""
"image-keyboard-response",75,117501,"0.0-4.21-0.21","d7c5zmytwlqw3yu",942,"187.csv","","384.6000000014901","resources/trios/L4T2A2.jpg","37","restless",0.6,0.7,0.4,0.232578919217599,"true"
"image-keyboard-response",76,117904,"0.0-4.21-1.21","d7c5zmytwlqw3yu",942,"187.csv","","null","resources/maskTrios/L4BB.jpg","null","",NA,NA,NA,NA,""
"image-keyboard-response",77,119107,"0.0-4.21-2.21","d7c5zmytwlqw3yu",942,"187.csv","","null","resources/images/coin2.png","null","",NA,NA,NA,NA,""
"image-keyboard-response",78,119624,"0.0-4.22-0.22","d7c5zmytwlqw3yu",942,"187.csv","","514.5","resources/trios/L4T2A2.jpg","37","restless",0.6,0.7,0.4,0.401610714975211,"true"
"image-keyboard-response",79,120027,"0.0-4.22-1.22","d7c5zmytwlqw3yu",942,"187.csv","","null","resources/maskTrios/L4BB.jpg","null","",NA,NA,NA,NA,""
"image-keyboard-response",80,121230,"0.0-4.22-2.22","d7c5zmytwlqw3yu",942,"187.csv","","null","resources/images/coin2.png","null","",NA,NA,NA,NA,""
"image-keyboard-response",81,121598,"0.0-4.23-0.23","d7c5zmytwlqw3yu",942,"187.csv","","365.6000000014901","resources/trios/L4T2A2.jpg","37","restless",0.6,0.7,0.4,0.35347923491977,"true"
"image-keyboard-response",82,122001,"0.0-4.23-1.23","d7c5zmytwlqw3yu",942,"187.csv","","null","resources/maskTrios/L4BB.jpg","null","",NA,NA,NA,NA,""
"image-keyboard-response",83,123204,"0.0-4.23-2.23","d7c5zmytwlqw3yu",942,"187.csv","","null","resources/images/coin2.png","null","",NA,NA,NA,NA,""
"image-keyboard-response",84,123689,"0.0-4.24-0.24","d7c5zmytwlqw3yu",942,"187.csv","","483.79999999701977","resources/trios/L4T2A2.jpg","37","restless",0.6,0.7,0.4,0.422106822489262,"true"
"image-keyboard-response",85,124092,"0.0-4.24-1.24","d7c5zmytwlqw3yu",942,"187.csv","","null","resources/maskTrios/L4BB.jpg","null","",NA,NA,NA,NA,""
"image-keyboard-response",86,125295,"0.0-4.24-2.24","d7c5zmytwlqw3yu",942,"187.csv","","null","resources/images/coin2.png","null","",NA,NA,NA,NA,""
"image-keyboard-response",87,125714,"0.0-4.25-0.25","d7c5zmytwlqw3yu",942,"187.csv","","416.5","resources/trios/L4T2A2.jpg","37","restless",0.6,0.7,0.4,0.35197464218427,"true"
"image-keyboard-response",88,126117,"0.0-4.25-1.25","d7c5zmytwlqw3yu",942,"187.csv","","null","resources/maskTrios/L4BB.jpg","null","",NA,NA,NA,NA,""
"image-keyboard-response",89,127320,"0.0-4.25-2.25","d7c5zmytwlqw3yu",942,"187.csv","","null","resources/images/coin2.png","null","",NA,NA,NA,NA,""
"image-keyboard-response",90,127728,"0.0-4.26-0.26","d7c5zmytwlqw3yu",942,"187.csv","","406.8999999985099","resources/trios/L4T2A2.jpg","37","restless",0.6,0.7,0.4,0.00579013401705986,"true"
"image-keyboard-response",91,128131,"0.0-4.26-1.26","d7c5zmytwlqw3yu",942,"187.csv","","null","resources/maskTrios/L4BB.jpg","null","",NA,NA,NA,NA,""
"image-keyboard-response",92,129334,"0.0-4.26-2.26","d7c5zmytwlqw3yu",942,"187.csv","","null","resources/images/coin2.png","null","",NA,NA,NA,NA,""
"image-keyboard-response",93,129909,"0.0-4.27-0.27","d7c5zmytwlqw3yu",942,"187.csv","","573.6999999955297","resources/trios/L4T2A2.jpg","37","restless",0.6,0.6,0.4,0.386148319361382,"true"
"image-keyboard-response",94,130311,"0.0-4.27-1.27","d7c5zmytwlqw3yu",942,"187.csv","","null","resources/maskTrios/L4BB.jpg","null","",NA,NA,NA,NA,""
"image-keyboard-response",95,131515,"0.0-4.27-2.27","d7c5zmytwlqw3yu",942,"187.csv","","null","resources/images/coin2.png","null","",NA,NA,NA,NA,""
"image-keyboard-response",96,131918,"0.0-4.28-0.28","d7c5zmytwlqw3yu",942,"187.csv","","401.20000000298023","resources/trios/L4T2A2.jpg","37","restless",0.6,0.6,0.4,0.961617444899527,"false"
"image-keyboard-response",97,132321,"0.0-4.28-1.28","d7c5zmytwlqw3yu",942,"187.csv","","null","resources/maskTrios/L4BB.jpg","null","",NA,NA,NA,NA,""
"image-keyboard-response",98,133524,"0.0-4.28-2.28","d7c5zmytwlqw3yu",942,"187.csv","","null","resources/images/fishbone.png","null","",NA,NA,NA,NA,""
"image-keyboard-response",99,133884,"0.0-4.29-0.29","d7c5zmytwlqw3yu",942,"187.csv","","358.69999999552965","resources/trios/L4T2A2.jpg","39","restless",0.6,0.6,0.4,0.914941295446033,"false"
"image-keyboard-response",100,134287,"0.0-4.29-1.29","d7c5zmytwlqw3yu",942,"187.csv","","null","resources/maskTrios/BBA2.jpg","null","",NA,NA,NA,NA,""
"image-keyboard-response",101,135491,"0.0-4.29-2.29","d7c5zmytwlqw3yu",942,"187.csv","","null","resources/images/fishbone.png","null","",NA,NA,NA,NA,""
"image-keyboard-response",102,135830,"0.0-4.30-0.30","d7c5zmytwlqw3yu",942,"187.csv","","337.79999999701977","resources/trios/L4T2A2.jpg","38","restless",0.5,0.6,0.4,0.0426018830271098,"true"
"image-keyboard-response",103,136234,"0.0-4.30-1.30","d7c5zmytwlqw3yu",942,"187.csv","","null","resources/maskTrios/BT2B.jpg","null","",NA,NA,NA,NA,""
"image-keyboard-response",104,137437,"0.0-4.30-2.30","d7c5zmytwlqw3yu",942,"187.csv","","null","resources/images/coin2.png","null","",NA,NA,NA,NA,""
"image-keyboard-response",105,137861,"0.0-4.31-0.31","d7c5zmytwlqw3yu",942,"187.csv","","422.6000000014901","resources/trios/L4T2A2.jpg","38","restless",0.5,0.6,0.4,0.814713217323843,"false"
"image-keyboard-response",106,138265,"0.0-4.31-1.31","d7c5zmytwlqw3yu",942,"187.csv","","null","resources/maskTrios/BT2B.jpg","null","",NA,NA,NA,NA,""
"image-keyboard-response",107,139468,"0.0-4.31-2.31","d7c5zmytwlqw3yu",942,"187.csv","","null","resources/images/fishbone.png","null","",NA,NA,NA,NA,""
"image-keyboard-response",108,140183,"0.0-4.32-0.32","d7c5zmytwlqw3yu",942,"187.csv","","713.7000000029802","resources/trios/L4T2A2.jpg","39","restless",0.4,0.6,0.4,0.934801177447857,"false"
"image-keyboard-response",109,140587,"0.0-4.32-1.32","d7c5zmytwlqw3yu",942,"187.csv","","null","resources/maskTrios/BBA2.jpg","null","",NA,NA,NA,NA,""
"image-keyboard-response",110,141790,"0.0-4.32-2.32","d7c5zmytwlqw3yu",942,"187.csv","","null","resources/images/fishbone.png","null","",NA,NA,NA,NA,""
"image-keyboard-response",111,142180,"0.0-4.33-0.33","d7c5zmytwlqw3yu",942,"187.csv","","388.20000000298023","resources/trios/L4T2A2.jpg","37","restless",0.4,0.6,0.4,0.833620167900227,"false"
"image-keyboard-response",112,142583,"0.0-4.33-1.33","d7c5zmytwlqw3yu",942,"187.csv","","null","resources/maskTrios/L4BB.jpg","null","",NA,NA,NA,NA,""
"image-keyboard-response",113,143786,"0.0-4.33-2.33","d7c5zmytwlqw3yu",942,"187.csv","","null","resources/images/fishbone.png","null","",NA,NA,NA,NA,""
"image-keyboard-response",114,145742,"0.0-4.34-0.34","d7c5zmytwlqw3yu",942,"187.csv","","1955","resources/trios/L4T2A2.jpg","38","restless",0.4,0.6,0.4,0.865435469739459,"false"
"image-keyboard-response",115,146145,"0.0-4.34-1.34","d7c5zmytwlqw3yu",942,"187.csv","","null","resources/maskTrios/BT2B.jpg","null","",NA,NA,NA,NA,""
"image-keyboard-response",116,147347,"0.0-4.34-2.34","d7c5zmytwlqw3yu",942,"187.csv","","null","resources/images/fishbone.png","null","",NA,NA,NA,NA,""
"image-keyboard-response",117,147731,"0.0-4.35-0.35","d7c5zmytwlqw3yu",942,"187.csv","","381.70000000298023","resources/trios/L4T2A2.jpg","38","restless",0.4,0.6,0.4,0.142409510680862,"true"
"image-keyboard-response",118,148134,"0.0-4.35-1.35","d7c5zmytwlqw3yu",942,"187.csv","","null","resources/maskTrios/BT2B.jpg","null","",NA,NA,NA,NA,""
"image-keyboard-response",119,149337,"0.0-4.35-2.35","d7c5zmytwlqw3yu",942,"187.csv","","null","resources/images/coin2.png","null","",NA,NA,NA,NA,""
"image-keyboard-response",120,149796,"0.0-4.36-0.36","d7c5zmytwlqw3yu",942,"187.csv","","457.1000000014901","resources/trios/L4T2A2.jpg","38","restless",0.4,0.6,0.4,0.801223038549837,"false"
"image-keyboard-response",121,150199,"0.0-4.36-1.36","d7c5zmytwlqw3yu",942,"187.csv","","null","resources/maskTrios/BT2B.jpg","null","",NA,NA,NA,NA,""
"image-keyboard-response",122,151402,"0.0-4.36-2.36","d7c5zmytwlqw3yu",942,"187.csv","","null","resources/images/fishbone.png","null","",NA,NA,NA,NA,""
"image-keyboard-response",123,151737,"0.0-4.37-0.37","d7c5zmytwlqw3yu",942,"187.csv","","333.1000000014901","resources/trios/L4T2A2.jpg","38","restless",0.4,0.6,0.4,0.411451162719617,"true"
"image-keyboard-response",124,152140,"0.0-4.37-1.37","d7c5zmytwlqw3yu",942,"187.csv","","null","resources/maskTrios/BT2B.jpg","null","",NA,NA,NA,NA,""
"image-keyboard-response",125,153343,"0.0-4.37-2.37","d7c5zmytwlqw3yu",942,"187.csv","","null","resources/images/coin2.png","null","",NA,NA,NA,NA,""
"image-keyboard-response",126,153809,"0.0-4.38-0.38","d7c5zmytwlqw3yu",942,"187.csv","","465.29999999701977","resources/trios/L4T2A2.jpg","38","restless",0.4,0.7,0.4,0.815898097164788,"false"
"image-keyboard-response",127,154212,"0.0-4.38-1.38","d7c5zmytwlqw3yu",942,"187.csv","","null","resources/maskTrios/BT2B.jpg","null","",NA,NA,NA,NA,""
"image-keyboard-response",128,155415,"0.0-4.38-2.38","d7c5zmytwlqw3yu",942,"187.csv","","null","resources/images/fishbone.png","null","",NA,NA,NA,NA,""
"image-keyboard-response",129,155949,"0.0-4.39-0.39","d7c5zmytwlqw3yu",942,"187.csv","","532.6000000014901","resources/trios/L4T2A2.jpg","39","restless",0.4,0.7,0.4,0.787657268451924,"false"
"image-keyboard-response",130,156352,"0.0-4.39-1.39","d7c5zmytwlqw3yu",942,"187.csv","","null","resources/maskTrios/BBA2.jpg","null","",NA,NA,NA,NA,""
"image-keyboard-response",131,157554,"0.0-4.39-2.39","d7c5zmytwlqw3yu",942,"187.csv","","null","resources/images/fishbone.png","null","",NA,NA,NA,NA,""
"image-keyboard-response",132,157915,"0.0-4.40-0.40","d7c5zmytwlqw3yu",942,"187.csv","","359.3999999985099","resources/trios/L4T2A2.jpg","39","restless",0.4,0.7,0.4,0.502529211821097,"false"
"image-keyboard-response",133,158319,"0.0-4.40-1.40","d7c5zmytwlqw3yu",942,"187.csv","","null","resources/maskTrios/BBA2.jpg","null","",NA,NA,NA,NA,""
"image-keyboard-response",134,159522,"0.0-4.40-2.40","d7c5zmytwlqw3yu",942,"187.csv","","null","resources/images/fishbone.png","null","",NA,NA,NA,NA,""
"image-keyboard-response",135,159891,"0.0-4.41-0.41","d7c5zmytwlqw3yu",942,"187.csv","","367.5","resources/trios/L4T2A2.jpg","37","restless",0.4,0.7,0.4,0.630941274447393,"false"
"image-keyboard-response",136,160294,"0.0-4.41-1.41","d7c5zmytwlqw3yu",942,"187.csv","","null","resources/maskTrios/L4BB.jpg","null","",NA,NA,NA,NA,""
"image-keyboard-response",137,161496,"0.0-4.41-2.41","d7c5zmytwlqw3yu",942,"187.csv","","null","resources/images/fishbone.png","null","",NA,NA,NA,NA,""
"image-keyboard-response",138,161814,"0.0-4.42-0.42","d7c5zmytwlqw3yu",942,"187.csv","","315.8999999985099","resources/trios/L4T2A2.jpg","37","restless",0.4,0.7,0.4,0.312975908050438,"true"
"image-keyboard-response",139,162217,"0.0-4.42-1.42","d7c5zmytwlqw3yu",942,"187.csv","","null","resources/maskTrios/L4BB.jpg","null","",NA,NA,NA,NA,""
"image-keyboard-response",140,163421,"0.0-4.42-2.42","d7c5zmytwlqw3yu",942,"187.csv","","null","resources/images/coin2.png","null","",NA,NA,NA,NA,""
"image-keyboard-response",141,163846,"0.0-4.43-0.43","d7c5zmytwlqw3yu",942,"187.csv","","423.6000000014901","resources/trios/L4T2A2.jpg","37","restless",0.4,0.7,0.4,0.268961127305036,"true"
"image-keyboard-response",142,164249,"0.0-4.43-1.43","d7c5zmytwlqw3yu",942,"187.csv","","null","resources/maskTrios/L4BB.jpg","null","",NA,NA,NA,NA,""
"image-keyboard-response",143,165452,"0.0-4.43-2.43","d7c5zmytwlqw3yu",942,"187.csv","","null","resources/images/coin2.png","null","",NA,NA,NA,NA,""
"image-keyboard-response",144,165836,"0.0-4.44-0.44","d7c5zmytwlqw3yu",942,"187.csv","","381.80000000447035","resources/trios/L4T2A2.jpg","37","restless",0.4,0.7,0.4,0.900730444065724,"false"
"image-keyboard-response",145,166239,"0.0-4.44-1.44","d7c5zmytwlqw3yu",942,"187.csv","","null","resources/maskTrios/L4BB.jpg","null","",NA,NA,NA,NA,""
"image-keyboard-response",146,167442,"0.0-4.44-2.44","d7c5zmytwlqw3yu",942,"187.csv","","null","resources/images/fishbone.png","null","",NA,NA,NA,NA,""
"image-keyboard-response",147,167987,"0.0-4.45-0.45","d7c5zmytwlqw3yu",942,"187.csv","","543.5","resources/trios/L4T2A2.jpg","37","restless",0.4,0.7,0.4,0.0110333226882779,"true"
"image-keyboard-response",148,168391,"0.0-4.45-1.45","d7c5zmytwlqw3yu",942,"187.csv","","null","resources/maskTrios/L4BB.jpg","null","",NA,NA,NA,NA,""
"image-keyboard-response",149,169594,"0.0-4.45-2.45","d7c5zmytwlqw3yu",942,"187.csv","","null","resources/images/coin2.png","null","",NA,NA,NA,NA,""
"image-keyboard-response",150,169955,"0.0-4.46-0.46","d7c5zmytwlqw3yu",942,"187.csv","","358.5","resources/trios/L4T2A2.jpg","37","restless",0.4,0.7,0.4,0.374935662591488,"true"
"image-keyboard-response",151,170358,"0.0-4.46-1.46","d7c5zmytwlqw3yu",942,"187.csv","","null","resources/maskTrios/L4BB.jpg","null","",NA,NA,NA,NA,""
"image-keyboard-response",152,171561,"0.0-4.46-2.46","d7c5zmytwlqw3yu",942,"187.csv","","null","resources/images/coin2.png","null","",NA,NA,NA,NA,""
"image-keyboard-response",153,171907,"0.0-4.47-0.47","d7c5zmytwlqw3yu",942,"187.csv","","344.8999999985099","resources/trios/L4T2A2.jpg","37","restless",0.4,0.7,0.4,0.465274885015221,"false"
"image-keyboard-response",154,172310,"0.0-4.47-1.47","d7c5zmytwlqw3yu",942,"187.csv","","null","resources/maskTrios/L4BB.jpg","null","",NA,NA,NA,NA,""
"image-keyboard-response",155,173513,"0.0-4.47-2.47","d7c5zmytwlqw3yu",942,"187.csv","","null","resources/images/fishbone.png","null","",NA,NA,NA,NA,""
"image-keyboard-response",156,173940,"0.0-4.48-0.48","d7c5zmytwlqw3yu",942,"187.csv","","424.70000000298023","resources/trios/L4T2A2.jpg","37","restless",0.4,0.7,0.4,0.629839117837623,"false"
"image-keyboard-response",157,174343,"0.0-4.48-1.48","d7c5zmytwlqw3yu",942,"187.csv","","null","resources/maskTrios/L4BB.jpg","null","",NA,NA,NA,NA,""
"image-keyboard-response",158,175545,"0.0-4.48-2.48","d7c5zmytwlqw3yu",942,"187.csv","","null","resources/images/fishbone.png","null","",NA,NA,NA,NA,""
"image-keyboard-response",159,175918,"0.0-4.49-0.49","d7c5zmytwlqw3yu",942,"187.csv","","371.29999999701977","resources/trios/L4T2A2.jpg","38","restless",0.4,0.7,0.4,0.119357597701866,"true"
"image-keyboard-response",160,176322,"0.0-4.49-1.49","d7c5zmytwlqw3yu",942,"187.csv","","null","resources/maskTrios/BT2B.jpg","null","",NA,NA,NA,NA,""
"image-keyboard-response",161,177525,"0.0-4.49-2.49","d7c5zmytwlqw3yu",942,"187.csv","","null","resources/images/coin2.png","null","",NA,NA,NA,NA,""
"image-keyboard-response",162,177846,"0.0-4.50-0.50","d7c5zmytwlqw3yu",942,"187.csv","","319.3999999985099","resources/trios/L4T2A2.jpg","38","restless",0.4,0.7,0.4,0.335800030747127,"true"
"image-keyboard-response",163,178248,"0.0-4.50-1.50","d7c5zmytwlqw3yu",942,"187.csv","","null","resources/maskTrios/BT2B.jpg","null","",NA,NA,NA,NA,""
"image-keyboard-response",164,179451,"0.0-4.50-2.50","d7c5zmytwlqw3yu",942,"187.csv","","null","resources/images/coin2.png","null","",NA,NA,NA,NA,""
"image-keyboard-response",165,179760,"0.0-4.51-0.51","d7c5zmytwlqw3yu",942,"187.csv","","307.29999999701977","resources/trios/L4T2A2.jpg","38","restless",0.5,0.7,0.4,0.0432611604066893,"true"
"image-keyboard-response",166,180163,"0.0-4.51-1.51","d7c5zmytwlqw3yu",942,"187.csv","","null","resources/maskTrios/BT2B.jpg","null","",NA,NA,NA,NA,""
"image-keyboard-response",167,181367,"0.0-4.51-2.51","d7c5zmytwlqw3yu",942,"187.csv","","null","resources/images/coin2.png","null","",NA,NA,NA,NA,""
"image-keyboard-response",168,181464,"0.0-4.52-0.52","d7c5zmytwlqw3yu",942,"187.csv","","96.10000000149012","resources/trios/L4T2A2.jpg","38","restless",0.5,0.8,0.4,0.331065281927867,"true"
"image-keyboard-response",169,181866,"0.0-4.52-1.52","d7c5zmytwlqw3yu",942,"187.csv","","null","resources/maskTrios/BT2B.jpg","null","",NA,NA,NA,NA,""
"image-keyboard-response",170,183069,"0.0-4.52-2.52","d7c5zmytwlqw3yu",942,"187.csv","","null","resources/images/coin2.png","null","",NA,NA,NA,NA,""
"image-keyboard-response",171,184350,"0.0-4.53-0.53","d7c5zmytwlqw3yu",942,"187.csv","","1279.2999999970198","resources/trios/L4T2A2.jpg","38","restless",0.5,0.8,0.3,0.422563833344766,"true"
"image-keyboard-response",172,184753,"0.0-4.53-1.53","d7c5zmytwlqw3yu",942,"187.csv","","null","resources/maskTrios/BT2B.jpg","null","",NA,NA,NA,NA,""
"image-keyboard-response",173,185956,"0.0-4.53-2.53","d7c5zmytwlqw3yu",942,"187.csv","","null","resources/images/coin2.png","null","",NA,NA,NA,NA,""
"image-keyboard-response",174,186457,"0.0-4.54-0.54","d7c5zmytwlqw3yu",942,"187.csv","","499","resources/trios/L4T2A2.jpg","38","restless",0.5,0.7,0.3,0.736747806408617,"false"
"image-keyboard-response",175,186859,"0.0-4.54-1.54","d7c5zmytwlqw3yu",942,"187.csv","","null","resources/maskTrios/BT2B.jpg","null","",NA,NA,NA,NA,""
"image-keyboard-response",176,188063,"0.0-4.54-2.54","d7c5zmytwlqw3yu",942,"187.csv","","null","resources/images/fishbone.png","null","",NA,NA,NA,NA,""
"image-keyboard-response",177,188171,"0.0-4.55-0.55","d7c5zmytwlqw3yu",942,"187.csv","","106.89999999850988","resources/trios/L4T2A2.jpg","39","restless",0.5,0.7,0.3,0.755740811036421,"false"
"image-keyboard-response",178,188574,"0.0-4.55-1.55","d7c5zmytwlqw3yu",942,"187.csv","","null","resources/maskTrios/BBA2.jpg","null","",NA,NA,NA,NA,""
"image-keyboard-response",179,189777,"0.0-4.55-2.55","d7c5zmytwlqw3yu",942,"187.csv","","null","resources/images/fishbone.png","null","",NA,NA,NA,NA,""
"image-keyboard-response",180,190251,"0.0-4.56-0.56","d7c5zmytwlqw3yu",942,"187.csv","","472.19999999552965","resources/trios/L4T2A2.jpg","39","restless",0.6,0.7,0.3,0.0954719190830702,"true"
"image-keyboard-response",181,190654,"0.0-4.56-1.56","d7c5zmytwlqw3yu",942,"187.csv","","null","resources/maskTrios/BBA2.jpg","null","",NA,NA,NA,NA,""
"image-keyboard-response",182,191857,"0.0-4.56-2.56","d7c5zmytwlqw3yu",942,"187.csv","","null","resources/images/coin2.png","null","",NA,NA,NA,NA,""
"image-keyboard-response",183,192250,"0.0-4.57-0.57","d7c5zmytwlqw3yu",942,"187.csv","","392.19999999552965","resources/trios/L4T2A2.jpg","39","restless",0.6,0.7,0.3,0.135644069216105,"true"
"image-keyboard-response",184,192653,"0.0-4.57-1.57","d7c5zmytwlqw3yu",942,"187.csv","","null","resources/maskTrios/BBA2.jpg","null","",NA,NA,NA,NA,""
"image-keyboard-response",185,193855,"0.0-4.57-2.57","d7c5zmytwlqw3yu",942,"187.csv","","null","resources/images/coin2.png","null","",NA,NA,NA,NA,""
"image-keyboard-response",186,194198,"0.0-4.58-0.58","d7c5zmytwlqw3yu",942,"187.csv","","340.8999999985099","resources/trios/L4T2A2.jpg","39","restless",0.6,0.7,0.3,0.224672139866368,"true"
"image-keyboard-response",187,194600,"0.0-4.58-1.58","d7c5zmytwlqw3yu",942,"187.csv","","null","resources/maskTrios/BBA2.jpg","null","",NA,NA,NA,NA,""
"image-keyboard-response",188,195804,"0.0-4.58-2.58","d7c5zmytwlqw3yu",942,"187.csv","","null","resources/images/coin2.png","null","",NA,NA,NA,NA,""
"image-keyboard-response",189,196108,"0.0-4.59-0.59","d7c5zmytwlqw3yu",942,"187.csv","","302.8999999985099","resources/trios/L4T2A2.jpg","39","restless",0.6,0.8,0.3,0.00613636787103644,"true"
"image-keyboard-response",190,196511,"0.0-4.59-1.59","d7c5zmytwlqw3yu",942,"187.csv","","null","resources/maskTrios/BBA2.jpg","null","",NA,NA,NA,NA,""
"image-keyboard-response",191,197714,"0.0-4.59-2.59","d7c5zmytwlqw3yu",942,"187.csv","","null","resources/images/coin2.png","null","",NA,NA,NA,NA,""
"image-keyboard-response",192,198054,"0.0-4.60-0.60","d7c5zmytwlqw3yu",942,"187.csv","","339.3999999985099","resources/trios/L4T2A2.jpg","39","restless",0.6,0.8,0.3,0.672445160310558,"false"
"image-keyboard-response",193,198457,"0.0-4.60-1.60","d7c5zmytwlqw3yu",942,"187.csv","","null","resources/maskTrios/BBA2.jpg","null","",NA,NA,NA,NA,""
"image-keyboard-response",194,199660,"0.0-4.60-2.60","d7c5zmytwlqw3yu",942,"187.csv","","null","resources/images/fishbone.png","null","",NA,NA,NA,NA,""
"image-keyboard-response",195,199951,"0.0-4.61-0.61","d7c5zmytwlqw3yu",942,"187.csv","","289.5","resources/trios/L4T2A2.jpg","39","restless",0.5,0.8,0.2,0.979544969506121,"false"
"image-keyboard-response",196,200353,"0.0-4.61-1.61","d7c5zmytwlqw3yu",942,"187.csv","","null","resources/maskTrios/BBA2.jpg","null","",NA,NA,NA,NA,""
"image-keyboard-response",197,201556,"0.0-4.61-2.61","d7c5zmytwlqw3yu",942,"187.csv","","null","resources/images/fishbone.png","null","",NA,NA,NA,NA,""
"image-keyboard-response",198,202242,"0.0-4.62-0.62","d7c5zmytwlqw3yu",942,"187.csv","","684.8999999985099","resources/trios/L4T2A2.jpg","38","restless",0.5,0.8,0.2,0.0877276941815226,"true"
"image-keyboard-response",199,202646,"0.0-4.62-1.62","d7c5zmytwlqw3yu",942,"187.csv","","null","resources/maskTrios/BT2B.jpg","null","",NA,NA,NA,NA,""
"image-keyboard-response",200,203849,"0.0-4.62-2.62","d7c5zmytwlqw3yu",942,"187.csv","","null","resources/images/coin2.png","null","",NA,NA,NA,NA,""
"image-keyboard-response",201,204123,"0.0-4.63-0.63","d7c5zmytwlqw3yu",942,"187.csv","","272","resources/trios/L4T2A2.jpg","38","restless",0.5,0.8,0.2,0.0542767311935775,"true"
"image-keyboard-response",202,204525,"0.0-4.63-1.63","d7c5zmytwlqw3yu",942,"187.csv","","null","resources/maskTrios/BT2B.jpg","null","",NA,NA,NA,NA,""
"image-keyboard-response",203,205729,"0.0-4.63-2.63","d7c5zmytwlqw3yu",942,"187.csv","","null","resources/images/coin2.png","null","",NA,NA,NA,NA,""
"image-keyboard-response",204,206034,"0.0-4.64-0.64","d7c5zmytwlqw3yu",942,"187.csv","","303.79999999701977","resources/trios/L4T2A2.jpg","38","restless",0.5,0.8,0.2,0.510688639395747,"true"
"image-keyboard-response",205,206437,"0.0-4.64-1.64","d7c5zmytwlqw3yu",942,"187.csv","","null","resources/maskTrios/BT2B.jpg","null","",NA,NA,NA,NA,""
"image-keyboard-response",206,207640,"0.0-4.64-2.64","d7c5zmytwlqw3yu",942,"187.csv","","null","resources/images/coin2.png","null","",NA,NA,NA,NA,""
"image-keyboard-response",207,207939,"0.0-4.65-0.65","d7c5zmytwlqw3yu",942,"187.csv","","296.70000000298023","resources/trios/L4T2A2.jpg","38","restless",0.5,0.8,0.3,0.791596965942844,"true"
"image-keyboard-response",208,208342,"0.0-4.65-1.65","d7c5zmytwlqw3yu",942,"187.csv","","null","resources/maskTrios/BT2B.jpg","null","",NA,NA,NA,NA,""
"image-keyboard-response",209,209545,"0.0-4.65-2.65","d7c5zmytwlqw3yu",942,"187.csv","","null","resources/images/coin2.png","null","",NA,NA,NA,NA,""
"image-keyboard-response",210,209819,"0.0-4.66-0.66","d7c5zmytwlqw3yu",942,"187.csv","","273.1000000014901","resources/trios/L4T2A2.jpg","38","restless",0.6,0.8,0.3,0.702233283683432,"true"
"image-keyboard-response",211,210223,"0.0-4.66-1.66","d7c5zmytwlqw3yu",942,"187.csv","","null","resources/maskTrios/BT2B.jpg","null","",NA,NA,NA,NA,""
"image-keyboard-response",212,211426,"0.0-4.66-2.66","d7c5zmytwlqw3yu",942,"187.csv","","null","resources/images/coin2.png","null","",NA,NA,NA,NA,""
"image-keyboard-response",213,211824,"0.0-4.67-0.67","d7c5zmytwlqw3yu",942,"187.csv","","396","resources/trios/L4T2A2.jpg","38","restless",0.6,0.8,0.3,0.356307136054013,"true"
"image-keyboard-response",214,212227,"0.0-4.67-1.67","d7c5zmytwlqw3yu",942,"187.csv","","null","resources/maskTrios/BT2B.jpg","null","",NA,NA,NA,NA,""
"image-keyboard-response",215,213431,"0.0-4.67-2.67","d7c5zmytwlqw3yu",942,"187.csv","","null","resources/images/coin2.png","null","",NA,NA,NA,NA,""
"image-keyboard-response",216,214092,"0.0-4.68-0.68","d7c5zmytwlqw3yu",942,"187.csv","","659.2999999970198","resources/trios/L4T2A2.jpg","38","restless",0.6,0.7,0.2,0.854943125559757,"false"
"image-keyboard-response",217,214495,"0.0-4.68-1.68","d7c5zmytwlqw3yu",942,"187.csv","","null","resources/maskTrios/BT2B.jpg","null","",NA,NA,NA,NA,""
"image-keyboard-response",218,215698,"0.0-4.68-2.68","d7c5zmytwlqw3yu",942,"187.csv","","null","resources/images/fishbone.png","null","",NA,NA,NA,NA,""
"image-keyboard-response",219,216054,"0.0-4.69-0.69","d7c5zmytwlqw3yu",942,"187.csv","","355.1000000014901","resources/trios/L4T2A2.jpg","39","restless",0.6,0.7,0.2,0.201032833277451,"false"
"image-keyboard-response",220,216458,"0.0-4.69-1.69","d7c5zmytwlqw3yu",942,"187.csv","","null","resources/maskTrios/BBA2.jpg","null","",NA,NA,NA,NA,""
"image-keyboard-response",221,217661,"0.0-4.69-2.69","d7c5zmytwlqw3yu",942,"187.csv","","null","resources/images/fishbone.png","null","",NA,NA,NA,NA,""
"image-keyboard-response",222,217912,"0.0-4.70-0.70","d7c5zmytwlqw3yu",942,"187.csv","","249.79999999701977","resources/trios/L4T2A2.jpg","39","restless",0.6,0.7,0.2,0.653303446334285,"false"
"image-keyboard-response",223,218315,"0.0-4.70-1.70","d7c5zmytwlqw3yu",942,"187.csv","","null","resources/maskTrios/BBA2.jpg","null","",NA,NA,NA,NA,""
"image-keyboard-response",224,219517,"0.0-4.70-2.70","d7c5zmytwlqw3yu",942,"187.csv","","null","resources/images/fishbone.png","null","",NA,NA,NA,NA,""
"image-keyboard-response",225,219780,"0.0-4.71-0.71","d7c5zmytwlqw3yu",942,"187.csv","","260.6000000014901","resources/trios/L4T2A2.jpg","37","restless",0.5,0.7,0.3,0.927705510123097,"false"
"image-keyboard-response",226,220182,"0.0-4.71-1.71","d7c5zmytwlqw3yu",942,"187.csv","","null","resources/maskTrios/L4BB.jpg","null","",NA,NA,NA,NA,""
"image-keyboard-response",227,221385,"0.0-4.71-2.71","d7c5zmytwlqw3yu",942,"187.csv","","null","resources/images/fishbone.png","null","",NA,NA,NA,NA,""
"image-keyboard-response",228,221673,"0.0-4.72-0.72","d7c5zmytwlqw3yu",942,"187.csv","","287.5","resources/trios/L4T2A2.jpg","37","restless",0.5,0.7,0.4,0.538152463895538,"false"
"image-keyboard-response",229,222077,"0.0-4.72-1.72","d7c5zmytwlqw3yu",942,"187.csv","","null","resources/maskTrios/L4BB.jpg","null","",NA,NA,NA,NA,""
"image-keyboard-response",230,223280,"0.0-4.72-2.72","d7c5zmytwlqw3yu",942,"187.csv","","null","resources/images/fishbone.png","null","",NA,NA,NA,NA,""
"image-keyboard-response",231,223577,"0.0-4.73-0.73","d7c5zmytwlqw3yu",942,"187.csv","","295.6000000014901","resources/trios/L4T2A2.jpg","38","restless",0.5,0.7,0.4,0.439383244798596,"true"
"image-keyboard-response",232,223980,"0.0-4.73-1.73","d7c5zmytwlqw3yu",942,"187.csv","","null","resources/maskTrios/BT2B.jpg","null","",NA,NA,NA,NA,""
"image-keyboard-response",233,225183,"0.0-4.73-2.73","d7c5zmytwlqw3yu",942,"187.csv","","null","resources/images/coin2.png","null","",NA,NA,NA,NA,""
"image-keyboard-response",234,225814,"0.0-4.74-0.74","d7c5zmytwlqw3yu",942,"187.csv","","629.6000000014901","resources/trios/L4T2A2.jpg","38","restless",0.5,0.7,0.4,0.735706179570482,"false"
"image-keyboard-response",235,226217,"0.0-4.74-1.74","d7c5zmytwlqw3yu",942,"187.csv","","null","resources/maskTrios/BT2B.jpg","null","",NA,NA,NA,NA,""
"image-keyboard-response",236,227420,"0.0-4.74-2.74","d7c5zmytwlqw3yu",942,"187.csv","","null","resources/images/fishbone.png","null","",NA,NA,NA,NA,""
"image-keyboard-response",237,227727,"0.0-4.75-0.75","d7c5zmytwlqw3yu",942,"187.csv","","305.29999999701977","resources/trios/L4T2A2.jpg","37","restless",0.5,0.7,0.4,0.117460222010619,"true"
"image-keyboard-response",238,228130,"0.0-4.75-1.75","d7c5zmytwlqw3yu",942,"187.csv","","null","resources/maskTrios/L4BB.jpg","null","",NA,NA,NA,NA,""
"image-keyboard-response",239,229334,"0.0-4.75-2.75","d7c5zmytwlqw3yu",942,"187.csv","","null","resources/images/coin2.png","null","",NA,NA,NA,NA,""
"image-keyboard-response",240,229649,"0.0-4.76-0.76","d7c5zmytwlqw3yu",942,"187.csv","","313.1000000014901","resources/trios/L4T2A2.jpg","37","restless",0.5,0.7,0.4,0.22143307726129,"true"
"image-keyboard-response",241,230052,"0.0-4.76-1.76","d7c5zmytwlqw3yu",942,"187.csv","","null","resources/maskTrios/L4BB.jpg","null","",NA,NA,NA,NA,""
"image-keyboard-response",242,231254,"0.0-4.76-2.76","d7c5zmytwlqw3yu",942,"187.csv","","null","resources/images/coin2.png","null","",NA,NA,NA,NA,""
"image-keyboard-response",243,231608,"0.0-4.77-0.77","d7c5zmytwlqw3yu",942,"187.csv","","351.5","resources/trios/L4T2A2.jpg","37","restless",0.5,0.7,0.4,0.181655644957991,"true"
"image-keyboard-response",244,232009,"0.0-4.77-1.77","d7c5zmytwlqw3yu",942,"187.csv","","null","resources/maskTrios/L4BB.jpg","null","",NA,NA,NA,NA,""
"image-keyboard-response",245,233212,"0.0-4.77-2.77","d7c5zmytwlqw3yu",942,"187.csv","","null","resources/images/coin2.png","null","",NA,NA,NA,NA,""
"image-keyboard-response",246,233543,"0.0-4.78-0.78","d7c5zmytwlqw3yu",942,"187.csv","","329.19999999552965","resources/trios/L4T2A2.jpg","37","restless",0.5,0.7,0.4,0.124659256758452,"true"
"image-keyboard-response",247,233946,"0.0-4.78-1.78","d7c5zmytwlqw3yu",942,"187.csv","","null","resources/maskTrios/L4BB.jpg","null","",NA,NA,NA,NA,""
"image-keyboard-response",248,235149,"0.0-4.78-2.78","d7c5zmytwlqw3yu",942,"187.csv","","null","resources/images/coin2.png","null","",NA,NA,NA,NA,""
"image-keyboard-response",249,235475,"0.0-4.79-0.79","d7c5zmytwlqw3yu",942,"187.csv","","324.70000000298023","resources/trios/L4T2A2.jpg","37","restless",0.5,0.7,0.4,0.118411470916667,"true"
"image-keyboard-response",250,235878,"0.0-4.79-1.79","d7c5zmytwlqw3yu",942,"187.csv","","null","resources/maskTrios/L4BB.jpg","null","",NA,NA,NA,NA,""
"image-keyboard-response",251,237081,"0.0-4.79-2.79","d7c5zmytwlqw3yu",942,"187.csv","","null","resources/images/coin2.png","null","",NA,NA,NA,NA,""
"image-keyboard-response",252,237476,"0.0-4.80-0.80","d7c5zmytwlqw3yu",942,"187.csv","","392.6000000014901","resources/trios/L4T2A2.jpg","37","restless",0.5,0.7,0.4,0.181299869668137,"true"
"image-keyboard-response",253,237878,"0.0-4.80-1.80","d7c5zmytwlqw3yu",942,"187.csv","","null","resources/maskTrios/L4BB.jpg","null","",NA,NA,NA,NA,""
"image-keyboard-response",254,239082,"0.0-4.80-2.80","d7c5zmytwlqw3yu",942,"187.csv","","null","resources/images/coin2.png","null","",NA,NA,NA,NA,""
"image-keyboard-response",255,239438,"0.0-4.81-0.81","d7c5zmytwlqw3yu",942,"187.csv","","354.30000000447035","resources/trios/L4T2A2.jpg","37","restless",0.5,0.7,0.4,0.820499108652636,"false"
"image-keyboard-response",256,239842,"0.0-4.81-1.81","d7c5zmytwlqw3yu",942,"187.csv","","null","resources/maskTrios/L4BB.jpg","null","",NA,NA,NA,NA,""
"image-keyboard-response",257,241044,"0.0-4.81-2.81","d7c5zmytwlqw3yu",942,"187.csv","","null","resources/images/fishbone.png","null","",NA,NA,NA,NA,""
"image-keyboard-response",258,241431,"0.0-4.82-0.82","d7c5zmytwlqw3yu",942,"187.csv","","385.30000000447035","resources/trios/L4T2A2.jpg","37","restless",0.5,0.7,0.4,0.385473123176809,"true"
"image-keyboard-response",259,241833,"0.0-4.82-1.82","d7c5zmytwlqw3yu",942,"187.csv","","null","resources/maskTrios/L4BB.jpg","null","",NA,NA,NA,NA,""
"image-keyboard-response",260,243036,"0.0-4.82-2.82","d7c5zmytwlqw3yu",942,"187.csv","","null","resources/images/coin2.png","null","",NA,NA,NA,NA,""
"image-keyboard-response",261,243370,"0.0-4.83-0.83","d7c5zmytwlqw3yu",942,"187.csv","","332.30000000447035","resources/trios/L4T2A2.jpg","37","restless",0.5,0.7,0.4,0.0971015761133196,"true"
"image-keyboard-response",262,243772,"0.0-4.83-1.83","d7c5zmytwlqw3yu",942,"187.csv","","null","resources/maskTrios/L4BB.jpg","null","",NA,NA,NA,NA,""
"image-keyboard-response",263,244975,"0.0-4.83-2.83","d7c5zmytwlqw3yu",942,"187.csv","","null","resources/images/coin2.png","null","",NA,NA,NA,NA,""
"image-keyboard-response",264,245318,"0.0-4.84-0.84","d7c5zmytwlqw3yu",942,"187.csv","","341.3999999985099","resources/trios/L4T2A2.jpg","37","restless",0.5,0.7,0.4,0.625325933428591,"false"
"image-keyboard-response",265,245721,"0.0-4.84-1.84","d7c5zmytwlqw3yu",942,"187.csv","","null","resources/maskTrios/L4BB.jpg","null","",NA,NA,NA,NA,""
"image-keyboard-response",266,246925,"0.0-4.84-2.84","d7c5zmytwlqw3yu",942,"187.csv","","null","resources/images/fishbone.png","null","",NA,NA,NA,NA,""
"image-keyboard-response",267,247198,"0.0-4.85-0.85","d7c5zmytwlqw3yu",942,"187.csv","","271.5","resources/trios/L4T2A2.jpg","37","restless",0.5,0.7,0.4,0.723576018590394,"false"
"image-keyboard-response",268,247602,"0.0-4.85-1.85","d7c5zmytwlqw3yu",942,"187.csv","","null","resources/maskTrios/L4BB.jpg","null","",NA,NA,NA,NA,""
"image-keyboard-response",269,248804,"0.0-4.85-2.85","d7c5zmytwlqw3yu",942,"187.csv","","null","resources/images/fishbone.png","null","",NA,NA,NA,NA,""
"image-keyboard-response",270,249199,"0.0-4.86-0.86","d7c5zmytwlqw3yu",942,"187.csv","","392.29999999701977","resources/trios/L4T2A2.jpg","39","restless",0.5,0.7,0.4,0.667703340827367,"false"
"image-keyboard-response",271,249602,"0.0-4.86-1.86","d7c5zmytwlqw3yu",942,"187.csv","","null","resources/maskTrios/BBA2.jpg","null","",NA,NA,NA,NA,""
"image-keyboard-response",272,250805,"0.0-4.86-2.86","d7c5zmytwlqw3yu",942,"187.csv","","null","resources/images/fishbone.png","null","",NA,NA,NA,NA,""
"image-keyboard-response",273,251074,"0.0-4.87-0.87","d7c5zmytwlqw3yu",942,"187.csv","","267","resources/trios/L4T2A2.jpg","39","restless",0.5,0.7,0.4,0.731410271979323,"false"
"image-keyboard-response",274,251476,"0.0-4.87-1.87","d7c5zmytwlqw3yu",942,"187.csv","","null","resources/maskTrios/BBA2.jpg","null","",NA,NA,NA,NA,""
"image-keyboard-response",275,252680,"0.0-4.87-2.87","d7c5zmytwlqw3yu",942,"187.csv","","null","resources/images/fishbone.png","null","",NA,NA,NA,NA,""
"image-keyboard-response",276,252983,"0.0-4.88-0.88","d7c5zmytwlqw3yu",942,"187.csv","","301.09999999403954","resources/trios/L4T2A2.jpg","38","restless",0.5,0.7,0.4,0.950879572785785,"false"
"image-keyboard-response",277,253385,"0.0-4.88-1.88","d7c5zmytwlqw3yu",942,"187.csv","","null","resources/maskTrios/BT2B.jpg","null","",NA,NA,NA,NA,""
"image-keyboard-response",278,254589,"0.0-4.88-2.88","d7c5zmytwlqw3yu",942,"187.csv","","null","resources/images/fishbone.png","null","",NA,NA,NA,NA,""
"image-keyboard-response",279,254873,"0.0-4.89-0.89","d7c5zmytwlqw3yu",942,"187.csv","","281.79999999701977","resources/trios/L4T2A2.jpg","38","restless",0.5,0.7,0.4,0.0241483251100698,"true"
"image-keyboard-response",280,255275,"0.0-4.89-1.89","d7c5zmytwlqw3yu",942,"187.csv","","null","resources/maskTrios/BT2B.jpg","null","",NA,NA,NA,NA,""
"image-keyboard-response",281,256478,"0.0-4.89-2.89","d7c5zmytwlqw3yu",942,"187.csv","","null","resources/images/coin2.png","null","",NA,NA,NA,NA,""
"image-keyboard-response",282,256794,"0.0-4.90-0.90","d7c5zmytwlqw3yu",942,"187.csv","","313.90000000596046","resources/trios/L4T2A2.jpg","38","restless",0.5,0.7,0.4,0.566346132850264,"true"
"image-keyboard-response",283,257197,"0.0-4.90-1.90","d7c5zmytwlqw3yu",942,"187.csv","","null","resources/maskTrios/BT2B.jpg","null","",NA,NA,NA,NA,""
"image-keyboard-response",284,258401,"0.0-4.90-2.90","d7c5zmytwlqw3yu",942,"187.csv","","null","resources/images/coin2.png","null","",NA,NA,NA,NA,""
"image-keyboard-response",285,258718,"0.0-4.91-0.91","d7c5zmytwlqw3yu",942,"187.csv","","315.79999999701977","resources/trios/L4T2A2.jpg","38","restless",0.5,0.8,0.4,0.403468114884616,"true"
"image-keyboard-response",286,259121,"0.0-4.91-1.91","d7c5zmytwlqw3yu",942,"187.csv","","null","resources/maskTrios/BT2B.jpg","null","",NA,NA,NA,NA,""
"image-keyboard-response",287,260324,"0.0-4.91-2.91","d7c5zmytwlqw3yu",942,"187.csv","","null","resources/images/coin2.png","null","",NA,NA,NA,NA,""
"image-keyboard-response",288,260630,"0.0-4.92-0.92","d7c5zmytwlqw3yu",942,"187.csv","","304.09999999403954","resources/trios/L4T2A2.jpg","38","restless",0.5,0.8,0.4,0.64185193763041,"true"
"image-keyboard-response",289,261033,"0.0-4.92-1.92","d7c5zmytwlqw3yu",942,"187.csv","","null","resources/maskTrios/BT2B.jpg","null","",NA,NA,NA,NA,""
"image-keyboard-response",290,262236,"0.0-4.92-2.92","d7c5zmytwlqw3yu",942,"187.csv","","null","resources/images/coin2.png","null","",NA,NA,NA,NA,""
"image-keyboard-response",291,262611,"0.0-4.93-0.93","d7c5zmytwlqw3yu",942,"187.csv","","373.3999999985099","resources/trios/L4T2A2.jpg","38","restless",0.5,0.8,0.4,0.428958471973726,"true"
"image-keyboard-response",292,263014,"0.0-4.93-1.93","d7c5zmytwlqw3yu",942,"187.csv","","null","resources/maskTrios/BT2B.jpg","null","",NA,NA,NA,NA,""
"image-keyboard-response",293,264217,"0.0-4.93-2.93","d7c5zmytwlqw3yu",942,"187.csv","","null","resources/images/coin2.png","null","",NA,NA,NA,NA,""
"image-keyboard-response",294,264513,"0.0-4.94-0.94","d7c5zmytwlqw3yu",942,"187.csv","","294.19999999552965","resources/trios/L4T2A2.jpg","38","restless",0.5,0.8,0.4,0.576772013438365,"true"
"image-keyboard-response",295,264916,"0.0-4.94-1.94","d7c5zmytwlqw3yu",942,"187.csv","","null","resources/maskTrios/BT2B.jpg","null","",NA,NA,NA,NA,""
"image-keyboard-response",296,266118,"0.0-4.94-2.94","d7c5zmytwlqw3yu",942,"187.csv","","null","resources/images/coin2.png","null","",NA,NA,NA,NA,""
"image-keyboard-response",297,267353,"0.0-4.95-0.95","d7c5zmytwlqw3yu",942,"187.csv","","1232.1999999955297","resources/trios/L4T2A2.jpg","38","restless",0.6,0.8,0.4,0.249595177500733,"true"
"image-keyboard-response",298,267756,"0.0-4.95-1.95","d7c5zmytwlqw3yu",942,"187.csv","","null","resources/maskTrios/BT2B.jpg","null","",NA,NA,NA,NA,""
"image-keyboard-response",299,268959,"0.0-4.95-2.95","d7c5zmytwlqw3yu",942,"187.csv","","null","resources/images/coin2.png","null","",NA,NA,NA,NA,""
"image-keyboard-response",300,269330,"0.0-4.96-0.96","d7c5zmytwlqw3yu",942,"187.csv","","369.19999999552965","resources/trios/L4T2A2.jpg","38","restless",0.6,0.9,0.4,0.580925823472749,"true"
"image-keyboard-response",301,269733,"0.0-4.96-1.96","d7c5zmytwlqw3yu",942,"187.csv","","null","resources/maskTrios/BT2B.jpg","null","",NA,NA,NA,NA,""
"image-keyboard-response",302,270936,"0.0-4.96-2.96","d7c5zmytwlqw3yu",942,"187.csv","","null","resources/images/coin2.png","null","",NA,NA,NA,NA,""
"image-keyboard-response",303,271345,"0.0-4.97-0.97","d7c5zmytwlqw3yu",942,"187.csv","","407","resources/trios/L4T2A2.jpg","38","restless",0.6,0.8,0.4,0.392963386900292,"true"
"image-keyboard-response",304,271748,"0.0-4.97-1.97","d7c5zmytwlqw3yu",942,"187.csv","","null","resources/maskTrios/BT2B.jpg","null","",NA,NA,NA,NA,""
"image-keyboard-response",305,272951,"0.0-4.97-2.97","d7c5zmytwlqw3yu",942,"187.csv","","null","resources/images/coin2.png","null","",NA,NA,NA,NA,""
"image-keyboard-response",306,273359,"0.0-4.98-0.98","d7c5zmytwlqw3yu",942,"187.csv","","406.20000000298023","resources/trios/L4T2A2.jpg","38","restless",0.6,0.8,0.4,0.114721731868051,"true"
"image-keyboard-response",307,273762,"0.0-4.98-1.98","d7c5zmytwlqw3yu",942,"187.csv","","null","resources/maskTrios/BT2B.jpg","null","",NA,NA,NA,NA,""
"image-keyboard-response",308,274964,"0.0-4.98-2.98","d7c5zmytwlqw3yu",942,"187.csv","","null","resources/images/coin2.png","null","",NA,NA,NA,NA,""
"image-keyboard-response",309,275486,"0.0-4.99-0.99","d7c5zmytwlqw3yu",942,"187.csv","","520.3999999985099","resources/trios/L4T2A2.jpg","38","restless",0.6,0.8,0.4,0.783792804781491,"true"
"image-keyboard-response",310,275889,"0.0-4.99-1.99","d7c5zmytwlqw3yu",942,"187.csv","","null","resources/maskTrios/BT2B.jpg","null","",NA,NA,NA,NA,""
"image-keyboard-response",311,277093,"0.0-4.99-2.99","d7c5zmytwlqw3yu",942,"187.csv","","null","resources/images/coin2.png","null","",NA,NA,NA,NA,""
"image-keyboard-response",312,277395,"0.0-4.100-0.100","d7c5zmytwlqw3yu",942,"187.csv","","299.79999999701977","resources/trios/L4T2A2.jpg","38","restless",0.6,0.8,0.4,0.95388416424234,"false"
"image-keyboard-response",313,277798,"0.0-4.100-1.100","d7c5zmytwlqw3yu",942,"187.csv","","null","resources/maskTrios/BT2B.jpg","null","",NA,NA,NA,NA,""
"image-keyboard-response",314,279001,"0.0-4.100-2.100","d7c5zmytwlqw3yu",942,"187.csv","","null","resources/images/fishbone.png","null","",NA,NA,NA,NA,""
"image-keyboard-response",315,279546,"0.0-4.101-0.101","d7c5zmytwlqw3yu",942,"187.csv","","542.8999999985099","resources/trios/L4T2A2.jpg","38","restless",0.6,0.8,0.4,0.241036447756584,"true"
"image-keyboard-response",316,279949,"0.0-4.101-1.101","d7c5zmytwlqw3yu",942,"187.csv","","null","resources/maskTrios/BT2B.jpg","null","",NA,NA,NA,NA,""
"image-keyboard-response",317,281153,"0.0-4.101-2.101","d7c5zmytwlqw3yu",942,"187.csv","","null","resources/images/coin2.png","null","",NA,NA,NA,NA,""
"image-keyboard-response",318,281605,"0.0-4.102-0.102","d7c5zmytwlqw3yu",942,"187.csv","","450.69999999552965","resources/trios/L4T2A2.jpg","38","restless",0.6,0.8,0.4,0.873046788926005,"false"
"image-keyboard-response",319,282008,"0.0-4.102-1.102","d7c5zmytwlqw3yu",942,"187.csv","","null","resources/maskTrios/BT2B.jpg","null","",NA,NA,NA,NA,""
"image-keyboard-response",320,283211,"0.0-4.102-2.102","d7c5zmytwlqw3yu",942,"187.csv","","null","resources/images/fishbone.png","null","",NA,NA,NA,NA,""
"image-keyboard-response",321,283506,"0.0-4.103-0.103","d7c5zmytwlqw3yu",942,"187.csv","","292.8999999985099","resources/trios/L4T2A2.jpg","38","restless",0.6,0.8,0.4,0.912367534133002,"false"
"image-keyboard-response",322,283909,"0.0-4.103-1.103","d7c5zmytwlqw3yu",942,"187.csv","","null","resources/maskTrios/BT2B.jpg","null","",NA,NA,NA,NA,""
"image-keyboard-response",323,285112,"0.0-4.103-2.103","d7c5zmytwlqw3yu",942,"187.csv","","null","resources/images/fishbone.png","null","",NA,NA,NA,NA,""
"image-keyboard-response",324,285421,"0.0-4.104-0.104","d7c5zmytwlqw3yu",942,"187.csv","","307.69999999552965","resources/trios/L4T2A2.jpg","38","restless",0.6,0.8,0.5,0.274621783567662,"true"
"image-keyboard-response",325,285824,"0.0-4.104-1.104","d7c5zmytwlqw3yu",942,"187.csv","","null","resources/maskTrios/BT2B.jpg","null","",NA,NA,NA,NA,""
"image-keyboard-response",326,287027,"0.0-4.104-2.104","d7c5zmytwlqw3yu",942,"187.csv","","null","resources/images/coin2.png","null","",NA,NA,NA,NA,""
"image-keyboard-response",327,287395,"0.0-4.105-0.105","d7c5zmytwlqw3yu",942,"187.csv","","366","resources/trios/L4T2A2.jpg","38","restless",0.6,0.8,0.5,0.418028179755553,"true"
"image-keyboard-response",328,287798,"0.0-4.105-1.105","d7c5zmytwlqw3yu",942,"187.csv","","null","resources/maskTrios/BT2B.jpg","null","",NA,NA,NA,NA,""
"image-keyboard-response",329,289001,"0.0-4.105-2.105","d7c5zmytwlqw3yu",942,"187.csv","","null","resources/images/coin2.png","null","",NA,NA,NA,NA,""
"image-keyboard-response",330,289340,"0.0-4.106-0.106","d7c5zmytwlqw3yu",942,"187.csv","","336.79999999701977","resources/trios/L4T2A2.jpg","38","restless",0.6,0.8,0.5,0.233803525999574,"true"
"image-keyboard-response",331,289744,"0.0-4.106-1.106","d7c5zmytwlqw3yu",942,"187.csv","","null","resources/maskTrios/BT2B.jpg","null","",NA,NA,NA,NA,""
"image-keyboard-response",332,290947,"0.0-4.106-2.106","d7c5zmytwlqw3yu",942,"187.csv","","null","resources/images/coin2.png","null","",NA,NA,NA,NA,""
"image-keyboard-response",333,291296,"0.0-4.107-0.107","d7c5zmytwlqw3yu",942,"187.csv","","347.70000000298023","resources/trios/L4T2A2.jpg","38","restless",0.6,0.8,0.5,0.696663463085112,"true"
"image-keyboard-response",334,291699,"0.0-4.107-1.107","d7c5zmytwlqw3yu",942,"187.csv","","null","resources/maskTrios/BT2B.jpg","null","",NA,NA,NA,NA,""
"image-keyboard-response",335,292903,"0.0-4.107-2.107","d7c5zmytwlqw3yu",942,"187.csv","","null","resources/images/coin2.png","null","",NA,NA,NA,NA,""
"image-keyboard-response",336,293227,"0.0-4.108-0.108","d7c5zmytwlqw3yu",942,"187.csv","","322.29999999701977","resources/trios/L4T2A2.jpg","38","restless",0.6,0.8,0.5,0.187281758705109,"true"
"image-keyboard-response",337,293629,"0.0-4.108-1.108","d7c5zmytwlqw3yu",942,"187.csv","","null","resources/maskTrios/BT2B.jpg","null","",NA,NA,NA,NA,""
"image-keyboard-response",338,294832,"0.0-4.108-2.108","d7c5zmytwlqw3yu",942,"187.csv","","null","resources/images/coin2.png","null","",NA,NA,NA,NA,""
"image-keyboard-response",339,294903,"0.0-4.109-0.109","d7c5zmytwlqw3yu",942,"187.csv","","69.30000000447035","resources/trios/L4T2A2.jpg","38","restless",0.6,0.8,0.5,0.292877355817686,"true"
"image-keyboard-response",340,295306,"0.0-4.109-1.109","d7c5zmytwlqw3yu",942,"187.csv","","null","resources/maskTrios/BT2B.jpg","null","",NA,NA,NA,NA,""
"image-keyboard-response",341,296509,"0.0-4.109-2.109","d7c5zmytwlqw3yu",942,"187.csv","","null","resources/images/coin2.png","null","",NA,NA,NA,NA,""
"image-keyboard-response",342,296808,"0.0-4.110-0.110","d7c5zmytwlqw3yu",942,"187.csv","","296.70000000298023","resources/trios/L4T2A2.jpg","38","restless",0.6,0.8,0.5,0.915634622853575,"false"
"image-keyboard-response",343,297211,"0.0-4.110-1.110","d7c5zmytwlqw3yu",942,"187.csv","","null","resources/maskTrios/BT2B.jpg","null","",NA,NA,NA,NA,""
"image-keyboard-response",344,298414,"0.0-4.110-2.110","d7c5zmytwlqw3yu",942,"187.csv","","null","resources/images/fishbone.png","null","",NA,NA,NA,NA,""
"image-keyboard-response",345,298703,"0.0-4.111-0.111","d7c5zmytwlqw3yu",942,"187.csv","","287.8999999985099","resources/trios/L4T2A2.jpg","38","restless",0.6,0.8,0.4,0.464586937941099,"true"
"image-keyboard-response",346,299106,"0.0-4.111-1.111","d7c5zmytwlqw3yu",942,"187.csv","","null","resources/maskTrios/BT2B.jpg","null","",NA,NA,NA,NA,""
"image-keyboard-response",347,300309,"0.0-4.111-2.111","d7c5zmytwlqw3yu",942,"187.csv","","null","resources/images/coin2.png","null","",NA,NA,NA,NA,""
"image-keyboard-response",348,300713,"0.0-4.112-0.112","d7c5zmytwlqw3yu",942,"187.csv","","401.29999999701977","resources/trios/L4T2A2.jpg","38","restless",0.6,0.8,0.4,0.402735984751037,"true"
"image-keyboard-response",349,301116,"0.0-4.112-1.112","d7c5zmytwlqw3yu",942,"187.csv","","null","resources/maskTrios/BT2B.jpg","null","",NA,NA,NA,NA,""
"image-keyboard-response",350,302318,"0.0-4.112-2.112","d7c5zmytwlqw3yu",942,"187.csv","","null","resources/images/coin2.png","null","",NA,NA,NA,NA,""
"image-keyboard-response",351,302586,"0.0-4.113-0.113","d7c5zmytwlqw3yu",942,"187.csv","","266.6000000014901","resources/trios/L4T2A2.jpg","38","restless",0.5,0.8,0.4,0.729669278764791,"true"
"image-keyboard-response",352,302989,"0.0-4.113-1.113","d7c5zmytwlqw3yu",942,"187.csv","","null","resources/maskTrios/BT2B.jpg","null","",NA,NA,NA,NA,""
"image-keyboard-response",353,304192,"0.0-4.113-2.113","d7c5zmytwlqw3yu",942,"187.csv","","null","resources/images/coin2.png","null","",NA,NA,NA,NA,""
"image-keyboard-response",354,304521,"0.0-4.114-0.114","d7c5zmytwlqw3yu",942,"187.csv","","328.3999999985099","resources/trios/L4T2A2.jpg","38","restless",0.5,0.8,0.4,0.671814560738632,"true"
"image-keyboard-response",355,304924,"0.0-4.114-1.114","d7c5zmytwlqw3yu",942,"187.csv","","null","resources/maskTrios/BT2B.jpg","null","",NA,NA,NA,NA,""
"image-keyboard-response",356,306127,"0.0-4.114-2.114","d7c5zmytwlqw3yu",942,"187.csv","","null","resources/images/coin2.png","null","",NA,NA,NA,NA,""
"image-keyboard-response",357,306438,"0.0-4.115-0.115","d7c5zmytwlqw3yu",942,"187.csv","","309.40000000596046","resources/trios/L4T2A2.jpg","38","restless",0.5,0.8,0.4,0.305510448164329,"true"
"image-keyboard-response",358,306841,"0.0-4.115-1.115","d7c5zmytwlqw3yu",942,"187.csv","","null","resources/maskTrios/BT2B.jpg","null","",NA,NA,NA,NA,""
"image-keyboard-response",359,308043,"0.0-4.115-2.115","d7c5zmytwlqw3yu",942,"187.csv","","null","resources/images/coin2.png","null","",NA,NA,NA,NA,""
"image-keyboard-response",360,308341,"0.0-4.116-0.116","d7c5zmytwlqw3yu",942,"187.csv","","296","resources/trios/L4T2A2.jpg","38","restless",0.5,0.8,0.4,0.349697212615766,"true"
"image-keyboard-response",361,308743,"0.0-4.116-1.116","d7c5zmytwlqw3yu",942,"187.csv","","null","resources/maskTrios/BT2B.jpg","null","",NA,NA,NA,NA,""
"image-keyboard-response",362,309947,"0.0-4.116-2.116","d7c5zmytwlqw3yu",942,"187.csv","","null","resources/images/coin2.png","null","",NA,NA,NA,NA,""
"image-keyboard-response",363,310263,"0.0-4.117-0.117","d7c5zmytwlqw3yu",942,"187.csv","","314.19999999552965","resources/trios/L4T2A2.jpg","38","restless",0.5,0.8,0.4,0.962701986179207,"false"
"image-keyboard-response",364,310666,"0.0-4.117-1.117","d7c5zmytwlqw3yu",942,"187.csv","","null","resources/maskTrios/BT2B.jpg","null","",NA,NA,NA,NA,""
"image-keyboard-response",365,311869,"0.0-4.117-2.117","d7c5zmytwlqw3yu",942,"187.csv","","null","resources/images/fishbone.png","null","",NA,NA,NA,NA,""
"image-keyboard-response",366,312208,"0.0-4.118-0.118","d7c5zmytwlqw3yu",942,"187.csv","","337","resources/trios/L4T2A2.jpg","38","restless",0.5,0.8,0.4,0.455006647114775,"true"
"image-keyboard-response",367,312611,"0.0-4.118-1.118","d7c5zmytwlqw3yu",942,"187.csv","","null","resources/maskTrios/BT2B.jpg","null","",NA,NA,NA,NA,""
"image-keyboard-response",368,313813,"0.0-4.118-2.118","d7c5zmytwlqw3yu",942,"187.csv","","null","resources/images/coin2.png","null","",NA,NA,NA,NA,""
"image-keyboard-response",369,314193,"0.0-4.119-0.119","d7c5zmytwlqw3yu",942,"187.csv","","378.5","resources/trios/L4T2A2.jpg","38","restless",0.5,0.8,0.4,0.195523497340921,"true"
"image-keyboard-response",370,314596,"0.0-4.119-1.119","d7c5zmytwlqw3yu",942,"187.csv","","null","resources/maskTrios/BT2B.jpg","null","",NA,NA,NA,NA,""
"image-keyboard-response",371,315799,"0.0-4.119-2.119","d7c5zmytwlqw3yu",942,"187.csv","","null","resources/images/coin2.png","null","",NA,NA,NA,NA,""
"image-keyboard-response",372,316292,"0.0-4.120-0.120","d7c5zmytwlqw3yu",942,"187.csv","","491.3999999985099","resources/trios/L4T2A2.jpg","38","restless",0.4,0.8,0.4,0.651789005611058,"true"
"image-keyboard-response",373,316695,"0.0-4.120-1.120","d7c5zmytwlqw3yu",942,"187.csv","","null","resources/maskTrios/BT2B.jpg","null","",NA,NA,NA,NA,""
"image-keyboard-response",374,317897,"0.0-4.120-2.120","d7c5zmytwlqw3yu",942,"187.csv","","null","resources/images/coin2.png","null","",NA,NA,NA,NA,""
"image-keyboard-response",375,318246,"0.0-4.121-0.121","d7c5zmytwlqw3yu",942,"187.csv","","347.30000000447035","resources/trios/L4T2A2.jpg","38","restless",0.4,0.8,0.4,0.125375599629866,"true"
"image-keyboard-response",376,318649,"0.0-4.121-1.121","d7c5zmytwlqw3yu",942,"187.csv","","null","resources/maskTrios/BT2B.jpg","null","",NA,NA,NA,NA,""
"image-keyboard-response",377,319852,"0.0-4.121-2.121","d7c5zmytwlqw3yu",942,"187.csv","","null","resources/images/coin2.png","null","",NA,NA,NA,NA,""
"image-keyboard-response",378,320181,"0.0-4.122-0.122","d7c5zmytwlqw3yu",942,"187.csv","","327.5","resources/trios/L4T2A2.jpg","38","restless",0.4,0.8,0.4,0.610060785919097,"true"
"image-keyboard-response",379,320584,"0.0-4.122-1.122","d7c5zmytwlqw3yu",942,"187.csv","","null","resources/maskTrios/BT2B.jpg","null","",NA,NA,NA,NA,""
"image-keyboard-response",380,321786,"0.0-4.122-2.122","d7c5zmytwlqw3yu",942,"187.csv","","null","resources/images/coin2.png","null","",NA,NA,NA,NA,""
"image-keyboard-response",381,322107,"0.0-4.123-0.123","d7c5zmytwlqw3yu",942,"187.csv","","318.5","resources/trios/L4T2A2.jpg","38","restless",0.4,0.8,0.4,0.508260046840793,"true"
"image-keyboard-response",382,322509,"0.0-4.123-1.123","d7c5zmytwlqw3yu",942,"187.csv","","null","resources/maskTrios/BT2B.jpg","null","",NA,NA,NA,NA,""
"image-keyboard-response",383,323712,"0.0-4.123-2.123","d7c5zmytwlqw3yu",942,"187.csv","","null","resources/images/coin2.png","null","",NA,NA,NA,NA,""
"image-keyboard-response",384,324046,"0.0-4.124-0.124","d7c5zmytwlqw3yu",942,"187.csv","","332.1000000014901","resources/trios/L4T2A2.jpg","38","restless",0.5,0.8,0.4,0.883381112806018,"false"
"image-keyboard-response",385,324449,"0.0-4.124-1.124","d7c5zmytwlqw3yu",942,"187.csv","","null","resources/maskTrios/BT2B.jpg","null","",NA,NA,NA,NA,""
"image-keyboard-response",386,325652,"0.0-4.124-2.124","d7c5zmytwlqw3yu",942,"187.csv","","null","resources/images/fishbone.png","null","",NA,NA,NA,NA,""
"image-keyboard-response",387,325989,"0.0-4.125-0.125","d7c5zmytwlqw3yu",942,"187.csv","","334.70000000298023","resources/trios/L4T2A2.jpg","38","restless",0.5,0.8,0.4,0.717944268113695,"true"
"image-keyboard-response",388,326392,"0.0-4.125-1.125","d7c5zmytwlqw3yu",942,"187.csv","","null","resources/maskTrios/BT2B.jpg","null","",NA,NA,NA,NA,""
"image-keyboard-response",389,327595,"0.0-4.125-2.125","d7c5zmytwlqw3yu",942,"187.csv","","null","resources/images/coin2.png","null","",NA,NA,NA,NA,""
"image-keyboard-response",390,327911,"0.0-4.126-0.126","d7c5zmytwlqw3yu",942,"187.csv","","313.6000000014901","resources/trios/L4T2A2.jpg","38","restless",0.5,0.8,0.4,0.676107213514312,"true"
"image-keyboard-response",391,328313,"0.0-4.126-1.126","d7c5zmytwlqw3yu",942,"187.csv","","null","resources/maskTrios/BT2B.jpg","null","",NA,NA,NA,NA,""
"image-keyboard-response",392,329516,"0.0-4.126-2.126","d7c5zmytwlqw3yu",942,"187.csv","","null","resources/images/coin2.png","null","",NA,NA,NA,NA,""
"image-keyboard-response",393,329819,"0.0-4.127-0.127","d7c5zmytwlqw3yu",942,"187.csv","","301.1000000014901","resources/trios/L4T2A2.jpg","38","restless",0.5,0.8,0.4,0.641513022430954,"true"
"image-keyboard-response",394,330222,"0.0-4.127-1.127","d7c5zmytwlqw3yu",942,"187.csv","","null","resources/maskTrios/BT2B.jpg","null","",NA,NA,NA,NA,""
"image-keyboard-response",395,331425,"0.0-4.127-2.127","d7c5zmytwlqw3yu",942,"187.csv","","null","resources/images/coin2.png","null","",NA,NA,NA,NA,""
"image-keyboard-response",396,331755,"0.0-4.128-0.128","d7c5zmytwlqw3yu",942,"187.csv","","327.8999999985099","resources/trios/L4T2A2.jpg","38","restless",0.4,0.8,0.4,0.561208244107613,"true"
"image-keyboard-response",397,332158,"0.0-4.128-1.128","d7c5zmytwlqw3yu",942,"187.csv","","null","resources/maskTrios/BT2B.jpg","null","",NA,NA,NA,NA,""
"image-keyboard-response",398,333361,"0.0-4.128-2.128","d7c5zmytwlqw3yu",942,"187.csv","","null","resources/images/coin2.png","null","",NA,NA,NA,NA,""
"image-keyboard-response",399,333692,"0.0-4.129-0.129","d7c5zmytwlqw3yu",942,"187.csv","","329","resources/trios/L4T2A2.jpg","38","restless",0.4,0.8,0.4,0.583333712196106,"true"
"image-keyboard-response",400,334095,"0.0-4.129-1.129","d7c5zmytwlqw3yu",942,"187.csv","","null","resources/maskTrios/BT2B.jpg","null","",NA,NA,NA,NA,""
"image-keyboard-response",401,335298,"0.0-4.129-2.129","d7c5zmytwlqw3yu",942,"187.csv","","null","resources/images/coin2.png","null","",NA,NA,NA,NA,""
"image-keyboard-response",402,335633,"0.0-4.130-0.130","d7c5zmytwlqw3yu",942,"187.csv","","333.19999999552965","resources/trios/L4T2A2.jpg","38","restless",0.4,0.8,0.4,0.752654352403502,"true"
"image-keyboard-response",403,336035,"0.0-4.130-1.130","d7c5zmytwlqw3yu",942,"187.csv","","null","resources/maskTrios/BT2B.jpg","null","",NA,NA,NA,NA,""
"image-keyboard-response",404,337239,"0.0-4.130-2.130","d7c5zmytwlqw3yu",942,"187.csv","","null","resources/images/coin2.png","null","",NA,NA,NA,NA,""
"image-keyboard-response",405,337575,"0.0-4.131-0.131","d7c5zmytwlqw3yu",942,"187.csv","","334.30000000447035","resources/trios/L4T2A2.jpg","38","restless",0.4,0.8,0.4,0.111726026110502,"true"
"image-keyboard-response",406,337977,"0.0-4.131-1.131","d7c5zmytwlqw3yu",942,"187.csv","","null","resources/maskTrios/BT2B.jpg","null","",NA,NA,NA,NA,""
"image-keyboard-response",407,339181,"0.0-4.131-2.131","d7c5zmytwlqw3yu",942,"187.csv","","null","resources/images/coin2.png","null","",NA,NA,NA,NA,""
"image-keyboard-response",408,339539,"0.0-4.132-0.132","d7c5zmytwlqw3yu",942,"187.csv","","356.5","resources/trios/L4T2A2.jpg","38","restless",0.4,0.8,0.4,0.668105265445569,"true"
"image-keyboard-response",409,339942,"0.0-4.132-1.132","d7c5zmytwlqw3yu",942,"187.csv","","null","resources/maskTrios/BT2B.jpg","null","",NA,NA,NA,NA,""
"image-keyboard-response",410,341145,"0.0-4.132-2.132","d7c5zmytwlqw3yu",942,"187.csv","","null","resources/images/coin2.png","null","",NA,NA,NA,NA,""
"image-keyboard-response",411,341486,"0.0-4.133-0.133","d7c5zmytwlqw3yu",942,"187.csv","","338.70000000298023","resources/trios/L4T2A2.jpg","38","restless",0.4,0.8,0.4,0.582707813220743,"true"
"image-keyboard-response",412,341889,"0.0-4.133-1.133","d7c5zmytwlqw3yu",942,"187.csv","","null","resources/maskTrios/BT2B.jpg","null","",NA,NA,NA,NA,""
"image-keyboard-response",413,343092,"0.0-4.133-2.133","d7c5zmytwlqw3yu",942,"187.csv","","null","resources/images/coin2.png","null","",NA,NA,NA,NA,""
"image-keyboard-response",414,343371,"0.0-4.134-0.134","d7c5zmytwlqw3yu",942,"187.csv","","277.1000000014901","resources/trios/L4T2A2.jpg","38","restless",0.4,0.8,0.5,0.692859058487731,"true"
"image-keyboard-response",415,343773,"0.0-4.134-1.134","d7c5zmytwlqw3yu",942,"187.csv","","null","resources/maskTrios/BT2B.jpg","null","",NA,NA,NA,NA,""
"image-keyboard-response",416,344976,"0.0-4.134-2.134","d7c5zmytwlqw3yu",942,"187.csv","","null","resources/images/coin2.png","null","",NA,NA,NA,NA,""
"image-keyboard-response",417,345460,"0.0-4.135-0.135","d7c5zmytwlqw3yu",942,"187.csv","","481.8999999985099","resources/trios/L4T2A2.jpg","38","restless",0.4,0.8,0.5,0.151027219657672,"true"
"image-keyboard-response",418,345862,"0.0-4.135-1.135","d7c5zmytwlqw3yu",942,"187.csv","","null","resources/maskTrios/BT2B.jpg","null","",NA,NA,NA,NA,""
"image-keyboard-response",419,347065,"0.0-4.135-2.135","d7c5zmytwlqw3yu",942,"187.csv","","null","resources/images/coin2.png","null","",NA,NA,NA,NA,""
"image-keyboard-response",420,347379,"0.0-4.136-0.136","d7c5zmytwlqw3yu",942,"187.csv","","313.1000000014901","resources/trios/L4T2A2.jpg","38","restless",0.4,0.8,0.5,0.436634984427874,"true"
"image-keyboard-response",421,347782,"0.0-4.136-1.136","d7c5zmytwlqw3yu",942,"187.csv","","null","resources/maskTrios/BT2B.jpg","null","",NA,NA,NA,NA,""
"image-keyboard-response",422,348986,"0.0-4.136-2.136","d7c5zmytwlqw3yu",942,"187.csv","","null","resources/images/coin2.png","null","",NA,NA,NA,NA,""
"image-keyboard-response",423,349310,"0.0-4.137-0.137","d7c5zmytwlqw3yu",942,"187.csv","","322.29999999701977","resources/trios/L4T2A2.jpg","38","restless",0.4,0.8,0.5,0.529894765621821,"true"
"image-keyboard-response",424,349712,"0.0-4.137-1.137","d7c5zmytwlqw3yu",942,"187.csv","","null","resources/maskTrios/BT2B.jpg","null","",NA,NA,NA,NA,""
"image-keyboard-response",425,350916,"0.0-4.137-2.137","d7c5zmytwlqw3yu",942,"187.csv","","null","resources/images/coin2.png","null","",NA,NA,NA,NA,""
"image-keyboard-response",426,351199,"0.0-4.138-0.138","d7c5zmytwlqw3yu",942,"187.csv","","282.1000000014901","resources/trios/L4T2A2.jpg","38","restless",0.4,0.8,0.5,0.71667441229965,"true"
"image-keyboard-response",427,351602,"0.0-4.138-1.138","d7c5zmytwlqw3yu",942,"187.csv","","null","resources/maskTrios/BT2B.jpg","null","",NA,NA,NA,NA,""
"image-keyboard-response",428,352805,"0.0-4.138-2.138","d7c5zmytwlqw3yu",942,"187.csv","","null","resources/images/coin2.png","null","",NA,NA,NA,NA,""
"image-keyboard-response",429,353125,"0.0-4.139-0.139","d7c5zmytwlqw3yu",942,"187.csv","","317.70000000298023","resources/trios/L4T2A2.jpg","38","restless",0.4,0.8,0.5,0.446954193279702,"true"
"image-keyboard-response",430,353527,"0.0-4.139-1.139","d7c5zmytwlqw3yu",942,"187.csv","","null","resources/maskTrios/BT2B.jpg","null","",NA,NA,NA,NA,""
"image-keyboard-response",431,354731,"0.0-4.139-2.139","d7c5zmytwlqw3yu",942,"187.csv","","null","resources/images/coin2.png","null","",NA,NA,NA,NA,""
"image-keyboard-response",432,354786,"0.0-4.140-0.140","d7c5zmytwlqw3yu",942,"187.csv","","53","resources/trios/L4T2A2.jpg","38","restless",0.5,0.8,0.5,0.487614723337525,"true"
"image-keyboard-response",433,355189,"0.0-4.140-1.140","d7c5zmytwlqw3yu",942,"187.csv","","null","resources/maskTrios/BT2B.jpg","null","",NA,NA,NA,NA,""
"image-keyboard-response",434,356393,"0.0-4.140-2.140","d7c5zmytwlqw3yu",942,"187.csv","","null","resources/images/coin2.png","null","",NA,NA,NA,NA,""
"image-keyboard-response",435,356700,"0.0-4.141-0.141","d7c5zmytwlqw3yu",942,"187.csv","","306.20000000298023","resources/trios/L4T2A2.jpg","38","restless",0.5,0.8,0.5,0.0836345298920103,"true"
"image-keyboard-response",436,357104,"0.0-4.141-1.141","d7c5zmytwlqw3yu",942,"187.csv","","null","resources/maskTrios/BT2B.jpg","null","",NA,NA,NA,NA,""
"image-keyboard-response",437,358307,"0.0-4.141-2.141","d7c5zmytwlqw3yu",942,"187.csv","","null","resources/images/coin2.png","null","",NA,NA,NA,NA,""
"image-keyboard-response",438,358713,"0.0-4.142-0.142","d7c5zmytwlqw3yu",942,"187.csv","","404.1000000014901","resources/trios/L4T2A2.jpg","38","restless",0.5,0.8,0.5,0.397101220054598,"true"
"image-keyboard-response",439,359116,"0.0-4.142-1.142","d7c5zmytwlqw3yu",942,"187.csv","","null","resources/maskTrios/BT2B.jpg","null","",NA,NA,NA,NA,""
"image-keyboard-response",440,360320,"0.0-4.142-2.142","d7c5zmytwlqw3yu",942,"187.csv","","null","resources/images/coin2.png","null","",NA,NA,NA,NA,""
"image-keyboard-response",441,360678,"0.0-4.143-0.143","d7c5zmytwlqw3yu",942,"187.csv","","356.70000000298023","resources/trios/L4T2A2.jpg","38","restless",0.5,0.9,0.5,0.255120179501078,"true"
"image-keyboard-response",442,361081,"0.0-4.143-1.143","d7c5zmytwlqw3yu",942,"187.csv","","null","resources/maskTrios/BT2B.jpg","null","",NA,NA,NA,NA,""
"image-keyboard-response",443,362284,"0.0-4.143-2.143","d7c5zmytwlqw3yu",942,"187.csv","","null","resources/images/coin2.png","null","",NA,NA,NA,NA,""
"image-keyboard-response",444,362681,"0.0-4.144-0.144","d7c5zmytwlqw3yu",942,"187.csv","","394.8999999985099","resources/trios/L4T2A2.jpg","38","restless",0.5,0.9,0.5,0.938810795571467,"false"
"image-keyboard-response",445,363084,"0.0-4.144-1.144","d7c5zmytwlqw3yu",942,"187.csv","","null","resources/maskTrios/BT2B.jpg","null","",NA,NA,NA,NA,""
"image-keyboard-response",446,364286,"0.0-4.144-2.144","d7c5zmytwlqw3yu",942,"187.csv","","null","resources/images/fishbone.png","null","",NA,NA,NA,NA,""
"image-keyboard-response",447,364586,"0.0-4.145-0.145","d7c5zmytwlqw3yu",942,"187.csv","","297.90000000596046","resources/trios/L4T2A2.jpg","38","restless",0.5,0.9,0.5,0.867031818753451,"true"
"image-keyboard-response",448,364989,"0.0-4.145-1.145","d7c5zmytwlqw3yu",942,"187.csv","","null","resources/maskTrios/BT2B.jpg","null","",NA,NA,NA,NA,""
"image-keyboard-response",449,366192,"0.0-4.145-2.145","d7c5zmytwlqw3yu",942,"187.csv","","null","resources/images/coin2.png","null","",NA,NA,NA,NA,""
"image-keyboard-response",450,366476,"0.0-4.146-0.146","d7c5zmytwlqw3yu",942,"187.csv","","282.1000000014901","resources/trios/L4T2A2.jpg","38","restless",0.5,0.9,0.5,0.725326110024651,"true"
"image-keyboard-response",451,366879,"0.0-4.146-1.146","d7c5zmytwlqw3yu",942,"187.csv","","null","resources/maskTrios/BT2B.jpg","null","",NA,NA,NA,NA,""
"image-keyboard-response",452,368082,"0.0-4.146-2.146","d7c5zmytwlqw3yu",942,"187.csv","","null","resources/images/coin2.png","null","",NA,NA,NA,NA,""
"image-keyboard-response",453,368440,"0.0-4.147-0.147","d7c5zmytwlqw3yu",942,"187.csv","","356.3999999985099","resources/trios/L4T2A2.jpg","38","restless",0.5,0.9,0.5,0.354325649145891,"true"
"image-keyboard-response",454,368843,"0.0-4.147-1.147","d7c5zmytwlqw3yu",942,"187.csv","","null","resources/maskTrios/BT2B.jpg","null","",NA,NA,NA,NA,""
"image-keyboard-response",455,370046,"0.0-4.147-2.147","d7c5zmytwlqw3yu",942,"187.csv","","null","resources/images/coin2.png","null","",NA,NA,NA,NA,""
"image-keyboard-response",456,370343,"0.0-4.148-0.148","d7c5zmytwlqw3yu",942,"187.csv","","295.1000000014901","resources/trios/L4T2A2.jpg","38","restless",0.5,0.8,0.6,0.0822227014204604,"true"
"image-keyboard-response",457,370746,"0.0-4.148-1.148","d7c5zmytwlqw3yu",942,"187.csv","","null","resources/maskTrios/BT2B.jpg","null","",NA,NA,NA,NA,""
"image-keyboard-response",458,371948,"0.0-4.148-2.148","d7c5zmytwlqw3yu",942,"187.csv","","null","resources/images/coin2.png","null","",NA,NA,NA,NA,""
"image-keyboard-response",459,372325,"0.0-4.149-0.149","d7c5zmytwlqw3yu",942,"187.csv","","373.8999999985099","resources/trios/L4T2A2.jpg","38","restless",0.5,0.8,0.6,0.109613497495739,"true"
"image-keyboard-response",460,372728,"0.0-4.149-1.149","d7c5zmytwlqw3yu",942,"187.csv","","null","resources/maskTrios/BT2B.jpg","null","",NA,NA,NA,NA,""
"image-keyboard-response",461,373931,"0.0-4.149-2.149","d7c5zmytwlqw3yu",942,"187.csv","","null","resources/images/coin2.png","null","",NA,NA,NA,NA,""
"image-keyboard-response",462,374334,"0.0-4.150-0.150","d7c5zmytwlqw3yu",942,"187.csv","","400.59999999403954","resources/trios/L4T2A2.jpg","38","restless",0.5,0.7,0.6,0.624900497858707,"true"
"image-keyboard-response",463,374737,"0.0-4.150-1.150","d7c5zmytwlqw3yu",942,"187.csv","","null","resources/maskTrios/BT2B.jpg","null","",NA,NA,NA,NA,""
"image-keyboard-response",464,375940,"0.0-4.150-2.150","d7c5zmytwlqw3yu",942,"187.csv","","null","resources/images/coin2.png","null","",NA,NA,NA,NA,""
"image-keyboard-response",465,376470,"0.0-4.151-0.151","d7c5zmytwlqw3yu",942,"187.csv","","528.1000000014901","resources/trios/L4T2A2.jpg","38","restless",0.5,0.7,0.6,0.121300963648973,"true"
"image-keyboard-response",466,376873,"0.0-4.151-1.151","d7c5zmytwlqw3yu",942,"187.csv","","null","resources/maskTrios/BT2B.jpg","null","",NA,NA,NA,NA,""
"image-keyboard-response",467,378077,"0.0-4.151-2.151","d7c5zmytwlqw3yu",942,"187.csv","","null","resources/images/coin2.png","null","",NA,NA,NA,NA,""
"image-keyboard-response",468,378517,"0.0-4.152-0.152","d7c5zmytwlqw3yu",942,"187.csv","","438.79999999701977","resources/trios/L4T2A2.jpg","38","restless",0.5,0.7,0.6,0.258375231948836,"true"
"image-keyboard-response",469,378919,"0.0-4.152-1.152","d7c5zmytwlqw3yu",942,"187.csv","","null","resources/maskTrios/BT2B.jpg","null","",NA,NA,NA,NA,""
"image-keyboard-response",470,380123,"0.0-4.152-2.152","d7c5zmytwlqw3yu",942,"187.csv","","null","resources/images/coin2.png","null","",NA,NA,NA,NA,""
"image-keyboard-response",471,380541,"0.0-4.153-0.153","d7c5zmytwlqw3yu",942,"187.csv","","416.30000000447035","resources/trios/L4T2A2.jpg","38","restless",0.5,0.7,0.6,0.764219858902079,"false"
"image-keyboard-response",472,380944,"0.0-4.153-1.153","d7c5zmytwlqw3yu",942,"187.csv","","null","resources/maskTrios/BT2B.jpg","null","",NA,NA,NA,NA,""
"image-keyboard-response",473,382147,"0.0-4.153-2.153","d7c5zmytwlqw3yu",942,"187.csv","","null","resources/images/fishbone.png","null","",NA,NA,NA,NA,""
"image-keyboard-response",474,382451,"0.0-4.154-0.154","d7c5zmytwlqw3yu",942,"187.csv","","301.8999999985099","resources/trios/L4T2A2.jpg","38","restless",0.5,0.6,0.6,0.911114615040851,"false"
"image-keyboard-response",475,382853,"0.0-4.154-1.154","d7c5zmytwlqw3yu",942,"187.csv","","null","resources/maskTrios/BT2B.jpg","null","",NA,NA,NA,NA,""
"image-keyboard-response",476,384056,"0.0-4.154-2.154","d7c5zmytwlqw3yu",942,"187.csv","","null","resources/images/fishbone.png","null","",NA,NA,NA,NA,""
"image-keyboard-response",477,384394,"0.0-4.155-0.155","d7c5zmytwlqw3yu",942,"187.csv","","336.5","resources/trios/L4T2A2.jpg","38","restless",0.5,0.6,0.6,0.0335472650890807,"true"
"image-keyboard-response",478,384797,"0.0-4.155-1.155","d7c5zmytwlqw3yu",942,"187.csv","","null","resources/maskTrios/BT2B.jpg","null","",NA,NA,NA,NA,""
"image-keyboard-response",479,386001,"0.0-4.155-2.155","d7c5zmytwlqw3yu",942,"187.csv","","null","resources/images/coin2.png","null","",NA,NA,NA,NA,""
"image-keyboard-response",480,386324,"0.0-4.156-0.156","d7c5zmytwlqw3yu",942,"187.csv","","321.40000000596046","resources/trios/L4T2A2.jpg","38","restless",0.5,0.6,0.6,0.497454884152902,"true"
"image-keyboard-response",481,386726,"0.0-4.156-1.156","d7c5zmytwlqw3yu",942,"187.csv","","null","resources/maskTrios/BT2B.jpg","null","",NA,NA,NA,NA,""
"image-keyboard-response",482,387929,"0.0-4.156-2.156","d7c5zmytwlqw3yu",942,"187.csv","","null","resources/images/coin2.png","null","",NA,NA,NA,NA,""
"image-keyboard-response",483,388233,"0.0-4.157-0.157","d7c5zmytwlqw3yu",942,"187.csv","","302.19999999552965","resources/trios/L4T2A2.jpg","38","restless",0.5,0.6,0.7,0.303685478293686,"true"
"image-keyboard-response",484,388636,"0.0-4.157-1.157","d7c5zmytwlqw3yu",942,"187.csv","","null","resources/maskTrios/BT2B.jpg","null","",NA,NA,NA,NA,""
"image-keyboard-response",485,389838,"0.0-4.157-2.157","d7c5zmytwlqw3yu",942,"187.csv","","null","resources/images/coin2.png","null","",NA,NA,NA,NA,""
"image-keyboard-response",486,390045,"0.0-4.158-0.158","d7c5zmytwlqw3yu",942,"187.csv","","205.89999999850988","resources/trios/L4T2A2.jpg","38","restless",0.4,0.6,0.7,0.921952163128514,"false"
"image-keyboard-response",487,390446,"0.0-4.158-1.158","d7c5zmytwlqw3yu",942,"187.csv","","null","resources/maskTrios/BT2B.jpg","null","",NA,NA,NA,NA,""
"image-keyboard-response",488,391649,"0.0-4.158-2.158","d7c5zmytwlqw3yu",942,"187.csv","","null","resources/images/fishbone.png","null","",NA,NA,NA,NA,""
"image-keyboard-response",489,391719,"0.0-4.159-0.159","d7c5zmytwlqw3yu",942,"187.csv","","68.29999999701977","resources/trios/L4T2A2.jpg","38","restless",0.4,0.6,0.7,0.812446359382058,"false"
"image-keyboard-response",490,392121,"0.0-4.159-1.159","d7c5zmytwlqw3yu",942,"187.csv","","null","resources/maskTrios/BT2B.jpg","null","",NA,NA,NA,NA,""
"image-keyboard-response",491,393323,"0.0-4.159-2.159","d7c5zmytwlqw3yu",942,"187.csv","","null","resources/images/fishbone.png","null","",NA,NA,NA,NA,""
"image-keyboard-response",492,393688,"0.0-4.160-0.160","d7c5zmytwlqw3yu",942,"187.csv","","362.70000000298023","resources/trios/L4T2A2.jpg","38","restless",0.4,0.6,0.7,0.238582287126951,"true"
"image-keyboard-response",493,394091,"0.0-4.160-1.160","d7c5zmytwlqw3yu",942,"187.csv","","null","resources/maskTrios/BT2B.jpg","null","",NA,NA,NA,NA,""
"image-keyboard-response",494,395294,"0.0-4.160-2.160","d7c5zmytwlqw3yu",942,"187.csv","","null","resources/images/coin2.png","null","",NA,NA,NA,NA,""
"image-keyboard-response",495,395378,"0.0-4.161-0.161","d7c5zmytwlqw3yu",942,"187.csv","","82.29999999701977","resources/trios/L4T2A2.jpg","38","restless",0.4,0.5,0.7,0.184390249159864,"true"
"image-keyboard-response",496,395780,"0.0-4.161-1.161","d7c5zmytwlqw3yu",942,"187.csv","","null","resources/maskTrios/BT2B.jpg","null","",NA,NA,NA,NA,""
"image-keyboard-response",497,396984,"0.0-4.161-2.161","d7c5zmytwlqw3yu",942,"187.csv","","null","resources/images/coin2.png","null","",NA,NA,NA,NA,""
"image-keyboard-response",498,397250,"0.0-4.162-0.162","d7c5zmytwlqw3yu",942,"187.csv","","265","resources/trios/L4T2A2.jpg","38","restless",0.4,0.5,0.7,0.468566237731025,"true"
"image-keyboard-response",499,397653,"0.0-4.162-1.162","d7c5zmytwlqw3yu",942,"187.csv","","null","resources/maskTrios/BT2B.jpg","null","",NA,NA,NA,NA,""
"image-keyboard-response",500,398856,"0.0-4.162-2.162","d7c5zmytwlqw3yu",942,"187.csv","","null","resources/images/coin2.png","null","",NA,NA,NA,NA,""
"image-keyboard-response",501,399153,"0.0-4.163-0.163","d7c5zmytwlqw3yu",942,"187.csv","","294.69999999552965","resources/trios/L4T2A2.jpg","38","restless",0.4,0.5,0.7,0.708023805044637,"false"
"image-keyboard-response",502,399556,"0.0-4.163-1.163","d7c5zmytwlqw3yu",942,"187.csv","","null","resources/maskTrios/BT2B.jpg","null","",NA,NA,NA,NA,""
"image-keyboard-response",503,400759,"0.0-4.163-2.163","d7c5zmytwlqw3yu",942,"187.csv","","null","resources/images/fishbone.png","null","",NA,NA,NA,NA,""
"image-keyboard-response",504,401165,"0.0-4.164-0.164","d7c5zmytwlqw3yu",942,"187.csv","","404.20000000298023","resources/trios/L4T2A2.jpg","38","restless",0.3,0.5,0.8,0.897344454488532,"false"
"image-keyboard-response",505,401568,"0.0-4.164-1.164","d7c5zmytwlqw3yu",942,"187.csv","","null","resources/maskTrios/BT2B.jpg","null","",NA,NA,NA,NA,""
"image-keyboard-response",506,402771,"0.0-4.164-2.164","d7c5zmytwlqw3yu",942,"187.csv","","null","resources/images/fishbone.png","null","",NA,NA,NA,NA,""
"image-keyboard-response",507,403051,"0.0-4.165-0.165","d7c5zmytwlqw3yu",942,"187.csv","","278.3999999985099","resources/trios/L4T2A2.jpg","38","restless",0.3,0.5,0.8,0.770776979043055,"false"
"image-keyboard-response",508,403454,"0.0-4.165-1.165","d7c5zmytwlqw3yu",942,"187.csv","","null","resources/maskTrios/BT2B.jpg","null","",NA,NA,NA,NA,""
"image-keyboard-response",509,404657,"0.0-4.165-2.165","d7c5zmytwlqw3yu",942,"187.csv","","null","resources/images/fishbone.png","null","",NA,NA,NA,NA,""
"image-keyboard-response",510,404963,"0.0-4.166-0.166","d7c5zmytwlqw3yu",942,"187.csv","","305","resources/trios/L4T2A2.jpg","38","restless",0.3,0.5,0.8,0.270063937490907,"true"
"image-keyboard-response",511,405366,"0.0-4.166-1.166","d7c5zmytwlqw3yu",942,"187.csv","","null","resources/maskTrios/BT2B.jpg","null","",NA,NA,NA,NA,""
"image-keyboard-response",512,406570,"0.0-4.166-2.166","d7c5zmytwlqw3yu",942,"187.csv","","null","resources/images/coin2.png","null","",NA,NA,NA,NA,""
"image-keyboard-response",513,406945,"0.0-4.167-0.167","d7c5zmytwlqw3yu",942,"187.csv","","373.70000000298023","resources/trios/L4T2A2.jpg","38","restless",0.3,0.5,0.8,0.839613690352583,"false"
"image-keyboard-response",514,407348,"0.0-4.167-1.167","d7c5zmytwlqw3yu",942,"187.csv","","null","resources/maskTrios/BT2B.jpg","null","",NA,NA,NA,NA,""
"image-keyboard-response",515,408551,"0.0-4.167-2.167","d7c5zmytwlqw3yu",942,"187.csv","","null","resources/images/fishbone.png","null","",NA,NA,NA,NA,""
"image-keyboard-response",516,408913,"0.0-4.168-0.168","d7c5zmytwlqw3yu",942,"187.csv","","360.19999999552965","resources/trios/L4T2A2.jpg","38","restless",0.3,0.6,0.8,0.608927516700401,"false"
"image-keyboard-response",517,409316,"0.0-4.168-1.168","d7c5zmytwlqw3yu",942,"187.csv","","null","resources/maskTrios/BT2B.jpg","null","",NA,NA,NA,NA,""
"image-keyboard-response",518,410518,"0.0-4.168-2.168","d7c5zmytwlqw3yu",942,"187.csv","","null","resources/images/fishbone.png","null","",NA,NA,NA,NA,""
"image-keyboard-response",519,410828,"0.0-4.169-0.169","d7c5zmytwlqw3yu",942,"187.csv","","308","resources/trios/L4T2A2.jpg","38","restless",0.3,0.6,0.8,0.253245372151736,"true"
"image-keyboard-response",520,411230,"0.0-4.169-1.169","d7c5zmytwlqw3yu",942,"187.csv","","null","resources/maskTrios/BT2B.jpg","null","",NA,NA,NA,NA,""
"image-keyboard-response",521,412433,"0.0-4.169-2.169","d7c5zmytwlqw3yu",942,"187.csv","","null","resources/images/coin2.png","null","",NA,NA,NA,NA,""
"image-keyboard-response",522,412520,"0.0-4.170-0.170","d7c5zmytwlqw3yu",942,"187.csv","","84.5","resources/trios/L4T2A2.jpg","38","restless",0.3,0.6,0.8,0.857064751887651,"false"
"image-keyboard-response",523,412922,"0.0-4.170-1.170","d7c5zmytwlqw3yu",942,"187.csv","","null","resources/maskTrios/BT2B.jpg","null","",NA,NA,NA,NA,""
"image-keyboard-response",524,414124,"0.0-4.170-2.170","d7c5zmytwlqw3yu",942,"187.csv","","null","resources/images/fishbone.png","null","",NA,NA,NA,NA,""
"image-keyboard-response",525,414167,"0.0-4.171-0.171","d7c5zmytwlqw3yu",942,"187.csv","","41.29999999701977","resources/trios/L4T2A2.jpg","38","restless",0.2,0.6,0.8,0.531493602874965,"true"
"image-keyboard-response",526,414570,"0.0-4.171-1.171","d7c5zmytwlqw3yu",942,"187.csv","","null","resources/maskTrios/BT2B.jpg","null","",NA,NA,NA,NA,""
"image-keyboard-response",527,415773,"0.0-4.171-2.171","d7c5zmytwlqw3yu",942,"187.csv","","null","resources/images/coin2.png","null","",NA,NA,NA,NA,""
"image-keyboard-response",528,416159,"0.0-4.172-0.172","d7c5zmytwlqw3yu",942,"187.csv","","384.8999999985099","resources/trios/L4T2A2.jpg","38","restless",0.2,0.6,0.8,0.266640486528262,"true"
"image-keyboard-response",529,416563,"0.0-4.172-1.172","d7c5zmytwlqw3yu",942,"187.csv","","null","resources/maskTrios/BT2B.jpg","null","",NA,NA,NA,NA,""
"image-keyboard-response",530,417766,"0.0-4.172-2.172","d7c5zmytwlqw3yu",942,"187.csv","","null","resources/images/coin2.png","null","",NA,NA,NA,NA,""
"image-keyboard-response",531,418087,"0.0-4.173-0.173","d7c5zmytwlqw3yu",942,"187.csv","","319.3999999985099","resources/trios/L4T2A2.jpg","38","restless",0.2,0.6,0.8,0.287803626151128,"true"
"image-keyboard-response",532,418490,"0.0-4.173-1.173","d7c5zmytwlqw3yu",942,"187.csv","","null","resources/maskTrios/BT2B.jpg","null","",NA,NA,NA,NA,""
"image-keyboard-response",533,419693,"0.0-4.173-2.173","d7c5zmytwlqw3yu",942,"187.csv","","null","resources/images/coin2.png","null","",NA,NA,NA,NA,""
"image-keyboard-response",534,420030,"0.0-4.174-0.174","d7c5zmytwlqw3yu",942,"187.csv","","336","resources/trios/L4T2A2.jpg","38","restless",0.3,0.6,0.8,0.66917766935492,"false"
"image-keyboard-response",535,420433,"0.0-4.174-1.174","d7c5zmytwlqw3yu",942,"187.csv","","null","resources/maskTrios/BT2B.jpg","null","",NA,NA,NA,NA,""
"image-keyboard-response",536,421635,"0.0-4.174-2.174","d7c5zmytwlqw3yu",942,"187.csv","","null","resources/images/fishbone.png","null","",NA,NA,NA,NA,""
"image-keyboard-response",537,421918,"0.0-4.175-0.175","d7c5zmytwlqw3yu",942,"187.csv","","281.79999999701977","resources/trios/L4T2A2.jpg","38","restless",0.3,0.5,0.8,0.0107157020987145,"true"
"image-keyboard-response",538,422321,"0.0-4.175-1.175","d7c5zmytwlqw3yu",942,"187.csv","","null","resources/maskTrios/BT2B.jpg","null","",NA,NA,NA,NA,""
"image-keyboard-response",539,423523,"0.0-4.175-2.175","d7c5zmytwlqw3yu",942,"187.csv","","null","resources/images/coin2.png","null","",NA,NA,NA,NA,""
"image-keyboard-response",540,424021,"0.0-4.176-0.176","d7c5zmytwlqw3yu",942,"187.csv","","496.1000000014901","resources/trios/L4T2A2.jpg","38","restless",0.3,0.5,0.8,0.0908872472074076,"true"
"image-keyboard-response",541,424424,"0.0-4.176-1.176","d7c5zmytwlqw3yu",942,"187.csv","","null","resources/maskTrios/BT2B.jpg","null","",NA,NA,NA,NA,""
"image-keyboard-response",542,425627,"0.0-4.176-2.176","d7c5zmytwlqw3yu",942,"187.csv","","null","resources/images/coin2.png","null","",NA,NA,NA,NA,""
"image-keyboard-response",543,425980,"0.0-4.177-0.177","d7c5zmytwlqw3yu",942,"187.csv","","350.70000000298023","resources/trios/L4T2A2.jpg","38","restless",0.3,0.5,0.9,0.312205234559523,"true"
"image-keyboard-response",544,426383,"0.0-4.177-1.177","d7c5zmytwlqw3yu",942,"187.csv","","null","resources/maskTrios/BT2B.jpg","null","",NA,NA,NA,NA,""
"image-keyboard-response",545,427586,"0.0-4.177-2.177","d7c5zmytwlqw3yu",942,"187.csv","","null","resources/images/coin2.png","null","",NA,NA,NA,NA,""
"image-keyboard-response",546,427953,"0.0-4.178-0.178","d7c5zmytwlqw3yu",942,"187.csv","","364.79999999701977","resources/trios/L4T2A2.jpg","38","restless",0.3,0.5,0.9,0.678300327134063,"false"
"image-keyboard-response",547,428356,"0.0-4.178-1.178","d7c5zmytwlqw3yu",942,"187.csv","","null","resources/maskTrios/BT2B.jpg","null","",NA,NA,NA,NA,""
"image-keyboard-response",548,429559,"0.0-4.178-2.178","d7c5zmytwlqw3yu",942,"187.csv","","null","resources/images/fishbone.png","null","",NA,NA,NA,NA,""
"image-keyboard-response",549,429889,"0.0-4.179-0.179","d7c5zmytwlqw3yu",942,"187.csv","","328.30000000447035","resources/trios/L4T2A2.jpg","38","restless",0.3,0.5,0.9,0.896960416990332,"false"
"image-keyboard-response",550,430292,"0.0-4.179-1.179","d7c5zmytwlqw3yu",942,"187.csv","","null","resources/maskTrios/BT2B.jpg","null","",NA,NA,NA,NA,""
"image-keyboard-response",551,431495,"0.0-4.179-2.179","d7c5zmytwlqw3yu",942,"187.csv","","null","resources/images/fishbone.png","null","",NA,NA,NA,NA,""
"image-keyboard-response",552,431804,"0.0-4.180-0.180","d7c5zmytwlqw3yu",942,"187.csv","","307.29999999701977","resources/trios/L4T2A2.jpg","38","restless",0.3,0.5,0.9,0.837158720860465,"false"
"image-keyboard-response",553,432208,"0.0-4.180-1.180","d7c5zmytwlqw3yu",942,"187.csv","","null","resources/maskTrios/BT2B.jpg","null","",NA,NA,NA,NA,""
"image-keyboard-response",554,433410,"0.0-4.180-2.180","d7c5zmytwlqw3yu",942,"187.csv","","null","resources/images/fishbone.png","null","",NA,NA,NA,NA,""
"image-keyboard-response",555,433701,"0.0-4.181-0.181","d7c5zmytwlqw3yu",942,"187.csv","","289","resources/trios/L4T2A2.jpg","38","restless",0.3,0.5,0.9,0.634339664259898,"false"
"image-keyboard-response",556,434105,"0.0-4.181-1.181","d7c5zmytwlqw3yu",942,"187.csv","","null","resources/maskTrios/BT2B.jpg","null","",NA,NA,NA,NA,""
"image-keyboard-response",557,435308,"0.0-4.181-2.181","d7c5zmytwlqw3yu",942,"187.csv","","null","resources/images/fishbone.png","null","",NA,NA,NA,NA,""
"image-keyboard-response",558,435609,"0.0-4.182-0.182","d7c5zmytwlqw3yu",942,"187.csv","","299.70000000298023","resources/trios/L4T2A2.jpg","38","restless",0.3,0.5,0.9,0.601804348897045,"false"
"image-keyboard-response",559,436012,"0.0-4.182-1.182","d7c5zmytwlqw3yu",942,"187.csv","","null","resources/maskTrios/BT2B.jpg","null","",NA,NA,NA,NA,""
"image-keyboard-response",560,437215,"0.0-4.182-2.182","d7c5zmytwlqw3yu",942,"187.csv","","null","resources/images/fishbone.png","null","",NA,NA,NA,NA,""
"image-keyboard-response",561,437542,"0.0-4.183-0.183","d7c5zmytwlqw3yu",942,"187.csv","","325.29999999701977","resources/trios/L4T2A2.jpg","38","restless",0.3,0.5,0.9,0.778769504227481,"false"
"image-keyboard-response",562,437944,"0.0-4.183-1.183","d7c5zmytwlqw3yu",942,"187.csv","","null","resources/maskTrios/BT2B.jpg","null","",NA,NA,NA,NA,""
"image-keyboard-response",563,439147,"0.0-4.183-2.183","d7c5zmytwlqw3yu",942,"187.csv","","null","resources/images/fishbone.png","null","",NA,NA,NA,NA,""
"image-keyboard-response",564,439753,"0.0-4.184-0.184","d7c5zmytwlqw3yu",942,"187.csv","","604","resources/trios/L4T2A2.jpg","39","restless",0.3,0.5,0.8,0.0311127295125397,"true"
"image-keyboard-response",565,440156,"0.0-4.184-1.184","d7c5zmytwlqw3yu",942,"187.csv","","null","resources/maskTrios/BBA2.jpg","null","",NA,NA,NA,NA,""
"image-keyboard-response",566,441359,"0.0-4.184-2.184","d7c5zmytwlqw3yu",942,"187.csv","","null","resources/images/coin2.png","null","",NA,NA,NA,NA,""
"image-keyboard-response",567,441680,"0.0-4.185-0.185","d7c5zmytwlqw3yu",942,"187.csv","","318.79999999701977","resources/trios/L4T2A2.jpg","39","restless",0.3,0.5,0.8,0.191853349613032,"true"
"image-keyboard-response",568,442083,"0.0-4.185-1.185","d7c5zmytwlqw3yu",942,"187.csv","","null","resources/maskTrios/BBA2.jpg","null","",NA,NA,NA,NA,""
"image-keyboard-response",569,443286,"0.0-4.185-2.185","d7c5zmytwlqw3yu",942,"187.csv","","null","resources/images/coin2.png","null","",NA,NA,NA,NA,""
"image-keyboard-response",570,443612,"0.0-4.186-0.186","d7c5zmytwlqw3yu",942,"187.csv","","324.20000000298023","resources/trios/L4T2A2.jpg","39","restless",0.3,0.5,0.7,0.585481120660261,"true"
"image-keyboard-response",571,444015,"0.0-4.186-1.186","d7c5zmytwlqw3yu",942,"187.csv","","null","resources/maskTrios/BBA2.jpg","null","",NA,NA,NA,NA,""
"image-keyboard-response",572,445218,"0.0-4.186-2.186","d7c5zmytwlqw3yu",942,"187.csv","","null","resources/images/coin2.png","null","",NA,NA,NA,NA,""
"image-keyboard-response",573,445537,"0.0-4.187-0.187","d7c5zmytwlqw3yu",942,"187.csv","","316.80000000447035","resources/trios/L4T2A2.jpg","39","restless",0.4,0.5,0.7,0.160561795480722,"true"
"image-keyboard-response",574,445940,"0.0-4.187-1.187","d7c5zmytwlqw3yu",942,"187.csv","","null","resources/maskTrios/BBA2.jpg","null","",NA,NA,NA,NA,""
"image-keyboard-response",575,447142,"0.0-4.187-2.187","d7c5zmytwlqw3yu",942,"187.csv","","null","resources/images/coin2.png","null","",NA,NA,NA,NA,""
"image-keyboard-response",576,447441,"0.0-4.188-0.188","d7c5zmytwlqw3yu",942,"187.csv","","296.8999999985099","resources/trios/L4T2A2.jpg","39","restless",0.4,0.5,0.7,0.187876459417091,"true"
"image-keyboard-response",577,447844,"0.0-4.188-1.188","d7c5zmytwlqw3yu",942,"187.csv","","null","resources/maskTrios/BBA2.jpg","null","",NA,NA,NA,NA,""
"image-keyboard-response",578,449048,"0.0-4.188-2.188","d7c5zmytwlqw3yu",942,"187.csv","","null","resources/images/coin2.png","null","",NA,NA,NA,NA,""
"image-keyboard-response",579,449395,"0.0-4.189-0.189","d7c5zmytwlqw3yu",942,"187.csv","","345.79999999701977","resources/trios/L4T2A2.jpg","39","restless",0.4,0.5,0.7,0.804229000483621,"false"
"image-keyboard-response",580,449799,"0.0-4.189-1.189","d7c5zmytwlqw3yu",942,"187.csv","","null","resources/maskTrios/BBA2.jpg","null","",NA,NA,NA,NA,""
"image-keyboard-response",581,451002,"0.0-4.189-2.189","d7c5zmytwlqw3yu",942,"187.csv","","null","resources/images/fishbone.png","null","",NA,NA,NA,NA,""
"image-keyboard-response",582,451289,"0.0-4.190-0.190","d7c5zmytwlqw3yu",942,"187.csv","","286.29999999701977","resources/trios/L4T2A2.jpg","39","restless",0.4,0.4,0.7,0.48538035106522,"true"
"image-keyboard-response",583,451692,"0.0-4.190-1.190","d7c5zmytwlqw3yu",942,"187.csv","","null","resources/maskTrios/BBA2.jpg","null","",NA,NA,NA,NA,""
"image-keyboard-response",584,452896,"0.0-4.190-2.190","d7c5zmytwlqw3yu",942,"187.csv","","null","resources/images/coin2.png","null","",NA,NA,NA,NA,""
"image-keyboard-response",585,453234,"0.0-4.191-0.191","d7c5zmytwlqw3yu",942,"187.csv","","336.3999999985099","resources/trios/L4T2A2.jpg","39","restless",0.4,0.4,0.7,0.692006456038462,"true"
"image-keyboard-response",586,453636,"0.0-4.191-1.191","d7c5zmytwlqw3yu",942,"187.csv","","null","resources/maskTrios/BBA2.jpg","null","",NA,NA,NA,NA,""
"image-keyboard-response",587,454840,"0.0-4.191-2.191","d7c5zmytwlqw3yu",942,"187.csv","","null","resources/images/coin2.png","null","",NA,NA,NA,NA,""
"image-keyboard-response",588,455205,"0.0-4.192-0.192","d7c5zmytwlqw3yu",942,"187.csv","","363.6000000014901","resources/trios/L4T2A2.jpg","39","restless",0.4,0.3,0.7,0.586206515381807,"true"
"image-keyboard-response",589,455608,"0.0-4.192-1.192","d7c5zmytwlqw3yu",942,"187.csv","","null","resources/maskTrios/BBA2.jpg","null","",NA,NA,NA,NA,""
"image-keyboard-response",590,456811,"0.0-4.192-2.192","d7c5zmytwlqw3yu",942,"187.csv","","null","resources/images/coin2.png","null","",NA,NA,NA,NA,""
"image-keyboard-response",591,457180,"0.0-4.193-0.193","d7c5zmytwlqw3yu",942,"187.csv","","366.70000000298023","resources/trios/L4T2A2.jpg","39","restless",0.4,0.3,0.7,0.349419443605633,"true"
"image-keyboard-response",592,457583,"0.0-4.193-1.193","d7c5zmytwlqw3yu",942,"187.csv","","null","resources/maskTrios/BBA2.jpg","null","",NA,NA,NA,NA,""
"image-keyboard-response",593,458785,"0.0-4.193-2.193","d7c5zmytwlqw3yu",942,"187.csv","","null","resources/images/coin2.png","null","",NA,NA,NA,NA,""
"image-keyboard-response",594,459124,"0.0-4.194-0.194","d7c5zmytwlqw3yu",942,"187.csv","","337.40000000596046","resources/trios/L4T2A2.jpg","39","restless",0.4,0.3,0.7,0.657334839010813,"true"
"image-keyboard-response",595,459528,"0.0-4.194-1.194","d7c5zmytwlqw3yu",942,"187.csv","","null","resources/maskTrios/BBA2.jpg","null","",NA,NA,NA,NA,""
"image-keyboard-response",596,460731,"0.0-4.194-2.194","d7c5zmytwlqw3yu",942,"187.csv","","null","resources/images/coin2.png","null","",NA,NA,NA,NA,""
"image-keyboard-response",597,461017,"0.0-4.195-0.195","d7c5zmytwlqw3yu",942,"187.csv","","285","resources/trios/L4T2A2.jpg","39","restless",0.5,0.3,0.7,0.544665530908601,"true"
"image-keyboard-response",598,461420,"0.0-4.195-1.195","d7c5zmytwlqw3yu",942,"187.csv","","null","resources/maskTrios/BBA2.jpg","null","",NA,NA,NA,NA,""
"image-keyboard-response",599,462624,"0.0-4.195-2.195","d7c5zmytwlqw3yu",942,"187.csv","","null","resources/images/coin2.png","null","",NA,NA,NA,NA,""
"image-keyboard-response",600,462966,"0.0-4.196-0.196","d7c5zmytwlqw3yu",942,"187.csv","","340.20000000298023","resources/trios/L4T2A2.jpg","39","restless",0.5,0.3,0.7,0.137251346225591,"true"
"image-keyboard-response",601,463367,"0.0-4.196-1.196","d7c5zmytwlqw3yu",942,"187.csv","","null","resources/maskTrios/BBA2.jpg","null","",NA,NA,NA,NA,""
"image-keyboard-response",602,464571,"0.0-4.196-2.196","d7c5zmytwlqw3yu",942,"187.csv","","null","resources/images/coin2.png","null","",NA,NA,NA,NA,""
"image-keyboard-response",603,464866,"0.0-4.197-0.197","d7c5zmytwlqw3yu",942,"187.csv","","293.30000000447035","resources/trios/L4T2A2.jpg","39","restless",0.5,0.3,0.7,0.40906161459665,"true"
"image-keyboard-response",604,465269,"0.0-4.197-1.197","d7c5zmytwlqw3yu",942,"187.csv","","null","resources/maskTrios/BBA2.jpg","null","",NA,NA,NA,NA,""
"image-keyboard-response",605,466472,"0.0-4.197-2.197","d7c5zmytwlqw3yu",942,"187.csv","","null","resources/images/coin2.png","null","",NA,NA,NA,NA,""
"image-keyboard-response",606,466617,"0.0-4.198-0.198","d7c5zmytwlqw3yu",942,"187.csv","","142.70000000298023","resources/trios/L4T2A2.jpg","39","restless",0.5,0.3,0.7,0.210563745585606,"true"
"image-keyboard-response",607,467020,"0.0-4.198-1.198","d7c5zmytwlqw3yu",942,"187.csv","","null","resources/maskTrios/BBA2.jpg","null","",NA,NA,NA,NA,""
"image-keyboard-response",608,468223,"0.0-4.198-2.198","d7c5zmytwlqw3yu",942,"187.csv","","null","resources/images/coin2.png","null","",NA,NA,NA,NA,""
