"trial_type","trial_index","time_elapsed","internal_node_id","subject","participantCode","walkNumber","success","rt","stimulus","key_press","test_part","leftProb","midProb","rightProb","generatedNum","correct"
"pavlovia",0,1428,"0.0-0.0","00efg9c6oh3oz2r",147,"86.csv","","","","","",NA,NA,NA,NA,""
"fullscreen",1,5026,"0.0-1.0","00efg9c6oh3oz2r",147,"86.csv","true","","","","",NA,NA,NA,NA,""
"survey-html-form",2,22064,"0.0-2.0","00efg9c6oh3oz2r",147,"86.csv","","16781","","","",NA,NA,NA,NA,""
"image-keyboard-response",3,43085,"0.0-3.0-0.0","00efg9c6oh3oz2r",147,"86.csv","","21017","resources/images/parrot_nobg.png","13","",NA,NA,NA,NA,""
"image-keyboard-response",4,46090,"0.0-3.0-1.0","00efg9c6oh3oz2r",147,"86.csv","","null","resources/image_sets/111.png","null","",NA,NA,NA,NA,""
"image-keyboard-response",5,58542,"0.0-3.0-2.0","00efg9c6oh3oz2r",147,"86.csv","","12447","resources/image_sets/left_highlight.png","37","",NA,NA,NA,NA,""
"image-keyboard-response",6,67448,"0.0-3.0-3.0","00efg9c6oh3oz2r",147,"86.csv","","8903","resources/image_sets/mid_highlight.png","38","",NA,NA,NA,NA,""
"image-keyboard-response",7,70914,"0.0-3.0-4.0","00efg9c6oh3oz2r",147,"86.csv","","3462","resources/image_sets/right_highlight.png","39","",NA,NA,NA,NA,""
"image-keyboard-response",8,75079,"0.0-3.0-5.0","00efg9c6oh3oz2r",147,"86.csv","","4161","resources/image_sets/111.png","13","",NA,NA,NA,NA,""
"image-keyboard-response",9,77238,"0.0-3.0-6.0","00efg9c6oh3oz2r",147,"86.csv","","2155","resources/images/coin2.png","13","",NA,NA,NA,NA,""
"image-keyboard-response",10,79354,"0.0-3.0-7.0","00efg9c6oh3oz2r",147,"86.csv","","2114","resources/images/fishbone.png","13","",NA,NA,NA,NA,""
"html-keyboard-response",11,86214,"0.0-3.0-8.0","00efg9c6oh3oz2r",147,"86.csv","","6859","<p>You can track your coin total on the top right of your screen. </p><p>At the end of your journey you will be directed to a survey, so please click on the link before exiting the task</p><p>Press Enter to begin</p>","13","",NA,NA,NA,NA,""
"image-keyboard-response",12,88263,"0.0-4.0-0.0","00efg9c6oh3oz2r",147,"86.csv","","2044","resources/trios/L1T4A2.jpg","37","restless",0.3,0.7,0.9,0.699648293969774,"false"
"image-keyboard-response",13,88669,"0.0-4.0-1.0","00efg9c6oh3oz2r",147,"86.csv","","null","resources/maskTrios/L1BB.jpg","null","",NA,NA,NA,NA,""
"image-keyboard-response",14,89875,"0.0-4.0-2.0","00efg9c6oh3oz2r",147,"86.csv","","null","resources/images/fishbone.png","null","",NA,NA,NA,NA,""
"image-keyboard-response",15,92425,"0.0-4.1-0.1","00efg9c6oh3oz2r",147,"86.csv","","2542","resources/trios/L1T4A2.jpg","39","restless",0.3,0.7,0.9,0.465884100924364,"true"
"image-keyboard-response",16,92829,"0.0-4.1-1.1","00efg9c6oh3oz2r",147,"86.csv","","null","resources/maskTrios/BBA2.jpg","null","",NA,NA,NA,NA,""
"image-keyboard-response",17,94036,"0.0-4.1-2.1","00efg9c6oh3oz2r",147,"86.csv","","null","resources/images/coin2.png","null","",NA,NA,NA,NA,""
"image-keyboard-response",18,98520,"0.0-4.2-0.2","00efg9c6oh3oz2r",147,"86.csv","","4479","resources/trios/L1T4A2.jpg","38","restless",0.3,0.8,0.9,0.819185205798691,"false"
"image-keyboard-response",19,98924,"0.0-4.2-1.2","00efg9c6oh3oz2r",147,"86.csv","","null","resources/maskTrios/BT4B.jpg","null","",NA,NA,NA,NA,""
"image-keyboard-response",20,100130,"0.0-4.2-2.2","00efg9c6oh3oz2r",147,"86.csv","","null","resources/images/fishbone.png","null","",NA,NA,NA,NA,""
"image-keyboard-response",21,102686,"0.0-4.3-0.3","00efg9c6oh3oz2r",147,"86.csv","","2550","resources/trios/L1T4A2.jpg","37","restless",0.3,0.8,0.9,0.0191554369453129,"true"
"image-keyboard-response",22,103089,"0.0-4.3-1.3","00efg9c6oh3oz2r",147,"86.csv","","null","resources/maskTrios/L1BB.jpg","null","",NA,NA,NA,NA,""
"image-keyboard-response",23,104295,"0.0-4.3-2.3","00efg9c6oh3oz2r",147,"86.csv","","null","resources/images/coin2.png","null","",NA,NA,NA,NA,""
"image-keyboard-response",24,108601,"0.0-4.4-0.4","00efg9c6oh3oz2r",147,"86.csv","","4302","resources/trios/L1T4A2.jpg","38","restless",0.3,0.8,0.9,0.955654201417414,"false"
"image-keyboard-response",25,109006,"0.0-4.4-1.4","00efg9c6oh3oz2r",147,"86.csv","","null","resources/maskTrios/BT4B.jpg","null","",NA,NA,NA,NA,""
"image-keyboard-response",26,110213,"0.0-4.4-2.4","00efg9c6oh3oz2r",147,"86.csv","","null","resources/images/fishbone.png","null","",NA,NA,NA,NA,""
"image-keyboard-response",27,110650,"0.0-4.5-0.5","00efg9c6oh3oz2r",147,"86.csv","","431","resources/trios/L1T4A2.jpg","39","restless",0.3,0.8,0.9,0.920952168432882,"false"
"image-keyboard-response",28,111055,"0.0-4.5-1.5","00efg9c6oh3oz2r",147,"86.csv","","null","resources/maskTrios/BBA2.jpg","null","",NA,NA,NA,NA,""
"image-keyboard-response",29,112261,"0.0-4.5-2.5","00efg9c6oh3oz2r",147,"86.csv","","null","resources/images/fishbone.png","null","",NA,NA,NA,NA,""
"image-keyboard-response",30,112921,"0.0-4.6-0.6","00efg9c6oh3oz2r",147,"86.csv","","657","resources/trios/L1T4A2.jpg","37","restless",0.4,0.8,0.9,0.192746201203468,"true"
"image-keyboard-response",31,113325,"0.0-4.6-1.6","00efg9c6oh3oz2r",147,"86.csv","","null","resources/maskTrios/L1BB.jpg","null","",NA,NA,NA,NA,""
"image-keyboard-response",32,114531,"0.0-4.6-2.6","00efg9c6oh3oz2r",147,"86.csv","","null","resources/images/coin2.png","null","",NA,NA,NA,NA,""
"image-keyboard-response",33,117421,"0.0-4.7-0.7","00efg9c6oh3oz2r",147,"86.csv","","2886","resources/trios/L1T4A2.jpg","39","restless",0.4,0.8,0.9,0.792279664829776,"true"
"image-keyboard-response",34,117825,"0.0-4.7-1.7","00efg9c6oh3oz2r",147,"86.csv","","null","resources/maskTrios/BBA2.jpg","null","",NA,NA,NA,NA,""
"image-keyboard-response",35,119029,"0.0-4.7-2.7","00efg9c6oh3oz2r",147,"86.csv","","null","resources/images/coin2.png","null","",NA,NA,NA,NA,""
"image-keyboard-response",36,122058,"0.0-4.8-0.8","00efg9c6oh3oz2r",147,"86.csv","","3025","resources/trios/L1T4A2.jpg","37","restless",0.4,0.8,0.9,0.976267949671017,"false"
"image-keyboard-response",37,122462,"0.0-4.8-1.8","00efg9c6oh3oz2r",147,"86.csv","","null","resources/maskTrios/L1BB.jpg","null","",NA,NA,NA,NA,""
"image-keyboard-response",38,123667,"0.0-4.8-2.8","00efg9c6oh3oz2r",147,"86.csv","","null","resources/images/fishbone.png","null","",NA,NA,NA,NA,""
"image-keyboard-response",39,125161,"0.0-4.9-0.9","00efg9c6oh3oz2r",147,"86.csv","","1488","resources/trios/L1T4A2.jpg","38","restless",0.4,0.8,0.9,0.573875112475257,"true"
"image-keyboard-response",40,125564,"0.0-4.9-1.9","00efg9c6oh3oz2r",147,"86.csv","","null","resources/maskTrios/BT4B.jpg","null","",NA,NA,NA,NA,""
"image-keyboard-response",41,126766,"0.0-4.9-2.9","00efg9c6oh3oz2r",147,"86.csv","","null","resources/images/coin2.png","null","",NA,NA,NA,NA,""
"image-keyboard-response",42,132024,"0.0-4.10-0.10","00efg9c6oh3oz2r",147,"86.csv","","5256","resources/trios/L1T4A2.jpg","38","restless",0.4,0.8,0.9,0.877723571432479,"false"
"image-keyboard-response",43,132428,"0.0-4.10-1.10","00efg9c6oh3oz2r",147,"86.csv","","null","resources/maskTrios/BT4B.jpg","null","",NA,NA,NA,NA,""
"image-keyboard-response",44,133632,"0.0-4.10-2.10","00efg9c6oh3oz2r",147,"86.csv","","null","resources/images/fishbone.png","null","",NA,NA,NA,NA,""
"image-keyboard-response",45,134163,"0.0-4.11-0.11","00efg9c6oh3oz2r",147,"86.csv","","526","resources/trios/L1T4A2.jpg","37","restless",0.4,0.7,0.9,0.0319755811062914,"true"
"image-keyboard-response",46,134567,"0.0-4.11-1.11","00efg9c6oh3oz2r",147,"86.csv","","null","resources/maskTrios/L1BB.jpg","null","",NA,NA,NA,NA,""
"image-keyboard-response",47,135772,"0.0-4.11-2.11","00efg9c6oh3oz2r",147,"86.csv","","null","resources/images/coin2.png","null","",NA,NA,NA,NA,""
"image-keyboard-response",48,136455,"0.0-4.12-0.12","00efg9c6oh3oz2r",147,"86.csv","","678","resources/trios/L1T4A2.jpg","39","restless",0.4,0.7,0.9,0.301472409411667,"true"
"image-keyboard-response",49,136858,"0.0-4.12-1.12","00efg9c6oh3oz2r",147,"86.csv","","null","resources/maskTrios/BBA2.jpg","null","",NA,NA,NA,NA,""
"image-keyboard-response",50,138062,"0.0-4.12-2.12","00efg9c6oh3oz2r",147,"86.csv","","null","resources/images/coin2.png","null","",NA,NA,NA,NA,""
"image-keyboard-response",51,144218,"0.0-4.13-0.13","00efg9c6oh3oz2r",147,"86.csv","","6152","resources/trios/L1T4A2.jpg","37","restless",0.4,0.7,0.9,0.845652048793243,"false"
"image-keyboard-response",52,144621,"0.0-4.13-1.13","00efg9c6oh3oz2r",147,"86.csv","","null","resources/maskTrios/L1BB.jpg","null","",NA,NA,NA,NA,""
"image-keyboard-response",53,145826,"0.0-4.13-2.13","00efg9c6oh3oz2r",147,"86.csv","","null","resources/images/fishbone.png","null","",NA,NA,NA,NA,""
"image-keyboard-response",54,146222,"0.0-4.14-0.14","00efg9c6oh3oz2r",147,"86.csv","","392","resources/trios/L1T4A2.jpg","39","restless",0.4,0.7,0.9,0.604478839338122,"true"
"image-keyboard-response",55,146625,"0.0-4.14-1.14","00efg9c6oh3oz2r",147,"86.csv","","null","resources/maskTrios/BBA2.jpg","null","",NA,NA,NA,NA,""
"image-keyboard-response",56,147830,"0.0-4.14-2.14","00efg9c6oh3oz2r",147,"86.csv","","null","resources/images/coin2.png","null","",NA,NA,NA,NA,""
"image-keyboard-response",57,148585,"0.0-4.15-0.15","00efg9c6oh3oz2r",147,"86.csv","","752","resources/trios/L1T4A2.jpg","39","restless",0.4,0.7,0.9,0.0547967295032632,"true"
"image-keyboard-response",58,148989,"0.0-4.15-1.15","00efg9c6oh3oz2r",147,"86.csv","","null","resources/maskTrios/BBA2.jpg","null","",NA,NA,NA,NA,""
"image-keyboard-response",59,150194,"0.0-4.15-2.15","00efg9c6oh3oz2r",147,"86.csv","","null","resources/images/coin2.png","null","",NA,NA,NA,NA,""
"image-keyboard-response",60,151802,"0.0-4.16-0.16","00efg9c6oh3oz2r",147,"86.csv","","1603","resources/trios/L1T4A2.jpg","38","restless",0.4,0.7,0.8,0.0201325820447242,"true"
"image-keyboard-response",61,152207,"0.0-4.16-1.16","00efg9c6oh3oz2r",147,"86.csv","","null","resources/maskTrios/BT4B.jpg","null","",NA,NA,NA,NA,""
"image-keyboard-response",62,153412,"0.0-4.16-2.16","00efg9c6oh3oz2r",147,"86.csv","","null","resources/images/coin2.png","null","",NA,NA,NA,NA,""
"image-keyboard-response",63,154369,"0.0-4.17-0.17","00efg9c6oh3oz2r",147,"86.csv","","954","resources/trios/L1T4A2.jpg","39","restless",0.4,0.7,0.8,0.418123062685713,"true"
"image-keyboard-response",64,154773,"0.0-4.17-1.17","00efg9c6oh3oz2r",147,"86.csv","","null","resources/maskTrios/BBA2.jpg","null","",NA,NA,NA,NA,""
"image-keyboard-response",65,155978,"0.0-4.17-2.17","00efg9c6oh3oz2r",147,"86.csv","","null","resources/images/coin2.png","null","",NA,NA,NA,NA,""
"image-keyboard-response",66,158170,"0.0-4.18-0.18","00efg9c6oh3oz2r",147,"86.csv","","2188","resources/trios/L1T4A2.jpg","39","restless",0.4,0.7,0.8,0.244007852407596,"true"
"image-keyboard-response",67,158575,"0.0-4.18-1.18","00efg9c6oh3oz2r",147,"86.csv","","null","resources/maskTrios/BBA2.jpg","null","",NA,NA,NA,NA,""
"image-keyboard-response",68,159779,"0.0-4.18-2.18","00efg9c6oh3oz2r",147,"86.csv","","null","resources/images/coin2.png","null","",NA,NA,NA,NA,""
"image-keyboard-response",69,160846,"0.0-4.19-0.19","00efg9c6oh3oz2r",147,"86.csv","","1063","resources/trios/L1T4A2.jpg","39","restless",0.3,0.7,0.8,0.337576845786635,"true"
"image-keyboard-response",70,161250,"0.0-4.19-1.19","00efg9c6oh3oz2r",147,"86.csv","","null","resources/maskTrios/BBA2.jpg","null","",NA,NA,NA,NA,""
"image-keyboard-response",71,162455,"0.0-4.19-2.19","00efg9c6oh3oz2r",147,"86.csv","","null","resources/images/coin2.png","null","",NA,NA,NA,NA,""
"image-keyboard-response",72,164132,"0.0-4.20-0.20","00efg9c6oh3oz2r",147,"86.csv","","1673","resources/trios/L1T4A2.jpg","37","restless",0.3,0.6,0.8,0.770475270696234,"false"
"image-keyboard-response",73,164536,"0.0-4.20-1.20","00efg9c6oh3oz2r",147,"86.csv","","null","resources/maskTrios/L1BB.jpg","null","",NA,NA,NA,NA,""
"image-keyboard-response",74,165742,"0.0-4.20-2.20","00efg9c6oh3oz2r",147,"86.csv","","null","resources/images/fishbone.png","null","",NA,NA,NA,NA,""
"image-keyboard-response",75,166270,"0.0-4.21-0.21","00efg9c6oh3oz2r",147,"86.csv","","523","resources/trios/L1T4A2.jpg","39","restless",0.3,0.6,0.8,0.907336295284156,"false"
"image-keyboard-response",76,166675,"0.0-4.21-1.21","00efg9c6oh3oz2r",147,"86.csv","","null","resources/maskTrios/BBA2.jpg","null","",NA,NA,NA,NA,""
"image-keyboard-response",77,167880,"0.0-4.21-2.21","00efg9c6oh3oz2r",147,"86.csv","","null","resources/images/fishbone.png","null","",NA,NA,NA,NA,""
"image-keyboard-response",78,168768,"0.0-4.22-0.22","00efg9c6oh3oz2r",147,"86.csv","","885","resources/trios/L1T4A2.jpg","38","restless",0.3,0.6,0.7,0.140550036547759,"true"
"image-keyboard-response",79,169222,"0.0-4.22-1.22","00efg9c6oh3oz2r",147,"86.csv","","null","resources/maskTrios/BT4B.jpg","null","",NA,NA,NA,NA,""
"image-keyboard-response",80,170430,"0.0-4.22-2.22","00efg9c6oh3oz2r",147,"86.csv","","null","resources/images/coin2.png","null","",NA,NA,NA,NA,""
"image-keyboard-response",81,171106,"0.0-4.23-0.23","00efg9c6oh3oz2r",147,"86.csv","","671","resources/trios/L1T4A2.jpg","39","restless",0.3,0.6,0.7,0.726861783938071,"false"
"image-keyboard-response",82,171509,"0.0-4.23-1.23","00efg9c6oh3oz2r",147,"86.csv","","null","resources/maskTrios/BBA2.jpg","null","",NA,NA,NA,NA,""
"image-keyboard-response",83,172714,"0.0-4.23-2.23","00efg9c6oh3oz2r",147,"86.csv","","null","resources/images/fishbone.png","null","",NA,NA,NA,NA,""
"image-keyboard-response",84,173132,"0.0-4.24-0.24","00efg9c6oh3oz2r",147,"86.csv","","413","resources/trios/L1T4A2.jpg","37","restless",0.3,0.6,0.7,0.598190284154791,"false"
"image-keyboard-response",85,173535,"0.0-4.24-1.24","00efg9c6oh3oz2r",147,"86.csv","","null","resources/maskTrios/L1BB.jpg","null","",NA,NA,NA,NA,""
"image-keyboard-response",86,174740,"0.0-4.24-2.24","00efg9c6oh3oz2r",147,"86.csv","","null","resources/images/fishbone.png","null","",NA,NA,NA,NA,""
"image-keyboard-response",87,175112,"0.0-4.25-0.25","00efg9c6oh3oz2r",147,"86.csv","","368","resources/trios/L1T4A2.jpg","38","restless",0.3,0.6,0.7,0.729616518833414,"false"
"image-keyboard-response",88,175515,"0.0-4.25-1.25","00efg9c6oh3oz2r",147,"86.csv","","null","resources/maskTrios/BT4B.jpg","null","",NA,NA,NA,NA,""
"image-keyboard-response",89,176719,"0.0-4.25-2.25","00efg9c6oh3oz2r",147,"86.csv","","null","resources/images/fishbone.png","null","",NA,NA,NA,NA,""
"image-keyboard-response",90,177340,"0.0-4.26-0.26","00efg9c6oh3oz2r",147,"86.csv","","617","resources/trios/L1T4A2.jpg","39","restless",0.3,0.6,0.7,0.0859608291469706,"true"
"image-keyboard-response",91,177743,"0.0-4.26-1.26","00efg9c6oh3oz2r",147,"86.csv","","null","resources/maskTrios/BBA2.jpg","null","",NA,NA,NA,NA,""
"image-keyboard-response",92,178949,"0.0-4.26-2.26","00efg9c6oh3oz2r",147,"86.csv","","null","resources/images/coin2.png","null","",NA,NA,NA,NA,""
"image-keyboard-response",93,179433,"0.0-4.27-0.27","00efg9c6oh3oz2r",147,"86.csv","","480","resources/trios/L1T4A2.jpg","39","restless",0.3,0.6,0.7,0.246664169544595,"true"
"image-keyboard-response",94,179836,"0.0-4.27-1.27","00efg9c6oh3oz2r",147,"86.csv","","null","resources/maskTrios/BBA2.jpg","null","",NA,NA,NA,NA,""
"image-keyboard-response",95,181045,"0.0-4.27-2.27","00efg9c6oh3oz2r",147,"86.csv","","null","resources/images/coin2.png","null","",NA,NA,NA,NA,""
"image-keyboard-response",96,181502,"0.0-4.28-0.28","00efg9c6oh3oz2r",147,"86.csv","","437","resources/trios/L1T4A2.jpg","39","restless",0.3,0.6,0.7,0.577692988094444,"true"
"image-keyboard-response",97,181908,"0.0-4.28-1.28","00efg9c6oh3oz2r",147,"86.csv","","null","resources/maskTrios/BBA2.jpg","null","",NA,NA,NA,NA,""
"image-keyboard-response",98,183116,"0.0-4.28-2.28","00efg9c6oh3oz2r",147,"86.csv","","null","resources/images/coin2.png","null","",NA,NA,NA,NA,""
"image-keyboard-response",99,183483,"0.0-4.29-0.29","00efg9c6oh3oz2r",147,"86.csv","","361","resources/trios/L1T4A2.jpg","39","restless",0.3,0.6,0.7,0.47941736461733,"true"
"image-keyboard-response",100,183889,"0.0-4.29-1.29","00efg9c6oh3oz2r",147,"86.csv","","null","resources/maskTrios/BBA2.jpg","null","",NA,NA,NA,NA,""
"image-keyboard-response",101,185094,"0.0-4.29-2.29","00efg9c6oh3oz2r",147,"86.csv","","null","resources/images/coin2.png","null","",NA,NA,NA,NA,""
"image-keyboard-response",102,185484,"0.0-4.30-0.30","00efg9c6oh3oz2r",147,"86.csv","","386","resources/trios/L1T4A2.jpg","39","restless",0.3,0.5,0.7,0.0842663259975573,"true"
"image-keyboard-response",103,185888,"0.0-4.30-1.30","00efg9c6oh3oz2r",147,"86.csv","","null","resources/maskTrios/BBA2.jpg","null","",NA,NA,NA,NA,""
"image-keyboard-response",104,187093,"0.0-4.30-2.30","00efg9c6oh3oz2r",147,"86.csv","","null","resources/images/coin2.png","null","",NA,NA,NA,NA,""
"image-keyboard-response",105,187510,"0.0-4.31-0.31","00efg9c6oh3oz2r",147,"86.csv","","412","resources/trios/L1T4A2.jpg","39","restless",0.3,0.5,0.7,0.587435803535063,"true"
"image-keyboard-response",106,187914,"0.0-4.31-1.31","00efg9c6oh3oz2r",147,"86.csv","","null","resources/maskTrios/BBA2.jpg","null","",NA,NA,NA,NA,""
"image-keyboard-response",107,189120,"0.0-4.31-2.31","00efg9c6oh3oz2r",147,"86.csv","","null","resources/images/coin2.png","null","",NA,NA,NA,NA,""
"image-keyboard-response",108,189467,"0.0-4.32-0.32","00efg9c6oh3oz2r",147,"86.csv","","341","resources/trios/L1T4A2.jpg","39","restless",0.3,0.5,0.7,0.0443054204080512,"true"
"image-keyboard-response",109,189871,"0.0-4.32-1.32","00efg9c6oh3oz2r",147,"86.csv","","null","resources/maskTrios/BBA2.jpg","null","",NA,NA,NA,NA,""
"image-keyboard-response",110,191076,"0.0-4.32-2.32","00efg9c6oh3oz2r",147,"86.csv","","null","resources/images/coin2.png","null","",NA,NA,NA,NA,""
"image-keyboard-response",111,191402,"0.0-4.33-0.33","00efg9c6oh3oz2r",147,"86.csv","","320","resources/trios/L1T4A2.jpg","39","restless",0.3,0.4,0.7,0.330632933786495,"true"
"image-keyboard-response",112,191806,"0.0-4.33-1.33","00efg9c6oh3oz2r",147,"86.csv","","null","resources/maskTrios/BBA2.jpg","null","",NA,NA,NA,NA,""
"image-keyboard-response",113,193010,"0.0-4.33-2.33","00efg9c6oh3oz2r",147,"86.csv","","null","resources/images/coin2.png","null","",NA,NA,NA,NA,""
"image-keyboard-response",114,193381,"0.0-4.34-0.34","00efg9c6oh3oz2r",147,"86.csv","","367","resources/trios/L1T4A2.jpg","39","restless",0.3,0.4,0.7,0.988347732762613,"false"
"image-keyboard-response",115,193786,"0.0-4.34-1.34","00efg9c6oh3oz2r",147,"86.csv","","null","resources/maskTrios/BBA2.jpg","null","",NA,NA,NA,NA,""
"image-keyboard-response",116,194993,"0.0-4.34-2.34","00efg9c6oh3oz2r",147,"86.csv","","null","resources/images/fishbone.png","null","",NA,NA,NA,NA,""
"image-keyboard-response",117,195518,"0.0-4.35-0.35","00efg9c6oh3oz2r",147,"86.csv","","520","resources/trios/L1T4A2.jpg","37","restless",0.3,0.4,0.7,0.410025689487871,"false"
"image-keyboard-response",118,195923,"0.0-4.35-1.35","00efg9c6oh3oz2r",147,"86.csv","","null","resources/maskTrios/L1BB.jpg","null","",NA,NA,NA,NA,""
"image-keyboard-response",119,197127,"0.0-4.35-2.35","00efg9c6oh3oz2r",147,"86.csv","","null","resources/images/fishbone.png","null","",NA,NA,NA,NA,""
"image-keyboard-response",120,197523,"0.0-4.36-0.36","00efg9c6oh3oz2r",147,"86.csv","","390","resources/trios/L1T4A2.jpg","38","restless",0.3,0.4,0.7,0.645974000079583,"false"
"image-keyboard-response",121,197928,"0.0-4.36-1.36","00efg9c6oh3oz2r",147,"86.csv","","null","resources/maskTrios/BT4B.jpg","null","",NA,NA,NA,NA,""
"image-keyboard-response",122,199133,"0.0-4.36-2.36","00efg9c6oh3oz2r",147,"86.csv","","null","resources/images/fishbone.png","null","",NA,NA,NA,NA,""
"image-keyboard-response",123,199678,"0.0-4.37-0.37","00efg9c6oh3oz2r",147,"86.csv","","542","resources/trios/L1T4A2.jpg","39","restless",0.3,0.4,0.6,0.863754009384728,"false"
"image-keyboard-response",124,200081,"0.0-4.37-1.37","00efg9c6oh3oz2r",147,"86.csv","","null","resources/maskTrios/BBA2.jpg","null","",NA,NA,NA,NA,""
"image-keyboard-response",125,201287,"0.0-4.37-2.37","00efg9c6oh3oz2r",147,"86.csv","","null","resources/images/fishbone.png","null","",NA,NA,NA,NA,""
"image-keyboard-response",126,201641,"0.0-4.38-0.38","00efg9c6oh3oz2r",147,"86.csv","","349","resources/trios/L1T4A2.jpg","37","restless",0.3,0.5,0.6,0.0623648071834384,"true"
"image-keyboard-response",127,202045,"0.0-4.38-1.38","00efg9c6oh3oz2r",147,"86.csv","","null","resources/maskTrios/L1BB.jpg","null","",NA,NA,NA,NA,""
"image-keyboard-response",128,203251,"0.0-4.38-2.38","00efg9c6oh3oz2r",147,"86.csv","","null","resources/images/coin2.png","null","",NA,NA,NA,NA,""
"image-keyboard-response",129,203574,"0.0-4.39-0.39","00efg9c6oh3oz2r",147,"86.csv","","318","resources/trios/L1T4A2.jpg","37","restless",0.3,0.5,0.6,0.216572123966149,"true"
"image-keyboard-response",130,203979,"0.0-4.39-1.39","00efg9c6oh3oz2r",147,"86.csv","","null","resources/maskTrios/L1BB.jpg","null","",NA,NA,NA,NA,""
"image-keyboard-response",131,205185,"0.0-4.39-2.39","00efg9c6oh3oz2r",147,"86.csv","","null","resources/images/coin2.png","null","",NA,NA,NA,NA,""
"image-keyboard-response",132,205530,"0.0-4.40-0.40","00efg9c6oh3oz2r",147,"86.csv","","341","resources/trios/L1T4A2.jpg","37","restless",0.3,0.5,0.6,0.20657995360177,"true"
"image-keyboard-response",133,205935,"0.0-4.40-1.40","00efg9c6oh3oz2r",147,"86.csv","","null","resources/maskTrios/L1BB.jpg","null","",NA,NA,NA,NA,""
"image-keyboard-response",134,207139,"0.0-4.40-2.40","00efg9c6oh3oz2r",147,"86.csv","","null","resources/images/coin2.png","null","",NA,NA,NA,NA,""
"image-keyboard-response",135,207444,"0.0-4.41-0.41","00efg9c6oh3oz2r",147,"86.csv","","299","resources/trios/L1T4A2.jpg","37","restless",0.3,0.5,0.6,0.178890460938993,"true"
"image-keyboard-response",136,207847,"0.0-4.41-1.41","00efg9c6oh3oz2r",147,"86.csv","","null","resources/maskTrios/L1BB.jpg","null","",NA,NA,NA,NA,""
"image-keyboard-response",137,209053,"0.0-4.41-2.41","00efg9c6oh3oz2r",147,"86.csv","","null","resources/images/coin2.png","null","",NA,NA,NA,NA,""
"image-keyboard-response",138,209424,"0.0-4.42-0.42","00efg9c6oh3oz2r",147,"86.csv","","367","resources/trios/L1T4A2.jpg","37","restless",0.3,0.5,0.6,0.978621215235426,"false"
"image-keyboard-response",139,209828,"0.0-4.42-1.42","00efg9c6oh3oz2r",147,"86.csv","","null","resources/maskTrios/L1BB.jpg","null","",NA,NA,NA,NA,""
"image-keyboard-response",140,211032,"0.0-4.42-2.42","00efg9c6oh3oz2r",147,"86.csv","","null","resources/images/fishbone.png","null","",NA,NA,NA,NA,""
"image-keyboard-response",141,211427,"0.0-4.43-0.43","00efg9c6oh3oz2r",147,"86.csv","","391","resources/trios/L1T4A2.jpg","37","restless",0.3,0.5,0.6,0.971359249901233,"false"
"image-keyboard-response",142,211831,"0.0-4.43-1.43","00efg9c6oh3oz2r",147,"86.csv","","null","resources/maskTrios/L1BB.jpg","null","",NA,NA,NA,NA,""
"image-keyboard-response",143,213036,"0.0-4.43-2.43","00efg9c6oh3oz2r",147,"86.csv","","null","resources/images/fishbone.png","null","",NA,NA,NA,NA,""
"image-keyboard-response",144,214825,"0.0-4.44-0.44","00efg9c6oh3oz2r",147,"86.csv","","1785","resources/trios/L1T4A2.jpg","38","restless",0.3,0.4,0.6,0.445712413553522,"false"
"image-keyboard-response",145,215230,"0.0-4.44-1.44","00efg9c6oh3oz2r",147,"86.csv","","null","resources/maskTrios/BT4B.jpg","null","",NA,NA,NA,NA,""
"image-keyboard-response",146,216435,"0.0-4.44-2.44","00efg9c6oh3oz2r",147,"86.csv","","null","resources/images/fishbone.png","null","",NA,NA,NA,NA,""
"image-keyboard-response",147,217052,"0.0-4.45-0.45","00efg9c6oh3oz2r",147,"86.csv","","612","resources/trios/L1T4A2.jpg","39","restless",0.3,0.4,0.6,0.796373039071758,"false"
"image-keyboard-response",148,217455,"0.0-4.45-1.45","00efg9c6oh3oz2r",147,"86.csv","","null","resources/maskTrios/BBA2.jpg","null","",NA,NA,NA,NA,""
"image-keyboard-response",149,218659,"0.0-4.45-2.45","00efg9c6oh3oz2r",147,"86.csv","","null","resources/images/fishbone.png","null","",NA,NA,NA,NA,""
"image-keyboard-response",150,218762,"0.0-4.46-0.46","00efg9c6oh3oz2r",147,"86.csv","","99","resources/trios/L1T4A2.jpg","38","restless",0.3,0.4,0.6,0.219862406060618,"true"
"image-keyboard-response",151,219166,"0.0-4.46-1.46","00efg9c6oh3oz2r",147,"86.csv","","null","resources/maskTrios/BT4B.jpg","null","",NA,NA,NA,NA,""
"image-keyboard-response",152,220371,"0.0-4.46-2.46","00efg9c6oh3oz2r",147,"86.csv","","null","resources/images/coin2.png","null","",NA,NA,NA,NA,""
"image-keyboard-response",153,220720,"0.0-4.47-0.47","00efg9c6oh3oz2r",147,"86.csv","","344","resources/trios/L1T4A2.jpg","38","restless",0.3,0.4,0.6,0.0431562326801311,"true"
"image-keyboard-response",154,221124,"0.0-4.47-1.47","00efg9c6oh3oz2r",147,"86.csv","","null","resources/maskTrios/BT4B.jpg","null","",NA,NA,NA,NA,""
"image-keyboard-response",155,222328,"0.0-4.47-2.47","00efg9c6oh3oz2r",147,"86.csv","","null","resources/images/coin2.png","null","",NA,NA,NA,NA,""
"image-keyboard-response",156,222948,"0.0-4.48-0.48","00efg9c6oh3oz2r",147,"86.csv","","615","resources/trios/L1T4A2.jpg","37","restless",0.4,0.4,0.6,0.0784406936864427,"true"
"image-keyboard-response",157,223352,"0.0-4.48-1.48","00efg9c6oh3oz2r",147,"86.csv","","null","resources/maskTrios/L1BB.jpg","null","",NA,NA,NA,NA,""
"image-keyboard-response",158,224555,"0.0-4.48-2.48","00efg9c6oh3oz2r",147,"86.csv","","null","resources/images/coin2.png","null","",NA,NA,NA,NA,""
"image-keyboard-response",159,224906,"0.0-4.49-0.49","00efg9c6oh3oz2r",147,"86.csv","","347","resources/trios/L1T4A2.jpg","37","restless",0.4,0.4,0.6,0.00450881103110146,"true"
"image-keyboard-response",160,225310,"0.0-4.49-1.49","00efg9c6oh3oz2r",147,"86.csv","","null","resources/maskTrios/L1BB.jpg","null","",NA,NA,NA,NA,""
"image-keyboard-response",161,226516,"0.0-4.49-2.49","00efg9c6oh3oz2r",147,"86.csv","","null","resources/images/coin2.png","null","",NA,NA,NA,NA,""
"image-keyboard-response",162,226861,"0.0-4.50-0.50","00efg9c6oh3oz2r",147,"86.csv","","342","resources/trios/L1T4A2.jpg","39","restless",0.4,0.4,0.6,0.719778747791549,"false"
"image-keyboard-response",163,227266,"0.0-4.50-1.50","00efg9c6oh3oz2r",147,"86.csv","","null","resources/maskTrios/BBA2.jpg","null","",NA,NA,NA,NA,""
"image-keyboard-response",164,228472,"0.0-4.50-2.50","00efg9c6oh3oz2r",147,"86.csv","","null","resources/images/fishbone.png","null","",NA,NA,NA,NA,""
"image-keyboard-response",165,228821,"0.0-4.51-0.51","00efg9c6oh3oz2r",147,"86.csv","","344","resources/trios/L1T4A2.jpg","37","restless",0.4,0.4,0.6,0.532133871610999,"false"
"image-keyboard-response",166,229226,"0.0-4.51-1.51","00efg9c6oh3oz2r",147,"86.csv","","null","resources/maskTrios/L1BB.jpg","null","",NA,NA,NA,NA,""
"image-keyboard-response",167,230433,"0.0-4.51-2.51","00efg9c6oh3oz2r",147,"86.csv","","null","resources/images/fishbone.png","null","",NA,NA,NA,NA,""
"image-keyboard-response",168,230709,"0.0-4.52-0.52","00efg9c6oh3oz2r",147,"86.csv","","272","resources/trios/L1T4A2.jpg","38","restless",0.4,0.4,0.6,0.683010268934708,"false"
"image-keyboard-response",169,231113,"0.0-4.52-1.52","00efg9c6oh3oz2r",147,"86.csv","","null","resources/maskTrios/BT4B.jpg","null","",NA,NA,NA,NA,""
"image-keyboard-response",170,232318,"0.0-4.52-2.52","00efg9c6oh3oz2r",147,"86.csv","","null","resources/images/fishbone.png","null","",NA,NA,NA,NA,""
"image-keyboard-response",171,232622,"0.0-4.53-0.53","00efg9c6oh3oz2r",147,"86.csv","","298","resources/trios/L1T4A2.jpg","39","restless",0.5,0.5,0.6,0.358663339088361,"true"
"image-keyboard-response",172,233028,"0.0-4.53-1.53","00efg9c6oh3oz2r",147,"86.csv","","null","resources/maskTrios/BBA2.jpg","null","",NA,NA,NA,NA,""
"image-keyboard-response",173,234234,"0.0-4.53-2.53","00efg9c6oh3oz2r",147,"86.csv","","null","resources/images/coin2.png","null","",NA,NA,NA,NA,""
"image-keyboard-response",174,234624,"0.0-4.54-0.54","00efg9c6oh3oz2r",147,"86.csv","","386","resources/trios/L1T4A2.jpg","39","restless",0.5,0.5,0.7,0.680915035815263,"true"
"image-keyboard-response",175,235027,"0.0-4.54-1.54","00efg9c6oh3oz2r",147,"86.csv","","null","resources/maskTrios/BBA2.jpg","null","",NA,NA,NA,NA,""
"image-keyboard-response",176,236233,"0.0-4.54-2.54","00efg9c6oh3oz2r",147,"86.csv","","null","resources/images/coin2.png","null","",NA,NA,NA,NA,""
"image-keyboard-response",177,236605,"0.0-4.55-0.55","00efg9c6oh3oz2r",147,"86.csv","","368","resources/trios/L1T4A2.jpg","39","restless",0.5,0.5,0.6,0.219586591180442,"true"
"image-keyboard-response",178,237009,"0.0-4.55-1.55","00efg9c6oh3oz2r",147,"86.csv","","null","resources/maskTrios/BBA2.jpg","null","",NA,NA,NA,NA,""
"image-keyboard-response",179,238216,"0.0-4.55-2.55","00efg9c6oh3oz2r",147,"86.csv","","null","resources/images/coin2.png","null","",NA,NA,NA,NA,""
"image-keyboard-response",180,238923,"0.0-4.56-0.56","00efg9c6oh3oz2r",147,"86.csv","","703","resources/trios/L1T4A2.jpg","37","restless",0.6,0.5,0.6,0.375277463791235,"true"
"image-keyboard-response",181,239328,"0.0-4.56-1.56","00efg9c6oh3oz2r",147,"86.csv","","null","resources/maskTrios/L1BB.jpg","null","",NA,NA,NA,NA,""
"image-keyboard-response",182,240534,"0.0-4.56-2.56","00efg9c6oh3oz2r",147,"86.csv","","null","resources/images/coin2.png","null","",NA,NA,NA,NA,""
"image-keyboard-response",183,240880,"0.0-4.57-0.57","00efg9c6oh3oz2r",147,"86.csv","","342","resources/trios/L1T4A2.jpg","37","restless",0.6,0.5,0.6,0.830768293173869,"false"
"image-keyboard-response",184,241284,"0.0-4.57-1.57","00efg9c6oh3oz2r",147,"86.csv","","null","resources/maskTrios/L1BB.jpg","null","",NA,NA,NA,NA,""
"image-keyboard-response",185,242494,"0.0-4.57-2.57","00efg9c6oh3oz2r",147,"86.csv","","null","resources/images/fishbone.png","null","",NA,NA,NA,NA,""
"image-keyboard-response",186,242703,"0.0-4.58-0.58","00efg9c6oh3oz2r",147,"86.csv","","204","resources/trios/L1T4A2.jpg","38","restless",0.6,0.5,0.6,0.260764170702814,"true"
"image-keyboard-response",187,243112,"0.0-4.58-1.58","00efg9c6oh3oz2r",147,"86.csv","","null","resources/maskTrios/BT4B.jpg","null","",NA,NA,NA,NA,""
"image-keyboard-response",188,244317,"0.0-4.58-2.58","00efg9c6oh3oz2r",147,"86.csv","","null","resources/images/coin2.png","null","",NA,NA,NA,NA,""
"image-keyboard-response",189,244659,"0.0-4.59-0.59","00efg9c6oh3oz2r",147,"86.csv","","336","resources/trios/L1T4A2.jpg","38","restless",0.6,0.5,0.6,0.0488649863407637,"true"
"image-keyboard-response",190,245063,"0.0-4.59-1.59","00efg9c6oh3oz2r",147,"86.csv","","null","resources/maskTrios/BT4B.jpg","null","",NA,NA,NA,NA,""
"image-keyboard-response",191,246270,"0.0-4.59-2.59","00efg9c6oh3oz2r",147,"86.csv","","null","resources/images/coin2.png","null","",NA,NA,NA,NA,""
"image-keyboard-response",192,246619,"0.0-4.60-0.60","00efg9c6oh3oz2r",147,"86.csv","","343","resources/trios/L1T4A2.jpg","38","restless",0.6,0.5,0.6,0.0296392376745377,"true"
"image-keyboard-response",193,247024,"0.0-4.60-1.60","00efg9c6oh3oz2r",147,"86.csv","","null","resources/maskTrios/BT4B.jpg","null","",NA,NA,NA,NA,""
"image-keyboard-response",194,248231,"0.0-4.60-2.60","00efg9c6oh3oz2r",147,"86.csv","","null","resources/images/coin2.png","null","",NA,NA,NA,NA,""
"image-keyboard-response",195,248597,"0.0-4.61-0.61","00efg9c6oh3oz2r",147,"86.csv","","358","resources/trios/L1T4A2.jpg","38","restless",0.6,0.5,0.6,0.39247174021106,"true"
"image-keyboard-response",196,249001,"0.0-4.61-1.61","00efg9c6oh3oz2r",147,"86.csv","","null","resources/maskTrios/BT4B.jpg","null","",NA,NA,NA,NA,""
"image-keyboard-response",197,250206,"0.0-4.61-2.61","00efg9c6oh3oz2r",147,"86.csv","","null","resources/images/coin2.png","null","",NA,NA,NA,NA,""
"image-keyboard-response",198,250375,"0.0-4.62-0.62","00efg9c6oh3oz2r",147,"86.csv","","161","resources/trios/L1T4A2.jpg","39","restless",0.7,0.5,0.6,0.705772308749456,"false"
"image-keyboard-response",199,250780,"0.0-4.62-1.62","00efg9c6oh3oz2r",147,"86.csv","","null","resources/maskTrios/BBA2.jpg","null","",NA,NA,NA,NA,""
"image-keyboard-response",200,251983,"0.0-4.62-2.62","00efg9c6oh3oz2r",147,"86.csv","","null","resources/images/fishbone.png","null","",NA,NA,NA,NA,""
"image-keyboard-response",201,252241,"0.0-4.63-0.63","00efg9c6oh3oz2r",147,"86.csv","","253","resources/trios/L1T4A2.jpg","37","restless",0.6,0.5,0.6,0.0357968795468734,"true"
"image-keyboard-response",202,252646,"0.0-4.63-1.63","00efg9c6oh3oz2r",147,"86.csv","","null","resources/maskTrios/L1BB.jpg","null","",NA,NA,NA,NA,""
"image-keyboard-response",203,253851,"0.0-4.63-2.63","00efg9c6oh3oz2r",147,"86.csv","","null","resources/images/coin2.png","null","",NA,NA,NA,NA,""
"image-keyboard-response",204,254155,"0.0-4.64-0.64","00efg9c6oh3oz2r",147,"86.csv","","298","resources/trios/L1T4A2.jpg","37","restless",0.6,0.5,0.6,0.596846349038629,"true"
"image-keyboard-response",205,254559,"0.0-4.64-1.64","00efg9c6oh3oz2r",147,"86.csv","","null","resources/maskTrios/L1BB.jpg","null","",NA,NA,NA,NA,""
"image-keyboard-response",206,255781,"0.0-4.64-2.64","00efg9c6oh3oz2r",147,"86.csv","","null","resources/images/coin2.png","null","",NA,NA,NA,NA,""
"image-keyboard-response",207,256112,"0.0-4.65-0.65","00efg9c6oh3oz2r",147,"86.csv","","327","resources/trios/L1T4A2.jpg","37","restless",0.6,0.5,0.6,0.154252192090632,"true"
"image-keyboard-response",208,256516,"0.0-4.65-1.65","00efg9c6oh3oz2r",147,"86.csv","","null","resources/maskTrios/L1BB.jpg","null","",NA,NA,NA,NA,""
"image-keyboard-response",209,257723,"0.0-4.65-2.65","00efg9c6oh3oz2r",147,"86.csv","","null","resources/images/coin2.png","null","",NA,NA,NA,NA,""
"image-keyboard-response",210,258046,"0.0-4.66-0.66","00efg9c6oh3oz2r",147,"86.csv","","321","resources/trios/L1T4A2.jpg","37","restless",0.6,0.5,0.6,0.559650999809965,"true"
"image-keyboard-response",211,258451,"0.0-4.66-1.66","00efg9c6oh3oz2r",147,"86.csv","","null","resources/maskTrios/L1BB.jpg","null","",NA,NA,NA,NA,""
"image-keyboard-response",212,259657,"0.0-4.66-2.66","00efg9c6oh3oz2r",147,"86.csv","","null","resources/images/coin2.png","null","",NA,NA,NA,NA,""
"image-keyboard-response",213,259846,"0.0-4.67-0.67","00efg9c6oh3oz2r",147,"86.csv","","185","resources/trios/L1T4A2.jpg","37","restless",0.6,0.5,0.6,0.221676845673165,"true"
"image-keyboard-response",214,260251,"0.0-4.67-1.67","00efg9c6oh3oz2r",147,"86.csv","","null","resources/maskTrios/L1BB.jpg","null","",NA,NA,NA,NA,""
"image-keyboard-response",215,261456,"0.0-4.67-2.67","00efg9c6oh3oz2r",147,"86.csv","","null","resources/images/coin2.png","null","",NA,NA,NA,NA,""
"image-keyboard-response",216,261871,"0.0-4.68-0.68","00efg9c6oh3oz2r",147,"86.csv","","409","resources/trios/L1T4A2.jpg","37","restless",0.6,0.5,0.5,0.411203236009003,"true"
"image-keyboard-response",217,262276,"0.0-4.68-1.68","00efg9c6oh3oz2r",147,"86.csv","","null","resources/maskTrios/L1BB.jpg","null","",NA,NA,NA,NA,""
"image-keyboard-response",218,263482,"0.0-4.68-2.68","00efg9c6oh3oz2r",147,"86.csv","","null","resources/images/coin2.png","null","",NA,NA,NA,NA,""
"image-keyboard-response",219,263830,"0.0-4.69-0.69","00efg9c6oh3oz2r",147,"86.csv","","342","resources/trios/L1T4A2.jpg","37","restless",0.6,0.6,0.5,0.58082050042157,"true"
"image-keyboard-response",220,264235,"0.0-4.69-1.69","00efg9c6oh3oz2r",147,"86.csv","","null","resources/maskTrios/L1BB.jpg","null","",NA,NA,NA,NA,""
"image-keyboard-response",221,265442,"0.0-4.69-2.69","00efg9c6oh3oz2r",147,"86.csv","","null","resources/images/coin2.png","null","",NA,NA,NA,NA,""
"image-keyboard-response",222,265788,"0.0-4.70-0.70","00efg9c6oh3oz2r",147,"86.csv","","341","resources/trios/L1T4A2.jpg","37","restless",0.6,0.6,0.5,0.764796036875074,"false"
"image-keyboard-response",223,266191,"0.0-4.70-1.70","00efg9c6oh3oz2r",147,"86.csv","","null","resources/maskTrios/L1BB.jpg","null","",NA,NA,NA,NA,""
"image-keyboard-response",224,267397,"0.0-4.70-2.70","00efg9c6oh3oz2r",147,"86.csv","","null","resources/images/fishbone.png","null","",NA,NA,NA,NA,""
"image-keyboard-response",225,268240,"0.0-4.71-0.71","00efg9c6oh3oz2r",147,"86.csv","","838","resources/trios/L1T4A2.jpg","38","restless",0.6,0.6,0.5,0.990750530259588,"false"
"image-keyboard-response",226,268645,"0.0-4.71-1.71","00efg9c6oh3oz2r",147,"86.csv","","null","resources/maskTrios/BT4B.jpg","null","",NA,NA,NA,NA,""
"image-keyboard-response",227,269850,"0.0-4.71-2.71","00efg9c6oh3oz2r",147,"86.csv","","null","resources/images/fishbone.png","null","",NA,NA,NA,NA,""
"image-keyboard-response",228,270170,"0.0-4.72-0.72","00efg9c6oh3oz2r",147,"86.csv","","315","resources/trios/L1T4A2.jpg","39","restless",0.6,0.6,0.5,0.391223069422374,"true"
"image-keyboard-response",229,270574,"0.0-4.72-1.72","00efg9c6oh3oz2r",147,"86.csv","","null","resources/maskTrios/BBA2.jpg","null","",NA,NA,NA,NA,""
"image-keyboard-response",230,271780,"0.0-4.72-2.72","00efg9c6oh3oz2r",147,"86.csv","","null","resources/images/coin2.png","null","",NA,NA,NA,NA,""
"image-keyboard-response",231,272087,"0.0-4.73-0.73","00efg9c6oh3oz2r",147,"86.csv","","302","resources/trios/L1T4A2.jpg","39","restless",0.6,0.6,0.5,0.26595864908149,"true"
"image-keyboard-response",232,272491,"0.0-4.73-1.73","00efg9c6oh3oz2r",147,"86.csv","","null","resources/maskTrios/BBA2.jpg","null","",NA,NA,NA,NA,""
"image-keyboard-response",233,273696,"0.0-4.73-2.73","00efg9c6oh3oz2r",147,"86.csv","","null","resources/images/coin2.png","null","",NA,NA,NA,NA,""
"image-keyboard-response",234,274000,"0.0-4.74-0.74","00efg9c6oh3oz2r",147,"86.csv","","298","resources/trios/L1T4A2.jpg","39","restless",0.6,0.6,0.5,0.0219208634571121,"true"
"image-keyboard-response",235,274403,"0.0-4.74-1.74","00efg9c6oh3oz2r",147,"86.csv","","null","resources/maskTrios/BBA2.jpg","null","",NA,NA,NA,NA,""
"image-keyboard-response",236,275610,"0.0-4.74-2.74","00efg9c6oh3oz2r",147,"86.csv","","null","resources/images/coin2.png","null","",NA,NA,NA,NA,""
"image-keyboard-response",237,275957,"0.0-4.75-0.75","00efg9c6oh3oz2r",147,"86.csv","","344","resources/trios/L1T4A2.jpg","39","restless",0.6,0.6,0.5,0.871856892884313,"false"
"image-keyboard-response",238,276361,"0.0-4.75-1.75","00efg9c6oh3oz2r",147,"86.csv","","null","resources/maskTrios/BBA2.jpg","null","",NA,NA,NA,NA,""
"image-keyboard-response",239,277567,"0.0-4.75-2.75","00efg9c6oh3oz2r",147,"86.csv","","null","resources/images/fishbone.png","null","",NA,NA,NA,NA,""
"image-keyboard-response",240,277915,"0.0-4.76-0.76","00efg9c6oh3oz2r",147,"86.csv","","343","resources/trios/L1T4A2.jpg","37","restless",0.6,0.6,0.5,0.41139386170287,"true"
"image-keyboard-response",241,278318,"0.0-4.76-1.76","00efg9c6oh3oz2r",147,"86.csv","","null","resources/maskTrios/L1BB.jpg","null","",NA,NA,NA,NA,""
"image-keyboard-response",242,279523,"0.0-4.76-2.76","00efg9c6oh3oz2r",147,"86.csv","","null","resources/images/coin2.png","null","",NA,NA,NA,NA,""
"image-keyboard-response",243,279894,"0.0-4.77-0.77","00efg9c6oh3oz2r",147,"86.csv","","367","resources/trios/L1T4A2.jpg","37","restless",0.6,0.6,0.5,0.314414716894183,"true"
"image-keyboard-response",244,280300,"0.0-4.77-1.77","00efg9c6oh3oz2r",147,"86.csv","","null","resources/maskTrios/L1BB.jpg","null","",NA,NA,NA,NA,""
"image-keyboard-response",245,281505,"0.0-4.77-2.77","00efg9c6oh3oz2r",147,"86.csv","","null","resources/images/coin2.png","null","",NA,NA,NA,NA,""
"image-keyboard-response",246,281852,"0.0-4.78-0.78","00efg9c6oh3oz2r",147,"86.csv","","342","resources/trios/L1T4A2.jpg","37","restless",0.6,0.6,0.5,0.436461834682566,"true"
"image-keyboard-response",247,282257,"0.0-4.78-1.78","00efg9c6oh3oz2r",147,"86.csv","","null","resources/maskTrios/L1BB.jpg","null","",NA,NA,NA,NA,""
"image-keyboard-response",248,283463,"0.0-4.78-2.78","00efg9c6oh3oz2r",147,"86.csv","","null","resources/images/coin2.png","null","",NA,NA,NA,NA,""
"image-keyboard-response",249,283810,"0.0-4.79-0.79","00efg9c6oh3oz2r",147,"86.csv","","343","resources/trios/L1T4A2.jpg","37","restless",0.6,0.6,0.5,0.949347973744519,"false"
"image-keyboard-response",250,284214,"0.0-4.79-1.79","00efg9c6oh3oz2r",147,"86.csv","","null","resources/maskTrios/L1BB.jpg","null","",NA,NA,NA,NA,""
"image-keyboard-response",251,285419,"0.0-4.79-2.79","00efg9c6oh3oz2r",147,"86.csv","","null","resources/images/fishbone.png","null","",NA,NA,NA,NA,""
"image-keyboard-response",252,285520,"0.0-4.80-0.80","00efg9c6oh3oz2r",147,"86.csv","","96","resources/trios/L1T4A2.jpg","38","restless",0.6,0.6,0.4,0.545102176323095,"true"
"image-keyboard-response",253,285925,"0.0-4.80-1.80","00efg9c6oh3oz2r",147,"86.csv","","null","resources/maskTrios/BT4B.jpg","null","",NA,NA,NA,NA,""
"image-keyboard-response",254,287130,"0.0-4.80-2.80","00efg9c6oh3oz2r",147,"86.csv","","null","resources/images/coin2.png","null","",NA,NA,NA,NA,""
"image-keyboard-response",255,287454,"0.0-4.81-0.81","00efg9c6oh3oz2r",147,"86.csv","","320","resources/trios/L1T4A2.jpg","38","restless",0.6,0.6,0.5,0.153908403011044,"true"
"image-keyboard-response",256,287860,"0.0-4.81-1.81","00efg9c6oh3oz2r",147,"86.csv","","null","resources/maskTrios/BT4B.jpg","null","",NA,NA,NA,NA,""
"image-keyboard-response",257,289066,"0.0-4.81-2.81","00efg9c6oh3oz2r",147,"86.csv","","null","resources/images/coin2.png","null","",NA,NA,NA,NA,""
"image-keyboard-response",258,289389,"0.0-4.82-0.82","00efg9c6oh3oz2r",147,"86.csv","","319","resources/trios/L1T4A2.jpg","38","restless",0.6,0.6,0.5,0.270687795455883,"true"
"image-keyboard-response",259,289793,"0.0-4.82-1.82","00efg9c6oh3oz2r",147,"86.csv","","null","resources/maskTrios/BT4B.jpg","null","",NA,NA,NA,NA,""
"image-keyboard-response",260,290997,"0.0-4.82-2.82","00efg9c6oh3oz2r",147,"86.csv","","null","resources/images/coin2.png","null","",NA,NA,NA,NA,""
"image-keyboard-response",261,291324,"0.0-4.83-0.83","00efg9c6oh3oz2r",147,"86.csv","","322","resources/trios/L1T4A2.jpg","38","restless",0.6,0.6,0.5,0.30246431238602,"true"
"image-keyboard-response",262,291727,"0.0-4.83-1.83","00efg9c6oh3oz2r",147,"86.csv","","null","resources/maskTrios/BT4B.jpg","null","",NA,NA,NA,NA,""
"image-keyboard-response",263,292932,"0.0-4.83-2.83","00efg9c6oh3oz2r",147,"86.csv","","null","resources/images/coin2.png","null","",NA,NA,NA,NA,""
"image-keyboard-response",264,293257,"0.0-4.84-0.84","00efg9c6oh3oz2r",147,"86.csv","","322","resources/trios/L1T4A2.jpg","38","restless",0.6,0.6,0.4,0.887896320155509,"false"
"image-keyboard-response",265,293661,"0.0-4.84-1.84","00efg9c6oh3oz2r",147,"86.csv","","null","resources/maskTrios/BT4B.jpg","null","",NA,NA,NA,NA,""
"image-keyboard-response",266,294867,"0.0-4.84-2.84","00efg9c6oh3oz2r",147,"86.csv","","null","resources/images/fishbone.png","null","",NA,NA,NA,NA,""
"image-keyboard-response",267,295240,"0.0-4.85-0.85","00efg9c6oh3oz2r",147,"86.csv","","368","resources/trios/L1T4A2.jpg","39","restless",0.6,0.6,0.4,0.883070085390096,"false"
"image-keyboard-response",268,295643,"0.0-4.85-1.85","00efg9c6oh3oz2r",147,"86.csv","","null","resources/maskTrios/BBA2.jpg","null","",NA,NA,NA,NA,""
"image-keyboard-response",269,296850,"0.0-4.85-2.85","00efg9c6oh3oz2r",147,"86.csv","","null","resources/images/fishbone.png","null","",NA,NA,NA,NA,""
"image-keyboard-response",270,297333,"0.0-4.86-0.86","00efg9c6oh3oz2r",147,"86.csv","","478","resources/trios/L1T4A2.jpg","37","restless",0.6,0.7,0.4,0.805379818998454,"false"
"image-keyboard-response",271,297737,"0.0-4.86-1.86","00efg9c6oh3oz2r",147,"86.csv","","null","resources/maskTrios/L1BB.jpg","null","",NA,NA,NA,NA,""
"image-keyboard-response",272,298941,"0.0-4.86-2.86","00efg9c6oh3oz2r",147,"86.csv","","null","resources/images/fishbone.png","null","",NA,NA,NA,NA,""
"image-keyboard-response",273,299178,"0.0-4.87-0.87","00efg9c6oh3oz2r",147,"86.csv","","232","resources/trios/L1T4A2.jpg","38","restless",0.6,0.7,0.4,0.0362407988913349,"true"
"image-keyboard-response",274,299582,"0.0-4.87-1.87","00efg9c6oh3oz2r",147,"86.csv","","null","resources/maskTrios/BT4B.jpg","null","",NA,NA,NA,NA,""
"image-keyboard-response",275,300929,"0.0-4.87-2.87","00efg9c6oh3oz2r",147,"86.csv","","null","resources/images/coin2.png","null","",NA,NA,NA,NA,""
"image-keyboard-response",276,301270,"0.0-4.88-0.88","00efg9c6oh3oz2r",147,"86.csv","","337","resources/trios/L1T4A2.jpg","38","restless",0.6,0.7,0.4,0.764655808905424,"false"
"image-keyboard-response",277,301674,"0.0-4.88-1.88","00efg9c6oh3oz2r",147,"86.csv","","null","resources/maskTrios/BT4B.jpg","null","",NA,NA,NA,NA,""
"image-keyboard-response",278,302881,"0.0-4.88-2.88","00efg9c6oh3oz2r",147,"86.csv","","null","resources/images/fishbone.png","null","",NA,NA,NA,NA,""
"image-keyboard-response",279,303272,"0.0-4.89-0.89","00efg9c6oh3oz2r",147,"86.csv","","388","resources/trios/L1T4A2.jpg","39","restless",0.6,0.7,0.4,0.26492135048062,"true"
"image-keyboard-response",280,303676,"0.0-4.89-1.89","00efg9c6oh3oz2r",147,"86.csv","","null","resources/maskTrios/BBA2.jpg","null","",NA,NA,NA,NA,""
"image-keyboard-response",281,304882,"0.0-4.89-2.89","00efg9c6oh3oz2r",147,"86.csv","","null","resources/images/coin2.png","null","",NA,NA,NA,NA,""
"image-keyboard-response",282,305207,"0.0-4.90-0.90","00efg9c6oh3oz2r",147,"86.csv","","321","resources/trios/L1T4A2.jpg","39","restless",0.6,0.7,0.4,0.2687156807193,"true"
"image-keyboard-response",283,305612,"0.0-4.90-1.90","00efg9c6oh3oz2r",147,"86.csv","","null","resources/maskTrios/BBA2.jpg","null","",NA,NA,NA,NA,""
"image-keyboard-response",284,306819,"0.0-4.90-2.90","00efg9c6oh3oz2r",147,"86.csv","","null","resources/images/coin2.png","null","",NA,NA,NA,NA,""
"image-keyboard-response",285,307186,"0.0-4.91-0.91","00efg9c6oh3oz2r",147,"86.csv","","362","resources/trios/L1T4A2.jpg","39","restless",0.6,0.7,0.4,0.846607364846818,"false"
"image-keyboard-response",286,307590,"0.0-4.91-1.91","00efg9c6oh3oz2r",147,"86.csv","","null","resources/maskTrios/BBA2.jpg","null","",NA,NA,NA,NA,""
"image-keyboard-response",287,308796,"0.0-4.91-2.91","00efg9c6oh3oz2r",147,"86.csv","","null","resources/images/fishbone.png","null","",NA,NA,NA,NA,""
"image-keyboard-response",288,309169,"0.0-4.92-0.92","00efg9c6oh3oz2r",147,"86.csv","","367","resources/trios/L1T4A2.jpg","37","restless",0.6,0.7,0.4,0.453142882335956,"true"
"image-keyboard-response",289,309572,"0.0-4.92-1.92","00efg9c6oh3oz2r",147,"86.csv","","null","resources/maskTrios/L1BB.jpg","null","",NA,NA,NA,NA,""
"image-keyboard-response",290,310777,"0.0-4.92-2.92","00efg9c6oh3oz2r",147,"86.csv","","null","resources/images/coin2.png","null","",NA,NA,NA,NA,""
"image-keyboard-response",291,311101,"0.0-4.93-0.93","00efg9c6oh3oz2r",147,"86.csv","","319","resources/trios/L1T4A2.jpg","37","restless",0.6,0.7,0.4,0.647515754045078,"false"
"image-keyboard-response",292,311507,"0.0-4.93-1.93","00efg9c6oh3oz2r",147,"86.csv","","null","resources/maskTrios/L1BB.jpg","null","",NA,NA,NA,NA,""
"image-keyboard-response",293,312712,"0.0-4.93-2.93","00efg9c6oh3oz2r",147,"86.csv","","null","resources/images/fishbone.png","null","",NA,NA,NA,NA,""
"image-keyboard-response",294,313127,"0.0-4.94-0.94","00efg9c6oh3oz2r",147,"86.csv","","408","resources/trios/L1T4A2.jpg","39","restless",0.7,0.7,0.4,0.779097799243895,"false"
"image-keyboard-response",295,313532,"0.0-4.94-1.94","00efg9c6oh3oz2r",147,"86.csv","","null","resources/maskTrios/BBA2.jpg","null","",NA,NA,NA,NA,""
"image-keyboard-response",296,314736,"0.0-4.94-2.94","00efg9c6oh3oz2r",147,"86.csv","","null","resources/images/fishbone.png","null","",NA,NA,NA,NA,""
"image-keyboard-response",297,315197,"0.0-4.95-0.95","00efg9c6oh3oz2r",147,"86.csv","","457","resources/trios/L1T4A2.jpg","38","restless",0.7,0.7,0.4,0.610480668105827,"true"
"image-keyboard-response",298,315600,"0.0-4.95-1.95","00efg9c6oh3oz2r",147,"86.csv","","null","resources/maskTrios/BT4B.jpg","null","",NA,NA,NA,NA,""
"image-keyboard-response",299,316807,"0.0-4.95-2.95","00efg9c6oh3oz2r",147,"86.csv","","null","resources/images/coin2.png","null","",NA,NA,NA,NA,""
"image-keyboard-response",300,317155,"0.0-4.96-0.96","00efg9c6oh3oz2r",147,"86.csv","","343","resources/trios/L1T4A2.jpg","38","restless",0.7,0.7,0.4,0.154544107432543,"true"
"image-keyboard-response",301,317560,"0.0-4.96-1.96","00efg9c6oh3oz2r",147,"86.csv","","null","resources/maskTrios/BT4B.jpg","null","",NA,NA,NA,NA,""
"image-keyboard-response",302,318766,"0.0-4.96-2.96","00efg9c6oh3oz2r",147,"86.csv","","null","resources/images/coin2.png","null","",NA,NA,NA,NA,""
"image-keyboard-response",303,319112,"0.0-4.97-0.97","00efg9c6oh3oz2r",147,"86.csv","","342","resources/trios/L1T4A2.jpg","38","restless",0.7,0.7,0.4,0.381032292348208,"true"
"image-keyboard-response",304,319516,"0.0-4.97-1.97","00efg9c6oh3oz2r",147,"86.csv","","null","resources/maskTrios/BT4B.jpg","null","",NA,NA,NA,NA,""
"image-keyboard-response",305,320722,"0.0-4.97-2.97","00efg9c6oh3oz2r",147,"86.csv","","null","resources/images/coin2.png","null","",NA,NA,NA,NA,""
"image-keyboard-response",306,321068,"0.0-4.98-0.98","00efg9c6oh3oz2r",147,"86.csv","","341","resources/trios/L1T4A2.jpg","38","restless",0.7,0.7,0.4,0.164612524397374,"true"
"image-keyboard-response",307,321472,"0.0-4.98-1.98","00efg9c6oh3oz2r",147,"86.csv","","null","resources/maskTrios/BT4B.jpg","null","",NA,NA,NA,NA,""
"image-keyboard-response",308,322678,"0.0-4.98-2.98","00efg9c6oh3oz2r",147,"86.csv","","null","resources/images/coin2.png","null","",NA,NA,NA,NA,""
"image-keyboard-response",309,322982,"0.0-4.99-0.99","00efg9c6oh3oz2r",147,"86.csv","","299","resources/trios/L1T4A2.jpg","38","restless",0.8,0.7,0.4,0.547606986276235,"true"
"image-keyboard-response",310,323386,"0.0-4.99-1.99","00efg9c6oh3oz2r",147,"86.csv","","null","resources/maskTrios/BT4B.jpg","null","",NA,NA,NA,NA,""
"image-keyboard-response",311,324591,"0.0-4.99-2.99","00efg9c6oh3oz2r",147,"86.csv","","null","resources/images/coin2.png","null","",NA,NA,NA,NA,""
"image-keyboard-response",312,324940,"0.0-4.100-0.100","00efg9c6oh3oz2r",147,"86.csv","","344","resources/trios/L1T4A2.jpg","38","restless",0.8,0.7,0.4,0.501898690718796,"true"
"image-keyboard-response",313,325344,"0.0-4.100-1.100","00efg9c6oh3oz2r",147,"86.csv","","null","resources/maskTrios/BT4B.jpg","null","",NA,NA,NA,NA,""
"image-keyboard-response",314,326551,"0.0-4.100-2.100","00efg9c6oh3oz2r",147,"86.csv","","null","resources/images/coin2.png","null","",NA,NA,NA,NA,""
"image-keyboard-response",315,326853,"0.0-4.101-0.101","00efg9c6oh3oz2r",147,"86.csv","","298","resources/trios/L1T4A2.jpg","38","restless",0.8,0.7,0.4,0.842931398515539,"false"
"image-keyboard-response",316,327257,"0.0-4.101-1.101","00efg9c6oh3oz2r",147,"86.csv","","null","resources/maskTrios/BT4B.jpg","null","",NA,NA,NA,NA,""
"image-keyboard-response",317,328462,"0.0-4.101-2.101","00efg9c6oh3oz2r",147,"86.csv","","null","resources/images/fishbone.png","null","",NA,NA,NA,NA,""
"image-keyboard-response",318,328809,"0.0-4.102-0.102","00efg9c6oh3oz2r",147,"86.csv","","342","resources/trios/L1T4A2.jpg","37","restless",0.7,0.7,0.4,0.313603132273962,"true"
"image-keyboard-response",319,329214,"0.0-4.102-1.102","00efg9c6oh3oz2r",147,"86.csv","","null","resources/maskTrios/L1BB.jpg","null","",NA,NA,NA,NA,""
"image-keyboard-response",320,330420,"0.0-4.102-2.102","00efg9c6oh3oz2r",147,"86.csv","","null","resources/images/coin2.png","null","",NA,NA,NA,NA,""
"image-keyboard-response",321,330766,"0.0-4.103-0.103","00efg9c6oh3oz2r",147,"86.csv","","339","resources/trios/L1T4A2.jpg","37","restless",0.7,0.7,0.3,0.407985367164133,"true"
"image-keyboard-response",322,331171,"0.0-4.103-1.103","00efg9c6oh3oz2r",147,"86.csv","","null","resources/maskTrios/L1BB.jpg","null","",NA,NA,NA,NA,""
"image-keyboard-response",323,332377,"0.0-4.103-2.103","00efg9c6oh3oz2r",147,"86.csv","","null","resources/images/coin2.png","null","",NA,NA,NA,NA,""
"image-keyboard-response",324,332723,"0.0-4.104-0.104","00efg9c6oh3oz2r",147,"86.csv","","343","resources/trios/L1T4A2.jpg","37","restless",0.7,0.7,0.3,0.506463973877918,"true"
"image-keyboard-response",325,333128,"0.0-4.104-1.104","00efg9c6oh3oz2r",147,"86.csv","","null","resources/maskTrios/L1BB.jpg","null","",NA,NA,NA,NA,""
"image-keyboard-response",326,334333,"0.0-4.104-2.104","00efg9c6oh3oz2r",147,"86.csv","","null","resources/images/coin2.png","null","",NA,NA,NA,NA,""
"image-keyboard-response",327,334681,"0.0-4.105-0.105","00efg9c6oh3oz2r",147,"86.csv","","343","resources/trios/L1T4A2.jpg","37","restless",0.7,0.6,0.3,0.12704128325962,"true"
"image-keyboard-response",328,335087,"0.0-4.105-1.105","00efg9c6oh3oz2r",147,"86.csv","","null","resources/maskTrios/L1BB.jpg","null","",NA,NA,NA,NA,""
"image-keyboard-response",329,336293,"0.0-4.105-2.105","00efg9c6oh3oz2r",147,"86.csv","","null","resources/images/coin2.png","null","",NA,NA,NA,NA,""
"image-keyboard-response",330,336594,"0.0-4.106-0.106","00efg9c6oh3oz2r",147,"86.csv","","295","resources/trios/L1T4A2.jpg","37","restless",0.8,0.5,0.3,0.889605766183867,"false"
"image-keyboard-response",331,337000,"0.0-4.106-1.106","00efg9c6oh3oz2r",147,"86.csv","","null","resources/maskTrios/L1BB.jpg","null","",NA,NA,NA,NA,""
"image-keyboard-response",332,338206,"0.0-4.106-2.106","00efg9c6oh3oz2r",147,"86.csv","","null","resources/images/fishbone.png","null","",NA,NA,NA,NA,""
"image-keyboard-response",333,338368,"0.0-4.107-0.107","00efg9c6oh3oz2r",147,"86.csv","","158","resources/trios/L1T4A2.jpg","39","restless",0.8,0.5,0.3,0.55819921711246,"false"
"image-keyboard-response",334,338773,"0.0-4.107-1.107","00efg9c6oh3oz2r",147,"86.csv","","null","resources/maskTrios/BBA2.jpg","null","",NA,NA,NA,NA,""
"image-keyboard-response",335,339980,"0.0-4.107-2.107","00efg9c6oh3oz2r",147,"86.csv","","null","resources/images/fishbone.png","null","",NA,NA,NA,NA,""
"image-keyboard-response",336,340307,"0.0-4.108-0.108","00efg9c6oh3oz2r",147,"86.csv","","322","resources/trios/L1T4A2.jpg","38","restless",0.8,0.5,0.3,0.447131040414294,"true"
"image-keyboard-response",337,340711,"0.0-4.108-1.108","00efg9c6oh3oz2r",147,"86.csv","","null","resources/maskTrios/BT4B.jpg","null","",NA,NA,NA,NA,""
"image-keyboard-response",338,341917,"0.0-4.108-2.108","00efg9c6oh3oz2r",147,"86.csv","","null","resources/images/coin2.png","null","",NA,NA,NA,NA,""
"image-keyboard-response",339,342266,"0.0-4.109-0.109","00efg9c6oh3oz2r",147,"86.csv","","343","resources/trios/L1T4A2.jpg","38","restless",0.8,0.4,0.3,0.749099759693614,"false"
"image-keyboard-response",340,342672,"0.0-4.109-1.109","00efg9c6oh3oz2r",147,"86.csv","","null","resources/maskTrios/BT4B.jpg","null","",NA,NA,NA,NA,""
"image-keyboard-response",341,343876,"0.0-4.109-2.109","00efg9c6oh3oz2r",147,"86.csv","","null","resources/images/fishbone.png","null","",NA,NA,NA,NA,""
"image-keyboard-response",342,344223,"0.0-4.110-0.110","00efg9c6oh3oz2r",147,"86.csv","","342","resources/trios/L1T4A2.jpg","37","restless",0.8,0.3,0.3,0.212335458585089,"true"
"image-keyboard-response",343,344626,"0.0-4.110-1.110","00efg9c6oh3oz2r",147,"86.csv","","null","resources/maskTrios/L1BB.jpg","null","",NA,NA,NA,NA,""
"image-keyboard-response",344,345954,"0.0-4.110-2.110","00efg9c6oh3oz2r",147,"86.csv","","null","resources/images/coin2.png","null","",NA,NA,NA,NA,""
"image-keyboard-response",345,346269,"0.0-4.111-0.111","00efg9c6oh3oz2r",147,"86.csv","","311","resources/trios/L1T4A2.jpg","37","restless",0.8,0.3,0.3,0.00736936763238005,"true"
"image-keyboard-response",346,346673,"0.0-4.111-1.111","00efg9c6oh3oz2r",147,"86.csv","","null","resources/maskTrios/L1BB.jpg","null","",NA,NA,NA,NA,""
"image-keyboard-response",347,347879,"0.0-4.111-2.111","00efg9c6oh3oz2r",147,"86.csv","","null","resources/images/coin2.png","null","",NA,NA,NA,NA,""
"image-keyboard-response",348,348205,"0.0-4.112-0.112","00efg9c6oh3oz2r",147,"86.csv","","320","resources/trios/L1T4A2.jpg","37","restless",0.8,0.3,0.3,0.368611431121483,"true"
"image-keyboard-response",349,348609,"0.0-4.112-1.112","00efg9c6oh3oz2r",147,"86.csv","","null","resources/maskTrios/L1BB.jpg","null","",NA,NA,NA,NA,""
"image-keyboard-response",350,349815,"0.0-4.112-2.112","00efg9c6oh3oz2r",147,"86.csv","","null","resources/images/coin2.png","null","",NA,NA,NA,NA,""
"image-keyboard-response",351,349918,"0.0-4.113-0.113","00efg9c6oh3oz2r",147,"86.csv","","97","resources/trios/L1T4A2.jpg","37","restless",0.7,0.3,0.4,0.152691092775718,"true"
"image-keyboard-response",352,350323,"0.0-4.113-1.113","00efg9c6oh3oz2r",147,"86.csv","","null","resources/maskTrios/L1BB.jpg","null","",NA,NA,NA,NA,""
"image-keyboard-response",353,351529,"0.0-4.113-2.113","00efg9c6oh3oz2r",147,"86.csv","","null","resources/images/coin2.png","null","",NA,NA,NA,NA,""
"image-keyboard-response",354,351692,"0.0-4.114-0.114","00efg9c6oh3oz2r",147,"86.csv","","157","resources/trios/L1T4A2.jpg","37","restless",0.7,0.3,0.4,0.8869118670693,"false"
"image-keyboard-response",355,352095,"0.0-4.114-1.114","00efg9c6oh3oz2r",147,"86.csv","","null","resources/maskTrios/L1BB.jpg","null","",NA,NA,NA,NA,""
"image-keyboard-response",356,353301,"0.0-4.114-2.114","00efg9c6oh3oz2r",147,"86.csv","","null","resources/images/fishbone.png","null","",NA,NA,NA,NA,""
"image-keyboard-response",357,353310,"0.0-4.115-0.115","00efg9c6oh3oz2r",147,"86.csv","","5","resources/trios/L1T4A2.jpg","39","restless",0.8,0.3,0.4,0.842475502100043,"false"
"image-keyboard-response",358,353714,"0.0-4.115-1.115","00efg9c6oh3oz2r",147,"86.csv","","null","resources/maskTrios/BBA2.jpg","null","",NA,NA,NA,NA,""
"image-keyboard-response",359,354919,"0.0-4.115-2.115","00efg9c6oh3oz2r",147,"86.csv","","null","resources/images/fishbone.png","null","",NA,NA,NA,NA,""
"image-keyboard-response",360,355294,"0.0-4.116-0.116","00efg9c6oh3oz2r",147,"86.csv","","371","resources/trios/L1T4A2.jpg","38","restless",0.8,0.4,0.4,0.00248864041213681,"true"
"image-keyboard-response",361,355700,"0.0-4.116-1.116","00efg9c6oh3oz2r",147,"86.csv","","null","resources/maskTrios/BT4B.jpg","null","",NA,NA,NA,NA,""
"image-keyboard-response",362,356905,"0.0-4.116-2.116","00efg9c6oh3oz2r",147,"86.csv","","null","resources/images/coin2.png","null","",NA,NA,NA,NA,""
"image-keyboard-response",363,357069,"0.0-4.117-0.117","00efg9c6oh3oz2r",147,"86.csv","","159","resources/trios/L1T4A2.jpg","38","restless",0.8,0.4,0.4,0.93046106376283,"false"
"image-keyboard-response",364,357472,"0.0-4.117-1.117","00efg9c6oh3oz2r",147,"86.csv","","null","resources/maskTrios/BT4B.jpg","null","",NA,NA,NA,NA,""
"image-keyboard-response",365,358678,"0.0-4.117-2.117","00efg9c6oh3oz2r",147,"86.csv","","null","resources/images/fishbone.png","null","",NA,NA,NA,NA,""
"image-keyboard-response",366,358847,"0.0-4.118-0.118","00efg9c6oh3oz2r",147,"86.csv","","164","resources/trios/L1T4A2.jpg","39","restless",0.8,0.4,0.4,0.23897090620329,"true"
"image-keyboard-response",367,359252,"0.0-4.118-1.118","00efg9c6oh3oz2r",147,"86.csv","","null","resources/maskTrios/BBA2.jpg","null","",NA,NA,NA,NA,""
"image-keyboard-response",368,360457,"0.0-4.118-2.118","00efg9c6oh3oz2r",147,"86.csv","","null","resources/images/coin2.png","null","",NA,NA,NA,NA,""
"image-keyboard-response",369,360806,"0.0-4.119-0.119","00efg9c6oh3oz2r",147,"86.csv","","344","resources/trios/L1T4A2.jpg","39","restless",0.8,0.4,0.4,0.115965321597425,"true"
"image-keyboard-response",370,361211,"0.0-4.119-1.119","00efg9c6oh3oz2r",147,"86.csv","","null","resources/maskTrios/BBA2.jpg","null","",NA,NA,NA,NA,""
"image-keyboard-response",371,362418,"0.0-4.119-2.119","00efg9c6oh3oz2r",147,"86.csv","","null","resources/images/coin2.png","null","",NA,NA,NA,NA,""
"image-keyboard-response",372,362785,"0.0-4.120-0.120","00efg9c6oh3oz2r",147,"86.csv","","362","resources/trios/L1T4A2.jpg","39","restless",0.8,0.4,0.4,0.269371715242189,"true"
"image-keyboard-response",373,363189,"0.0-4.120-1.120","00efg9c6oh3oz2r",147,"86.csv","","null","resources/maskTrios/BBA2.jpg","null","",NA,NA,NA,NA,""
"image-keyboard-response",374,364394,"0.0-4.120-2.120","00efg9c6oh3oz2r",147,"86.csv","","null","resources/images/coin2.png","null","",NA,NA,NA,NA,""
"image-keyboard-response",375,364718,"0.0-4.121-0.121","00efg9c6oh3oz2r",147,"86.csv","","319","resources/trios/L1T4A2.jpg","39","restless",0.8,0.4,0.4,0.858922768648087,"false"
"image-keyboard-response",376,365124,"0.0-4.121-1.121","00efg9c6oh3oz2r",147,"86.csv","","null","resources/maskTrios/BBA2.jpg","null","",NA,NA,NA,NA,""
"image-keyboard-response",377,366329,"0.0-4.121-2.121","00efg9c6oh3oz2r",147,"86.csv","","null","resources/images/fishbone.png","null","",NA,NA,NA,NA,""
"image-keyboard-response",378,366678,"0.0-4.122-0.122","00efg9c6oh3oz2r",147,"86.csv","","344","resources/trios/L1T4A2.jpg","37","restless",0.8,0.4,0.4,0.884916087801189,"false"
"image-keyboard-response",379,367081,"0.0-4.122-1.122","00efg9c6oh3oz2r",147,"86.csv","","null","resources/maskTrios/L1BB.jpg","null","",NA,NA,NA,NA,""
"image-keyboard-response",380,368287,"0.0-4.122-2.122","00efg9c6oh3oz2r",147,"86.csv","","null","resources/images/fishbone.png","null","",NA,NA,NA,NA,""
"image-keyboard-response",381,368360,"0.0-4.123-0.123","00efg9c6oh3oz2r",147,"86.csv","","69","resources/trios/L1T4A2.jpg","38","restless",0.8,0.4,0.4,0.895896452357922,"false"
"image-keyboard-response",382,368764,"0.0-4.123-1.123","00efg9c6oh3oz2r",147,"86.csv","","null","resources/maskTrios/BT4B.jpg","null","",NA,NA,NA,NA,""
"image-keyboard-response",383,369968,"0.0-4.123-2.123","00efg9c6oh3oz2r",147,"86.csv","","null","resources/images/fishbone.png","null","",NA,NA,NA,NA,""
"image-keyboard-response",384,370456,"0.0-4.124-0.124","00efg9c6oh3oz2r",147,"86.csv","","486","resources/trios/L1T4A2.jpg","39","restless",0.8,0.4,0.4,0.965726575991969,"false"
"image-keyboard-response",385,370861,"0.0-4.124-1.124","00efg9c6oh3oz2r",147,"86.csv","","null","resources/maskTrios/BBA2.jpg","null","",NA,NA,NA,NA,""
"image-keyboard-response",386,372066,"0.0-4.124-2.124","00efg9c6oh3oz2r",147,"86.csv","","null","resources/images/fishbone.png","null","",NA,NA,NA,NA,""
"image-keyboard-response",387,372573,"0.0-4.125-0.125","00efg9c6oh3oz2r",147,"86.csv","","501","resources/trios/L1T4A2.jpg","38","restless",0.8,0.4,0.4,0.390376864414065,"true"
"image-keyboard-response",388,372977,"0.0-4.125-1.125","00efg9c6oh3oz2r",147,"86.csv","","null","resources/maskTrios/BT4B.jpg","null","",NA,NA,NA,NA,""
"image-keyboard-response",389,374184,"0.0-4.125-2.125","00efg9c6oh3oz2r",147,"86.csv","","null","resources/images/coin2.png","null","",NA,NA,NA,NA,""
"image-keyboard-response",390,374530,"0.0-4.126-0.126","00efg9c6oh3oz2r",147,"86.csv","","341","resources/trios/L1T4A2.jpg","38","restless",0.8,0.4,0.4,0.990020430337771,"false"
"image-keyboard-response",391,374934,"0.0-4.126-1.126","00efg9c6oh3oz2r",147,"86.csv","","null","resources/maskTrios/BT4B.jpg","null","",NA,NA,NA,NA,""
"image-keyboard-response",392,376140,"0.0-4.126-2.126","00efg9c6oh3oz2r",147,"86.csv","","null","resources/images/fishbone.png","null","",NA,NA,NA,NA,""
"image-keyboard-response",393,376442,"0.0-4.127-0.127","00efg9c6oh3oz2r",147,"86.csv","","297","resources/trios/L1T4A2.jpg","37","restless",0.8,0.4,0.4,0.700262734551145,"true"
"image-keyboard-response",394,376847,"0.0-4.127-1.127","00efg9c6oh3oz2r",147,"86.csv","","null","resources/maskTrios/L1BB.jpg","null","",NA,NA,NA,NA,""
"image-keyboard-response",395,378053,"0.0-4.127-2.127","00efg9c6oh3oz2r",147,"86.csv","","null","resources/images/coin2.png","null","",NA,NA,NA,NA,""
"image-keyboard-response",396,378422,"0.0-4.128-0.128","00efg9c6oh3oz2r",147,"86.csv","","364","resources/trios/L1T4A2.jpg","37","restless",0.8,0.4,0.4,0.695280618114864,"true"
"image-keyboard-response",397,378826,"0.0-4.128-1.128","00efg9c6oh3oz2r",147,"86.csv","","null","resources/maskTrios/L1BB.jpg","null","",NA,NA,NA,NA,""
"image-keyboard-response",398,380033,"0.0-4.128-2.128","00efg9c6oh3oz2r",147,"86.csv","","null","resources/images/coin2.png","null","",NA,NA,NA,NA,""
"image-keyboard-response",399,380380,"0.0-4.129-0.129","00efg9c6oh3oz2r",147,"86.csv","","342","resources/trios/L1T4A2.jpg","37","restless",0.8,0.4,0.4,0.533201118263509,"true"
"image-keyboard-response",400,380784,"0.0-4.129-1.129","00efg9c6oh3oz2r",147,"86.csv","","null","resources/maskTrios/L1BB.jpg","null","",NA,NA,NA,NA,""
"image-keyboard-response",401,381991,"0.0-4.129-2.129","00efg9c6oh3oz2r",147,"86.csv","","null","resources/images/coin2.png","null","",NA,NA,NA,NA,""
"image-keyboard-response",402,382382,"0.0-4.130-0.130","00efg9c6oh3oz2r",147,"86.csv","","386","resources/trios/L1T4A2.jpg","37","restless",0.8,0.5,0.4,0.523607277664451,"true"
"image-keyboard-response",403,382787,"0.0-4.130-1.130","00efg9c6oh3oz2r",147,"86.csv","","null","resources/maskTrios/L1BB.jpg","null","",NA,NA,NA,NA,""
"image-keyboard-response",404,383993,"0.0-4.130-2.130","00efg9c6oh3oz2r",147,"86.csv","","null","resources/images/coin2.png","null","",NA,NA,NA,NA,""
"image-keyboard-response",405,384340,"0.0-4.131-0.131","00efg9c6oh3oz2r",147,"86.csv","","341","resources/trios/L1T4A2.jpg","37","restless",0.9,0.4,0.4,0.693722388295204,"true"
"image-keyboard-response",406,384744,"0.0-4.131-1.131","00efg9c6oh3oz2r",147,"86.csv","","null","resources/maskTrios/L1BB.jpg","null","",NA,NA,NA,NA,""
"image-keyboard-response",407,385950,"0.0-4.131-2.131","00efg9c6oh3oz2r",147,"86.csv","","null","resources/images/coin2.png","null","",NA,NA,NA,NA,""
"image-keyboard-response",408,386320,"0.0-4.132-0.132","00efg9c6oh3oz2r",147,"86.csv","","364","resources/trios/L1T4A2.jpg","37","restless",0.9,0.4,0.4,0.976553465392918,"false"
"image-keyboard-response",409,386724,"0.0-4.132-1.132","00efg9c6oh3oz2r",147,"86.csv","","null","resources/maskTrios/L1BB.jpg","null","",NA,NA,NA,NA,""
"image-keyboard-response",410,387930,"0.0-4.132-2.132","00efg9c6oh3oz2r",147,"86.csv","","null","resources/images/fishbone.png","null","",NA,NA,NA,NA,""
"image-keyboard-response",411,388254,"0.0-4.133-0.133","00efg9c6oh3oz2r",147,"86.csv","","319","resources/trios/L1T4A2.jpg","39","restless",0.9,0.4,0.4,0.600883401732274,"false"
"image-keyboard-response",412,388659,"0.0-4.133-1.133","00efg9c6oh3oz2r",147,"86.csv","","null","resources/maskTrios/BBA2.jpg","null","",NA,NA,NA,NA,""
"image-keyboard-response",413,389865,"0.0-4.133-2.133","00efg9c6oh3oz2r",147,"86.csv","","null","resources/images/fishbone.png","null","",NA,NA,NA,NA,""
"image-keyboard-response",414,390100,"0.0-4.134-0.134","00efg9c6oh3oz2r",147,"86.csv","","230","resources/trios/L1T4A2.jpg","38","restless",0.9,0.4,0.4,0.765582513822862,"false"
"image-keyboard-response",415,390506,"0.0-4.134-1.134","00efg9c6oh3oz2r",147,"86.csv","","null","resources/maskTrios/BT4B.jpg","null","",NA,NA,NA,NA,""
"image-keyboard-response",416,391713,"0.0-4.134-2.134","00efg9c6oh3oz2r",147,"86.csv","","null","resources/images/fishbone.png","null","",NA,NA,NA,NA,""
"image-keyboard-response",417,392193,"0.0-4.135-0.135","00efg9c6oh3oz2r",147,"86.csv","","475","resources/trios/L1T4A2.jpg","39","restless",0.9,0.4,0.4,0.932150419821943,"false"
"image-keyboard-response",418,392596,"0.0-4.135-1.135","00efg9c6oh3oz2r",147,"86.csv","","null","resources/maskTrios/BBA2.jpg","null","",NA,NA,NA,NA,""
"image-keyboard-response",419,393803,"0.0-4.135-2.135","00efg9c6oh3oz2r",147,"86.csv","","null","resources/images/fishbone.png","null","",NA,NA,NA,NA,""
"image-keyboard-response",420,394083,"0.0-4.136-0.136","00efg9c6oh3oz2r",147,"86.csv","","275","resources/trios/L1T4A2.jpg","37","restless",0.8,0.4,0.4,0.27801633867312,"true"
"image-keyboard-response",421,394489,"0.0-4.136-1.136","00efg9c6oh3oz2r",147,"86.csv","","null","resources/maskTrios/L1BB.jpg","null","",NA,NA,NA,NA,""
"image-keyboard-response",422,395695,"0.0-4.136-2.136","00efg9c6oh3oz2r",147,"86.csv","","null","resources/images/coin2.png","null","",NA,NA,NA,NA,""
"image-keyboard-response",423,395973,"0.0-4.137-0.137","00efg9c6oh3oz2r",147,"86.csv","","272","resources/trios/L1T4A2.jpg","37","restless",0.7,0.4,0.4,0.00862604475218198,"true"
"image-keyboard-response",424,396377,"0.0-4.137-1.137","00efg9c6oh3oz2r",147,"86.csv","","null","resources/maskTrios/L1BB.jpg","null","",NA,NA,NA,NA,""
"image-keyboard-response",425,397584,"0.0-4.137-2.137","00efg9c6oh3oz2r",147,"86.csv","","null","resources/images/coin2.png","null","",NA,NA,NA,NA,""
"image-keyboard-response",426,397929,"0.0-4.138-0.138","00efg9c6oh3oz2r",147,"86.csv","","341","resources/trios/L1T4A2.jpg","37","restless",0.7,0.4,0.4,0.83483896051124,"false"
"image-keyboard-response",427,398332,"0.0-4.138-1.138","00efg9c6oh3oz2r",147,"86.csv","","null","resources/maskTrios/L1BB.jpg","null","",NA,NA,NA,NA,""
"image-keyboard-response",428,399536,"0.0-4.138-2.138","00efg9c6oh3oz2r",147,"86.csv","","null","resources/images/fishbone.png","null","",NA,NA,NA,NA,""
"image-keyboard-response",429,399842,"0.0-4.139-0.139","00efg9c6oh3oz2r",147,"86.csv","","302","resources/trios/L1T4A2.jpg","38","restless",0.7,0.4,0.4,0.435510656706521,"false"
"image-keyboard-response",430,400248,"0.0-4.139-1.139","00efg9c6oh3oz2r",147,"86.csv","","null","resources/maskTrios/BT4B.jpg","null","",NA,NA,NA,NA,""
"image-keyboard-response",431,401452,"0.0-4.139-2.139","00efg9c6oh3oz2r",147,"86.csv","","null","resources/images/fishbone.png","null","",NA,NA,NA,NA,""
"image-keyboard-response",432,401801,"0.0-4.140-0.140","00efg9c6oh3oz2r",147,"86.csv","","344","resources/trios/L1T4A2.jpg","39","restless",0.7,0.4,0.4,0.682297224781614,"false"
"image-keyboard-response",433,402207,"0.0-4.140-1.140","00efg9c6oh3oz2r",147,"86.csv","","null","resources/maskTrios/BBA2.jpg","null","",NA,NA,NA,NA,""
"image-keyboard-response",434,403413,"0.0-4.140-2.140","00efg9c6oh3oz2r",147,"86.csv","","null","resources/images/fishbone.png","null","",NA,NA,NA,NA,""
"image-keyboard-response",435,403803,"0.0-4.141-0.141","00efg9c6oh3oz2r",147,"86.csv","","385","resources/trios/L1T4A2.jpg","38","restless",0.7,0.5,0.5,0.528409280214561,"false"
"image-keyboard-response",436,404208,"0.0-4.141-1.141","00efg9c6oh3oz2r",147,"86.csv","","null","resources/maskTrios/BT4B.jpg","null","",NA,NA,NA,NA,""
"image-keyboard-response",437,405413,"0.0-4.141-2.141","00efg9c6oh3oz2r",147,"86.csv","","null","resources/images/fishbone.png","null","",NA,NA,NA,NA,""
"image-keyboard-response",438,405759,"0.0-4.142-0.142","00efg9c6oh3oz2r",147,"86.csv","","342","resources/trios/L1T4A2.jpg","37","restless",0.7,0.5,0.5,0.22428148619102,"true"
"image-keyboard-response",439,406165,"0.0-4.142-1.142","00efg9c6oh3oz2r",147,"86.csv","","null","resources/maskTrios/L1BB.jpg","null","",NA,NA,NA,NA,""
"image-keyboard-response",440,407372,"0.0-4.142-2.142","00efg9c6oh3oz2r",147,"86.csv","","null","resources/images/coin2.png","null","",NA,NA,NA,NA,""
"image-keyboard-response",441,408164,"0.0-4.143-0.143","00efg9c6oh3oz2r",147,"86.csv","","786","resources/trios/L1T4A2.jpg","37","restless",0.7,0.5,0.5,0.561268617033531,"true"
"image-keyboard-response",442,408568,"0.0-4.143-1.143","00efg9c6oh3oz2r",147,"86.csv","","null","resources/maskTrios/L1BB.jpg","null","",NA,NA,NA,NA,""
"image-keyboard-response",443,409774,"0.0-4.143-2.143","00efg9c6oh3oz2r",147,"86.csv","","null","resources/images/coin2.png","null","",NA,NA,NA,NA,""
"image-keyboard-response",444,410192,"0.0-4.144-0.144","00efg9c6oh3oz2r",147,"86.csv","","412","resources/trios/L1T4A2.jpg","37","restless",0.7,0.5,0.5,0.556970671973155,"true"
"image-keyboard-response",445,410596,"0.0-4.144-1.144","00efg9c6oh3oz2r",147,"86.csv","","null","resources/maskTrios/L1BB.jpg","null","",NA,NA,NA,NA,""
"image-keyboard-response",446,411802,"0.0-4.144-2.144","00efg9c6oh3oz2r",147,"86.csv","","null","resources/images/coin2.png","null","",NA,NA,NA,NA,""
"image-keyboard-response",447,412127,"0.0-4.145-0.145","00efg9c6oh3oz2r",147,"86.csv","","321","resources/trios/L1T4A2.jpg","37","restless",0.7,0.5,0.5,0.996673107380109,"false"
"image-keyboard-response",448,412530,"0.0-4.145-1.145","00efg9c6oh3oz2r",147,"86.csv","","null","resources/maskTrios/L1BB.jpg","null","",NA,NA,NA,NA,""
"image-keyboard-response",449,413737,"0.0-4.145-2.145","00efg9c6oh3oz2r",147,"86.csv","","null","resources/images/fishbone.png","null","",NA,NA,NA,NA,""
"image-keyboard-response",450,414106,"0.0-4.146-0.146","00efg9c6oh3oz2r",147,"86.csv","","364","resources/trios/L1T4A2.jpg","39","restless",0.7,0.5,0.4,0.275762172489515,"true"
"image-keyboard-response",451,414511,"0.0-4.146-1.146","00efg9c6oh3oz2r",147,"86.csv","","null","resources/maskTrios/BBA2.jpg","null","",NA,NA,NA,NA,""
"image-keyboard-response",452,415717,"0.0-4.146-2.146","00efg9c6oh3oz2r",147,"86.csv","","null","resources/images/coin2.png","null","",NA,NA,NA,NA,""
"image-keyboard-response",453,416043,"0.0-4.147-0.147","00efg9c6oh3oz2r",147,"86.csv","","320","resources/trios/L1T4A2.jpg","39","restless",0.7,0.5,0.4,0.0722659688177923,"true"
"image-keyboard-response",454,416447,"0.0-4.147-1.147","00efg9c6oh3oz2r",147,"86.csv","","null","resources/maskTrios/BBA2.jpg","null","",NA,NA,NA,NA,""
"image-keyboard-response",455,417653,"0.0-4.147-2.147","00efg9c6oh3oz2r",147,"86.csv","","null","resources/images/coin2.png","null","",NA,NA,NA,NA,""
"image-keyboard-response",456,418000,"0.0-4.148-0.148","00efg9c6oh3oz2r",147,"86.csv","","342","resources/trios/L1T4A2.jpg","39","restless",0.7,0.5,0.4,0.39488834543303,"true"
"image-keyboard-response",457,418404,"0.0-4.148-1.148","00efg9c6oh3oz2r",147,"86.csv","","null","resources/maskTrios/BBA2.jpg","null","",NA,NA,NA,NA,""
"image-keyboard-response",458,419611,"0.0-4.148-2.148","00efg9c6oh3oz2r",147,"86.csv","","null","resources/images/coin2.png","null","",NA,NA,NA,NA,""
"image-keyboard-response",459,419981,"0.0-4.149-0.149","00efg9c6oh3oz2r",147,"86.csv","","365","resources/trios/L1T4A2.jpg","39","restless",0.7,0.6,0.4,0.424107083464479,"false"
"image-keyboard-response",460,420387,"0.0-4.149-1.149","00efg9c6oh3oz2r",147,"86.csv","","null","resources/maskTrios/BBA2.jpg","null","",NA,NA,NA,NA,""
"image-keyboard-response",461,421592,"0.0-4.149-2.149","00efg9c6oh3oz2r",147,"86.csv","","null","resources/images/fishbone.png","null","",NA,NA,NA,NA,""
"image-keyboard-response",462,421892,"0.0-4.150-0.150","00efg9c6oh3oz2r",147,"86.csv","","295","resources/trios/L1T4A2.jpg","38","restless",0.6,0.6,0.5,0.511105508783138,"true"
"image-keyboard-response",463,422298,"0.0-4.150-1.150","00efg9c6oh3oz2r",147,"86.csv","","null","resources/maskTrios/BT4B.jpg","null","",NA,NA,NA,NA,""
"image-keyboard-response",464,423504,"0.0-4.150-2.150","00efg9c6oh3oz2r",147,"86.csv","","null","resources/images/coin2.png","null","",NA,NA,NA,NA,""
"image-keyboard-response",465,423670,"0.0-4.151-0.151","00efg9c6oh3oz2r",147,"86.csv","","161","resources/trios/L1T4A2.jpg","38","restless",0.6,0.6,0.5,0.326030635486618,"true"
"image-keyboard-response",466,424074,"0.0-4.151-1.151","00efg9c6oh3oz2r",147,"86.csv","","null","resources/maskTrios/BT4B.jpg","null","",NA,NA,NA,NA,""
"image-keyboard-response",467,425281,"0.0-4.151-2.151","00efg9c6oh3oz2r",147,"86.csv","","null","resources/images/coin2.png","null","",NA,NA,NA,NA,""
"image-keyboard-response",468,425650,"0.0-4.152-0.152","00efg9c6oh3oz2r",147,"86.csv","","363","resources/trios/L1T4A2.jpg","38","restless",0.6,0.6,0.5,0.281859108171976,"true"
"image-keyboard-response",469,426055,"0.0-4.152-1.152","00efg9c6oh3oz2r",147,"86.csv","","null","resources/maskTrios/BT4B.jpg","null","",NA,NA,NA,NA,""
"image-keyboard-response",470,427262,"0.0-4.152-2.152","00efg9c6oh3oz2r",147,"86.csv","","null","resources/images/coin2.png","null","",NA,NA,NA,NA,""
"image-keyboard-response",471,427448,"0.0-4.153-0.153","00efg9c6oh3oz2r",147,"86.csv","","182","resources/trios/L1T4A2.jpg","38","restless",0.6,0.6,0.5,0.787231241542917,"false"
"image-keyboard-response",472,427853,"0.0-4.153-1.153","00efg9c6oh3oz2r",147,"86.csv","","null","resources/maskTrios/BT4B.jpg","null","",NA,NA,NA,NA,""
"image-keyboard-response",473,429058,"0.0-4.153-2.153","00efg9c6oh3oz2r",147,"86.csv","","null","resources/images/fishbone.png","null","",NA,NA,NA,NA,""
"image-keyboard-response",474,429369,"0.0-4.154-0.154","00efg9c6oh3oz2r",147,"86.csv","","305","resources/trios/L1T4A2.jpg","37","restless",0.5,0.6,0.5,0.551986237309748,"false"
"image-keyboard-response",475,429772,"0.0-4.154-1.154","00efg9c6oh3oz2r",147,"86.csv","","null","resources/maskTrios/L1BB.jpg","null","",NA,NA,NA,NA,""
"image-keyboard-response",476,430976,"0.0-4.154-2.154","00efg9c6oh3oz2r",147,"86.csv","","null","resources/images/fishbone.png","null","",NA,NA,NA,NA,""
"image-keyboard-response",477,431297,"0.0-4.155-0.155","00efg9c6oh3oz2r",147,"86.csv","","316","resources/trios/L1T4A2.jpg","39","restless",0.6,0.7,0.5,0.661859828397223,"false"
"image-keyboard-response",478,431700,"0.0-4.155-1.155","00efg9c6oh3oz2r",147,"86.csv","","null","resources/maskTrios/BBA2.jpg","null","",NA,NA,NA,NA,""
"image-keyboard-response",479,432905,"0.0-4.155-2.155","00efg9c6oh3oz2r",147,"86.csv","","null","resources/images/fishbone.png","null","",NA,NA,NA,NA,""
"image-keyboard-response",480,433366,"0.0-4.156-0.156","00efg9c6oh3oz2r",147,"86.csv","","458","resources/trios/L1T4A2.jpg","38","restless",0.6,0.7,0.5,0.54785625240151,"true"
"image-keyboard-response",481,433770,"0.0-4.156-1.156","00efg9c6oh3oz2r",147,"86.csv","","null","resources/maskTrios/BT4B.jpg","null","",NA,NA,NA,NA,""
"image-keyboard-response",482,434976,"0.0-4.156-2.156","00efg9c6oh3oz2r",147,"86.csv","","null","resources/images/coin2.png","null","",NA,NA,NA,NA,""
"image-keyboard-response",483,435257,"0.0-4.157-0.157","00efg9c6oh3oz2r",147,"86.csv","","275","resources/trios/L1T4A2.jpg","38","restless",0.6,0.7,0.5,0.450964090208938,"true"
"image-keyboard-response",484,435662,"0.0-4.157-1.157","00efg9c6oh3oz2r",147,"86.csv","","null","resources/maskTrios/BT4B.jpg","null","",NA,NA,NA,NA,""
"image-keyboard-response",485,436867,"0.0-4.157-2.157","00efg9c6oh3oz2r",147,"86.csv","","null","resources/images/coin2.png","null","",NA,NA,NA,NA,""
"image-keyboard-response",486,437193,"0.0-4.158-0.158","00efg9c6oh3oz2r",147,"86.csv","","322","resources/trios/L1T4A2.jpg","38","restless",0.6,0.7,0.5,0.159844180577494,"true"
"image-keyboard-response",487,437597,"0.0-4.158-1.158","00efg9c6oh3oz2r",147,"86.csv","","null","resources/maskTrios/BT4B.jpg","null","",NA,NA,NA,NA,""
"image-keyboard-response",488,438803,"0.0-4.158-2.158","00efg9c6oh3oz2r",147,"86.csv","","null","resources/images/coin2.png","null","",NA,NA,NA,NA,""
"image-keyboard-response",489,439105,"0.0-4.159-0.159","00efg9c6oh3oz2r",147,"86.csv","","297","resources/trios/L1T4A2.jpg","38","restless",0.6,0.7,0.5,0.817327953862622,"false"
"image-keyboard-response",490,439510,"0.0-4.159-1.159","00efg9c6oh3oz2r",147,"86.csv","","null","resources/maskTrios/BT4B.jpg","null","",NA,NA,NA,NA,""
"image-keyboard-response",491,440716,"0.0-4.159-2.159","00efg9c6oh3oz2r",147,"86.csv","","null","resources/images/fishbone.png","null","",NA,NA,NA,NA,""
"image-keyboard-response",492,441085,"0.0-4.160-0.160","00efg9c6oh3oz2r",147,"86.csv","","364","resources/trios/L1T4A2.jpg","37","restless",0.6,0.7,0.5,0.351633743711343,"true"
"image-keyboard-response",493,441488,"0.0-4.160-1.160","00efg9c6oh3oz2r",147,"86.csv","","null","resources/maskTrios/L1BB.jpg","null","",NA,NA,NA,NA,""
"image-keyboard-response",494,442693,"0.0-4.160-2.160","00efg9c6oh3oz2r",147,"86.csv","","null","resources/images/coin2.png","null","",NA,NA,NA,NA,""
"image-keyboard-response",495,443287,"0.0-4.161-0.161","00efg9c6oh3oz2r",147,"86.csv","","591","resources/trios/L1T4A2.jpg","37","restless",0.5,0.7,0.5,0.610457367620918,"false"
"image-keyboard-response",496,443690,"0.0-4.161-1.161","00efg9c6oh3oz2r",147,"86.csv","","null","resources/maskTrios/L1BB.jpg","null","",NA,NA,NA,NA,""
"image-keyboard-response",497,444896,"0.0-4.161-2.161","00efg9c6oh3oz2r",147,"86.csv","","null","resources/images/fishbone.png","null","",NA,NA,NA,NA,""
"image-keyboard-response",498,444927,"0.0-4.162-0.162","00efg9c6oh3oz2r",147,"86.csv","","26","resources/trios/L1T4A2.jpg","39","restless",0.5,0.7,0.5,0.0212567299080259,"true"
"image-keyboard-response",499,445331,"0.0-4.162-1.162","00efg9c6oh3oz2r",147,"86.csv","","null","resources/maskTrios/BBA2.jpg","null","",NA,NA,NA,NA,""
"image-keyboard-response",500,446538,"0.0-4.162-2.162","00efg9c6oh3oz2r",147,"86.csv","","null","resources/images/coin2.png","null","",NA,NA,NA,NA,""
"image-keyboard-response",501,446865,"0.0-4.163-0.163","00efg9c6oh3oz2r",147,"86.csv","","321","resources/trios/L1T4A2.jpg","39","restless",0.5,0.7,0.5,0.915445018698315,"false"
"image-keyboard-response",502,447268,"0.0-4.163-1.163","00efg9c6oh3oz2r",147,"86.csv","","null","resources/maskTrios/BBA2.jpg","null","",NA,NA,NA,NA,""
"image-keyboard-response",503,448473,"0.0-4.163-2.163","00efg9c6oh3oz2r",147,"86.csv","","null","resources/images/fishbone.png","null","",NA,NA,NA,NA,""
"image-keyboard-response",504,448689,"0.0-4.164-0.164","00efg9c6oh3oz2r",147,"86.csv","","210","resources/trios/L1T4A2.jpg","38","restless",0.5,0.7,0.6,0.788922139572713,"false"
"image-keyboard-response",505,449092,"0.0-4.164-1.164","00efg9c6oh3oz2r",147,"86.csv","","null","resources/maskTrios/BT4B.jpg","null","",NA,NA,NA,NA,""
"image-keyboard-response",506,450298,"0.0-4.164-2.164","00efg9c6oh3oz2r",147,"86.csv","","null","resources/images/fishbone.png","null","",NA,NA,NA,NA,""
"image-keyboard-response",507,450984,"0.0-4.165-0.165","00efg9c6oh3oz2r",147,"86.csv","","682","resources/trios/L1T4A2.jpg","37","restless",0.5,0.6,0.6,0.611986298913501,"false"
"image-keyboard-response",508,451391,"0.0-4.165-1.165","00efg9c6oh3oz2r",147,"86.csv","","null","resources/maskTrios/L1BB.jpg","null","",NA,NA,NA,NA,""
"image-keyboard-response",509,452598,"0.0-4.165-2.165","00efg9c6oh3oz2r",147,"86.csv","","null","resources/images/fishbone.png","null","",NA,NA,NA,NA,""
"image-keyboard-response",510,452606,"0.0-4.166-0.166","00efg9c6oh3oz2r",147,"86.csv","","5","resources/trios/L1T4A2.jpg","38","restless",0.5,0.6,0.6,0.104418302806033,"true"
"image-keyboard-response",511,453010,"0.0-4.166-1.166","00efg9c6oh3oz2r",147,"86.csv","","null","resources/maskTrios/BT4B.jpg","null","",NA,NA,NA,NA,""
"image-keyboard-response",512,454216,"0.0-4.166-2.166","00efg9c6oh3oz2r",147,"86.csv","","null","resources/images/coin2.png","null","",NA,NA,NA,NA,""
"image-keyboard-response",513,454675,"0.0-4.167-0.167","00efg9c6oh3oz2r",147,"86.csv","","452","resources/trios/L1T4A2.jpg","38","restless",0.5,0.6,0.6,0.521986424477202,"true"
"image-keyboard-response",514,455079,"0.0-4.167-1.167","00efg9c6oh3oz2r",147,"86.csv","","null","resources/maskTrios/BT4B.jpg","null","",NA,NA,NA,NA,""
"image-keyboard-response",515,456405,"0.0-4.167-2.167","00efg9c6oh3oz2r",147,"86.csv","","null","resources/images/coin2.png","null","",NA,NA,NA,NA,""
"image-keyboard-response",516,456947,"0.0-4.168-0.168","00efg9c6oh3oz2r",147,"86.csv","","537","resources/trios/L1T4A2.jpg","38","restless",0.5,0.6,0.6,0.172720737467978,"true"
"image-keyboard-response",517,457351,"0.0-4.168-1.168","00efg9c6oh3oz2r",147,"86.csv","","null","resources/maskTrios/BT4B.jpg","null","",NA,NA,NA,NA,""
"image-keyboard-response",518,458556,"0.0-4.168-2.168","00efg9c6oh3oz2r",147,"86.csv","","null","resources/images/coin2.png","null","",NA,NA,NA,NA,""
"image-keyboard-response",519,458994,"0.0-4.169-0.169","00efg9c6oh3oz2r",147,"86.csv","","432","resources/trios/L1T4A2.jpg","38","restless",0.4,0.6,0.6,0.47748659171155,"true"
"image-keyboard-response",520,459397,"0.0-4.169-1.169","00efg9c6oh3oz2r",147,"86.csv","","null","resources/maskTrios/BT4B.jpg","null","",NA,NA,NA,NA,""
"image-keyboard-response",521,460603,"0.0-4.169-2.169","00efg9c6oh3oz2r",147,"86.csv","","null","resources/images/coin2.png","null","",NA,NA,NA,NA,""
"image-keyboard-response",522,460906,"0.0-4.170-0.170","00efg9c6oh3oz2r",147,"86.csv","","299","resources/trios/L1T4A2.jpg","38","restless",0.4,0.6,0.6,0.464304547492311,"true"
"image-keyboard-response",523,461311,"0.0-4.170-1.170","00efg9c6oh3oz2r",147,"86.csv","","null","resources/maskTrios/BT4B.jpg","null","",NA,NA,NA,NA,""
"image-keyboard-response",524,462517,"0.0-4.170-2.170","00efg9c6oh3oz2r",147,"86.csv","","null","resources/images/coin2.png","null","",NA,NA,NA,NA,""
"image-keyboard-response",525,462865,"0.0-4.171-0.171","00efg9c6oh3oz2r",147,"86.csv","","343","resources/trios/L1T4A2.jpg","38","restless",0.4,0.6,0.6,0.972493354448769,"false"
"image-keyboard-response",526,463269,"0.0-4.171-1.171","00efg9c6oh3oz2r",147,"86.csv","","null","resources/maskTrios/BT4B.jpg","null","",NA,NA,NA,NA,""
"image-keyboard-response",527,464474,"0.0-4.171-2.171","00efg9c6oh3oz2r",147,"86.csv","","null","resources/images/fishbone.png","null","",NA,NA,NA,NA,""
"image-keyboard-response",528,464867,"0.0-4.172-0.172","00efg9c6oh3oz2r",147,"86.csv","","387","resources/trios/L1T4A2.jpg","39","restless",0.4,0.6,0.6,0.347347235762935,"true"
"image-keyboard-response",529,465272,"0.0-4.172-1.172","00efg9c6oh3oz2r",147,"86.csv","","null","resources/maskTrios/BBA2.jpg","null","",NA,NA,NA,NA,""
"image-keyboard-response",530,466478,"0.0-4.172-2.172","00efg9c6oh3oz2r",147,"86.csv","","null","resources/images/coin2.png","null","",NA,NA,NA,NA,""
"image-keyboard-response",531,466733,"0.0-4.173-0.173","00efg9c6oh3oz2r",147,"86.csv","","249","resources/trios/L1T4A2.jpg","39","restless",0.4,0.6,0.5,0.994941990635483,"false"
"image-keyboard-response",532,467138,"0.0-4.173-1.173","00efg9c6oh3oz2r",147,"86.csv","","null","resources/maskTrios/BBA2.jpg","null","",NA,NA,NA,NA,""
"image-keyboard-response",533,468344,"0.0-4.173-2.173","00efg9c6oh3oz2r",147,"86.csv","","null","resources/images/fishbone.png","null","",NA,NA,NA,NA,""
"image-keyboard-response",534,468398,"0.0-4.174-0.174","00efg9c6oh3oz2r",147,"86.csv","","50","resources/trios/L1T4A2.jpg","37","restless",0.4,0.6,0.5,0.0583146220118353,"true"
"image-keyboard-response",535,468803,"0.0-4.174-1.174","00efg9c6oh3oz2r",147,"86.csv","","null","resources/maskTrios/L1BB.jpg","null","",NA,NA,NA,NA,""
"image-keyboard-response",536,470009,"0.0-4.174-2.174","00efg9c6oh3oz2r",147,"86.csv","","null","resources/images/coin2.png","null","",NA,NA,NA,NA,""
"image-keyboard-response",537,470358,"0.0-4.175-0.175","00efg9c6oh3oz2r",147,"86.csv","","344","resources/trios/L1T4A2.jpg","37","restless",0.4,0.6,0.5,0.471600345291707,"false"
"image-keyboard-response",538,470762,"0.0-4.175-1.175","00efg9c6oh3oz2r",147,"86.csv","","null","resources/maskTrios/L1BB.jpg","null","",NA,NA,NA,NA,""
"image-keyboard-response",539,471969,"0.0-4.175-2.175","00efg9c6oh3oz2r",147,"86.csv","","null","resources/images/fishbone.png","null","",NA,NA,NA,NA,""
"image-keyboard-response",540,472225,"0.0-4.176-0.176","00efg9c6oh3oz2r",147,"86.csv","","251","resources/trios/L1T4A2.jpg","38","restless",0.4,0.6,0.5,0.264832309648462,"true"
"image-keyboard-response",541,472629,"0.0-4.176-1.176","00efg9c6oh3oz2r",147,"86.csv","","null","resources/maskTrios/BT4B.jpg","null","",NA,NA,NA,NA,""
"image-keyboard-response",542,473834,"0.0-4.176-2.176","00efg9c6oh3oz2r",147,"86.csv","","null","resources/images/coin2.png","null","",NA,NA,NA,NA,""
"image-keyboard-response",543,474182,"0.0-4.177-0.177","00efg9c6oh3oz2r",147,"86.csv","","342","resources/trios/L1T4A2.jpg","38","restless",0.4,0.6,0.5,0.768010305526004,"false"
"image-keyboard-response",544,474587,"0.0-4.177-1.177","00efg9c6oh3oz2r",147,"86.csv","","null","resources/maskTrios/BT4B.jpg","null","",NA,NA,NA,NA,""
"image-keyboard-response",545,475793,"0.0-4.177-2.177","00efg9c6oh3oz2r",147,"86.csv","","null","resources/images/fishbone.png","null","",NA,NA,NA,NA,""
"image-keyboard-response",546,476140,"0.0-4.178-0.178","00efg9c6oh3oz2r",147,"86.csv","","341","resources/trios/L1T4A2.jpg","39","restless",0.4,0.6,0.5,0.942243830271598,"false"
"image-keyboard-response",547,476544,"0.0-4.178-1.178","00efg9c6oh3oz2r",147,"86.csv","","null","resources/maskTrios/BBA2.jpg","null","",NA,NA,NA,NA,""
"image-keyboard-response",548,477750,"0.0-4.178-2.178","00efg9c6oh3oz2r",147,"86.csv","","null","resources/images/fishbone.png","null","",NA,NA,NA,NA,""
"image-keyboard-response",549,478076,"0.0-4.179-0.179","00efg9c6oh3oz2r",147,"86.csv","","321","resources/trios/L1T4A2.jpg","37","restless",0.4,0.6,0.6,0.355959205094881,"true"
"image-keyboard-response",550,478481,"0.0-4.179-1.179","00efg9c6oh3oz2r",147,"86.csv","","null","resources/maskTrios/L1BB.jpg","null","",NA,NA,NA,NA,""
"image-keyboard-response",551,479686,"0.0-4.179-2.179","00efg9c6oh3oz2r",147,"86.csv","","null","resources/images/coin2.png","null","",NA,NA,NA,NA,""
"image-keyboard-response",552,479988,"0.0-4.180-0.180","00efg9c6oh3oz2r",147,"86.csv","","297","resources/trios/L1T4A2.jpg","37","restless",0.4,0.6,0.6,0.155206701099603,"true"
"image-keyboard-response",553,480393,"0.0-4.180-1.180","00efg9c6oh3oz2r",147,"86.csv","","null","resources/maskTrios/L1BB.jpg","null","",NA,NA,NA,NA,""
"image-keyboard-response",554,481599,"0.0-4.180-2.180","00efg9c6oh3oz2r",147,"86.csv","","null","resources/images/coin2.png","null","",NA,NA,NA,NA,""
"image-keyboard-response",555,481946,"0.0-4.181-0.181","00efg9c6oh3oz2r",147,"86.csv","","340","resources/trios/L1T4A2.jpg","37","restless",0.4,0.6,0.6,0.565437136700925,"false"
"image-keyboard-response",556,482352,"0.0-4.181-1.181","00efg9c6oh3oz2r",147,"86.csv","","null","resources/maskTrios/L1BB.jpg","null","",NA,NA,NA,NA,""
"image-keyboard-response",557,483556,"0.0-4.181-2.181","00efg9c6oh3oz2r",147,"86.csv","","null","resources/images/fishbone.png","null","",NA,NA,NA,NA,""
"image-keyboard-response",558,484218,"0.0-4.182-0.182","00efg9c6oh3oz2r",147,"86.csv","","657","resources/trios/L1T4A2.jpg","38","restless",0.4,0.6,0.6,0.292985619729654,"true"
"image-keyboard-response",559,484623,"0.0-4.182-1.182","00efg9c6oh3oz2r",147,"86.csv","","null","resources/maskTrios/BT4B.jpg","null","",NA,NA,NA,NA,""
"image-keyboard-response",560,485830,"0.0-4.182-2.182","00efg9c6oh3oz2r",147,"86.csv","","null","resources/images/coin2.png","null","",NA,NA,NA,NA,""
"image-keyboard-response",561,486152,"0.0-4.183-0.183","00efg9c6oh3oz2r",147,"86.csv","","316","resources/trios/L1T4A2.jpg","38","restless",0.4,0.6,0.6,0.0381142334909603,"true"
"image-keyboard-response",562,486557,"0.0-4.183-1.183","00efg9c6oh3oz2r",147,"86.csv","","null","resources/maskTrios/BT4B.jpg","null","",NA,NA,NA,NA,""
"image-keyboard-response",563,487764,"0.0-4.183-2.183","00efg9c6oh3oz2r",147,"86.csv","","null","resources/images/coin2.png","null","",NA,NA,NA,NA,""
"image-keyboard-response",564,488065,"0.0-4.184-0.184","00efg9c6oh3oz2r",147,"86.csv","","294","resources/trios/L1T4A2.jpg","38","restless",0.4,0.6,0.6,0.851360283004953,"false"
"image-keyboard-response",565,488468,"0.0-4.184-1.184","00efg9c6oh3oz2r",147,"86.csv","","null","resources/maskTrios/BT4B.jpg","null","",NA,NA,NA,NA,""
"image-keyboard-response",566,489674,"0.0-4.184-2.184","00efg9c6oh3oz2r",147,"86.csv","","null","resources/images/fishbone.png","null","",NA,NA,NA,NA,""
"image-keyboard-response",567,489840,"0.0-4.185-0.185","00efg9c6oh3oz2r",147,"86.csv","","160","resources/trios/L1T4A2.jpg","39","restless",0.4,0.6,0.6,0.220509739454598,"true"
"image-keyboard-response",568,490244,"0.0-4.185-1.185","00efg9c6oh3oz2r",147,"86.csv","","null","resources/maskTrios/BBA2.jpg","null","",NA,NA,NA,NA,""
"image-keyboard-response",569,491451,"0.0-4.185-2.185","00efg9c6oh3oz2r",147,"86.csv","","null","resources/images/coin2.png","null","",NA,NA,NA,NA,""
"image-keyboard-response",570,491845,"0.0-4.186-0.186","00efg9c6oh3oz2r",147,"86.csv","","388","resources/trios/L1T4A2.jpg","39","restless",0.4,0.6,0.6,0.382533237633185,"true"
"image-keyboard-response",571,492248,"0.0-4.186-1.186","00efg9c6oh3oz2r",147,"86.csv","","null","resources/maskTrios/BBA2.jpg","null","",NA,NA,NA,NA,""
"image-keyboard-response",572,493454,"0.0-4.186-2.186","00efg9c6oh3oz2r",147,"86.csv","","null","resources/images/coin2.png","null","",NA,NA,NA,NA,""
"image-keyboard-response",573,493839,"0.0-4.187-0.187","00efg9c6oh3oz2r",147,"86.csv","","380","resources/trios/L1T4A2.jpg","39","restless",0.4,0.6,0.6,0.952053531824991,"false"
"image-keyboard-response",574,494244,"0.0-4.187-1.187","00efg9c6oh3oz2r",147,"86.csv","","null","resources/maskTrios/BBA2.jpg","null","",NA,NA,NA,NA,""
"image-keyboard-response",575,495450,"0.0-4.187-2.187","00efg9c6oh3oz2r",147,"86.csv","","null","resources/images/fishbone.png","null","",NA,NA,NA,NA,""
"image-keyboard-response",576,495917,"0.0-4.188-0.188","00efg9c6oh3oz2r",147,"86.csv","","462","resources/trios/L1T4A2.jpg","38","restless",0.4,0.6,0.6,0.764749385612096,"false"
"image-keyboard-response",577,496321,"0.0-4.188-1.188","00efg9c6oh3oz2r",147,"86.csv","","null","resources/maskTrios/BT4B.jpg","null","",NA,NA,NA,NA,""
"image-keyboard-response",578,497527,"0.0-4.188-2.188","00efg9c6oh3oz2r",147,"86.csv","","null","resources/images/fishbone.png","null","",NA,NA,NA,NA,""
"image-keyboard-response",579,497874,"0.0-4.189-0.189","00efg9c6oh3oz2r",147,"86.csv","","341","resources/trios/L1T4A2.jpg","37","restless",0.4,0.6,0.6,0.621328078055712,"false"
"image-keyboard-response",580,498279,"0.0-4.189-1.189","00efg9c6oh3oz2r",147,"86.csv","","null","resources/maskTrios/L1BB.jpg","null","",NA,NA,NA,NA,""
"image-keyboard-response",581,499481,"0.0-4.189-2.189","00efg9c6oh3oz2r",147,"86.csv","","null","resources/images/fishbone.png","null","",NA,NA,NA,NA,""
"image-keyboard-response",582,499922,"0.0-4.190-0.190","00efg9c6oh3oz2r",147,"86.csv","","436","resources/trios/L1T4A2.jpg","39","restless",0.4,0.6,0.6,0.526923701537813,"true"
"image-keyboard-response",583,500327,"0.0-4.190-1.190","00efg9c6oh3oz2r",147,"86.csv","","null","resources/maskTrios/BBA2.jpg","null","",NA,NA,NA,NA,""
"image-keyboard-response",584,501534,"0.0-4.190-2.190","00efg9c6oh3oz2r",147,"86.csv","","null","resources/images/coin2.png","null","",NA,NA,NA,NA,""
"image-keyboard-response",585,501565,"0.0-4.191-0.191","00efg9c6oh3oz2r",147,"86.csv","","26","resources/trios/L1T4A2.jpg","39","restless",0.4,0.6,0.6,0.297777687517187,"true"
"image-keyboard-response",586,501968,"0.0-4.191-1.191","00efg9c6oh3oz2r",147,"86.csv","","null","resources/maskTrios/BBA2.jpg","null","",NA,NA,NA,NA,""
"image-keyboard-response",587,503174,"0.0-4.191-2.191","00efg9c6oh3oz2r",147,"86.csv","","null","resources/images/coin2.png","null","",NA,NA,NA,NA,""
"image-keyboard-response",588,503523,"0.0-4.192-0.192","00efg9c6oh3oz2r",147,"86.csv","","341","resources/trios/L1T4A2.jpg","39","restless",0.4,0.7,0.6,0.541541204600384,"true"
"image-keyboard-response",589,503928,"0.0-4.192-1.192","00efg9c6oh3oz2r",147,"86.csv","","null","resources/maskTrios/BBA2.jpg","null","",NA,NA,NA,NA,""
"image-keyboard-response",590,505135,"0.0-4.192-2.192","00efg9c6oh3oz2r",147,"86.csv","","null","resources/images/coin2.png","null","",NA,NA,NA,NA,""
"image-keyboard-response",591,505413,"0.0-4.193-0.193","00efg9c6oh3oz2r",147,"86.csv","","271","resources/trios/L1T4A2.jpg","39","restless",0.4,0.7,0.5,0.0563848683779625,"true"
"image-keyboard-response",592,505817,"0.0-4.193-1.193","00efg9c6oh3oz2r",147,"86.csv","","null","resources/maskTrios/BBA2.jpg","null","",NA,NA,NA,NA,""
"image-keyboard-response",593,507025,"0.0-4.193-2.193","00efg9c6oh3oz2r",147,"86.csv","","null","resources/images/coin2.png","null","",NA,NA,NA,NA,""
"image-keyboard-response",594,507393,"0.0-4.194-0.194","00efg9c6oh3oz2r",147,"86.csv","","362","resources/trios/L1T4A2.jpg","39","restless",0.4,0.7,0.5,0.380317062927708,"true"
"image-keyboard-response",595,507796,"0.0-4.194-1.194","00efg9c6oh3oz2r",147,"86.csv","","null","resources/maskTrios/BBA2.jpg","null","",NA,NA,NA,NA,""
"image-keyboard-response",596,509003,"0.0-4.194-2.194","00efg9c6oh3oz2r",147,"86.csv","","null","resources/images/coin2.png","null","",NA,NA,NA,NA,""
"image-keyboard-response",597,509327,"0.0-4.195-0.195","00efg9c6oh3oz2r",147,"86.csv","","316","resources/trios/L1T4A2.jpg","39","restless",0.3,0.7,0.5,0.122763562789574,"true"
"image-keyboard-response",598,509731,"0.0-4.195-1.195","00efg9c6oh3oz2r",147,"86.csv","","null","resources/maskTrios/BBA2.jpg","null","",NA,NA,NA,NA,""
"image-keyboard-response",599,510938,"0.0-4.195-2.195","00efg9c6oh3oz2r",147,"86.csv","","null","resources/images/coin2.png","null","",NA,NA,NA,NA,""
"image-keyboard-response",600,526157,"0.0-4.196-0.196","00efg9c6oh3oz2r",147,"86.csv","","15212","resources/trios/L1T4A2.jpg","37","restless",0.3,0.7,0.4,0.085733881944822,"true"
"image-keyboard-response",601,526562,"0.0-4.196-1.196","00efg9c6oh3oz2r",147,"86.csv","","null","resources/maskTrios/L1BB.jpg","null","",NA,NA,NA,NA,""
"image-keyboard-response",602,527769,"0.0-4.196-2.196","00efg9c6oh3oz2r",147,"86.csv","","null","resources/images/coin2.png","null","",NA,NA,NA,NA,""
"image-keyboard-response",603,528564,"0.0-4.197-0.197","00efg9c6oh3oz2r",147,"86.csv","","789","resources/trios/L1T4A2.jpg","37","restless",0.3,0.7,0.4,0.0778707414349067,"true"
"image-keyboard-response",604,528967,"0.0-4.197-1.197","00efg9c6oh3oz2r",147,"86.csv","","null","resources/maskTrios/L1BB.jpg","null","",NA,NA,NA,NA,""
"image-keyboard-response",605,530194,"0.0-4.197-2.197","00efg9c6oh3oz2r",147,"86.csv","","null","resources/images/coin2.png","null","",NA,NA,NA,NA,""
"image-keyboard-response",606,530498,"0.0-4.198-0.198","00efg9c6oh3oz2r",147,"86.csv","","303","resources/trios/L1T4A2.jpg","37","restless",0.3,0.7,0.4,0.544329267473536,"false"
"image-keyboard-response",607,530900,"0.0-4.198-1.198","00efg9c6oh3oz2r",147,"86.csv","","null","resources/maskTrios/L1BB.jpg","null","",NA,NA,NA,NA,""
"image-keyboard-response",608,532105,"0.0-4.198-2.198","00efg9c6oh3oz2r",147,"86.csv","","null","resources/images/fishbone.png","null","",NA,NA,NA,NA,""
"image-keyboard-response",609,532480,"0.0-4.199-0.199","00efg9c6oh3oz2r",147,"86.csv","","371","resources/trios/L1T4A2.jpg","39","restless",0.3,0.7,0.5,0.363399581363554,"true"
"image-keyboard-response",610,532884,"0.0-4.199-1.199","00efg9c6oh3oz2r",147,"86.csv","","null","resources/maskTrios/BBA2.jpg","null","",NA,NA,NA,NA,""
"image-keyboard-response",611,534091,"0.0-4.199-2.199","00efg9c6oh3oz2r",147,"86.csv","","null","resources/images/coin2.png","null","",NA,NA,NA,NA,""
"survey-text",612,572110,"0.0-5.0","00efg9c6oh3oz2r",147,"86.csv","","37973","","","",NA,NA,NA,NA,""
