"trial_type","trial_index","time_elapsed","internal_node_id","subject","participantCode","walkNumber","success","rt","stimulus","key_press","test_part","leftProb","midProb","rightProb","generatedNum","correct"
"pavlovia",0,653,"0.0-0.0","drf5h4qc3fzzgem",263,"104.csv","","","","","",NA,NA,NA,NA,""
"fullscreen",1,4361,"0.0-1.0","drf5h4qc3fzzgem",263,"104.csv","true","","","","",NA,NA,NA,NA,""
"survey-html-form",2,14093,"0.0-2.0","drf5h4qc3fzzgem",263,"104.csv","","9730.999999999996","","","",NA,NA,NA,NA,""
"image-keyboard-response",3,22563,"0.0-3.0-0.0","drf5h4qc3fzzgem",263,"104.csv","","8470.000000000004","resources/images/parrot_nobg.png","13","",NA,NA,NA,NA,""
"image-keyboard-response",4,25565,"0.0-3.0-1.0","drf5h4qc3fzzgem",263,"104.csv","","null","resources/image_sets/111.png","null","",NA,NA,NA,NA,""
"image-keyboard-response",5,30016,"0.0-3.0-2.0","drf5h4qc3fzzgem",263,"104.csv","","4450","resources/image_sets/left_highlight.png","37","",NA,NA,NA,NA,""
"image-keyboard-response",6,31364,"0.0-3.0-3.0","drf5h4qc3fzzgem",263,"104.csv","","1347","resources/image_sets/mid_highlight.png","38","",NA,NA,NA,NA,""
"image-keyboard-response",7,32636,"0.0-3.0-4.0","drf5h4qc3fzzgem",263,"104.csv","","1270","resources/image_sets/right_highlight.png","39","",NA,NA,NA,NA,""
"image-keyboard-response",8,33982,"0.0-3.0-5.0","drf5h4qc3fzzgem",263,"104.csv","","1346","resources/image_sets/111.png","13","",NA,NA,NA,NA,""
"image-keyboard-response",9,37486,"0.0-3.0-6.0","drf5h4qc3fzzgem",263,"104.csv","","3503","resources/images/coin2.png","13","",NA,NA,NA,NA,""
"image-keyboard-response",10,40033,"0.0-3.0-7.0","drf5h4qc3fzzgem",263,"104.csv","","2546","resources/images/fishbone.png","13","",NA,NA,NA,NA,""
"html-keyboard-response",11,45065,"0.0-3.0-8.0","drf5h4qc3fzzgem",263,"104.csv","","5031","<p>You can track your coin total on the top right of your screen. </p><p>At the end of your journey you will be directed to a survey, so please click on the link before exiting the task</p><p>Press Enter to begin</p>","13","",NA,NA,NA,NA,""
"image-keyboard-response",12,47347,"0.0-4.0-0.0","drf5h4qc3fzzgem",263,"104.csv","","2281","resources/trios/L1T4A3.jpg","38","restless",0.9,0.7,0.3,0.406683919333105,"true"
"image-keyboard-response",13,47750,"0.0-4.0-1.0","drf5h4qc3fzzgem",263,"104.csv","","null","resources/maskTrios/BT4B.jpg","null","",NA,NA,NA,NA,""
"image-keyboard-response",14,48951,"0.0-4.0-2.0","drf5h4qc3fzzgem",263,"104.csv","","null","resources/images/coin2.png","null","",NA,NA,NA,NA,""
"image-keyboard-response",15,51184,"0.0-4.1-0.1","drf5h4qc3fzzgem",263,"104.csv","","2231","resources/trios/L1T4A3.jpg","38","restless",0.9,0.7,0.3,0.520689832045508,"true"
"image-keyboard-response",16,51585,"0.0-4.1-1.1","drf5h4qc3fzzgem",263,"104.csv","","null","resources/maskTrios/BT4B.jpg","null","",NA,NA,NA,NA,""
"image-keyboard-response",17,52787,"0.0-4.1-2.1","drf5h4qc3fzzgem",263,"104.csv","","null","resources/images/coin2.png","null","",NA,NA,NA,NA,""
"image-keyboard-response",18,53466,"0.0-4.2-0.2","drf5h4qc3fzzgem",263,"104.csv","","677.0000000000073","resources/trios/L1T4A3.jpg","38","restless",0.9,0.6,0.3,0.591012245402431,"true"
"image-keyboard-response",19,53867,"0.0-4.2-1.2","drf5h4qc3fzzgem",263,"104.csv","","null","resources/maskTrios/BT4B.jpg","null","",NA,NA,NA,NA,""
"image-keyboard-response",20,55068,"0.0-4.2-2.2","drf5h4qc3fzzgem",263,"104.csv","","null","resources/images/coin2.png","null","",NA,NA,NA,NA,""
"image-keyboard-response",21,55641,"0.0-4.3-0.3","drf5h4qc3fzzgem",263,"104.csv","","570.9999999999927","resources/trios/L1T4A3.jpg","38","restless",0.8,0.6,0.4,0.129735613263736,"true"
"image-keyboard-response",22,56043,"0.0-4.3-1.3","drf5h4qc3fzzgem",263,"104.csv","","null","resources/maskTrios/BT4B.jpg","null","",NA,NA,NA,NA,""
"image-keyboard-response",23,57244,"0.0-4.3-2.3","drf5h4qc3fzzgem",263,"104.csv","","null","resources/images/coin2.png","null","",NA,NA,NA,NA,""
"image-keyboard-response",24,57552,"0.0-4.4-0.4","drf5h4qc3fzzgem",263,"104.csv","","306","resources/trios/L1T4A3.jpg","38","restless",0.8,0.6,0.4,0.302001348615211,"true"
"image-keyboard-response",25,57954,"0.0-4.4-1.4","drf5h4qc3fzzgem",263,"104.csv","","null","resources/maskTrios/BT4B.jpg","null","",NA,NA,NA,NA,""
"image-keyboard-response",26,59156,"0.0-4.4-2.4","drf5h4qc3fzzgem",263,"104.csv","","null","resources/images/coin2.png","null","",NA,NA,NA,NA,""
"image-keyboard-response",27,59525,"0.0-4.5-0.5","drf5h4qc3fzzgem",263,"104.csv","","368","resources/trios/L1T4A3.jpg","38","restless",0.8,0.6,0.4,0.438273800105146,"true"
"image-keyboard-response",28,59927,"0.0-4.5-1.5","drf5h4qc3fzzgem",263,"104.csv","","null","resources/maskTrios/BT4B.jpg","null","",NA,NA,NA,NA,""
"image-keyboard-response",29,61128,"0.0-4.5-2.5","drf5h4qc3fzzgem",263,"104.csv","","null","resources/images/coin2.png","null","",NA,NA,NA,NA,""
"image-keyboard-response",30,61456,"0.0-4.6-0.6","drf5h4qc3fzzgem",263,"104.csv","","326","resources/trios/L1T4A3.jpg","38","restless",0.8,0.6,0.4,0.149550499042273,"true"
"image-keyboard-response",31,61858,"0.0-4.6-1.6","drf5h4qc3fzzgem",263,"104.csv","","null","resources/maskTrios/BT4B.jpg","null","",NA,NA,NA,NA,""
"image-keyboard-response",32,63059,"0.0-4.6-2.6","drf5h4qc3fzzgem",263,"104.csv","","null","resources/images/coin2.png","null","",NA,NA,NA,NA,""
"image-keyboard-response",33,63379,"0.0-4.7-0.7","drf5h4qc3fzzgem",263,"104.csv","","318.0000000000218","resources/trios/L1T4A3.jpg","38","restless",0.8,0.6,0.4,0.94132786986533,"false"
"image-keyboard-response",34,63781,"0.0-4.7-1.7","drf5h4qc3fzzgem",263,"104.csv","","null","resources/maskTrios/BT4B.jpg","null","",NA,NA,NA,NA,""
"image-keyboard-response",35,64982,"0.0-4.7-2.7","drf5h4qc3fzzgem",263,"104.csv","","null","resources/images/fishbone.png","null","",NA,NA,NA,NA,""
"image-keyboard-response",36,65878,"0.0-4.8-0.8","drf5h4qc3fzzgem",263,"104.csv","","894","resources/trios/L1T4A3.jpg","38","restless",0.8,0.6,0.4,0.664275128729148,"false"
"image-keyboard-response",37,66279,"0.0-4.8-1.8","drf5h4qc3fzzgem",263,"104.csv","","null","resources/maskTrios/BT4B.jpg","null","",NA,NA,NA,NA,""
"image-keyboard-response",38,67481,"0.0-4.8-2.8","drf5h4qc3fzzgem",263,"104.csv","","null","resources/images/fishbone.png","null","",NA,NA,NA,NA,""
"image-keyboard-response",39,67885,"0.0-4.9-0.9","drf5h4qc3fzzgem",263,"104.csv","","404","resources/trios/L1T4A3.jpg","37","restless",0.8,0.6,0.4,0.681573638127759,"true"
"image-keyboard-response",40,68286,"0.0-4.9-1.9","drf5h4qc3fzzgem",263,"104.csv","","null","resources/maskTrios/L1BB.jpg","null","",NA,NA,NA,NA,""
"image-keyboard-response",41,69488,"0.0-4.9-2.9","drf5h4qc3fzzgem",263,"104.csv","","null","resources/images/coin2.png","null","",NA,NA,NA,NA,""
"image-keyboard-response",42,69910,"0.0-4.10-0.10","drf5h4qc3fzzgem",263,"104.csv","","421.99999999998545","resources/trios/L1T4A3.jpg","37","restless",0.8,0.6,0.4,0.951912857183825,"false"
"image-keyboard-response",43,70313,"0.0-4.10-1.10","drf5h4qc3fzzgem",263,"104.csv","","null","resources/maskTrios/L1BB.jpg","null","",NA,NA,NA,NA,""
"image-keyboard-response",44,71514,"0.0-4.10-2.10","drf5h4qc3fzzgem",263,"104.csv","","null","resources/images/fishbone.png","null","",NA,NA,NA,NA,""
"image-keyboard-response",45,71851,"0.0-4.11-0.11","drf5h4qc3fzzgem",263,"104.csv","","336","resources/trios/L1T4A3.jpg","38","restless",0.8,0.6,0.4,0.00586873689511092,"true"
"image-keyboard-response",46,72253,"0.0-4.11-1.11","drf5h4qc3fzzgem",263,"104.csv","","null","resources/maskTrios/BT4B.jpg","null","",NA,NA,NA,NA,""
"image-keyboard-response",47,73455,"0.0-4.11-2.11","drf5h4qc3fzzgem",263,"104.csv","","null","resources/images/coin2.png","null","",NA,NA,NA,NA,""
"image-keyboard-response",48,73974,"0.0-4.12-0.12","drf5h4qc3fzzgem",263,"104.csv","","518","resources/trios/L1T4A3.jpg","39","restless",0.8,0.7,0.4,0.338473939130376,"true"
"image-keyboard-response",49,74376,"0.0-4.12-1.12","drf5h4qc3fzzgem",263,"104.csv","","null","resources/maskTrios/BBA3.jpg","null","",NA,NA,NA,NA,""
"image-keyboard-response",50,75578,"0.0-4.12-2.12","drf5h4qc3fzzgem",263,"104.csv","","null","resources/images/coin2.png","null","",NA,NA,NA,NA,""
"image-keyboard-response",51,75997,"0.0-4.13-0.13","drf5h4qc3fzzgem",263,"104.csv","","418.00000000001455","resources/trios/L1T4A3.jpg","38","restless",0.8,0.7,0.4,0.0525028359875033,"true"
"image-keyboard-response",52,76399,"0.0-4.13-1.13","drf5h4qc3fzzgem",263,"104.csv","","null","resources/maskTrios/BT4B.jpg","null","",NA,NA,NA,NA,""
"image-keyboard-response",53,77601,"0.0-4.13-2.13","drf5h4qc3fzzgem",263,"104.csv","","null","resources/images/coin2.png","null","",NA,NA,NA,NA,""
"image-keyboard-response",54,77937,"0.0-4.14-0.14","drf5h4qc3fzzgem",263,"104.csv","","335","resources/trios/L1T4A3.jpg","39","restless",0.8,0.7,0.4,0.711885019765577,"false"
"image-keyboard-response",55,78339,"0.0-4.14-1.14","drf5h4qc3fzzgem",263,"104.csv","","null","resources/maskTrios/BBA3.jpg","null","",NA,NA,NA,NA,""
"image-keyboard-response",56,79541,"0.0-4.14-2.14","drf5h4qc3fzzgem",263,"104.csv","","null","resources/images/fishbone.png","null","",NA,NA,NA,NA,""
"image-keyboard-response",57,79888,"0.0-4.15-0.15","drf5h4qc3fzzgem",263,"104.csv","","346","resources/trios/L1T4A3.jpg","38","restless",0.8,0.7,0.4,0.802040499726156,"false"
"image-keyboard-response",58,80289,"0.0-4.15-1.15","drf5h4qc3fzzgem",263,"104.csv","","null","resources/maskTrios/BT4B.jpg","null","",NA,NA,NA,NA,""
"image-keyboard-response",59,81491,"0.0-4.15-2.15","drf5h4qc3fzzgem",263,"104.csv","","null","resources/images/fishbone.png","null","",NA,NA,NA,NA,""
"image-keyboard-response",60,81899,"0.0-4.16-0.16","drf5h4qc3fzzgem",263,"104.csv","","407","resources/trios/L1T4A3.jpg","37","restless",0.8,0.7,0.4,0.291516391737135,"true"
"image-keyboard-response",61,82301,"0.0-4.16-1.16","drf5h4qc3fzzgem",263,"104.csv","","null","resources/maskTrios/L1BB.jpg","null","",NA,NA,NA,NA,""
"image-keyboard-response",62,83503,"0.0-4.16-2.16","drf5h4qc3fzzgem",263,"104.csv","","null","resources/images/coin2.png","null","",NA,NA,NA,NA,""
"image-keyboard-response",63,83739,"0.0-4.17-0.17","drf5h4qc3fzzgem",263,"104.csv","","235","resources/trios/L1T4A3.jpg","38","restless",0.8,0.7,0.4,0.412261465582242,"true"
"image-keyboard-response",64,84141,"0.0-4.17-1.17","drf5h4qc3fzzgem",263,"104.csv","","null","resources/maskTrios/BT4B.jpg","null","",NA,NA,NA,NA,""
"image-keyboard-response",65,85342,"0.0-4.17-2.17","drf5h4qc3fzzgem",263,"104.csv","","null","resources/images/coin2.png","null","",NA,NA,NA,NA,""
"image-keyboard-response",66,85680,"0.0-4.18-0.18","drf5h4qc3fzzgem",263,"104.csv","","337","resources/trios/L1T4A3.jpg","39","restless",0.8,0.7,0.4,0.389029903699173,"true"
"image-keyboard-response",67,86082,"0.0-4.18-1.18","drf5h4qc3fzzgem",263,"104.csv","","null","resources/maskTrios/BBA3.jpg","null","",NA,NA,NA,NA,""
"image-keyboard-response",68,87284,"0.0-4.18-2.18","drf5h4qc3fzzgem",263,"104.csv","","null","resources/images/coin2.png","null","",NA,NA,NA,NA,""
"image-keyboard-response",69,87567,"0.0-4.19-0.19","drf5h4qc3fzzgem",263,"104.csv","","282","resources/trios/L1T4A3.jpg","37","restless",0.8,0.7,0.4,0.775187551650048,"true"
"image-keyboard-response",70,87969,"0.0-4.19-1.19","drf5h4qc3fzzgem",263,"104.csv","","null","resources/maskTrios/L1BB.jpg","null","",NA,NA,NA,NA,""
"image-keyboard-response",71,89171,"0.0-4.19-2.19","drf5h4qc3fzzgem",263,"104.csv","","null","resources/images/coin2.png","null","",NA,NA,NA,NA,""
"image-keyboard-response",72,89456,"0.0-4.20-0.20","drf5h4qc3fzzgem",263,"104.csv","","284","resources/trios/L1T4A3.jpg","38","restless",0.8,0.6,0.4,0.0191742348163212,"true"
"image-keyboard-response",73,89857,"0.0-4.20-1.20","drf5h4qc3fzzgem",263,"104.csv","","null","resources/maskTrios/BT4B.jpg","null","",NA,NA,NA,NA,""
"image-keyboard-response",74,91059,"0.0-4.20-2.20","drf5h4qc3fzzgem",263,"104.csv","","null","resources/images/coin2.png","null","",NA,NA,NA,NA,""
"image-keyboard-response",75,91381,"0.0-4.21-0.21","drf5h4qc3fzzgem",263,"104.csv","","321.00000000001455","resources/trios/L1T4A3.jpg","39","restless",0.8,0.6,0.4,0.639055813437254,"false"
"image-keyboard-response",76,91782,"0.0-4.21-1.21","drf5h4qc3fzzgem",263,"104.csv","","null","resources/maskTrios/BBA3.jpg","null","",NA,NA,NA,NA,""
"image-keyboard-response",77,92984,"0.0-4.21-2.21","drf5h4qc3fzzgem",263,"104.csv","","null","resources/images/fishbone.png","null","",NA,NA,NA,NA,""
"image-keyboard-response",78,93292,"0.0-4.22-0.22","drf5h4qc3fzzgem",263,"104.csv","","306.99999999998545","resources/trios/L1T4A3.jpg","37","restless",0.8,0.6,0.4,0.669464658713924,"true"
"image-keyboard-response",79,93693,"0.0-4.22-1.22","drf5h4qc3fzzgem",263,"104.csv","","null","resources/maskTrios/L1BB.jpg","null","",NA,NA,NA,NA,""
"image-keyboard-response",80,94895,"0.0-4.22-2.22","drf5h4qc3fzzgem",263,"104.csv","","null","resources/images/coin2.png","null","",NA,NA,NA,NA,""
"image-keyboard-response",81,95195,"0.0-4.23-0.23","drf5h4qc3fzzgem",263,"104.csv","","298.99999999998545","resources/trios/L1T4A3.jpg","38","restless",0.8,0.6,0.4,0.639862870212554,"false"
"image-keyboard-response",82,95597,"0.0-4.23-1.23","drf5h4qc3fzzgem",263,"104.csv","","null","resources/maskTrios/BT4B.jpg","null","",NA,NA,NA,NA,""
"image-keyboard-response",83,96798,"0.0-4.23-2.23","drf5h4qc3fzzgem",263,"104.csv","","null","resources/images/fishbone.png","null","",NA,NA,NA,NA,""
"image-keyboard-response",84,97069,"0.0-4.24-0.24","drf5h4qc3fzzgem",263,"104.csv","","269","resources/trios/L1T4A3.jpg","39","restless",0.8,0.5,0.4,0.362797750200619,"true"
"image-keyboard-response",85,97470,"0.0-4.24-1.24","drf5h4qc3fzzgem",263,"104.csv","","null","resources/maskTrios/BBA3.jpg","null","",NA,NA,NA,NA,""
"image-keyboard-response",86,98672,"0.0-4.24-2.24","drf5h4qc3fzzgem",263,"104.csv","","null","resources/images/coin2.png","null","",NA,NA,NA,NA,""
"image-keyboard-response",87,99154,"0.0-4.25-0.25","drf5h4qc3fzzgem",263,"104.csv","","482","resources/trios/L1T4A3.jpg","37","restless",0.8,0.5,0.4,0.461733196432499,"true"
"image-keyboard-response",88,99556,"0.0-4.25-1.25","drf5h4qc3fzzgem",263,"104.csv","","null","resources/maskTrios/L1BB.jpg","null","",NA,NA,NA,NA,""
"image-keyboard-response",89,100758,"0.0-4.25-2.25","drf5h4qc3fzzgem",263,"104.csv","","null","resources/images/coin2.png","null","",NA,NA,NA,NA,""
"image-keyboard-response",90,101052,"0.0-4.26-0.26","drf5h4qc3fzzgem",263,"104.csv","","292.99999999998545","resources/trios/L1T4A3.jpg","38","restless",0.7,0.5,0.5,0.595597374476318,"false"
"image-keyboard-response",91,101454,"0.0-4.26-1.26","drf5h4qc3fzzgem",263,"104.csv","","null","resources/maskTrios/BT4B.jpg","null","",NA,NA,NA,NA,""
"image-keyboard-response",92,102656,"0.0-4.26-2.26","drf5h4qc3fzzgem",263,"104.csv","","null","resources/images/fishbone.png","null","",NA,NA,NA,NA,""
"image-keyboard-response",93,102818,"0.0-4.27-0.27","drf5h4qc3fzzgem",263,"104.csv","","162","resources/trios/L1T4A3.jpg","39","restless",0.7,0.5,0.5,0.576882146486748,"false"
"image-keyboard-response",94,103219,"0.0-4.27-1.27","drf5h4qc3fzzgem",263,"104.csv","","null","resources/maskTrios/BBA3.jpg","null","",NA,NA,NA,NA,""
"image-keyboard-response",95,104421,"0.0-4.27-2.27","drf5h4qc3fzzgem",263,"104.csv","","null","resources/images/fishbone.png","null","",NA,NA,NA,NA,""
"image-keyboard-response",96,104736,"0.0-4.28-0.28","drf5h4qc3fzzgem",263,"104.csv","","315","resources/trios/L1T4A3.jpg","37","restless",0.7,0.5,0.5,0.359456250680012,"true"
"image-keyboard-response",97,105138,"0.0-4.28-1.28","drf5h4qc3fzzgem",263,"104.csv","","null","resources/maskTrios/L1BB.jpg","null","",NA,NA,NA,NA,""
"image-keyboard-response",98,106340,"0.0-4.28-2.28","drf5h4qc3fzzgem",263,"104.csv","","null","resources/images/coin2.png","null","",NA,NA,NA,NA,""
"image-keyboard-response",99,106675,"0.0-4.29-0.29","drf5h4qc3fzzgem",263,"104.csv","","334","resources/trios/L1T4A3.jpg","37","restless",0.7,0.5,0.5,0.0419238956775462,"true"
"image-keyboard-response",100,107077,"0.0-4.29-1.29","drf5h4qc3fzzgem",263,"104.csv","","null","resources/maskTrios/L1BB.jpg","null","",NA,NA,NA,NA,""
"image-keyboard-response",101,108279,"0.0-4.29-2.29","drf5h4qc3fzzgem",263,"104.csv","","null","resources/images/coin2.png","null","",NA,NA,NA,NA,""
"image-keyboard-response",102,108627,"0.0-4.30-0.30","drf5h4qc3fzzgem",263,"104.csv","","347.00000000001455","resources/trios/L1T4A3.jpg","37","restless",0.7,0.5,0.5,0.0554452838294024,"true"
"image-keyboard-response",103,109029,"0.0-4.30-1.30","drf5h4qc3fzzgem",263,"104.csv","","null","resources/maskTrios/L1BB.jpg","null","",NA,NA,NA,NA,""
"image-keyboard-response",104,110231,"0.0-4.30-2.30","drf5h4qc3fzzgem",263,"104.csv","","null","resources/images/coin2.png","null","",NA,NA,NA,NA,""
"image-keyboard-response",105,110575,"0.0-4.31-0.31","drf5h4qc3fzzgem",263,"104.csv","","343","resources/trios/L1T4A3.jpg","37","restless",0.6,0.5,0.5,0.197256770033033,"true"
"image-keyboard-response",106,110976,"0.0-4.31-1.31","drf5h4qc3fzzgem",263,"104.csv","","null","resources/maskTrios/L1BB.jpg","null","",NA,NA,NA,NA,""
"image-keyboard-response",107,112178,"0.0-4.31-2.31","drf5h4qc3fzzgem",263,"104.csv","","null","resources/images/coin2.png","null","",NA,NA,NA,NA,""
"image-keyboard-response",108,112481,"0.0-4.32-0.32","drf5h4qc3fzzgem",263,"104.csv","","302.00000000001455","resources/trios/L1T4A3.jpg","37","restless",0.6,0.5,0.4,0.000293567465010081,"true"
"image-keyboard-response",109,112883,"0.0-4.32-1.32","drf5h4qc3fzzgem",263,"104.csv","","null","resources/maskTrios/L1BB.jpg","null","",NA,NA,NA,NA,""
"image-keyboard-response",110,114085,"0.0-4.32-2.32","drf5h4qc3fzzgem",263,"104.csv","","null","resources/images/coin2.png","null","",NA,NA,NA,NA,""
"image-keyboard-response",111,114188,"0.0-4.33-0.33","drf5h4qc3fzzgem",263,"104.csv","","103","resources/trios/L1T4A3.jpg","38","restless",0.6,0.5,0.4,0.162191172197968,"true"
"image-keyboard-response",112,114590,"0.0-4.33-1.33","drf5h4qc3fzzgem",263,"104.csv","","null","resources/maskTrios/BT4B.jpg","null","",NA,NA,NA,NA,""
"image-keyboard-response",113,115791,"0.0-4.33-2.33","drf5h4qc3fzzgem",263,"104.csv","","null","resources/images/coin2.png","null","",NA,NA,NA,NA,""
"image-keyboard-response",114,116069,"0.0-4.34-0.34","drf5h4qc3fzzgem",263,"104.csv","","277","resources/trios/L1T4A3.jpg","37","restless",0.5,0.5,0.4,0.544103086707632,"false"
"image-keyboard-response",115,116471,"0.0-4.34-1.34","drf5h4qc3fzzgem",263,"104.csv","","null","resources/maskTrios/L1BB.jpg","null","",NA,NA,NA,NA,""
"image-keyboard-response",116,117672,"0.0-4.34-2.34","drf5h4qc3fzzgem",263,"104.csv","","null","resources/images/fishbone.png","null","",NA,NA,NA,NA,""
"image-keyboard-response",117,118003,"0.0-4.35-0.35","drf5h4qc3fzzgem",263,"104.csv","","330","resources/trios/L1T4A3.jpg","38","restless",0.5,0.5,0.4,0.994562542440074,"false"
"image-keyboard-response",118,118405,"0.0-4.35-1.35","drf5h4qc3fzzgem",263,"104.csv","","null","resources/maskTrios/BT4B.jpg","null","",NA,NA,NA,NA,""
"image-keyboard-response",119,119607,"0.0-4.35-2.35","drf5h4qc3fzzgem",263,"104.csv","","null","resources/images/fishbone.png","null","",NA,NA,NA,NA,""
"image-keyboard-response",120,119817,"0.0-4.36-0.36","drf5h4qc3fzzgem",263,"104.csv","","210","resources/trios/L1T4A3.jpg","39","restless",0.5,0.5,0.4,0.792850438038146,"false"
"image-keyboard-response",121,120218,"0.0-4.36-1.36","drf5h4qc3fzzgem",263,"104.csv","","null","resources/maskTrios/BBA3.jpg","null","",NA,NA,NA,NA,""
"image-keyboard-response",122,121420,"0.0-4.36-2.36","drf5h4qc3fzzgem",263,"104.csv","","null","resources/images/fishbone.png","null","",NA,NA,NA,NA,""
"image-keyboard-response",123,121696,"0.0-4.37-0.37","drf5h4qc3fzzgem",263,"104.csv","","275","resources/trios/L1T4A3.jpg","38","restless",0.5,0.5,0.4,0.0606979873029545,"true"
"image-keyboard-response",124,122098,"0.0-4.37-1.37","drf5h4qc3fzzgem",263,"104.csv","","null","resources/maskTrios/BT4B.jpg","null","",NA,NA,NA,NA,""
"image-keyboard-response",125,123299,"0.0-4.37-2.37","drf5h4qc3fzzgem",263,"104.csv","","null","resources/images/coin2.png","null","",NA,NA,NA,NA,""
"image-keyboard-response",126,123579,"0.0-4.38-0.38","drf5h4qc3fzzgem",263,"104.csv","","279","resources/trios/L1T4A3.jpg","38","restless",0.5,0.5,0.4,0.256765288911695,"true"
"image-keyboard-response",127,123981,"0.0-4.38-1.38","drf5h4qc3fzzgem",263,"104.csv","","null","resources/maskTrios/BT4B.jpg","null","",NA,NA,NA,NA,""
"image-keyboard-response",128,125182,"0.0-4.38-2.38","drf5h4qc3fzzgem",263,"104.csv","","null","resources/images/coin2.png","null","",NA,NA,NA,NA,""
"image-keyboard-response",129,125493,"0.0-4.39-0.39","drf5h4qc3fzzgem",263,"104.csv","","310.00000000001455","resources/trios/L1T4A3.jpg","38","restless",0.5,0.5,0.4,0.166498957977078,"true"
"image-keyboard-response",130,125894,"0.0-4.39-1.39","drf5h4qc3fzzgem",263,"104.csv","","null","resources/maskTrios/BT4B.jpg","null","",NA,NA,NA,NA,""
"image-keyboard-response",131,127096,"0.0-4.39-2.39","drf5h4qc3fzzgem",263,"104.csv","","null","resources/images/coin2.png","null","",NA,NA,NA,NA,""
"image-keyboard-response",132,127383,"0.0-4.40-0.40","drf5h4qc3fzzgem",263,"104.csv","","286","resources/trios/L1T4A3.jpg","38","restless",0.5,0.5,0.4,0.388515982888087,"true"
"image-keyboard-response",133,127785,"0.0-4.40-1.40","drf5h4qc3fzzgem",263,"104.csv","","null","resources/maskTrios/BT4B.jpg","null","",NA,NA,NA,NA,""
"image-keyboard-response",134,128986,"0.0-4.40-2.40","drf5h4qc3fzzgem",263,"104.csv","","null","resources/images/coin2.png","null","",NA,NA,NA,NA,""
"image-keyboard-response",135,129138,"0.0-4.41-0.41","drf5h4qc3fzzgem",263,"104.csv","","152","resources/trios/L1T4A3.jpg","38","restless",0.4,0.5,0.4,0.660688554131539,"false"
"image-keyboard-response",136,129540,"0.0-4.41-1.41","drf5h4qc3fzzgem",263,"104.csv","","null","resources/maskTrios/BT4B.jpg","null","",NA,NA,NA,NA,""
"image-keyboard-response",137,130741,"0.0-4.41-2.41","drf5h4qc3fzzgem",263,"104.csv","","null","resources/images/fishbone.png","null","",NA,NA,NA,NA,""
"image-keyboard-response",138,131012,"0.0-4.42-0.42","drf5h4qc3fzzgem",263,"104.csv","","271","resources/trios/L1T4A3.jpg","37","restless",0.4,0.5,0.4,0.731750931164669,"false"
"image-keyboard-response",139,131414,"0.0-4.42-1.42","drf5h4qc3fzzgem",263,"104.csv","","null","resources/maskTrios/L1BB.jpg","null","",NA,NA,NA,NA,""
"image-keyboard-response",140,132616,"0.0-4.42-2.42","drf5h4qc3fzzgem",263,"104.csv","","null","resources/images/fishbone.png","null","",NA,NA,NA,NA,""
"image-keyboard-response",141,133108,"0.0-4.43-0.43","drf5h4qc3fzzgem",263,"104.csv","","491","resources/trios/L1T4A3.jpg","39","restless",0.4,0.5,0.4,0.918685454549858,"false"
"image-keyboard-response",142,133509,"0.0-4.43-1.43","drf5h4qc3fzzgem",263,"104.csv","","null","resources/maskTrios/BBA3.jpg","null","",NA,NA,NA,NA,""
"image-keyboard-response",143,134710,"0.0-4.43-2.43","drf5h4qc3fzzgem",263,"104.csv","","null","resources/images/fishbone.png","null","",NA,NA,NA,NA,""
"image-keyboard-response",144,135059,"0.0-4.44-0.44","drf5h4qc3fzzgem",263,"104.csv","","349.0000000000291","resources/trios/L1T4A3.jpg","37","restless",0.4,0.5,0.3,0.805357844104038,"false"
"image-keyboard-response",145,135461,"0.0-4.44-1.44","drf5h4qc3fzzgem",263,"104.csv","","null","resources/maskTrios/L1BB.jpg","null","",NA,NA,NA,NA,""
"image-keyboard-response",146,136663,"0.0-4.44-2.44","drf5h4qc3fzzgem",263,"104.csv","","null","resources/images/fishbone.png","null","",NA,NA,NA,NA,""
"image-keyboard-response",147,136953,"0.0-4.45-0.45","drf5h4qc3fzzgem",263,"104.csv","","290","resources/trios/L1T4A3.jpg","38","restless",0.4,0.5,0.3,0.492754332304797,"true"
"image-keyboard-response",148,137354,"0.0-4.45-1.45","drf5h4qc3fzzgem",263,"104.csv","","null","resources/maskTrios/BT4B.jpg","null","",NA,NA,NA,NA,""
"image-keyboard-response",149,138556,"0.0-4.45-2.45","drf5h4qc3fzzgem",263,"104.csv","","null","resources/images/coin2.png","null","",NA,NA,NA,NA,""
"image-keyboard-response",150,139074,"0.0-4.46-0.46","drf5h4qc3fzzgem",263,"104.csv","","518","resources/trios/L1T4A3.jpg","38","restless",0.4,0.5,0.3,0.779244881133422,"false"
"image-keyboard-response",151,139476,"0.0-4.46-1.46","drf5h4qc3fzzgem",263,"104.csv","","null","resources/maskTrios/BT4B.jpg","null","",NA,NA,NA,NA,""
"image-keyboard-response",152,140678,"0.0-4.46-2.46","drf5h4qc3fzzgem",263,"104.csv","","null","resources/images/fishbone.png","null","",NA,NA,NA,NA,""
"image-keyboard-response",153,140990,"0.0-4.47-0.47","drf5h4qc3fzzgem",263,"104.csv","","310.9999999999709","resources/trios/L1T4A3.jpg","37","restless",0.4,0.5,0.3,0.441510072596215,"false"
"image-keyboard-response",154,141391,"0.0-4.47-1.47","drf5h4qc3fzzgem",263,"104.csv","","null","resources/maskTrios/L1BB.jpg","null","",NA,NA,NA,NA,""
"image-keyboard-response",155,142593,"0.0-4.47-2.47","drf5h4qc3fzzgem",263,"104.csv","","null","resources/images/fishbone.png","null","",NA,NA,NA,NA,""
"image-keyboard-response",156,142848,"0.0-4.48-0.48","drf5h4qc3fzzgem",263,"104.csv","","254","resources/trios/L1T4A3.jpg","37","restless",0.4,0.5,0.3,0.651545479695243,"false"
"image-keyboard-response",157,143250,"0.0-4.48-1.48","drf5h4qc3fzzgem",263,"104.csv","","null","resources/maskTrios/L1BB.jpg","null","",NA,NA,NA,NA,""
"image-keyboard-response",158,144452,"0.0-4.48-2.48","drf5h4qc3fzzgem",263,"104.csv","","null","resources/images/fishbone.png","null","",NA,NA,NA,NA,""
"image-keyboard-response",159,144658,"0.0-4.49-0.49","drf5h4qc3fzzgem",263,"104.csv","","204.9999999999709","resources/trios/L1T4A3.jpg","39","restless",0.3,0.5,0.4,0.659618022777401,"false"
"image-keyboard-response",160,145060,"0.0-4.49-1.49","drf5h4qc3fzzgem",263,"104.csv","","null","resources/maskTrios/BBA3.jpg","null","",NA,NA,NA,NA,""
"image-keyboard-response",161,146262,"0.0-4.49-2.49","drf5h4qc3fzzgem",263,"104.csv","","null","resources/images/fishbone.png","null","",NA,NA,NA,NA,""
"image-keyboard-response",162,146651,"0.0-4.50-0.50","drf5h4qc3fzzgem",263,"104.csv","","388","resources/trios/L1T4A3.jpg","38","restless",0.3,0.5,0.4,0.474407928984524,"true"
"image-keyboard-response",163,147052,"0.0-4.50-1.50","drf5h4qc3fzzgem",263,"104.csv","","null","resources/maskTrios/BT4B.jpg","null","",NA,NA,NA,NA,""
"image-keyboard-response",164,148253,"0.0-4.50-2.50","drf5h4qc3fzzgem",263,"104.csv","","null","resources/images/coin2.png","null","",NA,NA,NA,NA,""
"image-keyboard-response",165,148535,"0.0-4.51-0.51","drf5h4qc3fzzgem",263,"104.csv","","280","resources/trios/L1T4A3.jpg","38","restless",0.3,0.5,0.4,0.704107105547266,"false"
"image-keyboard-response",166,148937,"0.0-4.51-1.51","drf5h4qc3fzzgem",263,"104.csv","","null","resources/maskTrios/BT4B.jpg","null","",NA,NA,NA,NA,""
"image-keyboard-response",167,150138,"0.0-4.51-2.51","drf5h4qc3fzzgem",263,"104.csv","","null","resources/images/fishbone.png","null","",NA,NA,NA,NA,""
"image-keyboard-response",168,150463,"0.0-4.52-0.52","drf5h4qc3fzzgem",263,"104.csv","","324","resources/trios/L1T4A3.jpg","37","restless",0.3,0.5,0.4,0.2484969989142,"true"
"image-keyboard-response",169,150865,"0.0-4.52-1.52","drf5h4qc3fzzgem",263,"104.csv","","null","resources/maskTrios/L1BB.jpg","null","",NA,NA,NA,NA,""
"image-keyboard-response",170,152067,"0.0-4.52-2.52","drf5h4qc3fzzgem",263,"104.csv","","null","resources/images/coin2.png","null","",NA,NA,NA,NA,""
"image-keyboard-response",171,152486,"0.0-4.53-0.53","drf5h4qc3fzzgem",263,"104.csv","","417","resources/trios/L1T4A3.jpg","37","restless",0.3,0.4,0.4,0.511282586131839,"false"
"image-keyboard-response",172,152888,"0.0-4.53-1.53","drf5h4qc3fzzgem",263,"104.csv","","null","resources/maskTrios/L1BB.jpg","null","",NA,NA,NA,NA,""
"image-keyboard-response",173,154089,"0.0-4.53-2.53","drf5h4qc3fzzgem",263,"104.csv","","null","resources/images/fishbone.png","null","",NA,NA,NA,NA,""
"image-keyboard-response",174,154335,"0.0-4.54-0.54","drf5h4qc3fzzgem",263,"104.csv","","245","resources/trios/L1T4A3.jpg","39","restless",0.3,0.4,0.4,0.962739815682139,"false"
"image-keyboard-response",175,154737,"0.0-4.54-1.54","drf5h4qc3fzzgem",263,"104.csv","","null","resources/maskTrios/BBA3.jpg","null","",NA,NA,NA,NA,""
"image-keyboard-response",176,155939,"0.0-4.54-2.54","drf5h4qc3fzzgem",263,"104.csv","","null","resources/images/fishbone.png","null","",NA,NA,NA,NA,""
"image-keyboard-response",177,156305,"0.0-4.55-0.55","drf5h4qc3fzzgem",263,"104.csv","","363.9999999999709","resources/trios/L1T4A3.jpg","38","restless",0.3,0.5,0.5,0.697720005007248,"false"
"image-keyboard-response",178,156706,"0.0-4.55-1.55","drf5h4qc3fzzgem",263,"104.csv","","null","resources/maskTrios/BT4B.jpg","null","",NA,NA,NA,NA,""
"image-keyboard-response",179,157908,"0.0-4.55-2.55","drf5h4qc3fzzgem",263,"104.csv","","null","resources/images/fishbone.png","null","",NA,NA,NA,NA,""
"image-keyboard-response",180,158153,"0.0-4.56-0.56","drf5h4qc3fzzgem",263,"104.csv","","243","resources/trios/L1T4A3.jpg","38","restless",0.3,0.5,0.5,0.802714765798817,"false"
"image-keyboard-response",181,158554,"0.0-4.56-1.56","drf5h4qc3fzzgem",263,"104.csv","","null","resources/maskTrios/BT4B.jpg","null","",NA,NA,NA,NA,""
"image-keyboard-response",182,159756,"0.0-4.56-2.56","drf5h4qc3fzzgem",263,"104.csv","","null","resources/images/fishbone.png","null","",NA,NA,NA,NA,""
"image-keyboard-response",183,160052,"0.0-4.57-0.57","drf5h4qc3fzzgem",263,"104.csv","","296","resources/trios/L1T4A3.jpg","38","restless",0.3,0.5,0.5,0.444396998813243,"true"
"image-keyboard-response",184,160454,"0.0-4.57-1.57","drf5h4qc3fzzgem",263,"104.csv","","null","resources/maskTrios/BT4B.jpg","null","",NA,NA,NA,NA,""
"image-keyboard-response",185,161656,"0.0-4.57-2.57","drf5h4qc3fzzgem",263,"104.csv","","null","resources/images/coin2.png","null","",NA,NA,NA,NA,""
"image-keyboard-response",186,161955,"0.0-4.58-0.58","drf5h4qc3fzzgem",263,"104.csv","","298","resources/trios/L1T4A3.jpg","38","restless",0.3,0.5,0.6,0.751439358931361,"false"
"image-keyboard-response",187,162356,"0.0-4.58-1.58","drf5h4qc3fzzgem",263,"104.csv","","null","resources/maskTrios/BT4B.jpg","null","",NA,NA,NA,NA,""
"image-keyboard-response",188,163558,"0.0-4.58-2.58","drf5h4qc3fzzgem",263,"104.csv","","null","resources/images/fishbone.png","null","",NA,NA,NA,NA,""
"image-keyboard-response",189,163838,"0.0-4.59-0.59","drf5h4qc3fzzgem",263,"104.csv","","278.9999999999709","resources/trios/L1T4A3.jpg","37","restless",0.3,0.5,0.6,0.543962764692811,"false"
"image-keyboard-response",190,164240,"0.0-4.59-1.59","drf5h4qc3fzzgem",263,"104.csv","","null","resources/maskTrios/L1BB.jpg","null","",NA,NA,NA,NA,""
"image-keyboard-response",191,165442,"0.0-4.59-2.59","drf5h4qc3fzzgem",263,"104.csv","","null","resources/images/fishbone.png","null","",NA,NA,NA,NA,""
"image-keyboard-response",192,165732,"0.0-4.60-0.60","drf5h4qc3fzzgem",263,"104.csv","","289.0000000000291","resources/trios/L1T4A3.jpg","39","restless",0.3,0.5,0.6,0.704783598182481,"false"
"image-keyboard-response",193,166134,"0.0-4.60-1.60","drf5h4qc3fzzgem",263,"104.csv","","null","resources/maskTrios/BBA3.jpg","null","",NA,NA,NA,NA,""
"image-keyboard-response",194,167336,"0.0-4.60-2.60","drf5h4qc3fzzgem",263,"104.csv","","null","resources/images/fishbone.png","null","",NA,NA,NA,NA,""
"image-keyboard-response",195,167610,"0.0-4.61-0.61","drf5h4qc3fzzgem",263,"104.csv","","273","resources/trios/L1T4A3.jpg","38","restless",0.3,0.5,0.6,0.453581699546859,"true"
"image-keyboard-response",196,168011,"0.0-4.61-1.61","drf5h4qc3fzzgem",263,"104.csv","","null","resources/maskTrios/BT4B.jpg","null","",NA,NA,NA,NA,""
"image-keyboard-response",197,169213,"0.0-4.61-2.61","drf5h4qc3fzzgem",263,"104.csv","","null","resources/images/coin2.png","null","",NA,NA,NA,NA,""
"image-keyboard-response",198,170460,"0.0-4.62-0.62","drf5h4qc3fzzgem",263,"104.csv","","1245.999999999971","resources/trios/L1T4A3.jpg","38","restless",0.3,0.5,0.6,0.918763314190407,"false"
"image-keyboard-response",199,170862,"0.0-4.62-1.62","drf5h4qc3fzzgem",263,"104.csv","","null","resources/maskTrios/BT4B.jpg","null","",NA,NA,NA,NA,""
"image-keyboard-response",200,172063,"0.0-4.62-2.62","drf5h4qc3fzzgem",263,"104.csv","","null","resources/images/fishbone.png","null","",NA,NA,NA,NA,""
"image-keyboard-response",201,172396,"0.0-4.63-0.63","drf5h4qc3fzzgem",263,"104.csv","","332","resources/trios/L1T4A3.jpg","37","restless",0.3,0.5,0.6,0.0521016563371546,"true"
"image-keyboard-response",202,172798,"0.0-4.63-1.63","drf5h4qc3fzzgem",263,"104.csv","","null","resources/maskTrios/L1BB.jpg","null","",NA,NA,NA,NA,""
"image-keyboard-response",203,173999,"0.0-4.63-2.63","drf5h4qc3fzzgem",263,"104.csv","","null","resources/images/coin2.png","null","",NA,NA,NA,NA,""
"image-keyboard-response",204,174376,"0.0-4.64-0.64","drf5h4qc3fzzgem",263,"104.csv","","375.9999999999709","resources/trios/L1T4A3.jpg","39","restless",0.3,0.5,0.6,0.844383961121843,"false"
"image-keyboard-response",205,174777,"0.0-4.64-1.64","drf5h4qc3fzzgem",263,"104.csv","","null","resources/maskTrios/BBA3.jpg","null","",NA,NA,NA,NA,""
"image-keyboard-response",206,175979,"0.0-4.64-2.64","drf5h4qc3fzzgem",263,"104.csv","","null","resources/images/fishbone.png","null","",NA,NA,NA,NA,""
"image-keyboard-response",207,176304,"0.0-4.65-0.65","drf5h4qc3fzzgem",263,"104.csv","","324","resources/trios/L1T4A3.jpg","38","restless",0.4,0.5,0.6,0.659106020235401,"false"
"image-keyboard-response",208,176706,"0.0-4.65-1.65","drf5h4qc3fzzgem",263,"104.csv","","null","resources/maskTrios/BT4B.jpg","null","",NA,NA,NA,NA,""
"image-keyboard-response",209,177907,"0.0-4.65-2.65","drf5h4qc3fzzgem",263,"104.csv","","null","resources/images/fishbone.png","null","",NA,NA,NA,NA,""
"image-keyboard-response",210,178294,"0.0-4.66-0.66","drf5h4qc3fzzgem",263,"104.csv","","386","resources/trios/L1T4A3.jpg","38","restless",0.4,0.5,0.6,0.766776970383658,"false"
"image-keyboard-response",211,178696,"0.0-4.66-1.66","drf5h4qc3fzzgem",263,"104.csv","","null","resources/maskTrios/BT4B.jpg","null","",NA,NA,NA,NA,""
"image-keyboard-response",212,179897,"0.0-4.66-2.66","drf5h4qc3fzzgem",263,"104.csv","","null","resources/images/fishbone.png","null","",NA,NA,NA,NA,""
"image-keyboard-response",213,180168,"0.0-4.67-0.67","drf5h4qc3fzzgem",263,"104.csv","","269","resources/trios/L1T4A3.jpg","38","restless",0.4,0.4,0.6,0.362486238097876,"true"
"image-keyboard-response",214,180569,"0.0-4.67-1.67","drf5h4qc3fzzgem",263,"104.csv","","null","resources/maskTrios/BT4B.jpg","null","",NA,NA,NA,NA,""
"image-keyboard-response",215,181771,"0.0-4.67-2.67","drf5h4qc3fzzgem",263,"104.csv","","null","resources/images/coin2.png","null","",NA,NA,NA,NA,""
"image-keyboard-response",216,182185,"0.0-4.68-0.68","drf5h4qc3fzzgem",263,"104.csv","","412","resources/trios/L1T4A3.jpg","37","restless",0.4,0.4,0.6,0.18072745958248,"true"
"image-keyboard-response",217,182587,"0.0-4.68-1.68","drf5h4qc3fzzgem",263,"104.csv","","null","resources/maskTrios/L1BB.jpg","null","",NA,NA,NA,NA,""
"image-keyboard-response",218,183789,"0.0-4.68-2.68","drf5h4qc3fzzgem",263,"104.csv","","null","resources/images/coin2.png","null","",NA,NA,NA,NA,""
"image-keyboard-response",219,184189,"0.0-4.69-0.69","drf5h4qc3fzzgem",263,"104.csv","","399","resources/trios/L1T4A3.jpg","38","restless",0.4,0.4,0.6,0.443545446314256,"false"
"image-keyboard-response",220,184591,"0.0-4.69-1.69","drf5h4qc3fzzgem",263,"104.csv","","null","resources/maskTrios/BT4B.jpg","null","",NA,NA,NA,NA,""
"image-keyboard-response",221,185792,"0.0-4.69-2.69","drf5h4qc3fzzgem",263,"104.csv","","null","resources/images/fishbone.png","null","",NA,NA,NA,NA,""
"image-keyboard-response",222,186126,"0.0-4.70-0.70","drf5h4qc3fzzgem",263,"104.csv","","333","resources/trios/L1T4A3.jpg","37","restless",0.4,0.5,0.6,0.76788516873133,"false"
"image-keyboard-response",223,186528,"0.0-4.70-1.70","drf5h4qc3fzzgem",263,"104.csv","","null","resources/maskTrios/L1BB.jpg","null","",NA,NA,NA,NA,""
"image-keyboard-response",224,187730,"0.0-4.70-2.70","drf5h4qc3fzzgem",263,"104.csv","","null","resources/images/fishbone.png","null","",NA,NA,NA,NA,""
"image-keyboard-response",225,188330,"0.0-4.71-0.71","drf5h4qc3fzzgem",263,"104.csv","","600","resources/trios/L1T4A3.jpg","38","restless",0.4,0.5,0.6,0.0570017116085231,"true"
"image-keyboard-response",226,188732,"0.0-4.71-1.71","drf5h4qc3fzzgem",263,"104.csv","","null","resources/maskTrios/BT4B.jpg","null","",NA,NA,NA,NA,""
"image-keyboard-response",227,189934,"0.0-4.71-2.71","drf5h4qc3fzzgem",263,"104.csv","","null","resources/images/coin2.png","null","",NA,NA,NA,NA,""
"image-keyboard-response",228,190269,"0.0-4.72-0.72","drf5h4qc3fzzgem",263,"104.csv","","334","resources/trios/L1T4A3.jpg","37","restless",0.4,0.5,0.6,0.290669388263342,"true"
"image-keyboard-response",229,190671,"0.0-4.72-1.72","drf5h4qc3fzzgem",263,"104.csv","","null","resources/maskTrios/L1BB.jpg","null","",NA,NA,NA,NA,""
"image-keyboard-response",230,191873,"0.0-4.72-2.72","drf5h4qc3fzzgem",263,"104.csv","","null","resources/images/coin2.png","null","",NA,NA,NA,NA,""
"image-keyboard-response",231,192207,"0.0-4.73-0.73","drf5h4qc3fzzgem",263,"104.csv","","334.0000000000291","resources/trios/L1T4A3.jpg","39","restless",0.4,0.5,0.6,0.990019929566755,"false"
"image-keyboard-response",232,192609,"0.0-4.73-1.73","drf5h4qc3fzzgem",263,"104.csv","","null","resources/maskTrios/BBA3.jpg","null","",NA,NA,NA,NA,""
"image-keyboard-response",233,193811,"0.0-4.73-2.73","drf5h4qc3fzzgem",263,"104.csv","","null","resources/images/fishbone.png","null","",NA,NA,NA,NA,""
"image-keyboard-response",234,194346,"0.0-4.74-0.74","drf5h4qc3fzzgem",263,"104.csv","","534","resources/trios/L1T4A3.jpg","38","restless",0.4,0.5,0.6,0.0609048397244418,"true"
"image-keyboard-response",235,194748,"0.0-4.74-1.74","drf5h4qc3fzzgem",263,"104.csv","","null","resources/maskTrios/BT4B.jpg","null","",NA,NA,NA,NA,""
"image-keyboard-response",236,195949,"0.0-4.74-2.74","drf5h4qc3fzzgem",263,"104.csv","","null","resources/images/coin2.png","null","",NA,NA,NA,NA,""
"image-keyboard-response",237,196347,"0.0-4.75-0.75","drf5h4qc3fzzgem",263,"104.csv","","397","resources/trios/L1T4A3.jpg","37","restless",0.4,0.5,0.6,0.752983243036141,"false"
"image-keyboard-response",238,196749,"0.0-4.75-1.75","drf5h4qc3fzzgem",263,"104.csv","","null","resources/maskTrios/L1BB.jpg","null","",NA,NA,NA,NA,""
"image-keyboard-response",239,197950,"0.0-4.75-2.75","drf5h4qc3fzzgem",263,"104.csv","","null","resources/images/fishbone.png","null","",NA,NA,NA,NA,""
"image-keyboard-response",240,198445,"0.0-4.76-0.76","drf5h4qc3fzzgem",263,"104.csv","","494","resources/trios/L1T4A3.jpg","38","restless",0.4,0.4,0.6,0.793095935018374,"false"
"image-keyboard-response",241,198846,"0.0-4.76-1.76","drf5h4qc3fzzgem",263,"104.csv","","null","resources/maskTrios/BT4B.jpg","null","",NA,NA,NA,NA,""
"image-keyboard-response",242,200048,"0.0-4.76-2.76","drf5h4qc3fzzgem",263,"104.csv","","null","resources/images/fishbone.png","null","",NA,NA,NA,NA,""
"image-keyboard-response",243,200163,"0.0-4.77-0.77","drf5h4qc3fzzgem",263,"104.csv","","114","resources/trios/L1T4A3.jpg","39","restless",0.4,0.4,0.5,0.363925896599907,"true"
"image-keyboard-response",244,200565,"0.0-4.77-1.77","drf5h4qc3fzzgem",263,"104.csv","","null","resources/maskTrios/BBA3.jpg","null","",NA,NA,NA,NA,""
"image-keyboard-response",245,201767,"0.0-4.77-2.77","drf5h4qc3fzzgem",263,"104.csv","","null","resources/images/coin2.png","null","",NA,NA,NA,NA,""
"image-keyboard-response",246,202039,"0.0-4.78-0.78","drf5h4qc3fzzgem",263,"104.csv","","271","resources/trios/L1T4A3.jpg","39","restless",0.4,0.4,0.5,0.360369455948277,"true"
"image-keyboard-response",247,202440,"0.0-4.78-1.78","drf5h4qc3fzzgem",263,"104.csv","","null","resources/maskTrios/BBA3.jpg","null","",NA,NA,NA,NA,""
"image-keyboard-response",248,203642,"0.0-4.78-2.78","drf5h4qc3fzzgem",263,"104.csv","","null","resources/images/coin2.png","null","",NA,NA,NA,NA,""
"image-keyboard-response",249,203906,"0.0-4.79-0.79","drf5h4qc3fzzgem",263,"104.csv","","263","resources/trios/L1T4A3.jpg","39","restless",0.4,0.4,0.5,0.27850916750314,"true"
"image-keyboard-response",250,204307,"0.0-4.79-1.79","drf5h4qc3fzzgem",263,"104.csv","","null","resources/maskTrios/BBA3.jpg","null","",NA,NA,NA,NA,""
"image-keyboard-response",251,205509,"0.0-4.79-2.79","drf5h4qc3fzzgem",263,"104.csv","","null","resources/images/coin2.png","null","",NA,NA,NA,NA,""
"image-keyboard-response",252,205700,"0.0-4.80-0.80","drf5h4qc3fzzgem",263,"104.csv","","190","resources/trios/L1T4A3.jpg","39","restless",0.4,0.4,0.5,0.954038047040528,"false"
"image-keyboard-response",253,206102,"0.0-4.80-1.80","drf5h4qc3fzzgem",263,"104.csv","","null","resources/maskTrios/BBA3.jpg","null","",NA,NA,NA,NA,""
"image-keyboard-response",254,207304,"0.0-4.80-2.80","drf5h4qc3fzzgem",263,"104.csv","","null","resources/images/fishbone.png","null","",NA,NA,NA,NA,""
"image-keyboard-response",255,207610,"0.0-4.81-0.81","drf5h4qc3fzzgem",263,"104.csv","","305","resources/trios/L1T4A3.jpg","38","restless",0.4,0.5,0.5,0.931816232131687,"false"
"image-keyboard-response",256,208012,"0.0-4.81-1.81","drf5h4qc3fzzgem",263,"104.csv","","null","resources/maskTrios/BT4B.jpg","null","",NA,NA,NA,NA,""
"image-keyboard-response",257,209214,"0.0-4.81-2.81","drf5h4qc3fzzgem",263,"104.csv","","null","resources/images/fishbone.png","null","",NA,NA,NA,NA,""
"image-keyboard-response",258,209324,"0.0-4.82-0.82","drf5h4qc3fzzgem",263,"104.csv","","110","resources/trios/L1T4A3.jpg","37","restless",0.4,0.5,0.5,0.106891970771925,"true"
"image-keyboard-response",259,209726,"0.0-4.82-1.82","drf5h4qc3fzzgem",263,"104.csv","","null","resources/maskTrios/L1BB.jpg","null","",NA,NA,NA,NA,""
"image-keyboard-response",260,210927,"0.0-4.82-2.82","drf5h4qc3fzzgem",263,"104.csv","","null","resources/images/coin2.png","null","",NA,NA,NA,NA,""
"image-keyboard-response",261,211397,"0.0-4.83-0.83","drf5h4qc3fzzgem",263,"104.csv","","469","resources/trios/L1T4A3.jpg","37","restless",0.4,0.5,0.5,0.211386906313405,"true"
"image-keyboard-response",262,211798,"0.0-4.83-1.83","drf5h4qc3fzzgem",263,"104.csv","","null","resources/maskTrios/L1BB.jpg","null","",NA,NA,NA,NA,""
"image-keyboard-response",263,213000,"0.0-4.83-2.83","drf5h4qc3fzzgem",263,"104.csv","","null","resources/images/coin2.png","null","",NA,NA,NA,NA,""
"image-keyboard-response",264,213516,"0.0-4.84-0.84","drf5h4qc3fzzgem",263,"104.csv","","515","resources/trios/L1T4A3.jpg","37","restless",0.4,0.5,0.5,0.470906400574973,"false"
"image-keyboard-response",265,213918,"0.0-4.84-1.84","drf5h4qc3fzzgem",263,"104.csv","","null","resources/maskTrios/L1BB.jpg","null","",NA,NA,NA,NA,""
"image-keyboard-response",266,215120,"0.0-4.84-2.84","drf5h4qc3fzzgem",263,"104.csv","","null","resources/images/fishbone.png","null","",NA,NA,NA,NA,""
"image-keyboard-response",267,216625,"0.0-4.85-0.85","drf5h4qc3fzzgem",263,"104.csv","","1504","resources/trios/L1T4A3.jpg","38","restless",0.4,0.5,0.5,0.41418192144702,"true"
"image-keyboard-response",268,217027,"0.0-4.85-1.85","drf5h4qc3fzzgem",263,"104.csv","","null","resources/maskTrios/BT4B.jpg","null","",NA,NA,NA,NA,""
"image-keyboard-response",269,218228,"0.0-4.85-2.85","drf5h4qc3fzzgem",263,"104.csv","","null","resources/images/coin2.png","null","",NA,NA,NA,NA,""
"image-keyboard-response",270,224509,"0.0-4.86-0.86","drf5h4qc3fzzgem",263,"104.csv","","6280","resources/trios/L1T4A3.jpg","38","restless",0.4,0.5,0.5,0.188578747231984,"true"
"image-keyboard-response",271,224910,"0.0-4.86-1.86","drf5h4qc3fzzgem",263,"104.csv","","null","resources/maskTrios/BT4B.jpg","null","",NA,NA,NA,NA,""
"image-keyboard-response",272,226112,"0.0-4.86-2.86","drf5h4qc3fzzgem",263,"104.csv","","null","resources/images/coin2.png","null","",NA,NA,NA,NA,""
"image-keyboard-response",273,226687,"0.0-4.87-0.87","drf5h4qc3fzzgem",263,"104.csv","","575","resources/trios/L1T4A3.jpg","38","restless",0.4,0.5,0.5,0.194034604019023,"true"
"image-keyboard-response",274,227089,"0.0-4.87-1.87","drf5h4qc3fzzgem",263,"104.csv","","null","resources/maskTrios/BT4B.jpg","null","",NA,NA,NA,NA,""
"image-keyboard-response",275,228291,"0.0-4.87-2.87","drf5h4qc3fzzgem",263,"104.csv","","null","resources/images/coin2.png","null","",NA,NA,NA,NA,""
"image-keyboard-response",276,228831,"0.0-4.88-0.88","drf5h4qc3fzzgem",263,"104.csv","","540.0000000000291","resources/trios/L1T4A3.jpg","38","restless",0.4,0.5,0.6,0.00941473030434092,"true"
"image-keyboard-response",277,229233,"0.0-4.88-1.88","drf5h4qc3fzzgem",263,"104.csv","","null","resources/maskTrios/BT4B.jpg","null","",NA,NA,NA,NA,""
"image-keyboard-response",278,230435,"0.0-4.88-2.88","drf5h4qc3fzzgem",263,"104.csv","","null","resources/images/coin2.png","null","",NA,NA,NA,NA,""
"image-keyboard-response",279,230751,"0.0-4.89-0.89","drf5h4qc3fzzgem",263,"104.csv","","316","resources/trios/L1T4A3.jpg","38","restless",0.4,0.5,0.7,0.245922492055525,"true"
"image-keyboard-response",280,231152,"0.0-4.89-1.89","drf5h4qc3fzzgem",263,"104.csv","","null","resources/maskTrios/BT4B.jpg","null","",NA,NA,NA,NA,""
"image-keyboard-response",281,232354,"0.0-4.89-2.89","drf5h4qc3fzzgem",263,"104.csv","","null","resources/images/coin2.png","null","",NA,NA,NA,NA,""
"image-keyboard-response",282,232622,"0.0-4.90-0.90","drf5h4qc3fzzgem",263,"104.csv","","266.9999999999709","resources/trios/L1T4A3.jpg","38","restless",0.4,0.6,0.7,0.771351646085921,"false"
"image-keyboard-response",283,233024,"0.0-4.90-1.90","drf5h4qc3fzzgem",263,"104.csv","","null","resources/maskTrios/BT4B.jpg","null","",NA,NA,NA,NA,""
"image-keyboard-response",284,234226,"0.0-4.90-2.90","drf5h4qc3fzzgem",263,"104.csv","","null","resources/images/fishbone.png","null","",NA,NA,NA,NA,""
"image-keyboard-response",285,234443,"0.0-4.91-0.91","drf5h4qc3fzzgem",263,"104.csv","","216","resources/trios/L1T4A3.jpg","37","restless",0.4,0.6,0.7,0.822832108736525,"false"
"image-keyboard-response",286,234844,"0.0-4.91-1.91","drf5h4qc3fzzgem",263,"104.csv","","null","resources/maskTrios/L1BB.jpg","null","",NA,NA,NA,NA,""
"image-keyboard-response",287,236045,"0.0-4.91-2.91","drf5h4qc3fzzgem",263,"104.csv","","null","resources/images/fishbone.png","null","",NA,NA,NA,NA,""
"image-keyboard-response",288,236166,"0.0-4.92-0.92","drf5h4qc3fzzgem",263,"104.csv","","120","resources/trios/L1T4A3.jpg","38","restless",0.4,0.6,0.7,0.486481577623493,"true"
"image-keyboard-response",289,236567,"0.0-4.92-1.92","drf5h4qc3fzzgem",263,"104.csv","","null","resources/maskTrios/BT4B.jpg","null","",NA,NA,NA,NA,""
"image-keyboard-response",290,237769,"0.0-4.92-2.92","drf5h4qc3fzzgem",263,"104.csv","","null","resources/images/coin2.png","null","",NA,NA,NA,NA,""
"image-keyboard-response",291,238045,"0.0-4.93-0.93","drf5h4qc3fzzgem",263,"104.csv","","275.0000000000291","resources/trios/L1T4A3.jpg","38","restless",0.4,0.7,0.7,0.457070547447584,"true"
"image-keyboard-response",292,238447,"0.0-4.93-1.93","drf5h4qc3fzzgem",263,"104.csv","","null","resources/maskTrios/BT4B.jpg","null","",NA,NA,NA,NA,""
"image-keyboard-response",293,239649,"0.0-4.93-2.93","drf5h4qc3fzzgem",263,"104.csv","","null","resources/images/coin2.png","null","",NA,NA,NA,NA,""
"image-keyboard-response",294,239986,"0.0-4.94-0.94","drf5h4qc3fzzgem",263,"104.csv","","337.0000000000291","resources/trios/L1T4A3.jpg","38","restless",0.4,0.7,0.7,0.609229614866924,"true"
"image-keyboard-response",295,240387,"0.0-4.94-1.94","drf5h4qc3fzzgem",263,"104.csv","","null","resources/maskTrios/BT4B.jpg","null","",NA,NA,NA,NA,""
"image-keyboard-response",296,241588,"0.0-4.94-2.94","drf5h4qc3fzzgem",263,"104.csv","","null","resources/images/coin2.png","null","",NA,NA,NA,NA,""
"image-keyboard-response",297,242043,"0.0-4.95-0.95","drf5h4qc3fzzgem",263,"104.csv","","454","resources/trios/L1T4A3.jpg","38","restless",0.4,0.7,0.7,0.428554687310476,"true"
"image-keyboard-response",298,242445,"0.0-4.95-1.95","drf5h4qc3fzzgem",263,"104.csv","","null","resources/maskTrios/BT4B.jpg","null","",NA,NA,NA,NA,""
"image-keyboard-response",299,243647,"0.0-4.95-2.95","drf5h4qc3fzzgem",263,"104.csv","","null","resources/images/coin2.png","null","",NA,NA,NA,NA,""
"image-keyboard-response",300,244063,"0.0-4.96-0.96","drf5h4qc3fzzgem",263,"104.csv","","415.0000000000291","resources/trios/L1T4A3.jpg","38","restless",0.4,0.7,0.8,0.514476095646149,"true"
"image-keyboard-response",301,244465,"0.0-4.96-1.96","drf5h4qc3fzzgem",263,"104.csv","","null","resources/maskTrios/BT4B.jpg","null","",NA,NA,NA,NA,""
"image-keyboard-response",302,245669,"0.0-4.96-2.96","drf5h4qc3fzzgem",263,"104.csv","","null","resources/images/coin2.png","null","",NA,NA,NA,NA,""
"image-keyboard-response",303,245976,"0.0-4.97-0.97","drf5h4qc3fzzgem",263,"104.csv","","305.9999999999709","resources/trios/L1T4A3.jpg","38","restless",0.4,0.7,0.8,0.686596096278466,"true"
"image-keyboard-response",304,246378,"0.0-4.97-1.97","drf5h4qc3fzzgem",263,"104.csv","","null","resources/maskTrios/BT4B.jpg","null","",NA,NA,NA,NA,""
"image-keyboard-response",305,247580,"0.0-4.97-2.97","drf5h4qc3fzzgem",263,"104.csv","","null","resources/images/coin2.png","null","",NA,NA,NA,NA,""
"image-keyboard-response",306,247870,"0.0-4.98-0.98","drf5h4qc3fzzgem",263,"104.csv","","290","resources/trios/L1T4A3.jpg","38","restless",0.4,0.7,0.8,0.158923431888786,"true"
"image-keyboard-response",307,248272,"0.0-4.98-1.98","drf5h4qc3fzzgem",263,"104.csv","","null","resources/maskTrios/BT4B.jpg","null","",NA,NA,NA,NA,""
"image-keyboard-response",308,249473,"0.0-4.98-2.98","drf5h4qc3fzzgem",263,"104.csv","","null","resources/images/coin2.png","null","",NA,NA,NA,NA,""
"image-keyboard-response",309,249816,"0.0-4.99-0.99","drf5h4qc3fzzgem",263,"104.csv","","341.9999999999709","resources/trios/L1T4A3.jpg","38","restless",0.4,0.7,0.8,0.378274262774048,"true"
"image-keyboard-response",310,250218,"0.0-4.99-1.99","drf5h4qc3fzzgem",263,"104.csv","","null","resources/maskTrios/BT4B.jpg","null","",NA,NA,NA,NA,""
"image-keyboard-response",311,251419,"0.0-4.99-2.99","drf5h4qc3fzzgem",263,"104.csv","","null","resources/images/coin2.png","null","",NA,NA,NA,NA,""
"image-keyboard-response",312,251626,"0.0-4.100-0.100","drf5h4qc3fzzgem",263,"104.csv","","205.9999999999709","resources/trios/L1T4A3.jpg","38","restless",0.4,0.8,0.8,0.828488050604886,"false"
"image-keyboard-response",313,252028,"0.0-4.100-1.100","drf5h4qc3fzzgem",263,"104.csv","","null","resources/maskTrios/BT4B.jpg","null","",NA,NA,NA,NA,""
"image-keyboard-response",314,253229,"0.0-4.100-2.100","drf5h4qc3fzzgem",263,"104.csv","","null","resources/images/fishbone.png","null","",NA,NA,NA,NA,""
"image-keyboard-response",315,253507,"0.0-4.101-0.101","drf5h4qc3fzzgem",263,"104.csv","","277.9999999999709","resources/trios/L1T4A3.jpg","37","restless",0.4,0.9,0.8,0.556983410845581,"false"
"image-keyboard-response",316,253909,"0.0-4.101-1.101","drf5h4qc3fzzgem",263,"104.csv","","null","resources/maskTrios/L1BB.jpg","null","",NA,NA,NA,NA,""
"image-keyboard-response",317,255111,"0.0-4.101-2.101","drf5h4qc3fzzgem",263,"104.csv","","null","resources/images/fishbone.png","null","",NA,NA,NA,NA,""
"image-keyboard-response",318,255355,"0.0-4.102-0.102","drf5h4qc3fzzgem",263,"104.csv","","243","resources/trios/L1T4A3.jpg","38","restless",0.5,0.9,0.8,0.130671360783073,"true"
"image-keyboard-response",319,255756,"0.0-4.102-1.102","drf5h4qc3fzzgem",263,"104.csv","","null","resources/maskTrios/BT4B.jpg","null","",NA,NA,NA,NA,""
"image-keyboard-response",320,256958,"0.0-4.102-2.102","drf5h4qc3fzzgem",263,"104.csv","","null","resources/images/coin2.png","null","",NA,NA,NA,NA,""
"image-keyboard-response",321,257187,"0.0-4.103-0.103","drf5h4qc3fzzgem",263,"104.csv","","228.0000000000291","resources/trios/L1T4A3.jpg","38","restless",0.5,0.8,0.8,0.723363537084036,"true"
"image-keyboard-response",322,257589,"0.0-4.103-1.103","drf5h4qc3fzzgem",263,"104.csv","","null","resources/maskTrios/BT4B.jpg","null","",NA,NA,NA,NA,""
"image-keyboard-response",323,258791,"0.0-4.103-2.103","drf5h4qc3fzzgem",263,"104.csv","","null","resources/images/coin2.png","null","",NA,NA,NA,NA,""
"image-keyboard-response",324,259038,"0.0-4.104-0.104","drf5h4qc3fzzgem",263,"104.csv","","247","resources/trios/L1T4A3.jpg","38","restless",0.4,0.8,0.8,0.177215713623252,"true"
"image-keyboard-response",325,259440,"0.0-4.104-1.104","drf5h4qc3fzzgem",263,"104.csv","","null","resources/maskTrios/BT4B.jpg","null","",NA,NA,NA,NA,""
"image-keyboard-response",326,260642,"0.0-4.104-2.104","drf5h4qc3fzzgem",263,"104.csv","","null","resources/images/coin2.png","null","",NA,NA,NA,NA,""
"image-keyboard-response",327,260923,"0.0-4.105-0.105","drf5h4qc3fzzgem",263,"104.csv","","281","resources/trios/L1T4A3.jpg","38","restless",0.4,0.8,0.8,0.63185921991135,"true"
"image-keyboard-response",328,261325,"0.0-4.105-1.105","drf5h4qc3fzzgem",263,"104.csv","","null","resources/maskTrios/BT4B.jpg","null","",NA,NA,NA,NA,""
"image-keyboard-response",329,262527,"0.0-4.105-2.105","drf5h4qc3fzzgem",263,"104.csv","","null","resources/images/coin2.png","null","",NA,NA,NA,NA,""
"image-keyboard-response",330,262746,"0.0-4.106-0.106","drf5h4qc3fzzgem",263,"104.csv","","219","resources/trios/L1T4A3.jpg","38","restless",0.4,0.8,0.8,0.762122769007035,"true"
"image-keyboard-response",331,263148,"0.0-4.106-1.106","drf5h4qc3fzzgem",263,"104.csv","","null","resources/maskTrios/BT4B.jpg","null","",NA,NA,NA,NA,""
"image-keyboard-response",332,264350,"0.0-4.106-2.106","drf5h4qc3fzzgem",263,"104.csv","","null","resources/images/coin2.png","null","",NA,NA,NA,NA,""
"image-keyboard-response",333,264625,"0.0-4.107-0.107","drf5h4qc3fzzgem",263,"104.csv","","275","resources/trios/L1T4A3.jpg","38","restless",0.4,0.8,0.8,0.474934834045621,"true"
"image-keyboard-response",334,265027,"0.0-4.107-1.107","drf5h4qc3fzzgem",263,"104.csv","","null","resources/maskTrios/BT4B.jpg","null","",NA,NA,NA,NA,""
"image-keyboard-response",335,266229,"0.0-4.107-2.107","drf5h4qc3fzzgem",263,"104.csv","","null","resources/images/coin2.png","null","",NA,NA,NA,NA,""
"image-keyboard-response",336,266495,"0.0-4.108-0.108","drf5h4qc3fzzgem",263,"104.csv","","265","resources/trios/L1T4A3.jpg","38","restless",0.5,0.8,0.9,0.925154415201498,"false"
"image-keyboard-response",337,266897,"0.0-4.108-1.108","drf5h4qc3fzzgem",263,"104.csv","","null","resources/maskTrios/BT4B.jpg","null","",NA,NA,NA,NA,""
"image-keyboard-response",338,268099,"0.0-4.108-2.108","drf5h4qc3fzzgem",263,"104.csv","","null","resources/images/fishbone.png","null","",NA,NA,NA,NA,""
"image-keyboard-response",339,268332,"0.0-4.109-0.109","drf5h4qc3fzzgem",263,"104.csv","","233","resources/trios/L1T4A3.jpg","37","restless",0.5,0.8,0.9,0.847670876263663,"false"
"image-keyboard-response",340,268733,"0.0-4.109-1.109","drf5h4qc3fzzgem",263,"104.csv","","null","resources/maskTrios/L1BB.jpg","null","",NA,NA,NA,NA,""
"image-keyboard-response",341,269935,"0.0-4.109-2.109","drf5h4qc3fzzgem",263,"104.csv","","null","resources/images/fishbone.png","null","",NA,NA,NA,NA,""
"image-keyboard-response",342,270253,"0.0-4.110-0.110","drf5h4qc3fzzgem",263,"104.csv","","317","resources/trios/L1T4A3.jpg","38","restless",0.5,0.8,0.9,0.146924840966232,"true"
"image-keyboard-response",343,270655,"0.0-4.110-1.110","drf5h4qc3fzzgem",263,"104.csv","","null","resources/maskTrios/BT4B.jpg","null","",NA,NA,NA,NA,""
"image-keyboard-response",344,271857,"0.0-4.110-2.110","drf5h4qc3fzzgem",263,"104.csv","","null","resources/images/coin2.png","null","",NA,NA,NA,NA,""
"image-keyboard-response",345,272128,"0.0-4.111-0.111","drf5h4qc3fzzgem",263,"104.csv","","269.9999999999418","resources/trios/L1T4A3.jpg","38","restless",0.5,0.8,0.9,0.953713836009658,"false"
"image-keyboard-response",346,272529,"0.0-4.111-1.111","drf5h4qc3fzzgem",263,"104.csv","","null","resources/maskTrios/BT4B.jpg","null","",NA,NA,NA,NA,""
"image-keyboard-response",347,273731,"0.0-4.111-2.111","drf5h4qc3fzzgem",263,"104.csv","","null","resources/images/fishbone.png","null","",NA,NA,NA,NA,""
"image-keyboard-response",348,274001,"0.0-4.112-0.112","drf5h4qc3fzzgem",263,"104.csv","","270","resources/trios/L1T4A3.jpg","38","restless",0.5,0.7,0.9,0.632863720882488,"true"
"image-keyboard-response",349,274403,"0.0-4.112-1.112","drf5h4qc3fzzgem",263,"104.csv","","null","resources/maskTrios/BT4B.jpg","null","",NA,NA,NA,NA,""
"image-keyboard-response",350,275605,"0.0-4.112-2.112","drf5h4qc3fzzgem",263,"104.csv","","null","resources/images/coin2.png","null","",NA,NA,NA,NA,""
"image-keyboard-response",351,276065,"0.0-4.113-0.113","drf5h4qc3fzzgem",263,"104.csv","","459","resources/trios/L1T4A3.jpg","38","restless",0.6,0.7,0.9,0.339743957870722,"true"
"image-keyboard-response",352,276466,"0.0-4.113-1.113","drf5h4qc3fzzgem",263,"104.csv","","null","resources/maskTrios/BT4B.jpg","null","",NA,NA,NA,NA,""
"image-keyboard-response",353,277667,"0.0-4.113-2.113","drf5h4qc3fzzgem",263,"104.csv","","null","resources/images/coin2.png","null","",NA,NA,NA,NA,""
"image-keyboard-response",354,277960,"0.0-4.114-0.114","drf5h4qc3fzzgem",263,"104.csv","","292.9999999999418","resources/trios/L1T4A3.jpg","38","restless",0.6,0.7,0.9,0.986687790799223,"false"
"image-keyboard-response",355,278362,"0.0-4.114-1.114","drf5h4qc3fzzgem",263,"104.csv","","null","resources/maskTrios/BT4B.jpg","null","",NA,NA,NA,NA,""
"image-keyboard-response",356,279563,"0.0-4.114-2.114","drf5h4qc3fzzgem",263,"104.csv","","null","resources/images/fishbone.png","null","",NA,NA,NA,NA,""
"image-keyboard-response",357,279803,"0.0-4.115-0.115","drf5h4qc3fzzgem",263,"104.csv","","239","resources/trios/L1T4A3.jpg","37","restless",0.5,0.7,0.9,0.612783913039942,"false"
"image-keyboard-response",358,280204,"0.0-4.115-1.115","drf5h4qc3fzzgem",263,"104.csv","","null","resources/maskTrios/L1BB.jpg","null","",NA,NA,NA,NA,""
"image-keyboard-response",359,281406,"0.0-4.115-2.115","drf5h4qc3fzzgem",263,"104.csv","","null","resources/images/fishbone.png","null","",NA,NA,NA,NA,""
"image-keyboard-response",360,281597,"0.0-4.116-0.116","drf5h4qc3fzzgem",263,"104.csv","","190","resources/trios/L1T4A3.jpg","39","restless",0.5,0.7,0.9,0.244032589562726,"true"
"image-keyboard-response",361,281998,"0.0-4.116-1.116","drf5h4qc3fzzgem",263,"104.csv","","null","resources/maskTrios/BBA3.jpg","null","",NA,NA,NA,NA,""
"image-keyboard-response",362,283199,"0.0-4.116-2.116","drf5h4qc3fzzgem",263,"104.csv","","null","resources/images/coin2.png","null","",NA,NA,NA,NA,""
"image-keyboard-response",363,283479,"0.0-4.117-0.117","drf5h4qc3fzzgem",263,"104.csv","","279","resources/trios/L1T4A3.jpg","39","restless",0.5,0.7,0.9,0.111723832652041,"true"
"image-keyboard-response",364,283880,"0.0-4.117-1.117","drf5h4qc3fzzgem",263,"104.csv","","null","resources/maskTrios/BBA3.jpg","null","",NA,NA,NA,NA,""
"image-keyboard-response",365,285082,"0.0-4.117-2.117","drf5h4qc3fzzgem",263,"104.csv","","null","resources/images/coin2.png","null","",NA,NA,NA,NA,""
"image-keyboard-response",366,285338,"0.0-4.118-0.118","drf5h4qc3fzzgem",263,"104.csv","","254.9999999999418","resources/trios/L1T4A3.jpg","39","restless",0.5,0.6,0.9,0.991737516552407,"false"
"image-keyboard-response",367,285740,"0.0-4.118-1.118","drf5h4qc3fzzgem",263,"104.csv","","null","resources/maskTrios/BBA3.jpg","null","",NA,NA,NA,NA,""
"image-keyboard-response",368,286942,"0.0-4.118-2.118","drf5h4qc3fzzgem",263,"104.csv","","null","resources/images/fishbone.png","null","",NA,NA,NA,NA,""
"image-keyboard-response",369,286964,"0.0-4.119-0.119","drf5h4qc3fzzgem",263,"104.csv","","21","resources/trios/L1T4A3.jpg","38","restless",0.5,0.6,0.9,0.116173848581201,"true"
"image-keyboard-response",370,287366,"0.0-4.119-1.119","drf5h4qc3fzzgem",263,"104.csv","","null","resources/maskTrios/BT4B.jpg","null","",NA,NA,NA,NA,""
"image-keyboard-response",371,288567,"0.0-4.119-2.119","drf5h4qc3fzzgem",263,"104.csv","","null","resources/images/coin2.png","null","",NA,NA,NA,NA,""
"image-keyboard-response",372,288836,"0.0-4.120-0.120","drf5h4qc3fzzgem",263,"104.csv","","268","resources/trios/L1T4A3.jpg","38","restless",0.5,0.6,0.9,0.592373219714913,"true"
"image-keyboard-response",373,289238,"0.0-4.120-1.120","drf5h4qc3fzzgem",263,"104.csv","","null","resources/maskTrios/BT4B.jpg","null","",NA,NA,NA,NA,""
"image-keyboard-response",374,290440,"0.0-4.120-2.120","drf5h4qc3fzzgem",263,"104.csv","","null","resources/images/coin2.png","null","",NA,NA,NA,NA,""
"image-keyboard-response",375,290745,"0.0-4.121-0.121","drf5h4qc3fzzgem",263,"104.csv","","304","resources/trios/L1T4A3.jpg","38","restless",0.5,0.6,0.9,0.711433599932404,"false"
"image-keyboard-response",376,291147,"0.0-4.121-1.121","drf5h4qc3fzzgem",263,"104.csv","","null","resources/maskTrios/BT4B.jpg","null","",NA,NA,NA,NA,""
"image-keyboard-response",377,292349,"0.0-4.121-2.121","drf5h4qc3fzzgem",263,"104.csv","","null","resources/images/fishbone.png","null","",NA,NA,NA,NA,""
"image-keyboard-response",378,292612,"0.0-4.122-0.122","drf5h4qc3fzzgem",263,"104.csv","","262","resources/trios/L1T4A3.jpg","37","restless",0.5,0.6,0.8,0.637636982187716,"false"
"image-keyboard-response",379,293013,"0.0-4.122-1.122","drf5h4qc3fzzgem",263,"104.csv","","null","resources/maskTrios/L1BB.jpg","null","",NA,NA,NA,NA,""
"image-keyboard-response",380,294214,"0.0-4.122-2.122","drf5h4qc3fzzgem",263,"104.csv","","null","resources/images/fishbone.png","null","",NA,NA,NA,NA,""
"image-keyboard-response",381,294500,"0.0-4.123-0.123","drf5h4qc3fzzgem",263,"104.csv","","284","resources/trios/L1T4A3.jpg","38","restless",0.5,0.6,0.8,0.857151199816298,"false"
"image-keyboard-response",382,294901,"0.0-4.123-1.123","drf5h4qc3fzzgem",263,"104.csv","","null","resources/maskTrios/BT4B.jpg","null","",NA,NA,NA,NA,""
"image-keyboard-response",383,296102,"0.0-4.123-2.123","drf5h4qc3fzzgem",263,"104.csv","","null","resources/images/fishbone.png","null","",NA,NA,NA,NA,""
"image-keyboard-response",384,296403,"0.0-4.124-0.124","drf5h4qc3fzzgem",263,"104.csv","","299","resources/trios/L1T4A3.jpg","37","restless",0.5,0.6,0.8,0.896057552009907,"false"
"image-keyboard-response",385,296804,"0.0-4.124-1.124","drf5h4qc3fzzgem",263,"104.csv","","null","resources/maskTrios/L1BB.jpg","null","",NA,NA,NA,NA,""
"image-keyboard-response",386,298006,"0.0-4.124-2.124","drf5h4qc3fzzgem",263,"104.csv","","null","resources/images/fishbone.png","null","",NA,NA,NA,NA,""
"image-keyboard-response",387,298339,"0.0-4.125-0.125","drf5h4qc3fzzgem",263,"104.csv","","332","resources/trios/L1T4A3.jpg","37","restless",0.5,0.6,0.8,0.622289544421105,"false"
"image-keyboard-response",388,298741,"0.0-4.125-1.125","drf5h4qc3fzzgem",263,"104.csv","","null","resources/maskTrios/L1BB.jpg","null","",NA,NA,NA,NA,""
"image-keyboard-response",389,299942,"0.0-4.125-2.125","drf5h4qc3fzzgem",263,"104.csv","","null","resources/images/fishbone.png","null","",NA,NA,NA,NA,""
"image-keyboard-response",390,300216,"0.0-4.126-0.126","drf5h4qc3fzzgem",263,"104.csv","","272","resources/trios/L1T4A3.jpg","37","restless",0.5,0.6,0.9,0.698071729091536,"false"
"image-keyboard-response",391,300617,"0.0-4.126-1.126","drf5h4qc3fzzgem",263,"104.csv","","null","resources/maskTrios/L1BB.jpg","null","",NA,NA,NA,NA,""
"image-keyboard-response",392,301818,"0.0-4.126-2.126","drf5h4qc3fzzgem",263,"104.csv","","null","resources/images/fishbone.png","null","",NA,NA,NA,NA,""
"image-keyboard-response",393,302082,"0.0-4.127-0.127","drf5h4qc3fzzgem",263,"104.csv","","263","resources/trios/L1T4A3.jpg","39","restless",0.5,0.6,0.9,0.283693722954739,"true"
"image-keyboard-response",394,302484,"0.0-4.127-1.127","drf5h4qc3fzzgem",263,"104.csv","","null","resources/maskTrios/BBA3.jpg","null","",NA,NA,NA,NA,""
"image-keyboard-response",395,303686,"0.0-4.127-2.127","drf5h4qc3fzzgem",263,"104.csv","","null","resources/images/coin2.png","null","",NA,NA,NA,NA,""
"image-keyboard-response",396,304024,"0.0-4.128-0.128","drf5h4qc3fzzgem",263,"104.csv","","337","resources/trios/L1T4A3.jpg","39","restless",0.5,0.6,0.9,0.0134683779271938,"true"
"image-keyboard-response",397,304426,"0.0-4.128-1.128","drf5h4qc3fzzgem",263,"104.csv","","null","resources/maskTrios/BBA3.jpg","null","",NA,NA,NA,NA,""
"image-keyboard-response",398,305627,"0.0-4.128-2.128","drf5h4qc3fzzgem",263,"104.csv","","null","resources/images/coin2.png","null","",NA,NA,NA,NA,""
"image-keyboard-response",399,305927,"0.0-4.129-0.129","drf5h4qc3fzzgem",263,"104.csv","","299","resources/trios/L1T4A3.jpg","39","restless",0.5,0.6,0.9,0.74923598202821,"true"
"image-keyboard-response",400,306329,"0.0-4.129-1.129","drf5h4qc3fzzgem",263,"104.csv","","null","resources/maskTrios/BBA3.jpg","null","",NA,NA,NA,NA,""
"image-keyboard-response",401,307530,"0.0-4.129-2.129","drf5h4qc3fzzgem",263,"104.csv","","null","resources/images/coin2.png","null","",NA,NA,NA,NA,""
"image-keyboard-response",402,307843,"0.0-4.130-0.130","drf5h4qc3fzzgem",263,"104.csv","","311","resources/trios/L1T4A3.jpg","39","restless",0.5,0.6,0.9,0.02761081340631,"true"
"image-keyboard-response",403,308245,"0.0-4.130-1.130","drf5h4qc3fzzgem",263,"104.csv","","null","resources/maskTrios/BBA3.jpg","null","",NA,NA,NA,NA,""
"image-keyboard-response",404,309446,"0.0-4.130-2.130","drf5h4qc3fzzgem",263,"104.csv","","null","resources/images/coin2.png","null","",NA,NA,NA,NA,""
"image-keyboard-response",405,309887,"0.0-4.131-0.131","drf5h4qc3fzzgem",263,"104.csv","","439","resources/trios/L1T4A3.jpg","39","restless",0.5,0.6,0.9,0.230565077254813,"true"
"image-keyboard-response",406,310288,"0.0-4.131-1.131","drf5h4qc3fzzgem",263,"104.csv","","null","resources/maskTrios/BBA3.jpg","null","",NA,NA,NA,NA,""
"image-keyboard-response",407,311490,"0.0-4.131-2.131","drf5h4qc3fzzgem",263,"104.csv","","null","resources/images/coin2.png","null","",NA,NA,NA,NA,""
"image-keyboard-response",408,311586,"0.0-4.132-0.132","drf5h4qc3fzzgem",263,"104.csv","","94","resources/trios/L1T4A3.jpg","39","restless",0.5,0.6,0.9,0.264235768920541,"true"
"image-keyboard-response",409,311988,"0.0-4.132-1.132","drf5h4qc3fzzgem",263,"104.csv","","null","resources/maskTrios/BBA3.jpg","null","",NA,NA,NA,NA,""
"image-keyboard-response",410,313189,"0.0-4.132-2.132","drf5h4qc3fzzgem",263,"104.csv","","null","resources/images/coin2.png","null","",NA,NA,NA,NA,""
"image-keyboard-response",411,313430,"0.0-4.133-0.133","drf5h4qc3fzzgem",263,"104.csv","","238.9999999999418","resources/trios/L1T4A3.jpg","39","restless",0.5,0.6,0.8,0.61394563175295,"true"
"image-keyboard-response",412,313831,"0.0-4.133-1.133","drf5h4qc3fzzgem",263,"104.csv","","null","resources/maskTrios/BBA3.jpg","null","",NA,NA,NA,NA,""
"image-keyboard-response",413,315033,"0.0-4.133-2.133","drf5h4qc3fzzgem",263,"104.csv","","null","resources/images/coin2.png","null","",NA,NA,NA,NA,""
"image-keyboard-response",414,315148,"0.0-4.134-0.134","drf5h4qc3fzzgem",263,"104.csv","","114","resources/trios/L1T4A3.jpg","39","restless",0.5,0.6,0.8,0.0406401505797217,"true"
"image-keyboard-response",415,315550,"0.0-4.134-1.134","drf5h4qc3fzzgem",263,"104.csv","","null","resources/maskTrios/BBA3.jpg","null","",NA,NA,NA,NA,""
"image-keyboard-response",416,316752,"0.0-4.134-2.134","drf5h4qc3fzzgem",263,"104.csv","","null","resources/images/coin2.png","null","",NA,NA,NA,NA,""
"image-keyboard-response",417,317141,"0.0-4.135-0.135","drf5h4qc3fzzgem",263,"104.csv","","388","resources/trios/L1T4A3.jpg","39","restless",0.5,0.6,0.8,0.91523118055821,"false"
"image-keyboard-response",418,317543,"0.0-4.135-1.135","drf5h4qc3fzzgem",263,"104.csv","","null","resources/maskTrios/BBA3.jpg","null","",NA,NA,NA,NA,""
"image-keyboard-response",419,318745,"0.0-4.135-2.135","drf5h4qc3fzzgem",263,"104.csv","","null","resources/images/fishbone.png","null","",NA,NA,NA,NA,""
"image-keyboard-response",420,318986,"0.0-4.136-0.136","drf5h4qc3fzzgem",263,"104.csv","","240","resources/trios/L1T4A3.jpg","38","restless",0.5,0.6,0.8,0.406275397635816,"true"
"image-keyboard-response",421,319388,"0.0-4.136-1.136","drf5h4qc3fzzgem",263,"104.csv","","null","resources/maskTrios/BT4B.jpg","null","",NA,NA,NA,NA,""
"image-keyboard-response",422,320590,"0.0-4.136-2.136","drf5h4qc3fzzgem",263,"104.csv","","null","resources/images/coin2.png","null","",NA,NA,NA,NA,""
"image-keyboard-response",423,320634,"0.0-4.137-0.137","drf5h4qc3fzzgem",263,"104.csv","","42","resources/trios/L1T4A3.jpg","38","restless",0.5,0.6,0.8,0.92420894669916,"false"
"image-keyboard-response",424,321035,"0.0-4.137-1.137","drf5h4qc3fzzgem",263,"104.csv","","null","resources/maskTrios/BT4B.jpg","null","",NA,NA,NA,NA,""
"image-keyboard-response",425,322237,"0.0-4.137-2.137","drf5h4qc3fzzgem",263,"104.csv","","null","resources/images/fishbone.png","null","",NA,NA,NA,NA,""
"image-keyboard-response",426,322525,"0.0-4.138-0.138","drf5h4qc3fzzgem",263,"104.csv","","287","resources/trios/L1T4A3.jpg","37","restless",0.5,0.6,0.8,0.276516703748759,"true"
"image-keyboard-response",427,322927,"0.0-4.138-1.138","drf5h4qc3fzzgem",263,"104.csv","","null","resources/maskTrios/L1BB.jpg","null","",NA,NA,NA,NA,""
"image-keyboard-response",428,324128,"0.0-4.138-2.138","drf5h4qc3fzzgem",263,"104.csv","","null","resources/images/coin2.png","null","",NA,NA,NA,NA,""
"image-keyboard-response",429,324380,"0.0-4.139-0.139","drf5h4qc3fzzgem",263,"104.csv","","251.0000000000582","resources/trios/L1T4A3.jpg","37","restless",0.6,0.6,0.8,0.84584256648719,"false"
"image-keyboard-response",430,324782,"0.0-4.139-1.139","drf5h4qc3fzzgem",263,"104.csv","","null","resources/maskTrios/L1BB.jpg","null","",NA,NA,NA,NA,""
"image-keyboard-response",431,325984,"0.0-4.139-2.139","drf5h4qc3fzzgem",263,"104.csv","","null","resources/images/fishbone.png","null","",NA,NA,NA,NA,""
"image-keyboard-response",432,326363,"0.0-4.140-0.140","drf5h4qc3fzzgem",263,"104.csv","","378","resources/trios/L1T4A3.jpg","38","restless",0.5,0.6,0.8,0.75698668784461,"false"
"image-keyboard-response",433,326765,"0.0-4.140-1.140","drf5h4qc3fzzgem",263,"104.csv","","null","resources/maskTrios/BT4B.jpg","null","",NA,NA,NA,NA,""
"image-keyboard-response",434,327967,"0.0-4.140-2.140","drf5h4qc3fzzgem",263,"104.csv","","null","resources/images/fishbone.png","null","",NA,NA,NA,NA,""
"image-keyboard-response",435,328239,"0.0-4.141-0.141","drf5h4qc3fzzgem",263,"104.csv","","271","resources/trios/L1T4A3.jpg","39","restless",0.5,0.6,0.8,0.75021155911904,"true"
"image-keyboard-response",436,328640,"0.0-4.141-1.141","drf5h4qc3fzzgem",263,"104.csv","","null","resources/maskTrios/BBA3.jpg","null","",NA,NA,NA,NA,""
"image-keyboard-response",437,329842,"0.0-4.141-2.141","drf5h4qc3fzzgem",263,"104.csv","","null","resources/images/coin2.png","null","",NA,NA,NA,NA,""
"image-keyboard-response",438,330138,"0.0-4.142-0.142","drf5h4qc3fzzgem",263,"104.csv","","295","resources/trios/L1T4A3.jpg","39","restless",0.5,0.6,0.8,0.0958874421638877,"true"
"image-keyboard-response",439,330539,"0.0-4.142-1.142","drf5h4qc3fzzgem",263,"104.csv","","null","resources/maskTrios/BBA3.jpg","null","",NA,NA,NA,NA,""
"image-keyboard-response",440,331741,"0.0-4.142-2.142","drf5h4qc3fzzgem",263,"104.csv","","null","resources/images/coin2.png","null","",NA,NA,NA,NA,""
"image-keyboard-response",441,332078,"0.0-4.143-0.143","drf5h4qc3fzzgem",263,"104.csv","","336","resources/trios/L1T4A3.jpg","39","restless",0.5,0.6,0.8,0.913657084556526,"false"
"image-keyboard-response",442,332479,"0.0-4.143-1.143","drf5h4qc3fzzgem",263,"104.csv","","null","resources/maskTrios/BBA3.jpg","null","",NA,NA,NA,NA,""
"image-keyboard-response",443,333680,"0.0-4.143-2.143","drf5h4qc3fzzgem",263,"104.csv","","null","resources/images/fishbone.png","null","",NA,NA,NA,NA,""
"image-keyboard-response",444,334015,"0.0-4.144-0.144","drf5h4qc3fzzgem",263,"104.csv","","334","resources/trios/L1T4A3.jpg","38","restless",0.5,0.6,0.8,0.912613119916144,"false"
"image-keyboard-response",445,334417,"0.0-4.144-1.144","drf5h4qc3fzzgem",263,"104.csv","","null","resources/maskTrios/BT4B.jpg","null","",NA,NA,NA,NA,""
"image-keyboard-response",446,335618,"0.0-4.144-2.144","drf5h4qc3fzzgem",263,"104.csv","","null","resources/images/fishbone.png","null","",NA,NA,NA,NA,""
"image-keyboard-response",447,335837,"0.0-4.145-0.145","drf5h4qc3fzzgem",263,"104.csv","","219","resources/trios/L1T4A3.jpg","37","restless",0.5,0.6,0.8,0.158465712809359,"true"
"image-keyboard-response",448,336239,"0.0-4.145-1.145","drf5h4qc3fzzgem",263,"104.csv","","null","resources/maskTrios/L1BB.jpg","null","",NA,NA,NA,NA,""
"image-keyboard-response",449,337440,"0.0-4.145-2.145","drf5h4qc3fzzgem",263,"104.csv","","null","resources/images/coin2.png","null","",NA,NA,NA,NA,""
"image-keyboard-response",450,337691,"0.0-4.146-0.146","drf5h4qc3fzzgem",263,"104.csv","","249","resources/trios/L1T4A3.jpg","37","restless",0.5,0.6,0.8,0.254141468731172,"true"
"image-keyboard-response",451,338093,"0.0-4.146-1.146","drf5h4qc3fzzgem",263,"104.csv","","null","resources/maskTrios/L1BB.jpg","null","",NA,NA,NA,NA,""
"image-keyboard-response",452,339295,"0.0-4.146-2.146","drf5h4qc3fzzgem",263,"104.csv","","null","resources/images/coin2.png","null","",NA,NA,NA,NA,""
"image-keyboard-response",453,339600,"0.0-4.147-0.147","drf5h4qc3fzzgem",263,"104.csv","","304","resources/trios/L1T4A3.jpg","37","restless",0.6,0.6,0.8,0.380772706699444,"true"
"image-keyboard-response",454,340002,"0.0-4.147-1.147","drf5h4qc3fzzgem",263,"104.csv","","null","resources/maskTrios/L1BB.jpg","null","",NA,NA,NA,NA,""
"image-keyboard-response",455,341203,"0.0-4.147-2.147","drf5h4qc3fzzgem",263,"104.csv","","null","resources/images/coin2.png","null","",NA,NA,NA,NA,""
"image-keyboard-response",456,341448,"0.0-4.148-0.148","drf5h4qc3fzzgem",263,"104.csv","","243","resources/trios/L1T4A3.jpg","37","restless",0.6,0.6,0.8,0.883477982921932,"false"
"image-keyboard-response",457,341850,"0.0-4.148-1.148","drf5h4qc3fzzgem",263,"104.csv","","null","resources/maskTrios/L1BB.jpg","null","",NA,NA,NA,NA,""
"image-keyboard-response",458,343052,"0.0-4.148-2.148","drf5h4qc3fzzgem",263,"104.csv","","null","resources/images/fishbone.png","null","",NA,NA,NA,NA,""
"image-keyboard-response",459,343329,"0.0-4.149-0.149","drf5h4qc3fzzgem",263,"104.csv","","275.9999999999418","resources/trios/L1T4A3.jpg","38","restless",0.6,0.6,0.7,0.424205388439512,"true"
"image-keyboard-response",460,343730,"0.0-4.149-1.149","drf5h4qc3fzzgem",263,"104.csv","","null","resources/maskTrios/BT4B.jpg","null","",NA,NA,NA,NA,""
"image-keyboard-response",461,344932,"0.0-4.149-2.149","drf5h4qc3fzzgem",263,"104.csv","","null","resources/images/coin2.png","null","",NA,NA,NA,NA,""
"image-keyboard-response",462,345175,"0.0-4.150-0.150","drf5h4qc3fzzgem",263,"104.csv","","242","resources/trios/L1T4A3.jpg","38","restless",0.6,0.6,0.7,0.458611333905297,"true"
"image-keyboard-response",463,345577,"0.0-4.150-1.150","drf5h4qc3fzzgem",263,"104.csv","","null","resources/maskTrios/BT4B.jpg","null","",NA,NA,NA,NA,""
"image-keyboard-response",464,346779,"0.0-4.150-2.150","drf5h4qc3fzzgem",263,"104.csv","","null","resources/images/coin2.png","null","",NA,NA,NA,NA,""
"image-keyboard-response",465,347023,"0.0-4.151-0.151","drf5h4qc3fzzgem",263,"104.csv","","244","resources/trios/L1T4A3.jpg","38","restless",0.6,0.5,0.7,0.709430112539697,"false"
"image-keyboard-response",466,347424,"0.0-4.151-1.151","drf5h4qc3fzzgem",263,"104.csv","","null","resources/maskTrios/BT4B.jpg","null","",NA,NA,NA,NA,""
"image-keyboard-response",467,348626,"0.0-4.151-2.151","drf5h4qc3fzzgem",263,"104.csv","","null","resources/images/fishbone.png","null","",NA,NA,NA,NA,""
"image-keyboard-response",468,348855,"0.0-4.152-0.152","drf5h4qc3fzzgem",263,"104.csv","","227","resources/trios/L1T4A3.jpg","39","restless",0.6,0.5,0.7,0.356727826845255,"true"
"image-keyboard-response",469,349257,"0.0-4.152-1.152","drf5h4qc3fzzgem",263,"104.csv","","null","resources/maskTrios/BBA3.jpg","null","",NA,NA,NA,NA,""
"image-keyboard-response",470,350458,"0.0-4.152-2.152","drf5h4qc3fzzgem",263,"104.csv","","null","resources/images/coin2.png","null","",NA,NA,NA,NA,""
"image-keyboard-response",471,350561,"0.0-4.153-0.153","drf5h4qc3fzzgem",263,"104.csv","","102","resources/trios/L1T4A3.jpg","39","restless",0.6,0.5,0.7,0.784827169761816,"false"
"image-keyboard-response",472,350963,"0.0-4.153-1.153","drf5h4qc3fzzgem",263,"104.csv","","null","resources/maskTrios/BBA3.jpg","null","",NA,NA,NA,NA,""
"image-keyboard-response",473,352165,"0.0-4.153-2.153","drf5h4qc3fzzgem",263,"104.csv","","null","resources/images/fishbone.png","null","",NA,NA,NA,NA,""
"image-keyboard-response",474,352318,"0.0-4.154-0.154","drf5h4qc3fzzgem",263,"104.csv","","152","resources/trios/L1T4A3.jpg","37","restless",0.7,0.5,0.8,0.0201670388611808,"true"
"image-keyboard-response",475,352720,"0.0-4.154-1.154","drf5h4qc3fzzgem",263,"104.csv","","null","resources/maskTrios/L1BB.jpg","null","",NA,NA,NA,NA,""
"image-keyboard-response",476,353922,"0.0-4.154-2.154","drf5h4qc3fzzgem",263,"104.csv","","null","resources/images/coin2.png","null","",NA,NA,NA,NA,""
"image-keyboard-response",477,354183,"0.0-4.155-0.155","drf5h4qc3fzzgem",263,"104.csv","","261","resources/trios/L1T4A3.jpg","37","restless",0.7,0.5,0.8,0.434671763228356,"true"
"image-keyboard-response",478,354585,"0.0-4.155-1.155","drf5h4qc3fzzgem",263,"104.csv","","null","resources/maskTrios/L1BB.jpg","null","",NA,NA,NA,NA,""
"image-keyboard-response",479,355786,"0.0-4.155-2.155","drf5h4qc3fzzgem",263,"104.csv","","null","resources/images/coin2.png","null","",NA,NA,NA,NA,""
"image-keyboard-response",480,356087,"0.0-4.156-0.156","drf5h4qc3fzzgem",263,"104.csv","","300","resources/trios/L1T4A3.jpg","37","restless",0.7,0.5,0.8,0.669852163962374,"true"
"image-keyboard-response",481,356489,"0.0-4.156-1.156","drf5h4qc3fzzgem",263,"104.csv","","null","resources/maskTrios/L1BB.jpg","null","",NA,NA,NA,NA,""
"image-keyboard-response",482,357690,"0.0-4.156-2.156","drf5h4qc3fzzgem",263,"104.csv","","null","resources/images/coin2.png","null","",NA,NA,NA,NA,""
"image-keyboard-response",483,358082,"0.0-4.157-0.157","drf5h4qc3fzzgem",263,"104.csv","","391","resources/trios/L1T4A3.jpg","37","restless",0.7,0.5,0.8,0.231607400448243,"true"
"image-keyboard-response",484,358484,"0.0-4.157-1.157","drf5h4qc3fzzgem",263,"104.csv","","null","resources/maskTrios/L1BB.jpg","null","",NA,NA,NA,NA,""
"image-keyboard-response",485,359685,"0.0-4.157-2.157","drf5h4qc3fzzgem",263,"104.csv","","null","resources/images/coin2.png","null","",NA,NA,NA,NA,""
"image-keyboard-response",486,360027,"0.0-4.158-0.158","drf5h4qc3fzzgem",263,"104.csv","","341","resources/trios/L1T4A3.jpg","37","restless",0.7,0.5,0.8,0.286173951551358,"true"
"image-keyboard-response",487,360429,"0.0-4.158-1.158","drf5h4qc3fzzgem",263,"104.csv","","null","resources/maskTrios/L1BB.jpg","null","",NA,NA,NA,NA,""
"image-keyboard-response",488,361631,"0.0-4.158-2.158","drf5h4qc3fzzgem",263,"104.csv","","null","resources/images/coin2.png","null","",NA,NA,NA,NA,""
"image-keyboard-response",489,361723,"0.0-4.159-0.159","drf5h4qc3fzzgem",263,"104.csv","","91","resources/trios/L1T4A3.jpg","37","restless",0.7,0.5,0.9,0.187874000089748,"true"
"image-keyboard-response",490,362124,"0.0-4.159-1.159","drf5h4qc3fzzgem",263,"104.csv","","null","resources/maskTrios/L1BB.jpg","null","",NA,NA,NA,NA,""
"image-keyboard-response",491,363326,"0.0-4.159-2.159","drf5h4qc3fzzgem",263,"104.csv","","null","resources/images/coin2.png","null","",NA,NA,NA,NA,""
"image-keyboard-response",492,363575,"0.0-4.160-0.160","drf5h4qc3fzzgem",263,"104.csv","","248","resources/trios/L1T4A3.jpg","37","restless",0.7,0.5,0.9,0.990508483326096,"false"
"image-keyboard-response",493,363977,"0.0-4.160-1.160","drf5h4qc3fzzgem",263,"104.csv","","null","resources/maskTrios/L1BB.jpg","null","",NA,NA,NA,NA,""
"image-keyboard-response",494,365178,"0.0-4.160-2.160","drf5h4qc3fzzgem",263,"104.csv","","null","resources/images/fishbone.png","null","",NA,NA,NA,NA,""
"image-keyboard-response",495,365418,"0.0-4.161-0.161","drf5h4qc3fzzgem",263,"104.csv","","239","resources/trios/L1T4A3.jpg","38","restless",0.7,0.5,0.9,0.879688605435923,"false"
"image-keyboard-response",496,365820,"0.0-4.161-1.161","drf5h4qc3fzzgem",263,"104.csv","","null","resources/maskTrios/BT4B.jpg","null","",NA,NA,NA,NA,""
"image-keyboard-response",497,367022,"0.0-4.161-2.161","drf5h4qc3fzzgem",263,"104.csv","","null","resources/images/fishbone.png","null","",NA,NA,NA,NA,""
"image-keyboard-response",498,367279,"0.0-4.162-0.162","drf5h4qc3fzzgem",263,"104.csv","","257","resources/trios/L1T4A3.jpg","39","restless",0.7,0.5,0.9,0.649889877121703,"true"
"image-keyboard-response",499,367680,"0.0-4.162-1.162","drf5h4qc3fzzgem",263,"104.csv","","null","resources/maskTrios/BBA3.jpg","null","",NA,NA,NA,NA,""
"image-keyboard-response",500,368882,"0.0-4.162-2.162","drf5h4qc3fzzgem",263,"104.csv","","null","resources/images/coin2.png","null","",NA,NA,NA,NA,""
"image-keyboard-response",501,369151,"0.0-4.163-0.163","drf5h4qc3fzzgem",263,"104.csv","","268","resources/trios/L1T4A3.jpg","39","restless",0.7,0.5,0.9,0.0102947285134436,"true"
"image-keyboard-response",502,369553,"0.0-4.163-1.163","drf5h4qc3fzzgem",263,"104.csv","","null","resources/maskTrios/BBA3.jpg","null","",NA,NA,NA,NA,""
"image-keyboard-response",503,370755,"0.0-4.163-2.163","drf5h4qc3fzzgem",263,"104.csv","","null","resources/images/coin2.png","null","",NA,NA,NA,NA,""
"image-keyboard-response",504,371010,"0.0-4.164-0.164","drf5h4qc3fzzgem",263,"104.csv","","254","resources/trios/L1T4A3.jpg","39","restless",0.7,0.5,0.9,0.0536708111797644,"true"
"image-keyboard-response",505,371412,"0.0-4.164-1.164","drf5h4qc3fzzgem",263,"104.csv","","null","resources/maskTrios/BBA3.jpg","null","",NA,NA,NA,NA,""
"image-keyboard-response",506,372613,"0.0-4.164-2.164","drf5h4qc3fzzgem",263,"104.csv","","null","resources/images/coin2.png","null","",NA,NA,NA,NA,""
"image-keyboard-response",507,372905,"0.0-4.165-0.165","drf5h4qc3fzzgem",263,"104.csv","","292","resources/trios/L1T4A3.jpg","39","restless",0.7,0.5,0.9,0.492845361956603,"true"
"image-keyboard-response",508,373307,"0.0-4.165-1.165","drf5h4qc3fzzgem",263,"104.csv","","null","resources/maskTrios/BBA3.jpg","null","",NA,NA,NA,NA,""
"image-keyboard-response",509,374509,"0.0-4.165-2.165","drf5h4qc3fzzgem",263,"104.csv","","null","resources/images/coin2.png","null","",NA,NA,NA,NA,""
"image-keyboard-response",510,374779,"0.0-4.166-0.166","drf5h4qc3fzzgem",263,"104.csv","","269","resources/trios/L1T4A3.jpg","39","restless",0.7,0.5,0.9,0.0409381941368859,"true"
"image-keyboard-response",511,375180,"0.0-4.166-1.166","drf5h4qc3fzzgem",263,"104.csv","","null","resources/maskTrios/BBA3.jpg","null","",NA,NA,NA,NA,""
"image-keyboard-response",512,376382,"0.0-4.166-2.166","drf5h4qc3fzzgem",263,"104.csv","","null","resources/images/coin2.png","null","",NA,NA,NA,NA,""
"image-keyboard-response",513,376653,"0.0-4.167-0.167","drf5h4qc3fzzgem",263,"104.csv","","270.0000000000582","resources/trios/L1T4A3.jpg","39","restless",0.7,0.5,0.9,0.0949049330848677,"true"
"image-keyboard-response",514,377054,"0.0-4.167-1.167","drf5h4qc3fzzgem",263,"104.csv","","null","resources/maskTrios/BBA3.jpg","null","",NA,NA,NA,NA,""
"image-keyboard-response",515,378255,"0.0-4.167-2.167","drf5h4qc3fzzgem",263,"104.csv","","null","resources/images/coin2.png","null","",NA,NA,NA,NA,""
"image-keyboard-response",516,378509,"0.0-4.168-0.168","drf5h4qc3fzzgem",263,"104.csv","","254","resources/trios/L1T4A3.jpg","39","restless",0.7,0.5,0.8,0.593756464585194,"true"
"image-keyboard-response",517,378911,"0.0-4.168-1.168","drf5h4qc3fzzgem",263,"104.csv","","null","resources/maskTrios/BBA3.jpg","null","",NA,NA,NA,NA,""
"image-keyboard-response",518,380113,"0.0-4.168-2.168","drf5h4qc3fzzgem",263,"104.csv","","null","resources/images/coin2.png","null","",NA,NA,NA,NA,""
"image-keyboard-response",519,380211,"0.0-4.169-0.169","drf5h4qc3fzzgem",263,"104.csv","","98","resources/trios/L1T4A3.jpg","39","restless",0.6,0.5,0.8,0.0494311457448076,"true"
"image-keyboard-response",520,380612,"0.0-4.169-1.169","drf5h4qc3fzzgem",263,"104.csv","","null","resources/maskTrios/BBA3.jpg","null","",NA,NA,NA,NA,""
"image-keyboard-response",521,381814,"0.0-4.169-2.169","drf5h4qc3fzzgem",263,"104.csv","","null","resources/images/coin2.png","null","",NA,NA,NA,NA,""
"image-keyboard-response",522,382115,"0.0-4.170-0.170","drf5h4qc3fzzgem",263,"104.csv","","301","resources/trios/L1T4A3.jpg","39","restless",0.6,0.5,0.8,0.493008478157864,"true"
"image-keyboard-response",523,382516,"0.0-4.170-1.170","drf5h4qc3fzzgem",263,"104.csv","","null","resources/maskTrios/BBA3.jpg","null","",NA,NA,NA,NA,""
"image-keyboard-response",524,383718,"0.0-4.170-2.170","drf5h4qc3fzzgem",263,"104.csv","","null","resources/images/coin2.png","null","",NA,NA,NA,NA,""
"image-keyboard-response",525,383934,"0.0-4.171-0.171","drf5h4qc3fzzgem",263,"104.csv","","215","resources/trios/L1T4A3.jpg","39","restless",0.6,0.5,0.8,0.0199964442468429,"true"
"image-keyboard-response",526,384336,"0.0-4.171-1.171","drf5h4qc3fzzgem",263,"104.csv","","null","resources/maskTrios/BBA3.jpg","null","",NA,NA,NA,NA,""
"image-keyboard-response",527,385538,"0.0-4.171-2.171","drf5h4qc3fzzgem",263,"104.csv","","null","resources/images/coin2.png","null","",NA,NA,NA,NA,""
"image-keyboard-response",528,385791,"0.0-4.172-0.172","drf5h4qc3fzzgem",263,"104.csv","","253","resources/trios/L1T4A3.jpg","39","restless",0.6,0.5,0.8,0.192985490168512,"true"
"image-keyboard-response",529,386193,"0.0-4.172-1.172","drf5h4qc3fzzgem",263,"104.csv","","null","resources/maskTrios/BBA3.jpg","null","",NA,NA,NA,NA,""
"image-keyboard-response",530,387395,"0.0-4.172-2.172","drf5h4qc3fzzgem",263,"104.csv","","null","resources/images/coin2.png","null","",NA,NA,NA,NA,""
"image-keyboard-response",531,387407,"0.0-4.173-0.173","drf5h4qc3fzzgem",263,"104.csv","","12","resources/trios/L1T4A3.jpg","39","restless",0.6,0.5,0.8,0.19369868282659,"true"
"image-keyboard-response",532,387808,"0.0-4.173-1.173","drf5h4qc3fzzgem",263,"104.csv","","null","resources/maskTrios/BBA3.jpg","null","",NA,NA,NA,NA,""
"image-keyboard-response",533,389009,"0.0-4.173-2.173","drf5h4qc3fzzgem",263,"104.csv","","null","resources/images/coin2.png","null","",NA,NA,NA,NA,""
"image-keyboard-response",534,389154,"0.0-4.174-0.174","drf5h4qc3fzzgem",263,"104.csv","","144","resources/trios/L1T4A3.jpg","39","restless",0.6,0.5,0.8,0.450225283756723,"true"
"image-keyboard-response",535,389556,"0.0-4.174-1.174","drf5h4qc3fzzgem",263,"104.csv","","null","resources/maskTrios/BBA3.jpg","null","",NA,NA,NA,NA,""
"image-keyboard-response",536,390758,"0.0-4.174-2.174","drf5h4qc3fzzgem",263,"104.csv","","null","resources/images/coin2.png","null","",NA,NA,NA,NA,""
"image-keyboard-response",537,391043,"0.0-4.175-0.175","drf5h4qc3fzzgem",263,"104.csv","","285","resources/trios/L1T4A3.jpg","39","restless",0.6,0.5,0.7,0.683713416218399,"true"
"image-keyboard-response",538,391444,"0.0-4.175-1.175","drf5h4qc3fzzgem",263,"104.csv","","null","resources/maskTrios/BBA3.jpg","null","",NA,NA,NA,NA,""
"image-keyboard-response",539,392646,"0.0-4.175-2.175","drf5h4qc3fzzgem",263,"104.csv","","null","resources/images/coin2.png","null","",NA,NA,NA,NA,""
"image-keyboard-response",540,392850,"0.0-4.176-0.176","drf5h4qc3fzzgem",263,"104.csv","","203","resources/trios/L1T4A3.jpg","39","restless",0.6,0.5,0.7,0.590360906520601,"true"
"image-keyboard-response",541,393252,"0.0-4.176-1.176","drf5h4qc3fzzgem",263,"104.csv","","null","resources/maskTrios/BBA3.jpg","null","",NA,NA,NA,NA,""
"image-keyboard-response",542,394454,"0.0-4.176-2.176","drf5h4qc3fzzgem",263,"104.csv","","null","resources/images/coin2.png","null","",NA,NA,NA,NA,""
"image-keyboard-response",543,394664,"0.0-4.177-0.177","drf5h4qc3fzzgem",263,"104.csv","","210.0000000000582","resources/trios/L1T4A3.jpg","39","restless",0.6,0.5,0.7,0.848146779943668,"false"
"image-keyboard-response",544,395065,"0.0-4.177-1.177","drf5h4qc3fzzgem",263,"104.csv","","null","resources/maskTrios/BBA3.jpg","null","",NA,NA,NA,NA,""
"image-keyboard-response",545,396267,"0.0-4.177-2.177","drf5h4qc3fzzgem",263,"104.csv","","null","resources/images/fishbone.png","null","",NA,NA,NA,NA,""
"image-keyboard-response",546,396497,"0.0-4.178-0.178","drf5h4qc3fzzgem",263,"104.csv","","229","resources/trios/L1T4A3.jpg","38","restless",0.5,0.5,0.7,0.352107595883006,"true"
"image-keyboard-response",547,396899,"0.0-4.178-1.178","drf5h4qc3fzzgem",263,"104.csv","","null","resources/maskTrios/BT4B.jpg","null","",NA,NA,NA,NA,""
"image-keyboard-response",548,398100,"0.0-4.178-2.178","drf5h4qc3fzzgem",263,"104.csv","","null","resources/images/coin2.png","null","",NA,NA,NA,NA,""
"image-keyboard-response",549,398388,"0.0-4.179-0.179","drf5h4qc3fzzgem",263,"104.csv","","287","resources/trios/L1T4A3.jpg","38","restless",0.5,0.5,0.7,0.0654955821042571,"true"
"image-keyboard-response",550,398789,"0.0-4.179-1.179","drf5h4qc3fzzgem",263,"104.csv","","null","resources/maskTrios/BT4B.jpg","null","",NA,NA,NA,NA,""
"image-keyboard-response",551,399990,"0.0-4.179-2.179","drf5h4qc3fzzgem",263,"104.csv","","null","resources/images/coin2.png","null","",NA,NA,NA,NA,""
"image-keyboard-response",552,400217,"0.0-4.180-0.180","drf5h4qc3fzzgem",263,"104.csv","","224.9999999999418","resources/trios/L1T4A3.jpg","38","restless",0.5,0.4,0.7,0.725412364609161,"false"
"image-keyboard-response",553,400618,"0.0-4.180-1.180","drf5h4qc3fzzgem",263,"104.csv","","null","resources/maskTrios/BT4B.jpg","null","",NA,NA,NA,NA,""
"image-keyboard-response",554,401820,"0.0-4.180-2.180","drf5h4qc3fzzgem",263,"104.csv","","null","resources/images/fishbone.png","null","",NA,NA,NA,NA,""
"image-keyboard-response",555,402058,"0.0-4.181-0.181","drf5h4qc3fzzgem",263,"104.csv","","237","resources/trios/L1T4A3.jpg","37","restless",0.5,0.3,0.6,0.0178241344466691,"true"
"image-keyboard-response",556,402460,"0.0-4.181-1.181","drf5h4qc3fzzgem",263,"104.csv","","null","resources/maskTrios/L1BB.jpg","null","",NA,NA,NA,NA,""
"image-keyboard-response",557,403660,"0.0-4.181-2.181","drf5h4qc3fzzgem",263,"104.csv","","null","resources/images/coin2.png","null","",NA,NA,NA,NA,""
"image-keyboard-response",558,403776,"0.0-4.182-0.182","drf5h4qc3fzzgem",263,"104.csv","","115","resources/trios/L1T4A3.jpg","37","restless",0.5,0.3,0.6,0.293783318508102,"true"
"image-keyboard-response",559,404178,"0.0-4.182-1.182","drf5h4qc3fzzgem",263,"104.csv","","null","resources/maskTrios/L1BB.jpg","null","",NA,NA,NA,NA,""
"image-keyboard-response",560,405379,"0.0-4.182-2.182","drf5h4qc3fzzgem",263,"104.csv","","null","resources/images/coin2.png","null","",NA,NA,NA,NA,""
"image-keyboard-response",561,405604,"0.0-4.183-0.183","drf5h4qc3fzzgem",263,"104.csv","","224.0000000000582","resources/trios/L1T4A3.jpg","37","restless",0.5,0.3,0.6,0.952179895170145,"false"
"image-keyboard-response",562,406006,"0.0-4.183-1.183","drf5h4qc3fzzgem",263,"104.csv","","null","resources/maskTrios/L1BB.jpg","null","",NA,NA,NA,NA,""
"image-keyboard-response",563,407208,"0.0-4.183-2.183","drf5h4qc3fzzgem",263,"104.csv","","null","resources/images/fishbone.png","null","",NA,NA,NA,NA,""
"image-keyboard-response",564,407470,"0.0-4.184-0.184","drf5h4qc3fzzgem",263,"104.csv","","261","resources/trios/L1T4A3.jpg","39","restless",0.5,0.3,0.6,0.277600925051657,"true"
"image-keyboard-response",565,407872,"0.0-4.184-1.184","drf5h4qc3fzzgem",263,"104.csv","","null","resources/maskTrios/BBA3.jpg","null","",NA,NA,NA,NA,""
"image-keyboard-response",566,409074,"0.0-4.184-2.184","drf5h4qc3fzzgem",263,"104.csv","","null","resources/images/coin2.png","null","",NA,NA,NA,NA,""
"image-keyboard-response",567,409347,"0.0-4.185-0.185","drf5h4qc3fzzgem",263,"104.csv","","272.9999999999418","resources/trios/L1T4A3.jpg","39","restless",0.5,0.3,0.6,0.381951689619978,"true"
"image-keyboard-response",568,409749,"0.0-4.185-1.185","drf5h4qc3fzzgem",263,"104.csv","","null","resources/maskTrios/BBA3.jpg","null","",NA,NA,NA,NA,""
"image-keyboard-response",569,410951,"0.0-4.185-2.185","drf5h4qc3fzzgem",263,"104.csv","","null","resources/images/coin2.png","null","",NA,NA,NA,NA,""
"image-keyboard-response",570,411220,"0.0-4.186-0.186","drf5h4qc3fzzgem",263,"104.csv","","268","resources/trios/L1T4A3.jpg","39","restless",0.5,0.3,0.6,0.266164372840747,"true"
"image-keyboard-response",571,411622,"0.0-4.186-1.186","drf5h4qc3fzzgem",263,"104.csv","","null","resources/maskTrios/BBA3.jpg","null","",NA,NA,NA,NA,""
"image-keyboard-response",572,412824,"0.0-4.186-2.186","drf5h4qc3fzzgem",263,"104.csv","","null","resources/images/coin2.png","null","",NA,NA,NA,NA,""
"image-keyboard-response",573,413073,"0.0-4.187-0.187","drf5h4qc3fzzgem",263,"104.csv","","247.9999999999418","resources/trios/L1T4A3.jpg","39","restless",0.5,0.3,0.6,0.813707790723862,"false"
"image-keyboard-response",574,413475,"0.0-4.187-1.187","drf5h4qc3fzzgem",263,"104.csv","","null","resources/maskTrios/BBA3.jpg","null","",NA,NA,NA,NA,""
"image-keyboard-response",575,414676,"0.0-4.187-2.187","drf5h4qc3fzzgem",263,"104.csv","","null","resources/images/fishbone.png","null","",NA,NA,NA,NA,""
"image-keyboard-response",576,415003,"0.0-4.188-0.188","drf5h4qc3fzzgem",263,"104.csv","","326.0000000000582","resources/trios/L1T4A3.jpg","38","restless",0.5,0.3,0.6,0.963838621915417,"false"
"image-keyboard-response",577,415405,"0.0-4.188-1.188","drf5h4qc3fzzgem",263,"104.csv","","null","resources/maskTrios/BT4B.jpg","null","",NA,NA,NA,NA,""
"image-keyboard-response",578,416606,"0.0-4.188-2.188","drf5h4qc3fzzgem",263,"104.csv","","null","resources/images/fishbone.png","null","",NA,NA,NA,NA,""
"image-keyboard-response",579,416693,"0.0-4.189-0.189","drf5h4qc3fzzgem",263,"104.csv","","86.00000000005821","resources/trios/L1T4A3.jpg","37","restless",0.5,0.3,0.6,0.987977476153725,"false"
"image-keyboard-response",580,417094,"0.0-4.189-1.189","drf5h4qc3fzzgem",263,"104.csv","","null","resources/maskTrios/L1BB.jpg","null","",NA,NA,NA,NA,""
"image-keyboard-response",581,418296,"0.0-4.189-2.189","drf5h4qc3fzzgem",263,"104.csv","","null","resources/images/fishbone.png","null","",NA,NA,NA,NA,""
"image-keyboard-response",582,418559,"0.0-4.190-0.190","drf5h4qc3fzzgem",263,"104.csv","","263","resources/trios/L1T4A3.jpg","38","restless",0.5,0.3,0.6,0.935604906943457,"false"
"image-keyboard-response",583,418961,"0.0-4.190-1.190","drf5h4qc3fzzgem",263,"104.csv","","null","resources/maskTrios/BT4B.jpg","null","",NA,NA,NA,NA,""
"image-keyboard-response",584,420163,"0.0-4.190-2.190","drf5h4qc3fzzgem",263,"104.csv","","null","resources/images/fishbone.png","null","",NA,NA,NA,NA,""
"image-keyboard-response",585,420590,"0.0-4.191-0.191","drf5h4qc3fzzgem",263,"104.csv","","425.9999999999418","resources/trios/L1T4A3.jpg","38","restless",0.5,0.3,0.6,0.52650055201481,"false"
"image-keyboard-response",586,420992,"0.0-4.191-1.191","drf5h4qc3fzzgem",263,"104.csv","","null","resources/maskTrios/BT4B.jpg","null","",NA,NA,NA,NA,""
"image-keyboard-response",587,422194,"0.0-4.191-2.191","drf5h4qc3fzzgem",263,"104.csv","","null","resources/images/fishbone.png","null","",NA,NA,NA,NA,""
"image-keyboard-response",588,422604,"0.0-4.192-0.192","drf5h4qc3fzzgem",263,"104.csv","","410","resources/trios/L1T4A3.jpg","39","restless",0.5,0.2,0.6,0.230223960431279,"true"
"image-keyboard-response",589,423006,"0.0-4.192-1.192","drf5h4qc3fzzgem",263,"104.csv","","null","resources/maskTrios/BBA3.jpg","null","",NA,NA,NA,NA,""
"image-keyboard-response",590,424208,"0.0-4.192-2.192","drf5h4qc3fzzgem",263,"104.csv","","null","resources/images/coin2.png","null","",NA,NA,NA,NA,""
"image-keyboard-response",591,424515,"0.0-4.193-0.193","drf5h4qc3fzzgem",263,"104.csv","","306.0000000000582","resources/trios/L1T4A3.jpg","39","restless",0.6,0.2,0.6,0.241506047477186,"true"
"image-keyboard-response",592,424917,"0.0-4.193-1.193","drf5h4qc3fzzgem",263,"104.csv","","null","resources/maskTrios/BBA3.jpg","null","",NA,NA,NA,NA,""
"image-keyboard-response",593,426119,"0.0-4.193-2.193","drf5h4qc3fzzgem",263,"104.csv","","null","resources/images/coin2.png","null","",NA,NA,NA,NA,""
"image-keyboard-response",594,426448,"0.0-4.194-0.194","drf5h4qc3fzzgem",263,"104.csv","","328","resources/trios/L1T4A3.jpg","39","restless",0.6,0.2,0.5,0.919930834908576,"false"
"image-keyboard-response",595,426849,"0.0-4.194-1.194","drf5h4qc3fzzgem",263,"104.csv","","null","resources/maskTrios/BBA3.jpg","null","",NA,NA,NA,NA,""
"image-keyboard-response",596,428051,"0.0-4.194-2.194","drf5h4qc3fzzgem",263,"104.csv","","null","resources/images/fishbone.png","null","",NA,NA,NA,NA,""
"image-keyboard-response",597,428374,"0.0-4.195-0.195","drf5h4qc3fzzgem",263,"104.csv","","322","resources/trios/L1T4A3.jpg","38","restless",0.6,0.2,0.5,0.880339111726471,"false"
"image-keyboard-response",598,428776,"0.0-4.195-1.195","drf5h4qc3fzzgem",263,"104.csv","","null","resources/maskTrios/BT4B.jpg","null","",NA,NA,NA,NA,""
"image-keyboard-response",599,429978,"0.0-4.195-2.195","drf5h4qc3fzzgem",263,"104.csv","","null","resources/images/fishbone.png","null","",NA,NA,NA,NA,""
"image-keyboard-response",600,430205,"0.0-4.196-0.196","drf5h4qc3fzzgem",263,"104.csv","","226","resources/trios/L1T4A3.jpg","37","restless",0.6,0.1,0.5,0.343005857218612,"true"
"image-keyboard-response",601,430606,"0.0-4.196-1.196","drf5h4qc3fzzgem",263,"104.csv","","null","resources/maskTrios/L1BB.jpg","null","",NA,NA,NA,NA,""
"image-keyboard-response",602,431807,"0.0-4.196-2.196","drf5h4qc3fzzgem",263,"104.csv","","null","resources/images/coin2.png","null","",NA,NA,NA,NA,""
"image-keyboard-response",603,432101,"0.0-4.197-0.197","drf5h4qc3fzzgem",263,"104.csv","","292","resources/trios/L1T4A3.jpg","37","restless",0.6,0.1,0.5,0.798880393841063,"false"
"image-keyboard-response",604,432503,"0.0-4.197-1.197","drf5h4qc3fzzgem",263,"104.csv","","null","resources/maskTrios/L1BB.jpg","null","",NA,NA,NA,NA,""
"image-keyboard-response",605,433704,"0.0-4.197-2.197","drf5h4qc3fzzgem",263,"104.csv","","null","resources/images/fishbone.png","null","",NA,NA,NA,NA,""
"image-keyboard-response",606,433971,"0.0-4.198-0.198","drf5h4qc3fzzgem",263,"104.csv","","266","resources/trios/L1T4A3.jpg","38","restless",0.6,0.1,0.5,0.487186965613397,"false"
"image-keyboard-response",607,434373,"0.0-4.198-1.198","drf5h4qc3fzzgem",263,"104.csv","","null","resources/maskTrios/BT4B.jpg","null","",NA,NA,NA,NA,""
"image-keyboard-response",608,435575,"0.0-4.198-2.198","drf5h4qc3fzzgem",263,"104.csv","","null","resources/images/fishbone.png","null","",NA,NA,NA,NA,""
"image-keyboard-response",609,435854,"0.0-4.199-0.199","drf5h4qc3fzzgem",263,"104.csv","","279","resources/trios/L1T4A3.jpg","39","restless",0.5,0.1,0.5,0.278696022962843,"true"
"image-keyboard-response",610,436256,"0.0-4.199-1.199","drf5h4qc3fzzgem",263,"104.csv","","null","resources/maskTrios/BBA3.jpg","null","",NA,NA,NA,NA,""
"image-keyboard-response",611,437458,"0.0-4.199-2.199","drf5h4qc3fzzgem",263,"104.csv","","null","resources/images/coin2.png","null","",NA,NA,NA,NA,""
"survey-text",612,463770,"0.0-5.0","drf5h4qc3fzzgem",263,"104.csv","","26311.00000000006","","","",NA,NA,NA,NA,""
