"trial_type","trial_index","time_elapsed","internal_node_id","subject","participantCode","walkNumber","success","rt","stimulus","key_press","test_part","leftProb","midProb","rightProb","generatedNum","correct"
"pavlovia",0,916,"0.0-0.0","cc9tfmds0xs9gyh",282,"115.csv","","","","","",NA,NA,NA,NA,""
"fullscreen",1,3943,"0.0-1.0","cc9tfmds0xs9gyh",282,"115.csv","true","","","","",NA,NA,NA,NA,""
"survey-html-form",2,15599,"0.0-2.0","cc9tfmds0xs9gyh",282,"115.csv","","11652.800000011921","","","",NA,NA,NA,NA,""
"image-keyboard-response",3,23169,"0.0-3.0-0.0","cc9tfmds0xs9gyh",282,"115.csv","","7566","resources/images/parrot_nobg.png","13","",NA,NA,NA,NA,""
"image-keyboard-response",4,26184,"0.0-3.0-1.0","cc9tfmds0xs9gyh",282,"115.csv","","null","resources/image_sets/111.png","null","",NA,NA,NA,NA,""
"image-keyboard-response",5,31497,"0.0-3.0-2.0","cc9tfmds0xs9gyh",282,"115.csv","","5310.9000000059605","resources/image_sets/left_highlight.png","37","",NA,NA,NA,NA,""
"image-keyboard-response",6,33025,"0.0-3.0-3.0","cc9tfmds0xs9gyh",282,"115.csv","","1526.199999988079","resources/image_sets/mid_highlight.png","38","",NA,NA,NA,NA,""
"image-keyboard-response",7,33537,"0.0-3.0-4.0","cc9tfmds0xs9gyh",282,"115.csv","","510.5","resources/image_sets/right_highlight.png","39","",NA,NA,NA,NA,""
"image-keyboard-response",8,37608,"0.0-3.0-5.0","cc9tfmds0xs9gyh",282,"115.csv","","4069.800000011921","resources/image_sets/111.png","13","",NA,NA,NA,NA,""
"image-keyboard-response",9,39192,"0.0-3.0-6.0","cc9tfmds0xs9gyh",282,"115.csv","","1582.9000000059605","resources/images/coin2.png","13","",NA,NA,NA,NA,""
"image-keyboard-response",10,40784,"0.0-3.0-7.0","cc9tfmds0xs9gyh",282,"115.csv","","1591.0999999940395","resources/images/fishbone.png","13","",NA,NA,NA,NA,""
"html-keyboard-response",11,45496,"0.0-3.0-8.0","cc9tfmds0xs9gyh",282,"115.csv","","4710.300000011921","<p>You can track your coin total on the top right of your screen. </p><p>At the end of your journey you will be directed to a survey, so please click on the link before exiting the task</p><p>Press Enter to begin</p>","13","",NA,NA,NA,NA,""
"image-keyboard-response",12,47752,"0.0-4.0-0.0","cc9tfmds0xs9gyh",282,"115.csv","","2253.5999999940395","resources/trios/L1T4A3.jpg","37","restless",0.7,0.9,0.3,0.607216907261239,"true"
"image-keyboard-response",13,48156,"0.0-4.0-1.0","cc9tfmds0xs9gyh",282,"115.csv","","null","resources/maskTrios/L1BB.jpg","null","",NA,NA,NA,NA,""
"image-keyboard-response",14,49361,"0.0-4.0-2.0","cc9tfmds0xs9gyh",282,"115.csv","","null","resources/images/coin2.png","null","",NA,NA,NA,NA,""
"image-keyboard-response",15,51336,"0.0-4.1-0.1","cc9tfmds0xs9gyh",282,"115.csv","","1972.5","resources/trios/L1T4A3.jpg","38","restless",0.7,0.8,0.3,0.416203420423474,"true"
"image-keyboard-response",16,51739,"0.0-4.1-1.1","cc9tfmds0xs9gyh",282,"115.csv","","null","resources/maskTrios/BT4B.jpg","null","",NA,NA,NA,NA,""
"image-keyboard-response",17,52941,"0.0-4.1-2.1","cc9tfmds0xs9gyh",282,"115.csv","","null","resources/images/coin2.png","null","",NA,NA,NA,NA,""
"image-keyboard-response",18,53416,"0.0-4.2-0.2","cc9tfmds0xs9gyh",282,"115.csv","","473.10000002384186","resources/trios/L1T4A3.jpg","39","restless",0.7,0.8,0.3,0.310862069592539,"false"
"image-keyboard-response",19,53819,"0.0-4.2-1.2","cc9tfmds0xs9gyh",282,"115.csv","","null","resources/maskTrios/BBA3.jpg","null","",NA,NA,NA,NA,""
"image-keyboard-response",20,55021,"0.0-4.2-2.2","cc9tfmds0xs9gyh",282,"115.csv","","null","resources/images/fishbone.png","null","",NA,NA,NA,NA,""
"image-keyboard-response",21,55705,"0.0-4.3-0.3","cc9tfmds0xs9gyh",282,"115.csv","","681.7999999821186","resources/trios/L1T4A3.jpg","37","restless",0.7,0.8,0.3,0.422075575112994,"true"
"image-keyboard-response",22,56108,"0.0-4.3-1.3","cc9tfmds0xs9gyh",282,"115.csv","","null","resources/maskTrios/L1BB.jpg","null","",NA,NA,NA,NA,""
"image-keyboard-response",23,57321,"0.0-4.3-2.3","cc9tfmds0xs9gyh",282,"115.csv","","null","resources/images/coin2.png","null","",NA,NA,NA,NA,""
"image-keyboard-response",24,57528,"0.0-4.4-0.4","cc9tfmds0xs9gyh",282,"115.csv","","204.89999997615814","resources/trios/L1T4A3.jpg","37","restless",0.7,0.8,0.2,0.629462144514282,"true"
"image-keyboard-response",25,57931,"0.0-4.4-1.4","cc9tfmds0xs9gyh",282,"115.csv","","null","resources/maskTrios/L1BB.jpg","null","",NA,NA,NA,NA,""
"image-keyboard-response",26,59147,"0.0-4.4-2.4","cc9tfmds0xs9gyh",282,"115.csv","","null","resources/images/coin2.png","null","",NA,NA,NA,NA,""
"image-keyboard-response",27,59432,"0.0-4.5-0.5","cc9tfmds0xs9gyh",282,"115.csv","","284","resources/trios/L1T4A3.jpg","38","restless",0.7,0.8,0.3,0.919967625762916,"false"
"image-keyboard-response",28,59835,"0.0-4.5-1.5","cc9tfmds0xs9gyh",282,"115.csv","","null","resources/maskTrios/BT4B.jpg","null","",NA,NA,NA,NA,""
"image-keyboard-response",29,61037,"0.0-4.5-2.5","cc9tfmds0xs9gyh",282,"115.csv","","null","resources/images/fishbone.png","null","",NA,NA,NA,NA,""
"image-keyboard-response",30,61368,"0.0-4.6-0.6","cc9tfmds0xs9gyh",282,"115.csv","","329.2000000178814","resources/trios/L1T4A3.jpg","38","restless",0.7,0.8,0.3,0.244392587452589,"true"
"image-keyboard-response",31,61771,"0.0-4.6-1.6","cc9tfmds0xs9gyh",282,"115.csv","","null","resources/maskTrios/BT4B.jpg","null","",NA,NA,NA,NA,""
"image-keyboard-response",32,62973,"0.0-4.6-2.6","cc9tfmds0xs9gyh",282,"115.csv","","null","resources/images/coin2.png","null","",NA,NA,NA,NA,""
"image-keyboard-response",33,63584,"0.0-4.7-0.7","cc9tfmds0xs9gyh",282,"115.csv","","609.3000000119209","resources/trios/L1T4A3.jpg","39","restless",0.7,0.8,0.3,0.704229244698478,"false"
"image-keyboard-response",34,63988,"0.0-4.7-1.7","cc9tfmds0xs9gyh",282,"115.csv","","null","resources/maskTrios/BBA3.jpg","null","",NA,NA,NA,NA,""
"image-keyboard-response",35,65190,"0.0-4.7-2.7","cc9tfmds0xs9gyh",282,"115.csv","","null","resources/images/fishbone.png","null","",NA,NA,NA,NA,""
"image-keyboard-response",36,65320,"0.0-4.8-0.8","cc9tfmds0xs9gyh",282,"115.csv","","128.7999999821186","resources/trios/L1T4A3.jpg","37","restless",0.7,0.8,0.3,0.547057805366903,"true"
"image-keyboard-response",37,65723,"0.0-4.8-1.8","cc9tfmds0xs9gyh",282,"115.csv","","null","resources/maskTrios/L1BB.jpg","null","",NA,NA,NA,NA,""
"image-keyboard-response",38,66926,"0.0-4.8-2.8","cc9tfmds0xs9gyh",282,"115.csv","","null","resources/images/coin2.png","null","",NA,NA,NA,NA,""
"image-keyboard-response",39,67209,"0.0-4.9-0.9","cc9tfmds0xs9gyh",282,"115.csv","","281","resources/trios/L1T4A3.jpg","37","restless",0.7,0.8,0.4,0.619352644369387,"true"
"image-keyboard-response",40,67611,"0.0-4.9-1.9","cc9tfmds0xs9gyh",282,"115.csv","","null","resources/maskTrios/L1BB.jpg","null","",NA,NA,NA,NA,""
"image-keyboard-response",41,68815,"0.0-4.9-2.9","cc9tfmds0xs9gyh",282,"115.csv","","null","resources/images/coin2.png","null","",NA,NA,NA,NA,""
"image-keyboard-response",42,69129,"0.0-4.10-0.10","cc9tfmds0xs9gyh",282,"115.csv","","311.69999998807907","resources/trios/L1T4A3.jpg","37","restless",0.7,0.8,0.4,0.663074737758876,"true"
"image-keyboard-response",43,69531,"0.0-4.10-1.10","cc9tfmds0xs9gyh",282,"115.csv","","null","resources/maskTrios/L1BB.jpg","null","",NA,NA,NA,NA,""
"image-keyboard-response",44,70735,"0.0-4.10-2.10","cc9tfmds0xs9gyh",282,"115.csv","","null","resources/images/coin2.png","null","",NA,NA,NA,NA,""
"image-keyboard-response",45,70952,"0.0-4.11-0.11","cc9tfmds0xs9gyh",282,"115.csv","","215.69999998807907","resources/trios/L1T4A3.jpg","37","restless",0.7,0.7,0.5,0.550173385376279,"true"
"image-keyboard-response",46,71355,"0.0-4.11-1.11","cc9tfmds0xs9gyh",282,"115.csv","","null","resources/maskTrios/L1BB.jpg","null","",NA,NA,NA,NA,""
"image-keyboard-response",47,72559,"0.0-4.11-2.11","cc9tfmds0xs9gyh",282,"115.csv","","null","resources/images/coin2.png","null","",NA,NA,NA,NA,""
"image-keyboard-response",48,72832,"0.0-4.12-0.12","cc9tfmds0xs9gyh",282,"115.csv","","271.2999999821186","resources/trios/L1T4A3.jpg","37","restless",0.7,0.7,0.5,0.823235508214713,"false"
"image-keyboard-response",49,73235,"0.0-4.12-1.12","cc9tfmds0xs9gyh",282,"115.csv","","null","resources/maskTrios/L1BB.jpg","null","",NA,NA,NA,NA,""
"image-keyboard-response",50,74437,"0.0-4.12-2.12","cc9tfmds0xs9gyh",282,"115.csv","","null","resources/images/fishbone.png","null","",NA,NA,NA,NA,""
"image-keyboard-response",51,74640,"0.0-4.13-0.13","cc9tfmds0xs9gyh",282,"115.csv","","201.7999999821186","resources/trios/L1T4A3.jpg","38","restless",0.7,0.7,0.5,0.161832483175913,"true"
"image-keyboard-response",52,75049,"0.0-4.13-1.13","cc9tfmds0xs9gyh",282,"115.csv","","null","resources/maskTrios/BT4B.jpg","null","",NA,NA,NA,NA,""
"image-keyboard-response",53,76251,"0.0-4.13-2.13","cc9tfmds0xs9gyh",282,"115.csv","","null","resources/images/coin2.png","null","",NA,NA,NA,NA,""
"image-keyboard-response",54,76488,"0.0-4.14-0.14","cc9tfmds0xs9gyh",282,"115.csv","","235.69999998807907","resources/trios/L1T4A3.jpg","39","restless",0.7,0.7,0.5,0.762236855420217,"false"
"image-keyboard-response",55,76890,"0.0-4.14-1.14","cc9tfmds0xs9gyh",282,"115.csv","","null","resources/maskTrios/BBA3.jpg","null","",NA,NA,NA,NA,""
"image-keyboard-response",56,78093,"0.0-4.14-2.14","cc9tfmds0xs9gyh",282,"115.csv","","null","resources/images/fishbone.png","null","",NA,NA,NA,NA,""
"image-keyboard-response",57,78329,"0.0-4.15-0.15","cc9tfmds0xs9gyh",282,"115.csv","","234.09999999403954","resources/trios/L1T4A3.jpg","38","restless",0.7,0.7,0.5,0.638271072397561,"true"
"image-keyboard-response",58,78731,"0.0-4.15-1.15","cc9tfmds0xs9gyh",282,"115.csv","","null","resources/maskTrios/BT4B.jpg","null","",NA,NA,NA,NA,""
"image-keyboard-response",59,79934,"0.0-4.15-2.15","cc9tfmds0xs9gyh",282,"115.csv","","null","resources/images/coin2.png","null","",NA,NA,NA,NA,""
"image-keyboard-response",60,80712,"0.0-4.16-0.16","cc9tfmds0xs9gyh",282,"115.csv","","776.9000000059605","resources/trios/L1T4A3.jpg","37","restless",0.7,0.7,0.5,0.430572380772464,"true"
"image-keyboard-response",61,81115,"0.0-4.16-1.16","cc9tfmds0xs9gyh",282,"115.csv","","null","resources/maskTrios/L1BB.jpg","null","",NA,NA,NA,NA,""
"image-keyboard-response",62,82318,"0.0-4.16-2.16","cc9tfmds0xs9gyh",282,"115.csv","","null","resources/images/coin2.png","null","",NA,NA,NA,NA,""
"image-keyboard-response",63,82577,"0.0-4.17-0.17","cc9tfmds0xs9gyh",282,"115.csv","","257","resources/trios/L1T4A3.jpg","38","restless",0.7,0.7,0.5,0.853476914897161,"false"
"image-keyboard-response",64,82979,"0.0-4.17-1.17","cc9tfmds0xs9gyh",282,"115.csv","","null","resources/maskTrios/BT4B.jpg","null","",NA,NA,NA,NA,""
"image-keyboard-response",65,84182,"0.0-4.17-2.17","cc9tfmds0xs9gyh",282,"115.csv","","null","resources/images/fishbone.png","null","",NA,NA,NA,NA,""
"image-keyboard-response",66,84272,"0.0-4.18-0.18","cc9tfmds0xs9gyh",282,"115.csv","","87.90000000596046","resources/trios/L1T4A3.jpg","39","restless",0.7,0.7,0.5,0.668445588975319,"false"
"image-keyboard-response",67,84675,"0.0-4.18-1.18","cc9tfmds0xs9gyh",282,"115.csv","","null","resources/maskTrios/BBA3.jpg","null","",NA,NA,NA,NA,""
"image-keyboard-response",68,85879,"0.0-4.18-2.18","cc9tfmds0xs9gyh",282,"115.csv","","null","resources/images/fishbone.png","null","",NA,NA,NA,NA,""
"image-keyboard-response",69,86704,"0.0-4.19-0.19","cc9tfmds0xs9gyh",282,"115.csv","","823.7999999821186","resources/trios/L1T4A3.jpg","37","restless",0.7,0.7,0.5,0.575006710049804,"true"
"image-keyboard-response",70,87107,"0.0-4.19-1.19","cc9tfmds0xs9gyh",282,"115.csv","","null","resources/maskTrios/L1BB.jpg","null","",NA,NA,NA,NA,""
"image-keyboard-response",71,88321,"0.0-4.19-2.19","cc9tfmds0xs9gyh",282,"115.csv","","null","resources/images/coin2.png","null","",NA,NA,NA,NA,""
"image-keyboard-response",72,88552,"0.0-4.20-0.20","cc9tfmds0xs9gyh",282,"115.csv","","228.7999999821186","resources/trios/L1T4A3.jpg","37","restless",0.7,0.7,0.5,0.605886280915561,"true"
"image-keyboard-response",73,88956,"0.0-4.20-1.20","cc9tfmds0xs9gyh",282,"115.csv","","null","resources/maskTrios/L1BB.jpg","null","",NA,NA,NA,NA,""
"image-keyboard-response",74,90167,"0.0-4.20-2.20","cc9tfmds0xs9gyh",282,"115.csv","","null","resources/images/coin2.png","null","",NA,NA,NA,NA,""
"image-keyboard-response",75,90465,"0.0-4.21-0.21","cc9tfmds0xs9gyh",282,"115.csv","","295.80000001192093","resources/trios/L1T4A3.jpg","37","restless",0.7,0.7,0.5,0.895578834068307,"false"
"image-keyboard-response",76,90871,"0.0-4.21-1.21","cc9tfmds0xs9gyh",282,"115.csv","","null","resources/maskTrios/L1BB.jpg","null","",NA,NA,NA,NA,""
"image-keyboard-response",77,92079,"0.0-4.21-2.21","cc9tfmds0xs9gyh",282,"115.csv","","null","resources/images/fishbone.png","null","",NA,NA,NA,NA,""
"image-keyboard-response",78,92360,"0.0-4.22-0.22","cc9tfmds0xs9gyh",282,"115.csv","","279.19999998807907","resources/trios/L1T4A3.jpg","38","restless",0.7,0.7,0.5,0.489524143988119,"true"
"image-keyboard-response",79,92763,"0.0-4.22-1.22","cc9tfmds0xs9gyh",282,"115.csv","","null","resources/maskTrios/BT4B.jpg","null","",NA,NA,NA,NA,""
"image-keyboard-response",80,93965,"0.0-4.22-2.22","cc9tfmds0xs9gyh",282,"115.csv","","null","resources/images/coin2.png","null","",NA,NA,NA,NA,""
"image-keyboard-response",81,94481,"0.0-4.23-0.23","cc9tfmds0xs9gyh",282,"115.csv","","512.3000000119209","resources/trios/L1T4A3.jpg","39","restless",0.7,0.7,0.5,0.0571621435531575,"true"
"image-keyboard-response",82,94885,"0.0-4.23-1.23","cc9tfmds0xs9gyh",282,"115.csv","","null","resources/maskTrios/BBA3.jpg","null","",NA,NA,NA,NA,""
"image-keyboard-response",83,96087,"0.0-4.23-2.23","cc9tfmds0xs9gyh",282,"115.csv","","null","resources/images/coin2.png","null","",NA,NA,NA,NA,""
"image-keyboard-response",84,96456,"0.0-4.24-0.24","cc9tfmds0xs9gyh",282,"115.csv","","368.2000000178814","resources/trios/L1T4A3.jpg","39","restless",0.8,0.7,0.5,0.633331318612773,"false"
"image-keyboard-response",85,96859,"0.0-4.24-1.24","cc9tfmds0xs9gyh",282,"115.csv","","null","resources/maskTrios/BBA3.jpg","null","",NA,NA,NA,NA,""
"image-keyboard-response",86,98070,"0.0-4.24-2.24","cc9tfmds0xs9gyh",282,"115.csv","","null","resources/images/fishbone.png","null","",NA,NA,NA,NA,""
"image-keyboard-response",87,98376,"0.0-4.25-0.25","cc9tfmds0xs9gyh",282,"115.csv","","304.59999999403954","resources/trios/L1T4A3.jpg","38","restless",0.8,0.7,0.5,0.49086979682748,"true"
"image-keyboard-response",88,98778,"0.0-4.25-1.25","cc9tfmds0xs9gyh",282,"115.csv","","null","resources/maskTrios/BT4B.jpg","null","",NA,NA,NA,NA,""
"image-keyboard-response",89,99980,"0.0-4.25-2.25","cc9tfmds0xs9gyh",282,"115.csv","","null","resources/images/coin2.png","null","",NA,NA,NA,NA,""
"image-keyboard-response",90,100313,"0.0-4.26-0.26","cc9tfmds0xs9gyh",282,"115.csv","","330","resources/trios/L1T4A3.jpg","38","restless",0.8,0.7,0.5,0.842993012333546,"false"
"image-keyboard-response",91,100717,"0.0-4.26-1.26","cc9tfmds0xs9gyh",282,"115.csv","","null","resources/maskTrios/BT4B.jpg","null","",NA,NA,NA,NA,""
"image-keyboard-response",92,101918,"0.0-4.26-2.26","cc9tfmds0xs9gyh",282,"115.csv","","null","resources/images/fishbone.png","null","",NA,NA,NA,NA,""
"image-keyboard-response",93,102048,"0.0-4.27-0.27","cc9tfmds0xs9gyh",282,"115.csv","","128.2999999821186","resources/trios/L1T4A3.jpg","37","restless",0.8,0.7,0.5,0.234423481497854,"true"
"image-keyboard-response",94,102450,"0.0-4.27-1.27","cc9tfmds0xs9gyh",282,"115.csv","","null","resources/maskTrios/L1BB.jpg","null","",NA,NA,NA,NA,""
"image-keyboard-response",95,103653,"0.0-4.27-2.27","cc9tfmds0xs9gyh",282,"115.csv","","null","resources/images/coin2.png","null","",NA,NA,NA,NA,""
"image-keyboard-response",96,104040,"0.0-4.28-0.28","cc9tfmds0xs9gyh",282,"115.csv","","385.90000000596046","resources/trios/L1T4A3.jpg","37","restless",0.8,0.7,0.5,0.499624141720147,"true"
"image-keyboard-response",97,104443,"0.0-4.28-1.28","cc9tfmds0xs9gyh",282,"115.csv","","null","resources/maskTrios/L1BB.jpg","null","",NA,NA,NA,NA,""
"image-keyboard-response",98,105645,"0.0-4.28-2.28","cc9tfmds0xs9gyh",282,"115.csv","","null","resources/images/coin2.png","null","",NA,NA,NA,NA,""
"image-keyboard-response",99,120764,"0.0-4.29-0.29","cc9tfmds0xs9gyh",282,"115.csv","","15116.699999988079","resources/trios/L1T4A3.jpg","37","restless",0.9,0.7,0.5,0.421289235309318,"true"
"image-keyboard-response",100,121167,"0.0-4.29-1.29","cc9tfmds0xs9gyh",282,"115.csv","","null","resources/maskTrios/L1BB.jpg","null","",NA,NA,NA,NA,""
"image-keyboard-response",101,122369,"0.0-4.29-2.29","cc9tfmds0xs9gyh",282,"115.csv","","null","resources/images/coin2.png","null","",NA,NA,NA,NA,""
"image-keyboard-response",102,122611,"0.0-4.30-0.30","cc9tfmds0xs9gyh",282,"115.csv","","239.80000001192093","resources/trios/L1T4A3.jpg","37","restless",0.9,0.7,0.5,0.591744913862965,"true"
"image-keyboard-response",103,123014,"0.0-4.30-1.30","cc9tfmds0xs9gyh",282,"115.csv","","null","resources/maskTrios/L1BB.jpg","null","",NA,NA,NA,NA,""
"image-keyboard-response",104,124216,"0.0-4.30-2.30","cc9tfmds0xs9gyh",282,"115.csv","","null","resources/images/coin2.png","null","",NA,NA,NA,NA,""
"image-keyboard-response",105,124483,"0.0-4.31-0.31","cc9tfmds0xs9gyh",282,"115.csv","","265.7000000178814","resources/trios/L1T4A3.jpg","37","restless",0.9,0.7,0.5,0.0772808933331479,"true"
"image-keyboard-response",106,124886,"0.0-4.31-1.31","cc9tfmds0xs9gyh",282,"115.csv","","null","resources/maskTrios/L1BB.jpg","null","",NA,NA,NA,NA,""
"image-keyboard-response",107,126102,"0.0-4.31-2.31","cc9tfmds0xs9gyh",282,"115.csv","","null","resources/images/coin2.png","null","",NA,NA,NA,NA,""
"image-keyboard-response",108,126331,"0.0-4.32-0.32","cc9tfmds0xs9gyh",282,"115.csv","","227.10000002384186","resources/trios/L1T4A3.jpg","37","restless",0.9,0.7,0.5,0.815762096051231,"true"
"image-keyboard-response",109,126734,"0.0-4.32-1.32","cc9tfmds0xs9gyh",282,"115.csv","","null","resources/maskTrios/L1BB.jpg","null","",NA,NA,NA,NA,""
"image-keyboard-response",110,127935,"0.0-4.32-2.32","cc9tfmds0xs9gyh",282,"115.csv","","null","resources/images/coin2.png","null","",NA,NA,NA,NA,""
"image-keyboard-response",111,128195,"0.0-4.33-0.33","cc9tfmds0xs9gyh",282,"115.csv","","258","resources/trios/L1T4A3.jpg","37","restless",0.9,0.6,0.5,0.758370036321759,"true"
"image-keyboard-response",112,128597,"0.0-4.33-1.33","cc9tfmds0xs9gyh",282,"115.csv","","null","resources/maskTrios/L1BB.jpg","null","",NA,NA,NA,NA,""
"image-keyboard-response",113,129799,"0.0-4.33-2.33","cc9tfmds0xs9gyh",282,"115.csv","","null","resources/images/coin2.png","null","",NA,NA,NA,NA,""
"image-keyboard-response",114,129803,"0.0-4.34-0.34","cc9tfmds0xs9gyh",282,"115.csv","","2.4000000059604645","resources/trios/L1T4A3.jpg","38","restless",0.9,0.6,0.5,0.858476569225496,"false"
"image-keyboard-response",115,130206,"0.0-4.34-1.34","cc9tfmds0xs9gyh",282,"115.csv","","null","resources/maskTrios/BT4B.jpg","null","",NA,NA,NA,NA,""
"image-keyboard-response",116,131408,"0.0-4.34-2.34","cc9tfmds0xs9gyh",282,"115.csv","","null","resources/images/fishbone.png","null","",NA,NA,NA,NA,""
"image-keyboard-response",117,132083,"0.0-4.35-0.35","cc9tfmds0xs9gyh",282,"115.csv","","673.5","resources/trios/L1T4A3.jpg","37","restless",0.9,0.6,0.5,0.749503350238633,"true"
"image-keyboard-response",118,132486,"0.0-4.35-1.35","cc9tfmds0xs9gyh",282,"115.csv","","null","resources/maskTrios/L1BB.jpg","null","",NA,NA,NA,NA,""
"image-keyboard-response",119,133688,"0.0-4.35-2.35","cc9tfmds0xs9gyh",282,"115.csv","","null","resources/images/coin2.png","null","",NA,NA,NA,NA,""
"image-keyboard-response",120,134043,"0.0-4.36-0.36","cc9tfmds0xs9gyh",282,"115.csv","","353.40000000596046","resources/trios/L1T4A3.jpg","37","restless",0.9,0.6,0.5,0.0108378316775677,"true"
"image-keyboard-response",121,134446,"0.0-4.36-1.36","cc9tfmds0xs9gyh",282,"115.csv","","null","resources/maskTrios/L1BB.jpg","null","",NA,NA,NA,NA,""
"image-keyboard-response",122,135648,"0.0-4.36-2.36","cc9tfmds0xs9gyh",282,"115.csv","","null","resources/images/coin2.png","null","",NA,NA,NA,NA,""
"image-keyboard-response",123,135987,"0.0-4.37-0.37","cc9tfmds0xs9gyh",282,"115.csv","","337.30000001192093","resources/trios/L1T4A3.jpg","38","restless",0.9,0.6,0.5,0.00990871898636536,"true"
"image-keyboard-response",124,136391,"0.0-4.37-1.37","cc9tfmds0xs9gyh",282,"115.csv","","null","resources/maskTrios/BT4B.jpg","null","",NA,NA,NA,NA,""
"image-keyboard-response",125,137599,"0.0-4.37-2.37","cc9tfmds0xs9gyh",282,"115.csv","","null","resources/images/coin2.png","null","",NA,NA,NA,NA,""
"image-keyboard-response",126,137867,"0.0-4.38-0.38","cc9tfmds0xs9gyh",282,"115.csv","","266.19999998807907","resources/trios/L1T4A3.jpg","37","restless",0.9,0.6,0.5,0.363251309745813,"true"
"image-keyboard-response",127,138270,"0.0-4.38-1.38","cc9tfmds0xs9gyh",282,"115.csv","","null","resources/maskTrios/L1BB.jpg","null","",NA,NA,NA,NA,""
"image-keyboard-response",128,139484,"0.0-4.38-2.38","cc9tfmds0xs9gyh",282,"115.csv","","null","resources/images/coin2.png","null","",NA,NA,NA,NA,""
"image-keyboard-response",129,139651,"0.0-4.39-0.39","cc9tfmds0xs9gyh",282,"115.csv","","165.30000001192093","resources/trios/L1T4A3.jpg","39","restless",0.9,0.6,0.6,0.267612447779751,"true"
"image-keyboard-response",130,140054,"0.0-4.39-1.39","cc9tfmds0xs9gyh",282,"115.csv","","null","resources/maskTrios/BBA3.jpg","null","",NA,NA,NA,NA,""
"image-keyboard-response",131,141256,"0.0-4.39-2.39","cc9tfmds0xs9gyh",282,"115.csv","","null","resources/images/coin2.png","null","",NA,NA,NA,NA,""
"image-keyboard-response",132,142171,"0.0-4.40-0.40","cc9tfmds0xs9gyh",282,"115.csv","","913.2999999821186","resources/trios/L1T4A3.jpg","38","restless",0.9,0.6,0.6,0.190500457841985,"true"
"image-keyboard-response",133,142574,"0.0-4.40-1.40","cc9tfmds0xs9gyh",282,"115.csv","","null","resources/maskTrios/BT4B.jpg","null","",NA,NA,NA,NA,""
"image-keyboard-response",134,143776,"0.0-4.40-2.40","cc9tfmds0xs9gyh",282,"115.csv","","null","resources/images/coin2.png","null","",NA,NA,NA,NA,""
"image-keyboard-response",135,144235,"0.0-4.41-0.41","cc9tfmds0xs9gyh",282,"115.csv","","457.30000001192093","resources/trios/L1T4A3.jpg","37","restless",0.9,0.6,0.6,0.164763489201269,"true"
"image-keyboard-response",136,144638,"0.0-4.41-1.41","cc9tfmds0xs9gyh",282,"115.csv","","null","resources/maskTrios/L1BB.jpg","null","",NA,NA,NA,NA,""
"image-keyboard-response",137,145840,"0.0-4.41-2.41","cc9tfmds0xs9gyh",282,"115.csv","","null","resources/images/coin2.png","null","",NA,NA,NA,NA,""
"image-keyboard-response",138,146123,"0.0-4.42-0.42","cc9tfmds0xs9gyh",282,"115.csv","","280.7000000178814","resources/trios/L1T4A3.jpg","37","restless",0.9,0.6,0.6,0.324506552363448,"true"
"image-keyboard-response",139,146525,"0.0-4.42-1.42","cc9tfmds0xs9gyh",282,"115.csv","","null","resources/maskTrios/L1BB.jpg","null","",NA,NA,NA,NA,""
"image-keyboard-response",140,147727,"0.0-4.42-2.42","cc9tfmds0xs9gyh",282,"115.csv","","null","resources/images/coin2.png","null","",NA,NA,NA,NA,""
"image-keyboard-response",141,147907,"0.0-4.43-0.43","cc9tfmds0xs9gyh",282,"115.csv","","178.30000001192093","resources/trios/L1T4A3.jpg","37","restless",0.9,0.6,0.5,0.68824518845899,"true"
"image-keyboard-response",142,148309,"0.0-4.43-1.43","cc9tfmds0xs9gyh",282,"115.csv","","null","resources/maskTrios/L1BB.jpg","null","",NA,NA,NA,NA,""
"image-keyboard-response",143,149511,"0.0-4.43-2.43","cc9tfmds0xs9gyh",282,"115.csv","","null","resources/images/coin2.png","null","",NA,NA,NA,NA,""
"image-keyboard-response",144,149579,"0.0-4.44-0.44","cc9tfmds0xs9gyh",282,"115.csv","","65.7000000178814","resources/trios/L1T4A3.jpg","38","restless",0.9,0.6,0.5,0.923516799873248,"false"
"image-keyboard-response",145,149981,"0.0-4.44-1.44","cc9tfmds0xs9gyh",282,"115.csv","","null","resources/maskTrios/BT4B.jpg","null","",NA,NA,NA,NA,""
"image-keyboard-response",146,151196,"0.0-4.44-2.44","cc9tfmds0xs9gyh",282,"115.csv","","null","resources/images/fishbone.png","null","",NA,NA,NA,NA,""
"image-keyboard-response",147,151571,"0.0-4.45-0.45","cc9tfmds0xs9gyh",282,"115.csv","","373.09999999403954","resources/trios/L1T4A3.jpg","39","restless",0.9,0.6,0.6,0.751947036260798,"false"
"image-keyboard-response",148,151973,"0.0-4.45-1.45","cc9tfmds0xs9gyh",282,"115.csv","","null","resources/maskTrios/BBA3.jpg","null","",NA,NA,NA,NA,""
"image-keyboard-response",149,153176,"0.0-4.45-2.45","cc9tfmds0xs9gyh",282,"115.csv","","null","resources/images/fishbone.png","null","",NA,NA,NA,NA,""
"image-keyboard-response",150,153435,"0.0-4.46-0.46","cc9tfmds0xs9gyh",282,"115.csv","","257.69999998807907","resources/trios/L1T4A3.jpg","37","restless",0.9,0.6,0.6,0.0495654434358495,"true"
"image-keyboard-response",151,153838,"0.0-4.46-1.46","cc9tfmds0xs9gyh",282,"115.csv","","null","resources/maskTrios/L1BB.jpg","null","",NA,NA,NA,NA,""
"image-keyboard-response",152,155045,"0.0-4.46-2.46","cc9tfmds0xs9gyh",282,"115.csv","","null","resources/images/coin2.png","null","",NA,NA,NA,NA,""
"image-keyboard-response",153,155587,"0.0-4.47-0.47","cc9tfmds0xs9gyh",282,"115.csv","","540.5999999940395","resources/trios/L1T4A3.jpg","37","restless",0.8,0.6,0.6,0.459355753581114,"true"
"image-keyboard-response",154,155990,"0.0-4.47-1.47","cc9tfmds0xs9gyh",282,"115.csv","","null","resources/maskTrios/L1BB.jpg","null","",NA,NA,NA,NA,""
"image-keyboard-response",155,157192,"0.0-4.47-2.47","cc9tfmds0xs9gyh",282,"115.csv","","null","resources/images/coin2.png","null","",NA,NA,NA,NA,""
"image-keyboard-response",156,157603,"0.0-4.48-0.48","cc9tfmds0xs9gyh",282,"115.csv","","408.69999998807907","resources/trios/L1T4A3.jpg","37","restless",0.9,0.6,0.6,0.634655418793431,"true"
"image-keyboard-response",157,158006,"0.0-4.48-1.48","cc9tfmds0xs9gyh",282,"115.csv","","null","resources/maskTrios/L1BB.jpg","null","",NA,NA,NA,NA,""
"image-keyboard-response",158,159208,"0.0-4.48-2.48","cc9tfmds0xs9gyh",282,"115.csv","","null","resources/images/coin2.png","null","",NA,NA,NA,NA,""
"image-keyboard-response",159,159587,"0.0-4.49-0.49","cc9tfmds0xs9gyh",282,"115.csv","","377","resources/trios/L1T4A3.jpg","37","restless",0.8,0.6,0.6,0.174162615707992,"true"
"image-keyboard-response",160,159989,"0.0-4.49-1.49","cc9tfmds0xs9gyh",282,"115.csv","","null","resources/maskTrios/L1BB.jpg","null","",NA,NA,NA,NA,""
"image-keyboard-response",161,161192,"0.0-4.49-2.49","cc9tfmds0xs9gyh",282,"115.csv","","null","resources/images/coin2.png","null","",NA,NA,NA,NA,""
"image-keyboard-response",162,161659,"0.0-4.50-0.50","cc9tfmds0xs9gyh",282,"115.csv","","465.30000001192093","resources/trios/L1T4A3.jpg","37","restless",0.8,0.6,0.6,0.0136025617499766,"true"
"image-keyboard-response",163,162070,"0.0-4.50-1.50","cc9tfmds0xs9gyh",282,"115.csv","","null","resources/maskTrios/L1BB.jpg","null","",NA,NA,NA,NA,""
"image-keyboard-response",164,163273,"0.0-4.50-2.50","cc9tfmds0xs9gyh",282,"115.csv","","null","resources/images/coin2.png","null","",NA,NA,NA,NA,""
"image-keyboard-response",165,163875,"0.0-4.51-0.51","cc9tfmds0xs9gyh",282,"115.csv","","600.9000000059605","resources/trios/L1T4A3.jpg","37","restless",0.8,0.6,0.6,0.957672827320858,"false"
"image-keyboard-response",166,164278,"0.0-4.51-1.51","cc9tfmds0xs9gyh",282,"115.csv","","null","resources/maskTrios/L1BB.jpg","null","",NA,NA,NA,NA,""
"image-keyboard-response",167,165480,"0.0-4.51-2.51","cc9tfmds0xs9gyh",282,"115.csv","","null","resources/images/fishbone.png","null","",NA,NA,NA,NA,""
"image-keyboard-response",168,165531,"0.0-4.52-0.52","cc9tfmds0xs9gyh",282,"115.csv","","48.5","resources/trios/L1T4A3.jpg","38","restless",0.8,0.5,0.6,0.405322767442903,"true"
"image-keyboard-response",169,165933,"0.0-4.52-1.52","cc9tfmds0xs9gyh",282,"115.csv","","null","resources/maskTrios/BT4B.jpg","null","",NA,NA,NA,NA,""
"image-keyboard-response",170,167140,"0.0-4.52-2.52","cc9tfmds0xs9gyh",282,"115.csv","","null","resources/images/coin2.png","null","",NA,NA,NA,NA,""
"image-keyboard-response",171,167427,"0.0-4.53-0.53","cc9tfmds0xs9gyh",282,"115.csv","","285","resources/trios/L1T4A3.jpg","38","restless",0.8,0.5,0.6,0.315757209973358,"true"
"image-keyboard-response",172,167829,"0.0-4.53-1.53","cc9tfmds0xs9gyh",282,"115.csv","","null","resources/maskTrios/BT4B.jpg","null","",NA,NA,NA,NA,""
"image-keyboard-response",173,169031,"0.0-4.53-2.53","cc9tfmds0xs9gyh",282,"115.csv","","null","resources/images/coin2.png","null","",NA,NA,NA,NA,""
"image-keyboard-response",174,169595,"0.0-4.54-0.54","cc9tfmds0xs9gyh",282,"115.csv","","561.9000000059605","resources/trios/L1T4A3.jpg","39","restless",0.8,0.5,0.6,0.821511701697772,"false"
"image-keyboard-response",175,169997,"0.0-4.54-1.54","cc9tfmds0xs9gyh",282,"115.csv","","null","resources/maskTrios/BBA3.jpg","null","",NA,NA,NA,NA,""
"image-keyboard-response",176,171200,"0.0-4.54-2.54","cc9tfmds0xs9gyh",282,"115.csv","","null","resources/images/fishbone.png","null","",NA,NA,NA,NA,""
"image-keyboard-response",177,171539,"0.0-4.55-0.55","cc9tfmds0xs9gyh",282,"115.csv","","337.09999999403954","resources/trios/L1T4A3.jpg","38","restless",0.8,0.5,0.6,0.388994291742864,"true"
"image-keyboard-response",178,171941,"0.0-4.55-1.55","cc9tfmds0xs9gyh",282,"115.csv","","null","resources/maskTrios/BT4B.jpg","null","",NA,NA,NA,NA,""
"image-keyboard-response",179,173144,"0.0-4.55-2.55","cc9tfmds0xs9gyh",282,"115.csv","","null","resources/images/coin2.png","null","",NA,NA,NA,NA,""
"image-keyboard-response",180,173371,"0.0-4.56-0.56","cc9tfmds0xs9gyh",282,"115.csv","","225.5","resources/trios/L1T4A3.jpg","38","restless",0.8,0.5,0.6,0.790564904312686,"false"
"image-keyboard-response",181,173774,"0.0-4.56-1.56","cc9tfmds0xs9gyh",282,"115.csv","","null","resources/maskTrios/BT4B.jpg","null","",NA,NA,NA,NA,""
"image-keyboard-response",182,174975,"0.0-4.56-2.56","cc9tfmds0xs9gyh",282,"115.csv","","null","resources/images/fishbone.png","null","",NA,NA,NA,NA,""
"image-keyboard-response",183,175211,"0.0-4.57-0.57","cc9tfmds0xs9gyh",282,"115.csv","","234.19999998807907","resources/trios/L1T4A3.jpg","37","restless",0.8,0.5,0.6,0.789394157124916,"true"
"image-keyboard-response",184,175613,"0.0-4.57-1.57","cc9tfmds0xs9gyh",282,"115.csv","","null","resources/maskTrios/L1BB.jpg","null","",NA,NA,NA,NA,""
"image-keyboard-response",185,176816,"0.0-4.57-2.57","cc9tfmds0xs9gyh",282,"115.csv","","null","resources/images/coin2.png","null","",NA,NA,NA,NA,""
"image-keyboard-response",186,177019,"0.0-4.58-0.58","cc9tfmds0xs9gyh",282,"115.csv","","201.5","resources/trios/L1T4A3.jpg","37","restless",0.8,0.5,0.6,0.388378548439649,"true"
"image-keyboard-response",187,177427,"0.0-4.58-1.58","cc9tfmds0xs9gyh",282,"115.csv","","null","resources/maskTrios/L1BB.jpg","null","",NA,NA,NA,NA,""
"image-keyboard-response",188,178629,"0.0-4.58-2.58","cc9tfmds0xs9gyh",282,"115.csv","","null","resources/images/coin2.png","null","",NA,NA,NA,NA,""
"image-keyboard-response",189,178923,"0.0-4.59-0.59","cc9tfmds0xs9gyh",282,"115.csv","","292","resources/trios/L1T4A3.jpg","38","restless",0.8,0.5,0.6,0.483104438593382,"true"
"image-keyboard-response",190,179325,"0.0-4.59-1.59","cc9tfmds0xs9gyh",282,"115.csv","","null","resources/maskTrios/BT4B.jpg","null","",NA,NA,NA,NA,""
"image-keyboard-response",191,180527,"0.0-4.59-2.59","cc9tfmds0xs9gyh",282,"115.csv","","null","resources/images/coin2.png","null","",NA,NA,NA,NA,""
"image-keyboard-response",192,180587,"0.0-4.60-0.60","cc9tfmds0xs9gyh",282,"115.csv","","58.599999994039536","resources/trios/L1T4A3.jpg","39","restless",0.8,0.5,0.6,0.703922147089297,"false"
"image-keyboard-response",193,180990,"0.0-4.60-1.60","cc9tfmds0xs9gyh",282,"115.csv","","null","resources/maskTrios/BBA3.jpg","null","",NA,NA,NA,NA,""
"image-keyboard-response",194,182192,"0.0-4.60-2.60","cc9tfmds0xs9gyh",282,"115.csv","","null","resources/images/fishbone.png","null","",NA,NA,NA,NA,""
"image-keyboard-response",195,182451,"0.0-4.61-0.61","cc9tfmds0xs9gyh",282,"115.csv","","257","resources/trios/L1T4A3.jpg","37","restless",0.7,0.5,0.6,0.906680821455065,"false"
"image-keyboard-response",196,182854,"0.0-4.61-1.61","cc9tfmds0xs9gyh",282,"115.csv","","null","resources/maskTrios/L1BB.jpg","null","",NA,NA,NA,NA,""
"image-keyboard-response",197,184056,"0.0-4.61-2.61","cc9tfmds0xs9gyh",282,"115.csv","","null","resources/images/fishbone.png","null","",NA,NA,NA,NA,""
"image-keyboard-response",198,184259,"0.0-4.62-0.62","cc9tfmds0xs9gyh",282,"115.csv","","201.7000000178814","resources/trios/L1T4A3.jpg","38","restless",0.7,0.5,0.6,0.158843386318466,"true"
"image-keyboard-response",199,184663,"0.0-4.62-1.62","cc9tfmds0xs9gyh",282,"115.csv","","null","resources/maskTrios/BT4B.jpg","null","",NA,NA,NA,NA,""
"image-keyboard-response",200,185866,"0.0-4.62-2.62","cc9tfmds0xs9gyh",282,"115.csv","","null","resources/images/coin2.png","null","",NA,NA,NA,NA,""
"image-keyboard-response",201,186172,"0.0-4.63-0.63","cc9tfmds0xs9gyh",282,"115.csv","","304.40000000596046","resources/trios/L1T4A3.jpg","38","restless",0.7,0.5,0.6,0.70524924255685,"false"
"image-keyboard-response",202,186574,"0.0-4.63-1.63","cc9tfmds0xs9gyh",282,"115.csv","","null","resources/maskTrios/BT4B.jpg","null","",NA,NA,NA,NA,""
"image-keyboard-response",203,187776,"0.0-4.63-2.63","cc9tfmds0xs9gyh",282,"115.csv","","null","resources/images/fishbone.png","null","",NA,NA,NA,NA,""
"image-keyboard-response",204,187891,"0.0-4.64-0.64","cc9tfmds0xs9gyh",282,"115.csv","","113.09999999403954","resources/trios/L1T4A3.jpg","37","restless",0.7,0.4,0.6,0.640407430614879,"true"
"image-keyboard-response",205,188294,"0.0-4.64-1.64","cc9tfmds0xs9gyh",282,"115.csv","","null","resources/maskTrios/L1BB.jpg","null","",NA,NA,NA,NA,""
"image-keyboard-response",206,189496,"0.0-4.64-2.64","cc9tfmds0xs9gyh",282,"115.csv","","null","resources/images/coin2.png","null","",NA,NA,NA,NA,""
"image-keyboard-response",207,189739,"0.0-4.65-0.65","cc9tfmds0xs9gyh",282,"115.csv","","241.40000000596046","resources/trios/L1T4A3.jpg","37","restless",0.7,0.4,0.6,0.399001409254461,"true"
"image-keyboard-response",208,190142,"0.0-4.65-1.65","cc9tfmds0xs9gyh",282,"115.csv","","null","resources/maskTrios/L1BB.jpg","null","",NA,NA,NA,NA,""
"image-keyboard-response",209,191344,"0.0-4.65-2.65","cc9tfmds0xs9gyh",282,"115.csv","","null","resources/images/coin2.png","null","",NA,NA,NA,NA,""
"image-keyboard-response",210,191659,"0.0-4.66-0.66","cc9tfmds0xs9gyh",282,"115.csv","","313.19999998807907","resources/trios/L1T4A3.jpg","37","restless",0.7,0.4,0.6,0.481200530566992,"true"
"image-keyboard-response",211,192061,"0.0-4.66-1.66","cc9tfmds0xs9gyh",282,"115.csv","","null","resources/maskTrios/L1BB.jpg","null","",NA,NA,NA,NA,""
"image-keyboard-response",212,193277,"0.0-4.66-2.66","cc9tfmds0xs9gyh",282,"115.csv","","null","resources/images/coin2.png","null","",NA,NA,NA,NA,""
"image-keyboard-response",213,193539,"0.0-4.67-0.67","cc9tfmds0xs9gyh",282,"115.csv","","260.5","resources/trios/L1T4A3.jpg","37","restless",0.7,0.4,0.6,0.65450544175663,"true"
"image-keyboard-response",214,193941,"0.0-4.67-1.67","cc9tfmds0xs9gyh",282,"115.csv","","null","resources/maskTrios/L1BB.jpg","null","",NA,NA,NA,NA,""
"image-keyboard-response",215,195143,"0.0-4.67-2.67","cc9tfmds0xs9gyh",282,"115.csv","","null","resources/images/coin2.png","null","",NA,NA,NA,NA,""
"image-keyboard-response",216,195427,"0.0-4.68-0.68","cc9tfmds0xs9gyh",282,"115.csv","","281.5","resources/trios/L1T4A3.jpg","37","restless",0.7,0.4,0.7,0.383457961698634,"true"
"image-keyboard-response",217,195830,"0.0-4.68-1.68","cc9tfmds0xs9gyh",282,"115.csv","","null","resources/maskTrios/L1BB.jpg","null","",NA,NA,NA,NA,""
"image-keyboard-response",218,197043,"0.0-4.68-2.68","cc9tfmds0xs9gyh",282,"115.csv","","null","resources/images/coin2.png","null","",NA,NA,NA,NA,""
"image-keyboard-response",219,197500,"0.0-4.69-0.69","cc9tfmds0xs9gyh",282,"115.csv","","454.69999998807907","resources/trios/L1T4A3.jpg","37","restless",0.7,0.4,0.7,0.119464678362969,"true"
"image-keyboard-response",220,197903,"0.0-4.69-1.69","cc9tfmds0xs9gyh",282,"115.csv","","null","resources/maskTrios/L1BB.jpg","null","",NA,NA,NA,NA,""
"image-keyboard-response",221,199104,"0.0-4.69-2.69","cc9tfmds0xs9gyh",282,"115.csv","","null","resources/images/coin2.png","null","",NA,NA,NA,NA,""
"image-keyboard-response",222,199595,"0.0-4.70-0.70","cc9tfmds0xs9gyh",282,"115.csv","","489.10000002384186","resources/trios/L1T4A3.jpg","37","restless",0.7,0.4,0.7,0.780662311302611,"false"
"image-keyboard-response",223,199998,"0.0-4.70-1.70","cc9tfmds0xs9gyh",282,"115.csv","","null","resources/maskTrios/L1BB.jpg","null","",NA,NA,NA,NA,""
"image-keyboard-response",224,201199,"0.0-4.70-2.70","cc9tfmds0xs9gyh",282,"115.csv","","null","resources/images/fishbone.png","null","",NA,NA,NA,NA,""
"image-keyboard-response",225,201572,"0.0-4.71-0.71","cc9tfmds0xs9gyh",282,"115.csv","","370.09999999403954","resources/trios/L1T4A3.jpg","38","restless",0.7,0.4,0.6,0.963773667669065,"false"
"image-keyboard-response",226,201974,"0.0-4.71-1.71","cc9tfmds0xs9gyh",282,"115.csv","","null","resources/maskTrios/BT4B.jpg","null","",NA,NA,NA,NA,""
"image-keyboard-response",227,203176,"0.0-4.71-2.71","cc9tfmds0xs9gyh",282,"115.csv","","null","resources/images/fishbone.png","null","",NA,NA,NA,NA,""
"image-keyboard-response",228,203315,"0.0-4.72-0.72","cc9tfmds0xs9gyh",282,"115.csv","","137.5","resources/trios/L1T4A3.jpg","39","restless",0.7,0.4,0.6,0.677475275441099,"false"
"image-keyboard-response",229,203717,"0.0-4.72-1.72","cc9tfmds0xs9gyh",282,"115.csv","","null","resources/maskTrios/BBA3.jpg","null","",NA,NA,NA,NA,""
"image-keyboard-response",230,204930,"0.0-4.72-2.72","cc9tfmds0xs9gyh",282,"115.csv","","null","resources/images/fishbone.png","null","",NA,NA,NA,NA,""
"image-keyboard-response",231,205155,"0.0-4.73-0.73","cc9tfmds0xs9gyh",282,"115.csv","","223.5","resources/trios/L1T4A3.jpg","37","restless",0.7,0.4,0.6,0.698512436585851,"true"
"image-keyboard-response",232,205558,"0.0-4.73-1.73","cc9tfmds0xs9gyh",282,"115.csv","","null","resources/maskTrios/L1BB.jpg","null","",NA,NA,NA,NA,""
"image-keyboard-response",233,206760,"0.0-4.73-2.73","cc9tfmds0xs9gyh",282,"115.csv","","null","resources/images/coin2.png","null","",NA,NA,NA,NA,""
"image-keyboard-response",234,206979,"0.0-4.74-0.74","cc9tfmds0xs9gyh",282,"115.csv","","217.10000002384186","resources/trios/L1T4A3.jpg","37","restless",0.7,0.4,0.6,0.30749365680056,"true"
"image-keyboard-response",235,207389,"0.0-4.74-1.74","cc9tfmds0xs9gyh",282,"115.csv","","null","resources/maskTrios/L1BB.jpg","null","",NA,NA,NA,NA,""
"image-keyboard-response",236,208592,"0.0-4.74-2.74","cc9tfmds0xs9gyh",282,"115.csv","","null","resources/images/coin2.png","null","",NA,NA,NA,NA,""
"image-keyboard-response",237,208619,"0.0-4.75-0.75","cc9tfmds0xs9gyh",282,"115.csv","","25.200000017881393","resources/trios/L1T4A3.jpg","37","restless",0.7,0.4,0.6,0.0135266414962472,"true"
"image-keyboard-response",238,209021,"0.0-4.75-1.75","cc9tfmds0xs9gyh",282,"115.csv","","null","resources/maskTrios/L1BB.jpg","null","",NA,NA,NA,NA,""
"image-keyboard-response",239,210223,"0.0-4.75-2.75","cc9tfmds0xs9gyh",282,"115.csv","","null","resources/images/coin2.png","null","",NA,NA,NA,NA,""
"image-keyboard-response",240,211483,"0.0-4.76-0.76","cc9tfmds0xs9gyh",282,"115.csv","","1258.2999999821186","resources/trios/L1T4A3.jpg","37","restless",0.7,0.4,0.6,0.372021998804428,"true"
"image-keyboard-response",241,211886,"0.0-4.76-1.76","cc9tfmds0xs9gyh",282,"115.csv","","null","resources/maskTrios/L1BB.jpg","null","",NA,NA,NA,NA,""
"image-keyboard-response",242,213088,"0.0-4.76-2.76","cc9tfmds0xs9gyh",282,"115.csv","","null","resources/images/coin2.png","null","",NA,NA,NA,NA,""
"image-keyboard-response",243,221075,"0.0-4.77-0.77","cc9tfmds0xs9gyh",282,"115.csv","","7985.0999999940395","resources/trios/L1T4A3.jpg","37","restless",0.6,0.4,0.6,0.577158726095299,"true"
"image-keyboard-response",244,221478,"0.0-4.77-1.77","cc9tfmds0xs9gyh",282,"115.csv","","null","resources/maskTrios/L1BB.jpg","null","",NA,NA,NA,NA,""
"image-keyboard-response",245,222679,"0.0-4.77-2.77","cc9tfmds0xs9gyh",282,"115.csv","","null","resources/images/coin2.png","null","",NA,NA,NA,NA,""
"image-keyboard-response",246,222947,"0.0-4.78-0.78","cc9tfmds0xs9gyh",282,"115.csv","","265.40000000596046","resources/trios/L1T4A3.jpg","37","restless",0.6,0.4,0.6,0.54412350794049,"true"
"image-keyboard-response",247,223349,"0.0-4.78-1.78","cc9tfmds0xs9gyh",282,"115.csv","","null","resources/maskTrios/L1BB.jpg","null","",NA,NA,NA,NA,""
"image-keyboard-response",248,224551,"0.0-4.78-2.78","cc9tfmds0xs9gyh",282,"115.csv","","null","resources/images/coin2.png","null","",NA,NA,NA,NA,""
"image-keyboard-response",249,227595,"0.0-4.79-0.79","cc9tfmds0xs9gyh",282,"115.csv","","3042.0999999940395","resources/trios/L1T4A3.jpg","38","restless",0.5,0.4,0.6,0.534490768666684,"false"
"image-keyboard-response",250,227997,"0.0-4.79-1.79","cc9tfmds0xs9gyh",282,"115.csv","","null","resources/maskTrios/BT4B.jpg","null","",NA,NA,NA,NA,""
"image-keyboard-response",251,229199,"0.0-4.79-2.79","cc9tfmds0xs9gyh",282,"115.csv","","null","resources/images/fishbone.png","null","",NA,NA,NA,NA,""
"image-keyboard-response",252,229627,"0.0-4.80-0.80","cc9tfmds0xs9gyh",282,"115.csv","","425.40000000596046","resources/trios/L1T4A3.jpg","39","restless",0.4,0.4,0.6,0.392616434779202,"true"
"image-keyboard-response",253,230041,"0.0-4.80-1.80","cc9tfmds0xs9gyh",282,"115.csv","","null","resources/maskTrios/BBA3.jpg","null","",NA,NA,NA,NA,""
"image-keyboard-response",254,231251,"0.0-4.80-2.80","cc9tfmds0xs9gyh",282,"115.csv","","null","resources/images/coin2.png","null","",NA,NA,NA,NA,""
"image-keyboard-response",255,231859,"0.0-4.81-0.81","cc9tfmds0xs9gyh",282,"115.csv","","606.7999999821186","resources/trios/L1T4A3.jpg","37","restless",0.4,0.4,0.6,0.287561195718391,"true"
"image-keyboard-response",256,232262,"0.0-4.81-1.81","cc9tfmds0xs9gyh",282,"115.csv","","null","resources/maskTrios/L1BB.jpg","null","",NA,NA,NA,NA,""
"image-keyboard-response",257,233465,"0.0-4.81-2.81","cc9tfmds0xs9gyh",282,"115.csv","","null","resources/images/coin2.png","null","",NA,NA,NA,NA,""
"image-keyboard-response",258,233715,"0.0-4.82-0.82","cc9tfmds0xs9gyh",282,"115.csv","","248.5","resources/trios/L1T4A3.jpg","37","restless",0.4,0.4,0.6,0.173706920796987,"true"
"image-keyboard-response",259,234117,"0.0-4.82-1.82","cc9tfmds0xs9gyh",282,"115.csv","","null","resources/maskTrios/L1BB.jpg","null","",NA,NA,NA,NA,""
"image-keyboard-response",260,235330,"0.0-4.82-2.82","cc9tfmds0xs9gyh",282,"115.csv","","null","resources/images/coin2.png","null","",NA,NA,NA,NA,""
"image-keyboard-response",261,236011,"0.0-4.83-0.83","cc9tfmds0xs9gyh",282,"115.csv","","679","resources/trios/L1T4A3.jpg","37","restless",0.4,0.4,0.6,0.123822399332581,"true"
"image-keyboard-response",262,236413,"0.0-4.83-1.83","cc9tfmds0xs9gyh",282,"115.csv","","null","resources/maskTrios/L1BB.jpg","null","",NA,NA,NA,NA,""
"image-keyboard-response",263,237623,"0.0-4.83-2.83","cc9tfmds0xs9gyh",282,"115.csv","","null","resources/images/coin2.png","null","",NA,NA,NA,NA,""
"image-keyboard-response",264,237931,"0.0-4.84-0.84","cc9tfmds0xs9gyh",282,"115.csv","","305.69999998807907","resources/trios/L1T4A3.jpg","37","restless",0.3,0.4,0.5,0.216593562553244,"true"
"image-keyboard-response",265,238333,"0.0-4.84-1.84","cc9tfmds0xs9gyh",282,"115.csv","","null","resources/maskTrios/L1BB.jpg","null","",NA,NA,NA,NA,""
"image-keyboard-response",266,239536,"0.0-4.84-2.84","cc9tfmds0xs9gyh",282,"115.csv","","null","resources/images/coin2.png","null","",NA,NA,NA,NA,""
"image-keyboard-response",267,239787,"0.0-4.85-0.85","cc9tfmds0xs9gyh",282,"115.csv","","249.10000002384186","resources/trios/L1T4A3.jpg","37","restless",0.3,0.5,0.5,0.776316694157402,"false"
"image-keyboard-response",268,240189,"0.0-4.85-1.85","cc9tfmds0xs9gyh",282,"115.csv","","null","resources/maskTrios/L1BB.jpg","null","",NA,NA,NA,NA,""
"image-keyboard-response",269,241391,"0.0-4.85-2.85","cc9tfmds0xs9gyh",282,"115.csv","","null","resources/images/fishbone.png","null","",NA,NA,NA,NA,""
"image-keyboard-response",270,241683,"0.0-4.86-0.86","cc9tfmds0xs9gyh",282,"115.csv","","290.30000001192093","resources/trios/L1T4A3.jpg","38","restless",0.3,0.5,0.5,0.160655410821411,"true"
"image-keyboard-response",271,242086,"0.0-4.86-1.86","cc9tfmds0xs9gyh",282,"115.csv","","null","resources/maskTrios/BT4B.jpg","null","",NA,NA,NA,NA,""
"image-keyboard-response",272,243288,"0.0-4.86-2.86","cc9tfmds0xs9gyh",282,"115.csv","","null","resources/images/coin2.png","null","",NA,NA,NA,NA,""
"image-keyboard-response",273,243411,"0.0-4.87-0.87","cc9tfmds0xs9gyh",282,"115.csv","","120.5","resources/trios/L1T4A3.jpg","38","restless",0.3,0.5,0.5,0.596114896586491,"false"
"image-keyboard-response",274,243813,"0.0-4.87-1.87","cc9tfmds0xs9gyh",282,"115.csv","","null","resources/maskTrios/BT4B.jpg","null","",NA,NA,NA,NA,""
"image-keyboard-response",275,245015,"0.0-4.87-2.87","cc9tfmds0xs9gyh",282,"115.csv","","null","resources/images/fishbone.png","null","",NA,NA,NA,NA,""
"image-keyboard-response",276,245059,"0.0-4.88-0.88","cc9tfmds0xs9gyh",282,"115.csv","","41.599999994039536","resources/trios/L1T4A3.jpg","39","restless",0.3,0.5,0.5,0.172198375928569,"true"
"image-keyboard-response",277,245462,"0.0-4.88-1.88","cc9tfmds0xs9gyh",282,"115.csv","","null","resources/maskTrios/BBA3.jpg","null","",NA,NA,NA,NA,""
"image-keyboard-response",278,246665,"0.0-4.88-2.88","cc9tfmds0xs9gyh",282,"115.csv","","null","resources/images/coin2.png","null","",NA,NA,NA,NA,""
"image-keyboard-response",279,246899,"0.0-4.89-0.89","cc9tfmds0xs9gyh",282,"115.csv","","232.09999999403954","resources/trios/L1T4A3.jpg","37","restless",0.3,0.5,0.5,0.412338131110703,"false"
"image-keyboard-response",280,247302,"0.0-4.89-1.89","cc9tfmds0xs9gyh",282,"115.csv","","null","resources/maskTrios/L1BB.jpg","null","",NA,NA,NA,NA,""
"image-keyboard-response",281,248503,"0.0-4.89-2.89","cc9tfmds0xs9gyh",282,"115.csv","","null","resources/images/fishbone.png","null","",NA,NA,NA,NA,""
"image-keyboard-response",282,248523,"0.0-4.90-0.90","cc9tfmds0xs9gyh",282,"115.csv","","17.700000017881393","resources/trios/L1T4A3.jpg","39","restless",0.3,0.5,0.5,0.359970291083847,"true"
"image-keyboard-response",283,248925,"0.0-4.90-1.90","cc9tfmds0xs9gyh",282,"115.csv","","null","resources/maskTrios/BBA3.jpg","null","",NA,NA,NA,NA,""
"image-keyboard-response",284,250130,"0.0-4.90-2.90","cc9tfmds0xs9gyh",282,"115.csv","","null","resources/images/coin2.png","null","",NA,NA,NA,NA,""
"image-keyboard-response",285,250643,"0.0-4.91-0.91","cc9tfmds0xs9gyh",282,"115.csv","","511","resources/trios/L1T4A3.jpg","39","restless",0.3,0.5,0.5,0.231652578928171,"true"
"image-keyboard-response",286,251046,"0.0-4.91-1.91","cc9tfmds0xs9gyh",282,"115.csv","","null","resources/maskTrios/BBA3.jpg","null","",NA,NA,NA,NA,""
"image-keyboard-response",287,252254,"0.0-4.91-2.91","cc9tfmds0xs9gyh",282,"115.csv","","null","resources/images/coin2.png","null","",NA,NA,NA,NA,""
"image-keyboard-response",288,252667,"0.0-4.92-0.92","cc9tfmds0xs9gyh",282,"115.csv","","410.60000002384186","resources/trios/L1T4A3.jpg","37","restless",0.3,0.5,0.5,0.750966499503262,"false"
"image-keyboard-response",289,253069,"0.0-4.92-1.92","cc9tfmds0xs9gyh",282,"115.csv","","null","resources/maskTrios/L1BB.jpg","null","",NA,NA,NA,NA,""
"image-keyboard-response",290,254272,"0.0-4.92-2.92","cc9tfmds0xs9gyh",282,"115.csv","","null","resources/images/fishbone.png","null","",NA,NA,NA,NA,""
"image-keyboard-response",291,254507,"0.0-4.93-0.93","cc9tfmds0xs9gyh",282,"115.csv","","233.69999998807907","resources/trios/L1T4A3.jpg","39","restless",0.3,0.5,0.5,0.996773918992008,"false"
"image-keyboard-response",292,254910,"0.0-4.93-1.93","cc9tfmds0xs9gyh",282,"115.csv","","null","resources/maskTrios/BBA3.jpg","null","",NA,NA,NA,NA,""
"image-keyboard-response",293,256121,"0.0-4.93-2.93","cc9tfmds0xs9gyh",282,"115.csv","","null","resources/images/fishbone.png","null","",NA,NA,NA,NA,""
"image-keyboard-response",294,256355,"0.0-4.94-0.94","cc9tfmds0xs9gyh",282,"115.csv","","231.7999999821186","resources/trios/L1T4A3.jpg","38","restless",0.3,0.5,0.5,0.773255857537492,"false"
"image-keyboard-response",295,256757,"0.0-4.94-1.94","cc9tfmds0xs9gyh",282,"115.csv","","null","resources/maskTrios/BT4B.jpg","null","",NA,NA,NA,NA,""
"image-keyboard-response",296,257959,"0.0-4.94-2.94","cc9tfmds0xs9gyh",282,"115.csv","","null","resources/images/fishbone.png","null","",NA,NA,NA,NA,""
"image-keyboard-response",297,258291,"0.0-4.95-0.95","cc9tfmds0xs9gyh",282,"115.csv","","329.59999999403954","resources/trios/L1T4A3.jpg","37","restless",0.3,0.5,0.5,0.288627385064792,"true"
"image-keyboard-response",298,258693,"0.0-4.95-1.95","cc9tfmds0xs9gyh",282,"115.csv","","null","resources/maskTrios/L1BB.jpg","null","",NA,NA,NA,NA,""
"image-keyboard-response",299,259896,"0.0-4.95-2.95","cc9tfmds0xs9gyh",282,"115.csv","","null","resources/images/coin2.png","null","",NA,NA,NA,NA,""
"image-keyboard-response",300,260115,"0.0-4.96-0.96","cc9tfmds0xs9gyh",282,"115.csv","","217.2000000178814","resources/trios/L1T4A3.jpg","37","restless",0.3,0.4,0.5,0.179226459749289,"true"
"image-keyboard-response",301,260517,"0.0-4.96-1.96","cc9tfmds0xs9gyh",282,"115.csv","","null","resources/maskTrios/L1BB.jpg","null","",NA,NA,NA,NA,""
"image-keyboard-response",302,261720,"0.0-4.96-2.96","cc9tfmds0xs9gyh",282,"115.csv","","null","resources/images/coin2.png","null","",NA,NA,NA,NA,""
"image-keyboard-response",303,262035,"0.0-4.97-0.97","cc9tfmds0xs9gyh",282,"115.csv","","312.2999999821186","resources/trios/L1T4A3.jpg","37","restless",0.3,0.4,0.5,0.478552197008481,"false"
"image-keyboard-response",304,262437,"0.0-4.97-1.97","cc9tfmds0xs9gyh",282,"115.csv","","null","resources/maskTrios/L1BB.jpg","null","",NA,NA,NA,NA,""
"image-keyboard-response",305,263639,"0.0-4.97-2.97","cc9tfmds0xs9gyh",282,"115.csv","","null","resources/images/fishbone.png","null","",NA,NA,NA,NA,""
"image-keyboard-response",306,263923,"0.0-4.98-0.98","cc9tfmds0xs9gyh",282,"115.csv","","281.5","resources/trios/L1T4A3.jpg","38","restless",0.3,0.4,0.5,0.902587516430534,"false"
"image-keyboard-response",307,264325,"0.0-4.98-1.98","cc9tfmds0xs9gyh",282,"115.csv","","null","resources/maskTrios/BT4B.jpg","null","",NA,NA,NA,NA,""
"image-keyboard-response",308,265526,"0.0-4.98-2.98","cc9tfmds0xs9gyh",282,"115.csv","","null","resources/images/fishbone.png","null","",NA,NA,NA,NA,""
"image-keyboard-response",309,265747,"0.0-4.99-0.99","cc9tfmds0xs9gyh",282,"115.csv","","218.59999999403954","resources/trios/L1T4A3.jpg","39","restless",0.3,0.4,0.5,0.52447860445692,"false"
"image-keyboard-response",310,266149,"0.0-4.99-1.99","cc9tfmds0xs9gyh",282,"115.csv","","null","resources/maskTrios/BBA3.jpg","null","",NA,NA,NA,NA,""
"image-keyboard-response",311,267351,"0.0-4.99-2.99","cc9tfmds0xs9gyh",282,"115.csv","","null","resources/images/fishbone.png","null","",NA,NA,NA,NA,""
"image-keyboard-response",312,267539,"0.0-4.100-0.100","cc9tfmds0xs9gyh",282,"115.csv","","185.7000000178814","resources/trios/L1T4A3.jpg","39","restless",0.3,0.4,0.5,0.165045801144474,"true"
"image-keyboard-response",313,267941,"0.0-4.100-1.100","cc9tfmds0xs9gyh",282,"115.csv","","null","resources/maskTrios/BBA3.jpg","null","",NA,NA,NA,NA,""
"image-keyboard-response",314,269151,"0.0-4.100-2.100","cc9tfmds0xs9gyh",282,"115.csv","","null","resources/images/coin2.png","null","",NA,NA,NA,NA,""
"image-keyboard-response",315,269291,"0.0-4.101-0.101","cc9tfmds0xs9gyh",282,"115.csv","","137.69999998807907","resources/trios/L1T4A3.jpg","39","restless",0.3,0.4,0.5,0.980758518367887,"false"
"image-keyboard-response",316,269693,"0.0-4.101-1.101","cc9tfmds0xs9gyh",282,"115.csv","","null","resources/maskTrios/BBA3.jpg","null","",NA,NA,NA,NA,""
"image-keyboard-response",317,270896,"0.0-4.101-2.101","cc9tfmds0xs9gyh",282,"115.csv","","null","resources/images/fishbone.png","null","",NA,NA,NA,NA,""
"image-keyboard-response",318,271107,"0.0-4.102-0.102","cc9tfmds0xs9gyh",282,"115.csv","","208.80000001192093","resources/trios/L1T4A3.jpg","37","restless",0.3,0.4,0.5,0.159646969570103,"true"
"image-keyboard-response",319,271509,"0.0-4.102-1.102","cc9tfmds0xs9gyh",282,"115.csv","","null","resources/maskTrios/L1BB.jpg","null","",NA,NA,NA,NA,""
"image-keyboard-response",320,272711,"0.0-4.102-2.102","cc9tfmds0xs9gyh",282,"115.csv","","null","resources/images/coin2.png","null","",NA,NA,NA,NA,""
"image-keyboard-response",321,272955,"0.0-4.103-0.103","cc9tfmds0xs9gyh",282,"115.csv","","242.19999998807907","resources/trios/L1T4A3.jpg","37","restless",0.3,0.4,0.5,0.858816743898137,"false"
"image-keyboard-response",322,273358,"0.0-4.103-1.103","cc9tfmds0xs9gyh",282,"115.csv","","null","resources/maskTrios/L1BB.jpg","null","",NA,NA,NA,NA,""
"image-keyboard-response",323,274560,"0.0-4.103-2.103","cc9tfmds0xs9gyh",282,"115.csv","","null","resources/images/fishbone.png","null","",NA,NA,NA,NA,""
"image-keyboard-response",324,280226,"0.0-4.104-0.104","cc9tfmds0xs9gyh",282,"115.csv","","5664.800000011921","resources/trios/L1T4A3.jpg","38","restless",0.3,0.4,0.6,0.030020259593089,"true"
"image-keyboard-response",325,280629,"0.0-4.104-1.104","cc9tfmds0xs9gyh",282,"115.csv","","null","resources/maskTrios/BT4B.jpg","null","",NA,NA,NA,NA,""
"image-keyboard-response",326,281831,"0.0-4.104-2.104","cc9tfmds0xs9gyh",282,"115.csv","","null","resources/images/coin2.png","null","",NA,NA,NA,NA,""
"image-keyboard-response",327,282186,"0.0-4.105-0.105","cc9tfmds0xs9gyh",282,"115.csv","","352.7999999821186","resources/trios/L1T4A3.jpg","38","restless",0.3,0.4,0.6,0.931042105209337,"false"
"image-keyboard-response",328,282588,"0.0-4.105-1.105","cc9tfmds0xs9gyh",282,"115.csv","","null","resources/maskTrios/BT4B.jpg","null","",NA,NA,NA,NA,""
"image-keyboard-response",329,283791,"0.0-4.105-2.105","cc9tfmds0xs9gyh",282,"115.csv","","null","resources/images/fishbone.png","null","",NA,NA,NA,NA,""
"image-keyboard-response",330,284530,"0.0-4.106-0.106","cc9tfmds0xs9gyh",282,"115.csv","","737.3999999761581","resources/trios/L1T4A3.jpg","39","restless",0.3,0.4,0.7,0.623599501457073,"true"
"image-keyboard-response",331,284932,"0.0-4.106-1.106","cc9tfmds0xs9gyh",282,"115.csv","","null","resources/maskTrios/BBA3.jpg","null","",NA,NA,NA,NA,""
"image-keyboard-response",332,286134,"0.0-4.106-2.106","cc9tfmds0xs9gyh",282,"115.csv","","null","resources/images/coin2.png","null","",NA,NA,NA,NA,""
"image-keyboard-response",333,286426,"0.0-4.107-0.107","cc9tfmds0xs9gyh",282,"115.csv","","290.09999999403954","resources/trios/L1T4A3.jpg","39","restless",0.3,0.4,0.7,0.813385097828117,"false"
"image-keyboard-response",334,286829,"0.0-4.107-1.107","cc9tfmds0xs9gyh",282,"115.csv","","null","resources/maskTrios/BBA3.jpg","null","",NA,NA,NA,NA,""
"image-keyboard-response",335,288040,"0.0-4.107-2.107","cc9tfmds0xs9gyh",282,"115.csv","","null","resources/images/fishbone.png","null","",NA,NA,NA,NA,""
"image-keyboard-response",336,288266,"0.0-4.108-0.108","cc9tfmds0xs9gyh",282,"115.csv","","224.30000001192093","resources/trios/L1T4A3.jpg","37","restless",0.3,0.4,0.7,0.0176239987183515,"true"
"image-keyboard-response",337,288669,"0.0-4.108-1.108","cc9tfmds0xs9gyh",282,"115.csv","","null","resources/maskTrios/L1BB.jpg","null","",NA,NA,NA,NA,""
"image-keyboard-response",338,289872,"0.0-4.108-2.108","cc9tfmds0xs9gyh",282,"115.csv","","null","resources/images/coin2.png","null","",NA,NA,NA,NA,""
"image-keyboard-response",339,290074,"0.0-4.109-0.109","cc9tfmds0xs9gyh",282,"115.csv","","200.40000000596046","resources/trios/L1T4A3.jpg","37","restless",0.3,0.4,0.6,0.908741044712151,"false"
"image-keyboard-response",340,290476,"0.0-4.109-1.109","cc9tfmds0xs9gyh",282,"115.csv","","null","resources/maskTrios/L1BB.jpg","null","",NA,NA,NA,NA,""
"image-keyboard-response",341,291678,"0.0-4.109-2.109","cc9tfmds0xs9gyh",282,"115.csv","","null","resources/images/fishbone.png","null","",NA,NA,NA,NA,""
"image-keyboard-response",342,291882,"0.0-4.110-0.110","cc9tfmds0xs9gyh",282,"115.csv","","202.2999999821186","resources/trios/L1T4A3.jpg","38","restless",0.3,0.4,0.6,0.869670998529195,"false"
"image-keyboard-response",343,292285,"0.0-4.110-1.110","cc9tfmds0xs9gyh",282,"115.csv","","null","resources/maskTrios/BT4B.jpg","null","",NA,NA,NA,NA,""
"image-keyboard-response",344,293487,"0.0-4.110-2.110","cc9tfmds0xs9gyh",282,"115.csv","","null","resources/images/fishbone.png","null","",NA,NA,NA,NA,""
"image-keyboard-response",345,294434,"0.0-4.111-0.111","cc9tfmds0xs9gyh",282,"115.csv","","945","resources/trios/L1T4A3.jpg","39","restless",0.3,0.4,0.7,0.702796702090084,"false"
"image-keyboard-response",346,294837,"0.0-4.111-1.111","cc9tfmds0xs9gyh",282,"115.csv","","null","resources/maskTrios/BBA3.jpg","null","",NA,NA,NA,NA,""
"image-keyboard-response",347,296039,"0.0-4.111-2.111","cc9tfmds0xs9gyh",282,"115.csv","","null","resources/images/fishbone.png","null","",NA,NA,NA,NA,""
"image-keyboard-response",348,296346,"0.0-4.112-0.112","cc9tfmds0xs9gyh",282,"115.csv","","305.09999999403954","resources/trios/L1T4A3.jpg","39","restless",0.3,0.4,0.7,0.563622226357499,"true"
"image-keyboard-response",349,296749,"0.0-4.112-1.112","cc9tfmds0xs9gyh",282,"115.csv","","null","resources/maskTrios/BBA3.jpg","null","",NA,NA,NA,NA,""
"image-keyboard-response",350,297952,"0.0-4.112-2.112","cc9tfmds0xs9gyh",282,"115.csv","","null","resources/images/coin2.png","null","",NA,NA,NA,NA,""
"image-keyboard-response",351,298354,"0.0-4.113-0.113","cc9tfmds0xs9gyh",282,"115.csv","","399.90000000596046","resources/trios/L1T4A3.jpg","39","restless",0.3,0.4,0.7,0.481665814496787,"true"
"image-keyboard-response",352,298757,"0.0-4.113-1.113","cc9tfmds0xs9gyh",282,"115.csv","","null","resources/maskTrios/BBA3.jpg","null","",NA,NA,NA,NA,""
"image-keyboard-response",353,299966,"0.0-4.113-2.113","cc9tfmds0xs9gyh",282,"115.csv","","null","resources/images/coin2.png","null","",NA,NA,NA,NA,""
"image-keyboard-response",354,300290,"0.0-4.114-0.114","cc9tfmds0xs9gyh",282,"115.csv","","322.60000002384186","resources/trios/L1T4A3.jpg","39","restless",0.3,0.4,0.7,0.374312947684385,"true"
"image-keyboard-response",355,300692,"0.0-4.114-1.114","cc9tfmds0xs9gyh",282,"115.csv","","null","resources/maskTrios/BBA3.jpg","null","",NA,NA,NA,NA,""
"image-keyboard-response",356,301894,"0.0-4.114-2.114","cc9tfmds0xs9gyh",282,"115.csv","","null","resources/images/coin2.png","null","",NA,NA,NA,NA,""
"image-keyboard-response",357,302250,"0.0-4.115-0.115","cc9tfmds0xs9gyh",282,"115.csv","","354.09999999403954","resources/trios/L1T4A3.jpg","39","restless",0.3,0.4,0.7,0.40718089159746,"true"
"image-keyboard-response",358,302662,"0.0-4.115-1.115","cc9tfmds0xs9gyh",282,"115.csv","","null","resources/maskTrios/BBA3.jpg","null","",NA,NA,NA,NA,""
"image-keyboard-response",359,303864,"0.0-4.115-2.115","cc9tfmds0xs9gyh",282,"115.csv","","null","resources/images/coin2.png","null","",NA,NA,NA,NA,""
"image-keyboard-response",360,304226,"0.0-4.116-0.116","cc9tfmds0xs9gyh",282,"115.csv","","360.19999998807907","resources/trios/L1T4A3.jpg","37","restless",0.3,0.4,0.7,0.983571026938623,"false"
"image-keyboard-response",361,304629,"0.0-4.116-1.116","cc9tfmds0xs9gyh",282,"115.csv","","null","resources/maskTrios/L1BB.jpg","null","",NA,NA,NA,NA,""
"image-keyboard-response",362,305831,"0.0-4.116-2.116","cc9tfmds0xs9gyh",282,"115.csv","","null","resources/images/fishbone.png","null","",NA,NA,NA,NA,""
"image-keyboard-response",363,306154,"0.0-4.117-0.117","cc9tfmds0xs9gyh",282,"115.csv","","321.5","resources/trios/L1T4A3.jpg","38","restless",0.3,0.4,0.7,0.822731119376082,"false"
"image-keyboard-response",364,306556,"0.0-4.117-1.117","cc9tfmds0xs9gyh",282,"115.csv","","null","resources/maskTrios/BT4B.jpg","null","",NA,NA,NA,NA,""
"image-keyboard-response",365,307758,"0.0-4.117-2.117","cc9tfmds0xs9gyh",282,"115.csv","","null","resources/images/fishbone.png","null","",NA,NA,NA,NA,""
"image-keyboard-response",366,308098,"0.0-4.118-0.118","cc9tfmds0xs9gyh",282,"115.csv","","337.7000000178814","resources/trios/L1T4A3.jpg","39","restless",0.3,0.4,0.7,0.155878688843319,"true"
"image-keyboard-response",367,308500,"0.0-4.118-1.118","cc9tfmds0xs9gyh",282,"115.csv","","null","resources/maskTrios/BBA3.jpg","null","",NA,NA,NA,NA,""
"image-keyboard-response",368,309702,"0.0-4.118-2.118","cc9tfmds0xs9gyh",282,"115.csv","","null","resources/images/coin2.png","null","",NA,NA,NA,NA,""
"image-keyboard-response",369,310330,"0.0-4.119-0.119","cc9tfmds0xs9gyh",282,"115.csv","","626","resources/trios/L1T4A3.jpg","39","restless",0.4,0.4,0.7,0.560813009060512,"true"
"image-keyboard-response",370,310733,"0.0-4.119-1.119","cc9tfmds0xs9gyh",282,"115.csv","","null","resources/maskTrios/BBA3.jpg","null","",NA,NA,NA,NA,""
"image-keyboard-response",371,311935,"0.0-4.119-2.119","cc9tfmds0xs9gyh",282,"115.csv","","null","resources/images/coin2.png","null","",NA,NA,NA,NA,""
"image-keyboard-response",372,312298,"0.0-4.120-0.120","cc9tfmds0xs9gyh",282,"115.csv","","360.59999999403954","resources/trios/L1T4A3.jpg","39","restless",0.3,0.4,0.7,0.637250314120871,"true"
"image-keyboard-response",373,312700,"0.0-4.120-1.120","cc9tfmds0xs9gyh",282,"115.csv","","null","resources/maskTrios/BBA3.jpg","null","",NA,NA,NA,NA,""
"image-keyboard-response",374,313902,"0.0-4.120-2.120","cc9tfmds0xs9gyh",282,"115.csv","","null","resources/images/coin2.png","null","",NA,NA,NA,NA,""
"image-keyboard-response",375,314426,"0.0-4.121-0.121","cc9tfmds0xs9gyh",282,"115.csv","","521.3999999761581","resources/trios/L1T4A3.jpg","39","restless",0.3,0.4,0.7,0.960179559191944,"false"
"image-keyboard-response",376,314827,"0.0-4.121-1.121","cc9tfmds0xs9gyh",282,"115.csv","","null","resources/maskTrios/BBA3.jpg","null","",NA,NA,NA,NA,""
"image-keyboard-response",377,316034,"0.0-4.121-2.121","cc9tfmds0xs9gyh",282,"115.csv","","null","resources/images/fishbone.png","null","",NA,NA,NA,NA,""
"image-keyboard-response",378,316250,"0.0-4.122-0.122","cc9tfmds0xs9gyh",282,"115.csv","","213.69999998807907","resources/trios/L1T4A3.jpg","37","restless",0.3,0.4,0.8,0.912301727306209,"false"
"image-keyboard-response",379,316652,"0.0-4.122-1.122","cc9tfmds0xs9gyh",282,"115.csv","","null","resources/maskTrios/L1BB.jpg","null","",NA,NA,NA,NA,""
"image-keyboard-response",380,317854,"0.0-4.122-2.122","cc9tfmds0xs9gyh",282,"115.csv","","null","resources/images/fishbone.png","null","",NA,NA,NA,NA,""
"image-keyboard-response",381,318010,"0.0-4.123-0.123","cc9tfmds0xs9gyh",282,"115.csv","","153.90000000596046","resources/trios/L1T4A3.jpg","39","restless",0.3,0.4,0.8,0.368759253406999,"true"
"image-keyboard-response",382,318421,"0.0-4.123-1.123","cc9tfmds0xs9gyh",282,"115.csv","","null","resources/maskTrios/BBA3.jpg","null","",NA,NA,NA,NA,""
"image-keyboard-response",383,319624,"0.0-4.123-2.123","cc9tfmds0xs9gyh",282,"115.csv","","null","resources/images/coin2.png","null","",NA,NA,NA,NA,""
"image-keyboard-response",384,319706,"0.0-4.124-0.124","cc9tfmds0xs9gyh",282,"115.csv","","80.2000000178814","resources/trios/L1T4A3.jpg","39","restless",0.3,0.4,0.8,0.635846368137708,"true"
"image-keyboard-response",385,320108,"0.0-4.124-1.124","cc9tfmds0xs9gyh",282,"115.csv","","null","resources/maskTrios/BBA3.jpg","null","",NA,NA,NA,NA,""
"image-keyboard-response",386,321310,"0.0-4.124-2.124","cc9tfmds0xs9gyh",282,"115.csv","","null","resources/images/coin2.png","null","",NA,NA,NA,NA,""
"image-keyboard-response",387,321946,"0.0-4.125-0.125","cc9tfmds0xs9gyh",282,"115.csv","","634.0999999940395","resources/trios/L1T4A3.jpg","39","restless",0.3,0.4,0.8,0.0150655566913571,"true"
"image-keyboard-response",388,322349,"0.0-4.125-1.125","cc9tfmds0xs9gyh",282,"115.csv","","null","resources/maskTrios/BBA3.jpg","null","",NA,NA,NA,NA,""
"image-keyboard-response",389,323550,"0.0-4.125-2.125","cc9tfmds0xs9gyh",282,"115.csv","","null","resources/images/coin2.png","null","",NA,NA,NA,NA,""
"image-keyboard-response",390,323946,"0.0-4.126-0.126","cc9tfmds0xs9gyh",282,"115.csv","","394.39999997615814","resources/trios/L1T4A3.jpg","39","restless",0.3,0.4,0.8,0.441943372909636,"true"
"image-keyboard-response",391,324349,"0.0-4.126-1.126","cc9tfmds0xs9gyh",282,"115.csv","","null","resources/maskTrios/BBA3.jpg","null","",NA,NA,NA,NA,""
"image-keyboard-response",392,325551,"0.0-4.126-2.126","cc9tfmds0xs9gyh",282,"115.csv","","null","resources/images/coin2.png","null","",NA,NA,NA,NA,""
"image-keyboard-response",393,325898,"0.0-4.127-0.127","cc9tfmds0xs9gyh",282,"115.csv","","344.80000001192093","resources/trios/L1T4A3.jpg","39","restless",0.3,0.4,0.7,0.560784283316274,"true"
"image-keyboard-response",394,326300,"0.0-4.127-1.127","cc9tfmds0xs9gyh",282,"115.csv","","null","resources/maskTrios/BBA3.jpg","null","",NA,NA,NA,NA,""
"image-keyboard-response",395,327502,"0.0-4.127-2.127","cc9tfmds0xs9gyh",282,"115.csv","","null","resources/images/coin2.png","null","",NA,NA,NA,NA,""
"image-keyboard-response",396,327930,"0.0-4.128-0.128","cc9tfmds0xs9gyh",282,"115.csv","","425.7000000178814","resources/trios/L1T4A3.jpg","39","restless",0.3,0.4,0.6,0.440898018446688,"true"
"image-keyboard-response",397,328332,"0.0-4.128-1.128","cc9tfmds0xs9gyh",282,"115.csv","","null","resources/maskTrios/BBA3.jpg","null","",NA,NA,NA,NA,""
"image-keyboard-response",398,329535,"0.0-4.128-2.128","cc9tfmds0xs9gyh",282,"115.csv","","null","resources/images/coin2.png","null","",NA,NA,NA,NA,""
"image-keyboard-response",399,330594,"0.0-4.129-0.129","cc9tfmds0xs9gyh",282,"115.csv","","1056.800000011921","resources/trios/L1T4A3.jpg","39","restless",0.3,0.5,0.6,0.221860852065931,"true"
"image-keyboard-response",400,330996,"0.0-4.129-1.129","cc9tfmds0xs9gyh",282,"115.csv","","null","resources/maskTrios/BBA3.jpg","null","",NA,NA,NA,NA,""
"image-keyboard-response",401,332198,"0.0-4.129-2.129","cc9tfmds0xs9gyh",282,"115.csv","","null","resources/images/coin2.png","null","",NA,NA,NA,NA,""
"image-keyboard-response",402,332715,"0.0-4.130-0.130","cc9tfmds0xs9gyh",282,"115.csv","","514.7999999821186","resources/trios/L1T4A3.jpg","39","restless",0.3,0.5,0.6,0.35808956879138,"true"
"image-keyboard-response",403,333118,"0.0-4.130-1.130","cc9tfmds0xs9gyh",282,"115.csv","","null","resources/maskTrios/BBA3.jpg","null","",NA,NA,NA,NA,""
"image-keyboard-response",404,334320,"0.0-4.130-2.130","cc9tfmds0xs9gyh",282,"115.csv","","null","resources/images/coin2.png","null","",NA,NA,NA,NA,""
"image-keyboard-response",405,334858,"0.0-4.131-0.131","cc9tfmds0xs9gyh",282,"115.csv","","536.1999999880791","resources/trios/L1T4A3.jpg","39","restless",0.3,0.5,0.6,0.00502153293929308,"true"
"image-keyboard-response",406,335261,"0.0-4.131-1.131","cc9tfmds0xs9gyh",282,"115.csv","","null","resources/maskTrios/BBA3.jpg","null","",NA,NA,NA,NA,""
"image-keyboard-response",407,336463,"0.0-4.131-2.131","cc9tfmds0xs9gyh",282,"115.csv","","null","resources/images/coin2.png","null","",NA,NA,NA,NA,""
"image-keyboard-response",408,336858,"0.0-4.132-0.132","cc9tfmds0xs9gyh",282,"115.csv","","392.59999999403954","resources/trios/L1T4A3.jpg","39","restless",0.2,0.5,0.6,0.659717306901072,"false"
"image-keyboard-response",409,337261,"0.0-4.132-1.132","cc9tfmds0xs9gyh",282,"115.csv","","null","resources/maskTrios/BBA3.jpg","null","",NA,NA,NA,NA,""
"image-keyboard-response",410,338463,"0.0-4.132-2.132","cc9tfmds0xs9gyh",282,"115.csv","","null","resources/images/fishbone.png","null","",NA,NA,NA,NA,""
"image-keyboard-response",411,338794,"0.0-4.133-0.133","cc9tfmds0xs9gyh",282,"115.csv","","328.5","resources/trios/L1T4A3.jpg","37","restless",0.2,0.5,0.6,0.515846757951952,"false"
"image-keyboard-response",412,339197,"0.0-4.133-1.133","cc9tfmds0xs9gyh",282,"115.csv","","null","resources/maskTrios/L1BB.jpg","null","",NA,NA,NA,NA,""
"image-keyboard-response",413,340398,"0.0-4.133-2.133","cc9tfmds0xs9gyh",282,"115.csv","","null","resources/images/fishbone.png","null","",NA,NA,NA,NA,""
"image-keyboard-response",414,340682,"0.0-4.134-0.134","cc9tfmds0xs9gyh",282,"115.csv","","282","resources/trios/L1T4A3.jpg","39","restless",0.2,0.5,0.6,0.601281809714725,"false"
"image-keyboard-response",415,341085,"0.0-4.134-1.134","cc9tfmds0xs9gyh",282,"115.csv","","null","resources/maskTrios/BBA3.jpg","null","",NA,NA,NA,NA,""
"image-keyboard-response",416,342286,"0.0-4.134-2.134","cc9tfmds0xs9gyh",282,"115.csv","","null","resources/images/fishbone.png","null","",NA,NA,NA,NA,""
"image-keyboard-response",417,342346,"0.0-4.135-0.135","cc9tfmds0xs9gyh",282,"115.csv","","56.900000005960464","resources/trios/L1T4A3.jpg","38","restless",0.2,0.5,0.6,0.442988119869324,"true"
"image-keyboard-response",418,342750,"0.0-4.135-1.135","cc9tfmds0xs9gyh",282,"115.csv","","null","resources/maskTrios/BT4B.jpg","null","",NA,NA,NA,NA,""
"image-keyboard-response",419,343952,"0.0-4.135-2.135","cc9tfmds0xs9gyh",282,"115.csv","","null","resources/images/coin2.png","null","",NA,NA,NA,NA,""
"image-keyboard-response",420,361547,"0.0-4.136-0.136","cc9tfmds0xs9gyh",282,"115.csv","","17593.69999998808","resources/trios/L1T4A3.jpg","39","restless",0.2,0.5,0.6,0.0716748519585091,"true"
"image-keyboard-response",421,361950,"0.0-4.136-1.136","cc9tfmds0xs9gyh",282,"115.csv","","null","resources/maskTrios/BBA3.jpg","null","",NA,NA,NA,NA,""
"image-keyboard-response",422,363152,"0.0-4.136-2.136","cc9tfmds0xs9gyh",282,"115.csv","","null","resources/images/coin2.png","null","",NA,NA,NA,NA,""
"image-keyboard-response",423,363427,"0.0-4.137-0.137","cc9tfmds0xs9gyh",282,"115.csv","","273.09999999403954","resources/trios/L1T4A3.jpg","39","restless",0.2,0.5,0.6,0.679677908199235,"false"
"image-keyboard-response",424,363830,"0.0-4.137-1.137","cc9tfmds0xs9gyh",282,"115.csv","","null","resources/maskTrios/BBA3.jpg","null","",NA,NA,NA,NA,""
"image-keyboard-response",425,365041,"0.0-4.137-2.137","cc9tfmds0xs9gyh",282,"115.csv","","null","resources/images/fishbone.png","null","",NA,NA,NA,NA,""
"image-keyboard-response",426,365260,"0.0-4.138-0.138","cc9tfmds0xs9gyh",282,"115.csv","","217","resources/trios/L1T4A3.jpg","37","restless",0.2,0.5,0.6,0.915129175856889,"false"
"image-keyboard-response",427,365662,"0.0-4.138-1.138","cc9tfmds0xs9gyh",282,"115.csv","","null","resources/maskTrios/L1BB.jpg","null","",NA,NA,NA,NA,""
"image-keyboard-response",428,366864,"0.0-4.138-2.138","cc9tfmds0xs9gyh",282,"115.csv","","null","resources/images/fishbone.png","null","",NA,NA,NA,NA,""
"image-keyboard-response",429,366963,"0.0-4.139-0.139","cc9tfmds0xs9gyh",282,"115.csv","","97.39999997615814","resources/trios/L1T4A3.jpg","38","restless",0.2,0.5,0.6,0.936081360969477,"false"
"image-keyboard-response",430,367365,"0.0-4.139-1.139","cc9tfmds0xs9gyh",282,"115.csv","","null","resources/maskTrios/BT4B.jpg","null","",NA,NA,NA,NA,""
"image-keyboard-response",431,368567,"0.0-4.139-2.139","cc9tfmds0xs9gyh",282,"115.csv","","null","resources/images/fishbone.png","null","",NA,NA,NA,NA,""
"image-keyboard-response",432,368803,"0.0-4.140-0.140","cc9tfmds0xs9gyh",282,"115.csv","","233.89999997615814","resources/trios/L1T4A3.jpg","39","restless",0.2,0.4,0.5,0.187345273784135,"true"
"image-keyboard-response",433,369206,"0.0-4.140-1.140","cc9tfmds0xs9gyh",282,"115.csv","","null","resources/maskTrios/BBA3.jpg","null","",NA,NA,NA,NA,""
"image-keyboard-response",434,370409,"0.0-4.140-2.140","cc9tfmds0xs9gyh",282,"115.csv","","null","resources/images/coin2.png","null","",NA,NA,NA,NA,""
"image-keyboard-response",435,370555,"0.0-4.141-0.141","cc9tfmds0xs9gyh",282,"115.csv","","144","resources/trios/L1T4A3.jpg","39","restless",0.2,0.4,0.5,0.516343365891836,"false"
"image-keyboard-response",436,370958,"0.0-4.141-1.141","cc9tfmds0xs9gyh",282,"115.csv","","null","resources/maskTrios/BBA3.jpg","null","",NA,NA,NA,NA,""
"image-keyboard-response",437,372165,"0.0-4.141-2.141","cc9tfmds0xs9gyh",282,"115.csv","","null","resources/images/fishbone.png","null","",NA,NA,NA,NA,""
"image-keyboard-response",438,372588,"0.0-4.142-0.142","cc9tfmds0xs9gyh",282,"115.csv","","420.2000000178814","resources/trios/L1T4A3.jpg","37","restless",0.2,0.4,0.5,0.821758583880831,"false"
"image-keyboard-response",439,372990,"0.0-4.142-1.142","cc9tfmds0xs9gyh",282,"115.csv","","null","resources/maskTrios/L1BB.jpg","null","",NA,NA,NA,NA,""
"image-keyboard-response",440,374191,"0.0-4.142-2.142","cc9tfmds0xs9gyh",282,"115.csv","","null","resources/images/fishbone.png","null","",NA,NA,NA,NA,""
"image-keyboard-response",441,374402,"0.0-4.143-0.143","cc9tfmds0xs9gyh",282,"115.csv","","209.5","resources/trios/L1T4A3.jpg","38","restless",0.2,0.4,0.4,0.711107521686939,"false"
"image-keyboard-response",442,374805,"0.0-4.143-1.143","cc9tfmds0xs9gyh",282,"115.csv","","null","resources/maskTrios/BT4B.jpg","null","",NA,NA,NA,NA,""
"image-keyboard-response",443,376007,"0.0-4.143-2.143","cc9tfmds0xs9gyh",282,"115.csv","","null","resources/images/fishbone.png","null","",NA,NA,NA,NA,""
"image-keyboard-response",444,376595,"0.0-4.144-0.144","cc9tfmds0xs9gyh",282,"115.csv","","586.0999999940395","resources/trios/L1T4A3.jpg","39","restless",0.2,0.4,0.4,0.0483278445307544,"true"
"image-keyboard-response",445,376997,"0.0-4.144-1.144","cc9tfmds0xs9gyh",282,"115.csv","","null","resources/maskTrios/BBA3.jpg","null","",NA,NA,NA,NA,""
"image-keyboard-response",446,378199,"0.0-4.144-2.144","cc9tfmds0xs9gyh",282,"115.csv","","null","resources/images/coin2.png","null","",NA,NA,NA,NA,""
"image-keyboard-response",447,378235,"0.0-4.145-0.145","cc9tfmds0xs9gyh",282,"115.csv","","33.89999997615814","resources/trios/L1T4A3.jpg","39","restless",0.2,0.4,0.4,0.896540785664898,"false"
"image-keyboard-response",448,378638,"0.0-4.145-1.145","cc9tfmds0xs9gyh",282,"115.csv","","null","resources/maskTrios/BBA3.jpg","null","",NA,NA,NA,NA,""
"image-keyboard-response",449,379840,"0.0-4.145-2.145","cc9tfmds0xs9gyh",282,"115.csv","","null","resources/images/fishbone.png","null","",NA,NA,NA,NA,""
"image-keyboard-response",450,380226,"0.0-4.146-0.146","cc9tfmds0xs9gyh",282,"115.csv","","384.09999999403954","resources/trios/L1T4A3.jpg","37","restless",0.3,0.4,0.4,0.380262236254115,"false"
"image-keyboard-response",451,380629,"0.0-4.146-1.146","cc9tfmds0xs9gyh",282,"115.csv","","null","resources/maskTrios/L1BB.jpg","null","",NA,NA,NA,NA,""
"image-keyboard-response",452,381830,"0.0-4.146-2.146","cc9tfmds0xs9gyh",282,"115.csv","","null","resources/images/fishbone.png","null","",NA,NA,NA,NA,""
"image-keyboard-response",453,382075,"0.0-4.147-0.147","cc9tfmds0xs9gyh",282,"115.csv","","242.7999999821186","resources/trios/L1T4A3.jpg","37","restless",0.3,0.4,0.4,0.797041632973064,"false"
"image-keyboard-response",454,382479,"0.0-4.147-1.147","cc9tfmds0xs9gyh",282,"115.csv","","null","resources/maskTrios/L1BB.jpg","null","",NA,NA,NA,NA,""
"image-keyboard-response",455,383680,"0.0-4.147-2.147","cc9tfmds0xs9gyh",282,"115.csv","","null","resources/images/fishbone.png","null","",NA,NA,NA,NA,""
"image-keyboard-response",456,383883,"0.0-4.148-0.148","cc9tfmds0xs9gyh",282,"115.csv","","201.10000002384186","resources/trios/L1T4A3.jpg","38","restless",0.3,0.5,0.4,0.987850218307606,"false"
"image-keyboard-response",457,384285,"0.0-4.148-1.148","cc9tfmds0xs9gyh",282,"115.csv","","null","resources/maskTrios/BT4B.jpg","null","",NA,NA,NA,NA,""
"image-keyboard-response",458,385487,"0.0-4.148-2.148","cc9tfmds0xs9gyh",282,"115.csv","","null","resources/images/fishbone.png","null","",NA,NA,NA,NA,""
"image-keyboard-response",459,385523,"0.0-4.149-0.149","cc9tfmds0xs9gyh",282,"115.csv","","33.89999997615814","resources/trios/L1T4A3.jpg","38","restless",0.2,0.5,0.4,0.586383604850839,"false"
"image-keyboard-response",460,385926,"0.0-4.149-1.149","cc9tfmds0xs9gyh",282,"115.csv","","null","resources/maskTrios/BT4B.jpg","null","",NA,NA,NA,NA,""
"image-keyboard-response",461,387127,"0.0-4.149-2.149","cc9tfmds0xs9gyh",282,"115.csv","","null","resources/images/fishbone.png","null","",NA,NA,NA,NA,""
"image-keyboard-response",462,387523,"0.0-4.150-0.150","cc9tfmds0xs9gyh",282,"115.csv","","393.90000000596046","resources/trios/L1T4A3.jpg","39","restless",0.2,0.6,0.4,0.773886721806792,"false"
"image-keyboard-response",463,387926,"0.0-4.150-1.150","cc9tfmds0xs9gyh",282,"115.csv","","null","resources/maskTrios/BBA3.jpg","null","",NA,NA,NA,NA,""
"image-keyboard-response",464,389130,"0.0-4.150-2.150","cc9tfmds0xs9gyh",282,"115.csv","","null","resources/images/fishbone.png","null","",NA,NA,NA,NA,""
"image-keyboard-response",465,389347,"0.0-4.151-0.151","cc9tfmds0xs9gyh",282,"115.csv","","215.60000002384186","resources/trios/L1T4A3.jpg","39","restless",0.2,0.6,0.4,0.531432303554533,"false"
"image-keyboard-response",466,389749,"0.0-4.151-1.151","cc9tfmds0xs9gyh",282,"115.csv","","null","resources/maskTrios/BBA3.jpg","null","",NA,NA,NA,NA,""
"image-keyboard-response",467,390951,"0.0-4.151-2.151","cc9tfmds0xs9gyh",282,"115.csv","","null","resources/images/fishbone.png","null","",NA,NA,NA,NA,""
"image-keyboard-response",468,391811,"0.0-4.152-0.152","cc9tfmds0xs9gyh",282,"115.csv","","858.0999999940395","resources/trios/L1T4A3.jpg","39","restless",0.2,0.6,0.4,0.00253830210898776,"true"
"image-keyboard-response",469,392213,"0.0-4.152-1.152","cc9tfmds0xs9gyh",282,"115.csv","","null","resources/maskTrios/BBA3.jpg","null","",NA,NA,NA,NA,""
"image-keyboard-response",470,393422,"0.0-4.152-2.152","cc9tfmds0xs9gyh",282,"115.csv","","null","resources/images/coin2.png","null","",NA,NA,NA,NA,""
"image-keyboard-response",471,393811,"0.0-4.153-0.153","cc9tfmds0xs9gyh",282,"115.csv","","387.7000000178814","resources/trios/L1T4A3.jpg","39","restless",0.2,0.6,0.5,0.244777930685401,"true"
"image-keyboard-response",472,394214,"0.0-4.153-1.153","cc9tfmds0xs9gyh",282,"115.csv","","null","resources/maskTrios/BBA3.jpg","null","",NA,NA,NA,NA,""
"image-keyboard-response",473,395416,"0.0-4.153-2.153","cc9tfmds0xs9gyh",282,"115.csv","","null","resources/images/coin2.png","null","",NA,NA,NA,NA,""
"image-keyboard-response",474,395739,"0.0-4.154-0.154","cc9tfmds0xs9gyh",282,"115.csv","","320.90000000596046","resources/trios/L1T4A3.jpg","39","restless",0.2,0.6,0.5,0.741681987411043,"false"
"image-keyboard-response",475,396142,"0.0-4.154-1.154","cc9tfmds0xs9gyh",282,"115.csv","","null","resources/maskTrios/BBA3.jpg","null","",NA,NA,NA,NA,""
"image-keyboard-response",476,397344,"0.0-4.154-2.154","cc9tfmds0xs9gyh",282,"115.csv","","null","resources/images/fishbone.png","null","",NA,NA,NA,NA,""
"image-keyboard-response",477,397571,"0.0-4.155-0.155","cc9tfmds0xs9gyh",282,"115.csv","","225","resources/trios/L1T4A3.jpg","39","restless",0.2,0.6,0.5,0.566013791143283,"false"
"image-keyboard-response",478,397974,"0.0-4.155-1.155","cc9tfmds0xs9gyh",282,"115.csv","","null","resources/maskTrios/BBA3.jpg","null","",NA,NA,NA,NA,""
"image-keyboard-response",479,399175,"0.0-4.155-2.155","cc9tfmds0xs9gyh",282,"115.csv","","null","resources/images/fishbone.png","null","",NA,NA,NA,NA,""
"image-keyboard-response",480,399603,"0.0-4.156-0.156","cc9tfmds0xs9gyh",282,"115.csv","","425.90000000596046","resources/trios/L1T4A3.jpg","38","restless",0.2,0.6,0.5,0.594004561060015,"true"
"image-keyboard-response",481,400006,"0.0-4.156-1.156","cc9tfmds0xs9gyh",282,"115.csv","","null","resources/maskTrios/BT4B.jpg","null","",NA,NA,NA,NA,""
"image-keyboard-response",482,401217,"0.0-4.156-2.156","cc9tfmds0xs9gyh",282,"115.csv","","null","resources/images/coin2.png","null","",NA,NA,NA,NA,""
"image-keyboard-response",483,401435,"0.0-4.157-0.157","cc9tfmds0xs9gyh",282,"115.csv","","216.19999998807907","resources/trios/L1T4A3.jpg","38","restless",0.2,0.6,0.5,0.0629463059445035,"true"
"image-keyboard-response",484,401839,"0.0-4.157-1.157","cc9tfmds0xs9gyh",282,"115.csv","","null","resources/maskTrios/BT4B.jpg","null","",NA,NA,NA,NA,""
"image-keyboard-response",485,403041,"0.0-4.157-2.157","cc9tfmds0xs9gyh",282,"115.csv","","null","resources/images/coin2.png","null","",NA,NA,NA,NA,""
"image-keyboard-response",486,403371,"0.0-4.158-0.158","cc9tfmds0xs9gyh",282,"115.csv","","328.09999999403954","resources/trios/L1T4A3.jpg","38","restless",0.2,0.6,0.5,0.621245321700494,"false"
"image-keyboard-response",487,403773,"0.0-4.158-1.158","cc9tfmds0xs9gyh",282,"115.csv","","null","resources/maskTrios/BT4B.jpg","null","",NA,NA,NA,NA,""
"image-keyboard-response",488,404975,"0.0-4.158-2.158","cc9tfmds0xs9gyh",282,"115.csv","","null","resources/images/fishbone.png","null","",NA,NA,NA,NA,""
"image-keyboard-response",489,405243,"0.0-4.159-0.159","cc9tfmds0xs9gyh",282,"115.csv","","265.5","resources/trios/L1T4A3.jpg","37","restless",0.2,0.6,0.5,0.13144814885263,"true"
"image-keyboard-response",490,405646,"0.0-4.159-1.159","cc9tfmds0xs9gyh",282,"115.csv","","null","resources/maskTrios/L1BB.jpg","null","",NA,NA,NA,NA,""
"image-keyboard-response",491,406848,"0.0-4.159-2.159","cc9tfmds0xs9gyh",282,"115.csv","","null","resources/images/coin2.png","null","",NA,NA,NA,NA,""
"image-keyboard-response",492,406955,"0.0-4.160-0.160","cc9tfmds0xs9gyh",282,"115.csv","","104.90000000596046","resources/trios/L1T4A3.jpg","37","restless",0.2,0.6,0.5,0.463222122664633,"false"
"image-keyboard-response",493,407358,"0.0-4.160-1.160","cc9tfmds0xs9gyh",282,"115.csv","","null","resources/maskTrios/L1BB.jpg","null","",NA,NA,NA,NA,""
"image-keyboard-response",494,408569,"0.0-4.160-2.160","cc9tfmds0xs9gyh",282,"115.csv","","null","resources/images/fishbone.png","null","",NA,NA,NA,NA,""
"image-keyboard-response",495,408611,"0.0-4.161-0.161","cc9tfmds0xs9gyh",282,"115.csv","","40","resources/trios/L1T4A3.jpg","39","restless",0.2,0.6,0.5,0.7146639411312,"false"
"image-keyboard-response",496,409013,"0.0-4.161-1.161","cc9tfmds0xs9gyh",282,"115.csv","","null","resources/maskTrios/BBA3.jpg","null","",NA,NA,NA,NA,""
"image-keyboard-response",497,410215,"0.0-4.161-2.161","cc9tfmds0xs9gyh",282,"115.csv","","null","resources/images/fishbone.png","null","",NA,NA,NA,NA,""
"image-keyboard-response",498,410747,"0.0-4.162-0.162","cc9tfmds0xs9gyh",282,"115.csv","","529.5","resources/trios/L1T4A3.jpg","39","restless",0.2,0.6,0.5,0.645854528529895,"false"
"image-keyboard-response",499,411150,"0.0-4.162-1.162","cc9tfmds0xs9gyh",282,"115.csv","","null","resources/maskTrios/BBA3.jpg","null","",NA,NA,NA,NA,""
"image-keyboard-response",500,412352,"0.0-4.162-2.162","cc9tfmds0xs9gyh",282,"115.csv","","null","resources/images/fishbone.png","null","",NA,NA,NA,NA,""
"image-keyboard-response",501,412635,"0.0-4.163-0.163","cc9tfmds0xs9gyh",282,"115.csv","","281.39999997615814","resources/trios/L1T4A3.jpg","39","restless",0.2,0.6,0.5,0.248962953348696,"true"
"image-keyboard-response",502,413037,"0.0-4.163-1.163","cc9tfmds0xs9gyh",282,"115.csv","","null","resources/maskTrios/BBA3.jpg","null","",NA,NA,NA,NA,""
"image-keyboard-response",503,414243,"0.0-4.163-2.163","cc9tfmds0xs9gyh",282,"115.csv","","null","resources/images/coin2.png","null","",NA,NA,NA,NA,""
"image-keyboard-response",504,414475,"0.0-4.164-0.164","cc9tfmds0xs9gyh",282,"115.csv","","230.59999999403954","resources/trios/L1T4A3.jpg","37","restless",0.2,0.6,0.5,0.0413714713877287,"true"
"image-keyboard-response",505,414878,"0.0-4.164-1.164","cc9tfmds0xs9gyh",282,"115.csv","","null","resources/maskTrios/L1BB.jpg","null","",NA,NA,NA,NA,""
"image-keyboard-response",506,416081,"0.0-4.164-2.164","cc9tfmds0xs9gyh",282,"115.csv","","null","resources/images/coin2.png","null","",NA,NA,NA,NA,""
"image-keyboard-response",507,416339,"0.0-4.165-0.165","cc9tfmds0xs9gyh",282,"115.csv","","255.89999997615814","resources/trios/L1T4A3.jpg","37","restless",0.2,0.6,0.6,0.881095455182577,"false"
"image-keyboard-response",508,416741,"0.0-4.165-1.165","cc9tfmds0xs9gyh",282,"115.csv","","null","resources/maskTrios/L1BB.jpg","null","",NA,NA,NA,NA,""
"image-keyboard-response",509,417944,"0.0-4.165-2.165","cc9tfmds0xs9gyh",282,"115.csv","","null","resources/images/fishbone.png","null","",NA,NA,NA,NA,""
"image-keyboard-response",510,418211,"0.0-4.166-0.166","cc9tfmds0xs9gyh",282,"115.csv","","264.59999999403954","resources/trios/L1T4A3.jpg","38","restless",0.2,0.6,0.6,0.11201794283066,"true"
"image-keyboard-response",511,418615,"0.0-4.166-1.166","cc9tfmds0xs9gyh",282,"115.csv","","null","resources/maskTrios/BT4B.jpg","null","",NA,NA,NA,NA,""
"image-keyboard-response",512,419818,"0.0-4.166-2.166","cc9tfmds0xs9gyh",282,"115.csv","","null","resources/images/coin2.png","null","",NA,NA,NA,NA,""
"image-keyboard-response",513,420147,"0.0-4.167-0.167","cc9tfmds0xs9gyh",282,"115.csv","","326.80000001192093","resources/trios/L1T4A3.jpg","38","restless",0.2,0.6,0.6,0.739845167273369,"false"
"image-keyboard-response",514,420548,"0.0-4.167-1.167","cc9tfmds0xs9gyh",282,"115.csv","","null","resources/maskTrios/BT4B.jpg","null","",NA,NA,NA,NA,""
"image-keyboard-response",515,421751,"0.0-4.167-2.167","cc9tfmds0xs9gyh",282,"115.csv","","null","resources/images/fishbone.png","null","",NA,NA,NA,NA,""
"image-keyboard-response",516,438211,"0.0-4.168-0.168","cc9tfmds0xs9gyh",282,"115.csv","","16457.90000000596","resources/trios/L1T4A3.jpg","38","restless",0.2,0.6,0.6,0.920659790350923,"false"
"image-keyboard-response",517,438614,"0.0-4.168-1.168","cc9tfmds0xs9gyh",282,"115.csv","","null","resources/maskTrios/BT4B.jpg","null","",NA,NA,NA,NA,""
"image-keyboard-response",518,439817,"0.0-4.168-2.168","cc9tfmds0xs9gyh",282,"115.csv","","null","resources/images/fishbone.png","null","",NA,NA,NA,NA,""
"image-keyboard-response",519,440154,"0.0-4.169-0.169","cc9tfmds0xs9gyh",282,"115.csv","","335.09999999403954","resources/trios/L1T4A3.jpg","39","restless",0.2,0.6,0.6,0.805215308305391,"false"
"image-keyboard-response",520,440558,"0.0-4.169-1.169","cc9tfmds0xs9gyh",282,"115.csv","","null","resources/maskTrios/BBA3.jpg","null","",NA,NA,NA,NA,""
"image-keyboard-response",521,441760,"0.0-4.169-2.169","cc9tfmds0xs9gyh",282,"115.csv","","null","resources/images/fishbone.png","null","",NA,NA,NA,NA,""
"image-keyboard-response",522,441922,"0.0-4.170-0.170","cc9tfmds0xs9gyh",282,"115.csv","","160.30000001192093","resources/trios/L1T4A3.jpg","37","restless",0.2,0.6,0.6,0.992110998274268,"false"
"image-keyboard-response",523,442325,"0.0-4.170-1.170","cc9tfmds0xs9gyh",282,"115.csv","","null","resources/maskTrios/L1BB.jpg","null","",NA,NA,NA,NA,""
"image-keyboard-response",524,443528,"0.0-4.170-2.170","cc9tfmds0xs9gyh",282,"115.csv","","null","resources/images/fishbone.png","null","",NA,NA,NA,NA,""
"image-keyboard-response",525,444362,"0.0-4.171-0.171","cc9tfmds0xs9gyh",282,"115.csv","","832.2999999821186","resources/trios/L1T4A3.jpg","38","restless",0.3,0.6,0.7,0.971648947300431,"false"
"image-keyboard-response",526,444764,"0.0-4.171-1.171","cc9tfmds0xs9gyh",282,"115.csv","","null","resources/maskTrios/BT4B.jpg","null","",NA,NA,NA,NA,""
"image-keyboard-response",527,445967,"0.0-4.171-2.171","cc9tfmds0xs9gyh",282,"115.csv","","null","resources/images/fishbone.png","null","",NA,NA,NA,NA,""
"image-keyboard-response",528,446362,"0.0-4.172-0.172","cc9tfmds0xs9gyh",282,"115.csv","","393.80000001192093","resources/trios/L1T4A3.jpg","39","restless",0.3,0.6,0.7,0.342375361065691,"true"
"image-keyboard-response",529,446764,"0.0-4.172-1.172","cc9tfmds0xs9gyh",282,"115.csv","","null","resources/maskTrios/BBA3.jpg","null","",NA,NA,NA,NA,""
"image-keyboard-response",530,447967,"0.0-4.172-2.172","cc9tfmds0xs9gyh",282,"115.csv","","null","resources/images/coin2.png","null","",NA,NA,NA,NA,""
"image-keyboard-response",531,448146,"0.0-4.173-0.173","cc9tfmds0xs9gyh",282,"115.csv","","177.7999999821186","resources/trios/L1T4A3.jpg","39","restless",0.4,0.6,0.7,0.0186552153106436,"true"
"image-keyboard-response",532,448548,"0.0-4.173-1.173","cc9tfmds0xs9gyh",282,"115.csv","","null","resources/maskTrios/BBA3.jpg","null","",NA,NA,NA,NA,""
"image-keyboard-response",533,449751,"0.0-4.173-2.173","cc9tfmds0xs9gyh",282,"115.csv","","null","resources/images/coin2.png","null","",NA,NA,NA,NA,""
"image-keyboard-response",534,450026,"0.0-4.174-0.174","cc9tfmds0xs9gyh",282,"115.csv","","273.59999999403954","resources/trios/L1T4A3.jpg","39","restless",0.4,0.6,0.7,0.682134685376197,"true"
"image-keyboard-response",535,450429,"0.0-4.174-1.174","cc9tfmds0xs9gyh",282,"115.csv","","null","resources/maskTrios/BBA3.jpg","null","",NA,NA,NA,NA,""
"image-keyboard-response",536,451631,"0.0-4.174-2.174","cc9tfmds0xs9gyh",282,"115.csv","","null","resources/images/coin2.png","null","",NA,NA,NA,NA,""
"image-keyboard-response",537,452482,"0.0-4.175-0.175","cc9tfmds0xs9gyh",282,"115.csv","","849.8999999761581","resources/trios/L1T4A3.jpg","39","restless",0.4,0.6,0.7,0.521977492689655,"true"
"image-keyboard-response",538,452885,"0.0-4.175-1.175","cc9tfmds0xs9gyh",282,"115.csv","","null","resources/maskTrios/BBA3.jpg","null","",NA,NA,NA,NA,""
"image-keyboard-response",539,454088,"0.0-4.175-2.175","cc9tfmds0xs9gyh",282,"115.csv","","null","resources/images/coin2.png","null","",NA,NA,NA,NA,""
"image-keyboard-response",540,454578,"0.0-4.176-0.176","cc9tfmds0xs9gyh",282,"115.csv","","488.10000002384186","resources/trios/L1T4A3.jpg","39","restless",0.4,0.6,0.7,0.424206045923508,"true"
"image-keyboard-response",541,454981,"0.0-4.176-1.176","cc9tfmds0xs9gyh",282,"115.csv","","null","resources/maskTrios/BBA3.jpg","null","",NA,NA,NA,NA,""
"image-keyboard-response",542,456183,"0.0-4.176-2.176","cc9tfmds0xs9gyh",282,"115.csv","","null","resources/images/coin2.png","null","",NA,NA,NA,NA,""
"image-keyboard-response",543,456506,"0.0-4.177-0.177","cc9tfmds0xs9gyh",282,"115.csv","","320.90000000596046","resources/trios/L1T4A3.jpg","39","restless",0.4,0.6,0.7,0.569504291994871,"true"
"image-keyboard-response",544,456909,"0.0-4.177-1.177","cc9tfmds0xs9gyh",282,"115.csv","","null","resources/maskTrios/BBA3.jpg","null","",NA,NA,NA,NA,""
"image-keyboard-response",545,458120,"0.0-4.177-2.177","cc9tfmds0xs9gyh",282,"115.csv","","null","resources/images/coin2.png","null","",NA,NA,NA,NA,""
"image-keyboard-response",546,458947,"0.0-4.178-0.178","cc9tfmds0xs9gyh",282,"115.csv","","824.2999999821186","resources/trios/L1T4A3.jpg","39","restless",0.4,0.6,0.7,0.334156620302248,"true"
"image-keyboard-response",547,459349,"0.0-4.178-1.178","cc9tfmds0xs9gyh",282,"115.csv","","null","resources/maskTrios/BBA3.jpg","null","",NA,NA,NA,NA,""
"image-keyboard-response",548,460552,"0.0-4.178-2.178","cc9tfmds0xs9gyh",282,"115.csv","","null","resources/images/coin2.png","null","",NA,NA,NA,NA,""
"image-keyboard-response",549,460754,"0.0-4.179-0.179","cc9tfmds0xs9gyh",282,"115.csv","","200.69999998807907","resources/trios/L1T4A3.jpg","39","restless",0.4,0.6,0.7,0.337133932358294,"true"
"image-keyboard-response",550,461158,"0.0-4.179-1.179","cc9tfmds0xs9gyh",282,"115.csv","","null","resources/maskTrios/BBA3.jpg","null","",NA,NA,NA,NA,""
"image-keyboard-response",551,462360,"0.0-4.179-2.179","cc9tfmds0xs9gyh",282,"115.csv","","null","resources/images/coin2.png","null","",NA,NA,NA,NA,""
"image-keyboard-response",552,462618,"0.0-4.180-0.180","cc9tfmds0xs9gyh",282,"115.csv","","256.69999998807907","resources/trios/L1T4A3.jpg","39","restless",0.4,0.6,0.7,0.220849893692712,"true"
"image-keyboard-response",553,463023,"0.0-4.180-1.180","cc9tfmds0xs9gyh",282,"115.csv","","null","resources/maskTrios/BBA3.jpg","null","",NA,NA,NA,NA,""
"image-keyboard-response",554,464225,"0.0-4.180-2.180","cc9tfmds0xs9gyh",282,"115.csv","","null","resources/images/coin2.png","null","",NA,NA,NA,NA,""
"image-keyboard-response",555,464994,"0.0-4.181-0.181","cc9tfmds0xs9gyh",282,"115.csv","","766.9000000059605","resources/trios/L1T4A3.jpg","39","restless",0.4,0.6,0.7,0.384386207058926,"true"
"image-keyboard-response",556,465398,"0.0-4.181-1.181","cc9tfmds0xs9gyh",282,"115.csv","","null","resources/maskTrios/BBA3.jpg","null","",NA,NA,NA,NA,""
"image-keyboard-response",557,466600,"0.0-4.181-2.181","cc9tfmds0xs9gyh",282,"115.csv","","null","resources/images/coin2.png","null","",NA,NA,NA,NA,""
"image-keyboard-response",558,466930,"0.0-4.182-0.182","cc9tfmds0xs9gyh",282,"115.csv","","328.40000000596046","resources/trios/L1T4A3.jpg","39","restless",0.4,0.6,0.7,0.67448785760007,"true"
"image-keyboard-response",559,467333,"0.0-4.182-1.182","cc9tfmds0xs9gyh",282,"115.csv","","null","resources/maskTrios/BBA3.jpg","null","",NA,NA,NA,NA,""
"image-keyboard-response",560,468535,"0.0-4.182-2.182","cc9tfmds0xs9gyh",282,"115.csv","","null","resources/images/coin2.png","null","",NA,NA,NA,NA,""
"image-keyboard-response",561,469314,"0.0-4.183-0.183","cc9tfmds0xs9gyh",282,"115.csv","","777.5999999940395","resources/trios/L1T4A3.jpg","39","restless",0.4,0.6,0.7,0.221346057783452,"true"
"image-keyboard-response",562,469716,"0.0-4.183-1.183","cc9tfmds0xs9gyh",282,"115.csv","","null","resources/maskTrios/BBA3.jpg","null","",NA,NA,NA,NA,""
"image-keyboard-response",563,470918,"0.0-4.183-2.183","cc9tfmds0xs9gyh",282,"115.csv","","null","resources/images/coin2.png","null","",NA,NA,NA,NA,""
"image-keyboard-response",564,471514,"0.0-4.184-0.184","cc9tfmds0xs9gyh",282,"115.csv","","594.5","resources/trios/L1T4A3.jpg","39","restless",0.4,0.6,0.7,0.999770427857569,"false"
"image-keyboard-response",565,471918,"0.0-4.184-1.184","cc9tfmds0xs9gyh",282,"115.csv","","null","resources/maskTrios/BBA3.jpg","null","",NA,NA,NA,NA,""
"image-keyboard-response",566,473119,"0.0-4.184-2.184","cc9tfmds0xs9gyh",282,"115.csv","","null","resources/images/fishbone.png","null","",NA,NA,NA,NA,""
"image-keyboard-response",567,473378,"0.0-4.185-0.185","cc9tfmds0xs9gyh",282,"115.csv","","256.7999999821186","resources/trios/L1T4A3.jpg","37","restless",0.4,0.6,0.6,0.5426896552387,"false"
"image-keyboard-response",568,473781,"0.0-4.185-1.185","cc9tfmds0xs9gyh",282,"115.csv","","null","resources/maskTrios/L1BB.jpg","null","",NA,NA,NA,NA,""
"image-keyboard-response",569,474984,"0.0-4.185-2.185","cc9tfmds0xs9gyh",282,"115.csv","","null","resources/images/fishbone.png","null","",NA,NA,NA,NA,""
"image-keyboard-response",570,476043,"0.0-4.186-0.186","cc9tfmds0xs9gyh",282,"115.csv","","1055.699999988079","resources/trios/L1T4A3.jpg","39","restless",0.4,0.6,0.6,0.666905004704126,"false"
"image-keyboard-response",571,476445,"0.0-4.186-1.186","cc9tfmds0xs9gyh",282,"115.csv","","null","resources/maskTrios/BBA3.jpg","null","",NA,NA,NA,NA,""
"image-keyboard-response",572,477647,"0.0-4.186-2.186","cc9tfmds0xs9gyh",282,"115.csv","","null","resources/images/fishbone.png","null","",NA,NA,NA,NA,""
"image-keyboard-response",573,477962,"0.0-4.187-0.187","cc9tfmds0xs9gyh",282,"115.csv","","313.2000000178814","resources/trios/L1T4A3.jpg","39","restless",0.5,0.6,0.6,0.491168620259077,"true"
"image-keyboard-response",574,478365,"0.0-4.187-1.187","cc9tfmds0xs9gyh",282,"115.csv","","null","resources/maskTrios/BBA3.jpg","null","",NA,NA,NA,NA,""
"image-keyboard-response",575,479567,"0.0-4.187-2.187","cc9tfmds0xs9gyh",282,"115.csv","","null","resources/images/coin2.png","null","",NA,NA,NA,NA,""
"image-keyboard-response",576,480258,"0.0-4.188-0.188","cc9tfmds0xs9gyh",282,"115.csv","","689.0999999940395","resources/trios/L1T4A3.jpg","39","restless",0.5,0.5,0.6,0.987846271390462,"false"
"image-keyboard-response",577,480660,"0.0-4.188-1.188","cc9tfmds0xs9gyh",282,"115.csv","","null","resources/maskTrios/BBA3.jpg","null","",NA,NA,NA,NA,""
"image-keyboard-response",578,481863,"0.0-4.188-2.188","cc9tfmds0xs9gyh",282,"115.csv","","null","resources/images/fishbone.png","null","",NA,NA,NA,NA,""
"image-keyboard-response",579,482106,"0.0-4.189-0.189","cc9tfmds0xs9gyh",282,"115.csv","","242","resources/trios/L1T4A3.jpg","38","restless",0.5,0.5,0.6,0.307371142698027,"true"
"image-keyboard-response",580,482508,"0.0-4.189-1.189","cc9tfmds0xs9gyh",282,"115.csv","","null","resources/maskTrios/BT4B.jpg","null","",NA,NA,NA,NA,""
"image-keyboard-response",581,483711,"0.0-4.189-2.189","cc9tfmds0xs9gyh",282,"115.csv","","null","resources/images/coin2.png","null","",NA,NA,NA,NA,""
"image-keyboard-response",582,483978,"0.0-4.190-0.190","cc9tfmds0xs9gyh",282,"115.csv","","264.80000001192093","resources/trios/L1T4A3.jpg","38","restless",0.5,0.5,0.6,0.0180092954586029,"true"
"image-keyboard-response",583,484380,"0.0-4.190-1.190","cc9tfmds0xs9gyh",282,"115.csv","","null","resources/maskTrios/BT4B.jpg","null","",NA,NA,NA,NA,""
"image-keyboard-response",584,485582,"0.0-4.190-2.190","cc9tfmds0xs9gyh",282,"115.csv","","null","resources/images/coin2.png","null","",NA,NA,NA,NA,""
"image-keyboard-response",585,485858,"0.0-4.191-0.191","cc9tfmds0xs9gyh",282,"115.csv","","274.09999999403954","resources/trios/L1T4A3.jpg","38","restless",0.5,0.5,0.6,0.290800648287767,"true"
"image-keyboard-response",586,486260,"0.0-4.191-1.191","cc9tfmds0xs9gyh",282,"115.csv","","null","resources/maskTrios/BT4B.jpg","null","",NA,NA,NA,NA,""
"image-keyboard-response",587,487462,"0.0-4.191-2.191","cc9tfmds0xs9gyh",282,"115.csv","","null","resources/images/coin2.png","null","",NA,NA,NA,NA,""
"image-keyboard-response",588,487698,"0.0-4.192-0.192","cc9tfmds0xs9gyh",282,"115.csv","","234.09999999403954","resources/trios/L1T4A3.jpg","38","restless",0.5,0.5,0.6,0.86115078566802,"false"
"image-keyboard-response",589,488100,"0.0-4.192-1.192","cc9tfmds0xs9gyh",282,"115.csv","","null","resources/maskTrios/BT4B.jpg","null","",NA,NA,NA,NA,""
"image-keyboard-response",590,489302,"0.0-4.192-2.192","cc9tfmds0xs9gyh",282,"115.csv","","null","resources/images/fishbone.png","null","",NA,NA,NA,NA,""
"image-keyboard-response",591,489442,"0.0-4.193-0.193","cc9tfmds0xs9gyh",282,"115.csv","","137.59999999403954","resources/trios/L1T4A3.jpg","39","restless",0.5,0.5,0.6,0.106901764351916,"true"
"image-keyboard-response",592,489844,"0.0-4.193-1.193","cc9tfmds0xs9gyh",282,"115.csv","","null","resources/maskTrios/BBA3.jpg","null","",NA,NA,NA,NA,""
"image-keyboard-response",593,491047,"0.0-4.193-2.193","cc9tfmds0xs9gyh",282,"115.csv","","null","resources/images/coin2.png","null","",NA,NA,NA,NA,""
"image-keyboard-response",594,491842,"0.0-4.194-0.194","cc9tfmds0xs9gyh",282,"115.csv","","792.9000000059605","resources/trios/L1T4A3.jpg","39","restless",0.5,0.5,0.6,0.181583820302795,"true"
"image-keyboard-response",595,492245,"0.0-4.194-1.194","cc9tfmds0xs9gyh",282,"115.csv","","null","resources/maskTrios/BBA3.jpg","null","",NA,NA,NA,NA,""
"image-keyboard-response",596,493448,"0.0-4.194-2.194","cc9tfmds0xs9gyh",282,"115.csv","","null","resources/images/coin2.png","null","",NA,NA,NA,NA,""
"image-keyboard-response",597,494242,"0.0-4.195-0.195","cc9tfmds0xs9gyh",282,"115.csv","","792.5","resources/trios/L1T4A3.jpg","39","restless",0.5,0.5,0.6,0.477490997959071,"true"
"image-keyboard-response",598,494645,"0.0-4.195-1.195","cc9tfmds0xs9gyh",282,"115.csv","","null","resources/maskTrios/BBA3.jpg","null","",NA,NA,NA,NA,""
"image-keyboard-response",599,495848,"0.0-4.195-2.195","cc9tfmds0xs9gyh",282,"115.csv","","null","resources/images/coin2.png","null","",NA,NA,NA,NA,""
"image-keyboard-response",600,496514,"0.0-4.196-0.196","cc9tfmds0xs9gyh",282,"115.csv","","664.4000000059605","resources/trios/L1T4A3.jpg","39","restless",0.5,0.5,0.7,0.912810385506105,"false"
"image-keyboard-response",601,496917,"0.0-4.196-1.196","cc9tfmds0xs9gyh",282,"115.csv","","null","resources/maskTrios/BBA3.jpg","null","",NA,NA,NA,NA,""
"image-keyboard-response",602,498119,"0.0-4.196-2.196","cc9tfmds0xs9gyh",282,"115.csv","","null","resources/images/fishbone.png","null","",NA,NA,NA,NA,""
"image-keyboard-response",603,498330,"0.0-4.197-0.197","cc9tfmds0xs9gyh",282,"115.csv","","209.2000000178814","resources/trios/L1T4A3.jpg","37","restless",0.5,0.5,0.7,0.561066211835157,"false"
"image-keyboard-response",604,498733,"0.0-4.197-1.197","cc9tfmds0xs9gyh",282,"115.csv","","null","resources/maskTrios/L1BB.jpg","null","",NA,NA,NA,NA,""
"image-keyboard-response",605,499935,"0.0-4.197-2.197","cc9tfmds0xs9gyh",282,"115.csv","","null","resources/images/fishbone.png","null","",NA,NA,NA,NA,""
"image-keyboard-response",606,500194,"0.0-4.198-0.198","cc9tfmds0xs9gyh",282,"115.csv","","257","resources/trios/L1T4A3.jpg","38","restless",0.5,0.5,0.7,0.197908504661478,"true"
"image-keyboard-response",607,500597,"0.0-4.198-1.198","cc9tfmds0xs9gyh",282,"115.csv","","null","resources/maskTrios/BT4B.jpg","null","",NA,NA,NA,NA,""
"image-keyboard-response",608,501799,"0.0-4.198-2.198","cc9tfmds0xs9gyh",282,"115.csv","","null","resources/images/coin2.png","null","",NA,NA,NA,NA,""
