"trial_type","trial_index","time_elapsed","internal_node_id","subject","participantCode","walkNumber","success","rt","stimulus","key_press","test_part","leftProb","midProb","rightProb","generatedNum","correct"
"pavlovia",0,960,"0.0-0.0","7tpzu16bj8n8fd2",958,"21.csv","","","","","",NA,NA,NA,NA,""
"fullscreen",1,3986,"0.0-1.0","7tpzu16bj8n8fd2",958,"21.csv","true","","","","",NA,NA,NA,NA,""
"survey-html-form",2,11027,"0.0-2.0","7tpzu16bj8n8fd2",958,"21.csv","","7040.299999952316","","","",NA,NA,NA,NA,""
"image-keyboard-response",3,20157,"0.0-3.0-0.0","7tpzu16bj8n8fd2",958,"21.csv","","9129.099999904633","resources/images/parrot_nobg.png","13","",NA,NA,NA,NA,""
"image-keyboard-response",4,23166,"0.0-3.0-1.0","7tpzu16bj8n8fd2",958,"21.csv","","null","resources/image_sets/111.png","null","",NA,NA,NA,NA,""
"image-keyboard-response",5,25433,"0.0-3.0-2.0","7tpzu16bj8n8fd2",958,"21.csv","","2264.7000000476837","resources/image_sets/left_highlight.png","37","",NA,NA,NA,NA,""
"image-keyboard-response",6,26151,"0.0-3.0-3.0","7tpzu16bj8n8fd2",958,"21.csv","","715.5","resources/image_sets/mid_highlight.png","38","",NA,NA,NA,NA,""
"image-keyboard-response",7,27027,"0.0-3.0-4.0","7tpzu16bj8n8fd2",958,"21.csv","","874.9000000953674","resources/image_sets/right_highlight.png","39","",NA,NA,NA,NA,""
"image-keyboard-response",8,29046,"0.0-3.0-5.0","7tpzu16bj8n8fd2",958,"21.csv","","2018.1000001430511","resources/image_sets/111.png","13","",NA,NA,NA,NA,""
"image-keyboard-response",9,31111,"0.0-3.0-6.0","7tpzu16bj8n8fd2",958,"21.csv","","2065.4000000953674","resources/images/coin2.png","13","",NA,NA,NA,NA,""
"image-keyboard-response",10,32643,"0.0-3.0-7.0","7tpzu16bj8n8fd2",958,"21.csv","","1531.2999999523163","resources/images/fishbone.png","13","",NA,NA,NA,NA,""
"html-keyboard-response",11,38733,"0.0-3.0-8.0","7tpzu16bj8n8fd2",958,"21.csv","","6088.899999856949","<p>You can track your coin total on the top right of your screen. </p><p>At the end of your journey you will be directed to a survey, so please click on the link before exiting the task</p><p>Press Enter to begin</p>","13","",NA,NA,NA,NA,""
"image-keyboard-response",12,42271,"0.0-4.0-0.0","7tpzu16bj8n8fd2",958,"21.csv","","3537.7999999523163","resources/trios/L1T2A3.jpg","38","restless",0.7,0.3,0.9,0.716342786475557,"false"
"image-keyboard-response",13,42685,"0.0-4.0-1.0","7tpzu16bj8n8fd2",958,"21.csv","","null","resources/maskTrios/BT2B.jpg","null","",NA,NA,NA,NA,""
"image-keyboard-response",14,43897,"0.0-4.0-2.0","7tpzu16bj8n8fd2",958,"21.csv","","null","resources/images/fishbone.png","null","",NA,NA,NA,NA,""
"image-keyboard-response",15,44389,"0.0-4.1-0.1","7tpzu16bj8n8fd2",958,"21.csv","","489.60000014305115","resources/trios/L1T2A3.jpg","37","restless",0.7,0.3,0.9,0.461162882149087,"true"
"image-keyboard-response",16,44801,"0.0-4.1-1.1","7tpzu16bj8n8fd2",958,"21.csv","","null","resources/maskTrios/L1BB.jpg","null","",NA,NA,NA,NA,""
"image-keyboard-response",17,46013,"0.0-4.1-2.1","7tpzu16bj8n8fd2",958,"21.csv","","null","resources/images/coin2.png","null","",NA,NA,NA,NA,""
"image-keyboard-response",18,46723,"0.0-4.2-0.2","7tpzu16bj8n8fd2",958,"21.csv","","708.8999998569489","resources/trios/L1T2A3.jpg","37","restless",0.7,0.3,0.9,0.669056360458268,"true"
"image-keyboard-response",19,47127,"0.0-4.2-1.2","7tpzu16bj8n8fd2",958,"21.csv","","null","resources/maskTrios/L1BB.jpg","null","",NA,NA,NA,NA,""
"image-keyboard-response",20,48343,"0.0-4.2-2.2","7tpzu16bj8n8fd2",958,"21.csv","","null","resources/images/coin2.png","null","",NA,NA,NA,NA,""
"image-keyboard-response",21,48794,"0.0-4.3-0.3","7tpzu16bj8n8fd2",958,"21.csv","","448.89999985694885","resources/trios/L1T2A3.jpg","37","restless",0.7,0.3,0.9,0.685557491353067,"true"
"image-keyboard-response",22,49200,"0.0-4.3-1.3","7tpzu16bj8n8fd2",958,"21.csv","","null","resources/maskTrios/L1BB.jpg","null","",NA,NA,NA,NA,""
"image-keyboard-response",23,50411,"0.0-4.3-2.3","7tpzu16bj8n8fd2",958,"21.csv","","null","resources/images/coin2.png","null","",NA,NA,NA,NA,""
"image-keyboard-response",24,50684,"0.0-4.4-0.4","7tpzu16bj8n8fd2",958,"21.csv","","272.09999990463257","resources/trios/L1T2A3.jpg","37","restless",0.7,0.3,0.9,0.575681104508602,"true"
"image-keyboard-response",25,51095,"0.0-4.4-1.4","7tpzu16bj8n8fd2",958,"21.csv","","null","resources/maskTrios/L1BB.jpg","null","",NA,NA,NA,NA,""
"image-keyboard-response",26,52302,"0.0-4.4-2.4","7tpzu16bj8n8fd2",958,"21.csv","","null","resources/images/coin2.png","null","",NA,NA,NA,NA,""
"image-keyboard-response",27,52649,"0.0-4.5-0.5","7tpzu16bj8n8fd2",958,"21.csv","","345.90000009536743","resources/trios/L1T2A3.jpg","37","restless",0.7,0.3,0.8,0.0666838735452642,"true"
"image-keyboard-response",28,53063,"0.0-4.5-1.5","7tpzu16bj8n8fd2",958,"21.csv","","null","resources/maskTrios/L1BB.jpg","null","",NA,NA,NA,NA,""
"image-keyboard-response",29,54275,"0.0-4.5-2.5","7tpzu16bj8n8fd2",958,"21.csv","","null","resources/images/coin2.png","null","",NA,NA,NA,NA,""
"image-keyboard-response",30,54542,"0.0-4.6-0.6","7tpzu16bj8n8fd2",958,"21.csv","","264.5","resources/trios/L1T2A3.jpg","37","restless",0.7,0.3,0.8,0.519767718282831,"true"
"image-keyboard-response",31,54945,"0.0-4.6-1.6","7tpzu16bj8n8fd2",958,"21.csv","","null","resources/maskTrios/L1BB.jpg","null","",NA,NA,NA,NA,""
"image-keyboard-response",32,56153,"0.0-4.6-2.6","7tpzu16bj8n8fd2",958,"21.csv","","null","resources/images/coin2.png","null","",NA,NA,NA,NA,""
"image-keyboard-response",33,56449,"0.0-4.7-0.7","7tpzu16bj8n8fd2",958,"21.csv","","294.69999980926514","resources/trios/L1T2A3.jpg","37","restless",0.7,0.3,0.8,0.674180831361906,"true"
"image-keyboard-response",34,56851,"0.0-4.7-1.7","7tpzu16bj8n8fd2",958,"21.csv","","null","resources/maskTrios/L1BB.jpg","null","",NA,NA,NA,NA,""
"image-keyboard-response",35,58064,"0.0-4.7-2.7","7tpzu16bj8n8fd2",958,"21.csv","","null","resources/images/coin2.png","null","",NA,NA,NA,NA,""
"image-keyboard-response",36,58320,"0.0-4.8-0.8","7tpzu16bj8n8fd2",958,"21.csv","","255.5","resources/trios/L1T2A3.jpg","37","restless",0.7,0.3,0.8,0.0598796586795636,"true"
"image-keyboard-response",37,58730,"0.0-4.8-1.8","7tpzu16bj8n8fd2",958,"21.csv","","null","resources/maskTrios/L1BB.jpg","null","",NA,NA,NA,NA,""
"image-keyboard-response",38,59946,"0.0-4.8-2.8","7tpzu16bj8n8fd2",958,"21.csv","","null","resources/images/coin2.png","null","",NA,NA,NA,NA,""
"image-keyboard-response",39,60242,"0.0-4.9-0.9","7tpzu16bj8n8fd2",958,"21.csv","","294.2000000476837","resources/trios/L1T2A3.jpg","37","restless",0.7,0.3,0.8,0.992015767064794,"false"
"image-keyboard-response",40,60644,"0.0-4.9-1.9","7tpzu16bj8n8fd2",958,"21.csv","","null","resources/maskTrios/L1BB.jpg","null","",NA,NA,NA,NA,""
"image-keyboard-response",41,61849,"0.0-4.9-2.9","7tpzu16bj8n8fd2",958,"21.csv","","null","resources/images/fishbone.png","null","",NA,NA,NA,NA,""
"image-keyboard-response",42,62191,"0.0-4.10-0.10","7tpzu16bj8n8fd2",958,"21.csv","","341.5","resources/trios/L1T2A3.jpg","39","restless",0.7,0.3,0.8,0.763346547499535,"true"
"image-keyboard-response",43,62598,"0.0-4.10-1.10","7tpzu16bj8n8fd2",958,"21.csv","","null","resources/maskTrios/BBA3.jpg","null","",NA,NA,NA,NA,""
"image-keyboard-response",44,63809,"0.0-4.10-2.10","7tpzu16bj8n8fd2",958,"21.csv","","null","resources/images/coin2.png","null","",NA,NA,NA,NA,""
"image-keyboard-response",45,64082,"0.0-4.11-0.11","7tpzu16bj8n8fd2",958,"21.csv","","271.7999999523163","resources/trios/L1T2A3.jpg","39","restless",0.7,0.3,0.7,0.0654637925531463,"true"
"image-keyboard-response",46,64492,"0.0-4.11-1.11","7tpzu16bj8n8fd2",958,"21.csv","","null","resources/maskTrios/BBA3.jpg","null","",NA,NA,NA,NA,""
"image-keyboard-response",47,65700,"0.0-4.11-2.11","7tpzu16bj8n8fd2",958,"21.csv","","null","resources/images/coin2.png","null","",NA,NA,NA,NA,""
"image-keyboard-response",48,65959,"0.0-4.12-0.12","7tpzu16bj8n8fd2",958,"21.csv","","256.5","resources/trios/L1T2A3.jpg","39","restless",0.7,0.3,0.6,0.482434935694254,"true"
"image-keyboard-response",49,66369,"0.0-4.12-1.12","7tpzu16bj8n8fd2",958,"21.csv","","null","resources/maskTrios/BBA3.jpg","null","",NA,NA,NA,NA,""
"image-keyboard-response",50,67578,"0.0-4.12-2.12","7tpzu16bj8n8fd2",958,"21.csv","","null","resources/images/coin2.png","null","",NA,NA,NA,NA,""
"image-keyboard-response",51,67792,"0.0-4.13-0.13","7tpzu16bj8n8fd2",958,"21.csv","","213.40000009536743","resources/trios/L1T2A3.jpg","39","restless",0.7,0.3,0.6,0.654943814046829,"false"
"image-keyboard-response",52,68201,"0.0-4.13-1.13","7tpzu16bj8n8fd2",958,"21.csv","","null","resources/maskTrios/BBA3.jpg","null","",NA,NA,NA,NA,""
"image-keyboard-response",53,69410,"0.0-4.13-2.13","7tpzu16bj8n8fd2",958,"21.csv","","null","resources/images/fishbone.png","null","",NA,NA,NA,NA,""
"image-keyboard-response",54,69636,"0.0-4.14-0.14","7tpzu16bj8n8fd2",958,"21.csv","","223.5","resources/trios/L1T2A3.jpg","38","restless",0.7,0.3,0.6,0.543934612683189,"false"
"image-keyboard-response",55,70047,"0.0-4.14-1.14","7tpzu16bj8n8fd2",958,"21.csv","","null","resources/maskTrios/BT2B.jpg","null","",NA,NA,NA,NA,""
"image-keyboard-response",56,71263,"0.0-4.14-2.14","7tpzu16bj8n8fd2",958,"21.csv","","null","resources/images/fishbone.png","null","",NA,NA,NA,NA,""
"image-keyboard-response",57,71514,"0.0-4.15-0.15","7tpzu16bj8n8fd2",958,"21.csv","","250.30000019073486","resources/trios/L1T2A3.jpg","37","restless",0.7,0.3,0.6,0.119616627935083,"true"
"image-keyboard-response",58,71929,"0.0-4.15-1.15","7tpzu16bj8n8fd2",958,"21.csv","","null","resources/maskTrios/L1BB.jpg","null","",NA,NA,NA,NA,""
"image-keyboard-response",59,73140,"0.0-4.15-2.15","7tpzu16bj8n8fd2",958,"21.csv","","null","resources/images/coin2.png","null","",NA,NA,NA,NA,""
"image-keyboard-response",60,73409,"0.0-4.16-0.16","7tpzu16bj8n8fd2",958,"21.csv","","266.59999990463257","resources/trios/L1T2A3.jpg","37","restless",0.7,0.3,0.5,0.062460004847291,"true"
"image-keyboard-response",61,73825,"0.0-4.16-1.16","7tpzu16bj8n8fd2",958,"21.csv","","null","resources/maskTrios/L1BB.jpg","null","",NA,NA,NA,NA,""
"image-keyboard-response",62,75034,"0.0-4.16-2.16","7tpzu16bj8n8fd2",958,"21.csv","","null","resources/images/coin2.png","null","",NA,NA,NA,NA,""
"image-keyboard-response",63,75262,"0.0-4.17-0.17","7tpzu16bj8n8fd2",958,"21.csv","","226.40000009536743","resources/trios/L1T2A3.jpg","37","restless",0.7,0.3,0.5,0.36520401482013,"true"
"image-keyboard-response",64,75675,"0.0-4.17-1.17","7tpzu16bj8n8fd2",958,"21.csv","","null","resources/maskTrios/L1BB.jpg","null","",NA,NA,NA,NA,""
"image-keyboard-response",65,76887,"0.0-4.17-2.17","7tpzu16bj8n8fd2",958,"21.csv","","null","resources/images/coin2.png","null","",NA,NA,NA,NA,""
"image-keyboard-response",66,77120,"0.0-4.18-0.18","7tpzu16bj8n8fd2",958,"21.csv","","230.5","resources/trios/L1T2A3.jpg","37","restless",0.7,0.3,0.5,0.108478744195877,"true"
"image-keyboard-response",67,77522,"0.0-4.18-1.18","7tpzu16bj8n8fd2",958,"21.csv","","null","resources/maskTrios/L1BB.jpg","null","",NA,NA,NA,NA,""
"image-keyboard-response",68,78736,"0.0-4.18-2.18","7tpzu16bj8n8fd2",958,"21.csv","","null","resources/images/coin2.png","null","",NA,NA,NA,NA,""
"image-keyboard-response",69,78978,"0.0-4.19-0.19","7tpzu16bj8n8fd2",958,"21.csv","","239.79999995231628","resources/trios/L1T2A3.jpg","37","restless",0.8,0.3,0.5,0.54479082141282,"true"
"image-keyboard-response",70,79388,"0.0-4.19-1.19","7tpzu16bj8n8fd2",958,"21.csv","","null","resources/maskTrios/L1BB.jpg","null","",NA,NA,NA,NA,""
"image-keyboard-response",71,80604,"0.0-4.19-2.19","7tpzu16bj8n8fd2",958,"21.csv","","null","resources/images/coin2.png","null","",NA,NA,NA,NA,""
"image-keyboard-response",72,80894,"0.0-4.20-0.20","7tpzu16bj8n8fd2",958,"21.csv","","286.7999999523163","resources/trios/L1T2A3.jpg","37","restless",0.8,0.3,0.5,0.788100463695996,"true"
"image-keyboard-response",73,81303,"0.0-4.20-1.20","7tpzu16bj8n8fd2",958,"21.csv","","null","resources/maskTrios/L1BB.jpg","null","",NA,NA,NA,NA,""
"image-keyboard-response",74,82505,"0.0-4.20-2.20","7tpzu16bj8n8fd2",958,"21.csv","","null","resources/images/coin2.png","null","",NA,NA,NA,NA,""
"image-keyboard-response",75,82721,"0.0-4.21-0.21","7tpzu16bj8n8fd2",958,"21.csv","","213.40000009536743","resources/trios/L1T2A3.jpg","37","restless",0.8,0.3,0.5,0.0862898730851385,"true"
"image-keyboard-response",76,83127,"0.0-4.21-1.21","7tpzu16bj8n8fd2",958,"21.csv","","null","resources/maskTrios/L1BB.jpg","null","",NA,NA,NA,NA,""
"image-keyboard-response",77,84337,"0.0-4.21-2.21","7tpzu16bj8n8fd2",958,"21.csv","","null","resources/images/coin2.png","null","",NA,NA,NA,NA,""
"image-keyboard-response",78,84577,"0.0-4.22-0.22","7tpzu16bj8n8fd2",958,"21.csv","","236.59999990463257","resources/trios/L1T2A3.jpg","37","restless",0.8,0.3,0.5,0.313990370365771,"true"
"image-keyboard-response",79,84994,"0.0-4.22-1.22","7tpzu16bj8n8fd2",958,"21.csv","","null","resources/maskTrios/L1BB.jpg","null","",NA,NA,NA,NA,""
"image-keyboard-response",80,86210,"0.0-4.22-2.22","7tpzu16bj8n8fd2",958,"21.csv","","null","resources/images/coin2.png","null","",NA,NA,NA,NA,""
"image-keyboard-response",81,86442,"0.0-4.23-0.23","7tpzu16bj8n8fd2",958,"21.csv","","229.79999995231628","resources/trios/L1T2A3.jpg","37","restless",0.8,0.4,0.5,0.0548130954368182,"true"
"image-keyboard-response",82,86844,"0.0-4.23-1.23","7tpzu16bj8n8fd2",958,"21.csv","","null","resources/maskTrios/L1BB.jpg","null","",NA,NA,NA,NA,""
"image-keyboard-response",83,88059,"0.0-4.23-2.23","7tpzu16bj8n8fd2",958,"21.csv","","null","resources/images/coin2.png","null","",NA,NA,NA,NA,""
"image-keyboard-response",84,88590,"0.0-4.24-0.24","7tpzu16bj8n8fd2",958,"21.csv","","528.5","resources/trios/L1T2A3.jpg","37","restless",0.7,0.5,0.5,0.64317122448388,"true"
"image-keyboard-response",85,89005,"0.0-4.24-1.24","7tpzu16bj8n8fd2",958,"21.csv","","null","resources/maskTrios/L1BB.jpg","null","",NA,NA,NA,NA,""
"image-keyboard-response",86,90218,"0.0-4.24-2.24","7tpzu16bj8n8fd2",958,"21.csv","","null","resources/images/coin2.png","null","",NA,NA,NA,NA,""
"image-keyboard-response",87,90683,"0.0-4.25-0.25","7tpzu16bj8n8fd2",958,"21.csv","","463.2999999523163","resources/trios/L1T2A3.jpg","37","restless",0.7,0.5,0.5,0.540240395735102,"true"
"image-keyboard-response",88,91087,"0.0-4.25-1.25","7tpzu16bj8n8fd2",958,"21.csv","","null","resources/maskTrios/L1BB.jpg","null","",NA,NA,NA,NA,""
"image-keyboard-response",89,92302,"0.0-4.25-2.25","7tpzu16bj8n8fd2",958,"21.csv","","null","resources/images/coin2.png","null","",NA,NA,NA,NA,""
"image-keyboard-response",90,92567,"0.0-4.26-0.26","7tpzu16bj8n8fd2",958,"21.csv","","263.40000009536743","resources/trios/L1T2A3.jpg","37","restless",0.7,0.5,0.5,0.0216678483308093,"true"
"image-keyboard-response",91,92979,"0.0-4.26-1.26","7tpzu16bj8n8fd2",958,"21.csv","","null","resources/maskTrios/L1BB.jpg","null","",NA,NA,NA,NA,""
"image-keyboard-response",92,94192,"0.0-4.26-2.26","7tpzu16bj8n8fd2",958,"21.csv","","null","resources/images/coin2.png","null","",NA,NA,NA,NA,""
"image-keyboard-response",93,94413,"0.0-4.27-0.27","7tpzu16bj8n8fd2",958,"21.csv","","219.80000019073486","resources/trios/L1T2A3.jpg","37","restless",0.7,0.5,0.5,0.478604498447024,"true"
"image-keyboard-response",94,94826,"0.0-4.27-1.27","7tpzu16bj8n8fd2",958,"21.csv","","null","resources/maskTrios/L1BB.jpg","null","",NA,NA,NA,NA,""
"image-keyboard-response",95,96040,"0.0-4.27-2.27","7tpzu16bj8n8fd2",958,"21.csv","","null","resources/images/coin2.png","null","",NA,NA,NA,NA,""
"image-keyboard-response",96,96303,"0.0-4.28-0.28","7tpzu16bj8n8fd2",958,"21.csv","","261.5","resources/trios/L1T2A3.jpg","37","restless",0.7,0.5,0.5,0.209308762085966,"true"
"image-keyboard-response",97,96709,"0.0-4.28-1.28","7tpzu16bj8n8fd2",958,"21.csv","","null","resources/maskTrios/L1BB.jpg","null","",NA,NA,NA,NA,""
"image-keyboard-response",98,97921,"0.0-4.28-2.28","7tpzu16bj8n8fd2",958,"21.csv","","null","resources/images/coin2.png","null","",NA,NA,NA,NA,""
"image-keyboard-response",99,98191,"0.0-4.29-0.29","7tpzu16bj8n8fd2",958,"21.csv","","268.90000009536743","resources/trios/L1T2A3.jpg","37","restless",0.7,0.5,0.4,0.801520420561558,"false"
"image-keyboard-response",100,98603,"0.0-4.29-1.29","7tpzu16bj8n8fd2",958,"21.csv","","null","resources/maskTrios/L1BB.jpg","null","",NA,NA,NA,NA,""
"image-keyboard-response",101,99812,"0.0-4.29-2.29","7tpzu16bj8n8fd2",958,"21.csv","","null","resources/images/fishbone.png","null","",NA,NA,NA,NA,""
"image-keyboard-response",102,100302,"0.0-4.30-0.30","7tpzu16bj8n8fd2",958,"21.csv","","487.19999980926514","resources/trios/L1T2A3.jpg","37","restless",0.7,0.5,0.4,0.144066536083833,"true"
"image-keyboard-response",103,100712,"0.0-4.30-1.30","7tpzu16bj8n8fd2",958,"21.csv","","null","resources/maskTrios/L1BB.jpg","null","",NA,NA,NA,NA,""
"image-keyboard-response",104,101925,"0.0-4.30-2.30","7tpzu16bj8n8fd2",958,"21.csv","","null","resources/images/coin2.png","null","",NA,NA,NA,NA,""
"image-keyboard-response",105,102233,"0.0-4.31-0.31","7tpzu16bj8n8fd2",958,"21.csv","","307.2000000476837","resources/trios/L1T2A3.jpg","37","restless",0.7,0.4,0.4,0.521677731649199,"true"
"image-keyboard-response",106,102645,"0.0-4.31-1.31","7tpzu16bj8n8fd2",958,"21.csv","","null","resources/maskTrios/L1BB.jpg","null","",NA,NA,NA,NA,""
"image-keyboard-response",107,103857,"0.0-4.31-2.31","7tpzu16bj8n8fd2",958,"21.csv","","null","resources/images/coin2.png","null","",NA,NA,NA,NA,""
"image-keyboard-response",108,103881,"0.0-4.32-0.32","7tpzu16bj8n8fd2",958,"21.csv","","22.100000143051147","resources/trios/L1T2A3.jpg","37","restless",0.7,0.4,0.4,0.975721361633708,"false"
"image-keyboard-response",109,104295,"0.0-4.32-1.32","7tpzu16bj8n8fd2",958,"21.csv","","null","resources/maskTrios/L1BB.jpg","null","",NA,NA,NA,NA,""
"image-keyboard-response",110,105505,"0.0-4.32-2.32","7tpzu16bj8n8fd2",958,"21.csv","","null","resources/images/fishbone.png","null","",NA,NA,NA,NA,""
"image-keyboard-response",111,105660,"0.0-4.33-0.33","7tpzu16bj8n8fd2",958,"21.csv","","152.79999995231628","resources/trios/L1T2A3.jpg","38","restless",0.7,0.4,0.4,0.668259216177473,"false"
"image-keyboard-response",112,106066,"0.0-4.33-1.33","7tpzu16bj8n8fd2",958,"21.csv","","null","resources/maskTrios/BT2B.jpg","null","",NA,NA,NA,NA,""
"image-keyboard-response",113,107282,"0.0-4.33-2.33","7tpzu16bj8n8fd2",958,"21.csv","","null","resources/images/fishbone.png","null","",NA,NA,NA,NA,""
"image-keyboard-response",114,107562,"0.0-4.34-0.34","7tpzu16bj8n8fd2",958,"21.csv","","278.2999999523163","resources/trios/L1T2A3.jpg","39","restless",0.7,0.4,0.4,0.266526572385159,"true"
"image-keyboard-response",115,107969,"0.0-4.34-1.34","7tpzu16bj8n8fd2",958,"21.csv","","null","resources/maskTrios/BBA3.jpg","null","",NA,NA,NA,NA,""
"image-keyboard-response",116,109180,"0.0-4.34-2.34","7tpzu16bj8n8fd2",958,"21.csv","","null","resources/images/coin2.png","null","",NA,NA,NA,NA,""
"image-keyboard-response",117,109481,"0.0-4.35-0.35","7tpzu16bj8n8fd2",958,"21.csv","","299","resources/trios/L1T2A3.jpg","39","restless",0.7,0.4,0.4,0.115525382672702,"true"
"image-keyboard-response",118,109897,"0.0-4.35-1.35","7tpzu16bj8n8fd2",958,"21.csv","","null","resources/maskTrios/BBA3.jpg","null","",NA,NA,NA,NA,""
"image-keyboard-response",119,111105,"0.0-4.35-2.35","7tpzu16bj8n8fd2",958,"21.csv","","null","resources/images/coin2.png","null","",NA,NA,NA,NA,""
"image-keyboard-response",120,111430,"0.0-4.36-0.36","7tpzu16bj8n8fd2",958,"21.csv","","324.80000019073486","resources/trios/L1T2A3.jpg","39","restless",0.7,0.5,0.4,0.88533529839367,"false"
"image-keyboard-response",121,111837,"0.0-4.36-1.36","7tpzu16bj8n8fd2",958,"21.csv","","null","resources/maskTrios/BBA3.jpg","null","",NA,NA,NA,NA,""
"image-keyboard-response",122,113054,"0.0-4.36-2.36","7tpzu16bj8n8fd2",958,"21.csv","","null","resources/images/fishbone.png","null","",NA,NA,NA,NA,""
"image-keyboard-response",123,113575,"0.0-4.37-0.37","7tpzu16bj8n8fd2",958,"21.csv","","519.5999999046326","resources/trios/L1T2A3.jpg","39","restless",0.6,0.5,0.4,0.20998380163294,"true"
"image-keyboard-response",124,113987,"0.0-4.37-1.37","7tpzu16bj8n8fd2",958,"21.csv","","null","resources/maskTrios/BBA3.jpg","null","",NA,NA,NA,NA,""
"image-keyboard-response",125,115200,"0.0-4.37-2.37","7tpzu16bj8n8fd2",958,"21.csv","","null","resources/images/coin2.png","null","",NA,NA,NA,NA,""
"image-keyboard-response",126,115649,"0.0-4.38-0.38","7tpzu16bj8n8fd2",958,"21.csv","","448.90000009536743","resources/trios/L1T2A3.jpg","39","restless",0.6,0.5,0.4,0.261051952674162,"true"
"image-keyboard-response",127,116055,"0.0-4.38-1.38","7tpzu16bj8n8fd2",958,"21.csv","","null","resources/maskTrios/BBA3.jpg","null","",NA,NA,NA,NA,""
"image-keyboard-response",128,117264,"0.0-4.38-2.38","7tpzu16bj8n8fd2",958,"21.csv","","null","resources/images/coin2.png","null","",NA,NA,NA,NA,""
"image-keyboard-response",129,117506,"0.0-4.39-0.39","7tpzu16bj8n8fd2",958,"21.csv","","240.5","resources/trios/L1T2A3.jpg","39","restless",0.6,0.5,0.4,0.747554514243558,"false"
"image-keyboard-response",130,117923,"0.0-4.39-1.39","7tpzu16bj8n8fd2",958,"21.csv","","null","resources/maskTrios/BBA3.jpg","null","",NA,NA,NA,NA,""
"image-keyboard-response",131,119133,"0.0-4.39-2.39","7tpzu16bj8n8fd2",958,"21.csv","","null","resources/images/fishbone.png","null","",NA,NA,NA,NA,""
"image-keyboard-response",132,120014,"0.0-4.40-0.40","7tpzu16bj8n8fd2",958,"21.csv","","878.6999998092651","resources/trios/L1T2A3.jpg","39","restless",0.6,0.5,0.4,0.0453455781780703,"true"
"image-keyboard-response",133,120431,"0.0-4.40-1.40","7tpzu16bj8n8fd2",958,"21.csv","","null","resources/maskTrios/BBA3.jpg","null","",NA,NA,NA,NA,""
"image-keyboard-response",134,121644,"0.0-4.40-2.40","7tpzu16bj8n8fd2",958,"21.csv","","null","resources/images/coin2.png","null","",NA,NA,NA,NA,""
"image-keyboard-response",135,122138,"0.0-4.41-0.41","7tpzu16bj8n8fd2",958,"21.csv","","493.2000000476837","resources/trios/L1T2A3.jpg","37","restless",0.6,0.5,0.4,0.846196245102158,"false"
"image-keyboard-response",136,122549,"0.0-4.41-1.41","7tpzu16bj8n8fd2",958,"21.csv","","null","resources/maskTrios/L1BB.jpg","null","",NA,NA,NA,NA,""
"image-keyboard-response",137,123755,"0.0-4.41-2.41","7tpzu16bj8n8fd2",958,"21.csv","","null","resources/images/fishbone.png","null","",NA,NA,NA,NA,""
"image-keyboard-response",138,124081,"0.0-4.42-0.42","7tpzu16bj8n8fd2",958,"21.csv","","325.2999999523163","resources/trios/L1T2A3.jpg","37","restless",0.6,0.5,0.4,0.386748568818202,"true"
"image-keyboard-response",139,124486,"0.0-4.42-1.42","7tpzu16bj8n8fd2",958,"21.csv","","null","resources/maskTrios/L1BB.jpg","null","",NA,NA,NA,NA,""
"image-keyboard-response",140,125702,"0.0-4.42-2.42","7tpzu16bj8n8fd2",958,"21.csv","","null","resources/images/coin2.png","null","",NA,NA,NA,NA,""
"image-keyboard-response",141,125977,"0.0-4.43-0.43","7tpzu16bj8n8fd2",958,"21.csv","","274.59999990463257","resources/trios/L1T2A3.jpg","38","restless",0.6,0.5,0.4,0.957575711920112,"false"
"image-keyboard-response",142,126390,"0.0-4.43-1.43","7tpzu16bj8n8fd2",958,"21.csv","","null","resources/maskTrios/BT2B.jpg","null","",NA,NA,NA,NA,""
"image-keyboard-response",143,127593,"0.0-4.43-2.43","7tpzu16bj8n8fd2",958,"21.csv","","null","resources/images/fishbone.png","null","",NA,NA,NA,NA,""
"image-keyboard-response",144,127827,"0.0-4.44-0.44","7tpzu16bj8n8fd2",958,"21.csv","","233.70000004768372","resources/trios/L1T2A3.jpg","38","restless",0.6,0.5,0.4,0.297802061444095,"true"
"image-keyboard-response",145,128235,"0.0-4.44-1.44","7tpzu16bj8n8fd2",958,"21.csv","","null","resources/maskTrios/BT2B.jpg","null","",NA,NA,NA,NA,""
"image-keyboard-response",146,129450,"0.0-4.44-2.44","7tpzu16bj8n8fd2",958,"21.csv","","null","resources/images/coin2.png","null","",NA,NA,NA,NA,""
"image-keyboard-response",147,129689,"0.0-4.45-0.45","7tpzu16bj8n8fd2",958,"21.csv","","238.89999985694885","resources/trios/L1T2A3.jpg","38","restless",0.6,0.5,0.4,0.259193626182821,"true"
"image-keyboard-response",148,130103,"0.0-4.45-1.45","7tpzu16bj8n8fd2",958,"21.csv","","null","resources/maskTrios/BT2B.jpg","null","",NA,NA,NA,NA,""
"image-keyboard-response",149,131312,"0.0-4.45-2.45","7tpzu16bj8n8fd2",958,"21.csv","","null","resources/images/coin2.png","null","",NA,NA,NA,NA,""
"image-keyboard-response",150,131575,"0.0-4.46-0.46","7tpzu16bj8n8fd2",958,"21.csv","","261","resources/trios/L1T2A3.jpg","38","restless",0.6,0.4,0.4,0.0403650809749412,"true"
"image-keyboard-response",151,131980,"0.0-4.46-1.46","7tpzu16bj8n8fd2",958,"21.csv","","null","resources/maskTrios/BT2B.jpg","null","",NA,NA,NA,NA,""
"image-keyboard-response",152,133194,"0.0-4.46-2.46","7tpzu16bj8n8fd2",958,"21.csv","","null","resources/images/coin2.png","null","",NA,NA,NA,NA,""
"image-keyboard-response",153,133460,"0.0-4.47-0.47","7tpzu16bj8n8fd2",958,"21.csv","","263.59999990463257","resources/trios/L1T2A3.jpg","38","restless",0.6,0.4,0.4,0.520430719157478,"false"
"image-keyboard-response",154,133863,"0.0-4.47-1.47","7tpzu16bj8n8fd2",958,"21.csv","","null","resources/maskTrios/BT2B.jpg","null","",NA,NA,NA,NA,""
"image-keyboard-response",155,135077,"0.0-4.47-2.47","7tpzu16bj8n8fd2",958,"21.csv","","null","resources/images/fishbone.png","null","",NA,NA,NA,NA,""
"image-keyboard-response",156,135330,"0.0-4.48-0.48","7tpzu16bj8n8fd2",958,"21.csv","","251.29999995231628","resources/trios/L1T2A3.jpg","37","restless",0.6,0.4,0.4,0.68339656422994,"false"
"image-keyboard-response",157,135745,"0.0-4.48-1.48","7tpzu16bj8n8fd2",958,"21.csv","","null","resources/maskTrios/L1BB.jpg","null","",NA,NA,NA,NA,""
"image-keyboard-response",158,136958,"0.0-4.48-2.48","7tpzu16bj8n8fd2",958,"21.csv","","null","resources/images/fishbone.png","null","",NA,NA,NA,NA,""
"image-keyboard-response",159,137186,"0.0-4.49-0.49","7tpzu16bj8n8fd2",958,"21.csv","","225.69999980926514","resources/trios/L1T2A3.jpg","39","restless",0.6,0.4,0.4,0.649288270643852,"false"
"image-keyboard-response",160,137597,"0.0-4.49-1.49","7tpzu16bj8n8fd2",958,"21.csv","","null","resources/maskTrios/BBA3.jpg","null","",NA,NA,NA,NA,""
"image-keyboard-response",161,138810,"0.0-4.49-2.49","7tpzu16bj8n8fd2",958,"21.csv","","null","resources/images/fishbone.png","null","",NA,NA,NA,NA,""
"image-keyboard-response",162,139025,"0.0-4.50-0.50","7tpzu16bj8n8fd2",958,"21.csv","","212.69999980926514","resources/trios/L1T2A3.jpg","37","restless",0.6,0.4,0.4,0.155969911806551,"true"
"image-keyboard-response",163,139431,"0.0-4.50-1.50","7tpzu16bj8n8fd2",958,"21.csv","","null","resources/maskTrios/L1BB.jpg","null","",NA,NA,NA,NA,""
"image-keyboard-response",164,140633,"0.0-4.50-2.50","7tpzu16bj8n8fd2",958,"21.csv","","null","resources/images/coin2.png","null","",NA,NA,NA,NA,""
"image-keyboard-response",165,140864,"0.0-4.51-0.51","7tpzu16bj8n8fd2",958,"21.csv","","229.90000009536743","resources/trios/L1T2A3.jpg","37","restless",0.6,0.4,0.4,0.250419670129736,"true"
"image-keyboard-response",166,141280,"0.0-4.51-1.51","7tpzu16bj8n8fd2",958,"21.csv","","null","resources/maskTrios/L1BB.jpg","null","",NA,NA,NA,NA,""
"image-keyboard-response",167,142491,"0.0-4.51-2.51","7tpzu16bj8n8fd2",958,"21.csv","","null","resources/images/coin2.png","null","",NA,NA,NA,NA,""
"image-keyboard-response",168,142707,"0.0-4.52-0.52","7tpzu16bj8n8fd2",958,"21.csv","","214","resources/trios/L1T2A3.jpg","37","restless",0.6,0.4,0.4,0.773535637592042,"false"
"image-keyboard-response",169,143110,"0.0-4.52-1.52","7tpzu16bj8n8fd2",958,"21.csv","","null","resources/maskTrios/L1BB.jpg","null","",NA,NA,NA,NA,""
"image-keyboard-response",170,144327,"0.0-4.52-2.52","7tpzu16bj8n8fd2",958,"21.csv","","null","resources/images/fishbone.png","null","",NA,NA,NA,NA,""
"image-keyboard-response",171,144464,"0.0-4.53-0.53","7tpzu16bj8n8fd2",958,"21.csv","","134.5","resources/trios/L1T2A3.jpg","37","restless",0.5,0.4,0.3,0.863522062143053,"false"
"image-keyboard-response",172,144873,"0.0-4.53-1.53","7tpzu16bj8n8fd2",958,"21.csv","","null","resources/maskTrios/L1BB.jpg","null","",NA,NA,NA,NA,""
"image-keyboard-response",173,146082,"0.0-4.53-2.53","7tpzu16bj8n8fd2",958,"21.csv","","null","resources/images/fishbone.png","null","",NA,NA,NA,NA,""
"image-keyboard-response",174,146258,"0.0-4.54-0.54","7tpzu16bj8n8fd2",958,"21.csv","","174.59999990463257","resources/trios/L1T2A3.jpg","38","restless",0.5,0.4,0.3,0.44376240056027,"false"
"image-keyboard-response",175,146660,"0.0-4.54-1.54","7tpzu16bj8n8fd2",958,"21.csv","","null","resources/maskTrios/BT2B.jpg","null","",NA,NA,NA,NA,""
"image-keyboard-response",176,147871,"0.0-4.54-2.54","7tpzu16bj8n8fd2",958,"21.csv","","null","resources/images/fishbone.png","null","",NA,NA,NA,NA,""
"image-keyboard-response",177,148123,"0.0-4.55-0.55","7tpzu16bj8n8fd2",958,"21.csv","","251.70000004768372","resources/trios/L1T2A3.jpg","39","restless",0.5,0.4,0.3,0.763496656442937,"false"
"image-keyboard-response",178,148539,"0.0-4.55-1.55","7tpzu16bj8n8fd2",958,"21.csv","","null","resources/maskTrios/BBA3.jpg","null","",NA,NA,NA,NA,""
"image-keyboard-response",179,149750,"0.0-4.55-2.55","7tpzu16bj8n8fd2",958,"21.csv","","null","resources/images/fishbone.png","null","",NA,NA,NA,NA,""
"image-keyboard-response",180,150002,"0.0-4.56-0.56","7tpzu16bj8n8fd2",958,"21.csv","","250.20000004768372","resources/trios/L1T2A3.jpg","39","restless",0.5,0.4,0.3,0.320908927314904,"false"
"image-keyboard-response",181,150406,"0.0-4.56-1.56","7tpzu16bj8n8fd2",958,"21.csv","","null","resources/maskTrios/BBA3.jpg","null","",NA,NA,NA,NA,""
"image-keyboard-response",182,151613,"0.0-4.56-2.56","7tpzu16bj8n8fd2",958,"21.csv","","null","resources/images/fishbone.png","null","",NA,NA,NA,NA,""
"image-keyboard-response",183,151887,"0.0-4.57-0.57","7tpzu16bj8n8fd2",958,"21.csv","","272.39999985694885","resources/trios/L1T2A3.jpg","39","restless",0.5,0.4,0.3,0.876010291277518,"false"
"image-keyboard-response",184,152295,"0.0-4.57-1.57","7tpzu16bj8n8fd2",958,"21.csv","","null","resources/maskTrios/BBA3.jpg","null","",NA,NA,NA,NA,""
"image-keyboard-response",185,153507,"0.0-4.57-2.57","7tpzu16bj8n8fd2",958,"21.csv","","null","resources/images/fishbone.png","null","",NA,NA,NA,NA,""
"image-keyboard-response",186,153741,"0.0-4.58-0.58","7tpzu16bj8n8fd2",958,"21.csv","","233.60000014305115","resources/trios/L1T2A3.jpg","38","restless",0.5,0.4,0.3,0.775074006390728,"false"
"image-keyboard-response",187,154155,"0.0-4.58-1.58","7tpzu16bj8n8fd2",958,"21.csv","","null","resources/maskTrios/BT2B.jpg","null","",NA,NA,NA,NA,""
"image-keyboard-response",188,155367,"0.0-4.58-2.58","7tpzu16bj8n8fd2",958,"21.csv","","null","resources/images/fishbone.png","null","",NA,NA,NA,NA,""
"image-keyboard-response",189,155502,"0.0-4.59-0.59","7tpzu16bj8n8fd2",958,"21.csv","","134.19999980926514","resources/trios/L1T2A3.jpg","38","restless",0.5,0.4,0.3,0.527773965463913,"false"
"image-keyboard-response",190,155913,"0.0-4.59-1.59","7tpzu16bj8n8fd2",958,"21.csv","","null","resources/maskTrios/BT2B.jpg","null","",NA,NA,NA,NA,""
"image-keyboard-response",191,157126,"0.0-4.59-2.59","7tpzu16bj8n8fd2",958,"21.csv","","null","resources/images/fishbone.png","null","",NA,NA,NA,NA,""
"image-keyboard-response",192,157321,"0.0-4.60-0.60","7tpzu16bj8n8fd2",958,"21.csv","","193","resources/trios/L1T2A3.jpg","38","restless",0.5,0.4,0.3,0.479780945761397,"false"
"image-keyboard-response",193,157729,"0.0-4.60-1.60","7tpzu16bj8n8fd2",958,"21.csv","","null","resources/maskTrios/BT2B.jpg","null","",NA,NA,NA,NA,""
"image-keyboard-response",194,158940,"0.0-4.60-2.60","7tpzu16bj8n8fd2",958,"21.csv","","null","resources/images/fishbone.png","null","",NA,NA,NA,NA,""
"image-keyboard-response",195,159150,"0.0-4.61-0.61","7tpzu16bj8n8fd2",958,"21.csv","","208.70000004768372","resources/trios/L1T2A3.jpg","37","restless",0.5,0.4,0.3,0.744293850475269,"false"
"image-keyboard-response",196,159563,"0.0-4.61-1.61","7tpzu16bj8n8fd2",958,"21.csv","","null","resources/maskTrios/L1BB.jpg","null","",NA,NA,NA,NA,""
"image-keyboard-response",197,160766,"0.0-4.61-2.61","7tpzu16bj8n8fd2",958,"21.csv","","null","resources/images/fishbone.png","null","",NA,NA,NA,NA,""
"image-keyboard-response",198,161031,"0.0-4.62-0.62","7tpzu16bj8n8fd2",958,"21.csv","","260.7999999523163","resources/trios/L1T2A3.jpg","37","restless",0.4,0.4,0.3,0.467449472676861,"false"
"image-keyboard-response",199,161434,"0.0-4.62-1.62","7tpzu16bj8n8fd2",958,"21.csv","","null","resources/maskTrios/L1BB.jpg","null","",NA,NA,NA,NA,""
"image-keyboard-response",200,162641,"0.0-4.62-2.62","7tpzu16bj8n8fd2",958,"21.csv","","null","resources/images/fishbone.png","null","",NA,NA,NA,NA,""
"image-keyboard-response",201,162828,"0.0-4.63-0.63","7tpzu16bj8n8fd2",958,"21.csv","","184.59999990463257","resources/trios/L1T2A3.jpg","37","restless",0.4,0.4,0.3,0.69427573476571,"false"
"image-keyboard-response",202,163232,"0.0-4.63-1.63","7tpzu16bj8n8fd2",958,"21.csv","","null","resources/maskTrios/L1BB.jpg","null","",NA,NA,NA,NA,""
"image-keyboard-response",203,164446,"0.0-4.63-2.63","7tpzu16bj8n8fd2",958,"21.csv","","null","resources/images/fishbone.png","null","",NA,NA,NA,NA,""
"image-keyboard-response",204,164688,"0.0-4.64-0.64","7tpzu16bj8n8fd2",958,"21.csv","","241.20000004768372","resources/trios/L1T2A3.jpg","37","restless",0.4,0.4,0.3,0.204603707116876,"true"
"image-keyboard-response",205,165094,"0.0-4.64-1.64","7tpzu16bj8n8fd2",958,"21.csv","","null","resources/maskTrios/L1BB.jpg","null","",NA,NA,NA,NA,""
"image-keyboard-response",206,166305,"0.0-4.64-2.64","7tpzu16bj8n8fd2",958,"21.csv","","null","resources/images/coin2.png","null","",NA,NA,NA,NA,""
"image-keyboard-response",207,166563,"0.0-4.65-0.65","7tpzu16bj8n8fd2",958,"21.csv","","257.39999985694885","resources/trios/L1T2A3.jpg","37","restless",0.4,0.4,0.3,0.752321706252473,"false"
"image-keyboard-response",208,166970,"0.0-4.65-1.65","7tpzu16bj8n8fd2",958,"21.csv","","null","resources/maskTrios/L1BB.jpg","null","",NA,NA,NA,NA,""
"image-keyboard-response",209,168179,"0.0-4.65-2.65","7tpzu16bj8n8fd2",958,"21.csv","","null","resources/images/fishbone.png","null","",NA,NA,NA,NA,""
"image-keyboard-response",210,168396,"0.0-4.66-0.66","7tpzu16bj8n8fd2",958,"21.csv","","216.60000014305115","resources/trios/L1T2A3.jpg","37","restless",0.4,0.4,0.3,0.444778890582446,"false"
"image-keyboard-response",211,168800,"0.0-4.66-1.66","7tpzu16bj8n8fd2",958,"21.csv","","null","resources/maskTrios/L1BB.jpg","null","",NA,NA,NA,NA,""
"image-keyboard-response",212,170011,"0.0-4.66-2.66","7tpzu16bj8n8fd2",958,"21.csv","","null","resources/images/fishbone.png","null","",NA,NA,NA,NA,""
"image-keyboard-response",213,170082,"0.0-4.67-0.67","7tpzu16bj8n8fd2",958,"21.csv","","70.89999985694885","resources/trios/L1T2A3.jpg","37","restless",0.4,0.4,0.3,0.622749184097125,"false"
"image-keyboard-response",214,170494,"0.0-4.67-1.67","7tpzu16bj8n8fd2",958,"21.csv","","null","resources/maskTrios/L1BB.jpg","null","",NA,NA,NA,NA,""
"image-keyboard-response",215,171708,"0.0-4.67-2.67","7tpzu16bj8n8fd2",958,"21.csv","","null","resources/images/fishbone.png","null","",NA,NA,NA,NA,""
"image-keyboard-response",216,171934,"0.0-4.68-0.68","7tpzu16bj8n8fd2",958,"21.csv","","223.29999995231628","resources/trios/L1T2A3.jpg","37","restless",0.4,0.4,0.3,0.836668243480038,"false"
"image-keyboard-response",217,172343,"0.0-4.68-1.68","7tpzu16bj8n8fd2",958,"21.csv","","null","resources/maskTrios/L1BB.jpg","null","",NA,NA,NA,NA,""
"image-keyboard-response",218,173557,"0.0-4.68-2.68","7tpzu16bj8n8fd2",958,"21.csv","","null","resources/images/fishbone.png","null","",NA,NA,NA,NA,""
"image-keyboard-response",219,173775,"0.0-4.69-0.69","7tpzu16bj8n8fd2",958,"21.csv","","214.90000009536743","resources/trios/L1T2A3.jpg","38","restless",0.4,0.3,0.3,0.37435488381624,"false"
"image-keyboard-response",220,174179,"0.0-4.69-1.69","7tpzu16bj8n8fd2",958,"21.csv","","null","resources/maskTrios/BT2B.jpg","null","",NA,NA,NA,NA,""
"image-keyboard-response",221,175393,"0.0-4.69-2.69","7tpzu16bj8n8fd2",958,"21.csv","","null","resources/images/fishbone.png","null","",NA,NA,NA,NA,""
"image-keyboard-response",222,175718,"0.0-4.70-0.70","7tpzu16bj8n8fd2",958,"21.csv","","322.40000009536743","resources/trios/L1T2A3.jpg","38","restless",0.4,0.3,0.3,0.772161198181188,"false"
"image-keyboard-response",223,176123,"0.0-4.70-1.70","7tpzu16bj8n8fd2",958,"21.csv","","null","resources/maskTrios/BT2B.jpg","null","",NA,NA,NA,NA,""
"image-keyboard-response",224,177326,"0.0-4.70-2.70","7tpzu16bj8n8fd2",958,"21.csv","","null","resources/images/fishbone.png","null","",NA,NA,NA,NA,""
"image-keyboard-response",225,177457,"0.0-4.71-0.71","7tpzu16bj8n8fd2",958,"21.csv","","128.89999985694885","resources/trios/L1T2A3.jpg","38","restless",0.4,0.3,0.3,0.5507819770813,"false"
"image-keyboard-response",226,177866,"0.0-4.71-1.71","7tpzu16bj8n8fd2",958,"21.csv","","null","resources/maskTrios/BT2B.jpg","null","",NA,NA,NA,NA,""
"image-keyboard-response",227,179078,"0.0-4.71-2.71","7tpzu16bj8n8fd2",958,"21.csv","","null","resources/images/fishbone.png","null","",NA,NA,NA,NA,""
"image-keyboard-response",228,179297,"0.0-4.72-0.72","7tpzu16bj8n8fd2",958,"21.csv","","218.5","resources/trios/L1T2A3.jpg","38","restless",0.4,0.3,0.3,0.980520908789741,"false"
"image-keyboard-response",229,179712,"0.0-4.72-1.72","7tpzu16bj8n8fd2",958,"21.csv","","null","resources/maskTrios/BT2B.jpg","null","",NA,NA,NA,NA,""
"image-keyboard-response",230,180920,"0.0-4.72-2.72","7tpzu16bj8n8fd2",958,"21.csv","","null","resources/images/fishbone.png","null","",NA,NA,NA,NA,""
"image-keyboard-response",231,181143,"0.0-4.73-0.73","7tpzu16bj8n8fd2",958,"21.csv","","221.5","resources/trios/L1T2A3.jpg","38","restless",0.5,0.3,0.3,0.846447075614519,"false"
"image-keyboard-response",232,181558,"0.0-4.73-1.73","7tpzu16bj8n8fd2",958,"21.csv","","null","resources/maskTrios/BT2B.jpg","null","",NA,NA,NA,NA,""
"image-keyboard-response",233,182773,"0.0-4.73-2.73","7tpzu16bj8n8fd2",958,"21.csv","","null","resources/images/fishbone.png","null","",NA,NA,NA,NA,""
"image-keyboard-response",234,183053,"0.0-4.74-0.74","7tpzu16bj8n8fd2",958,"21.csv","","278.39999985694885","resources/trios/L1T2A3.jpg","39","restless",0.5,0.3,0.3,0.839155730803253,"false"
"image-keyboard-response",235,183455,"0.0-4.74-1.74","7tpzu16bj8n8fd2",958,"21.csv","","null","resources/maskTrios/BBA3.jpg","null","",NA,NA,NA,NA,""
"image-keyboard-response",236,184668,"0.0-4.74-2.74","7tpzu16bj8n8fd2",958,"21.csv","","null","resources/images/fishbone.png","null","",NA,NA,NA,NA,""
"image-keyboard-response",237,184972,"0.0-4.75-0.75","7tpzu16bj8n8fd2",958,"21.csv","","303.10000014305115","resources/trios/L1T2A3.jpg","39","restless",0.5,0.3,0.3,0.191215961173576,"true"
"image-keyboard-response",238,185383,"0.0-4.75-1.75","7tpzu16bj8n8fd2",958,"21.csv","","null","resources/maskTrios/BBA3.jpg","null","",NA,NA,NA,NA,""
"image-keyboard-response",239,186593,"0.0-4.75-2.75","7tpzu16bj8n8fd2",958,"21.csv","","null","resources/images/coin2.png","null","",NA,NA,NA,NA,""
"image-keyboard-response",240,186886,"0.0-4.76-0.76","7tpzu16bj8n8fd2",958,"21.csv","","292.40000009536743","resources/trios/L1T2A3.jpg","39","restless",0.5,0.3,0.3,0.41280001878146,"false"
"image-keyboard-response",241,187297,"0.0-4.76-1.76","7tpzu16bj8n8fd2",958,"21.csv","","null","resources/maskTrios/BBA3.jpg","null","",NA,NA,NA,NA,""
"image-keyboard-response",242,188509,"0.0-4.76-2.76","7tpzu16bj8n8fd2",958,"21.csv","","null","resources/images/fishbone.png","null","",NA,NA,NA,NA,""
"image-keyboard-response",243,188773,"0.0-4.77-0.77","7tpzu16bj8n8fd2",958,"21.csv","","261","resources/trios/L1T2A3.jpg","39","restless",0.5,0.4,0.3,0.313852931929017,"false"
"image-keyboard-response",244,189181,"0.0-4.77-1.77","7tpzu16bj8n8fd2",958,"21.csv","","null","resources/maskTrios/BBA3.jpg","null","",NA,NA,NA,NA,""
"image-keyboard-response",245,190397,"0.0-4.77-2.77","7tpzu16bj8n8fd2",958,"21.csv","","null","resources/images/fishbone.png","null","",NA,NA,NA,NA,""
"image-keyboard-response",246,190762,"0.0-4.78-0.78","7tpzu16bj8n8fd2",958,"21.csv","","361.7000000476837","resources/trios/L1T2A3.jpg","39","restless",0.5,0.4,0.3,0.0233113673609942,"true"
"image-keyboard-response",247,191173,"0.0-4.78-1.78","7tpzu16bj8n8fd2",958,"21.csv","","null","resources/maskTrios/BBA3.jpg","null","",NA,NA,NA,NA,""
"image-keyboard-response",248,192385,"0.0-4.78-2.78","7tpzu16bj8n8fd2",958,"21.csv","","null","resources/images/coin2.png","null","",NA,NA,NA,NA,""
"image-keyboard-response",249,192738,"0.0-4.79-0.79","7tpzu16bj8n8fd2",958,"21.csv","","352.80000019073486","resources/trios/L1T2A3.jpg","39","restless",0.5,0.3,0.3,0.444155228639416,"false"
"image-keyboard-response",250,193152,"0.0-4.79-1.79","7tpzu16bj8n8fd2",958,"21.csv","","null","resources/maskTrios/BBA3.jpg","null","",NA,NA,NA,NA,""
"image-keyboard-response",251,194366,"0.0-4.79-2.79","7tpzu16bj8n8fd2",958,"21.csv","","null","resources/images/fishbone.png","null","",NA,NA,NA,NA,""
"image-keyboard-response",252,194523,"0.0-4.80-0.80","7tpzu16bj8n8fd2",958,"21.csv","","155.40000009536743","resources/trios/L1T2A3.jpg","39","restless",0.5,0.3,0.3,0.173709135014489,"true"
"image-keyboard-response",253,194926,"0.0-4.80-1.80","7tpzu16bj8n8fd2",958,"21.csv","","null","resources/maskTrios/BBA3.jpg","null","",NA,NA,NA,NA,""
"image-keyboard-response",254,196138,"0.0-4.80-2.80","7tpzu16bj8n8fd2",958,"21.csv","","null","resources/images/coin2.png","null","",NA,NA,NA,NA,""
"image-keyboard-response",255,196427,"0.0-4.81-0.81","7tpzu16bj8n8fd2",958,"21.csv","","288.2000000476837","resources/trios/L1T2A3.jpg","39","restless",0.5,0.3,0.3,0.91204716156181,"false"
"image-keyboard-response",256,196836,"0.0-4.81-1.81","7tpzu16bj8n8fd2",958,"21.csv","","null","resources/maskTrios/BBA3.jpg","null","",NA,NA,NA,NA,""
"image-keyboard-response",257,198049,"0.0-4.81-2.81","7tpzu16bj8n8fd2",958,"21.csv","","null","resources/images/fishbone.png","null","",NA,NA,NA,NA,""
"image-keyboard-response",258,198299,"0.0-4.82-0.82","7tpzu16bj8n8fd2",958,"21.csv","","247.5","resources/trios/L1T2A3.jpg","39","restless",0.5,0.3,0.3,0.268779867947507,"true"
"image-keyboard-response",259,198715,"0.0-4.82-1.82","7tpzu16bj8n8fd2",958,"21.csv","","null","resources/maskTrios/BBA3.jpg","null","",NA,NA,NA,NA,""
"image-keyboard-response",260,199925,"0.0-4.82-2.82","7tpzu16bj8n8fd2",958,"21.csv","","null","resources/images/coin2.png","null","",NA,NA,NA,NA,""
"image-keyboard-response",261,200164,"0.0-4.83-0.83","7tpzu16bj8n8fd2",958,"21.csv","","236.29999995231628","resources/trios/L1T2A3.jpg","39","restless",0.5,0.4,0.3,0.712516683411951,"false"
"image-keyboard-response",262,200575,"0.0-4.83-1.83","7tpzu16bj8n8fd2",958,"21.csv","","null","resources/maskTrios/BBA3.jpg","null","",NA,NA,NA,NA,""
"image-keyboard-response",263,201789,"0.0-4.83-2.83","7tpzu16bj8n8fd2",958,"21.csv","","null","resources/images/fishbone.png","null","",NA,NA,NA,NA,""
"image-keyboard-response",264,202040,"0.0-4.84-0.84","7tpzu16bj8n8fd2",958,"21.csv","","248.89999985694885","resources/trios/L1T2A3.jpg","37","restless",0.6,0.4,0.3,0.432389169994717,"true"
"image-keyboard-response",265,202458,"0.0-4.84-1.84","7tpzu16bj8n8fd2",958,"21.csv","","null","resources/maskTrios/L1BB.jpg","null","",NA,NA,NA,NA,""
"image-keyboard-response",266,203674,"0.0-4.84-2.84","7tpzu16bj8n8fd2",958,"21.csv","","null","resources/images/coin2.png","null","",NA,NA,NA,NA,""
"image-keyboard-response",267,203989,"0.0-4.85-0.85","7tpzu16bj8n8fd2",958,"21.csv","","313","resources/trios/L1T2A3.jpg","37","restless",0.6,0.5,0.3,0.285219185286427,"true"
"image-keyboard-response",268,204405,"0.0-4.85-1.85","7tpzu16bj8n8fd2",958,"21.csv","","null","resources/maskTrios/L1BB.jpg","null","",NA,NA,NA,NA,""
"image-keyboard-response",269,205619,"0.0-4.85-2.85","7tpzu16bj8n8fd2",958,"21.csv","","null","resources/images/coin2.png","null","",NA,NA,NA,NA,""
"image-keyboard-response",270,205901,"0.0-4.86-0.86","7tpzu16bj8n8fd2",958,"21.csv","","279.60000014305115","resources/trios/L1T2A3.jpg","37","restless",0.6,0.5,0.3,0.796380057774227,"false"
"image-keyboard-response",271,206304,"0.0-4.86-1.86","7tpzu16bj8n8fd2",958,"21.csv","","null","resources/maskTrios/L1BB.jpg","null","",NA,NA,NA,NA,""
"image-keyboard-response",272,207515,"0.0-4.86-2.86","7tpzu16bj8n8fd2",958,"21.csv","","null","resources/images/fishbone.png","null","",NA,NA,NA,NA,""
"image-keyboard-response",273,207833,"0.0-4.87-0.87","7tpzu16bj8n8fd2",958,"21.csv","","316.39999985694885","resources/trios/L1T2A3.jpg","37","restless",0.6,0.5,0.3,0.435271484648536,"true"
"image-keyboard-response",274,208244,"0.0-4.87-1.87","7tpzu16bj8n8fd2",958,"21.csv","","null","resources/maskTrios/L1BB.jpg","null","",NA,NA,NA,NA,""
"image-keyboard-response",275,209447,"0.0-4.87-2.87","7tpzu16bj8n8fd2",958,"21.csv","","null","resources/images/coin2.png","null","",NA,NA,NA,NA,""
"image-keyboard-response",276,209686,"0.0-4.88-0.88","7tpzu16bj8n8fd2",958,"21.csv","","237","resources/trios/L1T2A3.jpg","37","restless",0.6,0.5,0.3,0.190955796108423,"true"
"image-keyboard-response",277,210101,"0.0-4.88-1.88","7tpzu16bj8n8fd2",958,"21.csv","","null","resources/maskTrios/L1BB.jpg","null","",NA,NA,NA,NA,""
"image-keyboard-response",278,211314,"0.0-4.88-2.88","7tpzu16bj8n8fd2",958,"21.csv","","null","resources/images/coin2.png","null","",NA,NA,NA,NA,""
"image-keyboard-response",279,211575,"0.0-4.89-0.89","7tpzu16bj8n8fd2",958,"21.csv","","258.7000000476837","resources/trios/L1T2A3.jpg","37","restless",0.6,0.6,0.3,0.483171654796893,"true"
"image-keyboard-response",280,211983,"0.0-4.89-1.89","7tpzu16bj8n8fd2",958,"21.csv","","null","resources/maskTrios/L1BB.jpg","null","",NA,NA,NA,NA,""
"image-keyboard-response",281,213196,"0.0-4.89-2.89","7tpzu16bj8n8fd2",958,"21.csv","","null","resources/images/coin2.png","null","",NA,NA,NA,NA,""
"image-keyboard-response",282,213435,"0.0-4.90-0.90","7tpzu16bj8n8fd2",958,"21.csv","","238.70000004768372","resources/trios/L1T2A3.jpg","37","restless",0.6,0.6,0.3,0.826615399133549,"false"
"image-keyboard-response",283,213848,"0.0-4.90-1.90","7tpzu16bj8n8fd2",958,"21.csv","","null","resources/maskTrios/L1BB.jpg","null","",NA,NA,NA,NA,""
"image-keyboard-response",284,215058,"0.0-4.90-2.90","7tpzu16bj8n8fd2",958,"21.csv","","null","resources/images/fishbone.png","null","",NA,NA,NA,NA,""
"image-keyboard-response",285,215249,"0.0-4.91-0.91","7tpzu16bj8n8fd2",958,"21.csv","","189.40000009536743","resources/trios/L1T2A3.jpg","37","restless",0.6,0.6,0.3,0.0574622079824401,"true"
"image-keyboard-response",286,215664,"0.0-4.91-1.91","7tpzu16bj8n8fd2",958,"21.csv","","null","resources/maskTrios/L1BB.jpg","null","",NA,NA,NA,NA,""
"image-keyboard-response",287,216879,"0.0-4.91-2.91","7tpzu16bj8n8fd2",958,"21.csv","","null","resources/images/coin2.png","null","",NA,NA,NA,NA,""
"image-keyboard-response",288,217113,"0.0-4.92-0.92","7tpzu16bj8n8fd2",958,"21.csv","","232.5","resources/trios/L1T2A3.jpg","37","restless",0.6,0.6,0.3,0.283341244560631,"true"
"image-keyboard-response",289,217515,"0.0-4.92-1.92","7tpzu16bj8n8fd2",958,"21.csv","","null","resources/maskTrios/L1BB.jpg","null","",NA,NA,NA,NA,""
"image-keyboard-response",290,218731,"0.0-4.92-2.92","7tpzu16bj8n8fd2",958,"21.csv","","null","resources/images/coin2.png","null","",NA,NA,NA,NA,""
"image-keyboard-response",291,219006,"0.0-4.93-0.93","7tpzu16bj8n8fd2",958,"21.csv","","273.59999990463257","resources/trios/L1T2A3.jpg","37","restless",0.6,0.6,0.3,0.202647554850714,"true"
"image-keyboard-response",292,219417,"0.0-4.93-1.93","7tpzu16bj8n8fd2",958,"21.csv","","null","resources/maskTrios/L1BB.jpg","null","",NA,NA,NA,NA,""
"image-keyboard-response",293,220630,"0.0-4.93-2.93","7tpzu16bj8n8fd2",958,"21.csv","","null","resources/images/coin2.png","null","",NA,NA,NA,NA,""
"image-keyboard-response",294,221219,"0.0-4.94-0.94","7tpzu16bj8n8fd2",958,"21.csv","","589","resources/trios/L1T2A3.jpg","37","restless",0.6,0.6,0.3,0.526783371444144,"true"
"image-keyboard-response",295,221625,"0.0-4.94-1.94","7tpzu16bj8n8fd2",958,"21.csv","","null","resources/maskTrios/L1BB.jpg","null","",NA,NA,NA,NA,""
"image-keyboard-response",296,222838,"0.0-4.94-2.94","7tpzu16bj8n8fd2",958,"21.csv","","null","resources/images/coin2.png","null","",NA,NA,NA,NA,""
"image-keyboard-response",297,223416,"0.0-4.95-0.95","7tpzu16bj8n8fd2",958,"21.csv","","576.6000001430511","resources/trios/L1T2A3.jpg","37","restless",0.7,0.6,0.3,0.149148053085004,"true"
"image-keyboard-response",298,223819,"0.0-4.95-1.95","7tpzu16bj8n8fd2",958,"21.csv","","null","resources/maskTrios/L1BB.jpg","null","",NA,NA,NA,NA,""
"image-keyboard-response",299,225031,"0.0-4.95-2.95","7tpzu16bj8n8fd2",958,"21.csv","","null","resources/images/coin2.png","null","",NA,NA,NA,NA,""
"image-keyboard-response",300,225540,"0.0-4.96-0.96","7tpzu16bj8n8fd2",958,"21.csv","","506.7999999523163","resources/trios/L1T2A3.jpg","37","restless",0.7,0.6,0.2,0.422553999744762,"true"
"image-keyboard-response",301,225952,"0.0-4.96-1.96","7tpzu16bj8n8fd2",958,"21.csv","","null","resources/maskTrios/L1BB.jpg","null","",NA,NA,NA,NA,""
"image-keyboard-response",302,227166,"0.0-4.96-2.96","7tpzu16bj8n8fd2",958,"21.csv","","null","resources/images/coin2.png","null","",NA,NA,NA,NA,""
"image-keyboard-response",303,229524,"0.0-4.97-0.97","7tpzu16bj8n8fd2",958,"21.csv","","2356.4000000953674","resources/trios/L1T2A3.jpg","37","restless",0.7,0.6,0.2,0.583031092995413,"true"
"image-keyboard-response",304,229934,"0.0-4.97-1.97","7tpzu16bj8n8fd2",958,"21.csv","","null","resources/maskTrios/L1BB.jpg","null","",NA,NA,NA,NA,""
"image-keyboard-response",305,231144,"0.0-4.97-2.97","7tpzu16bj8n8fd2",958,"21.csv","","null","resources/images/coin2.png","null","",NA,NA,NA,NA,""
"image-keyboard-response",306,232512,"0.0-4.98-0.98","7tpzu16bj8n8fd2",958,"21.csv","","1366.7000000476837","resources/trios/L1T2A3.jpg","37","restless",0.6,0.6,0.2,0.215763435500327,"true"
"image-keyboard-response",307,232920,"0.0-4.98-1.98","7tpzu16bj8n8fd2",958,"21.csv","","null","resources/maskTrios/L1BB.jpg","null","",NA,NA,NA,NA,""
"image-keyboard-response",308,234128,"0.0-4.98-2.98","7tpzu16bj8n8fd2",958,"21.csv","","null","resources/images/coin2.png","null","",NA,NA,NA,NA,""
"image-keyboard-response",309,234523,"0.0-4.99-0.99","7tpzu16bj8n8fd2",958,"21.csv","","393.89999985694885","resources/trios/L1T2A3.jpg","37","restless",0.6,0.6,0.2,0.908335007561456,"false"
"image-keyboard-response",310,234934,"0.0-4.99-1.99","7tpzu16bj8n8fd2",958,"21.csv","","null","resources/maskTrios/L1BB.jpg","null","",NA,NA,NA,NA,""
"image-keyboard-response",311,236138,"0.0-4.99-2.99","7tpzu16bj8n8fd2",958,"21.csv","","null","resources/images/fishbone.png","null","",NA,NA,NA,NA,""
"image-keyboard-response",312,236385,"0.0-4.100-0.100","7tpzu16bj8n8fd2",958,"21.csv","","245.59999990463257","resources/trios/L1T2A3.jpg","37","restless",0.5,0.6,0.2,0.135939327940785,"true"
"image-keyboard-response",313,236792,"0.0-4.100-1.100","7tpzu16bj8n8fd2",958,"21.csv","","null","resources/maskTrios/L1BB.jpg","null","",NA,NA,NA,NA,""
"image-keyboard-response",314,238004,"0.0-4.100-2.100","7tpzu16bj8n8fd2",958,"21.csv","","null","resources/images/coin2.png","null","",NA,NA,NA,NA,""
"image-keyboard-response",315,238333,"0.0-4.101-0.101","7tpzu16bj8n8fd2",958,"21.csv","","326.2999999523163","resources/trios/L1T2A3.jpg","37","restless",0.5,0.5,0.2,0.824291051711803,"false"
"image-keyboard-response",316,238748,"0.0-4.101-1.101","7tpzu16bj8n8fd2",958,"21.csv","","null","resources/maskTrios/L1BB.jpg","null","",NA,NA,NA,NA,""
"image-keyboard-response",317,239960,"0.0-4.101-2.101","7tpzu16bj8n8fd2",958,"21.csv","","null","resources/images/fishbone.png","null","",NA,NA,NA,NA,""
"image-keyboard-response",318,240256,"0.0-4.102-0.102","7tpzu16bj8n8fd2",958,"21.csv","","293.7000000476837","resources/trios/L1T2A3.jpg","37","restless",0.5,0.5,0.2,0.321038305698504,"true"
"image-keyboard-response",319,240660,"0.0-4.102-1.102","7tpzu16bj8n8fd2",958,"21.csv","","null","resources/maskTrios/L1BB.jpg","null","",NA,NA,NA,NA,""
"image-keyboard-response",320,241875,"0.0-4.102-2.102","7tpzu16bj8n8fd2",958,"21.csv","","null","resources/images/coin2.png","null","",NA,NA,NA,NA,""
"image-keyboard-response",321,242152,"0.0-4.103-0.103","7tpzu16bj8n8fd2",958,"21.csv","","277.40000009536743","resources/trios/L1T2A3.jpg","37","restless",0.5,0.5,0.3,0.819053459600965,"false"
"image-keyboard-response",322,242559,"0.0-4.103-1.103","7tpzu16bj8n8fd2",958,"21.csv","","null","resources/maskTrios/L1BB.jpg","null","",NA,NA,NA,NA,""
"image-keyboard-response",323,243772,"0.0-4.103-2.103","7tpzu16bj8n8fd2",958,"21.csv","","null","resources/images/fishbone.png","null","",NA,NA,NA,NA,""
"image-keyboard-response",324,244006,"0.0-4.104-0.104","7tpzu16bj8n8fd2",958,"21.csv","","233.40000009536743","resources/trios/L1T2A3.jpg","37","restless",0.6,0.5,0.4,0.279972113118312,"true"
"image-keyboard-response",325,244411,"0.0-4.104-1.104","7tpzu16bj8n8fd2",958,"21.csv","","null","resources/maskTrios/L1BB.jpg","null","",NA,NA,NA,NA,""
"image-keyboard-response",326,245626,"0.0-4.104-2.104","7tpzu16bj8n8fd2",958,"21.csv","","null","resources/images/coin2.png","null","",NA,NA,NA,NA,""
"image-keyboard-response",327,245907,"0.0-4.105-0.105","7tpzu16bj8n8fd2",958,"21.csv","","278.7999999523163","resources/trios/L1T2A3.jpg","37","restless",0.6,0.5,0.4,0.4194879442436,"true"
"image-keyboard-response",328,246325,"0.0-4.105-1.105","7tpzu16bj8n8fd2",958,"21.csv","","null","resources/maskTrios/L1BB.jpg","null","",NA,NA,NA,NA,""
"image-keyboard-response",329,247534,"0.0-4.105-2.105","7tpzu16bj8n8fd2",958,"21.csv","","null","resources/images/coin2.png","null","",NA,NA,NA,NA,""
"image-keyboard-response",330,250556,"0.0-4.106-0.106","7tpzu16bj8n8fd2",958,"21.csv","","3020.2000000476837","resources/trios/L1T2A3.jpg","37","restless",0.6,0.5,0.4,0.294625041246309,"true"
"image-keyboard-response",331,250966,"0.0-4.106-1.106","7tpzu16bj8n8fd2",958,"21.csv","","null","resources/maskTrios/L1BB.jpg","null","",NA,NA,NA,NA,""
"image-keyboard-response",332,252180,"0.0-4.106-2.106","7tpzu16bj8n8fd2",958,"21.csv","","null","resources/images/coin2.png","null","",NA,NA,NA,NA,""
"image-keyboard-response",333,253639,"0.0-4.107-0.107","7tpzu16bj8n8fd2",958,"21.csv","","1456.7999999523163","resources/trios/L1T2A3.jpg","37","restless",0.6,0.5,0.4,0.973640463171235,"false"
"image-keyboard-response",334,254047,"0.0-4.107-1.107","7tpzu16bj8n8fd2",958,"21.csv","","null","resources/maskTrios/L1BB.jpg","null","",NA,NA,NA,NA,""
"image-keyboard-response",335,255251,"0.0-4.107-2.107","7tpzu16bj8n8fd2",958,"21.csv","","null","resources/images/fishbone.png","null","",NA,NA,NA,NA,""
"image-keyboard-response",336,255527,"0.0-4.108-0.108","7tpzu16bj8n8fd2",958,"21.csv","","274.09999990463257","resources/trios/L1T2A3.jpg","38","restless",0.5,0.5,0.4,0.734357395697418,"false"
"image-keyboard-response",337,255937,"0.0-4.108-1.108","7tpzu16bj8n8fd2",958,"21.csv","","null","resources/maskTrios/BT2B.jpg","null","",NA,NA,NA,NA,""
"image-keyboard-response",338,257146,"0.0-4.108-2.108","7tpzu16bj8n8fd2",958,"21.csv","","null","resources/images/fishbone.png","null","",NA,NA,NA,NA,""
"image-keyboard-response",339,257397,"0.0-4.109-0.109","7tpzu16bj8n8fd2",958,"21.csv","","248.80000019073486","resources/trios/L1T2A3.jpg","39","restless",0.5,0.5,0.4,0.356768922064863,"true"
"image-keyboard-response",340,257812,"0.0-4.109-1.109","7tpzu16bj8n8fd2",958,"21.csv","","null","resources/maskTrios/BBA3.jpg","null","",NA,NA,NA,NA,""
"image-keyboard-response",341,259027,"0.0-4.109-2.109","7tpzu16bj8n8fd2",958,"21.csv","","null","resources/images/coin2.png","null","",NA,NA,NA,NA,""
"image-keyboard-response",342,259285,"0.0-4.110-0.110","7tpzu16bj8n8fd2",958,"21.csv","","255.59999990463257","resources/trios/L1T2A3.jpg","39","restless",0.5,0.5,0.4,0.806797217992904,"false"
"image-keyboard-response",343,259696,"0.0-4.110-1.110","7tpzu16bj8n8fd2",958,"21.csv","","null","resources/maskTrios/BBA3.jpg","null","",NA,NA,NA,NA,""
"image-keyboard-response",344,260909,"0.0-4.110-2.110","7tpzu16bj8n8fd2",958,"21.csv","","null","resources/images/fishbone.png","null","",NA,NA,NA,NA,""
"image-keyboard-response",345,261131,"0.0-4.111-0.111","7tpzu16bj8n8fd2",958,"21.csv","","219.70000004768372","resources/trios/L1T2A3.jpg","39","restless",0.5,0.5,0.5,0.147776791491425,"true"
"image-keyboard-response",346,261545,"0.0-4.111-1.111","7tpzu16bj8n8fd2",958,"21.csv","","null","resources/maskTrios/BBA3.jpg","null","",NA,NA,NA,NA,""
"image-keyboard-response",347,262757,"0.0-4.111-2.111","7tpzu16bj8n8fd2",958,"21.csv","","null","resources/images/coin2.png","null","",NA,NA,NA,NA,""
"image-keyboard-response",348,262981,"0.0-4.112-0.112","7tpzu16bj8n8fd2",958,"21.csv","","222.10000014305115","resources/trios/L1T2A3.jpg","39","restless",0.5,0.5,0.5,0.463030523634851,"true"
"image-keyboard-response",349,263394,"0.0-4.112-1.112","7tpzu16bj8n8fd2",958,"21.csv","","null","resources/maskTrios/BBA3.jpg","null","",NA,NA,NA,NA,""
"image-keyboard-response",350,264608,"0.0-4.112-2.112","7tpzu16bj8n8fd2",958,"21.csv","","null","resources/images/coin2.png","null","",NA,NA,NA,NA,""
"image-keyboard-response",351,264866,"0.0-4.113-0.113","7tpzu16bj8n8fd2",958,"21.csv","","255.59999990463257","resources/trios/L1T2A3.jpg","39","restless",0.5,0.5,0.5,0.55958691659581,"false"
"image-keyboard-response",352,265277,"0.0-4.113-1.113","7tpzu16bj8n8fd2",958,"21.csv","","null","resources/maskTrios/BBA3.jpg","null","",NA,NA,NA,NA,""
"image-keyboard-response",353,266489,"0.0-4.113-2.113","7tpzu16bj8n8fd2",958,"21.csv","","null","resources/images/fishbone.png","null","",NA,NA,NA,NA,""
"image-keyboard-response",354,266723,"0.0-4.114-0.114","7tpzu16bj8n8fd2",958,"21.csv","","231.5","resources/trios/L1T2A3.jpg","37","restless",0.5,0.5,0.5,0.774360061295822,"false"
"image-keyboard-response",355,267131,"0.0-4.114-1.114","7tpzu16bj8n8fd2",958,"21.csv","","null","resources/maskTrios/L1BB.jpg","null","",NA,NA,NA,NA,""
"image-keyboard-response",356,268338,"0.0-4.114-2.114","7tpzu16bj8n8fd2",958,"21.csv","","null","resources/images/fishbone.png","null","",NA,NA,NA,NA,""
"image-keyboard-response",357,268565,"0.0-4.115-0.115","7tpzu16bj8n8fd2",958,"21.csv","","224.39999985694885","resources/trios/L1T2A3.jpg","37","restless",0.5,0.5,0.5,0.191006491936218,"true"
"image-keyboard-response",358,268972,"0.0-4.115-1.115","7tpzu16bj8n8fd2",958,"21.csv","","null","resources/maskTrios/L1BB.jpg","null","",NA,NA,NA,NA,""
"image-keyboard-response",359,270184,"0.0-4.115-2.115","7tpzu16bj8n8fd2",958,"21.csv","","null","resources/images/coin2.png","null","",NA,NA,NA,NA,""
"image-keyboard-response",360,270673,"0.0-4.116-0.116","7tpzu16bj8n8fd2",958,"21.csv","","487.2999999523163","resources/trios/L1T2A3.jpg","37","restless",0.5,0.5,0.5,0.824752072741719,"false"
"image-keyboard-response",361,271082,"0.0-4.116-1.116","7tpzu16bj8n8fd2",958,"21.csv","","null","resources/maskTrios/L1BB.jpg","null","",NA,NA,NA,NA,""
"image-keyboard-response",362,272294,"0.0-4.116-2.116","7tpzu16bj8n8fd2",958,"21.csv","","null","resources/images/fishbone.png","null","",NA,NA,NA,NA,""
"image-keyboard-response",363,273040,"0.0-4.117-0.117","7tpzu16bj8n8fd2",958,"21.csv","","743.7999999523163","resources/trios/L1T2A3.jpg","37","restless",0.5,0.5,0.5,0.0175499775798986,"true"
"image-keyboard-response",364,273446,"0.0-4.117-1.117","7tpzu16bj8n8fd2",958,"21.csv","","null","resources/maskTrios/L1BB.jpg","null","",NA,NA,NA,NA,""
"image-keyboard-response",365,274654,"0.0-4.117-2.117","7tpzu16bj8n8fd2",958,"21.csv","","null","resources/images/coin2.png","null","",NA,NA,NA,NA,""
"image-keyboard-response",366,276261,"0.0-4.118-0.118","7tpzu16bj8n8fd2",958,"21.csv","","1605.5999999046326","resources/trios/L1T2A3.jpg","37","restless",0.5,0.6,0.5,0.43874155925972,"true"
"image-keyboard-response",367,276677,"0.0-4.118-1.118","7tpzu16bj8n8fd2",958,"21.csv","","null","resources/maskTrios/L1BB.jpg","null","",NA,NA,NA,NA,""
"image-keyboard-response",368,277887,"0.0-4.118-2.118","7tpzu16bj8n8fd2",958,"21.csv","","null","resources/images/coin2.png","null","",NA,NA,NA,NA,""
"image-keyboard-response",369,278231,"0.0-4.119-0.119","7tpzu16bj8n8fd2",958,"21.csv","","342.09999990463257","resources/trios/L1T2A3.jpg","37","restless",0.5,0.6,0.5,0.392999451146053,"true"
"image-keyboard-response",370,278644,"0.0-4.119-1.119","7tpzu16bj8n8fd2",958,"21.csv","","null","resources/maskTrios/L1BB.jpg","null","",NA,NA,NA,NA,""
"image-keyboard-response",371,279859,"0.0-4.119-2.119","7tpzu16bj8n8fd2",958,"21.csv","","null","resources/images/coin2.png","null","",NA,NA,NA,NA,""
"image-keyboard-response",372,280264,"0.0-4.120-0.120","7tpzu16bj8n8fd2",958,"21.csv","","402.2999999523163","resources/trios/L1T2A3.jpg","37","restless",0.5,0.6,0.5,0.766429224213146,"false"
"image-keyboard-response",373,280669,"0.0-4.120-1.120","7tpzu16bj8n8fd2",958,"21.csv","","null","resources/maskTrios/L1BB.jpg","null","",NA,NA,NA,NA,""
"image-keyboard-response",374,281881,"0.0-4.120-2.120","7tpzu16bj8n8fd2",958,"21.csv","","null","resources/images/fishbone.png","null","",NA,NA,NA,NA,""
"image-keyboard-response",375,284562,"0.0-4.121-0.121","7tpzu16bj8n8fd2",958,"21.csv","","2678.2000000476837","resources/trios/L1T2A3.jpg","37","restless",0.5,0.7,0.5,0.887919444344466,"false"
"image-keyboard-response",376,284975,"0.0-4.121-1.121","7tpzu16bj8n8fd2",958,"21.csv","","null","resources/maskTrios/L1BB.jpg","null","",NA,NA,NA,NA,""
"image-keyboard-response",377,286192,"0.0-4.121-2.121","7tpzu16bj8n8fd2",958,"21.csv","","null","resources/images/fishbone.png","null","",NA,NA,NA,NA,""
"image-keyboard-response",378,286670,"0.0-4.122-0.122","7tpzu16bj8n8fd2",958,"21.csv","","474.40000009536743","resources/trios/L1T2A3.jpg","37","restless",0.5,0.7,0.5,0.228934049982393,"true"
"image-keyboard-response",379,287077,"0.0-4.122-1.122","7tpzu16bj8n8fd2",958,"21.csv","","null","resources/maskTrios/L1BB.jpg","null","",NA,NA,NA,NA,""
"image-keyboard-response",380,288289,"0.0-4.122-2.122","7tpzu16bj8n8fd2",958,"21.csv","","null","resources/images/coin2.png","null","",NA,NA,NA,NA,""
"image-keyboard-response",381,288572,"0.0-4.123-0.123","7tpzu16bj8n8fd2",958,"21.csv","","280.90000009536743","resources/trios/L1T2A3.jpg","37","restless",0.5,0.8,0.4,0.352397395894375,"true"
"image-keyboard-response",382,288986,"0.0-4.123-1.123","7tpzu16bj8n8fd2",958,"21.csv","","null","resources/maskTrios/L1BB.jpg","null","",NA,NA,NA,NA,""
"image-keyboard-response",383,290202,"0.0-4.123-2.123","7tpzu16bj8n8fd2",958,"21.csv","","null","resources/images/coin2.png","null","",NA,NA,NA,NA,""
"image-keyboard-response",384,290502,"0.0-4.124-0.124","7tpzu16bj8n8fd2",958,"21.csv","","298.2999999523163","resources/trios/L1T2A3.jpg","37","restless",0.5,0.9,0.4,0.308087578813626,"true"
"image-keyboard-response",385,290917,"0.0-4.124-1.124","7tpzu16bj8n8fd2",958,"21.csv","","null","resources/maskTrios/L1BB.jpg","null","",NA,NA,NA,NA,""
"image-keyboard-response",386,292132,"0.0-4.124-2.124","7tpzu16bj8n8fd2",958,"21.csv","","null","resources/images/coin2.png","null","",NA,NA,NA,NA,""
"image-keyboard-response",387,292424,"0.0-4.125-0.125","7tpzu16bj8n8fd2",958,"21.csv","","290.10000014305115","resources/trios/L1T2A3.jpg","37","restless",0.5,0.9,0.4,0.105955589975507,"true"
"image-keyboard-response",388,292832,"0.0-4.125-1.125","7tpzu16bj8n8fd2",958,"21.csv","","null","resources/maskTrios/L1BB.jpg","null","",NA,NA,NA,NA,""
"image-keyboard-response",389,294037,"0.0-4.125-2.125","7tpzu16bj8n8fd2",958,"21.csv","","null","resources/images/coin2.png","null","",NA,NA,NA,NA,""
"image-keyboard-response",390,294293,"0.0-4.126-0.126","7tpzu16bj8n8fd2",958,"21.csv","","254.20000004768372","resources/trios/L1T2A3.jpg","37","restless",0.5,0.9,0.4,0.649859215760452,"false"
"image-keyboard-response",391,294695,"0.0-4.126-1.126","7tpzu16bj8n8fd2",958,"21.csv","","null","resources/maskTrios/L1BB.jpg","null","",NA,NA,NA,NA,""
"image-keyboard-response",392,295899,"0.0-4.126-2.126","7tpzu16bj8n8fd2",958,"21.csv","","null","resources/images/fishbone.png","null","",NA,NA,NA,NA,""
"image-keyboard-response",393,296123,"0.0-4.127-0.127","7tpzu16bj8n8fd2",958,"21.csv","","223.89999985694885","resources/trios/L1T2A3.jpg","37","restless",0.5,0.9,0.4,0.504435861839487,"false"
"image-keyboard-response",394,296537,"0.0-4.127-1.127","7tpzu16bj8n8fd2",958,"21.csv","","null","resources/maskTrios/L1BB.jpg","null","",NA,NA,NA,NA,""
"image-keyboard-response",395,297751,"0.0-4.127-2.127","7tpzu16bj8n8fd2",958,"21.csv","","null","resources/images/fishbone.png","null","",NA,NA,NA,NA,""
"image-keyboard-response",396,297985,"0.0-4.128-0.128","7tpzu16bj8n8fd2",958,"21.csv","","231.90000009536743","resources/trios/L1T2A3.jpg","38","restless",0.5,0.9,0.4,0.018478946749837,"true"
"image-keyboard-response",397,298388,"0.0-4.128-1.128","7tpzu16bj8n8fd2",958,"21.csv","","null","resources/maskTrios/BT2B.jpg","null","",NA,NA,NA,NA,""
"image-keyboard-response",398,299598,"0.0-4.128-2.128","7tpzu16bj8n8fd2",958,"21.csv","","null","resources/images/coin2.png","null","",NA,NA,NA,NA,""
"image-keyboard-response",399,299847,"0.0-4.129-0.129","7tpzu16bj8n8fd2",958,"21.csv","","246.80000019073486","resources/trios/L1T2A3.jpg","38","restless",0.5,0.9,0.4,0.0656636454862896,"true"
"image-keyboard-response",400,300253,"0.0-4.129-1.129","7tpzu16bj8n8fd2",958,"21.csv","","null","resources/maskTrios/BT2B.jpg","null","",NA,NA,NA,NA,""
"image-keyboard-response",401,301463,"0.0-4.129-2.129","7tpzu16bj8n8fd2",958,"21.csv","","null","resources/images/coin2.png","null","",NA,NA,NA,NA,""
"image-keyboard-response",402,301693,"0.0-4.130-0.130","7tpzu16bj8n8fd2",958,"21.csv","","228.59999990463257","resources/trios/L1T2A3.jpg","38","restless",0.5,0.9,0.4,0.540055375795264,"true"
"image-keyboard-response",403,302099,"0.0-4.130-1.130","7tpzu16bj8n8fd2",958,"21.csv","","null","resources/maskTrios/BT2B.jpg","null","",NA,NA,NA,NA,""
"image-keyboard-response",404,303308,"0.0-4.130-2.130","7tpzu16bj8n8fd2",958,"21.csv","","null","resources/images/coin2.png","null","",NA,NA,NA,NA,""
"image-keyboard-response",405,303532,"0.0-4.131-0.131","7tpzu16bj8n8fd2",958,"21.csv","","220.20000004768372","resources/trios/L1T2A3.jpg","38","restless",0.5,0.9,0.4,0.548921773038143,"true"
"image-keyboard-response",406,303949,"0.0-4.131-1.131","7tpzu16bj8n8fd2",958,"21.csv","","null","resources/maskTrios/BT2B.jpg","null","",NA,NA,NA,NA,""
"image-keyboard-response",407,305151,"0.0-4.131-2.131","7tpzu16bj8n8fd2",958,"21.csv","","null","resources/images/coin2.png","null","",NA,NA,NA,NA,""
"image-keyboard-response",408,305410,"0.0-4.132-0.132","7tpzu16bj8n8fd2",958,"21.csv","","256.39999985694885","resources/trios/L1T2A3.jpg","38","restless",0.5,0.9,0.4,0.133406816009217,"true"
"image-keyboard-response",409,305818,"0.0-4.132-1.132","7tpzu16bj8n8fd2",958,"21.csv","","null","resources/maskTrios/BT2B.jpg","null","",NA,NA,NA,NA,""
"image-keyboard-response",410,307029,"0.0-4.132-2.132","7tpzu16bj8n8fd2",958,"21.csv","","null","resources/images/coin2.png","null","",NA,NA,NA,NA,""
"image-keyboard-response",411,307299,"0.0-4.133-0.133","7tpzu16bj8n8fd2",958,"21.csv","","268.10000014305115","resources/trios/L1T2A3.jpg","38","restless",0.5,0.9,0.4,0.489179370108872,"true"
"image-keyboard-response",412,307711,"0.0-4.133-1.133","7tpzu16bj8n8fd2",958,"21.csv","","null","resources/maskTrios/BT2B.jpg","null","",NA,NA,NA,NA,""
"image-keyboard-response",413,308922,"0.0-4.133-2.133","7tpzu16bj8n8fd2",958,"21.csv","","null","resources/images/coin2.png","null","",NA,NA,NA,NA,""
"image-keyboard-response",414,309191,"0.0-4.134-0.134","7tpzu16bj8n8fd2",958,"21.csv","","266.90000009536743","resources/trios/L1T2A3.jpg","38","restless",0.5,0.9,0.4,0.847255014804699,"true"
"image-keyboard-response",415,309607,"0.0-4.134-1.134","7tpzu16bj8n8fd2",958,"21.csv","","null","resources/maskTrios/BT2B.jpg","null","",NA,NA,NA,NA,""
"image-keyboard-response",416,310821,"0.0-4.134-2.134","7tpzu16bj8n8fd2",958,"21.csv","","null","resources/images/coin2.png","null","",NA,NA,NA,NA,""
"image-keyboard-response",417,311062,"0.0-4.135-0.135","7tpzu16bj8n8fd2",958,"21.csv","","240","resources/trios/L1T2A3.jpg","38","restless",0.4,0.9,0.4,0.406285215040316,"true"
"image-keyboard-response",418,311474,"0.0-4.135-1.135","7tpzu16bj8n8fd2",958,"21.csv","","null","resources/maskTrios/BT2B.jpg","null","",NA,NA,NA,NA,""
"image-keyboard-response",419,312686,"0.0-4.135-2.135","7tpzu16bj8n8fd2",958,"21.csv","","null","resources/images/coin2.png","null","",NA,NA,NA,NA,""
"image-keyboard-response",420,313062,"0.0-4.136-0.136","7tpzu16bj8n8fd2",958,"21.csv","","373.7000000476837","resources/trios/L1T2A3.jpg","38","restless",0.4,0.9,0.5,0.794683057431718,"true"
"image-keyboard-response",421,313480,"0.0-4.136-1.136","7tpzu16bj8n8fd2",958,"21.csv","","null","resources/maskTrios/BT2B.jpg","null","",NA,NA,NA,NA,""
"image-keyboard-response",422,314691,"0.0-4.136-2.136","7tpzu16bj8n8fd2",958,"21.csv","","null","resources/images/coin2.png","null","",NA,NA,NA,NA,""
"image-keyboard-response",423,314951,"0.0-4.137-0.137","7tpzu16bj8n8fd2",958,"21.csv","","257","resources/trios/L1T2A3.jpg","38","restless",0.3,0.9,0.5,0.362813035146172,"true"
"image-keyboard-response",424,315360,"0.0-4.137-1.137","7tpzu16bj8n8fd2",958,"21.csv","","null","resources/maskTrios/BT2B.jpg","null","",NA,NA,NA,NA,""
"image-keyboard-response",425,316572,"0.0-4.137-2.137","7tpzu16bj8n8fd2",958,"21.csv","","null","resources/images/coin2.png","null","",NA,NA,NA,NA,""
"image-keyboard-response",426,316769,"0.0-4.138-0.138","7tpzu16bj8n8fd2",958,"21.csv","","196.70000004768372","resources/trios/L1T2A3.jpg","38","restless",0.3,0.8,0.5,0.583660256198787,"true"
"image-keyboard-response",427,317179,"0.0-4.138-1.138","7tpzu16bj8n8fd2",958,"21.csv","","null","resources/maskTrios/BT2B.jpg","null","",NA,NA,NA,NA,""
"image-keyboard-response",428,318386,"0.0-4.138-2.138","7tpzu16bj8n8fd2",958,"21.csv","","null","resources/images/coin2.png","null","",NA,NA,NA,NA,""
"image-keyboard-response",429,318652,"0.0-4.139-0.139","7tpzu16bj8n8fd2",958,"21.csv","","265.7000000476837","resources/trios/L1T2A3.jpg","38","restless",0.3,0.8,0.5,0.798366314731302,"true"
"image-keyboard-response",430,319067,"0.0-4.139-1.139","7tpzu16bj8n8fd2",958,"21.csv","","null","resources/maskTrios/BT2B.jpg","null","",NA,NA,NA,NA,""
"image-keyboard-response",431,320274,"0.0-4.139-2.139","7tpzu16bj8n8fd2",958,"21.csv","","null","resources/images/coin2.png","null","",NA,NA,NA,NA,""
"image-keyboard-response",432,320525,"0.0-4.140-0.140","7tpzu16bj8n8fd2",958,"21.csv","","248.69999980926514","resources/trios/L1T2A3.jpg","38","restless",0.3,0.8,0.5,0.761897471403117,"true"
"image-keyboard-response",433,320927,"0.0-4.140-1.140","7tpzu16bj8n8fd2",958,"21.csv","","null","resources/maskTrios/BT2B.jpg","null","",NA,NA,NA,NA,""
"image-keyboard-response",434,322134,"0.0-4.140-2.140","7tpzu16bj8n8fd2",958,"21.csv","","null","resources/images/coin2.png","null","",NA,NA,NA,NA,""
"image-keyboard-response",435,322442,"0.0-4.141-0.141","7tpzu16bj8n8fd2",958,"21.csv","","306.69999980926514","resources/trios/L1T2A3.jpg","38","restless",0.3,0.7,0.5,0.084174435694669,"true"
"image-keyboard-response",436,322846,"0.0-4.141-1.141","7tpzu16bj8n8fd2",958,"21.csv","","null","resources/maskTrios/BT2B.jpg","null","",NA,NA,NA,NA,""
"image-keyboard-response",437,324055,"0.0-4.141-2.141","7tpzu16bj8n8fd2",958,"21.csv","","null","resources/images/coin2.png","null","",NA,NA,NA,NA,""
"image-keyboard-response",438,324381,"0.0-4.142-0.142","7tpzu16bj8n8fd2",958,"21.csv","","323.40000009536743","resources/trios/L1T2A3.jpg","38","restless",0.3,0.7,0.5,0.50011422675178,"true"
"image-keyboard-response",439,324787,"0.0-4.142-1.142","7tpzu16bj8n8fd2",958,"21.csv","","null","resources/maskTrios/BT2B.jpg","null","",NA,NA,NA,NA,""
"image-keyboard-response",440,326000,"0.0-4.142-2.142","7tpzu16bj8n8fd2",958,"21.csv","","null","resources/images/coin2.png","null","",NA,NA,NA,NA,""
"image-keyboard-response",441,326301,"0.0-4.143-0.143","7tpzu16bj8n8fd2",958,"21.csv","","299.2000000476837","resources/trios/L1T2A3.jpg","38","restless",0.3,0.7,0.6,0.610853218167325,"true"
"image-keyboard-response",442,326715,"0.0-4.143-1.143","7tpzu16bj8n8fd2",958,"21.csv","","null","resources/maskTrios/BT2B.jpg","null","",NA,NA,NA,NA,""
"image-keyboard-response",443,327923,"0.0-4.143-2.143","7tpzu16bj8n8fd2",958,"21.csv","","null","resources/images/coin2.png","null","",NA,NA,NA,NA,""
"image-keyboard-response",444,328262,"0.0-4.144-0.144","7tpzu16bj8n8fd2",958,"21.csv","","337.40000009536743","resources/trios/L1T2A3.jpg","38","restless",0.3,0.7,0.6,0.935704362759488,"false"
"image-keyboard-response",445,328669,"0.0-4.144-1.144","7tpzu16bj8n8fd2",958,"21.csv","","null","resources/maskTrios/BT2B.jpg","null","",NA,NA,NA,NA,""
"image-keyboard-response",446,329882,"0.0-4.144-2.144","7tpzu16bj8n8fd2",958,"21.csv","","null","resources/images/fishbone.png","null","",NA,NA,NA,NA,""
"image-keyboard-response",447,330160,"0.0-4.145-0.145","7tpzu16bj8n8fd2",958,"21.csv","","275.59999990463257","resources/trios/L1T2A3.jpg","38","restless",0.3,0.7,0.6,0.506443424077054,"true"
"image-keyboard-response",448,330563,"0.0-4.145-1.145","7tpzu16bj8n8fd2",958,"21.csv","","null","resources/maskTrios/BT2B.jpg","null","",NA,NA,NA,NA,""
"image-keyboard-response",449,331775,"0.0-4.145-2.145","7tpzu16bj8n8fd2",958,"21.csv","","null","resources/images/coin2.png","null","",NA,NA,NA,NA,""
"image-keyboard-response",450,332079,"0.0-4.146-0.146","7tpzu16bj8n8fd2",958,"21.csv","","302.89999985694885","resources/trios/L1T2A3.jpg","38","restless",0.3,0.7,0.6,0.299827293556299,"true"
"image-keyboard-response",451,332491,"0.0-4.146-1.146","7tpzu16bj8n8fd2",958,"21.csv","","null","resources/maskTrios/BT2B.jpg","null","",NA,NA,NA,NA,""
"image-keyboard-response",452,333704,"0.0-4.146-2.146","7tpzu16bj8n8fd2",958,"21.csv","","null","resources/images/coin2.png","null","",NA,NA,NA,NA,""
"image-keyboard-response",453,334031,"0.0-4.147-0.147","7tpzu16bj8n8fd2",958,"21.csv","","324","resources/trios/L1T2A3.jpg","38","restless",0.3,0.7,0.6,0.232691372820973,"true"
"image-keyboard-response",454,334439,"0.0-4.147-1.147","7tpzu16bj8n8fd2",958,"21.csv","","null","resources/maskTrios/BT2B.jpg","null","",NA,NA,NA,NA,""
"image-keyboard-response",455,335647,"0.0-4.147-2.147","7tpzu16bj8n8fd2",958,"21.csv","","null","resources/images/coin2.png","null","",NA,NA,NA,NA,""
"image-keyboard-response",456,335907,"0.0-4.148-0.148","7tpzu16bj8n8fd2",958,"21.csv","","257.7999999523163","resources/trios/L1T2A3.jpg","38","restless",0.3,0.7,0.6,0.144838891733326,"true"
"image-keyboard-response",457,336316,"0.0-4.148-1.148","7tpzu16bj8n8fd2",958,"21.csv","","null","resources/maskTrios/BT2B.jpg","null","",NA,NA,NA,NA,""
"image-keyboard-response",458,337528,"0.0-4.148-2.148","7tpzu16bj8n8fd2",958,"21.csv","","null","resources/images/coin2.png","null","",NA,NA,NA,NA,""
"image-keyboard-response",459,337959,"0.0-4.149-0.149","7tpzu16bj8n8fd2",958,"21.csv","","429.2999999523163","resources/trios/L1T2A3.jpg","38","restless",0.3,0.7,0.6,0.884374879107835,"false"
"image-keyboard-response",460,338369,"0.0-4.149-1.149","7tpzu16bj8n8fd2",958,"21.csv","","null","resources/maskTrios/BT2B.jpg","null","",NA,NA,NA,NA,""
"image-keyboard-response",461,339582,"0.0-4.149-2.149","7tpzu16bj8n8fd2",958,"21.csv","","null","resources/images/fishbone.png","null","",NA,NA,NA,NA,""
"image-keyboard-response",462,339823,"0.0-4.150-0.150","7tpzu16bj8n8fd2",958,"21.csv","","239.39999985694885","resources/trios/L1T2A3.jpg","38","restless",0.3,0.7,0.6,0.49775291313921,"true"
"image-keyboard-response",463,340238,"0.0-4.150-1.150","7tpzu16bj8n8fd2",958,"21.csv","","null","resources/maskTrios/BT2B.jpg","null","",NA,NA,NA,NA,""
"image-keyboard-response",464,341452,"0.0-4.150-2.150","7tpzu16bj8n8fd2",958,"21.csv","","null","resources/images/coin2.png","null","",NA,NA,NA,NA,""
"image-keyboard-response",465,342329,"0.0-4.151-0.151","7tpzu16bj8n8fd2",958,"21.csv","","874.3000001907349","resources/trios/L1T2A3.jpg","38","restless",0.3,0.7,0.6,0.0928228181315156,"true"
"image-keyboard-response",466,342734,"0.0-4.151-1.151","7tpzu16bj8n8fd2",958,"21.csv","","null","resources/maskTrios/BT2B.jpg","null","",NA,NA,NA,NA,""
"image-keyboard-response",467,343937,"0.0-4.151-2.151","7tpzu16bj8n8fd2",958,"21.csv","","null","resources/images/coin2.png","null","",NA,NA,NA,NA,""
"image-keyboard-response",468,344180,"0.0-4.152-0.152","7tpzu16bj8n8fd2",958,"21.csv","","240.79999995231628","resources/trios/L1T2A3.jpg","38","restless",0.3,0.7,0.6,0.89323350210437,"false"
"image-keyboard-response",469,344589,"0.0-4.152-1.152","7tpzu16bj8n8fd2",958,"21.csv","","null","resources/maskTrios/BT2B.jpg","null","",NA,NA,NA,NA,""
"image-keyboard-response",470,345806,"0.0-4.152-2.152","7tpzu16bj8n8fd2",958,"21.csv","","null","resources/images/fishbone.png","null","",NA,NA,NA,NA,""
"image-keyboard-response",471,346083,"0.0-4.153-0.153","7tpzu16bj8n8fd2",958,"21.csv","","274.69999980926514","resources/trios/L1T2A3.jpg","38","restless",0.3,0.7,0.6,0.731204357268805,"false"
"image-keyboard-response",472,346489,"0.0-4.153-1.153","7tpzu16bj8n8fd2",958,"21.csv","","null","resources/maskTrios/BT2B.jpg","null","",NA,NA,NA,NA,""
"image-keyboard-response",473,347707,"0.0-4.153-2.153","7tpzu16bj8n8fd2",958,"21.csv","","null","resources/images/fishbone.png","null","",NA,NA,NA,NA,""
"image-keyboard-response",474,347959,"0.0-4.154-0.154","7tpzu16bj8n8fd2",958,"21.csv","","249.70000004768372","resources/trios/L1T2A3.jpg","39","restless",0.3,0.7,0.6,0.397946682974291,"true"
"image-keyboard-response",475,348375,"0.0-4.154-1.154","7tpzu16bj8n8fd2",958,"21.csv","","null","resources/maskTrios/BBA3.jpg","null","",NA,NA,NA,NA,""
"image-keyboard-response",476,349591,"0.0-4.154-2.154","7tpzu16bj8n8fd2",958,"21.csv","","null","resources/images/coin2.png","null","",NA,NA,NA,NA,""
"image-keyboard-response",477,349839,"0.0-4.155-0.155","7tpzu16bj8n8fd2",958,"21.csv","","245.90000009536743","resources/trios/L1T2A3.jpg","39","restless",0.3,0.8,0.6,0.383574306489486,"true"
"image-keyboard-response",478,350243,"0.0-4.155-1.155","7tpzu16bj8n8fd2",958,"21.csv","","null","resources/maskTrios/BBA3.jpg","null","",NA,NA,NA,NA,""
"image-keyboard-response",479,351451,"0.0-4.155-2.155","7tpzu16bj8n8fd2",958,"21.csv","","null","resources/images/coin2.png","null","",NA,NA,NA,NA,""
"image-keyboard-response",480,351720,"0.0-4.156-0.156","7tpzu16bj8n8fd2",958,"21.csv","","266.69999980926514","resources/trios/L1T2A3.jpg","39","restless",0.3,0.8,0.6,0.179742046381647,"true"
"image-keyboard-response",481,352136,"0.0-4.156-1.156","7tpzu16bj8n8fd2",958,"21.csv","","null","resources/maskTrios/BBA3.jpg","null","",NA,NA,NA,NA,""
"image-keyboard-response",482,353350,"0.0-4.156-2.156","7tpzu16bj8n8fd2",958,"21.csv","","null","resources/images/coin2.png","null","",NA,NA,NA,NA,""
"image-keyboard-response",483,353359,"0.0-4.157-0.157","7tpzu16bj8n8fd2",958,"21.csv","","7.900000095367432","resources/trios/L1T2A3.jpg","39","restless",0.3,0.8,0.6,0.627351154456657,"false"
"image-keyboard-response",484,353769,"0.0-4.157-1.157","7tpzu16bj8n8fd2",958,"21.csv","","null","resources/maskTrios/BBA3.jpg","null","",NA,NA,NA,NA,""
"image-keyboard-response",485,354983,"0.0-4.157-2.157","7tpzu16bj8n8fd2",958,"21.csv","","null","resources/images/fishbone.png","null","",NA,NA,NA,NA,""
"image-keyboard-response",486,355094,"0.0-4.158-0.158","7tpzu16bj8n8fd2",958,"21.csv","","108.79999995231628","resources/trios/L1T2A3.jpg","37","restless",0.3,0.8,0.6,0.854283739020373,"false"
"image-keyboard-response",487,355497,"0.0-4.158-1.158","7tpzu16bj8n8fd2",958,"21.csv","","null","resources/maskTrios/L1BB.jpg","null","",NA,NA,NA,NA,""
"image-keyboard-response",488,356704,"0.0-4.158-2.158","7tpzu16bj8n8fd2",958,"21.csv","","null","resources/images/fishbone.png","null","",NA,NA,NA,NA,""
"image-keyboard-response",489,356930,"0.0-4.159-0.159","7tpzu16bj8n8fd2",958,"21.csv","","225.20000004768372","resources/trios/L1T2A3.jpg","37","restless",0.3,0.8,0.6,0.27332708611534,"true"
"image-keyboard-response",490,357340,"0.0-4.159-1.159","7tpzu16bj8n8fd2",958,"21.csv","","null","resources/maskTrios/L1BB.jpg","null","",NA,NA,NA,NA,""
"image-keyboard-response",491,358551,"0.0-4.159-2.159","7tpzu16bj8n8fd2",958,"21.csv","","null","resources/images/coin2.png","null","",NA,NA,NA,NA,""
"image-keyboard-response",492,358895,"0.0-4.160-0.160","7tpzu16bj8n8fd2",958,"21.csv","","343.60000014305115","resources/trios/L1T2A3.jpg","37","restless",0.3,0.8,0.6,0.874433176156407,"false"
"image-keyboard-response",493,359296,"0.0-4.160-1.160","7tpzu16bj8n8fd2",958,"21.csv","","null","resources/maskTrios/L1BB.jpg","null","",NA,NA,NA,NA,""
"image-keyboard-response",494,360509,"0.0-4.160-2.160","7tpzu16bj8n8fd2",958,"21.csv","","null","resources/images/fishbone.png","null","",NA,NA,NA,NA,""
"image-keyboard-response",495,360857,"0.0-4.161-0.161","7tpzu16bj8n8fd2",958,"21.csv","","346.2000000476837","resources/trios/L1T2A3.jpg","37","restless",0.2,0.8,0.6,0.322352529077367,"false"
"image-keyboard-response",496,361258,"0.0-4.161-1.161","7tpzu16bj8n8fd2",958,"21.csv","","null","resources/maskTrios/L1BB.jpg","null","",NA,NA,NA,NA,""
"image-keyboard-response",497,362467,"0.0-4.161-2.161","7tpzu16bj8n8fd2",958,"21.csv","","null","resources/images/fishbone.png","null","",NA,NA,NA,NA,""
"image-keyboard-response",498,362733,"0.0-4.162-0.162","7tpzu16bj8n8fd2",958,"21.csv","","263.10000014305115","resources/trios/L1T2A3.jpg","38","restless",0.2,0.8,0.6,0.411844362749648,"true"
"image-keyboard-response",499,363150,"0.0-4.162-1.162","7tpzu16bj8n8fd2",958,"21.csv","","null","resources/maskTrios/BT2B.jpg","null","",NA,NA,NA,NA,""
"image-keyboard-response",500,364360,"0.0-4.162-2.162","7tpzu16bj8n8fd2",958,"21.csv","","null","resources/images/coin2.png","null","",NA,NA,NA,NA,""
"image-keyboard-response",501,364614,"0.0-4.163-0.163","7tpzu16bj8n8fd2",958,"21.csv","","252.40000009536743","resources/trios/L1T2A3.jpg","38","restless",0.2,0.8,0.6,0.771088664166214,"true"
"image-keyboard-response",502,365029,"0.0-4.163-1.163","7tpzu16bj8n8fd2",958,"21.csv","","null","resources/maskTrios/BT2B.jpg","null","",NA,NA,NA,NA,""
"image-keyboard-response",503,366239,"0.0-4.163-2.163","7tpzu16bj8n8fd2",958,"21.csv","","null","resources/images/coin2.png","null","",NA,NA,NA,NA,""
"image-keyboard-response",504,366480,"0.0-4.164-0.164","7tpzu16bj8n8fd2",958,"21.csv","","239.79999995231628","resources/trios/L1T2A3.jpg","37","restless",0.2,0.8,0.6,0.0543136848347852,"true"
"image-keyboard-response",505,366893,"0.0-4.164-1.164","7tpzu16bj8n8fd2",958,"21.csv","","null","resources/maskTrios/L1BB.jpg","null","",NA,NA,NA,NA,""
"image-keyboard-response",506,368105,"0.0-4.164-2.164","7tpzu16bj8n8fd2",958,"21.csv","","null","resources/images/coin2.png","null","",NA,NA,NA,NA,""
"image-keyboard-response",507,368335,"0.0-4.165-0.165","7tpzu16bj8n8fd2",958,"21.csv","","228.79999995231628","resources/trios/L1T2A3.jpg","38","restless",0.2,0.8,0.6,0.181844339800844,"true"
"image-keyboard-response",508,368739,"0.0-4.165-1.165","7tpzu16bj8n8fd2",958,"21.csv","","null","resources/maskTrios/BT2B.jpg","null","",NA,NA,NA,NA,""
"image-keyboard-response",509,369945,"0.0-4.165-2.165","7tpzu16bj8n8fd2",958,"21.csv","","null","resources/images/coin2.png","null","",NA,NA,NA,NA,""
"image-keyboard-response",510,370179,"0.0-4.166-0.166","7tpzu16bj8n8fd2",958,"21.csv","","231.70000004768372","resources/trios/L1T2A3.jpg","39","restless",0.2,0.8,0.6,0.978954296650833,"false"
"image-keyboard-response",511,370583,"0.0-4.166-1.166","7tpzu16bj8n8fd2",958,"21.csv","","null","resources/maskTrios/BBA3.jpg","null","",NA,NA,NA,NA,""
"image-keyboard-response",512,371797,"0.0-4.166-2.166","7tpzu16bj8n8fd2",958,"21.csv","","null","resources/images/fishbone.png","null","",NA,NA,NA,NA,""
"image-keyboard-response",513,372020,"0.0-4.167-0.167","7tpzu16bj8n8fd2",958,"21.csv","","221.29999995231628","resources/trios/L1T2A3.jpg","37","restless",0.2,0.7,0.6,0.10842466682382,"true"
"image-keyboard-response",514,372436,"0.0-4.167-1.167","7tpzu16bj8n8fd2",958,"21.csv","","null","resources/maskTrios/L1BB.jpg","null","",NA,NA,NA,NA,""
"image-keyboard-response",515,373648,"0.0-4.167-2.167","7tpzu16bj8n8fd2",958,"21.csv","","null","resources/images/coin2.png","null","",NA,NA,NA,NA,""
"image-keyboard-response",516,373869,"0.0-4.168-0.168","7tpzu16bj8n8fd2",958,"21.csv","","220.79999995231628","resources/trios/L1T2A3.jpg","38","restless",0.2,0.7,0.6,0.974074219731136,"false"
"image-keyboard-response",517,374285,"0.0-4.168-1.168","7tpzu16bj8n8fd2",958,"21.csv","","null","resources/maskTrios/BT2B.jpg","null","",NA,NA,NA,NA,""
"image-keyboard-response",518,375501,"0.0-4.168-2.168","7tpzu16bj8n8fd2",958,"21.csv","","null","resources/images/fishbone.png","null","",NA,NA,NA,NA,""
"image-keyboard-response",519,375734,"0.0-4.169-0.169","7tpzu16bj8n8fd2",958,"21.csv","","231","resources/trios/L1T2A3.jpg","37","restless",0.2,0.7,0.6,0.300730384113935,"false"
"image-keyboard-response",520,376144,"0.0-4.169-1.169","7tpzu16bj8n8fd2",958,"21.csv","","null","resources/maskTrios/L1BB.jpg","null","",NA,NA,NA,NA,""
"image-keyboard-response",521,377351,"0.0-4.169-2.169","7tpzu16bj8n8fd2",958,"21.csv","","null","resources/images/fishbone.png","null","",NA,NA,NA,NA,""
"image-keyboard-response",522,377513,"0.0-4.170-0.170","7tpzu16bj8n8fd2",958,"21.csv","","160.5","resources/trios/L1T2A3.jpg","39","restless",0.1,0.7,0.6,0.226954253777311,"true"
"image-keyboard-response",523,377922,"0.0-4.170-1.170","7tpzu16bj8n8fd2",958,"21.csv","","null","resources/maskTrios/BBA3.jpg","null","",NA,NA,NA,NA,""
"image-keyboard-response",524,379132,"0.0-4.170-2.170","7tpzu16bj8n8fd2",958,"21.csv","","null","resources/images/coin2.png","null","",NA,NA,NA,NA,""
"image-keyboard-response",525,379332,"0.0-4.171-0.171","7tpzu16bj8n8fd2",958,"21.csv","","198.69999980926514","resources/trios/L1T2A3.jpg","39","restless",0.1,0.6,0.6,0.607989976419534,"false"
"image-keyboard-response",526,379735,"0.0-4.171-1.171","7tpzu16bj8n8fd2",958,"21.csv","","null","resources/maskTrios/BBA3.jpg","null","",NA,NA,NA,NA,""
"image-keyboard-response",527,380951,"0.0-4.171-2.171","7tpzu16bj8n8fd2",958,"21.csv","","null","resources/images/fishbone.png","null","",NA,NA,NA,NA,""
"image-keyboard-response",528,381138,"0.0-4.172-0.172","7tpzu16bj8n8fd2",958,"21.csv","","185.5","resources/trios/L1T2A3.jpg","37","restless",0.1,0.6,0.6,0.751289075229161,"false"
"image-keyboard-response",529,381540,"0.0-4.172-1.172","7tpzu16bj8n8fd2",958,"21.csv","","null","resources/maskTrios/L1BB.jpg","null","",NA,NA,NA,NA,""
"image-keyboard-response",530,382751,"0.0-4.172-2.172","7tpzu16bj8n8fd2",958,"21.csv","","null","resources/images/fishbone.png","null","",NA,NA,NA,NA,""
"image-keyboard-response",531,382980,"0.0-4.173-0.173","7tpzu16bj8n8fd2",958,"21.csv","","226.30000019073486","resources/trios/L1T2A3.jpg","38","restless",0.1,0.6,0.6,0.979964617081913,"false"
"image-keyboard-response",532,383385,"0.0-4.173-1.173","7tpzu16bj8n8fd2",958,"21.csv","","null","resources/maskTrios/BT2B.jpg","null","",NA,NA,NA,NA,""
"image-keyboard-response",533,384600,"0.0-4.173-2.173","7tpzu16bj8n8fd2",958,"21.csv","","null","resources/images/fishbone.png","null","",NA,NA,NA,NA,""
"image-keyboard-response",534,384830,"0.0-4.174-0.174","7tpzu16bj8n8fd2",958,"21.csv","","228.70000004768372","resources/trios/L1T2A3.jpg","37","restless",0.1,0.6,0.6,0.547681543289102,"false"
"image-keyboard-response",535,385241,"0.0-4.174-1.174","7tpzu16bj8n8fd2",958,"21.csv","","null","resources/maskTrios/L1BB.jpg","null","",NA,NA,NA,NA,""
"image-keyboard-response",536,386452,"0.0-4.174-2.174","7tpzu16bj8n8fd2",958,"21.csv","","null","resources/images/fishbone.png","null","",NA,NA,NA,NA,""
"image-keyboard-response",537,386722,"0.0-4.175-0.175","7tpzu16bj8n8fd2",958,"21.csv","","268.7999999523163","resources/trios/L1T2A3.jpg","37","restless",0.1,0.5,0.6,0.925012267355061,"false"
"image-keyboard-response",538,387138,"0.0-4.175-1.175","7tpzu16bj8n8fd2",958,"21.csv","","null","resources/maskTrios/L1BB.jpg","null","",NA,NA,NA,NA,""
"image-keyboard-response",539,388350,"0.0-4.175-2.175","7tpzu16bj8n8fd2",958,"21.csv","","null","resources/images/fishbone.png","null","",NA,NA,NA,NA,""
"image-keyboard-response",540,388702,"0.0-4.176-0.176","7tpzu16bj8n8fd2",958,"21.csv","","351.2999999523163","resources/trios/L1T2A3.jpg","37","restless",0.1,0.5,0.6,0.806795663331791,"false"
"image-keyboard-response",541,389110,"0.0-4.176-1.176","7tpzu16bj8n8fd2",958,"21.csv","","null","resources/maskTrios/L1BB.jpg","null","",NA,NA,NA,NA,""
"image-keyboard-response",542,390320,"0.0-4.176-2.176","7tpzu16bj8n8fd2",958,"21.csv","","null","resources/images/fishbone.png","null","",NA,NA,NA,NA,""
"image-keyboard-response",543,390599,"0.0-4.177-0.177","7tpzu16bj8n8fd2",958,"21.csv","","277.39999985694885","resources/trios/L1T2A3.jpg","37","restless",0.1,0.5,0.6,0.353486434784748,"false"
"image-keyboard-response",544,391004,"0.0-4.177-1.177","7tpzu16bj8n8fd2",958,"21.csv","","null","resources/maskTrios/L1BB.jpg","null","",NA,NA,NA,NA,""
"image-keyboard-response",545,392216,"0.0-4.177-2.177","7tpzu16bj8n8fd2",958,"21.csv","","null","resources/images/fishbone.png","null","",NA,NA,NA,NA,""
"image-keyboard-response",546,392511,"0.0-4.178-0.178","7tpzu16bj8n8fd2",958,"21.csv","","293.19999980926514","resources/trios/L1T2A3.jpg","37","restless",0.1,0.5,0.6,0.369267411987526,"false"
"image-keyboard-response",547,392929,"0.0-4.178-1.178","7tpzu16bj8n8fd2",958,"21.csv","","null","resources/maskTrios/L1BB.jpg","null","",NA,NA,NA,NA,""
"image-keyboard-response",548,394144,"0.0-4.178-2.178","7tpzu16bj8n8fd2",958,"21.csv","","null","resources/images/fishbone.png","null","",NA,NA,NA,NA,""
"image-keyboard-response",549,394380,"0.0-4.179-0.179","7tpzu16bj8n8fd2",958,"21.csv","","235.10000014305115","resources/trios/L1T2A3.jpg","38","restless",0.2,0.5,0.6,0.0796769120735303,"true"
"image-keyboard-response",550,394796,"0.0-4.179-1.179","7tpzu16bj8n8fd2",958,"21.csv","","null","resources/maskTrios/BT2B.jpg","null","",NA,NA,NA,NA,""
"image-keyboard-response",551,396008,"0.0-4.179-2.179","7tpzu16bj8n8fd2",958,"21.csv","","null","resources/images/coin2.png","null","",NA,NA,NA,NA,""
"image-keyboard-response",552,396251,"0.0-4.180-0.180","7tpzu16bj8n8fd2",958,"21.csv","","240.90000009536743","resources/trios/L1T2A3.jpg","38","restless",0.2,0.5,0.7,0.776602641271063,"false"
"image-keyboard-response",553,396662,"0.0-4.180-1.180","7tpzu16bj8n8fd2",958,"21.csv","","null","resources/maskTrios/BT2B.jpg","null","",NA,NA,NA,NA,""
"image-keyboard-response",554,397876,"0.0-4.180-2.180","7tpzu16bj8n8fd2",958,"21.csv","","null","resources/images/fishbone.png","null","",NA,NA,NA,NA,""
"image-keyboard-response",555,398054,"0.0-4.181-0.181","7tpzu16bj8n8fd2",958,"21.csv","","175.89999985694885","resources/trios/L1T2A3.jpg","38","restless",0.2,0.5,0.7,0.383993923149592,"true"
"image-keyboard-response",556,398464,"0.0-4.181-1.181","7tpzu16bj8n8fd2",958,"21.csv","","null","resources/maskTrios/BT2B.jpg","null","",NA,NA,NA,NA,""
"image-keyboard-response",557,399677,"0.0-4.181-2.181","7tpzu16bj8n8fd2",958,"21.csv","","null","resources/images/coin2.png","null","",NA,NA,NA,NA,""
"image-keyboard-response",558,399872,"0.0-4.182-0.182","7tpzu16bj8n8fd2",958,"21.csv","","193","resources/trios/L1T2A3.jpg","38","restless",0.2,0.5,0.7,0.600747791366841,"false"
"image-keyboard-response",559,400282,"0.0-4.182-1.182","7tpzu16bj8n8fd2",958,"21.csv","","null","resources/maskTrios/BT2B.jpg","null","",NA,NA,NA,NA,""
"image-keyboard-response",560,401491,"0.0-4.182-2.182","7tpzu16bj8n8fd2",958,"21.csv","","null","resources/images/fishbone.png","null","",NA,NA,NA,NA,""
"image-keyboard-response",561,401915,"0.0-4.183-0.183","7tpzu16bj8n8fd2",958,"21.csv","","423","resources/trios/L1T2A3.jpg","38","restless",0.2,0.5,0.7,0.712068607026263,"false"
"image-keyboard-response",562,402328,"0.0-4.183-1.183","7tpzu16bj8n8fd2",958,"21.csv","","null","resources/maskTrios/BT2B.jpg","null","",NA,NA,NA,NA,""
"image-keyboard-response",563,403537,"0.0-4.183-2.183","7tpzu16bj8n8fd2",958,"21.csv","","null","resources/images/fishbone.png","null","",NA,NA,NA,NA,""
"image-keyboard-response",564,403746,"0.0-4.184-0.184","7tpzu16bj8n8fd2",958,"21.csv","","208.30000019073486","resources/trios/L1T2A3.jpg","39","restless",0.2,0.5,0.7,0.385045426376007,"true"
"image-keyboard-response",565,404161,"0.0-4.184-1.184","7tpzu16bj8n8fd2",958,"21.csv","","null","resources/maskTrios/BBA3.jpg","null","",NA,NA,NA,NA,""
"image-keyboard-response",566,405369,"0.0-4.184-2.184","7tpzu16bj8n8fd2",958,"21.csv","","null","resources/images/coin2.png","null","",NA,NA,NA,NA,""
"image-keyboard-response",567,405604,"0.0-4.185-0.185","7tpzu16bj8n8fd2",958,"21.csv","","231.69999980926514","resources/trios/L1T2A3.jpg","39","restless",0.2,0.5,0.6,0.884536422700439,"false"
"image-keyboard-response",568,406022,"0.0-4.185-1.185","7tpzu16bj8n8fd2",958,"21.csv","","null","resources/maskTrios/BBA3.jpg","null","",NA,NA,NA,NA,""
"image-keyboard-response",569,407237,"0.0-4.185-2.185","7tpzu16bj8n8fd2",958,"21.csv","","null","resources/images/fishbone.png","null","",NA,NA,NA,NA,""
"image-keyboard-response",570,407496,"0.0-4.186-0.186","7tpzu16bj8n8fd2",958,"21.csv","","256","resources/trios/L1T2A3.jpg","39","restless",0.2,0.5,0.6,0.158897025938355,"true"
"image-keyboard-response",571,407905,"0.0-4.186-1.186","7tpzu16bj8n8fd2",958,"21.csv","","null","resources/maskTrios/BBA3.jpg","null","",NA,NA,NA,NA,""
"image-keyboard-response",572,409117,"0.0-4.186-2.186","7tpzu16bj8n8fd2",958,"21.csv","","null","resources/images/coin2.png","null","",NA,NA,NA,NA,""
"image-keyboard-response",573,409425,"0.0-4.187-0.187","7tpzu16bj8n8fd2",958,"21.csv","","304.90000009536743","resources/trios/L1T2A3.jpg","39","restless",0.3,0.5,0.6,0.281196271191943,"true"
"image-keyboard-response",574,409829,"0.0-4.187-1.187","7tpzu16bj8n8fd2",958,"21.csv","","null","resources/maskTrios/BBA3.jpg","null","",NA,NA,NA,NA,""
"image-keyboard-response",575,411045,"0.0-4.187-2.187","7tpzu16bj8n8fd2",958,"21.csv","","null","resources/images/coin2.png","null","",NA,NA,NA,NA,""
"image-keyboard-response",576,411287,"0.0-4.188-0.188","7tpzu16bj8n8fd2",958,"21.csv","","241.79999995231628","resources/trios/L1T2A3.jpg","39","restless",0.3,0.5,0.6,0.162584700266854,"true"
"image-keyboard-response",577,411698,"0.0-4.188-1.188","7tpzu16bj8n8fd2",958,"21.csv","","null","resources/maskTrios/BBA3.jpg","null","",NA,NA,NA,NA,""
"image-keyboard-response",578,412909,"0.0-4.188-2.188","7tpzu16bj8n8fd2",958,"21.csv","","null","resources/images/coin2.png","null","",NA,NA,NA,NA,""
"image-keyboard-response",579,413123,"0.0-4.189-0.189","7tpzu16bj8n8fd2",958,"21.csv","","212","resources/trios/L1T2A3.jpg","39","restless",0.3,0.5,0.6,0.671548123299691,"false"
"image-keyboard-response",580,413530,"0.0-4.189-1.189","7tpzu16bj8n8fd2",958,"21.csv","","null","resources/maskTrios/BBA3.jpg","null","",NA,NA,NA,NA,""
"image-keyboard-response",581,414742,"0.0-4.189-2.189","7tpzu16bj8n8fd2",958,"21.csv","","null","resources/images/fishbone.png","null","",NA,NA,NA,NA,""
"image-keyboard-response",582,414955,"0.0-4.190-0.190","7tpzu16bj8n8fd2",958,"21.csv","","211.69999980926514","resources/trios/L1T2A3.jpg","37","restless",0.3,0.5,0.6,0.0286171270355209,"true"
"image-keyboard-response",583,415364,"0.0-4.190-1.190","7tpzu16bj8n8fd2",958,"21.csv","","null","resources/maskTrios/L1BB.jpg","null","",NA,NA,NA,NA,""
"image-keyboard-response",584,416574,"0.0-4.190-2.190","7tpzu16bj8n8fd2",958,"21.csv","","null","resources/images/coin2.png","null","",NA,NA,NA,NA,""
"image-keyboard-response",585,416802,"0.0-4.191-0.191","7tpzu16bj8n8fd2",958,"21.csv","","226.20000004768372","resources/trios/L1T2A3.jpg","37","restless",0.3,0.5,0.6,0.396006780815627,"false"
"image-keyboard-response",586,417209,"0.0-4.191-1.191","7tpzu16bj8n8fd2",958,"21.csv","","null","resources/maskTrios/L1BB.jpg","null","",NA,NA,NA,NA,""
"image-keyboard-response",587,418420,"0.0-4.191-2.191","7tpzu16bj8n8fd2",958,"21.csv","","null","resources/images/fishbone.png","null","",NA,NA,NA,NA,""
"image-keyboard-response",588,418584,"0.0-4.192-0.192","7tpzu16bj8n8fd2",958,"21.csv","","161.5","resources/trios/L1T2A3.jpg","37","restless",0.3,0.5,0.6,0.327797346219099,"false"
"image-keyboard-response",589,418995,"0.0-4.192-1.192","7tpzu16bj8n8fd2",958,"21.csv","","null","resources/maskTrios/L1BB.jpg","null","",NA,NA,NA,NA,""
"image-keyboard-response",590,420210,"0.0-4.192-2.192","7tpzu16bj8n8fd2",958,"21.csv","","null","resources/images/fishbone.png","null","",NA,NA,NA,NA,""
"image-keyboard-response",591,420423,"0.0-4.193-0.193","7tpzu16bj8n8fd2",958,"21.csv","","211.29999995231628","resources/trios/L1T2A3.jpg","38","restless",0.3,0.5,0.6,0.136566768357225,"true"
"image-keyboard-response",592,420836,"0.0-4.193-1.193","7tpzu16bj8n8fd2",958,"21.csv","","null","resources/maskTrios/BT2B.jpg","null","",NA,NA,NA,NA,""
"image-keyboard-response",593,422054,"0.0-4.193-2.193","7tpzu16bj8n8fd2",958,"21.csv","","null","resources/images/coin2.png","null","",NA,NA,NA,NA,""
"image-keyboard-response",594,422211,"0.0-4.194-0.194","7tpzu16bj8n8fd2",958,"21.csv","","154.79999995231628","resources/trios/L1T2A3.jpg","38","restless",0.4,0.5,0.6,0.243232051182516,"true"
"image-keyboard-response",595,422628,"0.0-4.194-1.194","7tpzu16bj8n8fd2",958,"21.csv","","null","resources/maskTrios/BT2B.jpg","null","",NA,NA,NA,NA,""
"image-keyboard-response",596,423831,"0.0-4.194-2.194","7tpzu16bj8n8fd2",958,"21.csv","","null","resources/images/coin2.png","null","",NA,NA,NA,NA,""
"image-keyboard-response",597,423977,"0.0-4.195-0.195","7tpzu16bj8n8fd2",958,"21.csv","","144.79999995231628","resources/trios/L1T2A3.jpg","38","restless",0.4,0.5,0.6,0.0894230176243644,"true"
"image-keyboard-response",598,424392,"0.0-4.195-1.195","7tpzu16bj8n8fd2",958,"21.csv","","null","resources/maskTrios/BT2B.jpg","null","",NA,NA,NA,NA,""
"image-keyboard-response",599,425601,"0.0-4.195-2.195","7tpzu16bj8n8fd2",958,"21.csv","","null","resources/images/coin2.png","null","",NA,NA,NA,NA,""
"image-keyboard-response",600,425886,"0.0-4.196-0.196","7tpzu16bj8n8fd2",958,"21.csv","","282.7000000476837","resources/trios/L1T2A3.jpg","38","restless",0.4,0.5,0.6,0.296887235277619,"true"
"image-keyboard-response",601,426302,"0.0-4.196-1.196","7tpzu16bj8n8fd2",958,"21.csv","","null","resources/maskTrios/BT2B.jpg","null","",NA,NA,NA,NA,""
"image-keyboard-response",602,427517,"0.0-4.196-2.196","7tpzu16bj8n8fd2",958,"21.csv","","null","resources/images/coin2.png","null","",NA,NA,NA,NA,""
"image-keyboard-response",603,427773,"0.0-4.197-0.197","7tpzu16bj8n8fd2",958,"21.csv","","252.79999995231628","resources/trios/L1T2A3.jpg","37","restless",0.4,0.5,0.6,0.679471594020467,"false"
"image-keyboard-response",604,428185,"0.0-4.197-1.197","7tpzu16bj8n8fd2",958,"21.csv","","null","resources/maskTrios/L1BB.jpg","null","",NA,NA,NA,NA,""
"image-keyboard-response",605,429396,"0.0-4.197-2.197","7tpzu16bj8n8fd2",958,"21.csv","","null","resources/images/fishbone.png","null","",NA,NA,NA,NA,""
"image-keyboard-response",606,429623,"0.0-4.198-0.198","7tpzu16bj8n8fd2",958,"21.csv","","224.90000009536743","resources/trios/L1T2A3.jpg","39","restless",0.4,0.5,0.6,0.119781156668759,"true"
"image-keyboard-response",607,430032,"0.0-4.198-1.198","7tpzu16bj8n8fd2",958,"21.csv","","null","resources/maskTrios/BBA3.jpg","null","",NA,NA,NA,NA,""
"image-keyboard-response",608,431245,"0.0-4.198-2.198","7tpzu16bj8n8fd2",958,"21.csv","","null","resources/images/coin2.png","null","",NA,NA,NA,NA,""
"image-keyboard-response",609,431575,"0.0-4.199-0.199","7tpzu16bj8n8fd2",958,"21.csv","","329.2000000476837","resources/trios/L1T2A3.jpg","38","restless",0.4,0.5,0.6,0.30436522827647,"true"
"image-keyboard-response",610,431993,"0.0-4.199-1.199","7tpzu16bj8n8fd2",958,"21.csv","","null","resources/maskTrios/BT2B.jpg","null","",NA,NA,NA,NA,""
"image-keyboard-response",611,433203,"0.0-4.199-2.199","7tpzu16bj8n8fd2",958,"21.csv","","null","resources/images/coin2.png","null","",NA,NA,NA,NA,""
