"trial_type","trial_index","time_elapsed","internal_node_id","subject","participantCode","walkNumber","success","rt","stimulus","key_press","test_part","leftProb","midProb","rightProb","generatedNum","correct"
"pavlovia",0,789,"0.0-0.0","zu6mn1j4qf0f22x",793,"75.csv","","","","","",NA,NA,NA,NA,""
"fullscreen",1,3817,"0.0-1.0","zu6mn1j4qf0f22x",793,"75.csv","true","","","","",NA,NA,NA,NA,""
"survey-html-form",2,17684,"0.0-2.0","zu6mn1j4qf0f22x",793,"75.csv","","13865.300000011921","","","",NA,NA,NA,NA,""
"image-keyboard-response",3,30509,"0.0-3.0-0.0","zu6mn1j4qf0f22x",793,"75.csv","","12823.199999988079","resources/images/parrot_nobg.png","13","",NA,NA,NA,NA,""
"image-keyboard-response",4,33516,"0.0-3.0-1.0","zu6mn1j4qf0f22x",793,"75.csv","","null","resources/image_sets/111.png","null","",NA,NA,NA,NA,""
"image-keyboard-response",5,37585,"0.0-3.0-2.0","zu6mn1j4qf0f22x",793,"75.csv","","4068","resources/image_sets/left_highlight.png","37","",NA,NA,NA,NA,""
"image-keyboard-response",6,42623,"0.0-3.0-3.0","zu6mn1j4qf0f22x",793,"75.csv","","5037.400000035763","resources/image_sets/mid_highlight.png","38","",NA,NA,NA,NA,""
"image-keyboard-response",7,46802,"0.0-3.0-4.0","zu6mn1j4qf0f22x",793,"75.csv","","4180.800000011921","resources/image_sets/right_highlight.png","39","",NA,NA,NA,NA,""
"image-keyboard-response",8,49127,"0.0-3.0-5.0","zu6mn1j4qf0f22x",793,"75.csv","","2323.699999988079","resources/image_sets/111.png","13","",NA,NA,NA,NA,""
"image-keyboard-response",9,51746,"0.0-3.0-6.0","zu6mn1j4qf0f22x",793,"75.csv","","2618.100000023842","resources/images/coin2.png","13","",NA,NA,NA,NA,""
"image-keyboard-response",10,56362,"0.0-3.0-7.0","zu6mn1j4qf0f22x",793,"75.csv","","4614.900000035763","resources/images/fishbone.png","13","",NA,NA,NA,NA,""
"html-keyboard-response",11,62663,"0.0-3.0-8.0","zu6mn1j4qf0f22x",793,"75.csv","","6300.899999976158","<p>You can track your coin total on the top right of your screen. </p><p>At the end of your journey you will be directed to a survey, so please click on the link before exiting the task</p><p>Press Enter to begin</p>","13","",NA,NA,NA,NA,""
"image-keyboard-response",12,65911,"0.0-4.0-0.0","zu6mn1j4qf0f22x",793,"75.csv","","3246.399999976158","resources/trios/L4T2A2.jpg","38","restless",0.9,0.3,0.7,0.430049197850186,"false"
"image-keyboard-response",13,66320,"0.0-4.0-1.0","zu6mn1j4qf0f22x",793,"75.csv","","null","resources/maskTrios/BT2B.jpg","null","",NA,NA,NA,NA,""
"image-keyboard-response",14,67532,"0.0-4.0-2.0","zu6mn1j4qf0f22x",793,"75.csv","","null","resources/images/fishbone.png","null","",NA,NA,NA,NA,""
"image-keyboard-response",15,68922,"0.0-4.1-0.1","zu6mn1j4qf0f22x",793,"75.csv","","1388.8999999761581","resources/trios/L4T2A2.jpg","37","restless",0.9,0.3,0.7,0.495480953858978,"true"
"image-keyboard-response",16,69334,"0.0-4.1-1.1","zu6mn1j4qf0f22x",793,"75.csv","","null","resources/maskTrios/L4BB.jpg","null","",NA,NA,NA,NA,""
"image-keyboard-response",17,70551,"0.0-4.1-2.1","zu6mn1j4qf0f22x",793,"75.csv","","null","resources/images/coin2.png","null","",NA,NA,NA,NA,""
"image-keyboard-response",18,71412,"0.0-4.2-0.2","zu6mn1j4qf0f22x",793,"75.csv","","859.8999999761581","resources/trios/L4T2A2.jpg","37","restless",0.9,0.3,0.7,0.341453512584411,"true"
"image-keyboard-response",19,71817,"0.0-4.2-1.2","zu6mn1j4qf0f22x",793,"75.csv","","null","resources/maskTrios/L4BB.jpg","null","",NA,NA,NA,NA,""
"image-keyboard-response",20,73027,"0.0-4.2-2.2","zu6mn1j4qf0f22x",793,"75.csv","","null","resources/images/coin2.png","null","",NA,NA,NA,NA,""
"image-keyboard-response",21,73665,"0.0-4.3-0.3","zu6mn1j4qf0f22x",793,"75.csv","","635.8999999761581","resources/trios/L4T2A2.jpg","37","restless",0.9,0.3,0.7,0.244010105813921,"true"
"image-keyboard-response",22,74071,"0.0-4.3-1.3","zu6mn1j4qf0f22x",793,"75.csv","","null","resources/maskTrios/L4BB.jpg","null","",NA,NA,NA,NA,""
"image-keyboard-response",23,75276,"0.0-4.3-2.3","zu6mn1j4qf0f22x",793,"75.csv","","null","resources/images/coin2.png","null","",NA,NA,NA,NA,""
"image-keyboard-response",24,76909,"0.0-4.4-0.4","zu6mn1j4qf0f22x",793,"75.csv","","1631.9000000357628","resources/trios/L4T2A2.jpg","37","restless",0.9,0.3,0.7,0.396265692706715,"true"
"image-keyboard-response",25,77318,"0.0-4.4-1.4","zu6mn1j4qf0f22x",793,"75.csv","","null","resources/maskTrios/L4BB.jpg","null","",NA,NA,NA,NA,""
"image-keyboard-response",26,78528,"0.0-4.4-2.4","zu6mn1j4qf0f22x",793,"75.csv","","null","resources/images/coin2.png","null","",NA,NA,NA,NA,""
"image-keyboard-response",27,79128,"0.0-4.5-0.5","zu6mn1j4qf0f22x",793,"75.csv","","598.9000000357628","resources/trios/L4T2A2.jpg","37","restless",0.9,0.3,0.7,0.455840824791399,"true"
"image-keyboard-response",28,79531,"0.0-4.5-1.5","zu6mn1j4qf0f22x",793,"75.csv","","null","resources/maskTrios/L4BB.jpg","null","",NA,NA,NA,NA,""
"image-keyboard-response",29,80744,"0.0-4.5-2.5","zu6mn1j4qf0f22x",793,"75.csv","","null","resources/images/coin2.png","null","",NA,NA,NA,NA,""
"image-keyboard-response",30,81292,"0.0-4.6-0.6","zu6mn1j4qf0f22x",793,"75.csv","","546.3000000119209","resources/trios/L4T2A2.jpg","37","restless",0.9,0.3,0.7,0.827277492481058,"true"
"image-keyboard-response",31,81696,"0.0-4.6-1.6","zu6mn1j4qf0f22x",793,"75.csv","","null","resources/maskTrios/L4BB.jpg","null","",NA,NA,NA,NA,""
"image-keyboard-response",32,82906,"0.0-4.6-2.6","zu6mn1j4qf0f22x",793,"75.csv","","null","resources/images/coin2.png","null","",NA,NA,NA,NA,""
"image-keyboard-response",33,83410,"0.0-4.7-0.7","zu6mn1j4qf0f22x",793,"75.csv","","503.10000002384186","resources/trios/L4T2A2.jpg","37","restless",0.9,0.3,0.7,0.424406535806783,"true"
"image-keyboard-response",34,83816,"0.0-4.7-1.7","zu6mn1j4qf0f22x",793,"75.csv","","null","resources/maskTrios/L4BB.jpg","null","",NA,NA,NA,NA,""
"image-keyboard-response",35,85031,"0.0-4.7-2.7","zu6mn1j4qf0f22x",793,"75.csv","","null","resources/images/coin2.png","null","",NA,NA,NA,NA,""
"image-keyboard-response",36,85498,"0.0-4.8-0.8","zu6mn1j4qf0f22x",793,"75.csv","","466.0999999642372","resources/trios/L4T2A2.jpg","37","restless",0.9,0.3,0.6,0.152546997642459,"true"
"image-keyboard-response",37,85903,"0.0-4.8-1.8","zu6mn1j4qf0f22x",793,"75.csv","","null","resources/maskTrios/L4BB.jpg","null","",NA,NA,NA,NA,""
"image-keyboard-response",38,87120,"0.0-4.8-2.8","zu6mn1j4qf0f22x",793,"75.csv","","null","resources/images/coin2.png","null","",NA,NA,NA,NA,""
"image-keyboard-response",39,87625,"0.0-4.9-0.9","zu6mn1j4qf0f22x",793,"75.csv","","503.69999998807907","resources/trios/L4T2A2.jpg","37","restless",0.9,0.3,0.6,0.470962078681476,"true"
"image-keyboard-response",40,88034,"0.0-4.9-1.9","zu6mn1j4qf0f22x",793,"75.csv","","null","resources/maskTrios/L4BB.jpg","null","",NA,NA,NA,NA,""
"image-keyboard-response",41,89237,"0.0-4.9-2.9","zu6mn1j4qf0f22x",793,"75.csv","","null","resources/images/coin2.png","null","",NA,NA,NA,NA,""
"image-keyboard-response",42,89775,"0.0-4.10-0.10","zu6mn1j4qf0f22x",793,"75.csv","","536.8999999761581","resources/trios/L4T2A2.jpg","37","restless",0.9,0.3,0.6,0.099574185840694,"true"
"image-keyboard-response",43,90180,"0.0-4.10-1.10","zu6mn1j4qf0f22x",793,"75.csv","","null","resources/maskTrios/L4BB.jpg","null","",NA,NA,NA,NA,""
"image-keyboard-response",44,91386,"0.0-4.10-2.10","zu6mn1j4qf0f22x",793,"75.csv","","null","resources/images/coin2.png","null","",NA,NA,NA,NA,""
"image-keyboard-response",45,92128,"0.0-4.11-0.11","zu6mn1j4qf0f22x",793,"75.csv","","741","resources/trios/L4T2A2.jpg","37","restless",0.9,0.3,0.6,0.537381781949247,"true"
"image-keyboard-response",46,92529,"0.0-4.11-1.11","zu6mn1j4qf0f22x",793,"75.csv","","null","resources/maskTrios/L4BB.jpg","null","",NA,NA,NA,NA,""
"image-keyboard-response",47,93734,"0.0-4.11-2.11","zu6mn1j4qf0f22x",793,"75.csv","","null","resources/images/coin2.png","null","",NA,NA,NA,NA,""
"image-keyboard-response",48,94397,"0.0-4.12-0.12","zu6mn1j4qf0f22x",793,"75.csv","","661.1000000238419","resources/trios/L4T2A2.jpg","37","restless",0.9,0.3,0.5,0.244212381700408,"true"
"image-keyboard-response",49,94800,"0.0-4.12-1.12","zu6mn1j4qf0f22x",793,"75.csv","","null","resources/maskTrios/L4BB.jpg","null","",NA,NA,NA,NA,""
"image-keyboard-response",50,96015,"0.0-4.12-2.12","zu6mn1j4qf0f22x",793,"75.csv","","null","resources/images/coin2.png","null","",NA,NA,NA,NA,""
"image-keyboard-response",51,96338,"0.0-4.13-0.13","zu6mn1j4qf0f22x",793,"75.csv","","322","resources/trios/L4T2A2.jpg","37","restless",0.9,0.3,0.5,0.58153260777005,"true"
"image-keyboard-response",52,96746,"0.0-4.13-1.13","zu6mn1j4qf0f22x",793,"75.csv","","null","resources/maskTrios/L4BB.jpg","null","",NA,NA,NA,NA,""
"image-keyboard-response",53,97955,"0.0-4.13-2.13","zu6mn1j4qf0f22x",793,"75.csv","","null","resources/images/coin2.png","null","",NA,NA,NA,NA,""
"image-keyboard-response",54,98445,"0.0-4.14-0.14","zu6mn1j4qf0f22x",793,"75.csv","","489","resources/trios/L4T2A2.jpg","37","restless",0.9,0.3,0.5,0.380588160804996,"true"
"image-keyboard-response",55,98858,"0.0-4.14-1.14","zu6mn1j4qf0f22x",793,"75.csv","","null","resources/maskTrios/L4BB.jpg","null","",NA,NA,NA,NA,""
"image-keyboard-response",56,100067,"0.0-4.14-2.14","zu6mn1j4qf0f22x",793,"75.csv","","null","resources/images/coin2.png","null","",NA,NA,NA,NA,""
"image-keyboard-response",57,100529,"0.0-4.15-0.15","zu6mn1j4qf0f22x",793,"75.csv","","460.5","resources/trios/L4T2A2.jpg","37","restless",0.9,0.3,0.5,0.735774531724098,"true"
"image-keyboard-response",58,100942,"0.0-4.15-1.15","zu6mn1j4qf0f22x",793,"75.csv","","null","resources/maskTrios/L4BB.jpg","null","",NA,NA,NA,NA,""
"image-keyboard-response",59,102150,"0.0-4.15-2.15","zu6mn1j4qf0f22x",793,"75.csv","","null","resources/images/coin2.png","null","",NA,NA,NA,NA,""
"image-keyboard-response",60,102688,"0.0-4.16-0.16","zu6mn1j4qf0f22x",793,"75.csv","","536.6999999880791","resources/trios/L4T2A2.jpg","37","restless",0.9,0.3,0.5,0.964104158700784,"false"
"image-keyboard-response",61,103102,"0.0-4.16-1.16","zu6mn1j4qf0f22x",793,"75.csv","","null","resources/maskTrios/L4BB.jpg","null","",NA,NA,NA,NA,""
"image-keyboard-response",62,104314,"0.0-4.16-2.16","zu6mn1j4qf0f22x",793,"75.csv","","null","resources/images/fishbone.png","null","",NA,NA,NA,NA,""
"image-keyboard-response",63,105274,"0.0-4.17-0.17","zu6mn1j4qf0f22x",793,"75.csv","","959.0999999642372","resources/trios/L4T2A2.jpg","38","restless",0.9,0.3,0.5,0.51923696211177,"false"
"image-keyboard-response",64,105688,"0.0-4.17-1.17","zu6mn1j4qf0f22x",793,"75.csv","","null","resources/maskTrios/BT2B.jpg","null","",NA,NA,NA,NA,""
"image-keyboard-response",65,106908,"0.0-4.17-2.17","zu6mn1j4qf0f22x",793,"75.csv","","null","resources/images/fishbone.png","null","",NA,NA,NA,NA,""
"image-keyboard-response",66,107539,"0.0-4.18-0.18","zu6mn1j4qf0f22x",793,"75.csv","","630.6999999880791","resources/trios/L4T2A2.jpg","39","restless",0.9,0.3,0.5,0.280588070048022,"true"
"image-keyboard-response",67,107942,"0.0-4.18-1.18","zu6mn1j4qf0f22x",793,"75.csv","","null","resources/maskTrios/BBA2.jpg","null","",NA,NA,NA,NA,""
"image-keyboard-response",68,109147,"0.0-4.18-2.18","zu6mn1j4qf0f22x",793,"75.csv","","null","resources/images/coin2.png","null","",NA,NA,NA,NA,""
"image-keyboard-response",69,109573,"0.0-4.19-0.19","zu6mn1j4qf0f22x",793,"75.csv","","424.10000002384186","resources/trios/L4T2A2.jpg","39","restless",0.9,0.3,0.5,0.162978865785346,"true"
"image-keyboard-response",70,109979,"0.0-4.19-1.19","zu6mn1j4qf0f22x",793,"75.csv","","null","resources/maskTrios/BBA2.jpg","null","",NA,NA,NA,NA,""
"image-keyboard-response",71,111193,"0.0-4.19-2.19","zu6mn1j4qf0f22x",793,"75.csv","","null","resources/images/coin2.png","null","",NA,NA,NA,NA,""
"image-keyboard-response",72,111549,"0.0-4.20-0.20","zu6mn1j4qf0f22x",793,"75.csv","","355.5999999642372","resources/trios/L4T2A2.jpg","39","restless",0.9,0.3,0.5,0.57110428001743,"false"
"image-keyboard-response",73,111964,"0.0-4.20-1.20","zu6mn1j4qf0f22x",793,"75.csv","","null","resources/maskTrios/BBA2.jpg","null","",NA,NA,NA,NA,""
"image-keyboard-response",74,113169,"0.0-4.20-2.20","zu6mn1j4qf0f22x",793,"75.csv","","null","resources/images/fishbone.png","null","",NA,NA,NA,NA,""
"image-keyboard-response",75,113819,"0.0-4.21-0.21","zu6mn1j4qf0f22x",793,"75.csv","","649.1999999880791","resources/trios/L4T2A2.jpg","38","restless",0.9,0.3,0.5,0.337963845402385,"false"
"image-keyboard-response",76,114225,"0.0-4.21-1.21","zu6mn1j4qf0f22x",793,"75.csv","","null","resources/maskTrios/BT2B.jpg","null","",NA,NA,NA,NA,""
"image-keyboard-response",77,115442,"0.0-4.21-2.21","zu6mn1j4qf0f22x",793,"75.csv","","null","resources/images/fishbone.png","null","",NA,NA,NA,NA,""
"image-keyboard-response",78,115825,"0.0-4.22-0.22","zu6mn1j4qf0f22x",793,"75.csv","","382.5999999642372","resources/trios/L4T2A2.jpg","37","restless",0.9,0.3,0.5,0.526431017043945,"true"
"image-keyboard-response",79,116239,"0.0-4.22-1.22","zu6mn1j4qf0f22x",793,"75.csv","","null","resources/maskTrios/L4BB.jpg","null","",NA,NA,NA,NA,""
"image-keyboard-response",80,117442,"0.0-4.22-2.22","zu6mn1j4qf0f22x",793,"75.csv","","null","resources/images/coin2.png","null","",NA,NA,NA,NA,""
"image-keyboard-response",81,118273,"0.0-4.23-0.23","zu6mn1j4qf0f22x",793,"75.csv","","829.1999999880791","resources/trios/L4T2A2.jpg","37","restless",0.9,0.3,0.5,0.388136472734721,"true"
"image-keyboard-response",82,118676,"0.0-4.23-1.23","zu6mn1j4qf0f22x",793,"75.csv","","null","resources/maskTrios/L4BB.jpg","null","",NA,NA,NA,NA,""
"image-keyboard-response",83,119884,"0.0-4.23-2.23","zu6mn1j4qf0f22x",793,"75.csv","","null","resources/images/coin2.png","null","",NA,NA,NA,NA,""
"image-keyboard-response",84,120326,"0.0-4.24-0.24","zu6mn1j4qf0f22x",793,"75.csv","","440.19999998807907","resources/trios/L4T2A2.jpg","37","restless",0.9,0.4,0.5,0.903725760692191,"false"
"image-keyboard-response",85,120739,"0.0-4.24-1.24","zu6mn1j4qf0f22x",793,"75.csv","","null","resources/maskTrios/L4BB.jpg","null","",NA,NA,NA,NA,""
"image-keyboard-response",86,121949,"0.0-4.24-2.24","zu6mn1j4qf0f22x",793,"75.csv","","null","resources/images/fishbone.png","null","",NA,NA,NA,NA,""
"image-keyboard-response",87,122453,"0.0-4.25-0.25","zu6mn1j4qf0f22x",793,"75.csv","","502.9000000357628","resources/trios/L4T2A2.jpg","38","restless",0.9,0.5,0.5,0.902176468435054,"false"
"image-keyboard-response",88,122855,"0.0-4.25-1.25","zu6mn1j4qf0f22x",793,"75.csv","","null","resources/maskTrios/BT2B.jpg","null","",NA,NA,NA,NA,""
"image-keyboard-response",89,124068,"0.0-4.25-2.25","zu6mn1j4qf0f22x",793,"75.csv","","null","resources/images/fishbone.png","null","",NA,NA,NA,NA,""
"image-keyboard-response",90,124626,"0.0-4.26-0.26","zu6mn1j4qf0f22x",793,"75.csv","","557.1999999880791","resources/trios/L4T2A2.jpg","39","restless",0.9,0.5,0.5,0.600231818410268,"false"
"image-keyboard-response",91,125037,"0.0-4.26-1.26","zu6mn1j4qf0f22x",793,"75.csv","","null","resources/maskTrios/BBA2.jpg","null","",NA,NA,NA,NA,""
"image-keyboard-response",92,126248,"0.0-4.26-2.26","zu6mn1j4qf0f22x",793,"75.csv","","null","resources/images/fishbone.png","null","",NA,NA,NA,NA,""
"image-keyboard-response",93,127075,"0.0-4.27-0.27","zu6mn1j4qf0f22x",793,"75.csv","","825.5999999642372","resources/trios/L4T2A2.jpg","37","restless",0.9,0.6,0.5,0.715265102715223,"true"
"image-keyboard-response",94,127487,"0.0-4.27-1.27","zu6mn1j4qf0f22x",793,"75.csv","","null","resources/maskTrios/L4BB.jpg","null","",NA,NA,NA,NA,""
"image-keyboard-response",95,128696,"0.0-4.27-2.27","zu6mn1j4qf0f22x",793,"75.csv","","null","resources/images/coin2.png","null","",NA,NA,NA,NA,""
"image-keyboard-response",96,129586,"0.0-4.28-0.28","zu6mn1j4qf0f22x",793,"75.csv","","888.3000000119209","resources/trios/L4T2A2.jpg","37","restless",0.9,0.6,0.5,0.43162218777025,"true"
"image-keyboard-response",97,130001,"0.0-4.28-1.28","zu6mn1j4qf0f22x",793,"75.csv","","null","resources/maskTrios/L4BB.jpg","null","",NA,NA,NA,NA,""
"image-keyboard-response",98,131210,"0.0-4.28-2.28","zu6mn1j4qf0f22x",793,"75.csv","","null","resources/images/coin2.png","null","",NA,NA,NA,NA,""
"image-keyboard-response",99,131693,"0.0-4.29-0.29","zu6mn1j4qf0f22x",793,"75.csv","","481.9000000357628","resources/trios/L4T2A2.jpg","37","restless",0.9,0.6,0.5,0.142033924469877,"true"
"image-keyboard-response",100,132105,"0.0-4.29-1.29","zu6mn1j4qf0f22x",793,"75.csv","","null","resources/maskTrios/L4BB.jpg","null","",NA,NA,NA,NA,""
"image-keyboard-response",101,133310,"0.0-4.29-2.29","zu6mn1j4qf0f22x",793,"75.csv","","null","resources/images/coin2.png","null","",NA,NA,NA,NA,""
"image-keyboard-response",102,133901,"0.0-4.30-0.30","zu6mn1j4qf0f22x",793,"75.csv","","589.5","resources/trios/L4T2A2.jpg","37","restless",0.9,0.6,0.5,0.850493561580832,"true"
"image-keyboard-response",103,134302,"0.0-4.30-1.30","zu6mn1j4qf0f22x",793,"75.csv","","null","resources/maskTrios/L4BB.jpg","null","",NA,NA,NA,NA,""
"image-keyboard-response",104,135506,"0.0-4.30-2.30","zu6mn1j4qf0f22x",793,"75.csv","","null","resources/images/coin2.png","null","",NA,NA,NA,NA,""
"image-keyboard-response",105,136059,"0.0-4.31-0.31","zu6mn1j4qf0f22x",793,"75.csv","","551.1999999880791","resources/trios/L4T2A2.jpg","37","restless",0.9,0.7,0.5,0.545021647645619,"true"
"image-keyboard-response",106,136468,"0.0-4.31-1.31","zu6mn1j4qf0f22x",793,"75.csv","","null","resources/maskTrios/L4BB.jpg","null","",NA,NA,NA,NA,""
"image-keyboard-response",107,137680,"0.0-4.31-2.31","zu6mn1j4qf0f22x",793,"75.csv","","null","resources/images/coin2.png","null","",NA,NA,NA,NA,""
"image-keyboard-response",108,138201,"0.0-4.32-0.32","zu6mn1j4qf0f22x",793,"75.csv","","520.5","resources/trios/L4T2A2.jpg","37","restless",0.9,0.7,0.5,0.762272015597238,"true"
"image-keyboard-response",109,138604,"0.0-4.32-1.32","zu6mn1j4qf0f22x",793,"75.csv","","null","resources/maskTrios/L4BB.jpg","null","",NA,NA,NA,NA,""
"image-keyboard-response",110,139806,"0.0-4.32-2.32","zu6mn1j4qf0f22x",793,"75.csv","","null","resources/images/coin2.png","null","",NA,NA,NA,NA,""
"image-keyboard-response",111,140196,"0.0-4.33-0.33","zu6mn1j4qf0f22x",793,"75.csv","","389.10000002384186","resources/trios/L4T2A2.jpg","37","restless",0.9,0.7,0.5,0.762986188788422,"true"
"image-keyboard-response",112,140599,"0.0-4.33-1.33","zu6mn1j4qf0f22x",793,"75.csv","","null","resources/maskTrios/L4BB.jpg","null","",NA,NA,NA,NA,""
"image-keyboard-response",113,141809,"0.0-4.33-2.33","zu6mn1j4qf0f22x",793,"75.csv","","null","resources/images/coin2.png","null","",NA,NA,NA,NA,""
"image-keyboard-response",114,142119,"0.0-4.34-0.34","zu6mn1j4qf0f22x",793,"75.csv","","308.80000001192093","resources/trios/L4T2A2.jpg","37","restless",0.9,0.8,0.5,0.448813784943848,"true"
"image-keyboard-response",115,142535,"0.0-4.34-1.34","zu6mn1j4qf0f22x",793,"75.csv","","null","resources/maskTrios/L4BB.jpg","null","",NA,NA,NA,NA,""
"image-keyboard-response",116,143740,"0.0-4.34-2.34","zu6mn1j4qf0f22x",793,"75.csv","","null","resources/images/coin2.png","null","",NA,NA,NA,NA,""
"image-keyboard-response",117,144025,"0.0-4.35-0.35","zu6mn1j4qf0f22x",793,"75.csv","","284.4000000357628","resources/trios/L4T2A2.jpg","37","restless",0.9,0.8,0.5,0.0312402336915272,"true"
"image-keyboard-response",118,144430,"0.0-4.35-1.35","zu6mn1j4qf0f22x",793,"75.csv","","null","resources/maskTrios/L4BB.jpg","null","",NA,NA,NA,NA,""
"image-keyboard-response",119,145642,"0.0-4.35-2.35","zu6mn1j4qf0f22x",793,"75.csv","","null","resources/images/coin2.png","null","",NA,NA,NA,NA,""
"image-keyboard-response",120,145951,"0.0-4.36-0.36","zu6mn1j4qf0f22x",793,"75.csv","","307.80000001192093","resources/trios/L4T2A2.jpg","37","restless",0.9,0.9,0.5,0.497866553992327,"true"
"image-keyboard-response",121,146365,"0.0-4.36-1.36","zu6mn1j4qf0f22x",793,"75.csv","","null","resources/maskTrios/L4BB.jpg","null","",NA,NA,NA,NA,""
"image-keyboard-response",122,147577,"0.0-4.36-2.36","zu6mn1j4qf0f22x",793,"75.csv","","null","resources/images/coin2.png","null","",NA,NA,NA,NA,""
"image-keyboard-response",123,147983,"0.0-4.37-0.37","zu6mn1j4qf0f22x",793,"75.csv","","404.80000001192093","resources/trios/L4T2A2.jpg","37","restless",0.9,0.9,0.5,0.354440540632792,"true"
"image-keyboard-response",124,148396,"0.0-4.37-1.37","zu6mn1j4qf0f22x",793,"75.csv","","null","resources/maskTrios/L4BB.jpg","null","",NA,NA,NA,NA,""
"image-keyboard-response",125,149604,"0.0-4.37-2.37","zu6mn1j4qf0f22x",793,"75.csv","","null","resources/images/coin2.png","null","",NA,NA,NA,NA,""
"image-keyboard-response",126,150117,"0.0-4.38-0.38","zu6mn1j4qf0f22x",793,"75.csv","","512.6999999880791","resources/trios/L4T2A2.jpg","37","restless",0.9,0.9,0.5,0.558725938240647,"true"
"image-keyboard-response",127,150528,"0.0-4.38-1.38","zu6mn1j4qf0f22x",793,"75.csv","","null","resources/maskTrios/L4BB.jpg","null","",NA,NA,NA,NA,""
"image-keyboard-response",128,151738,"0.0-4.38-2.38","zu6mn1j4qf0f22x",793,"75.csv","","null","resources/images/coin2.png","null","",NA,NA,NA,NA,""
"image-keyboard-response",129,152363,"0.0-4.39-0.39","zu6mn1j4qf0f22x",793,"75.csv","","623.6000000238419","resources/trios/L4T2A2.jpg","37","restless",0.9,0.8,0.5,0.466567648426868,"true"
"image-keyboard-response",130,152779,"0.0-4.39-1.39","zu6mn1j4qf0f22x",793,"75.csv","","null","resources/maskTrios/L4BB.jpg","null","",NA,NA,NA,NA,""
"image-keyboard-response",131,153994,"0.0-4.39-2.39","zu6mn1j4qf0f22x",793,"75.csv","","null","resources/images/coin2.png","null","",NA,NA,NA,NA,""
"image-keyboard-response",132,154291,"0.0-4.40-0.40","zu6mn1j4qf0f22x",793,"75.csv","","295.7000000476837","resources/trios/L4T2A2.jpg","37","restless",0.9,0.8,0.4,0.114458718035563,"true"
"image-keyboard-response",133,154698,"0.0-4.40-1.40","zu6mn1j4qf0f22x",793,"75.csv","","null","resources/maskTrios/L4BB.jpg","null","",NA,NA,NA,NA,""
"image-keyboard-response",134,155904,"0.0-4.40-2.40","zu6mn1j4qf0f22x",793,"75.csv","","null","resources/images/coin2.png","null","",NA,NA,NA,NA,""
"image-keyboard-response",135,156174,"0.0-4.41-0.41","zu6mn1j4qf0f22x",793,"75.csv","","269.30000001192093","resources/trios/L4T2A2.jpg","37","restless",0.9,0.8,0.4,0.645964330715582,"true"
"image-keyboard-response",136,156580,"0.0-4.41-1.41","zu6mn1j4qf0f22x",793,"75.csv","","null","resources/maskTrios/L4BB.jpg","null","",NA,NA,NA,NA,""
"image-keyboard-response",137,157790,"0.0-4.41-2.41","zu6mn1j4qf0f22x",793,"75.csv","","null","resources/images/coin2.png","null","",NA,NA,NA,NA,""
"image-keyboard-response",138,158114,"0.0-4.42-0.42","zu6mn1j4qf0f22x",793,"75.csv","","322.80000001192093","resources/trios/L4T2A2.jpg","37","restless",0.9,0.8,0.4,0.89220312354402,"true"
"image-keyboard-response",139,158528,"0.0-4.42-1.42","zu6mn1j4qf0f22x",793,"75.csv","","null","resources/maskTrios/L4BB.jpg","null","",NA,NA,NA,NA,""
"image-keyboard-response",140,159740,"0.0-4.42-2.42","zu6mn1j4qf0f22x",793,"75.csv","","null","resources/images/coin2.png","null","",NA,NA,NA,NA,""
"image-keyboard-response",141,159971,"0.0-4.43-0.43","zu6mn1j4qf0f22x",793,"75.csv","","229.39999997615814","resources/trios/L4T2A2.jpg","37","restless",0.9,0.7,0.4,0.83629208768377,"true"
"image-keyboard-response",142,160378,"0.0-4.43-1.43","zu6mn1j4qf0f22x",793,"75.csv","","null","resources/maskTrios/L4BB.jpg","null","",NA,NA,NA,NA,""
"image-keyboard-response",143,161588,"0.0-4.43-2.43","zu6mn1j4qf0f22x",793,"75.csv","","null","resources/images/coin2.png","null","",NA,NA,NA,NA,""
"image-keyboard-response",144,162004,"0.0-4.44-0.44","zu6mn1j4qf0f22x",793,"75.csv","","415","resources/trios/L4T2A2.jpg","37","restless",0.9,0.7,0.4,0.908863016368437,"false"
"image-keyboard-response",145,162408,"0.0-4.44-1.44","zu6mn1j4qf0f22x",793,"75.csv","","null","resources/maskTrios/L4BB.jpg","null","",NA,NA,NA,NA,""
"image-keyboard-response",146,163616,"0.0-4.44-2.44","zu6mn1j4qf0f22x",793,"75.csv","","null","resources/images/fishbone.png","null","",NA,NA,NA,NA,""
"image-keyboard-response",147,164319,"0.0-4.45-0.45","zu6mn1j4qf0f22x",793,"75.csv","","701.8999999761581","resources/trios/L4T2A2.jpg","39","restless",0.8,0.7,0.4,0.828324552623898,"false"
"image-keyboard-response",148,164731,"0.0-4.45-1.45","zu6mn1j4qf0f22x",793,"75.csv","","null","resources/maskTrios/BBA2.jpg","null","",NA,NA,NA,NA,""
"image-keyboard-response",149,165943,"0.0-4.45-2.45","zu6mn1j4qf0f22x",793,"75.csv","","null","resources/images/fishbone.png","null","",NA,NA,NA,NA,""
"image-keyboard-response",150,166303,"0.0-4.46-0.46","zu6mn1j4qf0f22x",793,"75.csv","","359","resources/trios/L4T2A2.jpg","38","restless",0.8,0.7,0.4,0.471180414690403,"true"
"image-keyboard-response",151,166707,"0.0-4.46-1.46","zu6mn1j4qf0f22x",793,"75.csv","","null","resources/maskTrios/BT2B.jpg","null","",NA,NA,NA,NA,""
"image-keyboard-response",152,167921,"0.0-4.46-2.46","zu6mn1j4qf0f22x",793,"75.csv","","null","resources/images/coin2.png","null","",NA,NA,NA,NA,""
"image-keyboard-response",153,168198,"0.0-4.47-0.47","zu6mn1j4qf0f22x",793,"75.csv","","275.9000000357628","resources/trios/L4T2A2.jpg","38","restless",0.8,0.7,0.4,0.105602038584972,"true"
"image-keyboard-response",154,168612,"0.0-4.47-1.47","zu6mn1j4qf0f22x",793,"75.csv","","null","resources/maskTrios/BT2B.jpg","null","",NA,NA,NA,NA,""
"image-keyboard-response",155,169821,"0.0-4.47-2.47","zu6mn1j4qf0f22x",793,"75.csv","","null","resources/images/coin2.png","null","",NA,NA,NA,NA,""
"image-keyboard-response",156,170006,"0.0-4.48-0.48","zu6mn1j4qf0f22x",793,"75.csv","","184.30000001192093","resources/trios/L4T2A2.jpg","38","restless",0.8,0.7,0.4,0.204391638054708,"true"
"image-keyboard-response",157,170423,"0.0-4.48-1.48","zu6mn1j4qf0f22x",793,"75.csv","","null","resources/maskTrios/BT2B.jpg","null","",NA,NA,NA,NA,""
"image-keyboard-response",158,171638,"0.0-4.48-2.48","zu6mn1j4qf0f22x",793,"75.csv","","null","resources/images/coin2.png","null","",NA,NA,NA,NA,""
"image-keyboard-response",159,171739,"0.0-4.49-0.49","zu6mn1j4qf0f22x",793,"75.csv","","100","resources/trios/L4T2A2.jpg","38","restless",0.8,0.7,0.5,0.909495807535966,"false"
"image-keyboard-response",160,172144,"0.0-4.49-1.49","zu6mn1j4qf0f22x",793,"75.csv","","null","resources/maskTrios/BT2B.jpg","null","",NA,NA,NA,NA,""
"image-keyboard-response",161,173356,"0.0-4.49-2.49","zu6mn1j4qf0f22x",793,"75.csv","","null","resources/images/fishbone.png","null","",NA,NA,NA,NA,""
"image-keyboard-response",162,173816,"0.0-4.50-0.50","zu6mn1j4qf0f22x",793,"75.csv","","458.10000002384186","resources/trios/L4T2A2.jpg","39","restless",0.8,0.7,0.5,0.571533135808494,"false"
"image-keyboard-response",163,174225,"0.0-4.50-1.50","zu6mn1j4qf0f22x",793,"75.csv","","null","resources/maskTrios/BBA2.jpg","null","",NA,NA,NA,NA,""
"image-keyboard-response",164,175434,"0.0-4.50-2.50","zu6mn1j4qf0f22x",793,"75.csv","","null","resources/images/fishbone.png","null","",NA,NA,NA,NA,""
"image-keyboard-response",165,175788,"0.0-4.51-0.51","zu6mn1j4qf0f22x",793,"75.csv","","352.69999998807907","resources/trios/L4T2A2.jpg","37","restless",0.8,0.7,0.5,0.876738008198026,"false"
"image-keyboard-response",166,176195,"0.0-4.51-1.51","zu6mn1j4qf0f22x",793,"75.csv","","null","resources/maskTrios/L4BB.jpg","null","",NA,NA,NA,NA,""
"image-keyboard-response",167,177403,"0.0-4.51-2.51","zu6mn1j4qf0f22x",793,"75.csv","","null","resources/images/fishbone.png","null","",NA,NA,NA,NA,""
"image-keyboard-response",168,177710,"0.0-4.52-0.52","zu6mn1j4qf0f22x",793,"75.csv","","305.89999997615814","resources/trios/L4T2A2.jpg","38","restless",0.8,0.7,0.5,0.167498054516685,"true"
"image-keyboard-response",169,178122,"0.0-4.52-1.52","zu6mn1j4qf0f22x",793,"75.csv","","null","resources/maskTrios/BT2B.jpg","null","",NA,NA,NA,NA,""
"image-keyboard-response",170,179324,"0.0-4.52-2.52","zu6mn1j4qf0f22x",793,"75.csv","","null","resources/images/coin2.png","null","",NA,NA,NA,NA,""
"image-keyboard-response",171,179759,"0.0-4.53-0.53","zu6mn1j4qf0f22x",793,"75.csv","","433.9000000357628","resources/trios/L4T2A2.jpg","38","restless",0.8,0.7,0.5,0.670221571664503,"true"
"image-keyboard-response",172,180171,"0.0-4.53-1.53","zu6mn1j4qf0f22x",793,"75.csv","","null","resources/maskTrios/BT2B.jpg","null","",NA,NA,NA,NA,""
"image-keyboard-response",173,181385,"0.0-4.53-2.53","zu6mn1j4qf0f22x",793,"75.csv","","null","resources/images/coin2.png","null","",NA,NA,NA,NA,""
"image-keyboard-response",174,181726,"0.0-4.54-0.54","zu6mn1j4qf0f22x",793,"75.csv","","340.19999998807907","resources/trios/L4T2A2.jpg","38","restless",0.8,0.7,0.6,0.708523360765776,"false"
"image-keyboard-response",175,182143,"0.0-4.54-1.54","zu6mn1j4qf0f22x",793,"75.csv","","null","resources/maskTrios/BT2B.jpg","null","",NA,NA,NA,NA,""
"image-keyboard-response",176,183360,"0.0-4.54-2.54","zu6mn1j4qf0f22x",793,"75.csv","","null","resources/images/fishbone.png","null","",NA,NA,NA,NA,""
"image-keyboard-response",177,183639,"0.0-4.55-0.55","zu6mn1j4qf0f22x",793,"75.csv","","278.10000002384186","resources/trios/L4T2A2.jpg","39","restless",0.8,0.7,0.6,0.0649400939092049,"true"
"image-keyboard-response",178,184055,"0.0-4.55-1.55","zu6mn1j4qf0f22x",793,"75.csv","","null","resources/maskTrios/BBA2.jpg","null","",NA,NA,NA,NA,""
"image-keyboard-response",179,185261,"0.0-4.55-2.55","zu6mn1j4qf0f22x",793,"75.csv","","null","resources/images/coin2.png","null","",NA,NA,NA,NA,""
"image-keyboard-response",180,185729,"0.0-4.56-0.56","zu6mn1j4qf0f22x",793,"75.csv","","466.60000002384186","resources/trios/L4T2A2.jpg","39","restless",0.8,0.7,0.6,0.30594475077034,"true"
"image-keyboard-response",181,186136,"0.0-4.56-1.56","zu6mn1j4qf0f22x",793,"75.csv","","null","resources/maskTrios/BBA2.jpg","null","",NA,NA,NA,NA,""
"image-keyboard-response",182,187348,"0.0-4.56-2.56","zu6mn1j4qf0f22x",793,"75.csv","","null","resources/images/coin2.png","null","",NA,NA,NA,NA,""
"image-keyboard-response",183,187901,"0.0-4.57-0.57","zu6mn1j4qf0f22x",793,"75.csv","","552.5","resources/trios/L4T2A2.jpg","39","restless",0.8,0.7,0.6,0.599406465789235,"true"
"image-keyboard-response",184,188318,"0.0-4.57-1.57","zu6mn1j4qf0f22x",793,"75.csv","","null","resources/maskTrios/BBA2.jpg","null","",NA,NA,NA,NA,""
"image-keyboard-response",185,189525,"0.0-4.57-2.57","zu6mn1j4qf0f22x",793,"75.csv","","null","resources/images/coin2.png","null","",NA,NA,NA,NA,""
"image-keyboard-response",186,190181,"0.0-4.58-0.58","zu6mn1j4qf0f22x",793,"75.csv","","655.5","resources/trios/L4T2A2.jpg","39","restless",0.8,0.7,0.6,0.602320289538027,"false"
"image-keyboard-response",187,190584,"0.0-4.58-1.58","zu6mn1j4qf0f22x",793,"75.csv","","null","resources/maskTrios/BBA2.jpg","null","",NA,NA,NA,NA,""
"image-keyboard-response",188,191797,"0.0-4.58-2.58","zu6mn1j4qf0f22x",793,"75.csv","","null","resources/images/fishbone.png","null","",NA,NA,NA,NA,""
"image-keyboard-response",189,192131,"0.0-4.59-0.59","zu6mn1j4qf0f22x",793,"75.csv","","332.60000002384186","resources/trios/L4T2A2.jpg","37","restless",0.7,0.7,0.6,0.516201571403569,"true"
"image-keyboard-response",190,192548,"0.0-4.59-1.59","zu6mn1j4qf0f22x",793,"75.csv","","null","resources/maskTrios/L4BB.jpg","null","",NA,NA,NA,NA,""
"image-keyboard-response",191,193763,"0.0-4.59-2.59","zu6mn1j4qf0f22x",793,"75.csv","","null","resources/images/coin2.png","null","",NA,NA,NA,NA,""
"image-keyboard-response",192,194224,"0.0-4.60-0.60","zu6mn1j4qf0f22x",793,"75.csv","","460","resources/trios/L4T2A2.jpg","37","restless",0.7,0.7,0.6,0.235479846183706,"true"
"image-keyboard-response",193,194635,"0.0-4.60-1.60","zu6mn1j4qf0f22x",793,"75.csv","","null","resources/maskTrios/L4BB.jpg","null","",NA,NA,NA,NA,""
"image-keyboard-response",194,195852,"0.0-4.60-2.60","zu6mn1j4qf0f22x",793,"75.csv","","null","resources/images/coin2.png","null","",NA,NA,NA,NA,""
"image-keyboard-response",195,196455,"0.0-4.61-0.61","zu6mn1j4qf0f22x",793,"75.csv","","601.8000000119209","resources/trios/L4T2A2.jpg","37","restless",0.7,0.6,0.6,0.952981571719209,"false"
"image-keyboard-response",196,196864,"0.0-4.61-1.61","zu6mn1j4qf0f22x",793,"75.csv","","null","resources/maskTrios/L4BB.jpg","null","",NA,NA,NA,NA,""
"image-keyboard-response",197,198068,"0.0-4.61-2.61","zu6mn1j4qf0f22x",793,"75.csv","","null","resources/images/fishbone.png","null","",NA,NA,NA,NA,""
"image-keyboard-response",198,198346,"0.0-4.62-0.62","zu6mn1j4qf0f22x",793,"75.csv","","276.30000001192093","resources/trios/L4T2A2.jpg","38","restless",0.7,0.6,0.7,0.935019103810051,"false"
"image-keyboard-response",199,198747,"0.0-4.62-1.62","zu6mn1j4qf0f22x",793,"75.csv","","null","resources/maskTrios/BT2B.jpg","null","",NA,NA,NA,NA,""
"image-keyboard-response",200,199956,"0.0-4.62-2.62","zu6mn1j4qf0f22x",793,"75.csv","","null","resources/images/fishbone.png","null","",NA,NA,NA,NA,""
"image-keyboard-response",201,200684,"0.0-4.63-0.63","zu6mn1j4qf0f22x",793,"75.csv","","726.8000000119209","resources/trios/L4T2A2.jpg","38","restless",0.7,0.6,0.7,0.452926333240869,"true"
"image-keyboard-response",202,201098,"0.0-4.63-1.63","zu6mn1j4qf0f22x",793,"75.csv","","null","resources/maskTrios/BT2B.jpg","null","",NA,NA,NA,NA,""
"image-keyboard-response",203,202311,"0.0-4.63-2.63","zu6mn1j4qf0f22x",793,"75.csv","","null","resources/images/coin2.png","null","",NA,NA,NA,NA,""
"image-keyboard-response",204,202769,"0.0-4.64-0.64","zu6mn1j4qf0f22x",793,"75.csv","","457.5","resources/trios/L4T2A2.jpg","38","restless",0.7,0.6,0.7,0.950887706979328,"false"
"image-keyboard-response",205,203182,"0.0-4.64-1.64","zu6mn1j4qf0f22x",793,"75.csv","","null","resources/maskTrios/BT2B.jpg","null","",NA,NA,NA,NA,""
"image-keyboard-response",206,204394,"0.0-4.64-2.64","zu6mn1j4qf0f22x",793,"75.csv","","null","resources/images/fishbone.png","null","",NA,NA,NA,NA,""
"image-keyboard-response",207,204654,"0.0-4.65-0.65","zu6mn1j4qf0f22x",793,"75.csv","","259.10000002384186","resources/trios/L4T2A2.jpg","39","restless",0.7,0.6,0.7,0.056531629264587,"true"
"image-keyboard-response",208,205066,"0.0-4.65-1.65","zu6mn1j4qf0f22x",793,"75.csv","","null","resources/maskTrios/BBA2.jpg","null","",NA,NA,NA,NA,""
"image-keyboard-response",209,206275,"0.0-4.65-2.65","zu6mn1j4qf0f22x",793,"75.csv","","null","resources/images/coin2.png","null","",NA,NA,NA,NA,""
"image-keyboard-response",210,206529,"0.0-4.66-0.66","zu6mn1j4qf0f22x",793,"75.csv","","253","resources/trios/L4T2A2.jpg","39","restless",0.6,0.6,0.7,0.580696814027596,"true"
"image-keyboard-response",211,206946,"0.0-4.66-1.66","zu6mn1j4qf0f22x",793,"75.csv","","null","resources/maskTrios/BBA2.jpg","null","",NA,NA,NA,NA,""
"image-keyboard-response",212,208159,"0.0-4.66-2.66","zu6mn1j4qf0f22x",793,"75.csv","","null","resources/images/coin2.png","null","",NA,NA,NA,NA,""
"image-keyboard-response",213,208473,"0.0-4.67-0.67","zu6mn1j4qf0f22x",793,"75.csv","","313","resources/trios/L4T2A2.jpg","39","restless",0.5,0.6,0.7,0.457943754192547,"true"
"image-keyboard-response",214,208879,"0.0-4.67-1.67","zu6mn1j4qf0f22x",793,"75.csv","","null","resources/maskTrios/BBA2.jpg","null","",NA,NA,NA,NA,""
"image-keyboard-response",215,210090,"0.0-4.67-2.67","zu6mn1j4qf0f22x",793,"75.csv","","null","resources/images/coin2.png","null","",NA,NA,NA,NA,""
"image-keyboard-response",216,210341,"0.0-4.68-0.68","zu6mn1j4qf0f22x",793,"75.csv","","250.5","resources/trios/L4T2A2.jpg","39","restless",0.5,0.6,0.7,0.510527848567526,"true"
"image-keyboard-response",217,210759,"0.0-4.68-1.68","zu6mn1j4qf0f22x",793,"75.csv","","null","resources/maskTrios/BBA2.jpg","null","",NA,NA,NA,NA,""
"image-keyboard-response",218,211967,"0.0-4.68-2.68","zu6mn1j4qf0f22x",793,"75.csv","","null","resources/images/coin2.png","null","",NA,NA,NA,NA,""
"image-keyboard-response",219,212123,"0.0-4.69-0.69","zu6mn1j4qf0f22x",793,"75.csv","","154","resources/trios/L4T2A2.jpg","39","restless",0.5,0.6,0.7,0.679859273371248,"true"
"image-keyboard-response",220,212527,"0.0-4.69-1.69","zu6mn1j4qf0f22x",793,"75.csv","","null","resources/maskTrios/BBA2.jpg","null","",NA,NA,NA,NA,""
"image-keyboard-response",221,213732,"0.0-4.69-2.69","zu6mn1j4qf0f22x",793,"75.csv","","null","resources/images/coin2.png","null","",NA,NA,NA,NA,""
"image-keyboard-response",222,214002,"0.0-4.70-0.70","zu6mn1j4qf0f22x",793,"75.csv","","268.10000002384186","resources/trios/L4T2A2.jpg","39","restless",0.5,0.6,0.7,0.345281315785506,"true"
"image-keyboard-response",223,214411,"0.0-4.70-1.70","zu6mn1j4qf0f22x",793,"75.csv","","null","resources/maskTrios/BBA2.jpg","null","",NA,NA,NA,NA,""
"image-keyboard-response",224,215619,"0.0-4.70-2.70","zu6mn1j4qf0f22x",793,"75.csv","","null","resources/images/coin2.png","null","",NA,NA,NA,NA,""
"image-keyboard-response",225,215899,"0.0-4.71-0.71","zu6mn1j4qf0f22x",793,"75.csv","","279.69999998807907","resources/trios/L4T2A2.jpg","39","restless",0.5,0.6,0.8,0.321240078920866,"true"
"image-keyboard-response",226,216306,"0.0-4.71-1.71","zu6mn1j4qf0f22x",793,"75.csv","","null","resources/maskTrios/BBA2.jpg","null","",NA,NA,NA,NA,""
"image-keyboard-response",227,217515,"0.0-4.71-2.71","zu6mn1j4qf0f22x",793,"75.csv","","null","resources/images/coin2.png","null","",NA,NA,NA,NA,""
"image-keyboard-response",228,217994,"0.0-4.72-0.72","zu6mn1j4qf0f22x",793,"75.csv","","477.0999999642372","resources/trios/L4T2A2.jpg","39","restless",0.4,0.6,0.8,0.281578197694693,"true"
"image-keyboard-response",229,218408,"0.0-4.72-1.72","zu6mn1j4qf0f22x",793,"75.csv","","null","resources/maskTrios/BBA2.jpg","null","",NA,NA,NA,NA,""
"image-keyboard-response",230,219619,"0.0-4.72-2.72","zu6mn1j4qf0f22x",793,"75.csv","","null","resources/images/coin2.png","null","",NA,NA,NA,NA,""
"image-keyboard-response",231,219907,"0.0-4.73-0.73","zu6mn1j4qf0f22x",793,"75.csv","","287.0999999642372","resources/trios/L4T2A2.jpg","39","restless",0.4,0.6,0.8,0.681079689908933,"true"
"image-keyboard-response",232,220324,"0.0-4.73-1.73","zu6mn1j4qf0f22x",793,"75.csv","","null","resources/maskTrios/BBA2.jpg","null","",NA,NA,NA,NA,""
"image-keyboard-response",233,221537,"0.0-4.73-2.73","zu6mn1j4qf0f22x",793,"75.csv","","null","resources/images/coin2.png","null","",NA,NA,NA,NA,""
"image-keyboard-response",234,221739,"0.0-4.74-0.74","zu6mn1j4qf0f22x",793,"75.csv","","201","resources/trios/L4T2A2.jpg","39","restless",0.4,0.6,0.8,0.394167605015115,"true"
"image-keyboard-response",235,222156,"0.0-4.74-1.74","zu6mn1j4qf0f22x",793,"75.csv","","null","resources/maskTrios/BBA2.jpg","null","",NA,NA,NA,NA,""
"image-keyboard-response",236,223366,"0.0-4.74-2.74","zu6mn1j4qf0f22x",793,"75.csv","","null","resources/images/coin2.png","null","",NA,NA,NA,NA,""
"image-keyboard-response",237,223841,"0.0-4.75-0.75","zu6mn1j4qf0f22x",793,"75.csv","","474","resources/trios/L4T2A2.jpg","39","restless",0.3,0.6,0.8,0.572244788555428,"true"
"image-keyboard-response",238,224256,"0.0-4.75-1.75","zu6mn1j4qf0f22x",793,"75.csv","","null","resources/maskTrios/BBA2.jpg","null","",NA,NA,NA,NA,""
"image-keyboard-response",239,225467,"0.0-4.75-2.75","zu6mn1j4qf0f22x",793,"75.csv","","null","resources/images/coin2.png","null","",NA,NA,NA,NA,""
"image-keyboard-response",240,225901,"0.0-4.76-0.76","zu6mn1j4qf0f22x",793,"75.csv","","433.10000002384186","resources/trios/L4T2A2.jpg","39","restless",0.3,0.6,0.8,0.169258303489923,"true"
"image-keyboard-response",241,226307,"0.0-4.76-1.76","zu6mn1j4qf0f22x",793,"75.csv","","null","resources/maskTrios/BBA2.jpg","null","",NA,NA,NA,NA,""
"image-keyboard-response",242,227518,"0.0-4.76-2.76","zu6mn1j4qf0f22x",793,"75.csv","","null","resources/images/coin2.png","null","",NA,NA,NA,NA,""
"image-keyboard-response",243,227876,"0.0-4.77-0.77","zu6mn1j4qf0f22x",793,"75.csv","","356.60000002384186","resources/trios/L4T2A2.jpg","39","restless",0.3,0.6,0.8,0.320209142159295,"true"
"image-keyboard-response",244,228291,"0.0-4.77-1.77","zu6mn1j4qf0f22x",793,"75.csv","","null","resources/maskTrios/BBA2.jpg","null","",NA,NA,NA,NA,""
"image-keyboard-response",245,229500,"0.0-4.77-2.77","zu6mn1j4qf0f22x",793,"75.csv","","null","resources/images/coin2.png","null","",NA,NA,NA,NA,""
"image-keyboard-response",246,229653,"0.0-4.78-0.78","zu6mn1j4qf0f22x",793,"75.csv","","152.5999999642372","resources/trios/L4T2A2.jpg","39","restless",0.3,0.5,0.8,0.690260313324161,"true"
"image-keyboard-response",247,230061,"0.0-4.78-1.78","zu6mn1j4qf0f22x",793,"75.csv","","null","resources/maskTrios/BBA2.jpg","null","",NA,NA,NA,NA,""
"image-keyboard-response",248,231267,"0.0-4.78-2.78","zu6mn1j4qf0f22x",793,"75.csv","","null","resources/images/coin2.png","null","",NA,NA,NA,NA,""
"image-keyboard-response",249,231864,"0.0-4.79-0.79","zu6mn1j4qf0f22x",793,"75.csv","","596.4000000357628","resources/trios/L4T2A2.jpg","39","restless",0.3,0.5,0.8,0.447333923987607,"true"
"image-keyboard-response",250,232273,"0.0-4.79-1.79","zu6mn1j4qf0f22x",793,"75.csv","","null","resources/maskTrios/BBA2.jpg","null","",NA,NA,NA,NA,""
"image-keyboard-response",251,233486,"0.0-4.79-2.79","zu6mn1j4qf0f22x",793,"75.csv","","null","resources/images/coin2.png","null","",NA,NA,NA,NA,""
"image-keyboard-response",252,233587,"0.0-4.80-0.80","zu6mn1j4qf0f22x",793,"75.csv","","100.5","resources/trios/L4T2A2.jpg","39","restless",0.3,0.5,0.8,0.912750191520771,"false"
"image-keyboard-response",253,233993,"0.0-4.80-1.80","zu6mn1j4qf0f22x",793,"75.csv","","null","resources/maskTrios/BBA2.jpg","null","",NA,NA,NA,NA,""
"image-keyboard-response",254,235197,"0.0-4.80-2.80","zu6mn1j4qf0f22x",793,"75.csv","","null","resources/images/fishbone.png","null","",NA,NA,NA,NA,""
"image-keyboard-response",255,235562,"0.0-4.81-0.81","zu6mn1j4qf0f22x",793,"75.csv","","364","resources/trios/L4T2A2.jpg","37","restless",0.3,0.6,0.8,0.0508545716494173,"true"
"image-keyboard-response",256,235972,"0.0-4.81-1.81","zu6mn1j4qf0f22x",793,"75.csv","","null","resources/maskTrios/L4BB.jpg","null","",NA,NA,NA,NA,""
"image-keyboard-response",257,237180,"0.0-4.81-2.81","zu6mn1j4qf0f22x",793,"75.csv","","null","resources/images/coin2.png","null","",NA,NA,NA,NA,""
"image-keyboard-response",258,237496,"0.0-4.82-0.82","zu6mn1j4qf0f22x",793,"75.csv","","314.69999998807907","resources/trios/L4T2A2.jpg","37","restless",0.3,0.6,0.8,0.267977157283018,"true"
"image-keyboard-response",259,237904,"0.0-4.82-1.82","zu6mn1j4qf0f22x",793,"75.csv","","null","resources/maskTrios/L4BB.jpg","null","",NA,NA,NA,NA,""
"image-keyboard-response",260,239117,"0.0-4.82-2.82","zu6mn1j4qf0f22x",793,"75.csv","","null","resources/images/coin2.png","null","",NA,NA,NA,NA,""
"image-keyboard-response",261,239377,"0.0-4.83-0.83","zu6mn1j4qf0f22x",793,"75.csv","","258.4000000357628","resources/trios/L4T2A2.jpg","37","restless",0.3,0.6,0.8,0.567903363209482,"false"
"image-keyboard-response",262,239778,"0.0-4.83-1.83","zu6mn1j4qf0f22x",793,"75.csv","","null","resources/maskTrios/L4BB.jpg","null","",NA,NA,NA,NA,""
"image-keyboard-response",263,240979,"0.0-4.83-2.83","zu6mn1j4qf0f22x",793,"75.csv","","null","resources/images/fishbone.png","null","",NA,NA,NA,NA,""
"image-keyboard-response",264,241384,"0.0-4.84-0.84","zu6mn1j4qf0f22x",793,"75.csv","","404","resources/trios/L4T2A2.jpg","38","restless",0.4,0.6,0.8,0.915736058701563,"false"
"image-keyboard-response",265,241800,"0.0-4.84-1.84","zu6mn1j4qf0f22x",793,"75.csv","","null","resources/maskTrios/BT2B.jpg","null","",NA,NA,NA,NA,""
"image-keyboard-response",266,243011,"0.0-4.84-2.84","zu6mn1j4qf0f22x",793,"75.csv","","null","resources/images/fishbone.png","null","",NA,NA,NA,NA,""
"image-keyboard-response",267,243044,"0.0-4.85-0.85","zu6mn1j4qf0f22x",793,"75.csv","","31.900000035762787","resources/trios/L4T2A2.jpg","37","restless",0.4,0.6,0.8,0.248410424123437,"true"
"image-keyboard-response",268,243458,"0.0-4.85-1.85","zu6mn1j4qf0f22x",793,"75.csv","","null","resources/maskTrios/L4BB.jpg","null","",NA,NA,NA,NA,""
"image-keyboard-response",269,244674,"0.0-4.85-2.85","zu6mn1j4qf0f22x",793,"75.csv","","null","resources/images/coin2.png","null","",NA,NA,NA,NA,""
"image-keyboard-response",270,245005,"0.0-4.86-0.86","zu6mn1j4qf0f22x",793,"75.csv","","329.19999998807907","resources/trios/L4T2A2.jpg","37","restless",0.3,0.6,0.8,0.814817017317979,"false"
"image-keyboard-response",271,245417,"0.0-4.86-1.86","zu6mn1j4qf0f22x",793,"75.csv","","null","resources/maskTrios/L4BB.jpg","null","",NA,NA,NA,NA,""
"image-keyboard-response",272,246626,"0.0-4.86-2.86","zu6mn1j4qf0f22x",793,"75.csv","","null","resources/images/fishbone.png","null","",NA,NA,NA,NA,""
"image-keyboard-response",273,247257,"0.0-4.87-0.87","zu6mn1j4qf0f22x",793,"75.csv","","630.0999999642372","resources/trios/L4T2A2.jpg","37","restless",0.4,0.7,0.8,0.720971120743519,"false"
"image-keyboard-response",274,247670,"0.0-4.87-1.87","zu6mn1j4qf0f22x",793,"75.csv","","null","resources/maskTrios/L4BB.jpg","null","",NA,NA,NA,NA,""
"image-keyboard-response",275,248886,"0.0-4.87-2.87","zu6mn1j4qf0f22x",793,"75.csv","","null","resources/images/fishbone.png","null","",NA,NA,NA,NA,""
"image-keyboard-response",276,249145,"0.0-4.88-0.88","zu6mn1j4qf0f22x",793,"75.csv","","258.30000001192093","resources/trios/L4T2A2.jpg","38","restless",0.4,0.7,0.8,0.450490710178181,"true"
"image-keyboard-response",277,249548,"0.0-4.88-1.88","zu6mn1j4qf0f22x",793,"75.csv","","null","resources/maskTrios/BT2B.jpg","null","",NA,NA,NA,NA,""
"image-keyboard-response",278,250764,"0.0-4.88-2.88","zu6mn1j4qf0f22x",793,"75.csv","","null","resources/images/coin2.png","null","",NA,NA,NA,NA,""
"image-keyboard-response",279,251029,"0.0-4.89-0.89","zu6mn1j4qf0f22x",793,"75.csv","","263.60000002384186","resources/trios/L4T2A2.jpg","38","restless",0.4,0.7,0.8,0.0156777826236218,"true"
"image-keyboard-response",280,251432,"0.0-4.89-1.89","zu6mn1j4qf0f22x",793,"75.csv","","null","resources/maskTrios/BT2B.jpg","null","",NA,NA,NA,NA,""
"image-keyboard-response",281,252634,"0.0-4.89-2.89","zu6mn1j4qf0f22x",793,"75.csv","","null","resources/images/coin2.png","null","",NA,NA,NA,NA,""
"image-keyboard-response",282,252677,"0.0-4.90-0.90","zu6mn1j4qf0f22x",793,"75.csv","","41.69999998807907","resources/trios/L4T2A2.jpg","38","restless",0.4,0.7,0.8,0.952983405949668,"false"
"image-keyboard-response",283,253083,"0.0-4.90-1.90","zu6mn1j4qf0f22x",793,"75.csv","","null","resources/maskTrios/BT2B.jpg","null","",NA,NA,NA,NA,""
"image-keyboard-response",284,254296,"0.0-4.90-2.90","zu6mn1j4qf0f22x",793,"75.csv","","null","resources/images/fishbone.png","null","",NA,NA,NA,NA,""
"image-keyboard-response",285,254703,"0.0-4.91-0.91","zu6mn1j4qf0f22x",793,"75.csv","","405.60000002384186","resources/trios/L4T2A2.jpg","37","restless",0.5,0.7,0.8,0.363098419957187,"true"
"image-keyboard-response",286,255116,"0.0-4.91-1.91","zu6mn1j4qf0f22x",793,"75.csv","","null","resources/maskTrios/L4BB.jpg","null","",NA,NA,NA,NA,""
"image-keyboard-response",287,256328,"0.0-4.91-2.91","zu6mn1j4qf0f22x",793,"75.csv","","null","resources/images/coin2.png","null","",NA,NA,NA,NA,""
"image-keyboard-response",288,256590,"0.0-4.92-0.92","zu6mn1j4qf0f22x",793,"75.csv","","260.80000001192093","resources/trios/L4T2A2.jpg","37","restless",0.5,0.7,0.8,0.34605506272112,"true"
"image-keyboard-response",289,256994,"0.0-4.92-1.92","zu6mn1j4qf0f22x",793,"75.csv","","null","resources/maskTrios/L4BB.jpg","null","",NA,NA,NA,NA,""
"image-keyboard-response",290,258204,"0.0-4.92-2.92","zu6mn1j4qf0f22x",793,"75.csv","","null","resources/images/coin2.png","null","",NA,NA,NA,NA,""
"image-keyboard-response",291,258502,"0.0-4.93-0.93","zu6mn1j4qf0f22x",793,"75.csv","","296.80000001192093","resources/trios/L4T2A2.jpg","37","restless",0.5,0.7,0.9,0.431027836910716,"true"
"image-keyboard-response",292,258912,"0.0-4.93-1.93","zu6mn1j4qf0f22x",793,"75.csv","","null","resources/maskTrios/L4BB.jpg","null","",NA,NA,NA,NA,""
"image-keyboard-response",293,260114,"0.0-4.93-2.93","zu6mn1j4qf0f22x",793,"75.csv","","null","resources/images/coin2.png","null","",NA,NA,NA,NA,""
"image-keyboard-response",294,260494,"0.0-4.94-0.94","zu6mn1j4qf0f22x",793,"75.csv","","378.19999998807907","resources/trios/L4T2A2.jpg","37","restless",0.5,0.7,0.9,0.185678032358331,"true"
"image-keyboard-response",295,260896,"0.0-4.94-1.94","zu6mn1j4qf0f22x",793,"75.csv","","null","resources/maskTrios/L4BB.jpg","null","",NA,NA,NA,NA,""
"image-keyboard-response",296,262108,"0.0-4.94-2.94","zu6mn1j4qf0f22x",793,"75.csv","","null","resources/images/coin2.png","null","",NA,NA,NA,NA,""
"image-keyboard-response",297,262396,"0.0-4.95-0.95","zu6mn1j4qf0f22x",793,"75.csv","","287.5","resources/trios/L4T2A2.jpg","37","restless",0.5,0.7,0.9,0.377686866470277,"true"
"image-keyboard-response",298,262812,"0.0-4.95-1.95","zu6mn1j4qf0f22x",793,"75.csv","","null","resources/maskTrios/L4BB.jpg","null","",NA,NA,NA,NA,""
"image-keyboard-response",299,264024,"0.0-4.95-2.95","zu6mn1j4qf0f22x",793,"75.csv","","null","resources/images/coin2.png","null","",NA,NA,NA,NA,""
"image-keyboard-response",300,264320,"0.0-4.96-0.96","zu6mn1j4qf0f22x",793,"75.csv","","295.2000000476837","resources/trios/L4T2A2.jpg","37","restless",0.5,0.6,0.9,0.737135093902139,"false"
"image-keyboard-response",301,264728,"0.0-4.96-1.96","zu6mn1j4qf0f22x",793,"75.csv","","null","resources/maskTrios/L4BB.jpg","null","",NA,NA,NA,NA,""
"image-keyboard-response",302,265941,"0.0-4.96-2.96","zu6mn1j4qf0f22x",793,"75.csv","","null","resources/images/fishbone.png","null","",NA,NA,NA,NA,""
"image-keyboard-response",303,266187,"0.0-4.97-0.97","zu6mn1j4qf0f22x",793,"75.csv","","244.60000002384186","resources/trios/L4T2A2.jpg","39","restless",0.5,0.6,0.9,0.564434558062453,"true"
"image-keyboard-response",304,266594,"0.0-4.97-1.97","zu6mn1j4qf0f22x",793,"75.csv","","null","resources/maskTrios/BBA2.jpg","null","",NA,NA,NA,NA,""
"image-keyboard-response",305,267805,"0.0-4.97-2.97","zu6mn1j4qf0f22x",793,"75.csv","","null","resources/images/coin2.png","null","",NA,NA,NA,NA,""
"image-keyboard-response",306,268253,"0.0-4.98-0.98","zu6mn1j4qf0f22x",793,"75.csv","","447","resources/trios/L4T2A2.jpg","39","restless",0.5,0.6,0.9,0.035250800385429,"true"
"image-keyboard-response",307,268658,"0.0-4.98-1.98","zu6mn1j4qf0f22x",793,"75.csv","","null","resources/maskTrios/BBA2.jpg","null","",NA,NA,NA,NA,""
"image-keyboard-response",308,269864,"0.0-4.98-2.98","zu6mn1j4qf0f22x",793,"75.csv","","null","resources/images/coin2.png","null","",NA,NA,NA,NA,""
"image-keyboard-response",309,270271,"0.0-4.99-0.99","zu6mn1j4qf0f22x",793,"75.csv","","406","resources/trios/L4T2A2.jpg","39","restless",0.5,0.7,0.9,0.174125494997196,"true"
"image-keyboard-response",310,270675,"0.0-4.99-1.99","zu6mn1j4qf0f22x",793,"75.csv","","null","resources/maskTrios/BBA2.jpg","null","",NA,NA,NA,NA,""
"image-keyboard-response",311,271881,"0.0-4.99-2.99","zu6mn1j4qf0f22x",793,"75.csv","","null","resources/images/coin2.png","null","",NA,NA,NA,NA,""
"image-keyboard-response",312,272327,"0.0-4.100-0.100","zu6mn1j4qf0f22x",793,"75.csv","","444.69999998807907","resources/trios/L4T2A2.jpg","39","restless",0.5,0.7,0.9,0.572370716900534,"true"
"image-keyboard-response",313,272741,"0.0-4.100-1.100","zu6mn1j4qf0f22x",793,"75.csv","","null","resources/maskTrios/BBA2.jpg","null","",NA,NA,NA,NA,""
"image-keyboard-response",314,273948,"0.0-4.100-2.100","zu6mn1j4qf0f22x",793,"75.csv","","null","resources/images/coin2.png","null","",NA,NA,NA,NA,""
"image-keyboard-response",315,274407,"0.0-4.101-0.101","zu6mn1j4qf0f22x",793,"75.csv","","457.19999998807907","resources/trios/L4T2A2.jpg","39","restless",0.5,0.7,0.9,0.976901390318283,"false"
"image-keyboard-response",316,274813,"0.0-4.101-1.101","zu6mn1j4qf0f22x",793,"75.csv","","null","resources/maskTrios/BBA2.jpg","null","",NA,NA,NA,NA,""
"image-keyboard-response",317,276017,"0.0-4.101-2.101","zu6mn1j4qf0f22x",793,"75.csv","","null","resources/images/fishbone.png","null","",NA,NA,NA,NA,""
"image-keyboard-response",318,276298,"0.0-4.102-0.102","zu6mn1j4qf0f22x",793,"75.csv","","280.5","resources/trios/L4T2A2.jpg","38","restless",0.4,0.7,0.9,0.635367860167662,"true"
"image-keyboard-response",319,276710,"0.0-4.102-1.102","zu6mn1j4qf0f22x",793,"75.csv","","null","resources/maskTrios/BT2B.jpg","null","",NA,NA,NA,NA,""
"image-keyboard-response",320,277920,"0.0-4.102-2.102","zu6mn1j4qf0f22x",793,"75.csv","","null","resources/images/coin2.png","null","",NA,NA,NA,NA,""
"image-keyboard-response",321,278453,"0.0-4.103-0.103","zu6mn1j4qf0f22x",793,"75.csv","","532","resources/trios/L4T2A2.jpg","38","restless",0.4,0.6,0.8,0.971215174704768,"false"
"image-keyboard-response",322,278858,"0.0-4.103-1.103","zu6mn1j4qf0f22x",793,"75.csv","","null","resources/maskTrios/BT2B.jpg","null","",NA,NA,NA,NA,""
"image-keyboard-response",323,280062,"0.0-4.103-2.103","zu6mn1j4qf0f22x",793,"75.csv","","null","resources/images/fishbone.png","null","",NA,NA,NA,NA,""
"image-keyboard-response",324,280323,"0.0-4.104-0.104","zu6mn1j4qf0f22x",793,"75.csv","","260","resources/trios/L4T2A2.jpg","37","restless",0.4,0.6,0.9,0.299321546426764,"true"
"image-keyboard-response",325,280739,"0.0-4.104-1.104","zu6mn1j4qf0f22x",793,"75.csv","","null","resources/maskTrios/L4BB.jpg","null","",NA,NA,NA,NA,""
"image-keyboard-response",326,281953,"0.0-4.104-2.104","zu6mn1j4qf0f22x",793,"75.csv","","null","resources/images/coin2.png","null","",NA,NA,NA,NA,""
"image-keyboard-response",327,282315,"0.0-4.105-0.105","zu6mn1j4qf0f22x",793,"75.csv","","360.9000000357628","resources/trios/L4T2A2.jpg","37","restless",0.4,0.6,0.9,0.288151931934875,"true"
"image-keyboard-response",328,282726,"0.0-4.105-1.105","zu6mn1j4qf0f22x",793,"75.csv","","null","resources/maskTrios/L4BB.jpg","null","",NA,NA,NA,NA,""
"image-keyboard-response",329,283929,"0.0-4.105-2.105","zu6mn1j4qf0f22x",793,"75.csv","","null","resources/images/coin2.png","null","",NA,NA,NA,NA,""
"image-keyboard-response",330,284236,"0.0-4.106-0.106","zu6mn1j4qf0f22x",793,"75.csv","","305.30000001192093","resources/trios/L4T2A2.jpg","37","restless",0.4,0.6,0.9,0.728317242705848,"false"
"image-keyboard-response",331,284639,"0.0-4.106-1.106","zu6mn1j4qf0f22x",793,"75.csv","","null","resources/maskTrios/L4BB.jpg","null","",NA,NA,NA,NA,""
"image-keyboard-response",332,285852,"0.0-4.106-2.106","zu6mn1j4qf0f22x",793,"75.csv","","null","resources/images/fishbone.png","null","",NA,NA,NA,NA,""
"image-keyboard-response",333,286145,"0.0-4.107-0.107","zu6mn1j4qf0f22x",793,"75.csv","","292.19999998807907","resources/trios/L4T2A2.jpg","38","restless",0.4,0.6,0.9,0.179240192029311,"true"
"image-keyboard-response",334,286553,"0.0-4.107-1.107","zu6mn1j4qf0f22x",793,"75.csv","","null","resources/maskTrios/BT2B.jpg","null","",NA,NA,NA,NA,""
"image-keyboard-response",335,287762,"0.0-4.107-2.107","zu6mn1j4qf0f22x",793,"75.csv","","null","resources/images/coin2.png","null","",NA,NA,NA,NA,""
"image-keyboard-response",336,288063,"0.0-4.108-0.108","zu6mn1j4qf0f22x",793,"75.csv","","299.2000000476837","resources/trios/L4T2A2.jpg","38","restless",0.4,0.6,0.9,0.477995824585252,"true"
"image-keyboard-response",337,288472,"0.0-4.108-1.108","zu6mn1j4qf0f22x",793,"75.csv","","null","resources/maskTrios/BT2B.jpg","null","",NA,NA,NA,NA,""
"image-keyboard-response",338,289683,"0.0-4.108-2.108","zu6mn1j4qf0f22x",793,"75.csv","","null","resources/images/coin2.png","null","",NA,NA,NA,NA,""
"image-keyboard-response",339,290061,"0.0-4.109-0.109","zu6mn1j4qf0f22x",793,"75.csv","","376","resources/trios/L4T2A2.jpg","38","restless",0.4,0.6,0.9,0.0405399889397289,"true"
"image-keyboard-response",340,290470,"0.0-4.109-1.109","zu6mn1j4qf0f22x",793,"75.csv","","null","resources/maskTrios/BT2B.jpg","null","",NA,NA,NA,NA,""
"image-keyboard-response",341,291675,"0.0-4.109-2.109","zu6mn1j4qf0f22x",793,"75.csv","","null","resources/images/coin2.png","null","",NA,NA,NA,NA,""
"image-keyboard-response",342,292015,"0.0-4.110-0.110","zu6mn1j4qf0f22x",793,"75.csv","","339.30000001192093","resources/trios/L4T2A2.jpg","38","restless",0.5,0.6,0.9,0.940043823153319,"false"
"image-keyboard-response",343,292419,"0.0-4.110-1.110","zu6mn1j4qf0f22x",793,"75.csv","","null","resources/maskTrios/BT2B.jpg","null","",NA,NA,NA,NA,""
"image-keyboard-response",344,293630,"0.0-4.110-2.110","zu6mn1j4qf0f22x",793,"75.csv","","null","resources/images/fishbone.png","null","",NA,NA,NA,NA,""
"image-keyboard-response",345,293988,"0.0-4.111-0.111","zu6mn1j4qf0f22x",793,"75.csv","","357.4000000357628","resources/trios/L4T2A2.jpg","39","restless",0.5,0.6,0.9,0.758180567773966,"true"
"image-keyboard-response",346,294402,"0.0-4.111-1.111","zu6mn1j4qf0f22x",793,"75.csv","","null","resources/maskTrios/BBA2.jpg","null","",NA,NA,NA,NA,""
"image-keyboard-response",347,295618,"0.0-4.111-2.111","zu6mn1j4qf0f22x",793,"75.csv","","null","resources/images/coin2.png","null","",NA,NA,NA,NA,""
"image-keyboard-response",348,296017,"0.0-4.112-0.112","zu6mn1j4qf0f22x",793,"75.csv","","397.69999998807907","resources/trios/L4T2A2.jpg","39","restless",0.5,0.6,0.9,0.893384522491014,"true"
"image-keyboard-response",349,296419,"0.0-4.112-1.112","zu6mn1j4qf0f22x",793,"75.csv","","null","resources/maskTrios/BBA2.jpg","null","",NA,NA,NA,NA,""
"image-keyboard-response",350,297628,"0.0-4.112-2.112","zu6mn1j4qf0f22x",793,"75.csv","","null","resources/images/coin2.png","null","",NA,NA,NA,NA,""
"image-keyboard-response",351,298112,"0.0-4.113-0.113","zu6mn1j4qf0f22x",793,"75.csv","","482.30000001192093","resources/trios/L4T2A2.jpg","39","restless",0.5,0.6,0.9,0.283565435996414,"true"
"image-keyboard-response",352,298519,"0.0-4.113-1.113","zu6mn1j4qf0f22x",793,"75.csv","","null","resources/maskTrios/BBA2.jpg","null","",NA,NA,NA,NA,""
"image-keyboard-response",353,299729,"0.0-4.113-2.113","zu6mn1j4qf0f22x",793,"75.csv","","null","resources/images/coin2.png","null","",NA,NA,NA,NA,""
"image-keyboard-response",354,300187,"0.0-4.114-0.114","zu6mn1j4qf0f22x",793,"75.csv","","456.89999997615814","resources/trios/L4T2A2.jpg","37","restless",0.5,0.6,0.9,0.617904066365314,"false"
"image-keyboard-response",355,300598,"0.0-4.114-1.114","zu6mn1j4qf0f22x",793,"75.csv","","null","resources/maskTrios/L4BB.jpg","null","",NA,NA,NA,NA,""
"image-keyboard-response",356,301810,"0.0-4.114-2.114","zu6mn1j4qf0f22x",793,"75.csv","","null","resources/images/fishbone.png","null","",NA,NA,NA,NA,""
"image-keyboard-response",357,302405,"0.0-4.115-0.115","zu6mn1j4qf0f22x",793,"75.csv","","593.6999999880791","resources/trios/L4T2A2.jpg","39","restless",0.5,0.6,0.9,0.333528553772298,"true"
"image-keyboard-response",358,302822,"0.0-4.115-1.115","zu6mn1j4qf0f22x",793,"75.csv","","null","resources/maskTrios/BBA2.jpg","null","",NA,NA,NA,NA,""
"image-keyboard-response",359,304033,"0.0-4.115-2.115","zu6mn1j4qf0f22x",793,"75.csv","","null","resources/images/coin2.png","null","",NA,NA,NA,NA,""
"image-keyboard-response",360,304451,"0.0-4.116-0.116","zu6mn1j4qf0f22x",793,"75.csv","","417.19999998807907","resources/trios/L4T2A2.jpg","39","restless",0.5,0.6,0.9,0.379563858577577,"true"
"image-keyboard-response",361,304864,"0.0-4.116-1.116","zu6mn1j4qf0f22x",793,"75.csv","","null","resources/maskTrios/BBA2.jpg","null","",NA,NA,NA,NA,""
"image-keyboard-response",362,306076,"0.0-4.116-2.116","zu6mn1j4qf0f22x",793,"75.csv","","null","resources/images/coin2.png","null","",NA,NA,NA,NA,""
"image-keyboard-response",363,306494,"0.0-4.117-0.117","zu6mn1j4qf0f22x",793,"75.csv","","417.2999999523163","resources/trios/L4T2A2.jpg","39","restless",0.5,0.6,0.9,0.0460570253407522,"true"
"image-keyboard-response",364,306897,"0.0-4.117-1.117","zu6mn1j4qf0f22x",793,"75.csv","","null","resources/maskTrios/BBA2.jpg","null","",NA,NA,NA,NA,""
"image-keyboard-response",365,308102,"0.0-4.117-2.117","zu6mn1j4qf0f22x",793,"75.csv","","null","resources/images/coin2.png","null","",NA,NA,NA,NA,""
"image-keyboard-response",366,308409,"0.0-4.118-0.118","zu6mn1j4qf0f22x",793,"75.csv","","305.10000002384186","resources/trios/L4T2A2.jpg","39","restless",0.5,0.6,0.9,0.00871414794187997,"true"
"image-keyboard-response",367,308814,"0.0-4.118-1.118","zu6mn1j4qf0f22x",793,"75.csv","","null","resources/maskTrios/BBA2.jpg","null","",NA,NA,NA,NA,""
"image-keyboard-response",368,310018,"0.0-4.118-2.118","zu6mn1j4qf0f22x",793,"75.csv","","null","resources/images/coin2.png","null","",NA,NA,NA,NA,""
"image-keyboard-response",369,310266,"0.0-4.119-0.119","zu6mn1j4qf0f22x",793,"75.csv","","246.0999999642372","resources/trios/L4T2A2.jpg","39","restless",0.5,0.6,0.9,0.122737043153302,"true"
"image-keyboard-response",370,310667,"0.0-4.119-1.119","zu6mn1j4qf0f22x",793,"75.csv","","null","resources/maskTrios/BBA2.jpg","null","",NA,NA,NA,NA,""
"image-keyboard-response",371,311871,"0.0-4.119-2.119","zu6mn1j4qf0f22x",793,"75.csv","","null","resources/images/coin2.png","null","",NA,NA,NA,NA,""
"image-keyboard-response",372,312183,"0.0-4.120-0.120","zu6mn1j4qf0f22x",793,"75.csv","","310.89999997615814","resources/trios/L4T2A2.jpg","39","restless",0.5,0.6,0.9,0.451683492197872,"true"
"image-keyboard-response",373,312597,"0.0-4.120-1.120","zu6mn1j4qf0f22x",793,"75.csv","","null","resources/maskTrios/BBA2.jpg","null","",NA,NA,NA,NA,""
"image-keyboard-response",374,313807,"0.0-4.120-2.120","zu6mn1j4qf0f22x",793,"75.csv","","null","resources/images/coin2.png","null","",NA,NA,NA,NA,""
"image-keyboard-response",375,314078,"0.0-4.121-0.121","zu6mn1j4qf0f22x",793,"75.csv","","269.5","resources/trios/L4T2A2.jpg","39","restless",0.5,0.6,0.9,0.846836572075977,"true"
"image-keyboard-response",376,314494,"0.0-4.121-1.121","zu6mn1j4qf0f22x",793,"75.csv","","null","resources/maskTrios/BBA2.jpg","null","",NA,NA,NA,NA,""
"image-keyboard-response",377,315707,"0.0-4.121-2.121","zu6mn1j4qf0f22x",793,"75.csv","","null","resources/images/coin2.png","null","",NA,NA,NA,NA,""
"image-keyboard-response",378,315952,"0.0-4.122-0.122","zu6mn1j4qf0f22x",793,"75.csv","","243.80000001192093","resources/trios/L4T2A2.jpg","39","restless",0.4,0.6,0.8,0.535542211892871,"true"
"image-keyboard-response",379,316363,"0.0-4.122-1.122","zu6mn1j4qf0f22x",793,"75.csv","","null","resources/maskTrios/BBA2.jpg","null","",NA,NA,NA,NA,""
"image-keyboard-response",380,317574,"0.0-4.122-2.122","zu6mn1j4qf0f22x",793,"75.csv","","null","resources/images/coin2.png","null","",NA,NA,NA,NA,""
"image-keyboard-response",381,317820,"0.0-4.123-0.123","zu6mn1j4qf0f22x",793,"75.csv","","244.4000000357628","resources/trios/L4T2A2.jpg","39","restless",0.4,0.6,0.8,0.832208539024998,"false"
"image-keyboard-response",382,318227,"0.0-4.123-1.123","zu6mn1j4qf0f22x",793,"75.csv","","null","resources/maskTrios/BBA2.jpg","null","",NA,NA,NA,NA,""
"image-keyboard-response",383,319429,"0.0-4.123-2.123","zu6mn1j4qf0f22x",793,"75.csv","","null","resources/images/fishbone.png","null","",NA,NA,NA,NA,""
"image-keyboard-response",384,319749,"0.0-4.124-0.124","zu6mn1j4qf0f22x",793,"75.csv","","318.7999999523163","resources/trios/L4T2A2.jpg","38","restless",0.4,0.6,0.8,0.455493908614743,"true"
"image-keyboard-response",385,320160,"0.0-4.124-1.124","zu6mn1j4qf0f22x",793,"75.csv","","null","resources/maskTrios/BT2B.jpg","null","",NA,NA,NA,NA,""
"image-keyboard-response",386,321375,"0.0-4.124-2.124","zu6mn1j4qf0f22x",793,"75.csv","","null","resources/images/coin2.png","null","",NA,NA,NA,NA,""
"image-keyboard-response",387,321626,"0.0-4.125-0.125","zu6mn1j4qf0f22x",793,"75.csv","","249.80000001192093","resources/trios/L4T2A2.jpg","38","restless",0.5,0.6,0.8,0.0282444229641705,"true"
"image-keyboard-response",388,322031,"0.0-4.125-1.125","zu6mn1j4qf0f22x",793,"75.csv","","null","resources/maskTrios/BT2B.jpg","null","",NA,NA,NA,NA,""
"image-keyboard-response",389,323240,"0.0-4.125-2.125","zu6mn1j4qf0f22x",793,"75.csv","","null","resources/images/coin2.png","null","",NA,NA,NA,NA,""
"image-keyboard-response",390,323399,"0.0-4.126-0.126","zu6mn1j4qf0f22x",793,"75.csv","","158.5999999642372","resources/trios/L4T2A2.jpg","38","restless",0.5,0.6,0.8,0.369339000706242,"true"
"image-keyboard-response",391,323807,"0.0-4.126-1.126","zu6mn1j4qf0f22x",793,"75.csv","","null","resources/maskTrios/BT2B.jpg","null","",NA,NA,NA,NA,""
"image-keyboard-response",392,325018,"0.0-4.126-2.126","zu6mn1j4qf0f22x",793,"75.csv","","null","resources/images/coin2.png","null","",NA,NA,NA,NA,""
"image-keyboard-response",393,325283,"0.0-4.127-0.127","zu6mn1j4qf0f22x",793,"75.csv","","263.0999999642372","resources/trios/L4T2A2.jpg","38","restless",0.5,0.5,0.8,0.033823978921903,"true"
"image-keyboard-response",394,325692,"0.0-4.127-1.127","zu6mn1j4qf0f22x",793,"75.csv","","null","resources/maskTrios/BT2B.jpg","null","",NA,NA,NA,NA,""
"image-keyboard-response",395,326907,"0.0-4.127-2.127","zu6mn1j4qf0f22x",793,"75.csv","","null","resources/images/coin2.png","null","",NA,NA,NA,NA,""
"image-keyboard-response",396,327045,"0.0-4.128-0.128","zu6mn1j4qf0f22x",793,"75.csv","","137","resources/trios/L4T2A2.jpg","38","restless",0.5,0.5,0.8,0.514972213670378,"false"
"image-keyboard-response",397,327457,"0.0-4.128-1.128","zu6mn1j4qf0f22x",793,"75.csv","","null","resources/maskTrios/BT2B.jpg","null","",NA,NA,NA,NA,""
"image-keyboard-response",398,328663,"0.0-4.128-2.128","zu6mn1j4qf0f22x",793,"75.csv","","null","resources/images/fishbone.png","null","",NA,NA,NA,NA,""
"image-keyboard-response",399,328965,"0.0-4.129-0.129","zu6mn1j4qf0f22x",793,"75.csv","","300.9000000357628","resources/trios/L4T2A2.jpg","37","restless",0.5,0.5,0.8,0.0134802481665084,"true"
"image-keyboard-response",400,329380,"0.0-4.129-1.129","zu6mn1j4qf0f22x",793,"75.csv","","null","resources/maskTrios/L4BB.jpg","null","",NA,NA,NA,NA,""
"image-keyboard-response",401,330593,"0.0-4.129-2.129","zu6mn1j4qf0f22x",793,"75.csv","","null","resources/images/coin2.png","null","",NA,NA,NA,NA,""
"image-keyboard-response",402,330853,"0.0-4.130-0.130","zu6mn1j4qf0f22x",793,"75.csv","","258.80000001192093","resources/trios/L4T2A2.jpg","37","restless",0.5,0.5,0.8,0.546726837803005,"false"
"image-keyboard-response",403,331256,"0.0-4.130-1.130","zu6mn1j4qf0f22x",793,"75.csv","","null","resources/maskTrios/L4BB.jpg","null","",NA,NA,NA,NA,""
"image-keyboard-response",404,332473,"0.0-4.130-2.130","zu6mn1j4qf0f22x",793,"75.csv","","null","resources/images/fishbone.png","null","",NA,NA,NA,NA,""
"image-keyboard-response",405,333712,"0.0-4.131-0.131","zu6mn1j4qf0f22x",793,"75.csv","","1238.1000000238419","resources/trios/L4T2A2.jpg","38","restless",0.5,0.5,0.8,0.0908760375726341,"true"
"image-keyboard-response",406,334125,"0.0-4.131-1.131","zu6mn1j4qf0f22x",793,"75.csv","","null","resources/maskTrios/BT2B.jpg","null","",NA,NA,NA,NA,""
"image-keyboard-response",407,335331,"0.0-4.131-2.131","zu6mn1j4qf0f22x",793,"75.csv","","null","resources/images/coin2.png","null","",NA,NA,NA,NA,""
"image-keyboard-response",408,335942,"0.0-4.132-0.132","zu6mn1j4qf0f22x",793,"75.csv","","609.6999999880791","resources/trios/L4T2A2.jpg","38","restless",0.5,0.5,0.8,0.72514753313911,"false"
"image-keyboard-response",409,336356,"0.0-4.132-1.132","zu6mn1j4qf0f22x",793,"75.csv","","null","resources/maskTrios/BT2B.jpg","null","",NA,NA,NA,NA,""
"image-keyboard-response",410,337560,"0.0-4.132-2.132","zu6mn1j4qf0f22x",793,"75.csv","","null","resources/images/fishbone.png","null","",NA,NA,NA,NA,""
"image-keyboard-response",411,338148,"0.0-4.133-0.133","zu6mn1j4qf0f22x",793,"75.csv","","586.3000000119209","resources/trios/L4T2A2.jpg","37","restless",0.5,0.5,0.9,0.607064337023014,"false"
"image-keyboard-response",412,338560,"0.0-4.133-1.133","zu6mn1j4qf0f22x",793,"75.csv","","null","resources/maskTrios/L4BB.jpg","null","",NA,NA,NA,NA,""
"image-keyboard-response",413,339766,"0.0-4.133-2.133","zu6mn1j4qf0f22x",793,"75.csv","","null","resources/images/fishbone.png","null","",NA,NA,NA,NA,""
"image-keyboard-response",414,340563,"0.0-4.134-0.134","zu6mn1j4qf0f22x",793,"75.csv","","795.8000000119209","resources/trios/L4T2A2.jpg","37","restless",0.5,0.5,0.9,0.347875039360652,"true"
"image-keyboard-response",415,340972,"0.0-4.134-1.134","zu6mn1j4qf0f22x",793,"75.csv","","null","resources/maskTrios/L4BB.jpg","null","",NA,NA,NA,NA,""
"image-keyboard-response",416,342184,"0.0-4.134-2.134","zu6mn1j4qf0f22x",793,"75.csv","","null","resources/images/coin2.png","null","",NA,NA,NA,NA,""
"image-keyboard-response",417,342565,"0.0-4.135-0.135","zu6mn1j4qf0f22x",793,"75.csv","","379.7000000476837","resources/trios/L4T2A2.jpg","37","restless",0.4,0.5,0.9,0.455883090676467,"false"
"image-keyboard-response",418,342970,"0.0-4.135-1.135","zu6mn1j4qf0f22x",793,"75.csv","","null","resources/maskTrios/L4BB.jpg","null","",NA,NA,NA,NA,""
"image-keyboard-response",419,344186,"0.0-4.135-2.135","zu6mn1j4qf0f22x",793,"75.csv","","null","resources/images/fishbone.png","null","",NA,NA,NA,NA,""
"image-keyboard-response",420,344706,"0.0-4.136-0.136","zu6mn1j4qf0f22x",793,"75.csv","","518.8000000119209","resources/trios/L4T2A2.jpg","38","restless",0.4,0.5,0.9,0.647346710908351,"false"
"image-keyboard-response",421,345109,"0.0-4.136-1.136","zu6mn1j4qf0f22x",793,"75.csv","","null","resources/maskTrios/BT2B.jpg","null","",NA,NA,NA,NA,""
"image-keyboard-response",422,346314,"0.0-4.136-2.136","zu6mn1j4qf0f22x",793,"75.csv","","null","resources/images/fishbone.png","null","",NA,NA,NA,NA,""
"image-keyboard-response",423,346648,"0.0-4.137-0.137","zu6mn1j4qf0f22x",793,"75.csv","","332.39999997615814","resources/trios/L4T2A2.jpg","39","restless",0.4,0.5,0.9,0.214599606972099,"true"
"image-keyboard-response",424,347052,"0.0-4.137-1.137","zu6mn1j4qf0f22x",793,"75.csv","","null","resources/maskTrios/BBA2.jpg","null","",NA,NA,NA,NA,""
"image-keyboard-response",425,348264,"0.0-4.137-2.137","zu6mn1j4qf0f22x",793,"75.csv","","null","resources/images/coin2.png","null","",NA,NA,NA,NA,""
"image-keyboard-response",426,348592,"0.0-4.138-0.138","zu6mn1j4qf0f22x",793,"75.csv","","337.80000001192093","resources/trios/L4T2A2.jpg","39","restless",0.4,0.4,0.9,0.721940336191731,"true"
"image-keyboard-response",427,349010,"0.0-4.138-1.138","zu6mn1j4qf0f22x",793,"75.csv","","null","resources/maskTrios/BBA2.jpg","null","",NA,NA,NA,NA,""
"image-keyboard-response",428,350217,"0.0-4.138-2.138","zu6mn1j4qf0f22x",793,"75.csv","","null","resources/images/coin2.png","null","",NA,NA,NA,NA,""
"image-keyboard-response",429,350418,"0.0-4.139-0.139","zu6mn1j4qf0f22x",793,"75.csv","","199.30000001192093","resources/trios/L4T2A2.jpg","39","restless",0.4,0.4,0.9,0.662249028700093,"true"
"image-keyboard-response",430,350826,"0.0-4.139-1.139","zu6mn1j4qf0f22x",793,"75.csv","","null","resources/maskTrios/BBA2.jpg","null","",NA,NA,NA,NA,""
"image-keyboard-response",431,352037,"0.0-4.139-2.139","zu6mn1j4qf0f22x",793,"75.csv","","null","resources/images/coin2.png","null","",NA,NA,NA,NA,""
"image-keyboard-response",432,352288,"0.0-4.140-0.140","zu6mn1j4qf0f22x",793,"75.csv","","250","resources/trios/L4T2A2.jpg","39","restless",0.5,0.4,0.9,0.926549516583014,"false"
"image-keyboard-response",433,352692,"0.0-4.140-1.140","zu6mn1j4qf0f22x",793,"75.csv","","null","resources/maskTrios/BBA2.jpg","null","",NA,NA,NA,NA,""
"image-keyboard-response",434,353900,"0.0-4.140-2.140","zu6mn1j4qf0f22x",793,"75.csv","","null","resources/images/fishbone.png","null","",NA,NA,NA,NA,""
"image-keyboard-response",435,354157,"0.0-4.141-0.141","zu6mn1j4qf0f22x",793,"75.csv","","256.10000002384186","resources/trios/L4T2A2.jpg","38","restless",0.5,0.4,0.9,0.132701095016499,"true"
"image-keyboard-response",436,354572,"0.0-4.141-1.141","zu6mn1j4qf0f22x",793,"75.csv","","null","resources/maskTrios/BT2B.jpg","null","",NA,NA,NA,NA,""
"image-keyboard-response",437,355787,"0.0-4.141-2.141","zu6mn1j4qf0f22x",793,"75.csv","","null","resources/images/coin2.png","null","",NA,NA,NA,NA,""
"image-keyboard-response",438,356082,"0.0-4.142-0.142","zu6mn1j4qf0f22x",793,"75.csv","","294.60000002384186","resources/trios/L4T2A2.jpg","38","restless",0.5,0.4,0.8,0.416894954879206,"false"
"image-keyboard-response",439,356487,"0.0-4.142-1.142","zu6mn1j4qf0f22x",793,"75.csv","","null","resources/maskTrios/BT2B.jpg","null","",NA,NA,NA,NA,""
"image-keyboard-response",440,357702,"0.0-4.142-2.142","zu6mn1j4qf0f22x",793,"75.csv","","null","resources/images/fishbone.png","null","",NA,NA,NA,NA,""
"image-keyboard-response",441,357951,"0.0-4.143-0.143","zu6mn1j4qf0f22x",793,"75.csv","","247.5999999642372","resources/trios/L4T2A2.jpg","37","restless",0.5,0.4,0.8,0.667853686680708,"false"
"image-keyboard-response",442,358355,"0.0-4.143-1.143","zu6mn1j4qf0f22x",793,"75.csv","","null","resources/maskTrios/L4BB.jpg","null","",NA,NA,NA,NA,""
"image-keyboard-response",443,359570,"0.0-4.143-2.143","zu6mn1j4qf0f22x",793,"75.csv","","null","resources/images/fishbone.png","null","",NA,NA,NA,NA,""
"image-keyboard-response",444,359926,"0.0-4.144-0.144","zu6mn1j4qf0f22x",793,"75.csv","","355.60000002384186","resources/trios/L4T2A2.jpg","39","restless",0.5,0.4,0.8,0.999326936921859,"false"
"image-keyboard-response",445,360339,"0.0-4.144-1.144","zu6mn1j4qf0f22x",793,"75.csv","","null","resources/maskTrios/BBA2.jpg","null","",NA,NA,NA,NA,""
"image-keyboard-response",446,361546,"0.0-4.144-2.144","zu6mn1j4qf0f22x",793,"75.csv","","null","resources/images/fishbone.png","null","",NA,NA,NA,NA,""
"image-keyboard-response",447,361790,"0.0-4.145-0.145","zu6mn1j4qf0f22x",793,"75.csv","","242.69999998807907","resources/trios/L4T2A2.jpg","38","restless",0.5,0.4,0.7,0.20696604475497,"true"
"image-keyboard-response",448,362205,"0.0-4.145-1.145","zu6mn1j4qf0f22x",793,"75.csv","","null","resources/maskTrios/BT2B.jpg","null","",NA,NA,NA,NA,""
"image-keyboard-response",449,363415,"0.0-4.145-2.145","zu6mn1j4qf0f22x",793,"75.csv","","null","resources/images/coin2.png","null","",NA,NA,NA,NA,""
"image-keyboard-response",450,363571,"0.0-4.146-0.146","zu6mn1j4qf0f22x",793,"75.csv","","155.69999998807907","resources/trios/L4T2A2.jpg","38","restless",0.5,0.4,0.7,0.884224098571374,"false"
"image-keyboard-response",451,363977,"0.0-4.146-1.146","zu6mn1j4qf0f22x",793,"75.csv","","null","resources/maskTrios/BT2B.jpg","null","",NA,NA,NA,NA,""
"image-keyboard-response",452,365183,"0.0-4.146-2.146","zu6mn1j4qf0f22x",793,"75.csv","","null","resources/images/fishbone.png","null","",NA,NA,NA,NA,""
"image-keyboard-response",453,365571,"0.0-4.147-0.147","zu6mn1j4qf0f22x",793,"75.csv","","386.4000000357628","resources/trios/L4T2A2.jpg","37","restless",0.5,0.4,0.7,0.880534361720914,"false"
"image-keyboard-response",454,365973,"0.0-4.147-1.147","zu6mn1j4qf0f22x",793,"75.csv","","null","resources/maskTrios/L4BB.jpg","null","",NA,NA,NA,NA,""
"image-keyboard-response",455,367181,"0.0-4.147-2.147","zu6mn1j4qf0f22x",793,"75.csv","","null","resources/images/fishbone.png","null","",NA,NA,NA,NA,""
"image-keyboard-response",456,367471,"0.0-4.148-0.148","zu6mn1j4qf0f22x",793,"75.csv","","288.39999997615814","resources/trios/L4T2A2.jpg","38","restless",0.5,0.4,0.7,0.43340307796869,"false"
"image-keyboard-response",457,367885,"0.0-4.148-1.148","zu6mn1j4qf0f22x",793,"75.csv","","null","resources/maskTrios/BT2B.jpg","null","",NA,NA,NA,NA,""
"image-keyboard-response",458,369088,"0.0-4.148-2.148","zu6mn1j4qf0f22x",793,"75.csv","","null","resources/images/fishbone.png","null","",NA,NA,NA,NA,""
"image-keyboard-response",459,369743,"0.0-4.149-0.149","zu6mn1j4qf0f22x",793,"75.csv","","653.8000000119209","resources/trios/L4T2A2.jpg","37","restless",0.5,0.4,0.7,0.538945295074106,"false"
"image-keyboard-response",460,370152,"0.0-4.149-1.149","zu6mn1j4qf0f22x",793,"75.csv","","null","resources/maskTrios/L4BB.jpg","null","",NA,NA,NA,NA,""
"image-keyboard-response",461,371360,"0.0-4.149-2.149","zu6mn1j4qf0f22x",793,"75.csv","","null","resources/images/fishbone.png","null","",NA,NA,NA,NA,""
"image-keyboard-response",462,372123,"0.0-4.150-0.150","zu6mn1j4qf0f22x",793,"75.csv","","761.4000000357628","resources/trios/L4T2A2.jpg","37","restless",0.5,0.4,0.7,0.383515663919798,"true"
"image-keyboard-response",463,372538,"0.0-4.150-1.150","zu6mn1j4qf0f22x",793,"75.csv","","null","resources/maskTrios/L4BB.jpg","null","",NA,NA,NA,NA,""
"image-keyboard-response",464,373747,"0.0-4.150-2.150","zu6mn1j4qf0f22x",793,"75.csv","","null","resources/images/coin2.png","null","",NA,NA,NA,NA,""
"image-keyboard-response",465,374174,"0.0-4.151-0.151","zu6mn1j4qf0f22x",793,"75.csv","","425.60000002384186","resources/trios/L4T2A2.jpg","37","restless",0.4,0.4,0.7,0.965368342483183,"false"
"image-keyboard-response",466,374583,"0.0-4.151-1.151","zu6mn1j4qf0f22x",793,"75.csv","","null","resources/maskTrios/L4BB.jpg","null","",NA,NA,NA,NA,""
"image-keyboard-response",467,375785,"0.0-4.151-2.151","zu6mn1j4qf0f22x",793,"75.csv","","null","resources/images/fishbone.png","null","",NA,NA,NA,NA,""
"image-keyboard-response",468,376034,"0.0-4.152-0.152","zu6mn1j4qf0f22x",793,"75.csv","","247.80000001192093","resources/trios/L4T2A2.jpg","38","restless",0.3,0.4,0.7,0.55223279723798,"false"
"image-keyboard-response",469,376449,"0.0-4.152-1.152","zu6mn1j4qf0f22x",793,"75.csv","","null","resources/maskTrios/BT2B.jpg","null","",NA,NA,NA,NA,""
"image-keyboard-response",470,377663,"0.0-4.152-2.152","zu6mn1j4qf0f22x",793,"75.csv","","null","resources/images/fishbone.png","null","",NA,NA,NA,NA,""
"image-keyboard-response",471,377947,"0.0-4.153-0.153","zu6mn1j4qf0f22x",793,"75.csv","","282.5999999642372","resources/trios/L4T2A2.jpg","39","restless",0.3,0.4,0.7,0.904293189256641,"false"
"image-keyboard-response",472,378363,"0.0-4.153-1.153","zu6mn1j4qf0f22x",793,"75.csv","","null","resources/maskTrios/BBA2.jpg","null","",NA,NA,NA,NA,""
"image-keyboard-response",473,379572,"0.0-4.153-2.153","zu6mn1j4qf0f22x",793,"75.csv","","null","resources/images/fishbone.png","null","",NA,NA,NA,NA,""
"image-keyboard-response",474,379825,"0.0-4.154-0.154","zu6mn1j4qf0f22x",793,"75.csv","","251.80000001192093","resources/trios/L4T2A2.jpg","39","restless",0.3,0.4,0.7,0.42948331100754,"true"
"image-keyboard-response",475,380236,"0.0-4.154-1.154","zu6mn1j4qf0f22x",793,"75.csv","","null","resources/maskTrios/BBA2.jpg","null","",NA,NA,NA,NA,""
"image-keyboard-response",476,381438,"0.0-4.154-2.154","zu6mn1j4qf0f22x",793,"75.csv","","null","resources/images/coin2.png","null","",NA,NA,NA,NA,""
"image-keyboard-response",477,381832,"0.0-4.155-0.155","zu6mn1j4qf0f22x",793,"75.csv","","392.80000001192093","resources/trios/L4T2A2.jpg","39","restless",0.3,0.4,0.6,0.785124718493005,"false"
"image-keyboard-response",478,382237,"0.0-4.155-1.155","zu6mn1j4qf0f22x",793,"75.csv","","null","resources/maskTrios/BBA2.jpg","null","",NA,NA,NA,NA,""
"image-keyboard-response",479,383440,"0.0-4.155-2.155","zu6mn1j4qf0f22x",793,"75.csv","","null","resources/images/fishbone.png","null","",NA,NA,NA,NA,""
"image-keyboard-response",480,383727,"0.0-4.156-0.156","zu6mn1j4qf0f22x",793,"75.csv","","286.10000002384186","resources/trios/L4T2A2.jpg","37","restless",0.3,0.4,0.6,0.312743725353414,"false"
"image-keyboard-response",481,384132,"0.0-4.156-1.156","zu6mn1j4qf0f22x",793,"75.csv","","null","resources/maskTrios/L4BB.jpg","null","",NA,NA,NA,NA,""
"image-keyboard-response",482,385342,"0.0-4.156-2.156","zu6mn1j4qf0f22x",793,"75.csv","","null","resources/images/fishbone.png","null","",NA,NA,NA,NA,""
"image-keyboard-response",483,385779,"0.0-4.157-0.157","zu6mn1j4qf0f22x",793,"75.csv","","435.19999998807907","resources/trios/L4T2A2.jpg","38","restless",0.3,0.4,0.6,0.611522336644834,"false"
"image-keyboard-response",484,386186,"0.0-4.157-1.157","zu6mn1j4qf0f22x",793,"75.csv","","null","resources/maskTrios/BT2B.jpg","null","",NA,NA,NA,NA,""
"image-keyboard-response",485,387396,"0.0-4.157-2.157","zu6mn1j4qf0f22x",793,"75.csv","","null","resources/images/fishbone.png","null","",NA,NA,NA,NA,""
"image-keyboard-response",486,387592,"0.0-4.158-0.158","zu6mn1j4qf0f22x",793,"75.csv","","195.69999998807907","resources/trios/L4T2A2.jpg","38","restless",0.3,0.4,0.5,0.241318053934822,"true"
"image-keyboard-response",487,387997,"0.0-4.158-1.158","zu6mn1j4qf0f22x",793,"75.csv","","null","resources/maskTrios/BT2B.jpg","null","",NA,NA,NA,NA,""
"image-keyboard-response",488,389213,"0.0-4.158-2.158","zu6mn1j4qf0f22x",793,"75.csv","","null","resources/images/coin2.png","null","",NA,NA,NA,NA,""
"image-keyboard-response",489,389471,"0.0-4.159-0.159","zu6mn1j4qf0f22x",793,"75.csv","","257.39999997615814","resources/trios/L4T2A2.jpg","38","restless",0.3,0.4,0.5,0.733425337801322,"false"
"image-keyboard-response",490,389877,"0.0-4.159-1.159","zu6mn1j4qf0f22x",793,"75.csv","","null","resources/maskTrios/BT2B.jpg","null","",NA,NA,NA,NA,""
"image-keyboard-response",491,391090,"0.0-4.159-2.159","zu6mn1j4qf0f22x",793,"75.csv","","null","resources/images/fishbone.png","null","",NA,NA,NA,NA,""
"image-keyboard-response",492,391397,"0.0-4.160-0.160","zu6mn1j4qf0f22x",793,"75.csv","","305.9000000357628","resources/trios/L4T2A2.jpg","37","restless",0.3,0.4,0.5,0.0558554620590679,"true"
"image-keyboard-response",493,391810,"0.0-4.160-1.160","zu6mn1j4qf0f22x",793,"75.csv","","null","resources/maskTrios/L4BB.jpg","null","",NA,NA,NA,NA,""
"image-keyboard-response",494,393020,"0.0-4.160-2.160","zu6mn1j4qf0f22x",793,"75.csv","","null","resources/images/coin2.png","null","",NA,NA,NA,NA,""
"image-keyboard-response",495,393316,"0.0-4.161-0.161","zu6mn1j4qf0f22x",793,"75.csv","","295.10000002384186","resources/trios/L4T2A2.jpg","37","restless",0.3,0.4,0.5,0.239283156944402,"true"
"image-keyboard-response",496,393728,"0.0-4.161-1.161","zu6mn1j4qf0f22x",793,"75.csv","","null","resources/maskTrios/L4BB.jpg","null","",NA,NA,NA,NA,""
"image-keyboard-response",497,394934,"0.0-4.161-2.161","zu6mn1j4qf0f22x",793,"75.csv","","null","resources/images/coin2.png","null","",NA,NA,NA,NA,""
"image-keyboard-response",498,395357,"0.0-4.162-0.162","zu6mn1j4qf0f22x",793,"75.csv","","421.69999998807907","resources/trios/L4T2A2.jpg","37","restless",0.2,0.4,0.5,0.792449537248679,"false"
"image-keyboard-response",499,395774,"0.0-4.162-1.162","zu6mn1j4qf0f22x",793,"75.csv","","null","resources/maskTrios/L4BB.jpg","null","",NA,NA,NA,NA,""
"image-keyboard-response",500,396987,"0.0-4.162-2.162","zu6mn1j4qf0f22x",793,"75.csv","","null","resources/images/fishbone.png","null","",NA,NA,NA,NA,""
"image-keyboard-response",501,397386,"0.0-4.163-0.163","zu6mn1j4qf0f22x",793,"75.csv","","397.80000001192093","resources/trios/L4T2A2.jpg","39","restless",0.2,0.4,0.5,0.554514873245163,"false"
"image-keyboard-response",502,397793,"0.0-4.163-1.163","zu6mn1j4qf0f22x",793,"75.csv","","null","resources/maskTrios/BBA2.jpg","null","",NA,NA,NA,NA,""
"image-keyboard-response",503,399004,"0.0-4.163-2.163","zu6mn1j4qf0f22x",793,"75.csv","","null","resources/images/fishbone.png","null","",NA,NA,NA,NA,""
"image-keyboard-response",504,399548,"0.0-4.164-0.164","zu6mn1j4qf0f22x",793,"75.csv","","542.9000000357628","resources/trios/L4T2A2.jpg","39","restless",0.2,0.4,0.5,0.217029439992131,"true"
"image-keyboard-response",505,399963,"0.0-4.164-1.164","zu6mn1j4qf0f22x",793,"75.csv","","null","resources/maskTrios/BBA2.jpg","null","",NA,NA,NA,NA,""
"image-keyboard-response",506,401170,"0.0-4.164-2.164","zu6mn1j4qf0f22x",793,"75.csv","","null","resources/images/coin2.png","null","",NA,NA,NA,NA,""
"image-keyboard-response",507,401751,"0.0-4.165-0.165","zu6mn1j4qf0f22x",793,"75.csv","","579.6999999880791","resources/trios/L4T2A2.jpg","39","restless",0.2,0.4,0.5,0.137730531294476,"true"
"image-keyboard-response",508,402157,"0.0-4.165-1.165","zu6mn1j4qf0f22x",793,"75.csv","","null","resources/maskTrios/BBA2.jpg","null","",NA,NA,NA,NA,""
"image-keyboard-response",509,403368,"0.0-4.165-2.165","zu6mn1j4qf0f22x",793,"75.csv","","null","resources/images/coin2.png","null","",NA,NA,NA,NA,""
"image-keyboard-response",510,406489,"0.0-4.166-0.166","zu6mn1j4qf0f22x",793,"75.csv","","3120","resources/trios/L4T2A2.jpg","39","restless",0.2,0.4,0.5,0.332672815568315,"true"
"image-keyboard-response",511,406893,"0.0-4.166-1.166","zu6mn1j4qf0f22x",793,"75.csv","","null","resources/maskTrios/BBA2.jpg","null","",NA,NA,NA,NA,""
"image-keyboard-response",512,408104,"0.0-4.166-2.166","zu6mn1j4qf0f22x",793,"75.csv","","null","resources/images/coin2.png","null","",NA,NA,NA,NA,""
"image-keyboard-response",513,409548,"0.0-4.167-0.167","zu6mn1j4qf0f22x",793,"75.csv","","1431.800000011921","resources/trios/L4T2A2.jpg","39","restless",0.2,0.4,0.4,0.200944932613661,"true"
"image-keyboard-response",514,409954,"0.0-4.167-1.167","zu6mn1j4qf0f22x",793,"75.csv","","null","resources/maskTrios/BBA2.jpg","null","",NA,NA,NA,NA,""
"image-keyboard-response",515,411162,"0.0-4.167-2.167","zu6mn1j4qf0f22x",793,"75.csv","","null","resources/images/coin2.png","null","",NA,NA,NA,NA,""
"image-keyboard-response",516,411669,"0.0-4.168-0.168","zu6mn1j4qf0f22x",793,"75.csv","","506.69999998807907","resources/trios/L4T2A2.jpg","37","restless",0.2,0.4,0.5,0.0475989292988843,"true"
"image-keyboard-response",517,412081,"0.0-4.168-1.168","zu6mn1j4qf0f22x",793,"75.csv","","null","resources/maskTrios/L4BB.jpg","null","",NA,NA,NA,NA,""
"image-keyboard-response",518,413291,"0.0-4.168-2.168","zu6mn1j4qf0f22x",793,"75.csv","","null","resources/images/coin2.png","null","",NA,NA,NA,NA,""
"image-keyboard-response",519,414160,"0.0-4.169-0.169","zu6mn1j4qf0f22x",793,"75.csv","","868.6000000238419","resources/trios/L4T2A2.jpg","39","restless",0.2,0.5,0.5,0.834715865037241,"false"
"image-keyboard-response",520,414563,"0.0-4.169-1.169","zu6mn1j4qf0f22x",793,"75.csv","","null","resources/maskTrios/BBA2.jpg","null","",NA,NA,NA,NA,""
"image-keyboard-response",521,415776,"0.0-4.169-2.169","zu6mn1j4qf0f22x",793,"75.csv","","null","resources/images/fishbone.png","null","",NA,NA,NA,NA,""
"image-keyboard-response",522,416001,"0.0-4.170-0.170","zu6mn1j4qf0f22x",793,"75.csv","","224","resources/trios/L4T2A2.jpg","37","restless",0.2,0.5,0.5,0.19757416830782,"true"
"image-keyboard-response",523,416413,"0.0-4.170-1.170","zu6mn1j4qf0f22x",793,"75.csv","","null","resources/maskTrios/L4BB.jpg","null","",NA,NA,NA,NA,""
"image-keyboard-response",524,417622,"0.0-4.170-2.170","zu6mn1j4qf0f22x",793,"75.csv","","null","resources/images/coin2.png","null","",NA,NA,NA,NA,""
"image-keyboard-response",525,418300,"0.0-4.171-0.171","zu6mn1j4qf0f22x",793,"75.csv","","676.8000000119209","resources/trios/L4T2A2.jpg","37","restless",0.2,0.5,0.5,0.868252904496047,"false"
"image-keyboard-response",526,418712,"0.0-4.171-1.171","zu6mn1j4qf0f22x",793,"75.csv","","null","resources/maskTrios/L4BB.jpg","null","",NA,NA,NA,NA,""
"image-keyboard-response",527,419928,"0.0-4.171-2.171","zu6mn1j4qf0f22x",793,"75.csv","","null","resources/images/fishbone.png","null","",NA,NA,NA,NA,""
"image-keyboard-response",528,420242,"0.0-4.172-0.172","zu6mn1j4qf0f22x",793,"75.csv","","312.30000001192093","resources/trios/L4T2A2.jpg","38","restless",0.2,0.5,0.5,0.315761973979582,"true"
"image-keyboard-response",529,420647,"0.0-4.172-1.172","zu6mn1j4qf0f22x",793,"75.csv","","null","resources/maskTrios/BT2B.jpg","null","",NA,NA,NA,NA,""
"image-keyboard-response",530,421853,"0.0-4.172-2.172","zu6mn1j4qf0f22x",793,"75.csv","","null","resources/images/coin2.png","null","",NA,NA,NA,NA,""
"image-keyboard-response",531,422165,"0.0-4.173-0.173","zu6mn1j4qf0f22x",793,"75.csv","","310.9000000357628","resources/trios/L4T2A2.jpg","38","restless",0.2,0.5,0.5,0.286853106099503,"true"
"image-keyboard-response",532,422579,"0.0-4.173-1.173","zu6mn1j4qf0f22x",793,"75.csv","","null","resources/maskTrios/BT2B.jpg","null","",NA,NA,NA,NA,""
"image-keyboard-response",533,423795,"0.0-4.173-2.173","zu6mn1j4qf0f22x",793,"75.csv","","null","resources/images/coin2.png","null","",NA,NA,NA,NA,""
"image-keyboard-response",534,424934,"0.0-4.174-0.174","zu6mn1j4qf0f22x",793,"75.csv","","1138.199999988079","resources/trios/L4T2A2.jpg","39","restless",0.2,0.5,0.4,0.548842234141694,"false"
"image-keyboard-response",535,425347,"0.0-4.174-1.174","zu6mn1j4qf0f22x",793,"75.csv","","null","resources/maskTrios/BBA2.jpg","null","",NA,NA,NA,NA,""
"image-keyboard-response",536,426562,"0.0-4.174-2.174","zu6mn1j4qf0f22x",793,"75.csv","","null","resources/images/fishbone.png","null","",NA,NA,NA,NA,""
"image-keyboard-response",537,426951,"0.0-4.175-0.175","zu6mn1j4qf0f22x",793,"75.csv","","387.0999999642372","resources/trios/L4T2A2.jpg","39","restless",0.2,0.5,0.3,0.592251457653625,"false"
"image-keyboard-response",538,427358,"0.0-4.175-1.175","zu6mn1j4qf0f22x",793,"75.csv","","null","resources/maskTrios/BBA2.jpg","null","",NA,NA,NA,NA,""
"image-keyboard-response",539,428563,"0.0-4.175-2.175","zu6mn1j4qf0f22x",793,"75.csv","","null","resources/images/fishbone.png","null","",NA,NA,NA,NA,""
"image-keyboard-response",540,428868,"0.0-4.176-0.176","zu6mn1j4qf0f22x",793,"75.csv","","303.5","resources/trios/L4T2A2.jpg","37","restless",0.2,0.5,0.3,0.239349809877407,"false"
"image-keyboard-response",541,429274,"0.0-4.176-1.176","zu6mn1j4qf0f22x",793,"75.csv","","null","resources/maskTrios/L4BB.jpg","null","",NA,NA,NA,NA,""
"image-keyboard-response",542,430489,"0.0-4.176-2.176","zu6mn1j4qf0f22x",793,"75.csv","","null","resources/images/fishbone.png","null","",NA,NA,NA,NA,""
"image-keyboard-response",543,431496,"0.0-4.177-0.177","zu6mn1j4qf0f22x",793,"75.csv","","1006.6000000238419","resources/trios/L4T2A2.jpg","38","restless",0.2,0.5,0.3,0.50330514076144,"false"
"image-keyboard-response",544,431908,"0.0-4.177-1.177","zu6mn1j4qf0f22x",793,"75.csv","","null","resources/maskTrios/BT2B.jpg","null","",NA,NA,NA,NA,""
"image-keyboard-response",545,433123,"0.0-4.177-2.177","zu6mn1j4qf0f22x",793,"75.csv","","null","resources/images/fishbone.png","null","",NA,NA,NA,NA,""
"image-keyboard-response",546,433463,"0.0-4.178-0.178","zu6mn1j4qf0f22x",793,"75.csv","","338.2000000476837","resources/trios/L4T2A2.jpg","38","restless",0.2,0.5,0.3,0.460337222835009,"true"
"image-keyboard-response",547,433876,"0.0-4.178-1.178","zu6mn1j4qf0f22x",793,"75.csv","","null","resources/maskTrios/BT2B.jpg","null","",NA,NA,NA,NA,""
"image-keyboard-response",548,435085,"0.0-4.178-2.178","zu6mn1j4qf0f22x",793,"75.csv","","null","resources/images/coin2.png","null","",NA,NA,NA,NA,""
"image-keyboard-response",549,435140,"0.0-4.179-0.179","zu6mn1j4qf0f22x",793,"75.csv","","53.5","resources/trios/L4T2A2.jpg","38","restless",0.2,0.5,0.3,0.233949377672899,"true"
"image-keyboard-response",550,435542,"0.0-4.179-1.179","zu6mn1j4qf0f22x",793,"75.csv","","null","resources/maskTrios/BT2B.jpg","null","",NA,NA,NA,NA,""
"image-keyboard-response",551,436754,"0.0-4.179-2.179","zu6mn1j4qf0f22x",793,"75.csv","","null","resources/images/coin2.png","null","",NA,NA,NA,NA,""
"image-keyboard-response",552,436972,"0.0-4.180-0.180","zu6mn1j4qf0f22x",793,"75.csv","","217.39999997615814","resources/trios/L4T2A2.jpg","38","restless",0.2,0.5,0.3,0.833528761993461,"false"
"image-keyboard-response",553,437382,"0.0-4.180-1.180","zu6mn1j4qf0f22x",793,"75.csv","","null","resources/maskTrios/BT2B.jpg","null","",NA,NA,NA,NA,""
"image-keyboard-response",554,438598,"0.0-4.180-2.180","zu6mn1j4qf0f22x",793,"75.csv","","null","resources/images/fishbone.png","null","",NA,NA,NA,NA,""
"image-keyboard-response",555,438859,"0.0-4.181-0.181","zu6mn1j4qf0f22x",793,"75.csv","","259.4000000357628","resources/trios/L4T2A2.jpg","37","restless",0.2,0.5,0.2,0.194749611748334,"true"
"image-keyboard-response",556,439274,"0.0-4.181-1.181","zu6mn1j4qf0f22x",793,"75.csv","","null","resources/maskTrios/L4BB.jpg","null","",NA,NA,NA,NA,""
"image-keyboard-response",557,440481,"0.0-4.181-2.181","zu6mn1j4qf0f22x",793,"75.csv","","null","resources/images/coin2.png","null","",NA,NA,NA,NA,""
"image-keyboard-response",558,440927,"0.0-4.182-0.182","zu6mn1j4qf0f22x",793,"75.csv","","444.69999998807907","resources/trios/L4T2A2.jpg","37","restless",0.2,0.5,0.2,0.681233725270666,"false"
"image-keyboard-response",559,441339,"0.0-4.182-1.182","zu6mn1j4qf0f22x",793,"75.csv","","null","resources/maskTrios/L4BB.jpg","null","",NA,NA,NA,NA,""
"image-keyboard-response",560,442552,"0.0-4.182-2.182","zu6mn1j4qf0f22x",793,"75.csv","","null","resources/images/fishbone.png","null","",NA,NA,NA,NA,""
"image-keyboard-response",561,442844,"0.0-4.183-0.183","zu6mn1j4qf0f22x",793,"75.csv","","290.69999998807907","resources/trios/L4T2A2.jpg","39","restless",0.2,0.4,0.2,0.925051608983448,"false"
"image-keyboard-response",562,443257,"0.0-4.183-1.183","zu6mn1j4qf0f22x",793,"75.csv","","null","resources/maskTrios/BBA2.jpg","null","",NA,NA,NA,NA,""
"image-keyboard-response",563,444462,"0.0-4.183-2.183","zu6mn1j4qf0f22x",793,"75.csv","","null","resources/images/fishbone.png","null","",NA,NA,NA,NA,""
"image-keyboard-response",564,444745,"0.0-4.184-0.184","zu6mn1j4qf0f22x",793,"75.csv","","281.4000000357628","resources/trios/L4T2A2.jpg","37","restless",0.2,0.4,0.2,0.868555398532279,"false"
"image-keyboard-response",565,445159,"0.0-4.184-1.184","zu6mn1j4qf0f22x",793,"75.csv","","null","resources/maskTrios/L4BB.jpg","null","",NA,NA,NA,NA,""
"image-keyboard-response",566,446361,"0.0-4.184-2.184","zu6mn1j4qf0f22x",793,"75.csv","","null","resources/images/fishbone.png","null","",NA,NA,NA,NA,""
"image-keyboard-response",567,446739,"0.0-4.185-0.185","zu6mn1j4qf0f22x",793,"75.csv","","376.69999998807907","resources/trios/L4T2A2.jpg","37","restless",0.2,0.4,0.2,0.580041167972929,"false"
"image-keyboard-response",568,447155,"0.0-4.185-1.185","zu6mn1j4qf0f22x",793,"75.csv","","null","resources/maskTrios/L4BB.jpg","null","",NA,NA,NA,NA,""
"image-keyboard-response",569,448369,"0.0-4.185-2.185","zu6mn1j4qf0f22x",793,"75.csv","","null","resources/images/fishbone.png","null","",NA,NA,NA,NA,""
"image-keyboard-response",570,448894,"0.0-4.186-0.186","zu6mn1j4qf0f22x",793,"75.csv","","523.5","resources/trios/L4T2A2.jpg","38","restless",0.2,0.4,0.2,0.457081849238807,"false"
"image-keyboard-response",571,449304,"0.0-4.186-1.186","zu6mn1j4qf0f22x",793,"75.csv","","null","resources/maskTrios/BT2B.jpg","null","",NA,NA,NA,NA,""
"image-keyboard-response",572,450511,"0.0-4.186-2.186","zu6mn1j4qf0f22x",793,"75.csv","","null","resources/images/fishbone.png","null","",NA,NA,NA,NA,""
"image-keyboard-response",573,450995,"0.0-4.187-0.187","zu6mn1j4qf0f22x",793,"75.csv","","482.5","resources/trios/L4T2A2.jpg","39","restless",0.2,0.4,0.2,0.589451760353795,"false"
"image-keyboard-response",574,451405,"0.0-4.187-1.187","zu6mn1j4qf0f22x",793,"75.csv","","null","resources/maskTrios/BBA2.jpg","null","",NA,NA,NA,NA,""
"image-keyboard-response",575,452608,"0.0-4.187-2.187","zu6mn1j4qf0f22x",793,"75.csv","","null","resources/images/fishbone.png","null","",NA,NA,NA,NA,""
"image-keyboard-response",576,453239,"0.0-4.188-0.188","zu6mn1j4qf0f22x",793,"75.csv","","629.7999999523163","resources/trios/L4T2A2.jpg","37","restless",0.2,0.4,0.2,0.0256295668607678,"true"
"image-keyboard-response",577,453654,"0.0-4.188-1.188","zu6mn1j4qf0f22x",793,"75.csv","","null","resources/maskTrios/L4BB.jpg","null","",NA,NA,NA,NA,""
"image-keyboard-response",578,454862,"0.0-4.188-2.188","zu6mn1j4qf0f22x",793,"75.csv","","null","resources/images/coin2.png","null","",NA,NA,NA,NA,""
"image-keyboard-response",579,455380,"0.0-4.189-0.189","zu6mn1j4qf0f22x",793,"75.csv","","516.7999999523163","resources/trios/L4T2A2.jpg","37","restless",0.2,0.4,0.2,0.452534915135139,"false"
"image-keyboard-response",580,455783,"0.0-4.189-1.189","zu6mn1j4qf0f22x",793,"75.csv","","null","resources/maskTrios/L4BB.jpg","null","",NA,NA,NA,NA,""
"image-keyboard-response",581,456999,"0.0-4.189-2.189","zu6mn1j4qf0f22x",793,"75.csv","","null","resources/images/fishbone.png","null","",NA,NA,NA,NA,""
"image-keyboard-response",582,457215,"0.0-4.190-0.190","zu6mn1j4qf0f22x",793,"75.csv","","214.89999997615814","resources/trios/L4T2A2.jpg","38","restless",0.2,0.4,0.2,0.120256055023051,"true"
"image-keyboard-response",583,457618,"0.0-4.190-1.190","zu6mn1j4qf0f22x",793,"75.csv","","null","resources/maskTrios/BT2B.jpg","null","",NA,NA,NA,NA,""
"image-keyboard-response",584,458834,"0.0-4.190-2.190","zu6mn1j4qf0f22x",793,"75.csv","","null","resources/images/coin2.png","null","",NA,NA,NA,NA,""
"image-keyboard-response",585,459237,"0.0-4.191-0.191","zu6mn1j4qf0f22x",793,"75.csv","","401.89999997615814","resources/trios/L4T2A2.jpg","39","restless",0.2,0.5,0.1,0.447161535760288,"false"
"image-keyboard-response",586,459653,"0.0-4.191-1.191","zu6mn1j4qf0f22x",793,"75.csv","","null","resources/maskTrios/BBA2.jpg","null","",NA,NA,NA,NA,""
"image-keyboard-response",587,460858,"0.0-4.191-2.191","zu6mn1j4qf0f22x",793,"75.csv","","null","resources/images/fishbone.png","null","",NA,NA,NA,NA,""
"image-keyboard-response",588,461123,"0.0-4.192-0.192","zu6mn1j4qf0f22x",793,"75.csv","","263.89999997615814","resources/trios/L4T2A2.jpg","39","restless",0.3,0.5,0.1,0.866309517147815,"false"
"image-keyboard-response",589,461532,"0.0-4.192-1.192","zu6mn1j4qf0f22x",793,"75.csv","","null","resources/maskTrios/BBA2.jpg","null","",NA,NA,NA,NA,""
"image-keyboard-response",590,462738,"0.0-4.192-2.192","zu6mn1j4qf0f22x",793,"75.csv","","null","resources/images/fishbone.png","null","",NA,NA,NA,NA,""
"image-keyboard-response",591,463120,"0.0-4.193-0.193","zu6mn1j4qf0f22x",793,"75.csv","","381.30000001192093","resources/trios/L4T2A2.jpg","38","restless",0.4,0.5,0.1,0.809062596782475,"false"
"image-keyboard-response",592,463536,"0.0-4.193-1.193","zu6mn1j4qf0f22x",793,"75.csv","","null","resources/maskTrios/BT2B.jpg","null","",NA,NA,NA,NA,""
"image-keyboard-response",593,464746,"0.0-4.193-2.193","zu6mn1j4qf0f22x",793,"75.csv","","null","resources/images/fishbone.png","null","",NA,NA,NA,NA,""
"image-keyboard-response",594,465028,"0.0-4.194-0.194","zu6mn1j4qf0f22x",793,"75.csv","","281.30000001192093","resources/trios/L4T2A2.jpg","37","restless",0.4,0.5,0.1,0.441179900010284,"false"
"image-keyboard-response",595,465431,"0.0-4.194-1.194","zu6mn1j4qf0f22x",793,"75.csv","","null","resources/maskTrios/L4BB.jpg","null","",NA,NA,NA,NA,""
"image-keyboard-response",596,466640,"0.0-4.194-2.194","zu6mn1j4qf0f22x",793,"75.csv","","null","resources/images/fishbone.png","null","",NA,NA,NA,NA,""
"image-keyboard-response",597,466919,"0.0-4.195-0.195","zu6mn1j4qf0f22x",793,"75.csv","","277.89999997615814","resources/trios/L4T2A2.jpg","37","restless",0.4,0.5,0.2,0.124296908989659,"true"
"image-keyboard-response",598,467329,"0.0-4.195-1.195","zu6mn1j4qf0f22x",793,"75.csv","","null","resources/maskTrios/L4BB.jpg","null","",NA,NA,NA,NA,""
"image-keyboard-response",599,468545,"0.0-4.195-2.195","zu6mn1j4qf0f22x",793,"75.csv","","null","resources/images/coin2.png","null","",NA,NA,NA,NA,""
"image-keyboard-response",600,469060,"0.0-4.196-0.196","zu6mn1j4qf0f22x",793,"75.csv","","513.6000000238419","resources/trios/L4T2A2.jpg","37","restless",0.4,0.5,0.2,0.561618104848238,"false"
"image-keyboard-response",601,469463,"0.0-4.196-1.196","zu6mn1j4qf0f22x",793,"75.csv","","null","resources/maskTrios/L4BB.jpg","null","",NA,NA,NA,NA,""
"image-keyboard-response",602,470675,"0.0-4.196-2.196","zu6mn1j4qf0f22x",793,"75.csv","","null","resources/images/fishbone.png","null","",NA,NA,NA,NA,""
"image-keyboard-response",603,471173,"0.0-4.197-0.197","zu6mn1j4qf0f22x",793,"75.csv","","496.19999998807907","resources/trios/L4T2A2.jpg","37","restless",0.4,0.5,0.2,0.748308200135328,"false"
"image-keyboard-response",604,471581,"0.0-4.197-1.197","zu6mn1j4qf0f22x",793,"75.csv","","null","resources/maskTrios/L4BB.jpg","null","",NA,NA,NA,NA,""
"image-keyboard-response",605,472798,"0.0-4.197-2.197","zu6mn1j4qf0f22x",793,"75.csv","","null","resources/images/fishbone.png","null","",NA,NA,NA,NA,""
"image-keyboard-response",606,473237,"0.0-4.198-0.198","zu6mn1j4qf0f22x",793,"75.csv","","437.5","resources/trios/L4T2A2.jpg","38","restless",0.5,0.5,0.2,0.44247226266707,"true"
"image-keyboard-response",607,473645,"0.0-4.198-1.198","zu6mn1j4qf0f22x",793,"75.csv","","null","resources/maskTrios/BT2B.jpg","null","",NA,NA,NA,NA,""
"image-keyboard-response",608,474850,"0.0-4.198-2.198","zu6mn1j4qf0f22x",793,"75.csv","","null","resources/images/coin2.png","null","",NA,NA,NA,NA,""
"image-keyboard-response",609,475207,"0.0-4.199-0.199","zu6mn1j4qf0f22x",793,"75.csv","","355.80000001192093","resources/trios/L4T2A2.jpg","39","restless",0.5,0.5,0.2,0.438350912545838,"false"
"image-keyboard-response",610,475614,"0.0-4.199-1.199","zu6mn1j4qf0f22x",793,"75.csv","","null","resources/maskTrios/BBA2.jpg","null","",NA,NA,NA,NA,""
"image-keyboard-response",611,476818,"0.0-4.199-2.199","zu6mn1j4qf0f22x",793,"75.csv","","null","resources/images/fishbone.png","null","",NA,NA,NA,NA,""
"survey-text",612,643492,"0.0-5.0","zu6mn1j4qf0f22x",793,"75.csv","","166670.90000003576","","","",NA,NA,NA,NA,""
