"trial_type","trial_index","time_elapsed","internal_node_id","subject","participantCode","walkNumber","success","rt","stimulus","key_press","test_part","leftProb","midProb","rightProb","generatedNum","correct"
"pavlovia",0,1121,"0.0-0.0","x737r1a5kkbbrbh",730,"124.csv","","","","","",NA,NA,NA,NA,""
"fullscreen",1,6315,"0.0-1.0","x737r1a5kkbbrbh",730,"124.csv","true","","","","",NA,NA,NA,NA,""
"survey-html-form",2,17511,"0.0-2.0","x737r1a5kkbbrbh",730,"124.csv","","11195","","","",NA,NA,NA,NA,""
"image-keyboard-response",3,25962,"0.0-3.0-0.0","x737r1a5kkbbrbh",730,"124.csv","","8451","resources/images/parrot_nobg.png","13","",NA,NA,NA,NA,""
"image-keyboard-response",4,28964,"0.0-3.0-1.0","x737r1a5kkbbrbh",730,"124.csv","","null","resources/image_sets/111.png","null","",NA,NA,NA,NA,""
"image-keyboard-response",5,53592,"0.0-3.0-2.0","x737r1a5kkbbrbh",730,"124.csv","","24628","resources/image_sets/left_highlight.png","37","",NA,NA,NA,NA,""
"image-keyboard-response",6,58947,"0.0-3.0-3.0","x737r1a5kkbbrbh",730,"124.csv","","5353.000000000007","resources/image_sets/mid_highlight.png","38","",NA,NA,NA,NA,""
"image-keyboard-response",7,63293,"0.0-3.0-4.0","x737r1a5kkbbrbh",730,"124.csv","","4344.999999999993","resources/image_sets/right_highlight.png","39","",NA,NA,NA,NA,""
"image-keyboard-response",8,66721,"0.0-3.0-5.0","x737r1a5kkbbrbh",730,"124.csv","","3419.9999999999927","resources/image_sets/111.png","13","",NA,NA,NA,NA,""
"image-keyboard-response",9,70988,"0.0-3.0-6.0","x737r1a5kkbbrbh",730,"124.csv","","4267","resources/images/coin2.png","13","",NA,NA,NA,NA,""
"image-keyboard-response",10,75666,"0.0-3.0-7.0","x737r1a5kkbbrbh",730,"124.csv","","4678.000000000015","resources/images/fishbone.png","13","",NA,NA,NA,NA,""
"html-keyboard-response",11,85529,"0.0-3.0-8.0","x737r1a5kkbbrbh",730,"124.csv","","9862.000000000015","<p>You can track your coin total on the top right of your screen. </p><p>At the end of your journey you will be directed to a survey, so please click on the link before exiting the task</p><p>Press Enter to begin</p>","13","",NA,NA,NA,NA,""
"image-keyboard-response",12,87631,"0.0-4.0-0.0","x737r1a5kkbbrbh",730,"124.csv","","2101","resources/trios/L4T2A3.jpg","38","restless",0.3,0.7,0.9,0.962693424195252,"false"
"image-keyboard-response",13,88034,"0.0-4.0-1.0","x737r1a5kkbbrbh",730,"124.csv","","null","resources/maskTrios/BT2B.jpg","null","",NA,NA,NA,NA,""
"image-keyboard-response",14,89236,"0.0-4.0-2.0","x737r1a5kkbbrbh",730,"124.csv","","null","resources/images/fishbone.png","null","",NA,NA,NA,NA,""
"image-keyboard-response",15,90376,"0.0-4.1-0.1","x737r1a5kkbbrbh",730,"124.csv","","1139","resources/trios/L4T2A3.jpg","37","restless",0.3,0.7,0.9,0.440369298640806,"false"
"image-keyboard-response",16,90777,"0.0-4.1-1.1","x737r1a5kkbbrbh",730,"124.csv","","null","resources/maskTrios/L4BB.jpg","null","",NA,NA,NA,NA,""
"image-keyboard-response",17,91978,"0.0-4.1-2.1","x737r1a5kkbbrbh",730,"124.csv","","null","resources/images/fishbone.png","null","",NA,NA,NA,NA,""
"image-keyboard-response",18,92452,"0.0-4.2-0.2","x737r1a5kkbbrbh",730,"124.csv","","473","resources/trios/L4T2A3.jpg","39","restless",0.3,0.7,0.9,0.95734863757981,"false"
"image-keyboard-response",19,92853,"0.0-4.2-1.2","x737r1a5kkbbrbh",730,"124.csv","","null","resources/maskTrios/BBA3.jpg","null","",NA,NA,NA,NA,""
"image-keyboard-response",20,94054,"0.0-4.2-2.2","x737r1a5kkbbrbh",730,"124.csv","","null","resources/images/fishbone.png","null","",NA,NA,NA,NA,""
"image-keyboard-response",21,95644,"0.0-4.3-0.3","x737r1a5kkbbrbh",730,"124.csv","","1589","resources/trios/L4T2A3.jpg","38","restless",0.3,0.7,0.9,0.71709793255246,"false"
"image-keyboard-response",22,96045,"0.0-4.3-1.3","x737r1a5kkbbrbh",730,"124.csv","","null","resources/maskTrios/BT2B.jpg","null","",NA,NA,NA,NA,""
"image-keyboard-response",23,97246,"0.0-4.3-2.3","x737r1a5kkbbrbh",730,"124.csv","","null","resources/images/fishbone.png","null","",NA,NA,NA,NA,""
"image-keyboard-response",24,98512,"0.0-4.4-0.4","x737r1a5kkbbrbh",730,"124.csv","","1267","resources/trios/L4T2A3.jpg","39","restless",0.3,0.7,0.9,0.481955664954751,"true"
"image-keyboard-response",25,98914,"0.0-4.4-1.4","x737r1a5kkbbrbh",730,"124.csv","","null","resources/maskTrios/BBA3.jpg","null","",NA,NA,NA,NA,""
"image-keyboard-response",26,100115,"0.0-4.4-2.4","x737r1a5kkbbrbh",730,"124.csv","","null","resources/images/coin2.png","null","",NA,NA,NA,NA,""
"image-keyboard-response",27,101862,"0.0-4.5-0.5","x737r1a5kkbbrbh",730,"124.csv","","1747","resources/trios/L4T2A3.jpg","37","restless",0.3,0.7,0.9,0.554822752955362,"false"
"image-keyboard-response",28,102263,"0.0-4.5-1.5","x737r1a5kkbbrbh",730,"124.csv","","null","resources/maskTrios/L4BB.jpg","null","",NA,NA,NA,NA,""
"image-keyboard-response",29,103464,"0.0-4.5-2.5","x737r1a5kkbbrbh",730,"124.csv","","null","resources/images/fishbone.png","null","",NA,NA,NA,NA,""
"image-keyboard-response",30,104429,"0.0-4.6-0.6","x737r1a5kkbbrbh",730,"124.csv","","965","resources/trios/L4T2A3.jpg","38","restless",0.3,0.7,0.9,0.684682316151702,"true"
"image-keyboard-response",31,104830,"0.0-4.6-1.6","x737r1a5kkbbrbh",730,"124.csv","","null","resources/maskTrios/BT2B.jpg","null","",NA,NA,NA,NA,""
"image-keyboard-response",32,106031,"0.0-4.6-2.6","x737r1a5kkbbrbh",730,"124.csv","","null","resources/images/coin2.png","null","",NA,NA,NA,NA,""
"image-keyboard-response",33,107706,"0.0-4.7-0.7","x737r1a5kkbbrbh",730,"124.csv","","1675","resources/trios/L4T2A3.jpg","39","restless",0.3,0.8,0.9,0.0741307524462997,"true"
"image-keyboard-response",34,108107,"0.0-4.7-1.7","x737r1a5kkbbrbh",730,"124.csv","","null","resources/maskTrios/BBA3.jpg","null","",NA,NA,NA,NA,""
"image-keyboard-response",35,109309,"0.0-4.7-2.7","x737r1a5kkbbrbh",730,"124.csv","","null","resources/images/coin2.png","null","",NA,NA,NA,NA,""
"image-keyboard-response",36,110313,"0.0-4.8-0.8","x737r1a5kkbbrbh",730,"124.csv","","1003.9999999999854","resources/trios/L4T2A3.jpg","37","restless",0.3,0.7,0.9,0.375918016872526,"false"
"image-keyboard-response",37,110714,"0.0-4.8-1.8","x737r1a5kkbbrbh",730,"124.csv","","null","resources/maskTrios/L4BB.jpg","null","",NA,NA,NA,NA,""
"image-keyboard-response",38,111916,"0.0-4.8-2.8","x737r1a5kkbbrbh",730,"124.csv","","null","resources/images/fishbone.png","null","",NA,NA,NA,NA,""
"image-keyboard-response",39,112565,"0.0-4.9-0.9","x737r1a5kkbbrbh",730,"124.csv","","649","resources/trios/L4T2A3.jpg","38","restless",0.3,0.7,0.9,0.434129328412009,"true"
"image-keyboard-response",40,112966,"0.0-4.9-1.9","x737r1a5kkbbrbh",730,"124.csv","","null","resources/maskTrios/BT2B.jpg","null","",NA,NA,NA,NA,""
"image-keyboard-response",41,114167,"0.0-4.9-2.9","x737r1a5kkbbrbh",730,"124.csv","","null","resources/images/coin2.png","null","",NA,NA,NA,NA,""
"image-keyboard-response",42,115423,"0.0-4.10-0.10","x737r1a5kkbbrbh",730,"124.csv","","1255","resources/trios/L4T2A3.jpg","39","restless",0.3,0.6,0.9,0.00647905835682094,"true"
"image-keyboard-response",43,115824,"0.0-4.10-1.10","x737r1a5kkbbrbh",730,"124.csv","","null","resources/maskTrios/BBA3.jpg","null","",NA,NA,NA,NA,""
"image-keyboard-response",44,117026,"0.0-4.10-2.10","x737r1a5kkbbrbh",730,"124.csv","","null","resources/images/coin2.png","null","",NA,NA,NA,NA,""
"image-keyboard-response",45,117703,"0.0-4.11-0.11","x737r1a5kkbbrbh",730,"124.csv","","676.9999999999854","resources/trios/L4T2A3.jpg","37","restless",0.3,0.6,0.9,0.896234403210158,"false"
"image-keyboard-response",46,118105,"0.0-4.11-1.11","x737r1a5kkbbrbh",730,"124.csv","","null","resources/maskTrios/L4BB.jpg","null","",NA,NA,NA,NA,""
"image-keyboard-response",47,119306,"0.0-4.11-2.11","x737r1a5kkbbrbh",730,"124.csv","","null","resources/images/fishbone.png","null","",NA,NA,NA,NA,""
"image-keyboard-response",48,119636,"0.0-4.12-0.12","x737r1a5kkbbrbh",730,"124.csv","","330","resources/trios/L4T2A3.jpg","38","restless",0.3,0.6,0.9,0.895497835885259,"false"
"image-keyboard-response",49,120037,"0.0-4.12-1.12","x737r1a5kkbbrbh",730,"124.csv","","null","resources/maskTrios/BT2B.jpg","null","",NA,NA,NA,NA,""
"image-keyboard-response",50,121238,"0.0-4.12-2.12","x737r1a5kkbbrbh",730,"124.csv","","null","resources/images/fishbone.png","null","",NA,NA,NA,NA,""
"image-keyboard-response",51,121703,"0.0-4.13-0.13","x737r1a5kkbbrbh",730,"124.csv","","465","resources/trios/L4T2A3.jpg","38","restless",0.3,0.5,0.9,0.0573089806438651,"true"
"image-keyboard-response",52,122104,"0.0-4.13-1.13","x737r1a5kkbbrbh",730,"124.csv","","null","resources/maskTrios/BT2B.jpg","null","",NA,NA,NA,NA,""
"image-keyboard-response",53,123305,"0.0-4.13-2.13","x737r1a5kkbbrbh",730,"124.csv","","null","resources/images/coin2.png","null","",NA,NA,NA,NA,""
"image-keyboard-response",54,123729,"0.0-4.14-0.14","x737r1a5kkbbrbh",730,"124.csv","","422.99999999998545","resources/trios/L4T2A3.jpg","38","restless",0.3,0.4,0.9,0.534609766350237,"false"
"image-keyboard-response",55,124130,"0.0-4.14-1.14","x737r1a5kkbbrbh",730,"124.csv","","null","resources/maskTrios/BT2B.jpg","null","",NA,NA,NA,NA,""
"image-keyboard-response",56,125331,"0.0-4.14-2.14","x737r1a5kkbbrbh",730,"124.csv","","null","resources/images/fishbone.png","null","",NA,NA,NA,NA,""
"image-keyboard-response",57,125730,"0.0-4.15-0.15","x737r1a5kkbbrbh",730,"124.csv","","398","resources/trios/L4T2A3.jpg","37","restless",0.4,0.4,0.8,0.571132732253742,"false"
"image-keyboard-response",58,126131,"0.0-4.15-1.15","x737r1a5kkbbrbh",730,"124.csv","","null","resources/maskTrios/L4BB.jpg","null","",NA,NA,NA,NA,""
"image-keyboard-response",59,127332,"0.0-4.15-2.15","x737r1a5kkbbrbh",730,"124.csv","","null","resources/images/fishbone.png","null","",NA,NA,NA,NA,""
"image-keyboard-response",60,129232,"0.0-4.16-0.16","x737r1a5kkbbrbh",730,"124.csv","","1900","resources/trios/L4T2A3.jpg","37","restless",0.4,0.3,0.8,0.561455878240604,"false"
"image-keyboard-response",61,129633,"0.0-4.16-1.16","x737r1a5kkbbrbh",730,"124.csv","","null","resources/maskTrios/L4BB.jpg","null","",NA,NA,NA,NA,""
"image-keyboard-response",62,130834,"0.0-4.16-2.16","x737r1a5kkbbrbh",730,"124.csv","","null","resources/images/fishbone.png","null","",NA,NA,NA,NA,""
"image-keyboard-response",63,131403,"0.0-4.17-0.17","x737r1a5kkbbrbh",730,"124.csv","","569","resources/trios/L4T2A3.jpg","39","restless",0.4,0.3,0.8,0.133525593734483,"true"
"image-keyboard-response",64,131805,"0.0-4.17-1.17","x737r1a5kkbbrbh",730,"124.csv","","null","resources/maskTrios/BBA3.jpg","null","",NA,NA,NA,NA,""
"image-keyboard-response",65,133005,"0.0-4.17-2.17","x737r1a5kkbbrbh",730,"124.csv","","null","resources/images/coin2.png","null","",NA,NA,NA,NA,""
"image-keyboard-response",66,133421,"0.0-4.18-0.18","x737r1a5kkbbrbh",730,"124.csv","","415","resources/trios/L4T2A3.jpg","38","restless",0.4,0.3,0.8,0.380367436335548,"false"
"image-keyboard-response",67,133823,"0.0-4.18-1.18","x737r1a5kkbbrbh",730,"124.csv","","null","resources/maskTrios/BT2B.jpg","null","",NA,NA,NA,NA,""
"image-keyboard-response",68,135024,"0.0-4.18-2.18","x737r1a5kkbbrbh",730,"124.csv","","null","resources/images/fishbone.png","null","",NA,NA,NA,NA,""
"image-keyboard-response",69,136042,"0.0-4.19-0.19","x737r1a5kkbbrbh",730,"124.csv","","1016.9999999999709","resources/trios/L4T2A3.jpg","37","restless",0.4,0.2,0.8,0.768204670174268,"false"
"image-keyboard-response",70,136444,"0.0-4.19-1.19","x737r1a5kkbbrbh",730,"124.csv","","null","resources/maskTrios/L4BB.jpg","null","",NA,NA,NA,NA,""
"image-keyboard-response",71,137645,"0.0-4.19-2.19","x737r1a5kkbbrbh",730,"124.csv","","null","resources/images/fishbone.png","null","",NA,NA,NA,NA,""
"image-keyboard-response",72,138145,"0.0-4.20-0.20","x737r1a5kkbbrbh",730,"124.csv","","501","resources/trios/L4T2A3.jpg","39","restless",0.5,0.2,0.8,0.827212389845996,"false"
"image-keyboard-response",73,138546,"0.0-4.20-1.20","x737r1a5kkbbrbh",730,"124.csv","","null","resources/maskTrios/BBA3.jpg","null","",NA,NA,NA,NA,""
"image-keyboard-response",74,139746,"0.0-4.20-2.20","x737r1a5kkbbrbh",730,"124.csv","","null","resources/images/fishbone.png","null","",NA,NA,NA,NA,""
"image-keyboard-response",75,140582,"0.0-4.21-0.21","x737r1a5kkbbrbh",730,"124.csv","","836","resources/trios/L4T2A3.jpg","37","restless",0.5,0.3,0.8,0.831718906514866,"false"
"image-keyboard-response",76,140983,"0.0-4.21-1.21","x737r1a5kkbbrbh",730,"124.csv","","null","resources/maskTrios/L4BB.jpg","null","",NA,NA,NA,NA,""
"image-keyboard-response",77,142184,"0.0-4.21-2.21","x737r1a5kkbbrbh",730,"124.csv","","null","resources/images/fishbone.png","null","",NA,NA,NA,NA,""
"image-keyboard-response",78,142527,"0.0-4.22-0.22","x737r1a5kkbbrbh",730,"124.csv","","342","resources/trios/L4T2A3.jpg","38","restless",0.4,0.3,0.8,0.98421898294073,"false"
"image-keyboard-response",79,142928,"0.0-4.22-1.22","x737r1a5kkbbrbh",730,"124.csv","","null","resources/maskTrios/BT2B.jpg","null","",NA,NA,NA,NA,""
"image-keyboard-response",80,144128,"0.0-4.22-2.22","x737r1a5kkbbrbh",730,"124.csv","","null","resources/images/fishbone.png","null","",NA,NA,NA,NA,""
"image-keyboard-response",81,144463,"0.0-4.23-0.23","x737r1a5kkbbrbh",730,"124.csv","","334","resources/trios/L4T2A3.jpg","39","restless",0.4,0.3,0.8,0.0875036949590214,"true"
"image-keyboard-response",82,144865,"0.0-4.23-1.23","x737r1a5kkbbrbh",730,"124.csv","","null","resources/maskTrios/BBA3.jpg","null","",NA,NA,NA,NA,""
"image-keyboard-response",83,146066,"0.0-4.23-2.23","x737r1a5kkbbrbh",730,"124.csv","","null","resources/images/coin2.png","null","",NA,NA,NA,NA,""
"image-keyboard-response",84,146455,"0.0-4.24-0.24","x737r1a5kkbbrbh",730,"124.csv","","389","resources/trios/L4T2A3.jpg","38","restless",0.5,0.3,0.8,0.751774704096214,"false"
"image-keyboard-response",85,146856,"0.0-4.24-1.24","x737r1a5kkbbrbh",730,"124.csv","","null","resources/maskTrios/BT2B.jpg","null","",NA,NA,NA,NA,""
"image-keyboard-response",86,148057,"0.0-4.24-2.24","x737r1a5kkbbrbh",730,"124.csv","","null","resources/images/fishbone.png","null","",NA,NA,NA,NA,""
"image-keyboard-response",87,148482,"0.0-4.25-0.25","x737r1a5kkbbrbh",730,"124.csv","","426.0000000000291","resources/trios/L4T2A3.jpg","38","restless",0.5,0.3,0.8,0.832522527073921,"false"
"image-keyboard-response",88,148884,"0.0-4.25-1.25","x737r1a5kkbbrbh",730,"124.csv","","null","resources/maskTrios/BT2B.jpg","null","",NA,NA,NA,NA,""
"image-keyboard-response",89,150085,"0.0-4.25-2.25","x737r1a5kkbbrbh",730,"124.csv","","null","resources/images/fishbone.png","null","",NA,NA,NA,NA,""
"image-keyboard-response",90,150403,"0.0-4.26-0.26","x737r1a5kkbbrbh",730,"124.csv","","317","resources/trios/L4T2A3.jpg","38","restless",0.5,0.3,0.8,0.581360948612381,"false"
"image-keyboard-response",91,150804,"0.0-4.26-1.26","x737r1a5kkbbrbh",730,"124.csv","","null","resources/maskTrios/BT2B.jpg","null","",NA,NA,NA,NA,""
"image-keyboard-response",92,152005,"0.0-4.26-2.26","x737r1a5kkbbrbh",730,"124.csv","","null","resources/images/fishbone.png","null","",NA,NA,NA,NA,""
"image-keyboard-response",93,152351,"0.0-4.27-0.27","x737r1a5kkbbrbh",730,"124.csv","","346","resources/trios/L4T2A3.jpg","37","restless",0.5,0.3,0.8,0.302493497931377,"true"
"image-keyboard-response",94,152751,"0.0-4.27-1.27","x737r1a5kkbbrbh",730,"124.csv","","null","resources/maskTrios/L4BB.jpg","null","",NA,NA,NA,NA,""
"image-keyboard-response",95,153952,"0.0-4.27-2.27","x737r1a5kkbbrbh",730,"124.csv","","null","resources/images/coin2.png","null","",NA,NA,NA,NA,""
"image-keyboard-response",96,154781,"0.0-4.28-0.28","x737r1a5kkbbrbh",730,"124.csv","","829","resources/trios/L4T2A3.jpg","38","restless",0.5,0.3,0.7,0.644586072886287,"false"
"image-keyboard-response",97,155182,"0.0-4.28-1.28","x737r1a5kkbbrbh",730,"124.csv","","null","resources/maskTrios/BT2B.jpg","null","",NA,NA,NA,NA,""
"image-keyboard-response",98,156383,"0.0-4.28-2.28","x737r1a5kkbbrbh",730,"124.csv","","null","resources/images/fishbone.png","null","",NA,NA,NA,NA,""
"image-keyboard-response",99,157295,"0.0-4.29-0.29","x737r1a5kkbbrbh",730,"124.csv","","911","resources/trios/L4T2A3.jpg","37","restless",0.5,0.3,0.7,0.979896567948262,"false"
"image-keyboard-response",100,157696,"0.0-4.29-1.29","x737r1a5kkbbrbh",730,"124.csv","","null","resources/maskTrios/L4BB.jpg","null","",NA,NA,NA,NA,""
"image-keyboard-response",101,158896,"0.0-4.29-2.29","x737r1a5kkbbrbh",730,"124.csv","","null","resources/images/fishbone.png","null","",NA,NA,NA,NA,""
"image-keyboard-response",102,160089,"0.0-4.30-0.30","x737r1a5kkbbrbh",730,"124.csv","","1192","resources/trios/L4T2A3.jpg","37","restless",0.5,0.3,0.7,0.850516673376875,"false"
"image-keyboard-response",103,160490,"0.0-4.30-1.30","x737r1a5kkbbrbh",730,"124.csv","","null","resources/maskTrios/L4BB.jpg","null","",NA,NA,NA,NA,""
"image-keyboard-response",104,161691,"0.0-4.30-2.30","x737r1a5kkbbrbh",730,"124.csv","","null","resources/images/fishbone.png","null","",NA,NA,NA,NA,""
"image-keyboard-response",105,162276,"0.0-4.31-0.31","x737r1a5kkbbrbh",730,"124.csv","","584","resources/trios/L4T2A3.jpg","39","restless",0.5,0.3,0.7,0.744732017751094,"false"
"image-keyboard-response",106,162677,"0.0-4.31-1.31","x737r1a5kkbbrbh",730,"124.csv","","null","resources/maskTrios/BBA3.jpg","null","",NA,NA,NA,NA,""
"image-keyboard-response",107,163878,"0.0-4.31-2.31","x737r1a5kkbbrbh",730,"124.csv","","null","resources/images/fishbone.png","null","",NA,NA,NA,NA,""
"image-keyboard-response",108,164299,"0.0-4.32-0.32","x737r1a5kkbbrbh",730,"124.csv","","421","resources/trios/L4T2A3.jpg","38","restless",0.5,0.3,0.7,0.516462410095049,"false"
"image-keyboard-response",109,164700,"0.0-4.32-1.32","x737r1a5kkbbrbh",730,"124.csv","","null","resources/maskTrios/BT2B.jpg","null","",NA,NA,NA,NA,""
"image-keyboard-response",110,165901,"0.0-4.32-2.32","x737r1a5kkbbrbh",730,"124.csv","","null","resources/images/fishbone.png","null","",NA,NA,NA,NA,""
"image-keyboard-response",111,166285,"0.0-4.33-0.33","x737r1a5kkbbrbh",730,"124.csv","","384","resources/trios/L4T2A3.jpg","37","restless",0.5,0.3,0.7,0.854836869922229,"false"
"image-keyboard-response",112,166686,"0.0-4.33-1.33","x737r1a5kkbbrbh",730,"124.csv","","null","resources/maskTrios/L4BB.jpg","null","",NA,NA,NA,NA,""
"image-keyboard-response",113,167887,"0.0-4.33-2.33","x737r1a5kkbbrbh",730,"124.csv","","null","resources/images/fishbone.png","null","",NA,NA,NA,NA,""
"image-keyboard-response",114,168194,"0.0-4.34-0.34","x737r1a5kkbbrbh",730,"124.csv","","308","resources/trios/L4T2A3.jpg","38","restless",0.5,0.3,0.7,0.367833709768135,"false"
"image-keyboard-response",115,168596,"0.0-4.34-1.34","x737r1a5kkbbrbh",730,"124.csv","","null","resources/maskTrios/BT2B.jpg","null","",NA,NA,NA,NA,""
"image-keyboard-response",116,169797,"0.0-4.34-2.34","x737r1a5kkbbrbh",730,"124.csv","","null","resources/images/fishbone.png","null","",NA,NA,NA,NA,""
"image-keyboard-response",117,170193,"0.0-4.35-0.35","x737r1a5kkbbrbh",730,"124.csv","","396","resources/trios/L4T2A3.jpg","38","restless",0.5,0.3,0.7,0.866131473201902,"false"
"image-keyboard-response",118,170594,"0.0-4.35-1.35","x737r1a5kkbbrbh",730,"124.csv","","null","resources/maskTrios/BT2B.jpg","null","",NA,NA,NA,NA,""
"image-keyboard-response",119,171795,"0.0-4.35-2.35","x737r1a5kkbbrbh",730,"124.csv","","null","resources/images/fishbone.png","null","",NA,NA,NA,NA,""
"image-keyboard-response",120,172157,"0.0-4.36-0.36","x737r1a5kkbbrbh",730,"124.csv","","362","resources/trios/L4T2A3.jpg","38","restless",0.5,0.3,0.7,0.762226128582551,"false"
"image-keyboard-response",121,172557,"0.0-4.36-1.36","x737r1a5kkbbrbh",730,"124.csv","","null","resources/maskTrios/BT2B.jpg","null","",NA,NA,NA,NA,""
"image-keyboard-response",122,173758,"0.0-4.36-2.36","x737r1a5kkbbrbh",730,"124.csv","","null","resources/images/fishbone.png","null","",NA,NA,NA,NA,""
"image-keyboard-response",123,174066,"0.0-4.37-0.37","x737r1a5kkbbrbh",730,"124.csv","","307","resources/trios/L4T2A3.jpg","39","restless",0.5,0.3,0.7,0.86753200452135,"false"
"image-keyboard-response",124,174467,"0.0-4.37-1.37","x737r1a5kkbbrbh",730,"124.csv","","null","resources/maskTrios/BBA3.jpg","null","",NA,NA,NA,NA,""
"image-keyboard-response",125,175668,"0.0-4.37-2.37","x737r1a5kkbbrbh",730,"124.csv","","null","resources/images/fishbone.png","null","",NA,NA,NA,NA,""
"image-keyboard-response",126,176305,"0.0-4.38-0.38","x737r1a5kkbbrbh",730,"124.csv","","636.9999999999709","resources/trios/L4T2A3.jpg","38","restless",0.5,0.3,0.7,0.972578045153553,"false"
"image-keyboard-response",127,176706,"0.0-4.38-1.38","x737r1a5kkbbrbh",730,"124.csv","","null","resources/maskTrios/BT2B.jpg","null","",NA,NA,NA,NA,""
"image-keyboard-response",128,177907,"0.0-4.38-2.38","x737r1a5kkbbrbh",730,"124.csv","","null","resources/images/fishbone.png","null","",NA,NA,NA,NA,""
"image-keyboard-response",129,178257,"0.0-4.39-0.39","x737r1a5kkbbrbh",730,"124.csv","","349.0000000000291","resources/trios/L4T2A3.jpg","37","restless",0.5,0.3,0.7,0.0947573145756372,"true"
"image-keyboard-response",130,178658,"0.0-4.39-1.39","x737r1a5kkbbrbh",730,"124.csv","","null","resources/maskTrios/L4BB.jpg","null","",NA,NA,NA,NA,""
"image-keyboard-response",131,179859,"0.0-4.39-2.39","x737r1a5kkbbrbh",730,"124.csv","","null","resources/images/coin2.png","null","",NA,NA,NA,NA,""
"image-keyboard-response",132,181784,"0.0-4.40-0.40","x737r1a5kkbbrbh",730,"124.csv","","1924","resources/trios/L4T2A3.jpg","37","restless",0.5,0.3,0.7,0.0490342340723958,"true"
"image-keyboard-response",133,182186,"0.0-4.40-1.40","x737r1a5kkbbrbh",730,"124.csv","","null","resources/maskTrios/L4BB.jpg","null","",NA,NA,NA,NA,""
"image-keyboard-response",134,183386,"0.0-4.40-2.40","x737r1a5kkbbrbh",730,"124.csv","","null","resources/images/coin2.png","null","",NA,NA,NA,NA,""
"image-keyboard-response",135,184173,"0.0-4.41-0.41","x737r1a5kkbbrbh",730,"124.csv","","786","resources/trios/L4T2A3.jpg","37","restless",0.6,0.3,0.7,0.788945155373435,"false"
"image-keyboard-response",136,184574,"0.0-4.41-1.41","x737r1a5kkbbrbh",730,"124.csv","","null","resources/maskTrios/L4BB.jpg","null","",NA,NA,NA,NA,""
"image-keyboard-response",137,185778,"0.0-4.41-2.41","x737r1a5kkbbrbh",730,"124.csv","","null","resources/images/fishbone.png","null","",NA,NA,NA,NA,""
"image-keyboard-response",138,186221,"0.0-4.42-0.42","x737r1a5kkbbrbh",730,"124.csv","","442.0000000000291","resources/trios/L4T2A3.jpg","38","restless",0.7,0.3,0.7,0.36577514288168,"false"
"image-keyboard-response",139,186623,"0.0-4.42-1.42","x737r1a5kkbbrbh",730,"124.csv","","null","resources/maskTrios/BT2B.jpg","null","",NA,NA,NA,NA,""
"image-keyboard-response",140,187823,"0.0-4.42-2.42","x737r1a5kkbbrbh",730,"124.csv","","null","resources/images/fishbone.png","null","",NA,NA,NA,NA,""
"image-keyboard-response",141,188227,"0.0-4.43-0.43","x737r1a5kkbbrbh",730,"124.csv","","403.0000000000291","resources/trios/L4T2A3.jpg","39","restless",0.7,0.3,0.7,0.708161242204813,"false"
"image-keyboard-response",142,188627,"0.0-4.43-1.43","x737r1a5kkbbrbh",730,"124.csv","","null","resources/maskTrios/BBA3.jpg","null","",NA,NA,NA,NA,""
"image-keyboard-response",143,189828,"0.0-4.43-2.43","x737r1a5kkbbrbh",730,"124.csv","","null","resources/images/fishbone.png","null","",NA,NA,NA,NA,""
"image-keyboard-response",144,190212,"0.0-4.44-0.44","x737r1a5kkbbrbh",730,"124.csv","","384","resources/trios/L4T2A3.jpg","38","restless",0.7,0.3,0.7,0.252831272864273,"true"
"image-keyboard-response",145,190613,"0.0-4.44-1.44","x737r1a5kkbbrbh",730,"124.csv","","null","resources/maskTrios/BT2B.jpg","null","",NA,NA,NA,NA,""
"image-keyboard-response",146,191814,"0.0-4.44-2.44","x737r1a5kkbbrbh",730,"124.csv","","null","resources/images/coin2.png","null","",NA,NA,NA,NA,""
"image-keyboard-response",147,192221,"0.0-4.45-0.45","x737r1a5kkbbrbh",730,"124.csv","","406.0000000000291","resources/trios/L4T2A3.jpg","38","restless",0.7,0.3,0.7,0.0575973998611002,"true"
"image-keyboard-response",148,192622,"0.0-4.45-1.45","x737r1a5kkbbrbh",730,"124.csv","","null","resources/maskTrios/BT2B.jpg","null","",NA,NA,NA,NA,""
"image-keyboard-response",149,193823,"0.0-4.45-2.45","x737r1a5kkbbrbh",730,"124.csv","","null","resources/images/coin2.png","null","",NA,NA,NA,NA,""
"image-keyboard-response",150,194349,"0.0-4.46-0.46","x737r1a5kkbbrbh",730,"124.csv","","526","resources/trios/L4T2A3.jpg","37","restless",0.7,0.3,0.6,0.0746603170989958,"true"
"image-keyboard-response",151,194749,"0.0-4.46-1.46","x737r1a5kkbbrbh",730,"124.csv","","null","resources/maskTrios/L4BB.jpg","null","",NA,NA,NA,NA,""
"image-keyboard-response",152,195950,"0.0-4.46-2.46","x737r1a5kkbbrbh",730,"124.csv","","null","resources/images/coin2.png","null","",NA,NA,NA,NA,""
"image-keyboard-response",153,196324,"0.0-4.47-0.47","x737r1a5kkbbrbh",730,"124.csv","","373","resources/trios/L4T2A3.jpg","39","restless",0.8,0.3,0.6,0.163165916302684,"true"
"image-keyboard-response",154,196724,"0.0-4.47-1.47","x737r1a5kkbbrbh",730,"124.csv","","null","resources/maskTrios/BBA3.jpg","null","",NA,NA,NA,NA,""
"image-keyboard-response",155,197925,"0.0-4.47-2.47","x737r1a5kkbbrbh",730,"124.csv","","null","resources/images/coin2.png","null","",NA,NA,NA,NA,""
"image-keyboard-response",156,199476,"0.0-4.48-0.48","x737r1a5kkbbrbh",730,"124.csv","","1550","resources/trios/L4T2A3.jpg","38","restless",0.8,0.3,0.6,0.574171828633914,"false"
"image-keyboard-response",157,199877,"0.0-4.48-1.48","x737r1a5kkbbrbh",730,"124.csv","","null","resources/maskTrios/BT2B.jpg","null","",NA,NA,NA,NA,""
"image-keyboard-response",158,201078,"0.0-4.48-2.48","x737r1a5kkbbrbh",730,"124.csv","","null","resources/images/fishbone.png","null","",NA,NA,NA,NA,""
"image-keyboard-response",159,201328,"0.0-4.49-0.49","x737r1a5kkbbrbh",730,"124.csv","","250","resources/trios/L4T2A3.jpg","37","restless",0.8,0.3,0.6,0.637491338334181,"true"
"image-keyboard-response",160,201729,"0.0-4.49-1.49","x737r1a5kkbbrbh",730,"124.csv","","null","resources/maskTrios/L4BB.jpg","null","",NA,NA,NA,NA,""
"image-keyboard-response",161,202930,"0.0-4.49-2.49","x737r1a5kkbbrbh",730,"124.csv","","null","resources/images/coin2.png","null","",NA,NA,NA,NA,""
"image-keyboard-response",162,203433,"0.0-4.50-0.50","x737r1a5kkbbrbh",730,"124.csv","","503","resources/trios/L4T2A3.jpg","39","restless",0.8,0.3,0.6,0.98488157650209,"false"
"image-keyboard-response",163,203834,"0.0-4.50-1.50","x737r1a5kkbbrbh",730,"124.csv","","null","resources/maskTrios/BBA3.jpg","null","",NA,NA,NA,NA,""
"image-keyboard-response",164,205035,"0.0-4.50-2.50","x737r1a5kkbbrbh",730,"124.csv","","null","resources/images/fishbone.png","null","",NA,NA,NA,NA,""
"image-keyboard-response",165,205468,"0.0-4.51-0.51","x737r1a5kkbbrbh",730,"124.csv","","433","resources/trios/L4T2A3.jpg","38","restless",0.8,0.3,0.7,0.719686618470317,"false"
"image-keyboard-response",166,205870,"0.0-4.51-1.51","x737r1a5kkbbrbh",730,"124.csv","","null","resources/maskTrios/BT2B.jpg","null","",NA,NA,NA,NA,""
"image-keyboard-response",167,207071,"0.0-4.51-2.51","x737r1a5kkbbrbh",730,"124.csv","","null","resources/images/fishbone.png","null","",NA,NA,NA,NA,""
"image-keyboard-response",168,207461,"0.0-4.52-0.52","x737r1a5kkbbrbh",730,"124.csv","","390","resources/trios/L4T2A3.jpg","37","restless",0.9,0.3,0.7,0.951856583447042,"false"
"image-keyboard-response",169,207862,"0.0-4.52-1.52","x737r1a5kkbbrbh",730,"124.csv","","null","resources/maskTrios/L4BB.jpg","null","",NA,NA,NA,NA,""
"image-keyboard-response",170,209063,"0.0-4.52-2.52","x737r1a5kkbbrbh",730,"124.csv","","null","resources/images/fishbone.png","null","",NA,NA,NA,NA,""
"image-keyboard-response",171,209465,"0.0-4.53-0.53","x737r1a5kkbbrbh",730,"124.csv","","402","resources/trios/L4T2A3.jpg","39","restless",0.9,0.3,0.7,0.478465367684257,"true"
"image-keyboard-response",172,209867,"0.0-4.53-1.53","x737r1a5kkbbrbh",730,"124.csv","","null","resources/maskTrios/BBA3.jpg","null","",NA,NA,NA,NA,""
"image-keyboard-response",173,211068,"0.0-4.53-2.53","x737r1a5kkbbrbh",730,"124.csv","","null","resources/images/coin2.png","null","",NA,NA,NA,NA,""
"image-keyboard-response",174,211445,"0.0-4.54-0.54","x737r1a5kkbbrbh",730,"124.csv","","377","resources/trios/L4T2A3.jpg","38","restless",0.9,0.3,0.7,0.854499070600527,"false"
"image-keyboard-response",175,211846,"0.0-4.54-1.54","x737r1a5kkbbrbh",730,"124.csv","","null","resources/maskTrios/BT2B.jpg","null","",NA,NA,NA,NA,""
"image-keyboard-response",176,213047,"0.0-4.54-2.54","x737r1a5kkbbrbh",730,"124.csv","","null","resources/images/fishbone.png","null","",NA,NA,NA,NA,""
"image-keyboard-response",177,213473,"0.0-4.55-0.55","x737r1a5kkbbrbh",730,"124.csv","","425","resources/trios/L4T2A3.jpg","37","restless",0.9,0.3,0.7,0.419939756118287,"true"
"image-keyboard-response",178,213874,"0.0-4.55-1.55","x737r1a5kkbbrbh",730,"124.csv","","null","resources/maskTrios/L4BB.jpg","null","",NA,NA,NA,NA,""
"image-keyboard-response",179,215075,"0.0-4.55-2.55","x737r1a5kkbbrbh",730,"124.csv","","null","resources/images/coin2.png","null","",NA,NA,NA,NA,""
"image-keyboard-response",180,215438,"0.0-4.56-0.56","x737r1a5kkbbrbh",730,"124.csv","","362","resources/trios/L4T2A3.jpg","38","restless",0.9,0.2,0.7,0.616556642916846,"false"
"image-keyboard-response",181,215839,"0.0-4.56-1.56","x737r1a5kkbbrbh",730,"124.csv","","null","resources/maskTrios/BT2B.jpg","null","",NA,NA,NA,NA,""
"image-keyboard-response",182,217041,"0.0-4.56-2.56","x737r1a5kkbbrbh",730,"124.csv","","null","resources/images/fishbone.png","null","",NA,NA,NA,NA,""
"image-keyboard-response",183,217499,"0.0-4.57-0.57","x737r1a5kkbbrbh",730,"124.csv","","458","resources/trios/L4T2A3.jpg","39","restless",0.8,0.3,0.6,0.301215838883606,"true"
"image-keyboard-response",184,217899,"0.0-4.57-1.57","x737r1a5kkbbrbh",730,"124.csv","","null","resources/maskTrios/BBA3.jpg","null","",NA,NA,NA,NA,""
"image-keyboard-response",185,219100,"0.0-4.57-2.57","x737r1a5kkbbrbh",730,"124.csv","","null","resources/images/coin2.png","null","",NA,NA,NA,NA,""
"image-keyboard-response",186,219569,"0.0-4.58-0.58","x737r1a5kkbbrbh",730,"124.csv","","468","resources/trios/L4T2A3.jpg","37","restless",0.9,0.3,0.6,0.00390950325199235,"true"
"image-keyboard-response",187,219970,"0.0-4.58-1.58","x737r1a5kkbbrbh",730,"124.csv","","null","resources/maskTrios/L4BB.jpg","null","",NA,NA,NA,NA,""
"image-keyboard-response",188,221170,"0.0-4.58-2.58","x737r1a5kkbbrbh",730,"124.csv","","null","resources/images/coin2.png","null","",NA,NA,NA,NA,""
"image-keyboard-response",189,221599,"0.0-4.59-0.59","x737r1a5kkbbrbh",730,"124.csv","","427","resources/trios/L4T2A3.jpg","38","restless",0.9,0.3,0.6,0.905336215939489,"false"
"image-keyboard-response",190,221999,"0.0-4.59-1.59","x737r1a5kkbbrbh",730,"124.csv","","null","resources/maskTrios/BT2B.jpg","null","",NA,NA,NA,NA,""
"image-keyboard-response",191,223201,"0.0-4.59-2.59","x737r1a5kkbbrbh",730,"124.csv","","null","resources/images/fishbone.png","null","",NA,NA,NA,NA,""
"image-keyboard-response",192,223605,"0.0-4.60-0.60","x737r1a5kkbbrbh",730,"124.csv","","404","resources/trios/L4T2A3.jpg","39","restless",0.9,0.3,0.6,0.451838938819619,"true"
"image-keyboard-response",193,224006,"0.0-4.60-1.60","x737r1a5kkbbrbh",730,"124.csv","","null","resources/maskTrios/BBA3.jpg","null","",NA,NA,NA,NA,""
"image-keyboard-response",194,225207,"0.0-4.60-2.60","x737r1a5kkbbrbh",730,"124.csv","","null","resources/images/coin2.png","null","",NA,NA,NA,NA,""
"image-keyboard-response",195,225622,"0.0-4.61-0.61","x737r1a5kkbbrbh",730,"124.csv","","414","resources/trios/L4T2A3.jpg","37","restless",0.9,0.3,0.6,0.393242026211181,"true"
"image-keyboard-response",196,226022,"0.0-4.61-1.61","x737r1a5kkbbrbh",730,"124.csv","","null","resources/maskTrios/L4BB.jpg","null","",NA,NA,NA,NA,""
"image-keyboard-response",197,227223,"0.0-4.61-2.61","x737r1a5kkbbrbh",730,"124.csv","","null","resources/images/coin2.png","null","",NA,NA,NA,NA,""
"image-keyboard-response",198,228700,"0.0-4.62-0.62","x737r1a5kkbbrbh",730,"124.csv","","1476","resources/trios/L4T2A3.jpg","38","restless",0.9,0.4,0.6,0.466994207379847,"false"
"image-keyboard-response",199,229101,"0.0-4.62-1.62","x737r1a5kkbbrbh",730,"124.csv","","null","resources/maskTrios/BT2B.jpg","null","",NA,NA,NA,NA,""
"image-keyboard-response",200,230302,"0.0-4.62-2.62","x737r1a5kkbbrbh",730,"124.csv","","null","resources/images/fishbone.png","null","",NA,NA,NA,NA,""
"image-keyboard-response",201,230663,"0.0-4.63-0.63","x737r1a5kkbbrbh",730,"124.csv","","361","resources/trios/L4T2A3.jpg","39","restless",0.9,0.4,0.6,0.120032568228199,"true"
"image-keyboard-response",202,231064,"0.0-4.63-1.63","x737r1a5kkbbrbh",730,"124.csv","","null","resources/maskTrios/BBA3.jpg","null","",NA,NA,NA,NA,""
"image-keyboard-response",203,232264,"0.0-4.63-2.63","x737r1a5kkbbrbh",730,"124.csv","","null","resources/images/coin2.png","null","",NA,NA,NA,NA,""
"image-keyboard-response",204,232826,"0.0-4.64-0.64","x737r1a5kkbbrbh",730,"124.csv","","561","resources/trios/L4T2A3.jpg","37","restless",0.9,0.4,0.6,0.357074646883668,"true"
"image-keyboard-response",205,233227,"0.0-4.64-1.64","x737r1a5kkbbrbh",730,"124.csv","","null","resources/maskTrios/L4BB.jpg","null","",NA,NA,NA,NA,""
"image-keyboard-response",206,234429,"0.0-4.64-2.64","x737r1a5kkbbrbh",730,"124.csv","","null","resources/images/coin2.png","null","",NA,NA,NA,NA,""
"image-keyboard-response",207,235504,"0.0-4.65-0.65","x737r1a5kkbbrbh",730,"124.csv","","1075","resources/trios/L4T2A3.jpg","38","restless",0.9,0.4,0.6,0.0266348280803272,"true"
"image-keyboard-response",208,235905,"0.0-4.65-1.65","x737r1a5kkbbrbh",730,"124.csv","","null","resources/maskTrios/BT2B.jpg","null","",NA,NA,NA,NA,""
"image-keyboard-response",209,237106,"0.0-4.65-2.65","x737r1a5kkbbrbh",730,"124.csv","","null","resources/images/coin2.png","null","",NA,NA,NA,NA,""
"image-keyboard-response",210,237448,"0.0-4.66-0.66","x737r1a5kkbbrbh",730,"124.csv","","341.0000000000291","resources/trios/L4T2A3.jpg","39","restless",0.9,0.4,0.6,0.249323211539365,"true"
"image-keyboard-response",211,237849,"0.0-4.66-1.66","x737r1a5kkbbrbh",730,"124.csv","","null","resources/maskTrios/BBA3.jpg","null","",NA,NA,NA,NA,""
"image-keyboard-response",212,239050,"0.0-4.66-2.66","x737r1a5kkbbrbh",730,"124.csv","","null","resources/images/coin2.png","null","",NA,NA,NA,NA,""
"image-keyboard-response",213,239445,"0.0-4.67-0.67","x737r1a5kkbbrbh",730,"124.csv","","395","resources/trios/L4T2A3.jpg","37","restless",0.9,0.4,0.6,0.587923970181804,"true"
"image-keyboard-response",214,239846,"0.0-4.67-1.67","x737r1a5kkbbrbh",730,"124.csv","","null","resources/maskTrios/L4BB.jpg","null","",NA,NA,NA,NA,""
"image-keyboard-response",215,241047,"0.0-4.67-2.67","x737r1a5kkbbrbh",730,"124.csv","","null","resources/images/coin2.png","null","",NA,NA,NA,NA,""
"image-keyboard-response",216,241448,"0.0-4.68-0.68","x737r1a5kkbbrbh",730,"124.csv","","400.0000000000291","resources/trios/L4T2A3.jpg","38","restless",0.9,0.4,0.6,0.967754696333514,"false"
"image-keyboard-response",217,241849,"0.0-4.68-1.68","x737r1a5kkbbrbh",730,"124.csv","","null","resources/maskTrios/BT2B.jpg","null","",NA,NA,NA,NA,""
"image-keyboard-response",218,243051,"0.0-4.68-2.68","x737r1a5kkbbrbh",730,"124.csv","","null","resources/images/fishbone.png","null","",NA,NA,NA,NA,""
"image-keyboard-response",219,243595,"0.0-4.69-0.69","x737r1a5kkbbrbh",730,"124.csv","","543","resources/trios/L4T2A3.jpg","39","restless",0.9,0.4,0.6,0.024928745052968,"true"
"image-keyboard-response",220,243996,"0.0-4.69-1.69","x737r1a5kkbbrbh",730,"124.csv","","null","resources/maskTrios/BBA3.jpg","null","",NA,NA,NA,NA,""
"image-keyboard-response",221,245196,"0.0-4.69-2.69","x737r1a5kkbbrbh",730,"124.csv","","null","resources/images/coin2.png","null","",NA,NA,NA,NA,""
"image-keyboard-response",222,245657,"0.0-4.70-0.70","x737r1a5kkbbrbh",730,"124.csv","","460","resources/trios/L4T2A3.jpg","37","restless",0.9,0.4,0.5,0.641413918477364,"true"
"image-keyboard-response",223,246057,"0.0-4.70-1.70","x737r1a5kkbbrbh",730,"124.csv","","null","resources/maskTrios/L4BB.jpg","null","",NA,NA,NA,NA,""
"image-keyboard-response",224,247258,"0.0-4.70-2.70","x737r1a5kkbbrbh",730,"124.csv","","null","resources/images/coin2.png","null","",NA,NA,NA,NA,""
"image-keyboard-response",225,247748,"0.0-4.71-0.71","x737r1a5kkbbrbh",730,"124.csv","","490","resources/trios/L4T2A3.jpg","38","restless",0.9,0.4,0.5,0.696554509068397,"false"
"image-keyboard-response",226,248150,"0.0-4.71-1.71","x737r1a5kkbbrbh",730,"124.csv","","null","resources/maskTrios/BT2B.jpg","null","",NA,NA,NA,NA,""
"image-keyboard-response",227,249351,"0.0-4.71-2.71","x737r1a5kkbbrbh",730,"124.csv","","null","resources/images/fishbone.png","null","",NA,NA,NA,NA,""
"image-keyboard-response",228,249749,"0.0-4.72-0.72","x737r1a5kkbbrbh",730,"124.csv","","397.9999999999709","resources/trios/L4T2A3.jpg","39","restless",0.9,0.4,0.5,0.534122871312446,"false"
"image-keyboard-response",229,250150,"0.0-4.72-1.72","x737r1a5kkbbrbh",730,"124.csv","","null","resources/maskTrios/BBA3.jpg","null","",NA,NA,NA,NA,""
"image-keyboard-response",230,251351,"0.0-4.72-2.72","x737r1a5kkbbrbh",730,"124.csv","","null","resources/images/fishbone.png","null","",NA,NA,NA,NA,""
"image-keyboard-response",231,251756,"0.0-4.73-0.73","x737r1a5kkbbrbh",730,"124.csv","","403.9999999999709","resources/trios/L4T2A3.jpg","37","restless",0.9,0.4,0.5,0.298366717994171,"true"
"image-keyboard-response",232,252156,"0.0-4.73-1.73","x737r1a5kkbbrbh",730,"124.csv","","null","resources/maskTrios/L4BB.jpg","null","",NA,NA,NA,NA,""
"image-keyboard-response",233,253357,"0.0-4.73-2.73","x737r1a5kkbbrbh",730,"124.csv","","null","resources/images/coin2.png","null","",NA,NA,NA,NA,""
"image-keyboard-response",234,255141,"0.0-4.74-0.74","x737r1a5kkbbrbh",730,"124.csv","","1782.999999999971","resources/trios/L4T2A3.jpg","39","restless",0.9,0.4,0.5,0.740096484555675,"false"
"image-keyboard-response",235,255542,"0.0-4.74-1.74","x737r1a5kkbbrbh",730,"124.csv","","null","resources/maskTrios/BBA3.jpg","null","",NA,NA,NA,NA,""
"image-keyboard-response",236,256743,"0.0-4.74-2.74","x737r1a5kkbbrbh",730,"124.csv","","null","resources/images/fishbone.png","null","",NA,NA,NA,NA,""
"image-keyboard-response",237,257211,"0.0-4.75-0.75","x737r1a5kkbbrbh",730,"124.csv","","468.0000000000291","resources/trios/L4T2A3.jpg","37","restless",0.9,0.5,0.5,0.74095359192689,"true"
"image-keyboard-response",238,257612,"0.0-4.75-1.75","x737r1a5kkbbrbh",730,"124.csv","","null","resources/maskTrios/L4BB.jpg","null","",NA,NA,NA,NA,""
"image-keyboard-response",239,258813,"0.0-4.75-2.75","x737r1a5kkbbrbh",730,"124.csv","","null","resources/images/coin2.png","null","",NA,NA,NA,NA,""
"image-keyboard-response",240,259258,"0.0-4.76-0.76","x737r1a5kkbbrbh",730,"124.csv","","445","resources/trios/L4T2A3.jpg","38","restless",0.9,0.5,0.5,0.489886804572931,"true"
"image-keyboard-response",241,259660,"0.0-4.76-1.76","x737r1a5kkbbrbh",730,"124.csv","","null","resources/maskTrios/BT2B.jpg","null","",NA,NA,NA,NA,""
"image-keyboard-response",242,260860,"0.0-4.76-2.76","x737r1a5kkbbrbh",730,"124.csv","","null","resources/images/coin2.png","null","",NA,NA,NA,NA,""
"image-keyboard-response",243,261294,"0.0-4.77-0.77","x737r1a5kkbbrbh",730,"124.csv","","433.9999999999418","resources/trios/L4T2A3.jpg","39","restless",0.9,0.6,0.5,0.100146193579134,"true"
"image-keyboard-response",244,261695,"0.0-4.77-1.77","x737r1a5kkbbrbh",730,"124.csv","","null","resources/maskTrios/BBA3.jpg","null","",NA,NA,NA,NA,""
"image-keyboard-response",245,262896,"0.0-4.77-2.77","x737r1a5kkbbrbh",730,"124.csv","","null","resources/images/coin2.png","null","",NA,NA,NA,NA,""
"image-keyboard-response",246,263464,"0.0-4.78-0.78","x737r1a5kkbbrbh",730,"124.csv","","566.9999999999418","resources/trios/L4T2A3.jpg","37","restless",0.9,0.6,0.5,0.95426651158472,"false"
"image-keyboard-response",247,263864,"0.0-4.78-1.78","x737r1a5kkbbrbh",730,"124.csv","","null","resources/maskTrios/L4BB.jpg","null","",NA,NA,NA,NA,""
"image-keyboard-response",248,265065,"0.0-4.78-2.78","x737r1a5kkbbrbh",730,"124.csv","","null","resources/images/fishbone.png","null","",NA,NA,NA,NA,""
"image-keyboard-response",249,265628,"0.0-4.79-0.79","x737r1a5kkbbrbh",730,"124.csv","","563","resources/trios/L4T2A3.jpg","38","restless",0.9,0.6,0.5,0.733924650056834,"false"
"image-keyboard-response",250,266029,"0.0-4.79-1.79","x737r1a5kkbbrbh",730,"124.csv","","null","resources/maskTrios/BT2B.jpg","null","",NA,NA,NA,NA,""
"image-keyboard-response",251,267231,"0.0-4.79-2.79","x737r1a5kkbbrbh",730,"124.csv","","null","resources/images/fishbone.png","null","",NA,NA,NA,NA,""
"image-keyboard-response",252,267600,"0.0-4.80-0.80","x737r1a5kkbbrbh",730,"124.csv","","368","resources/trios/L4T2A3.jpg","39","restless",0.9,0.6,0.5,0.187884260238425,"true"
"image-keyboard-response",253,268001,"0.0-4.80-1.80","x737r1a5kkbbrbh",730,"124.csv","","null","resources/maskTrios/BBA3.jpg","null","",NA,NA,NA,NA,""
"image-keyboard-response",254,269201,"0.0-4.80-2.80","x737r1a5kkbbrbh",730,"124.csv","","null","resources/images/coin2.png","null","",NA,NA,NA,NA,""
"image-keyboard-response",255,269634,"0.0-4.81-0.81","x737r1a5kkbbrbh",730,"124.csv","","432","resources/trios/L4T2A3.jpg","37","restless",0.9,0.6,0.5,0.69941927471843,"true"
"image-keyboard-response",256,270035,"0.0-4.81-1.81","x737r1a5kkbbrbh",730,"124.csv","","null","resources/maskTrios/L4BB.jpg","null","",NA,NA,NA,NA,""
"image-keyboard-response",257,271236,"0.0-4.81-2.81","x737r1a5kkbbrbh",730,"124.csv","","null","resources/images/coin2.png","null","",NA,NA,NA,NA,""
"image-keyboard-response",258,271682,"0.0-4.82-0.82","x737r1a5kkbbrbh",730,"124.csv","","446.0000000000582","resources/trios/L4T2A3.jpg","38","restless",0.9,0.6,0.5,0.398082926193273,"true"
"image-keyboard-response",259,272083,"0.0-4.82-1.82","x737r1a5kkbbrbh",730,"124.csv","","null","resources/maskTrios/BT2B.jpg","null","",NA,NA,NA,NA,""
"image-keyboard-response",260,273284,"0.0-4.82-2.82","x737r1a5kkbbrbh",730,"124.csv","","null","resources/images/coin2.png","null","",NA,NA,NA,NA,""
"image-keyboard-response",261,273918,"0.0-4.83-0.83","x737r1a5kkbbrbh",730,"124.csv","","633","resources/trios/L4T2A3.jpg","39","restless",0.9,0.6,0.5,0.953308341261308,"false"
"image-keyboard-response",262,274318,"0.0-4.83-1.83","x737r1a5kkbbrbh",730,"124.csv","","null","resources/maskTrios/BBA3.jpg","null","",NA,NA,NA,NA,""
"image-keyboard-response",263,275520,"0.0-4.83-2.83","x737r1a5kkbbrbh",730,"124.csv","","null","resources/images/fishbone.png","null","",NA,NA,NA,NA,""
"image-keyboard-response",264,275905,"0.0-4.84-0.84","x737r1a5kkbbrbh",730,"124.csv","","384","resources/trios/L4T2A3.jpg","37","restless",0.9,0.6,0.5,0.635992808940959,"true"
"image-keyboard-response",265,276306,"0.0-4.84-1.84","x737r1a5kkbbrbh",730,"124.csv","","null","resources/maskTrios/L4BB.jpg","null","",NA,NA,NA,NA,""
"image-keyboard-response",266,277507,"0.0-4.84-2.84","x737r1a5kkbbrbh",730,"124.csv","","null","resources/images/coin2.png","null","",NA,NA,NA,NA,""
"image-keyboard-response",267,277906,"0.0-4.85-0.85","x737r1a5kkbbrbh",730,"124.csv","","398","resources/trios/L4T2A3.jpg","38","restless",0.9,0.6,0.5,0.0373456878052771,"true"
"image-keyboard-response",268,278307,"0.0-4.85-1.85","x737r1a5kkbbrbh",730,"124.csv","","null","resources/maskTrios/BT2B.jpg","null","",NA,NA,NA,NA,""
"image-keyboard-response",269,279508,"0.0-4.85-2.85","x737r1a5kkbbrbh",730,"124.csv","","null","resources/images/coin2.png","null","",NA,NA,NA,NA,""
"image-keyboard-response",270,279901,"0.0-4.86-0.86","x737r1a5kkbbrbh",730,"124.csv","","392","resources/trios/L4T2A3.jpg","39","restless",0.9,0.6,0.5,0.45475548907014,"true"
"image-keyboard-response",271,280302,"0.0-4.86-1.86","x737r1a5kkbbrbh",730,"124.csv","","null","resources/maskTrios/BBA3.jpg","null","",NA,NA,NA,NA,""
"image-keyboard-response",272,281502,"0.0-4.86-2.86","x737r1a5kkbbrbh",730,"124.csv","","null","resources/images/coin2.png","null","",NA,NA,NA,NA,""
"image-keyboard-response",273,284012,"0.0-4.87-0.87","x737r1a5kkbbrbh",730,"124.csv","","2510","resources/trios/L4T2A3.jpg","37","restless",0.9,0.6,0.5,0.949177211746839,"false"
"image-keyboard-response",274,284413,"0.0-4.87-1.87","x737r1a5kkbbrbh",730,"124.csv","","null","resources/maskTrios/L4BB.jpg","null","",NA,NA,NA,NA,""
"image-keyboard-response",275,285614,"0.0-4.87-2.87","x737r1a5kkbbrbh",730,"124.csv","","null","resources/images/fishbone.png","null","",NA,NA,NA,NA,""
"image-keyboard-response",276,285960,"0.0-4.88-0.88","x737r1a5kkbbrbh",730,"124.csv","","346","resources/trios/L4T2A3.jpg","38","restless",0.9,0.6,0.5,0.0683456830488256,"true"
"image-keyboard-response",277,286362,"0.0-4.88-1.88","x737r1a5kkbbrbh",730,"124.csv","","null","resources/maskTrios/BT2B.jpg","null","",NA,NA,NA,NA,""
"image-keyboard-response",278,287562,"0.0-4.88-2.88","x737r1a5kkbbrbh",730,"124.csv","","null","resources/images/coin2.png","null","",NA,NA,NA,NA,""
"image-keyboard-response",279,288413,"0.0-4.89-0.89","x737r1a5kkbbrbh",730,"124.csv","","851","resources/trios/L4T2A3.jpg","39","restless",0.9,0.6,0.5,0.160021317386554,"true"
"image-keyboard-response",280,288814,"0.0-4.89-1.89","x737r1a5kkbbrbh",730,"124.csv","","null","resources/maskTrios/BBA3.jpg","null","",NA,NA,NA,NA,""
"image-keyboard-response",281,290015,"0.0-4.89-2.89","x737r1a5kkbbrbh",730,"124.csv","","null","resources/images/coin2.png","null","",NA,NA,NA,NA,""
"image-keyboard-response",282,290444,"0.0-4.90-0.90","x737r1a5kkbbrbh",730,"124.csv","","429.0000000000582","resources/trios/L4T2A3.jpg","37","restless",0.9,0.6,0.5,0.918358606835374,"false"
"image-keyboard-response",283,290845,"0.0-4.90-1.90","x737r1a5kkbbrbh",730,"124.csv","","null","resources/maskTrios/L4BB.jpg","null","",NA,NA,NA,NA,""
"image-keyboard-response",284,292047,"0.0-4.90-2.90","x737r1a5kkbbrbh",730,"124.csv","","null","resources/images/fishbone.png","null","",NA,NA,NA,NA,""
"image-keyboard-response",285,293413,"0.0-4.91-0.91","x737r1a5kkbbrbh",730,"124.csv","","1365","resources/trios/L4T2A3.jpg","39","restless",0.8,0.7,0.5,0.757857457145116,"false"
"image-keyboard-response",286,293814,"0.0-4.91-1.91","x737r1a5kkbbrbh",730,"124.csv","","null","resources/maskTrios/BBA3.jpg","null","",NA,NA,NA,NA,""
"image-keyboard-response",287,295016,"0.0-4.91-2.91","x737r1a5kkbbrbh",730,"124.csv","","null","resources/images/fishbone.png","null","",NA,NA,NA,NA,""
"image-keyboard-response",288,295489,"0.0-4.92-0.92","x737r1a5kkbbrbh",730,"124.csv","","472","resources/trios/L4T2A3.jpg","37","restless",0.8,0.7,0.5,0.0271840762852088,"true"
"image-keyboard-response",289,295890,"0.0-4.92-1.92","x737r1a5kkbbrbh",730,"124.csv","","null","resources/maskTrios/L4BB.jpg","null","",NA,NA,NA,NA,""
"image-keyboard-response",290,297091,"0.0-4.92-2.92","x737r1a5kkbbrbh",730,"124.csv","","null","resources/images/coin2.png","null","",NA,NA,NA,NA,""
"image-keyboard-response",291,297444,"0.0-4.93-0.93","x737r1a5kkbbrbh",730,"124.csv","","352","resources/trios/L4T2A3.jpg","38","restless",0.8,0.7,0.5,0.117156277871254,"true"
"image-keyboard-response",292,297845,"0.0-4.93-1.93","x737r1a5kkbbrbh",730,"124.csv","","null","resources/maskTrios/BT2B.jpg","null","",NA,NA,NA,NA,""
"image-keyboard-response",293,299046,"0.0-4.93-2.93","x737r1a5kkbbrbh",730,"124.csv","","null","resources/images/coin2.png","null","",NA,NA,NA,NA,""
"image-keyboard-response",294,299712,"0.0-4.94-0.94","x737r1a5kkbbrbh",730,"124.csv","","666","resources/trios/L4T2A3.jpg","39","restless",0.8,0.8,0.5,0.251491753344164,"true"
"image-keyboard-response",295,300113,"0.0-4.94-1.94","x737r1a5kkbbrbh",730,"124.csv","","null","resources/maskTrios/BBA3.jpg","null","",NA,NA,NA,NA,""
"image-keyboard-response",296,301315,"0.0-4.94-2.94","x737r1a5kkbbrbh",730,"124.csv","","null","resources/images/coin2.png","null","",NA,NA,NA,NA,""
"image-keyboard-response",297,301792,"0.0-4.95-0.95","x737r1a5kkbbrbh",730,"124.csv","","477","resources/trios/L4T2A3.jpg","37","restless",0.7,0.8,0.5,0.465680375709796,"true"
"image-keyboard-response",298,302194,"0.0-4.95-1.95","x737r1a5kkbbrbh",730,"124.csv","","null","resources/maskTrios/L4BB.jpg","null","",NA,NA,NA,NA,""
"image-keyboard-response",299,303395,"0.0-4.95-2.95","x737r1a5kkbbrbh",730,"124.csv","","null","resources/images/coin2.png","null","",NA,NA,NA,NA,""
"image-keyboard-response",300,303787,"0.0-4.96-0.96","x737r1a5kkbbrbh",730,"124.csv","","391","resources/trios/L4T2A3.jpg","38","restless",0.7,0.8,0.5,0.774786951305847,"true"
"image-keyboard-response",301,304188,"0.0-4.96-1.96","x737r1a5kkbbrbh",730,"124.csv","","null","resources/maskTrios/BT2B.jpg","null","",NA,NA,NA,NA,""
"image-keyboard-response",302,305389,"0.0-4.96-2.96","x737r1a5kkbbrbh",730,"124.csv","","null","resources/images/coin2.png","null","",NA,NA,NA,NA,""
"image-keyboard-response",303,305837,"0.0-4.97-0.97","x737r1a5kkbbrbh",730,"124.csv","","448","resources/trios/L4T2A3.jpg","39","restless",0.7,0.8,0.5,0.649570203071433,"false"
"image-keyboard-response",304,306239,"0.0-4.97-1.97","x737r1a5kkbbrbh",730,"124.csv","","null","resources/maskTrios/BBA3.jpg","null","",NA,NA,NA,NA,""
"image-keyboard-response",305,307439,"0.0-4.97-2.97","x737r1a5kkbbrbh",730,"124.csv","","null","resources/images/fishbone.png","null","",NA,NA,NA,NA,""
"image-keyboard-response",306,308021,"0.0-4.98-0.98","x737r1a5kkbbrbh",730,"124.csv","","580","resources/trios/L4T2A3.jpg","37","restless",0.7,0.8,0.5,0.652413738430067,"true"
"image-keyboard-response",307,308422,"0.0-4.98-1.98","x737r1a5kkbbrbh",730,"124.csv","","null","resources/maskTrios/L4BB.jpg","null","",NA,NA,NA,NA,""
"image-keyboard-response",308,309624,"0.0-4.98-2.98","x737r1a5kkbbrbh",730,"124.csv","","null","resources/images/coin2.png","null","",NA,NA,NA,NA,""
"image-keyboard-response",309,310084,"0.0-4.99-0.99","x737r1a5kkbbrbh",730,"124.csv","","459","resources/trios/L4T2A3.jpg","38","restless",0.7,0.9,0.4,0.698173569969794,"true"
"image-keyboard-response",310,310485,"0.0-4.99-1.99","x737r1a5kkbbrbh",730,"124.csv","","null","resources/maskTrios/BT2B.jpg","null","",NA,NA,NA,NA,""
"image-keyboard-response",311,311685,"0.0-4.99-2.99","x737r1a5kkbbrbh",730,"124.csv","","null","resources/images/coin2.png","null","",NA,NA,NA,NA,""
"image-keyboard-response",312,312060,"0.0-4.100-0.100","x737r1a5kkbbrbh",730,"124.csv","","375","resources/trios/L4T2A3.jpg","39","restless",0.7,0.9,0.4,0.95120859076153,"false"
"image-keyboard-response",313,312461,"0.0-4.100-1.100","x737r1a5kkbbrbh",730,"124.csv","","null","resources/maskTrios/BBA3.jpg","null","",NA,NA,NA,NA,""
"image-keyboard-response",314,313663,"0.0-4.100-2.100","x737r1a5kkbbrbh",730,"124.csv","","null","resources/images/fishbone.png","null","",NA,NA,NA,NA,""
"image-keyboard-response",315,314102,"0.0-4.101-0.101","x737r1a5kkbbrbh",730,"124.csv","","439","resources/trios/L4T2A3.jpg","37","restless",0.7,0.8,0.4,0.286965348188068,"true"
"image-keyboard-response",316,314504,"0.0-4.101-1.101","x737r1a5kkbbrbh",730,"124.csv","","null","resources/maskTrios/L4BB.jpg","null","",NA,NA,NA,NA,""
"image-keyboard-response",317,315705,"0.0-4.101-2.101","x737r1a5kkbbrbh",730,"124.csv","","null","resources/images/coin2.png","null","",NA,NA,NA,NA,""
"image-keyboard-response",318,316125,"0.0-4.102-0.102","x737r1a5kkbbrbh",730,"124.csv","","420","resources/trios/L4T2A3.jpg","39","restless",0.7,0.8,0.4,0.965989155500376,"false"
"image-keyboard-response",319,316525,"0.0-4.102-1.102","x737r1a5kkbbrbh",730,"124.csv","","null","resources/maskTrios/BBA3.jpg","null","",NA,NA,NA,NA,""
"image-keyboard-response",320,317727,"0.0-4.102-2.102","x737r1a5kkbbrbh",730,"124.csv","","null","resources/images/fishbone.png","null","",NA,NA,NA,NA,""
"image-keyboard-response",321,318085,"0.0-4.103-0.103","x737r1a5kkbbrbh",730,"124.csv","","357","resources/trios/L4T2A3.jpg","38","restless",0.7,0.8,0.4,0.0527209248227181,"true"
"image-keyboard-response",322,318485,"0.0-4.103-1.103","x737r1a5kkbbrbh",730,"124.csv","","null","resources/maskTrios/BT2B.jpg","null","",NA,NA,NA,NA,""
"image-keyboard-response",323,319686,"0.0-4.103-2.103","x737r1a5kkbbrbh",730,"124.csv","","null","resources/images/coin2.png","null","",NA,NA,NA,NA,""
"image-keyboard-response",324,321165,"0.0-4.104-0.104","x737r1a5kkbbrbh",730,"124.csv","","1479","resources/trios/L4T2A3.jpg","39","restless",0.7,0.8,0.4,0.909524917121823,"false"
"image-keyboard-response",325,321566,"0.0-4.104-1.104","x737r1a5kkbbrbh",730,"124.csv","","null","resources/maskTrios/BBA3.jpg","null","",NA,NA,NA,NA,""
"image-keyboard-response",326,322768,"0.0-4.104-2.104","x737r1a5kkbbrbh",730,"124.csv","","null","resources/images/fishbone.png","null","",NA,NA,NA,NA,""
"image-keyboard-response",327,323141,"0.0-4.105-0.105","x737r1a5kkbbrbh",730,"124.csv","","373","resources/trios/L4T2A3.jpg","37","restless",0.7,0.8,0.3,0.395385185981864,"true"
"image-keyboard-response",328,323542,"0.0-4.105-1.105","x737r1a5kkbbrbh",730,"124.csv","","null","resources/maskTrios/L4BB.jpg","null","",NA,NA,NA,NA,""
"image-keyboard-response",329,324744,"0.0-4.105-2.105","x737r1a5kkbbrbh",730,"124.csv","","null","resources/images/coin2.png","null","",NA,NA,NA,NA,""
"image-keyboard-response",330,325135,"0.0-4.106-0.106","x737r1a5kkbbrbh",730,"124.csv","","391","resources/trios/L4T2A3.jpg","38","restless",0.7,0.8,0.3,0.632837033478648,"true"
"image-keyboard-response",331,325536,"0.0-4.106-1.106","x737r1a5kkbbrbh",730,"124.csv","","null","resources/maskTrios/BT2B.jpg","null","",NA,NA,NA,NA,""
"image-keyboard-response",332,326737,"0.0-4.106-2.106","x737r1a5kkbbrbh",730,"124.csv","","null","resources/images/coin2.png","null","",NA,NA,NA,NA,""
"image-keyboard-response",333,327060,"0.0-4.107-0.107","x737r1a5kkbbrbh",730,"124.csv","","322","resources/trios/L4T2A3.jpg","39","restless",0.7,0.8,0.3,0.874029514875424,"false"
"image-keyboard-response",334,327462,"0.0-4.107-1.107","x737r1a5kkbbrbh",730,"124.csv","","null","resources/maskTrios/BBA3.jpg","null","",NA,NA,NA,NA,""
"image-keyboard-response",335,328663,"0.0-4.107-2.107","x737r1a5kkbbrbh",730,"124.csv","","null","resources/images/fishbone.png","null","",NA,NA,NA,NA,""
"image-keyboard-response",336,329523,"0.0-4.108-0.108","x737r1a5kkbbrbh",730,"124.csv","","858","resources/trios/L4T2A3.jpg","37","restless",0.7,0.7,0.4,0.559535077039817,"true"
"image-keyboard-response",337,329923,"0.0-4.108-1.108","x737r1a5kkbbrbh",730,"124.csv","","null","resources/maskTrios/L4BB.jpg","null","",NA,NA,NA,NA,""
"image-keyboard-response",338,331124,"0.0-4.108-2.108","x737r1a5kkbbrbh",730,"124.csv","","null","resources/images/coin2.png","null","",NA,NA,NA,NA,""
"image-keyboard-response",339,331508,"0.0-4.109-0.109","x737r1a5kkbbrbh",730,"124.csv","","384","resources/trios/L4T2A3.jpg","39","restless",0.7,0.7,0.3,0.461851938688031,"false"
"image-keyboard-response",340,331910,"0.0-4.109-1.109","x737r1a5kkbbrbh",730,"124.csv","","null","resources/maskTrios/BBA3.jpg","null","",NA,NA,NA,NA,""
"image-keyboard-response",341,333111,"0.0-4.109-2.109","x737r1a5kkbbrbh",730,"124.csv","","null","resources/images/fishbone.png","null","",NA,NA,NA,NA,""
"image-keyboard-response",342,333490,"0.0-4.110-0.110","x737r1a5kkbbrbh",730,"124.csv","","378","resources/trios/L4T2A3.jpg","38","restless",0.7,0.7,0.3,0.706264370756246,"false"
"image-keyboard-response",343,333891,"0.0-4.110-1.110","x737r1a5kkbbrbh",730,"124.csv","","null","resources/maskTrios/BT2B.jpg","null","",NA,NA,NA,NA,""
"image-keyboard-response",344,335092,"0.0-4.110-2.110","x737r1a5kkbbrbh",730,"124.csv","","null","resources/images/fishbone.png","null","",NA,NA,NA,NA,""
"image-keyboard-response",345,335633,"0.0-4.111-0.111","x737r1a5kkbbrbh",730,"124.csv","","541","resources/trios/L4T2A3.jpg","37","restless",0.7,0.7,0.3,0.664195233480561,"true"
"image-keyboard-response",346,336034,"0.0-4.111-1.111","x737r1a5kkbbrbh",730,"124.csv","","null","resources/maskTrios/L4BB.jpg","null","",NA,NA,NA,NA,""
"image-keyboard-response",347,337236,"0.0-4.111-2.111","x737r1a5kkbbrbh",730,"124.csv","","null","resources/images/coin2.png","null","",NA,NA,NA,NA,""
"image-keyboard-response",348,337675,"0.0-4.112-0.112","x737r1a5kkbbrbh",730,"124.csv","","439","resources/trios/L4T2A3.jpg","39","restless",0.7,0.7,0.2,0.334682899769419,"false"
"image-keyboard-response",349,338076,"0.0-4.112-1.112","x737r1a5kkbbrbh",730,"124.csv","","null","resources/maskTrios/BBA3.jpg","null","",NA,NA,NA,NA,""
"image-keyboard-response",350,339277,"0.0-4.112-2.112","x737r1a5kkbbrbh",730,"124.csv","","null","resources/images/fishbone.png","null","",NA,NA,NA,NA,""
"image-keyboard-response",351,339784,"0.0-4.113-0.113","x737r1a5kkbbrbh",730,"124.csv","","507","resources/trios/L4T2A3.jpg","37","restless",0.7,0.7,0.2,0.619475472297024,"true"
"image-keyboard-response",352,340185,"0.0-4.113-1.113","x737r1a5kkbbrbh",730,"124.csv","","null","resources/maskTrios/L4BB.jpg","null","",NA,NA,NA,NA,""
"image-keyboard-response",353,341387,"0.0-4.113-2.113","x737r1a5kkbbrbh",730,"124.csv","","null","resources/images/coin2.png","null","",NA,NA,NA,NA,""
"image-keyboard-response",354,341761,"0.0-4.114-0.114","x737r1a5kkbbrbh",730,"124.csv","","373","resources/trios/L4T2A3.jpg","38","restless",0.7,0.7,0.2,0.181195382795735,"true"
"image-keyboard-response",355,342161,"0.0-4.114-1.114","x737r1a5kkbbrbh",730,"124.csv","","null","resources/maskTrios/BT2B.jpg","null","",NA,NA,NA,NA,""
"image-keyboard-response",356,343362,"0.0-4.114-2.114","x737r1a5kkbbrbh",730,"124.csv","","null","resources/images/coin2.png","null","",NA,NA,NA,NA,""
"image-keyboard-response",357,343679,"0.0-4.115-0.115","x737r1a5kkbbrbh",730,"124.csv","","317","resources/trios/L4T2A3.jpg","39","restless",0.6,0.6,0.2,0.685784443004926,"false"
"image-keyboard-response",358,344080,"0.0-4.115-1.115","x737r1a5kkbbrbh",730,"124.csv","","null","resources/maskTrios/BBA3.jpg","null","",NA,NA,NA,NA,""
"image-keyboard-response",359,345281,"0.0-4.115-2.115","x737r1a5kkbbrbh",730,"124.csv","","null","resources/images/fishbone.png","null","",NA,NA,NA,NA,""
"image-keyboard-response",360,345844,"0.0-4.116-0.116","x737r1a5kkbbrbh",730,"124.csv","","563","resources/trios/L4T2A3.jpg","37","restless",0.6,0.6,0.2,0.0691646347906705,"true"
"image-keyboard-response",361,346244,"0.0-4.116-1.116","x737r1a5kkbbrbh",730,"124.csv","","null","resources/maskTrios/L4BB.jpg","null","",NA,NA,NA,NA,""
"image-keyboard-response",362,347445,"0.0-4.116-2.116","x737r1a5kkbbrbh",730,"124.csv","","null","resources/images/coin2.png","null","",NA,NA,NA,NA,""
"image-keyboard-response",363,347798,"0.0-4.117-0.117","x737r1a5kkbbrbh",730,"124.csv","","351","resources/trios/L4T2A3.jpg","39","restless",0.6,0.5,0.2,0.752427975409524,"false"
"image-keyboard-response",364,348199,"0.0-4.117-1.117","x737r1a5kkbbrbh",730,"124.csv","","null","resources/maskTrios/BBA3.jpg","null","",NA,NA,NA,NA,""
"image-keyboard-response",365,349399,"0.0-4.117-2.117","x737r1a5kkbbrbh",730,"124.csv","","null","resources/images/fishbone.png","null","",NA,NA,NA,NA,""
"image-keyboard-response",366,349742,"0.0-4.118-0.118","x737r1a5kkbbrbh",730,"124.csv","","342.0000000000582","resources/trios/L4T2A3.jpg","38","restless",0.6,0.5,0.2,0.54720510689747,"false"
"image-keyboard-response",367,350143,"0.0-4.118-1.118","x737r1a5kkbbrbh",730,"124.csv","","null","resources/maskTrios/BT2B.jpg","null","",NA,NA,NA,NA,""
"image-keyboard-response",368,351344,"0.0-4.118-2.118","x737r1a5kkbbrbh",730,"124.csv","","null","resources/images/fishbone.png","null","",NA,NA,NA,NA,""
"image-keyboard-response",369,351737,"0.0-4.119-0.119","x737r1a5kkbbrbh",730,"124.csv","","392","resources/trios/L4T2A3.jpg","37","restless",0.6,0.5,0.2,0.434191726313179,"true"
"image-keyboard-response",370,352138,"0.0-4.119-1.119","x737r1a5kkbbrbh",730,"124.csv","","null","resources/maskTrios/L4BB.jpg","null","",NA,NA,NA,NA,""
"image-keyboard-response",371,353339,"0.0-4.119-2.119","x737r1a5kkbbrbh",730,"124.csv","","null","resources/images/coin2.png","null","",NA,NA,NA,NA,""
"image-keyboard-response",372,354454,"0.0-4.120-0.120","x737r1a5kkbbrbh",730,"124.csv","","1114","resources/trios/L4T2A3.jpg","39","restless",0.6,0.5,0.2,0.712628478028222,"false"
"image-keyboard-response",373,354854,"0.0-4.120-1.120","x737r1a5kkbbrbh",730,"124.csv","","null","resources/maskTrios/BBA3.jpg","null","",NA,NA,NA,NA,""
"image-keyboard-response",374,356055,"0.0-4.120-2.120","x737r1a5kkbbrbh",730,"124.csv","","null","resources/images/fishbone.png","null","",NA,NA,NA,NA,""
"image-keyboard-response",375,357170,"0.0-4.121-0.121","x737r1a5kkbbrbh",730,"124.csv","","1115.0000000000582","resources/trios/L4T2A3.jpg","38","restless",0.6,0.5,0.3,0.579833203515884,"false"
"image-keyboard-response",376,357571,"0.0-4.121-1.121","x737r1a5kkbbrbh",730,"124.csv","","null","resources/maskTrios/BT2B.jpg","null","",NA,NA,NA,NA,""
"image-keyboard-response",377,358772,"0.0-4.121-2.121","x737r1a5kkbbrbh",730,"124.csv","","null","resources/images/fishbone.png","null","",NA,NA,NA,NA,""
"image-keyboard-response",378,359270,"0.0-4.122-0.122","x737r1a5kkbbrbh",730,"124.csv","","498","resources/trios/L4T2A3.jpg","37","restless",0.6,0.5,0.3,0.209351894955,"true"
"image-keyboard-response",379,359671,"0.0-4.122-1.122","x737r1a5kkbbrbh",730,"124.csv","","null","resources/maskTrios/L4BB.jpg","null","",NA,NA,NA,NA,""
"image-keyboard-response",380,360872,"0.0-4.122-2.122","x737r1a5kkbbrbh",730,"124.csv","","null","resources/images/coin2.png","null","",NA,NA,NA,NA,""
"image-keyboard-response",381,361240,"0.0-4.123-0.123","x737r1a5kkbbrbh",730,"124.csv","","367.9999999999418","resources/trios/L4T2A3.jpg","39","restless",0.6,0.6,0.3,0.721942695683242,"false"
"image-keyboard-response",382,361642,"0.0-4.123-1.123","x737r1a5kkbbrbh",730,"124.csv","","null","resources/maskTrios/BBA3.jpg","null","",NA,NA,NA,NA,""
"image-keyboard-response",383,362842,"0.0-4.123-2.123","x737r1a5kkbbrbh",730,"124.csv","","null","resources/images/fishbone.png","null","",NA,NA,NA,NA,""
"image-keyboard-response",384,363170,"0.0-4.124-0.124","x737r1a5kkbbrbh",730,"124.csv","","328.0000000000582","resources/trios/L4T2A3.jpg","38","restless",0.6,0.5,0.3,0.0956535918643804,"true"
"image-keyboard-response",385,363570,"0.0-4.124-1.124","x737r1a5kkbbrbh",730,"124.csv","","null","resources/maskTrios/BT2B.jpg","null","",NA,NA,NA,NA,""
"image-keyboard-response",386,364771,"0.0-4.124-2.124","x737r1a5kkbbrbh",730,"124.csv","","null","resources/images/coin2.png","null","",NA,NA,NA,NA,""
"image-keyboard-response",387,365352,"0.0-4.125-0.125","x737r1a5kkbbrbh",730,"124.csv","","580","resources/trios/L4T2A3.jpg","37","restless",0.6,0.5,0.3,0.380650433821348,"true"
"image-keyboard-response",388,365753,"0.0-4.125-1.125","x737r1a5kkbbrbh",730,"124.csv","","null","resources/maskTrios/L4BB.jpg","null","",NA,NA,NA,NA,""
"image-keyboard-response",389,366954,"0.0-4.125-2.125","x737r1a5kkbbrbh",730,"124.csv","","null","resources/images/coin2.png","null","",NA,NA,NA,NA,""
"image-keyboard-response",390,367490,"0.0-4.126-0.126","x737r1a5kkbbrbh",730,"124.csv","","535","resources/trios/L4T2A3.jpg","38","restless",0.6,0.5,0.3,0.137601547680792,"true"
"image-keyboard-response",391,367890,"0.0-4.126-1.126","x737r1a5kkbbrbh",730,"124.csv","","null","resources/maskTrios/BT2B.jpg","null","",NA,NA,NA,NA,""
"image-keyboard-response",392,369091,"0.0-4.126-2.126","x737r1a5kkbbrbh",730,"124.csv","","null","resources/images/coin2.png","null","",NA,NA,NA,NA,""
"image-keyboard-response",393,370218,"0.0-4.127-0.127","x737r1a5kkbbrbh",730,"124.csv","","1125","resources/trios/L4T2A3.jpg","37","restless",0.6,0.5,0.3,0.0536742537787516,"true"
"image-keyboard-response",394,370619,"0.0-4.127-1.127","x737r1a5kkbbrbh",730,"124.csv","","null","resources/maskTrios/L4BB.jpg","null","",NA,NA,NA,NA,""
"image-keyboard-response",395,371820,"0.0-4.127-2.127","x737r1a5kkbbrbh",730,"124.csv","","null","resources/images/coin2.png","null","",NA,NA,NA,NA,""
"image-keyboard-response",396,372615,"0.0-4.128-0.128","x737r1a5kkbbrbh",730,"124.csv","","795","resources/trios/L4T2A3.jpg","38","restless",0.6,0.5,0.3,0.512550630173301,"false"
"image-keyboard-response",397,373016,"0.0-4.128-1.128","x737r1a5kkbbrbh",730,"124.csv","","null","resources/maskTrios/BT2B.jpg","null","",NA,NA,NA,NA,""
"image-keyboard-response",398,374217,"0.0-4.128-2.128","x737r1a5kkbbrbh",730,"124.csv","","null","resources/images/fishbone.png","null","",NA,NA,NA,NA,""
"image-keyboard-response",399,374686,"0.0-4.129-0.129","x737r1a5kkbbrbh",730,"124.csv","","469","resources/trios/L4T2A3.jpg","39","restless",0.6,0.5,0.3,0.950167463463135,"false"
"image-keyboard-response",400,375087,"0.0-4.129-1.129","x737r1a5kkbbrbh",730,"124.csv","","null","resources/maskTrios/BBA3.jpg","null","",NA,NA,NA,NA,""
"image-keyboard-response",401,376288,"0.0-4.129-2.129","x737r1a5kkbbrbh",730,"124.csv","","null","resources/images/fishbone.png","null","",NA,NA,NA,NA,""
"image-keyboard-response",402,376965,"0.0-4.130-0.130","x737r1a5kkbbrbh",730,"124.csv","","677","resources/trios/L4T2A3.jpg","38","restless",0.5,0.5,0.3,0.927129898305396,"false"
"image-keyboard-response",403,377366,"0.0-4.130-1.130","x737r1a5kkbbrbh",730,"124.csv","","null","resources/maskTrios/BT2B.jpg","null","",NA,NA,NA,NA,""
"image-keyboard-response",404,378568,"0.0-4.130-2.130","x737r1a5kkbbrbh",730,"124.csv","","null","resources/images/fishbone.png","null","",NA,NA,NA,NA,""
"image-keyboard-response",405,378935,"0.0-4.131-0.131","x737r1a5kkbbrbh",730,"124.csv","","367","resources/trios/L4T2A3.jpg","37","restless",0.5,0.5,0.3,0.277205435902248,"true"
"image-keyboard-response",406,379336,"0.0-4.131-1.131","x737r1a5kkbbrbh",730,"124.csv","","null","resources/maskTrios/L4BB.jpg","null","",NA,NA,NA,NA,""
"image-keyboard-response",407,380537,"0.0-4.131-2.131","x737r1a5kkbbrbh",730,"124.csv","","null","resources/images/coin2.png","null","",NA,NA,NA,NA,""
"image-keyboard-response",408,380896,"0.0-4.132-0.132","x737r1a5kkbbrbh",730,"124.csv","","359.0000000000582","resources/trios/L4T2A3.jpg","39","restless",0.5,0.5,0.3,0.600745355795059,"false"
"image-keyboard-response",409,381297,"0.0-4.132-1.132","x737r1a5kkbbrbh",730,"124.csv","","null","resources/maskTrios/BBA3.jpg","null","",NA,NA,NA,NA,""
"image-keyboard-response",410,382498,"0.0-4.132-2.132","x737r1a5kkbbrbh",730,"124.csv","","null","resources/images/fishbone.png","null","",NA,NA,NA,NA,""
"image-keyboard-response",411,382877,"0.0-4.133-0.133","x737r1a5kkbbrbh",730,"124.csv","","378","resources/trios/L4T2A3.jpg","38","restless",0.5,0.5,0.3,0.911026327073716,"false"
"image-keyboard-response",412,383278,"0.0-4.133-1.133","x737r1a5kkbbrbh",730,"124.csv","","null","resources/maskTrios/BT2B.jpg","null","",NA,NA,NA,NA,""
"image-keyboard-response",413,384479,"0.0-4.133-2.133","x737r1a5kkbbrbh",730,"124.csv","","null","resources/images/fishbone.png","null","",NA,NA,NA,NA,""
"image-keyboard-response",414,384828,"0.0-4.134-0.134","x737r1a5kkbbrbh",730,"124.csv","","349","resources/trios/L4T2A3.jpg","37","restless",0.5,0.4,0.3,0.164875293578246,"true"
"image-keyboard-response",415,385228,"0.0-4.134-1.134","x737r1a5kkbbrbh",730,"124.csv","","null","resources/maskTrios/L4BB.jpg","null","",NA,NA,NA,NA,""
"image-keyboard-response",416,386430,"0.0-4.134-2.134","x737r1a5kkbbrbh",730,"124.csv","","null","resources/images/coin2.png","null","",NA,NA,NA,NA,""
"image-keyboard-response",417,386755,"0.0-4.135-0.135","x737r1a5kkbbrbh",730,"124.csv","","324.0000000000582","resources/trios/L4T2A3.jpg","39","restless",0.5,0.4,0.3,0.853290544116802,"false"
"image-keyboard-response",418,387156,"0.0-4.135-1.135","x737r1a5kkbbrbh",730,"124.csv","","null","resources/maskTrios/BBA3.jpg","null","",NA,NA,NA,NA,""
"image-keyboard-response",419,388356,"0.0-4.135-2.135","x737r1a5kkbbrbh",730,"124.csv","","null","resources/images/fishbone.png","null","",NA,NA,NA,NA,""
"image-keyboard-response",420,388722,"0.0-4.136-0.136","x737r1a5kkbbrbh",730,"124.csv","","365","resources/trios/L4T2A3.jpg","38","restless",0.5,0.4,0.3,0.553727913119812,"false"
"image-keyboard-response",421,389122,"0.0-4.136-1.136","x737r1a5kkbbrbh",730,"124.csv","","null","resources/maskTrios/BT2B.jpg","null","",NA,NA,NA,NA,""
"image-keyboard-response",422,390323,"0.0-4.136-2.136","x737r1a5kkbbrbh",730,"124.csv","","null","resources/images/fishbone.png","null","",NA,NA,NA,NA,""
"image-keyboard-response",423,390733,"0.0-4.137-0.137","x737r1a5kkbbrbh",730,"124.csv","","409","resources/trios/L4T2A3.jpg","37","restless",0.5,0.4,0.3,0.0139050477013843,"true"
"image-keyboard-response",424,391133,"0.0-4.137-1.137","x737r1a5kkbbrbh",730,"124.csv","","null","resources/maskTrios/L4BB.jpg","null","",NA,NA,NA,NA,""
"image-keyboard-response",425,392334,"0.0-4.137-2.137","x737r1a5kkbbrbh",730,"124.csv","","null","resources/images/coin2.png","null","",NA,NA,NA,NA,""
"image-keyboard-response",426,392689,"0.0-4.138-0.138","x737r1a5kkbbrbh",730,"124.csv","","354","resources/trios/L4T2A3.jpg","38","restless",0.5,0.4,0.3,0.0110814781026235,"true"
"image-keyboard-response",427,393090,"0.0-4.138-1.138","x737r1a5kkbbrbh",730,"124.csv","","null","resources/maskTrios/BT2B.jpg","null","",NA,NA,NA,NA,""
"image-keyboard-response",428,394290,"0.0-4.138-2.138","x737r1a5kkbbrbh",730,"124.csv","","null","resources/images/coin2.png","null","",NA,NA,NA,NA,""
"image-keyboard-response",429,394738,"0.0-4.139-0.139","x737r1a5kkbbrbh",730,"124.csv","","447","resources/trios/L4T2A3.jpg","39","restless",0.5,0.4,0.3,0.618678311761009,"false"
"image-keyboard-response",430,395140,"0.0-4.139-1.139","x737r1a5kkbbrbh",730,"124.csv","","null","resources/maskTrios/BBA3.jpg","null","",NA,NA,NA,NA,""
"image-keyboard-response",431,396341,"0.0-4.139-2.139","x737r1a5kkbbrbh",730,"124.csv","","null","resources/images/fishbone.png","null","",NA,NA,NA,NA,""
"image-keyboard-response",432,396922,"0.0-4.140-0.140","x737r1a5kkbbrbh",730,"124.csv","","581","resources/trios/L4T2A3.jpg","37","restless",0.5,0.4,0.3,0.430656440230425,"true"
"image-keyboard-response",433,397323,"0.0-4.140-1.140","x737r1a5kkbbrbh",730,"124.csv","","null","resources/maskTrios/L4BB.jpg","null","",NA,NA,NA,NA,""
"image-keyboard-response",434,398524,"0.0-4.140-2.140","x737r1a5kkbbrbh",730,"124.csv","","null","resources/images/coin2.png","null","",NA,NA,NA,NA,""
"image-keyboard-response",435,398974,"0.0-4.141-0.141","x737r1a5kkbbrbh",730,"124.csv","","450","resources/trios/L4T2A3.jpg","38","restless",0.5,0.5,0.3,0.938553035688124,"false"
"image-keyboard-response",436,399376,"0.0-4.141-1.141","x737r1a5kkbbrbh",730,"124.csv","","null","resources/maskTrios/BT2B.jpg","null","",NA,NA,NA,NA,""
"image-keyboard-response",437,400577,"0.0-4.141-2.141","x737r1a5kkbbrbh",730,"124.csv","","null","resources/images/fishbone.png","null","",NA,NA,NA,NA,""
"image-keyboard-response",438,402030,"0.0-4.142-0.142","x737r1a5kkbbrbh",730,"124.csv","","1453","resources/trios/L4T2A3.jpg","37","restless",0.5,0.5,0.3,0.152962220836384,"true"
"image-keyboard-response",439,402431,"0.0-4.142-1.142","x737r1a5kkbbrbh",730,"124.csv","","null","resources/maskTrios/L4BB.jpg","null","",NA,NA,NA,NA,""
"image-keyboard-response",440,403631,"0.0-4.142-2.142","x737r1a5kkbbrbh",730,"124.csv","","null","resources/images/coin2.png","null","",NA,NA,NA,NA,""
"image-keyboard-response",441,404284,"0.0-4.143-0.143","x737r1a5kkbbrbh",730,"124.csv","","652","resources/trios/L4T2A3.jpg","39","restless",0.5,0.5,0.3,0.185985664981909,"true"
"image-keyboard-response",442,404685,"0.0-4.143-1.143","x737r1a5kkbbrbh",730,"124.csv","","null","resources/maskTrios/BBA3.jpg","null","",NA,NA,NA,NA,""
"image-keyboard-response",443,405886,"0.0-4.143-2.143","x737r1a5kkbbrbh",730,"124.csv","","null","resources/images/coin2.png","null","",NA,NA,NA,NA,""
"image-keyboard-response",444,406244,"0.0-4.144-0.144","x737r1a5kkbbrbh",730,"124.csv","","357","resources/trios/L4T2A3.jpg","38","restless",0.5,0.5,0.3,0.550638284233821,"false"
"image-keyboard-response",445,406646,"0.0-4.144-1.144","x737r1a5kkbbrbh",730,"124.csv","","null","resources/maskTrios/BT2B.jpg","null","",NA,NA,NA,NA,""
"image-keyboard-response",446,407847,"0.0-4.144-2.144","x737r1a5kkbbrbh",730,"124.csv","","null","resources/images/fishbone.png","null","",NA,NA,NA,NA,""
"image-keyboard-response",447,408252,"0.0-4.145-0.145","x737r1a5kkbbrbh",730,"124.csv","","404","resources/trios/L4T2A3.jpg","37","restless",0.5,0.5,0.3,0.95822843942426,"false"
"image-keyboard-response",448,408652,"0.0-4.145-1.145","x737r1a5kkbbrbh",730,"124.csv","","null","resources/maskTrios/L4BB.jpg","null","",NA,NA,NA,NA,""
"image-keyboard-response",449,409853,"0.0-4.145-2.145","x737r1a5kkbbrbh",730,"124.csv","","null","resources/images/fishbone.png","null","",NA,NA,NA,NA,""
"image-keyboard-response",450,410290,"0.0-4.146-0.146","x737r1a5kkbbrbh",730,"124.csv","","437.0000000000582","resources/trios/L4T2A3.jpg","39","restless",0.5,0.5,0.3,0.48757094847066,"false"
"image-keyboard-response",451,410691,"0.0-4.146-1.146","x737r1a5kkbbrbh",730,"124.csv","","null","resources/maskTrios/BBA3.jpg","null","",NA,NA,NA,NA,""
"image-keyboard-response",452,411893,"0.0-4.146-2.146","x737r1a5kkbbrbh",730,"124.csv","","null","resources/images/fishbone.png","null","",NA,NA,NA,NA,""
"image-keyboard-response",453,412212,"0.0-4.147-0.147","x737r1a5kkbbrbh",730,"124.csv","","319","resources/trios/L4T2A3.jpg","38","restless",0.5,0.5,0.3,0.399580718734485,"true"
"image-keyboard-response",454,412613,"0.0-4.147-1.147","x737r1a5kkbbrbh",730,"124.csv","","null","resources/maskTrios/BT2B.jpg","null","",NA,NA,NA,NA,""
"image-keyboard-response",455,413814,"0.0-4.147-2.147","x737r1a5kkbbrbh",730,"124.csv","","null","resources/images/coin2.png","null","",NA,NA,NA,NA,""
"image-keyboard-response",456,415153,"0.0-4.148-0.148","x737r1a5kkbbrbh",730,"124.csv","","1339.0000000000582","resources/trios/L4T2A3.jpg","37","restless",0.5,0.5,0.3,0.660608941071223,"false"
"image-keyboard-response",457,415555,"0.0-4.148-1.148","x737r1a5kkbbrbh",730,"124.csv","","null","resources/maskTrios/L4BB.jpg","null","",NA,NA,NA,NA,""
"image-keyboard-response",458,416756,"0.0-4.148-2.148","x737r1a5kkbbrbh",730,"124.csv","","null","resources/images/fishbone.png","null","",NA,NA,NA,NA,""
"image-keyboard-response",459,417150,"0.0-4.149-0.149","x737r1a5kkbbrbh",730,"124.csv","","394","resources/trios/L4T2A3.jpg","39","restless",0.5,0.4,0.3,0.142728828515121,"true"
"image-keyboard-response",460,417551,"0.0-4.149-1.149","x737r1a5kkbbrbh",730,"124.csv","","null","resources/maskTrios/BBA3.jpg","null","",NA,NA,NA,NA,""
"image-keyboard-response",461,418752,"0.0-4.149-2.149","x737r1a5kkbbrbh",730,"124.csv","","null","resources/images/coin2.png","null","",NA,NA,NA,NA,""
"image-keyboard-response",462,419444,"0.0-4.150-0.150","x737r1a5kkbbrbh",730,"124.csv","","691.0000000000582","resources/trios/L4T2A3.jpg","38","restless",0.5,0.4,0.3,0.190227871656225,"true"
"image-keyboard-response",463,419845,"0.0-4.150-1.150","x737r1a5kkbbrbh",730,"124.csv","","null","resources/maskTrios/BT2B.jpg","null","",NA,NA,NA,NA,""
"image-keyboard-response",464,421046,"0.0-4.150-2.150","x737r1a5kkbbrbh",730,"124.csv","","null","resources/images/coin2.png","null","",NA,NA,NA,NA,""
"image-keyboard-response",465,421569,"0.0-4.151-0.151","x737r1a5kkbbrbh",730,"124.csv","","523.0000000000582","resources/trios/L4T2A3.jpg","37","restless",0.5,0.4,0.3,0.0204661630778218,"true"
"image-keyboard-response",466,421970,"0.0-4.151-1.151","x737r1a5kkbbrbh",730,"124.csv","","null","resources/maskTrios/L4BB.jpg","null","",NA,NA,NA,NA,""
"image-keyboard-response",467,423171,"0.0-4.151-2.151","x737r1a5kkbbrbh",730,"124.csv","","null","resources/images/coin2.png","null","",NA,NA,NA,NA,""
"image-keyboard-response",468,423557,"0.0-4.152-0.152","x737r1a5kkbbrbh",730,"124.csv","","385.0000000000582","resources/trios/L4T2A3.jpg","39","restless",0.5,0.4,0.3,0.843783765257615,"false"
"image-keyboard-response",469,423959,"0.0-4.152-1.152","x737r1a5kkbbrbh",730,"124.csv","","null","resources/maskTrios/BBA3.jpg","null","",NA,NA,NA,NA,""
"image-keyboard-response",470,425160,"0.0-4.152-2.152","x737r1a5kkbbrbh",730,"124.csv","","null","resources/images/fishbone.png","null","",NA,NA,NA,NA,""
"image-keyboard-response",471,425434,"0.0-4.153-0.153","x737r1a5kkbbrbh",730,"124.csv","","274","resources/trios/L4T2A3.jpg","38","restless",0.5,0.4,0.3,0.919445626019249,"false"
"image-keyboard-response",472,425835,"0.0-4.153-1.153","x737r1a5kkbbrbh",730,"124.csv","","null","resources/maskTrios/BT2B.jpg","null","",NA,NA,NA,NA,""
"image-keyboard-response",473,427035,"0.0-4.153-2.153","x737r1a5kkbbrbh",730,"124.csv","","null","resources/images/fishbone.png","null","",NA,NA,NA,NA,""
"image-keyboard-response",474,427384,"0.0-4.154-0.154","x737r1a5kkbbrbh",730,"124.csv","","348.0000000000582","resources/trios/L4T2A3.jpg","37","restless",0.4,0.4,0.3,0.980435216224518,"false"
"image-keyboard-response",475,427784,"0.0-4.154-1.154","x737r1a5kkbbrbh",730,"124.csv","","null","resources/maskTrios/L4BB.jpg","null","",NA,NA,NA,NA,""
"image-keyboard-response",476,428985,"0.0-4.154-2.154","x737r1a5kkbbrbh",730,"124.csv","","null","resources/images/fishbone.png","null","",NA,NA,NA,NA,""
"image-keyboard-response",477,429420,"0.0-4.155-0.155","x737r1a5kkbbrbh",730,"124.csv","","434.0000000000582","resources/trios/L4T2A3.jpg","39","restless",0.4,0.4,0.3,0.828925395654358,"false"
"image-keyboard-response",478,429822,"0.0-4.155-1.155","x737r1a5kkbbrbh",730,"124.csv","","null","resources/maskTrios/BBA3.jpg","null","",NA,NA,NA,NA,""
"image-keyboard-response",479,431023,"0.0-4.155-2.155","x737r1a5kkbbrbh",730,"124.csv","","null","resources/images/fishbone.png","null","",NA,NA,NA,NA,""
"image-keyboard-response",480,431342,"0.0-4.156-0.156","x737r1a5kkbbrbh",730,"124.csv","","319","resources/trios/L4T2A3.jpg","38","restless",0.4,0.5,0.3,0.72498337288894,"false"
"image-keyboard-response",481,431744,"0.0-4.156-1.156","x737r1a5kkbbrbh",730,"124.csv","","null","resources/maskTrios/BT2B.jpg","null","",NA,NA,NA,NA,""
"image-keyboard-response",482,432944,"0.0-4.156-2.156","x737r1a5kkbbrbh",730,"124.csv","","null","resources/images/fishbone.png","null","",NA,NA,NA,NA,""
"image-keyboard-response",483,433469,"0.0-4.157-0.157","x737r1a5kkbbrbh",730,"124.csv","","524","resources/trios/L4T2A3.jpg","37","restless",0.4,0.5,0.4,0.548116805708424,"false"
"image-keyboard-response",484,433870,"0.0-4.157-1.157","x737r1a5kkbbrbh",730,"124.csv","","null","resources/maskTrios/L4BB.jpg","null","",NA,NA,NA,NA,""
"image-keyboard-response",485,435071,"0.0-4.157-2.157","x737r1a5kkbbrbh",730,"124.csv","","null","resources/images/fishbone.png","null","",NA,NA,NA,NA,""
"image-keyboard-response",486,435426,"0.0-4.158-0.158","x737r1a5kkbbrbh",730,"124.csv","","355","resources/trios/L4T2A3.jpg","39","restless",0.4,0.5,0.4,0.308358107043481,"true"
"image-keyboard-response",487,435827,"0.0-4.158-1.158","x737r1a5kkbbrbh",730,"124.csv","","null","resources/maskTrios/BBA3.jpg","null","",NA,NA,NA,NA,""
"image-keyboard-response",488,437028,"0.0-4.158-2.158","x737r1a5kkbbrbh",730,"124.csv","","null","resources/images/coin2.png","null","",NA,NA,NA,NA,""
"image-keyboard-response",489,437469,"0.0-4.159-0.159","x737r1a5kkbbrbh",730,"124.csv","","440","resources/trios/L4T2A3.jpg","37","restless",0.4,0.6,0.4,0.624497313131896,"false"
"image-keyboard-response",490,437869,"0.0-4.159-1.159","x737r1a5kkbbrbh",730,"124.csv","","null","resources/maskTrios/L4BB.jpg","null","",NA,NA,NA,NA,""
"image-keyboard-response",491,439070,"0.0-4.159-2.159","x737r1a5kkbbrbh",730,"124.csv","","null","resources/images/fishbone.png","null","",NA,NA,NA,NA,""
"image-keyboard-response",492,439481,"0.0-4.160-0.160","x737r1a5kkbbrbh",730,"124.csv","","411","resources/trios/L4T2A3.jpg","39","restless",0.4,0.6,0.4,0.558257318346316,"false"
"image-keyboard-response",493,439881,"0.0-4.160-1.160","x737r1a5kkbbrbh",730,"124.csv","","null","resources/maskTrios/BBA3.jpg","null","",NA,NA,NA,NA,""
"image-keyboard-response",494,441082,"0.0-4.160-2.160","x737r1a5kkbbrbh",730,"124.csv","","null","resources/images/fishbone.png","null","",NA,NA,NA,NA,""
"image-keyboard-response",495,441474,"0.0-4.161-0.161","x737r1a5kkbbrbh",730,"124.csv","","391","resources/trios/L4T2A3.jpg","38","restless",0.4,0.7,0.4,0.528194420793265,"true"
"image-keyboard-response",496,441876,"0.0-4.161-1.161","x737r1a5kkbbrbh",730,"124.csv","","null","resources/maskTrios/BT2B.jpg","null","",NA,NA,NA,NA,""
"image-keyboard-response",497,443077,"0.0-4.161-2.161","x737r1a5kkbbrbh",730,"124.csv","","null","resources/images/coin2.png","null","",NA,NA,NA,NA,""
"image-keyboard-response",498,443563,"0.0-4.162-0.162","x737r1a5kkbbrbh",730,"124.csv","","485","resources/trios/L4T2A3.jpg","37","restless",0.4,0.7,0.4,0.218641522449687,"true"
"image-keyboard-response",499,443963,"0.0-4.162-1.162","x737r1a5kkbbrbh",730,"124.csv","","null","resources/maskTrios/L4BB.jpg","null","",NA,NA,NA,NA,""
"image-keyboard-response",500,445164,"0.0-4.162-2.162","x737r1a5kkbbrbh",730,"124.csv","","null","resources/images/coin2.png","null","",NA,NA,NA,NA,""
"image-keyboard-response",501,445691,"0.0-4.163-0.163","x737r1a5kkbbrbh",730,"124.csv","","525.9999999999418","resources/trios/L4T2A3.jpg","39","restless",0.4,0.7,0.4,0.580635904361725,"false"
"image-keyboard-response",502,446092,"0.0-4.163-1.163","x737r1a5kkbbrbh",730,"124.csv","","null","resources/maskTrios/BBA3.jpg","null","",NA,NA,NA,NA,""
"image-keyboard-response",503,447293,"0.0-4.163-2.163","x737r1a5kkbbrbh",730,"124.csv","","null","resources/images/fishbone.png","null","",NA,NA,NA,NA,""
"image-keyboard-response",504,447749,"0.0-4.164-0.164","x737r1a5kkbbrbh",730,"124.csv","","456","resources/trios/L4T2A3.jpg","38","restless",0.4,0.7,0.4,0.395067177433673,"true"
"image-keyboard-response",505,448150,"0.0-4.164-1.164","x737r1a5kkbbrbh",730,"124.csv","","null","resources/maskTrios/BT2B.jpg","null","",NA,NA,NA,NA,""
"image-keyboard-response",506,449351,"0.0-4.164-2.164","x737r1a5kkbbrbh",730,"124.csv","","null","resources/images/coin2.png","null","",NA,NA,NA,NA,""
"image-keyboard-response",507,449839,"0.0-4.165-0.165","x737r1a5kkbbrbh",730,"124.csv","","487","resources/trios/L4T2A3.jpg","37","restless",0.4,0.7,0.4,0.618913671724799,"false"
"image-keyboard-response",508,450240,"0.0-4.165-1.165","x737r1a5kkbbrbh",730,"124.csv","","null","resources/maskTrios/L4BB.jpg","null","",NA,NA,NA,NA,""
"image-keyboard-response",509,451440,"0.0-4.165-2.165","x737r1a5kkbbrbh",730,"124.csv","","null","resources/images/fishbone.png","null","",NA,NA,NA,NA,""
"image-keyboard-response",510,452011,"0.0-4.166-0.166","x737r1a5kkbbrbh",730,"124.csv","","570","resources/trios/L4T2A3.jpg","39","restless",0.4,0.7,0.4,0.725486512378489,"false"
"image-keyboard-response",511,452412,"0.0-4.166-1.166","x737r1a5kkbbrbh",730,"124.csv","","null","resources/maskTrios/BBA3.jpg","null","",NA,NA,NA,NA,""
"image-keyboard-response",512,453613,"0.0-4.166-2.166","x737r1a5kkbbrbh",730,"124.csv","","null","resources/images/fishbone.png","null","",NA,NA,NA,NA,""
"image-keyboard-response",513,454293,"0.0-4.167-0.167","x737r1a5kkbbrbh",730,"124.csv","","680","resources/trios/L4T2A3.jpg","38","restless",0.4,0.7,0.4,0.26477246364503,"true"
"image-keyboard-response",514,454695,"0.0-4.167-1.167","x737r1a5kkbbrbh",730,"124.csv","","null","resources/maskTrios/BT2B.jpg","null","",NA,NA,NA,NA,""
"image-keyboard-response",515,455895,"0.0-4.167-2.167","x737r1a5kkbbrbh",730,"124.csv","","null","resources/images/coin2.png","null","",NA,NA,NA,NA,""
"image-keyboard-response",516,456254,"0.0-4.168-0.168","x737r1a5kkbbrbh",730,"124.csv","","358","resources/trios/L4T2A3.jpg","37","restless",0.4,0.7,0.4,0.88284192819518,"false"
"image-keyboard-response",517,456654,"0.0-4.168-1.168","x737r1a5kkbbrbh",730,"124.csv","","null","resources/maskTrios/L4BB.jpg","null","",NA,NA,NA,NA,""
"image-keyboard-response",518,457856,"0.0-4.168-2.168","x737r1a5kkbbrbh",730,"124.csv","","null","resources/images/fishbone.png","null","",NA,NA,NA,NA,""
"image-keyboard-response",519,458327,"0.0-4.169-0.169","x737r1a5kkbbrbh",730,"124.csv","","471","resources/trios/L4T2A3.jpg","39","restless",0.4,0.7,0.4,0.831531351427852,"false"
"image-keyboard-response",520,458729,"0.0-4.169-1.169","x737r1a5kkbbrbh",730,"124.csv","","null","resources/maskTrios/BBA3.jpg","null","",NA,NA,NA,NA,""
"image-keyboard-response",521,459929,"0.0-4.169-2.169","x737r1a5kkbbrbh",730,"124.csv","","null","resources/images/fishbone.png","null","",NA,NA,NA,NA,""
"image-keyboard-response",522,460357,"0.0-4.170-0.170","x737r1a5kkbbrbh",730,"124.csv","","427","resources/trios/L4T2A3.jpg","38","restless",0.4,0.7,0.4,0.396591247947739,"true"
"image-keyboard-response",523,460758,"0.0-4.170-1.170","x737r1a5kkbbrbh",730,"124.csv","","null","resources/maskTrios/BT2B.jpg","null","",NA,NA,NA,NA,""
"image-keyboard-response",524,461960,"0.0-4.170-2.170","x737r1a5kkbbrbh",730,"124.csv","","null","resources/images/coin2.png","null","",NA,NA,NA,NA,""
"image-keyboard-response",525,462419,"0.0-4.171-0.171","x737r1a5kkbbrbh",730,"124.csv","","458","resources/trios/L4T2A3.jpg","37","restless",0.4,0.7,0.4,0.246772727389372,"true"
"image-keyboard-response",526,462820,"0.0-4.171-1.171","x737r1a5kkbbrbh",730,"124.csv","","null","resources/maskTrios/L4BB.jpg","null","",NA,NA,NA,NA,""
"image-keyboard-response",527,464021,"0.0-4.171-2.171","x737r1a5kkbbrbh",730,"124.csv","","null","resources/images/coin2.png","null","",NA,NA,NA,NA,""
"image-keyboard-response",528,464507,"0.0-4.172-0.172","x737r1a5kkbbrbh",730,"124.csv","","485","resources/trios/L4T2A3.jpg","39","restless",0.4,0.7,0.4,0.79346112037243,"false"
"image-keyboard-response",529,464908,"0.0-4.172-1.172","x737r1a5kkbbrbh",730,"124.csv","","null","resources/maskTrios/BBA3.jpg","null","",NA,NA,NA,NA,""
"image-keyboard-response",530,466109,"0.0-4.172-2.172","x737r1a5kkbbrbh",730,"124.csv","","null","resources/images/fishbone.png","null","",NA,NA,NA,NA,""
"image-keyboard-response",531,466540,"0.0-4.173-0.173","x737r1a5kkbbrbh",730,"124.csv","","431.0000000000582","resources/trios/L4T2A3.jpg","38","restless",0.4,0.7,0.5,0.020342890749355,"true"
"image-keyboard-response",532,466940,"0.0-4.173-1.173","x737r1a5kkbbrbh",730,"124.csv","","null","resources/maskTrios/BT2B.jpg","null","",NA,NA,NA,NA,""
"image-keyboard-response",533,468141,"0.0-4.173-2.173","x737r1a5kkbbrbh",730,"124.csv","","null","resources/images/coin2.png","null","",NA,NA,NA,NA,""
"image-keyboard-response",534,468629,"0.0-4.174-0.174","x737r1a5kkbbrbh",730,"124.csv","","487.0000000000582","resources/trios/L4T2A3.jpg","37","restless",0.4,0.7,0.5,0.251654588098707,"true"
"image-keyboard-response",535,469030,"0.0-4.174-1.174","x737r1a5kkbbrbh",730,"124.csv","","null","resources/maskTrios/L4BB.jpg","null","",NA,NA,NA,NA,""
"image-keyboard-response",536,470232,"0.0-4.174-2.174","x737r1a5kkbbrbh",730,"124.csv","","null","resources/images/coin2.png","null","",NA,NA,NA,NA,""
"image-keyboard-response",537,470706,"0.0-4.175-0.175","x737r1a5kkbbrbh",730,"124.csv","","474.0000000000582","resources/trios/L4T2A3.jpg","39","restless",0.4,0.7,0.5,0.310474594318429,"true"
"image-keyboard-response",538,471107,"0.0-4.175-1.175","x737r1a5kkbbrbh",730,"124.csv","","null","resources/maskTrios/BBA3.jpg","null","",NA,NA,NA,NA,""
"image-keyboard-response",539,472309,"0.0-4.175-2.175","x737r1a5kkbbrbh",730,"124.csv","","null","resources/images/coin2.png","null","",NA,NA,NA,NA,""
"image-keyboard-response",540,472693,"0.0-4.176-0.176","x737r1a5kkbbrbh",730,"124.csv","","384","resources/trios/L4T2A3.jpg","38","restless",0.4,0.6,0.5,0.206527034851867,"true"
"image-keyboard-response",541,473094,"0.0-4.176-1.176","x737r1a5kkbbrbh",730,"124.csv","","null","resources/maskTrios/BT2B.jpg","null","",NA,NA,NA,NA,""
"image-keyboard-response",542,474296,"0.0-4.176-2.176","x737r1a5kkbbrbh",730,"124.csv","","null","resources/images/coin2.png","null","",NA,NA,NA,NA,""
"image-keyboard-response",543,474709,"0.0-4.177-0.177","x737r1a5kkbbrbh",730,"124.csv","","413","resources/trios/L4T2A3.jpg","37","restless",0.4,0.6,0.5,0.76246291580892,"false"
"image-keyboard-response",544,475110,"0.0-4.177-1.177","x737r1a5kkbbrbh",730,"124.csv","","null","resources/maskTrios/L4BB.jpg","null","",NA,NA,NA,NA,""
"image-keyboard-response",545,476310,"0.0-4.177-2.177","x737r1a5kkbbrbh",730,"124.csv","","null","resources/images/fishbone.png","null","",NA,NA,NA,NA,""
"image-keyboard-response",546,476947,"0.0-4.178-0.178","x737r1a5kkbbrbh",730,"124.csv","","637","resources/trios/L4T2A3.jpg","39","restless",0.4,0.6,0.5,0.243198945060767,"true"
"image-keyboard-response",547,477348,"0.0-4.178-1.178","x737r1a5kkbbrbh",730,"124.csv","","null","resources/maskTrios/BBA3.jpg","null","",NA,NA,NA,NA,""
"image-keyboard-response",548,478550,"0.0-4.178-2.178","x737r1a5kkbbrbh",730,"124.csv","","null","resources/images/coin2.png","null","",NA,NA,NA,NA,""
"image-keyboard-response",549,478906,"0.0-4.179-0.179","x737r1a5kkbbrbh",730,"124.csv","","356","resources/trios/L4T2A3.jpg","37","restless",0.4,0.6,0.5,0.463818802373781,"false"
"image-keyboard-response",550,479306,"0.0-4.179-1.179","x737r1a5kkbbrbh",730,"124.csv","","null","resources/maskTrios/L4BB.jpg","null","",NA,NA,NA,NA,""
"image-keyboard-response",551,480507,"0.0-4.179-2.179","x737r1a5kkbbrbh",730,"124.csv","","null","resources/images/fishbone.png","null","",NA,NA,NA,NA,""
"image-keyboard-response",552,480858,"0.0-4.180-0.180","x737r1a5kkbbrbh",730,"124.csv","","350","resources/trios/L4T2A3.jpg","38","restless",0.4,0.6,0.5,0.298930462042684,"true"
"image-keyboard-response",553,481259,"0.0-4.180-1.180","x737r1a5kkbbrbh",730,"124.csv","","null","resources/maskTrios/BT2B.jpg","null","",NA,NA,NA,NA,""
"image-keyboard-response",554,482459,"0.0-4.180-2.180","x737r1a5kkbbrbh",730,"124.csv","","null","resources/images/coin2.png","null","",NA,NA,NA,NA,""
"image-keyboard-response",555,484871,"0.0-4.181-0.181","x737r1a5kkbbrbh",730,"124.csv","","2411","resources/trios/L4T2A3.jpg","39","restless",0.4,0.6,0.5,0.861201537183859,"false"
"image-keyboard-response",556,485273,"0.0-4.181-1.181","x737r1a5kkbbrbh",730,"124.csv","","null","resources/maskTrios/BBA3.jpg","null","",NA,NA,NA,NA,""
"image-keyboard-response",557,486473,"0.0-4.181-2.181","x737r1a5kkbbrbh",730,"124.csv","","null","resources/images/fishbone.png","null","",NA,NA,NA,NA,""
"image-keyboard-response",558,486787,"0.0-4.182-0.182","x737r1a5kkbbrbh",730,"124.csv","","313","resources/trios/L4T2A3.jpg","37","restless",0.4,0.6,0.5,0.65530427309589,"false"
"image-keyboard-response",559,487188,"0.0-4.182-1.182","x737r1a5kkbbrbh",730,"124.csv","","null","resources/maskTrios/L4BB.jpg","null","",NA,NA,NA,NA,""
"image-keyboard-response",560,488389,"0.0-4.182-2.182","x737r1a5kkbbrbh",730,"124.csv","","null","resources/images/fishbone.png","null","",NA,NA,NA,NA,""
"image-keyboard-response",561,488778,"0.0-4.183-0.183","x737r1a5kkbbrbh",730,"124.csv","","389.0000000000582","resources/trios/L4T2A3.jpg","38","restless",0.4,0.6,0.5,0.478945539015692,"true"
"image-keyboard-response",562,489179,"0.0-4.183-1.183","x737r1a5kkbbrbh",730,"124.csv","","null","resources/maskTrios/BT2B.jpg","null","",NA,NA,NA,NA,""
"image-keyboard-response",563,490380,"0.0-4.183-2.183","x737r1a5kkbbrbh",730,"124.csv","","null","resources/images/coin2.png","null","",NA,NA,NA,NA,""
"image-keyboard-response",564,490815,"0.0-4.184-0.184","x737r1a5kkbbrbh",730,"124.csv","","436","resources/trios/L4T2A3.jpg","39","restless",0.4,0.6,0.5,0.418626637788916,"true"
"image-keyboard-response",565,491217,"0.0-4.184-1.184","x737r1a5kkbbrbh",730,"124.csv","","null","resources/maskTrios/BBA3.jpg","null","",NA,NA,NA,NA,""
"image-keyboard-response",566,492417,"0.0-4.184-2.184","x737r1a5kkbbrbh",730,"124.csv","","null","resources/images/coin2.png","null","",NA,NA,NA,NA,""
"image-keyboard-response",567,492979,"0.0-4.185-0.185","x737r1a5kkbbrbh",730,"124.csv","","561","resources/trios/L4T2A3.jpg","37","restless",0.4,0.6,0.5,0.00976051861068417,"true"
"image-keyboard-response",568,493380,"0.0-4.185-1.185","x737r1a5kkbbrbh",730,"124.csv","","null","resources/maskTrios/L4BB.jpg","null","",NA,NA,NA,NA,""
"image-keyboard-response",569,494582,"0.0-4.185-2.185","x737r1a5kkbbrbh",730,"124.csv","","null","resources/images/coin2.png","null","",NA,NA,NA,NA,""
"image-keyboard-response",570,494940,"0.0-4.186-0.186","x737r1a5kkbbrbh",730,"124.csv","","357","resources/trios/L4T2A3.jpg","38","restless",0.4,0.6,0.5,0.568701749511212,"true"
"image-keyboard-response",571,495341,"0.0-4.186-1.186","x737r1a5kkbbrbh",730,"124.csv","","null","resources/maskTrios/BT2B.jpg","null","",NA,NA,NA,NA,""
"image-keyboard-response",572,496542,"0.0-4.186-2.186","x737r1a5kkbbrbh",730,"124.csv","","null","resources/images/coin2.png","null","",NA,NA,NA,NA,""
"image-keyboard-response",573,496869,"0.0-4.187-0.187","x737r1a5kkbbrbh",730,"124.csv","","327","resources/trios/L4T2A3.jpg","39","restless",0.4,0.6,0.5,0.267596672410938,"true"
"image-keyboard-response",574,497269,"0.0-4.187-1.187","x737r1a5kkbbrbh",730,"124.csv","","null","resources/maskTrios/BBA3.jpg","null","",NA,NA,NA,NA,""
"image-keyboard-response",575,498471,"0.0-4.187-2.187","x737r1a5kkbbrbh",730,"124.csv","","null","resources/images/coin2.png","null","",NA,NA,NA,NA,""
"image-keyboard-response",576,498955,"0.0-4.188-0.188","x737r1a5kkbbrbh",730,"124.csv","","484","resources/trios/L4T2A3.jpg","37","restless",0.4,0.6,0.5,0.27714661446063,"true"
"image-keyboard-response",577,499355,"0.0-4.188-1.188","x737r1a5kkbbrbh",730,"124.csv","","null","resources/maskTrios/L4BB.jpg","null","",NA,NA,NA,NA,""
"image-keyboard-response",578,500556,"0.0-4.188-2.188","x737r1a5kkbbrbh",730,"124.csv","","null","resources/images/coin2.png","null","",NA,NA,NA,NA,""
"image-keyboard-response",579,500934,"0.0-4.189-0.189","x737r1a5kkbbrbh",730,"124.csv","","376.9999999999418","resources/trios/L4T2A3.jpg","38","restless",0.4,0.6,0.5,0.43957161560225,"true"
"image-keyboard-response",580,501334,"0.0-4.189-1.189","x737r1a5kkbbrbh",730,"124.csv","","null","resources/maskTrios/BT2B.jpg","null","",NA,NA,NA,NA,""
"image-keyboard-response",581,502536,"0.0-4.189-2.189","x737r1a5kkbbrbh",730,"124.csv","","null","resources/images/coin2.png","null","",NA,NA,NA,NA,""
"image-keyboard-response",582,502953,"0.0-4.190-0.190","x737r1a5kkbbrbh",730,"124.csv","","418","resources/trios/L4T2A3.jpg","39","restless",0.4,0.6,0.5,0.791514041335345,"false"
"image-keyboard-response",583,503354,"0.0-4.190-1.190","x737r1a5kkbbrbh",730,"124.csv","","null","resources/maskTrios/BBA3.jpg","null","",NA,NA,NA,NA,""
"image-keyboard-response",584,504555,"0.0-4.190-2.190","x737r1a5kkbbrbh",730,"124.csv","","null","resources/images/fishbone.png","null","",NA,NA,NA,NA,""
"image-keyboard-response",585,505444,"0.0-4.191-0.191","x737r1a5kkbbrbh",730,"124.csv","","888.0000000000582","resources/trios/L4T2A3.jpg","37","restless",0.4,0.6,0.5,0.457531231969918,"false"
"image-keyboard-response",586,505846,"0.0-4.191-1.191","x737r1a5kkbbrbh",730,"124.csv","","null","resources/maskTrios/L4BB.jpg","null","",NA,NA,NA,NA,""
"image-keyboard-response",587,507046,"0.0-4.191-2.191","x737r1a5kkbbrbh",730,"124.csv","","null","resources/images/fishbone.png","null","",NA,NA,NA,NA,""
"image-keyboard-response",588,507400,"0.0-4.192-0.192","x737r1a5kkbbrbh",730,"124.csv","","353","resources/trios/L4T2A3.jpg","38","restless",0.4,0.6,0.5,0.264054421034945,"true"
"image-keyboard-response",589,507801,"0.0-4.192-1.192","x737r1a5kkbbrbh",730,"124.csv","","null","resources/maskTrios/BT2B.jpg","null","",NA,NA,NA,NA,""
"image-keyboard-response",590,509001,"0.0-4.192-2.192","x737r1a5kkbbrbh",730,"124.csv","","null","resources/images/coin2.png","null","",NA,NA,NA,NA,""
"image-keyboard-response",591,509419,"0.0-4.193-0.193","x737r1a5kkbbrbh",730,"124.csv","","418.0000000000582","resources/trios/L4T2A3.jpg","37","restless",0.4,0.6,0.5,0.415764088892771,"false"
"image-keyboard-response",592,509821,"0.0-4.193-1.193","x737r1a5kkbbrbh",730,"124.csv","","null","resources/maskTrios/L4BB.jpg","null","",NA,NA,NA,NA,""
"image-keyboard-response",593,511022,"0.0-4.193-2.193","x737r1a5kkbbrbh",730,"124.csv","","null","resources/images/fishbone.png","null","",NA,NA,NA,NA,""
"image-keyboard-response",594,511348,"0.0-4.194-0.194","x737r1a5kkbbrbh",730,"124.csv","","325","resources/trios/L4T2A3.jpg","39","restless",0.4,0.6,0.4,0.230922767621716,"true"
"image-keyboard-response",595,511749,"0.0-4.194-1.194","x737r1a5kkbbrbh",730,"124.csv","","null","resources/maskTrios/BBA3.jpg","null","",NA,NA,NA,NA,""
"image-keyboard-response",596,512949,"0.0-4.194-2.194","x737r1a5kkbbrbh",730,"124.csv","","null","resources/images/coin2.png","null","",NA,NA,NA,NA,""
"image-keyboard-response",597,513448,"0.0-4.195-0.195","x737r1a5kkbbrbh",730,"124.csv","","498.0000000000582","resources/trios/L4T2A3.jpg","38","restless",0.4,0.6,0.4,0.767005162371572,"false"
"image-keyboard-response",598,513848,"0.0-4.195-1.195","x737r1a5kkbbrbh",730,"124.csv","","null","resources/maskTrios/BT2B.jpg","null","",NA,NA,NA,NA,""
"image-keyboard-response",599,515049,"0.0-4.195-2.195","x737r1a5kkbbrbh",730,"124.csv","","null","resources/images/fishbone.png","null","",NA,NA,NA,NA,""
"image-keyboard-response",600,515608,"0.0-4.196-0.196","x737r1a5kkbbrbh",730,"124.csv","","558","resources/trios/L4T2A3.jpg","37","restless",0.5,0.6,0.4,0.480144898669473,"true"
"image-keyboard-response",601,516009,"0.0-4.196-1.196","x737r1a5kkbbrbh",730,"124.csv","","null","resources/maskTrios/L4BB.jpg","null","",NA,NA,NA,NA,""
"image-keyboard-response",602,517211,"0.0-4.196-2.196","x737r1a5kkbbrbh",730,"124.csv","","null","resources/images/coin2.png","null","",NA,NA,NA,NA,""
"image-keyboard-response",603,517691,"0.0-4.197-0.197","x737r1a5kkbbrbh",730,"124.csv","","478.9999999999418","resources/trios/L4T2A3.jpg","39","restless",0.5,0.5,0.4,0.978331094108625,"false"
"image-keyboard-response",604,518092,"0.0-4.197-1.197","x737r1a5kkbbrbh",730,"124.csv","","null","resources/maskTrios/BBA3.jpg","null","",NA,NA,NA,NA,""
"image-keyboard-response",605,519292,"0.0-4.197-2.197","x737r1a5kkbbrbh",730,"124.csv","","null","resources/images/fishbone.png","null","",NA,NA,NA,NA,""
"image-keyboard-response",606,519681,"0.0-4.198-0.198","x737r1a5kkbbrbh",730,"124.csv","","388.0000000000582","resources/trios/L4T2A3.jpg","38","restless",0.5,0.5,0.4,0.056819404826866,"true"
"image-keyboard-response",607,520082,"0.0-4.198-1.198","x737r1a5kkbbrbh",730,"124.csv","","null","resources/maskTrios/BT2B.jpg","null","",NA,NA,NA,NA,""
"image-keyboard-response",608,521283,"0.0-4.198-2.198","x737r1a5kkbbrbh",730,"124.csv","","null","resources/images/coin2.png","null","",NA,NA,NA,NA,""
"image-keyboard-response",609,522703,"0.0-4.199-0.199","x737r1a5kkbbrbh",730,"124.csv","","1418.9999999999418","resources/trios/L4T2A3.jpg","37","restless",0.5,0.5,0.4,0.336133047950453,"true"
"image-keyboard-response",610,523105,"0.0-4.199-1.199","x737r1a5kkbbrbh",730,"124.csv","","null","resources/maskTrios/L4BB.jpg","null","",NA,NA,NA,NA,""
"image-keyboard-response",611,524306,"0.0-4.199-2.199","x737r1a5kkbbrbh",730,"124.csv","","null","resources/images/coin2.png","null","",NA,NA,NA,NA,""
"survey-text",612,569431,"0.0-5.0","x737r1a5kkbbrbh",730,"124.csv","","45125","","","",NA,NA,NA,NA,""
