"trial_type","trial_index","time_elapsed","internal_node_id","subject","participantCode","walkNumber","success","rt","stimulus","key_press","test_part","leftProb","midProb","rightProb","generatedNum","correct"
"pavlovia",0,1122,"0.0-0.0","dvsvz2r0jdjjx3w",585,"200.csv","","","","","",NA,NA,NA,NA,""
"fullscreen",1,3857,"0.0-1.0","dvsvz2r0jdjjx3w",585,"200.csv","true","","","","",NA,NA,NA,NA,""
"survey-html-form",2,11806,"0.0-2.0","dvsvz2r0jdjjx3w",585,"200.csv","","7944.400000095367","","","",NA,NA,NA,NA,""
"image-keyboard-response",3,22832,"0.0-3.0-0.0","dvsvz2r0jdjjx3w",585,"200.csv","","11024.700000047684","resources/images/parrot_nobg.png","13","",NA,NA,NA,NA,""
"image-keyboard-response",4,25850,"0.0-3.0-1.0","dvsvz2r0jdjjx3w",585,"200.csv","","null","resources/image_sets/111.png","null","",NA,NA,NA,NA,""
"image-keyboard-response",5,29728,"0.0-3.0-2.0","dvsvz2r0jdjjx3w",585,"200.csv","","3875.600000023842","resources/image_sets/left_highlight.png","37","",NA,NA,NA,NA,""
"image-keyboard-response",6,32243,"0.0-3.0-3.0","dvsvz2r0jdjjx3w",585,"200.csv","","2512.7000000476837","resources/image_sets/mid_highlight.png","38","",NA,NA,NA,NA,""
"image-keyboard-response",7,33807,"0.0-3.0-4.0","dvsvz2r0jdjjx3w",585,"200.csv","","1563.2999999523163","resources/image_sets/right_highlight.png","39","",NA,NA,NA,NA,""
"image-keyboard-response",8,37478,"0.0-3.0-5.0","dvsvz2r0jdjjx3w",585,"200.csv","","3668.5999999046326","resources/image_sets/111.png","13","",NA,NA,NA,NA,""
"image-keyboard-response",9,40045,"0.0-3.0-6.0","dvsvz2r0jdjjx3w",585,"200.csv","","2565.2999999523163","resources/images/coin2.png","13","",NA,NA,NA,NA,""
"image-keyboard-response",10,41872,"0.0-3.0-7.0","dvsvz2r0jdjjx3w",585,"200.csv","","1826.8000000715256","resources/images/fishbone.png","13","",NA,NA,NA,NA,""
"html-keyboard-response",11,46778,"0.0-3.0-8.0","dvsvz2r0jdjjx3w",585,"200.csv","","4903.600000023842","<p>You can track your coin total on the top right of your screen. </p><p>At the end of your journey you will be directed to a survey, so please click on the link before exiting the task</p><p>Press Enter to begin</p>","13","",NA,NA,NA,NA,""
"image-keyboard-response",12,48876,"0.0-4.0-0.0","dvsvz2r0jdjjx3w",585,"200.csv","","2095.7000000476837","resources/trios/L4T2A3.jpg","39","restless",0.9,0.7,0.3,0.659064076563286,"false"
"image-keyboard-response",13,49281,"0.0-4.0-1.0","dvsvz2r0jdjjx3w",585,"200.csv","","null","resources/maskTrios/BBA3.jpg","null","",NA,NA,NA,NA,""
"image-keyboard-response",14,50491,"0.0-4.0-2.0","dvsvz2r0jdjjx3w",585,"200.csv","","null","resources/images/fishbone.png","null","",NA,NA,NA,NA,""
"image-keyboard-response",15,51154,"0.0-4.1-0.1","dvsvz2r0jdjjx3w",585,"200.csv","","659.5999999046326","resources/trios/L4T2A3.jpg","37","restless",0.8,0.7,0.3,0.889633831261492,"false"
"image-keyboard-response",16,51560,"0.0-4.1-1.1","dvsvz2r0jdjjx3w",585,"200.csv","","null","resources/maskTrios/L4BB.jpg","null","",NA,NA,NA,NA,""
"image-keyboard-response",17,52777,"0.0-4.1-2.1","dvsvz2r0jdjjx3w",585,"200.csv","","null","resources/images/fishbone.png","null","",NA,NA,NA,NA,""
"image-keyboard-response",18,53716,"0.0-4.2-0.2","dvsvz2r0jdjjx3w",585,"200.csv","","937.1000000238419","resources/trios/L4T2A3.jpg","38","restless",0.8,0.7,0.3,0.263445235166038,"true"
"image-keyboard-response",19,54125,"0.0-4.2-1.2","dvsvz2r0jdjjx3w",585,"200.csv","","null","resources/maskTrios/BT2B.jpg","null","",NA,NA,NA,NA,""
"image-keyboard-response",20,55347,"0.0-4.2-2.2","dvsvz2r0jdjjx3w",585,"200.csv","","null","resources/images/coin2.png","null","",NA,NA,NA,NA,""
"image-keyboard-response",21,56147,"0.0-4.3-0.3","dvsvz2r0jdjjx3w",585,"200.csv","","798","resources/trios/L4T2A3.jpg","38","restless",0.8,0.7,0.4,0.372635287524709,"true"
"image-keyboard-response",22,56562,"0.0-4.3-1.3","dvsvz2r0jdjjx3w",585,"200.csv","","null","resources/maskTrios/BT2B.jpg","null","",NA,NA,NA,NA,""
"image-keyboard-response",23,57776,"0.0-4.3-2.3","dvsvz2r0jdjjx3w",585,"200.csv","","null","resources/images/coin2.png","null","",NA,NA,NA,NA,""
"image-keyboard-response",24,58494,"0.0-4.4-0.4","dvsvz2r0jdjjx3w",585,"200.csv","","715.2000000476837","resources/trios/L4T2A3.jpg","39","restless",0.8,0.7,0.4,0.174402981635266,"true"
"image-keyboard-response",25,58910,"0.0-4.4-1.4","dvsvz2r0jdjjx3w",585,"200.csv","","null","resources/maskTrios/BBA3.jpg","null","",NA,NA,NA,NA,""
"image-keyboard-response",26,60117,"0.0-4.4-2.4","dvsvz2r0jdjjx3w",585,"200.csv","","null","resources/images/coin2.png","null","",NA,NA,NA,NA,""
"image-keyboard-response",27,62494,"0.0-4.5-0.5","dvsvz2r0jdjjx3w",585,"200.csv","","2374.6999999284744","resources/trios/L4T2A3.jpg","37","restless",0.8,0.7,0.4,0.116679675533373,"true"
"image-keyboard-response",28,62912,"0.0-4.5-1.5","dvsvz2r0jdjjx3w",585,"200.csv","","null","resources/maskTrios/L4BB.jpg","null","",NA,NA,NA,NA,""
"image-keyboard-response",29,64122,"0.0-4.5-2.5","dvsvz2r0jdjjx3w",585,"200.csv","","null","resources/images/coin2.png","null","",NA,NA,NA,NA,""
"image-keyboard-response",30,64498,"0.0-4.6-0.6","dvsvz2r0jdjjx3w",585,"200.csv","","374.89999997615814","resources/trios/L4T2A3.jpg","38","restless",0.7,0.7,0.4,0.506795131567836,"true"
"image-keyboard-response",31,64916,"0.0-4.6-1.6","dvsvz2r0jdjjx3w",585,"200.csv","","null","resources/maskTrios/BT2B.jpg","null","",NA,NA,NA,NA,""
"image-keyboard-response",32,66133,"0.0-4.6-2.6","dvsvz2r0jdjjx3w",585,"200.csv","","null","resources/images/coin2.png","null","",NA,NA,NA,NA,""
"image-keyboard-response",33,66572,"0.0-4.7-0.7","dvsvz2r0jdjjx3w",585,"200.csv","","436.2999999523163","resources/trios/L4T2A3.jpg","37","restless",0.7,0.7,0.4,0.578816289032402,"true"
"image-keyboard-response",34,66980,"0.0-4.7-1.7","dvsvz2r0jdjjx3w",585,"200.csv","","null","resources/maskTrios/L4BB.jpg","null","",NA,NA,NA,NA,""
"image-keyboard-response",35,68187,"0.0-4.7-2.7","dvsvz2r0jdjjx3w",585,"200.csv","","null","resources/images/coin2.png","null","",NA,NA,NA,NA,""
"image-keyboard-response",36,68534,"0.0-4.8-0.8","dvsvz2r0jdjjx3w",585,"200.csv","","343.90000009536743","resources/trios/L4T2A3.jpg","39","restless",0.7,0.7,0.4,0.471659319545457,"false"
"image-keyboard-response",37,68948,"0.0-4.8-1.8","dvsvz2r0jdjjx3w",585,"200.csv","","null","resources/maskTrios/BBA3.jpg","null","",NA,NA,NA,NA,""
"image-keyboard-response",38,70152,"0.0-4.8-2.8","dvsvz2r0jdjjx3w",585,"200.csv","","null","resources/images/fishbone.png","null","",NA,NA,NA,NA,""
"image-keyboard-response",39,70673,"0.0-4.9-0.9","dvsvz2r0jdjjx3w",585,"200.csv","","518.5","resources/trios/L4T2A3.jpg","38","restless",0.7,0.7,0.4,0.374141421475805,"true"
"image-keyboard-response",40,71083,"0.0-4.9-1.9","dvsvz2r0jdjjx3w",585,"200.csv","","null","resources/maskTrios/BT2B.jpg","null","",NA,NA,NA,NA,""
"image-keyboard-response",41,72297,"0.0-4.9-2.9","dvsvz2r0jdjjx3w",585,"200.csv","","null","resources/images/coin2.png","null","",NA,NA,NA,NA,""
"image-keyboard-response",42,72893,"0.0-4.10-0.10","dvsvz2r0jdjjx3w",585,"200.csv","","593.1000000238419","resources/trios/L4T2A3.jpg","38","restless",0.7,0.7,0.5,0.155810364963575,"true"
"image-keyboard-response",43,73306,"0.0-4.10-1.10","dvsvz2r0jdjjx3w",585,"200.csv","","null","resources/maskTrios/BT2B.jpg","null","",NA,NA,NA,NA,""
"image-keyboard-response",44,74518,"0.0-4.10-2.10","dvsvz2r0jdjjx3w",585,"200.csv","","null","resources/images/coin2.png","null","",NA,NA,NA,NA,""
"image-keyboard-response",45,75415,"0.0-4.11-0.11","dvsvz2r0jdjjx3w",585,"200.csv","","893.7999999523163","resources/trios/L4T2A3.jpg","37","restless",0.7,0.8,0.5,0.674404166536705,"true"
"image-keyboard-response",46,75832,"0.0-4.11-1.11","dvsvz2r0jdjjx3w",585,"200.csv","","null","resources/maskTrios/L4BB.jpg","null","",NA,NA,NA,NA,""
"image-keyboard-response",47,77037,"0.0-4.11-2.11","dvsvz2r0jdjjx3w",585,"200.csv","","null","resources/images/coin2.png","null","",NA,NA,NA,NA,""
"image-keyboard-response",48,77475,"0.0-4.12-0.12","dvsvz2r0jdjjx3w",585,"200.csv","","435.2000000476837","resources/trios/L4T2A3.jpg","39","restless",0.7,0.8,0.5,0.88038827915482,"false"
"image-keyboard-response",49,77886,"0.0-4.12-1.12","dvsvz2r0jdjjx3w",585,"200.csv","","null","resources/maskTrios/BBA3.jpg","null","",NA,NA,NA,NA,""
"image-keyboard-response",50,79102,"0.0-4.12-2.12","dvsvz2r0jdjjx3w",585,"200.csv","","null","resources/images/fishbone.png","null","",NA,NA,NA,NA,""
"image-keyboard-response",51,79561,"0.0-4.13-0.13","dvsvz2r0jdjjx3w",585,"200.csv","","457.2999999523163","resources/trios/L4T2A3.jpg","38","restless",0.7,0.8,0.5,0.25572907504653,"true"
"image-keyboard-response",52,79980,"0.0-4.13-1.13","dvsvz2r0jdjjx3w",585,"200.csv","","null","resources/maskTrios/BT2B.jpg","null","",NA,NA,NA,NA,""
"image-keyboard-response",53,81187,"0.0-4.13-2.13","dvsvz2r0jdjjx3w",585,"200.csv","","null","resources/images/coin2.png","null","",NA,NA,NA,NA,""
"image-keyboard-response",54,81636,"0.0-4.14-0.14","dvsvz2r0jdjjx3w",585,"200.csv","","445.7000000476837","resources/trios/L4T2A3.jpg","38","restless",0.7,0.8,0.5,0.503218951327885,"true"
"image-keyboard-response",55,82044,"0.0-4.14-1.14","dvsvz2r0jdjjx3w",585,"200.csv","","null","resources/maskTrios/BT2B.jpg","null","",NA,NA,NA,NA,""
"image-keyboard-response",56,83258,"0.0-4.14-2.14","dvsvz2r0jdjjx3w",585,"200.csv","","null","resources/images/coin2.png","null","",NA,NA,NA,NA,""
"image-keyboard-response",57,83826,"0.0-4.15-0.15","dvsvz2r0jdjjx3w",585,"200.csv","","566.5","resources/trios/L4T2A3.jpg","38","restless",0.7,0.8,0.5,0.233103958324131,"true"
"image-keyboard-response",58,84235,"0.0-4.15-1.15","dvsvz2r0jdjjx3w",585,"200.csv","","null","resources/maskTrios/BT2B.jpg","null","",NA,NA,NA,NA,""
"image-keyboard-response",59,85439,"0.0-4.15-2.15","dvsvz2r0jdjjx3w",585,"200.csv","","null","resources/images/coin2.png","null","",NA,NA,NA,NA,""
"image-keyboard-response",60,85857,"0.0-4.16-0.16","dvsvz2r0jdjjx3w",585,"200.csv","","415.89999997615814","resources/trios/L4T2A3.jpg","38","restless",0.7,0.8,0.5,0.806854844958391,"false"
"image-keyboard-response",61,86270,"0.0-4.16-1.16","dvsvz2r0jdjjx3w",585,"200.csv","","null","resources/maskTrios/BT2B.jpg","null","",NA,NA,NA,NA,""
"image-keyboard-response",62,87477,"0.0-4.16-2.16","dvsvz2r0jdjjx3w",585,"200.csv","","null","resources/images/fishbone.png","null","",NA,NA,NA,NA,""
"image-keyboard-response",63,87872,"0.0-4.17-0.17","dvsvz2r0jdjjx3w",585,"200.csv","","393.2999999523163","resources/trios/L4T2A3.jpg","39","restless",0.7,0.8,0.5,0.18176870832888,"true"
"image-keyboard-response",64,88288,"0.0-4.17-1.17","dvsvz2r0jdjjx3w",585,"200.csv","","null","resources/maskTrios/BBA3.jpg","null","",NA,NA,NA,NA,""
"image-keyboard-response",65,89504,"0.0-4.17-2.17","dvsvz2r0jdjjx3w",585,"200.csv","","null","resources/images/coin2.png","null","",NA,NA,NA,NA,""
"image-keyboard-response",66,90056,"0.0-4.18-0.18","dvsvz2r0jdjjx3w",585,"200.csv","","548.8999999761581","resources/trios/L4T2A3.jpg","37","restless",0.7,0.8,0.5,0.581449162593392,"true"
"image-keyboard-response",67,90475,"0.0-4.18-1.18","dvsvz2r0jdjjx3w",585,"200.csv","","null","resources/maskTrios/L4BB.jpg","null","",NA,NA,NA,NA,""
"image-keyboard-response",68,91684,"0.0-4.18-2.18","dvsvz2r0jdjjx3w",585,"200.csv","","null","resources/images/coin2.png","null","",NA,NA,NA,NA,""
"image-keyboard-response",69,91951,"0.0-4.19-0.19","dvsvz2r0jdjjx3w",585,"200.csv","","265.7999999523163","resources/trios/L4T2A3.jpg","39","restless",0.7,0.8,0.5,0.636738800804685,"false"
"image-keyboard-response",70,92364,"0.0-4.19-1.19","dvsvz2r0jdjjx3w",585,"200.csv","","null","resources/maskTrios/BBA3.jpg","null","",NA,NA,NA,NA,""
"image-keyboard-response",71,93579,"0.0-4.19-2.19","dvsvz2r0jdjjx3w",585,"200.csv","","null","resources/images/fishbone.png","null","",NA,NA,NA,NA,""
"image-keyboard-response",72,94191,"0.0-4.20-0.20","dvsvz2r0jdjjx3w",585,"200.csv","","610.6999999284744","resources/trios/L4T2A3.jpg","37","restless",0.7,0.7,0.5,0.895941008715621,"false"
"image-keyboard-response",73,94606,"0.0-4.20-1.20","dvsvz2r0jdjjx3w",585,"200.csv","","null","resources/maskTrios/L4BB.jpg","null","",NA,NA,NA,NA,""
"image-keyboard-response",74,95820,"0.0-4.20-2.20","dvsvz2r0jdjjx3w",585,"200.csv","","null","resources/images/fishbone.png","null","",NA,NA,NA,NA,""
"image-keyboard-response",75,96124,"0.0-4.21-0.21","dvsvz2r0jdjjx3w",585,"200.csv","","301.7000000476837","resources/trios/L4T2A3.jpg","38","restless",0.7,0.7,0.5,0.398952588843651,"true"
"image-keyboard-response",76,96537,"0.0-4.21-1.21","dvsvz2r0jdjjx3w",585,"200.csv","","null","resources/maskTrios/BT2B.jpg","null","",NA,NA,NA,NA,""
"image-keyboard-response",77,97747,"0.0-4.21-2.21","dvsvz2r0jdjjx3w",585,"200.csv","","null","resources/images/coin2.png","null","",NA,NA,NA,NA,""
"image-keyboard-response",78,98328,"0.0-4.22-0.22","dvsvz2r0jdjjx3w",585,"200.csv","","578.6000000238419","resources/trios/L4T2A3.jpg","38","restless",0.7,0.7,0.5,0.738388689551503,"false"
"image-keyboard-response",79,98745,"0.0-4.22-1.22","dvsvz2r0jdjjx3w",585,"200.csv","","null","resources/maskTrios/BT2B.jpg","null","",NA,NA,NA,NA,""
"image-keyboard-response",80,99957,"0.0-4.22-2.22","dvsvz2r0jdjjx3w",585,"200.csv","","null","resources/images/fishbone.png","null","",NA,NA,NA,NA,""
"image-keyboard-response",81,100244,"0.0-4.23-0.23","dvsvz2r0jdjjx3w",585,"200.csv","","285.2000000476837","resources/trios/L4T2A3.jpg","39","restless",0.7,0.7,0.5,0.687294487804819,"false"
"image-keyboard-response",82,100661,"0.0-4.23-1.23","dvsvz2r0jdjjx3w",585,"200.csv","","null","resources/maskTrios/BBA3.jpg","null","",NA,NA,NA,NA,""
"image-keyboard-response",83,101867,"0.0-4.23-2.23","dvsvz2r0jdjjx3w",585,"200.csv","","null","resources/images/fishbone.png","null","",NA,NA,NA,NA,""
"image-keyboard-response",84,102178,"0.0-4.24-0.24","dvsvz2r0jdjjx3w",585,"200.csv","","308.7000000476837","resources/trios/L4T2A3.jpg","37","restless",0.7,0.7,0.6,0.032227338532574,"true"
"image-keyboard-response",85,102594,"0.0-4.24-1.24","dvsvz2r0jdjjx3w",585,"200.csv","","null","resources/maskTrios/L4BB.jpg","null","",NA,NA,NA,NA,""
"image-keyboard-response",86,103797,"0.0-4.24-2.24","dvsvz2r0jdjjx3w",585,"200.csv","","null","resources/images/coin2.png","null","",NA,NA,NA,NA,""
"image-keyboard-response",87,104235,"0.0-4.25-0.25","dvsvz2r0jdjjx3w",585,"200.csv","","434.90000009536743","resources/trios/L4T2A3.jpg","37","restless",0.7,0.7,0.6,0.225622459174823,"true"
"image-keyboard-response",88,104639,"0.0-4.25-1.25","dvsvz2r0jdjjx3w",585,"200.csv","","null","resources/maskTrios/L4BB.jpg","null","",NA,NA,NA,NA,""
"image-keyboard-response",89,105852,"0.0-4.25-2.25","dvsvz2r0jdjjx3w",585,"200.csv","","null","resources/images/coin2.png","null","",NA,NA,NA,NA,""
"image-keyboard-response",90,106106,"0.0-4.26-0.26","dvsvz2r0jdjjx3w",585,"200.csv","","252","resources/trios/L4T2A3.jpg","39","restless",0.7,0.7,0.6,0.622090293896649,"false"
"image-keyboard-response",91,106510,"0.0-4.26-1.26","dvsvz2r0jdjjx3w",585,"200.csv","","null","resources/maskTrios/BBA3.jpg","null","",NA,NA,NA,NA,""
"image-keyboard-response",92,107716,"0.0-4.26-2.26","dvsvz2r0jdjjx3w",585,"200.csv","","null","resources/images/fishbone.png","null","",NA,NA,NA,NA,""
"image-keyboard-response",93,107993,"0.0-4.27-0.27","dvsvz2r0jdjjx3w",585,"200.csv","","274","resources/trios/L4T2A3.jpg","38","restless",0.7,0.7,0.6,0.583957220914864,"true"
"image-keyboard-response",94,108407,"0.0-4.27-1.27","dvsvz2r0jdjjx3w",585,"200.csv","","null","resources/maskTrios/BT2B.jpg","null","",NA,NA,NA,NA,""
"image-keyboard-response",95,109622,"0.0-4.27-2.27","dvsvz2r0jdjjx3w",585,"200.csv","","null","resources/images/coin2.png","null","",NA,NA,NA,NA,""
"image-keyboard-response",96,110065,"0.0-4.28-0.28","dvsvz2r0jdjjx3w",585,"200.csv","","441.39999997615814","resources/trios/L4T2A3.jpg","38","restless",0.7,0.7,0.6,0.0956925529684471,"true"
"image-keyboard-response",97,110470,"0.0-4.28-1.28","dvsvz2r0jdjjx3w",585,"200.csv","","null","resources/maskTrios/BT2B.jpg","null","",NA,NA,NA,NA,""
"image-keyboard-response",98,111685,"0.0-4.28-2.28","dvsvz2r0jdjjx3w",585,"200.csv","","null","resources/images/coin2.png","null","",NA,NA,NA,NA,""
"image-keyboard-response",99,112024,"0.0-4.29-0.29","dvsvz2r0jdjjx3w",585,"200.csv","","336.7999999523163","resources/trios/L4T2A3.jpg","37","restless",0.7,0.6,0.6,0.558689442016821,"true"
"image-keyboard-response",100,112443,"0.0-4.29-1.29","dvsvz2r0jdjjx3w",585,"200.csv","","null","resources/maskTrios/L4BB.jpg","null","",NA,NA,NA,NA,""
"image-keyboard-response",101,113651,"0.0-4.29-2.29","dvsvz2r0jdjjx3w",585,"200.csv","","null","resources/images/coin2.png","null","",NA,NA,NA,NA,""
"image-keyboard-response",102,114227,"0.0-4.30-0.30","dvsvz2r0jdjjx3w",585,"200.csv","","574.5","resources/trios/L4T2A3.jpg","39","restless",0.7,0.6,0.6,0.434793560996294,"true"
"image-keyboard-response",103,114634,"0.0-4.30-1.30","dvsvz2r0jdjjx3w",585,"200.csv","","null","resources/maskTrios/BBA3.jpg","null","",NA,NA,NA,NA,""
"image-keyboard-response",104,115837,"0.0-4.30-2.30","dvsvz2r0jdjjx3w",585,"200.csv","","null","resources/images/coin2.png","null","",NA,NA,NA,NA,""
"image-keyboard-response",105,116190,"0.0-4.31-0.31","dvsvz2r0jdjjx3w",585,"200.csv","","351.1999999284744","resources/trios/L4T2A3.jpg","38","restless",0.7,0.6,0.6,0.417471746583281,"true"
"image-keyboard-response",106,116600,"0.0-4.31-1.31","dvsvz2r0jdjjx3w",585,"200.csv","","null","resources/maskTrios/BT2B.jpg","null","",NA,NA,NA,NA,""
"image-keyboard-response",107,117807,"0.0-4.31-2.31","dvsvz2r0jdjjx3w",585,"200.csv","","null","resources/images/coin2.png","null","",NA,NA,NA,NA,""
"image-keyboard-response",108,118084,"0.0-4.32-0.32","dvsvz2r0jdjjx3w",585,"200.csv","","274.39999997615814","resources/trios/L4T2A3.jpg","38","restless",0.7,0.6,0.6,0.673026172697101,"false"
"image-keyboard-response",109,118500,"0.0-4.32-1.32","dvsvz2r0jdjjx3w",585,"200.csv","","null","resources/maskTrios/BT2B.jpg","null","",NA,NA,NA,NA,""
"image-keyboard-response",110,119714,"0.0-4.32-2.32","dvsvz2r0jdjjx3w",585,"200.csv","","null","resources/images/fishbone.png","null","",NA,NA,NA,NA,""
"image-keyboard-response",111,120048,"0.0-4.33-0.33","dvsvz2r0jdjjx3w",585,"200.csv","","331.7000000476837","resources/trios/L4T2A3.jpg","37","restless",0.6,0.6,0.6,0.797752107202943,"false"
"image-keyboard-response",112,120460,"0.0-4.33-1.33","dvsvz2r0jdjjx3w",585,"200.csv","","null","resources/maskTrios/L4BB.jpg","null","",NA,NA,NA,NA,""
"image-keyboard-response",113,121664,"0.0-4.33-2.33","dvsvz2r0jdjjx3w",585,"200.csv","","null","resources/images/fishbone.png","null","",NA,NA,NA,NA,""
"image-keyboard-response",114,121942,"0.0-4.34-0.34","dvsvz2r0jdjjx3w",585,"200.csv","","275.7000000476837","resources/trios/L4T2A3.jpg","39","restless",0.6,0.5,0.6,0.210118333724513,"true"
"image-keyboard-response",115,122345,"0.0-4.34-1.34","dvsvz2r0jdjjx3w",585,"200.csv","","null","resources/maskTrios/BBA3.jpg","null","",NA,NA,NA,NA,""
"image-keyboard-response",116,123552,"0.0-4.34-2.34","dvsvz2r0jdjjx3w",585,"200.csv","","null","resources/images/coin2.png","null","",NA,NA,NA,NA,""
"image-keyboard-response",117,123991,"0.0-4.35-0.35","dvsvz2r0jdjjx3w",585,"200.csv","","436.2999999523163","resources/trios/L4T2A3.jpg","38","restless",0.6,0.5,0.6,0.264545977010849,"true"
"image-keyboard-response",118,124401,"0.0-4.35-1.35","dvsvz2r0jdjjx3w",585,"200.csv","","null","resources/maskTrios/BT2B.jpg","null","",NA,NA,NA,NA,""
"image-keyboard-response",119,125610,"0.0-4.35-2.35","dvsvz2r0jdjjx3w",585,"200.csv","","null","resources/images/coin2.png","null","",NA,NA,NA,NA,""
"image-keyboard-response",120,125890,"0.0-4.36-0.36","dvsvz2r0jdjjx3w",585,"200.csv","","277.8000000715256","resources/trios/L4T2A3.jpg","39","restless",0.6,0.5,0.6,0.273526217692439,"true"
"image-keyboard-response",121,126301,"0.0-4.36-1.36","dvsvz2r0jdjjx3w",585,"200.csv","","null","resources/maskTrios/BBA3.jpg","null","",NA,NA,NA,NA,""
"image-keyboard-response",122,127511,"0.0-4.36-2.36","dvsvz2r0jdjjx3w",585,"200.csv","","null","resources/images/coin2.png","null","",NA,NA,NA,NA,""
"image-keyboard-response",123,127815,"0.0-4.37-0.37","dvsvz2r0jdjjx3w",585,"200.csv","","301.3000000715256","resources/trios/L4T2A3.jpg","38","restless",0.5,0.5,0.6,0.216351506693603,"true"
"image-keyboard-response",124,128227,"0.0-4.37-1.37","dvsvz2r0jdjjx3w",585,"200.csv","","null","resources/maskTrios/BT2B.jpg","null","",NA,NA,NA,NA,""
"image-keyboard-response",125,129431,"0.0-4.37-2.37","dvsvz2r0jdjjx3w",585,"200.csv","","null","resources/images/coin2.png","null","",NA,NA,NA,NA,""
"image-keyboard-response",126,129705,"0.0-4.38-0.38","dvsvz2r0jdjjx3w",585,"200.csv","","271.5","resources/trios/L4T2A3.jpg","37","restless",0.5,0.5,0.6,0.404840460943938,"true"
"image-keyboard-response",127,130121,"0.0-4.38-1.38","dvsvz2r0jdjjx3w",585,"200.csv","","null","resources/maskTrios/L4BB.jpg","null","",NA,NA,NA,NA,""
"image-keyboard-response",128,131330,"0.0-4.38-2.38","dvsvz2r0jdjjx3w",585,"200.csv","","null","resources/images/coin2.png","null","",NA,NA,NA,NA,""
"image-keyboard-response",129,131334,"0.0-4.39-0.39","dvsvz2r0jdjjx3w",585,"200.csv","","0.20000004768371582","resources/trios/L4T2A3.jpg","38","restless",0.5,0.5,0.6,0.621201395567038,"false"
"image-keyboard-response",130,131744,"0.0-4.39-1.39","dvsvz2r0jdjjx3w",585,"200.csv","","null","resources/maskTrios/BT2B.jpg","null","",NA,NA,NA,NA,""
"image-keyboard-response",131,132955,"0.0-4.39-2.39","dvsvz2r0jdjjx3w",585,"200.csv","","null","resources/images/fishbone.png","null","",NA,NA,NA,NA,""
"image-keyboard-response",132,133258,"0.0-4.40-0.40","dvsvz2r0jdjjx3w",585,"200.csv","","300.60000002384186","resources/trios/L4T2A3.jpg","39","restless",0.5,0.5,0.6,0.995894151980025,"false"
"image-keyboard-response",133,133674,"0.0-4.40-1.40","dvsvz2r0jdjjx3w",585,"200.csv","","null","resources/maskTrios/BBA3.jpg","null","",NA,NA,NA,NA,""
"image-keyboard-response",134,134888,"0.0-4.40-2.40","dvsvz2r0jdjjx3w",585,"200.csv","","null","resources/images/fishbone.png","null","",NA,NA,NA,NA,""
"image-keyboard-response",135,135145,"0.0-4.41-0.41","dvsvz2r0jdjjx3w",585,"200.csv","","254.5","resources/trios/L4T2A3.jpg","39","restless",0.5,0.4,0.5,0.912248824259389,"false"
"image-keyboard-response",136,135562,"0.0-4.41-1.41","dvsvz2r0jdjjx3w",585,"200.csv","","null","resources/maskTrios/BBA3.jpg","null","",NA,NA,NA,NA,""
"image-keyboard-response",137,136771,"0.0-4.41-2.41","dvsvz2r0jdjjx3w",585,"200.csv","","null","resources/images/fishbone.png","null","",NA,NA,NA,NA,""
"image-keyboard-response",138,137034,"0.0-4.42-0.42","dvsvz2r0jdjjx3w",585,"200.csv","","261.90000009536743","resources/trios/L4T2A3.jpg","37","restless",0.5,0.4,0.5,0.0410481989335856,"true"
"image-keyboard-response",139,137453,"0.0-4.42-1.42","dvsvz2r0jdjjx3w",585,"200.csv","","null","resources/maskTrios/L4BB.jpg","null","",NA,NA,NA,NA,""
"image-keyboard-response",140,138670,"0.0-4.42-2.42","dvsvz2r0jdjjx3w",585,"200.csv","","null","resources/images/coin2.png","null","",NA,NA,NA,NA,""
"image-keyboard-response",141,138973,"0.0-4.43-0.43","dvsvz2r0jdjjx3w",585,"200.csv","","300.60000002384186","resources/trios/L4T2A3.jpg","38","restless",0.5,0.4,0.5,0.927627925618866,"false"
"image-keyboard-response",142,139378,"0.0-4.43-1.43","dvsvz2r0jdjjx3w",585,"200.csv","","null","resources/maskTrios/BT2B.jpg","null","",NA,NA,NA,NA,""
"image-keyboard-response",143,140592,"0.0-4.43-2.43","dvsvz2r0jdjjx3w",585,"200.csv","","null","resources/images/fishbone.png","null","",NA,NA,NA,NA,""
"image-keyboard-response",144,140881,"0.0-4.44-0.44","dvsvz2r0jdjjx3w",585,"200.csv","","286.1999999284744","resources/trios/L4T2A3.jpg","37","restless",0.5,0.4,0.5,0.72519561247401,"false"
"image-keyboard-response",145,141285,"0.0-4.44-1.44","dvsvz2r0jdjjx3w",585,"200.csv","","null","resources/maskTrios/L4BB.jpg","null","",NA,NA,NA,NA,""
"image-keyboard-response",146,142490,"0.0-4.44-2.44","dvsvz2r0jdjjx3w",585,"200.csv","","null","resources/images/fishbone.png","null","",NA,NA,NA,NA,""
"image-keyboard-response",147,142746,"0.0-4.45-0.45","dvsvz2r0jdjjx3w",585,"200.csv","","253.5","resources/trios/L4T2A3.jpg","39","restless",0.5,0.4,0.5,0.128361328653836,"true"
"image-keyboard-response",148,143164,"0.0-4.45-1.45","dvsvz2r0jdjjx3w",585,"200.csv","","null","resources/maskTrios/BBA3.jpg","null","",NA,NA,NA,NA,""
"image-keyboard-response",149,144374,"0.0-4.45-2.45","dvsvz2r0jdjjx3w",585,"200.csv","","null","resources/images/coin2.png","null","",NA,NA,NA,NA,""
"image-keyboard-response",150,144797,"0.0-4.46-0.46","dvsvz2r0jdjjx3w",585,"200.csv","","421","resources/trios/L4T2A3.jpg","39","restless",0.4,0.3,0.5,0.968345726246479,"false"
"image-keyboard-response",151,145202,"0.0-4.46-1.46","dvsvz2r0jdjjx3w",585,"200.csv","","null","resources/maskTrios/BBA3.jpg","null","",NA,NA,NA,NA,""
"image-keyboard-response",152,146415,"0.0-4.46-2.46","dvsvz2r0jdjjx3w",585,"200.csv","","null","resources/images/fishbone.png","null","",NA,NA,NA,NA,""
"image-keyboard-response",153,146694,"0.0-4.47-0.47","dvsvz2r0jdjjx3w",585,"200.csv","","276.5","resources/trios/L4T2A3.jpg","38","restless",0.4,0.3,0.5,0.944178514173781,"false"
"image-keyboard-response",154,147105,"0.0-4.47-1.47","dvsvz2r0jdjjx3w",585,"200.csv","","null","resources/maskTrios/BT2B.jpg","null","",NA,NA,NA,NA,""
"image-keyboard-response",155,148318,"0.0-4.47-2.47","dvsvz2r0jdjjx3w",585,"200.csv","","null","resources/images/fishbone.png","null","",NA,NA,NA,NA,""
"image-keyboard-response",156,148641,"0.0-4.48-0.48","dvsvz2r0jdjjx3w",585,"200.csv","","320.40000009536743","resources/trios/L4T2A3.jpg","37","restless",0.4,0.3,0.5,0.0557154535749311,"true"
"image-keyboard-response",157,149055,"0.0-4.48-1.48","dvsvz2r0jdjjx3w",585,"200.csv","","null","resources/maskTrios/L4BB.jpg","null","",NA,NA,NA,NA,""
"image-keyboard-response",158,150268,"0.0-4.48-2.48","dvsvz2r0jdjjx3w",585,"200.csv","","null","resources/images/coin2.png","null","",NA,NA,NA,NA,""
"image-keyboard-response",159,150626,"0.0-4.49-0.49","dvsvz2r0jdjjx3w",585,"200.csv","","354.8000000715256","resources/trios/L4T2A3.jpg","38","restless",0.5,0.3,0.5,0.450158623223342,"false"
"image-keyboard-response",160,151031,"0.0-4.49-1.49","dvsvz2r0jdjjx3w",585,"200.csv","","null","resources/maskTrios/BT2B.jpg","null","",NA,NA,NA,NA,""
"image-keyboard-response",161,152240,"0.0-4.49-2.49","dvsvz2r0jdjjx3w",585,"200.csv","","null","resources/images/fishbone.png","null","",NA,NA,NA,NA,""
"image-keyboard-response",162,152524,"0.0-4.50-0.50","dvsvz2r0jdjjx3w",585,"200.csv","","281.3000000715256","resources/trios/L4T2A3.jpg","37","restless",0.5,0.3,0.4,0.450543377292009,"true"
"image-keyboard-response",163,152927,"0.0-4.50-1.50","dvsvz2r0jdjjx3w",585,"200.csv","","null","resources/maskTrios/L4BB.jpg","null","",NA,NA,NA,NA,""
"image-keyboard-response",164,154140,"0.0-4.50-2.50","dvsvz2r0jdjjx3w",585,"200.csv","","null","resources/images/coin2.png","null","",NA,NA,NA,NA,""
"image-keyboard-response",165,154603,"0.0-4.51-0.51","dvsvz2r0jdjjx3w",585,"200.csv","","460.60000002384186","resources/trios/L4T2A3.jpg","37","restless",0.5,0.3,0.4,0.333197041355625,"true"
"image-keyboard-response",166,155007,"0.0-4.51-1.51","dvsvz2r0jdjjx3w",585,"200.csv","","null","resources/maskTrios/L4BB.jpg","null","",NA,NA,NA,NA,""
"image-keyboard-response",167,156216,"0.0-4.51-2.51","dvsvz2r0jdjjx3w",585,"200.csv","","null","resources/images/coin2.png","null","",NA,NA,NA,NA,""
"image-keyboard-response",168,156586,"0.0-4.52-0.52","dvsvz2r0jdjjx3w",585,"200.csv","","368.1999999284744","resources/trios/L4T2A3.jpg","39","restless",0.5,0.3,0.4,0.935209125944939,"false"
"image-keyboard-response",169,157002,"0.0-4.52-1.52","dvsvz2r0jdjjx3w",585,"200.csv","","null","resources/maskTrios/BBA3.jpg","null","",NA,NA,NA,NA,""
"image-keyboard-response",170,158220,"0.0-4.52-2.52","dvsvz2r0jdjjx3w",585,"200.csv","","null","resources/images/fishbone.png","null","",NA,NA,NA,NA,""
"image-keyboard-response",171,158536,"0.0-4.53-0.53","dvsvz2r0jdjjx3w",585,"200.csv","","312.7999999523163","resources/trios/L4T2A3.jpg","38","restless",0.5,0.3,0.4,0.756382316511792,"false"
"image-keyboard-response",172,158952,"0.0-4.53-1.53","dvsvz2r0jdjjx3w",585,"200.csv","","null","resources/maskTrios/BT2B.jpg","null","",NA,NA,NA,NA,""
"image-keyboard-response",173,160172,"0.0-4.53-2.53","dvsvz2r0jdjjx3w",585,"200.csv","","null","resources/images/fishbone.png","null","",NA,NA,NA,NA,""
"image-keyboard-response",174,160565,"0.0-4.54-0.54","dvsvz2r0jdjjx3w",585,"200.csv","","391.8000000715256","resources/trios/L4T2A3.jpg","37","restless",0.5,0.3,0.4,0.722292247547885,"false"
"image-keyboard-response",175,160984,"0.0-4.54-1.54","dvsvz2r0jdjjx3w",585,"200.csv","","null","resources/maskTrios/L4BB.jpg","null","",NA,NA,NA,NA,""
"image-keyboard-response",176,162200,"0.0-4.54-2.54","dvsvz2r0jdjjx3w",585,"200.csv","","null","resources/images/fishbone.png","null","",NA,NA,NA,NA,""
"image-keyboard-response",177,162471,"0.0-4.55-0.55","dvsvz2r0jdjjx3w",585,"200.csv","","268.7000000476837","resources/trios/L4T2A3.jpg","37","restless",0.5,0.3,0.4,0.718744341619769,"false"
"image-keyboard-response",178,162890,"0.0-4.55-1.55","dvsvz2r0jdjjx3w",585,"200.csv","","null","resources/maskTrios/L4BB.jpg","null","",NA,NA,NA,NA,""
"image-keyboard-response",179,164100,"0.0-4.55-2.55","dvsvz2r0jdjjx3w",585,"200.csv","","null","resources/images/fishbone.png","null","",NA,NA,NA,NA,""
"image-keyboard-response",180,164394,"0.0-4.56-0.56","dvsvz2r0jdjjx3w",585,"200.csv","","291.39999997615814","resources/trios/L4T2A3.jpg","38","restless",0.5,0.3,0.4,0.961996416297042,"false"
"image-keyboard-response",181,164804,"0.0-4.56-1.56","dvsvz2r0jdjjx3w",585,"200.csv","","null","resources/maskTrios/BT2B.jpg","null","",NA,NA,NA,NA,""
"image-keyboard-response",182,166015,"0.0-4.56-2.56","dvsvz2r0jdjjx3w",585,"200.csv","","null","resources/images/fishbone.png","null","",NA,NA,NA,NA,""
"image-keyboard-response",183,166396,"0.0-4.57-0.57","dvsvz2r0jdjjx3w",585,"200.csv","","379.2999999523163","resources/trios/L4T2A3.jpg","39","restless",0.5,0.3,0.4,0.950485334788894,"false"
"image-keyboard-response",184,166804,"0.0-4.57-1.57","dvsvz2r0jdjjx3w",585,"200.csv","","null","resources/maskTrios/BBA3.jpg","null","",NA,NA,NA,NA,""
"image-keyboard-response",185,168013,"0.0-4.57-2.57","dvsvz2r0jdjjx3w",585,"200.csv","","null","resources/images/fishbone.png","null","",NA,NA,NA,NA,""
"image-keyboard-response",186,168359,"0.0-4.58-0.58","dvsvz2r0jdjjx3w",585,"200.csv","","343.6999999284744","resources/trios/L4T2A3.jpg","38","restless",0.5,0.3,0.4,0.334785182419353,"false"
"image-keyboard-response",187,168764,"0.0-4.58-1.58","dvsvz2r0jdjjx3w",585,"200.csv","","null","resources/maskTrios/BT2B.jpg","null","",NA,NA,NA,NA,""
"image-keyboard-response",188,169981,"0.0-4.58-2.58","dvsvz2r0jdjjx3w",585,"200.csv","","null","resources/images/fishbone.png","null","",NA,NA,NA,NA,""
"image-keyboard-response",189,170277,"0.0-4.59-0.59","dvsvz2r0jdjjx3w",585,"200.csv","","294.39999997615814","resources/trios/L4T2A3.jpg","37","restless",0.5,0.4,0.4,0.12193427978307,"true"
"image-keyboard-response",190,170691,"0.0-4.59-1.59","dvsvz2r0jdjjx3w",585,"200.csv","","null","resources/maskTrios/L4BB.jpg","null","",NA,NA,NA,NA,""
"image-keyboard-response",191,171898,"0.0-4.59-2.59","dvsvz2r0jdjjx3w",585,"200.csv","","null","resources/images/coin2.png","null","",NA,NA,NA,NA,""
"image-keyboard-response",192,172220,"0.0-4.60-0.60","dvsvz2r0jdjjx3w",585,"200.csv","","320.2000000476837","resources/trios/L4T2A3.jpg","37","restless",0.6,0.4,0.4,0.940589682543791,"false"
"image-keyboard-response",193,172625,"0.0-4.60-1.60","dvsvz2r0jdjjx3w",585,"200.csv","","null","resources/maskTrios/L4BB.jpg","null","",NA,NA,NA,NA,""
"image-keyboard-response",194,173831,"0.0-4.60-2.60","dvsvz2r0jdjjx3w",585,"200.csv","","null","resources/images/fishbone.png","null","",NA,NA,NA,NA,""
"image-keyboard-response",195,174164,"0.0-4.61-0.61","dvsvz2r0jdjjx3w",585,"200.csv","","330.2999999523163","resources/trios/L4T2A3.jpg","38","restless",0.6,0.4,0.4,0.53677822925943,"false"
"image-keyboard-response",196,174581,"0.0-4.61-1.61","dvsvz2r0jdjjx3w",585,"200.csv","","null","resources/maskTrios/BT2B.jpg","null","",NA,NA,NA,NA,""
"image-keyboard-response",197,175790,"0.0-4.61-2.61","dvsvz2r0jdjjx3w",585,"200.csv","","null","resources/images/fishbone.png","null","",NA,NA,NA,NA,""
"image-keyboard-response",198,176162,"0.0-4.62-0.62","dvsvz2r0jdjjx3w",585,"200.csv","","369.5","resources/trios/L4T2A3.jpg","37","restless",0.6,0.4,0.4,0.883506690120618,"false"
"image-keyboard-response",199,176570,"0.0-4.62-1.62","dvsvz2r0jdjjx3w",585,"200.csv","","null","resources/maskTrios/L4BB.jpg","null","",NA,NA,NA,NA,""
"image-keyboard-response",200,177780,"0.0-4.62-2.62","dvsvz2r0jdjjx3w",585,"200.csv","","null","resources/images/fishbone.png","null","",NA,NA,NA,NA,""
"image-keyboard-response",201,178038,"0.0-4.63-0.63","dvsvz2r0jdjjx3w",585,"200.csv","","255.20000004768372","resources/trios/L4T2A3.jpg","39","restless",0.6,0.4,0.4,0.195044904913399,"true"
"image-keyboard-response",202,178448,"0.0-4.63-1.63","dvsvz2r0jdjjx3w",585,"200.csv","","null","resources/maskTrios/BBA3.jpg","null","",NA,NA,NA,NA,""
"image-keyboard-response",203,179657,"0.0-4.63-2.63","dvsvz2r0jdjjx3w",585,"200.csv","","null","resources/images/coin2.png","null","",NA,NA,NA,NA,""
"image-keyboard-response",204,179947,"0.0-4.64-0.64","dvsvz2r0jdjjx3w",585,"200.csv","","287.39999997615814","resources/trios/L4T2A3.jpg","38","restless",0.6,0.4,0.4,0.137712240068152,"true"
"image-keyboard-response",205,180352,"0.0-4.64-1.64","dvsvz2r0jdjjx3w",585,"200.csv","","null","resources/maskTrios/BT2B.jpg","null","",NA,NA,NA,NA,""
"image-keyboard-response",206,181556,"0.0-4.64-2.64","dvsvz2r0jdjjx3w",585,"200.csv","","null","resources/images/coin2.png","null","",NA,NA,NA,NA,""
"image-keyboard-response",207,181953,"0.0-4.65-0.65","dvsvz2r0jdjjx3w",585,"200.csv","","393.7999999523163","resources/trios/L4T2A3.jpg","37","restless",0.6,0.4,0.4,0.920815299807285,"false"
"image-keyboard-response",208,182362,"0.0-4.65-1.65","dvsvz2r0jdjjx3w",585,"200.csv","","null","resources/maskTrios/L4BB.jpg","null","",NA,NA,NA,NA,""
"image-keyboard-response",209,183570,"0.0-4.65-2.65","dvsvz2r0jdjjx3w",585,"200.csv","","null","resources/images/fishbone.png","null","",NA,NA,NA,NA,""
"image-keyboard-response",210,183888,"0.0-4.66-0.66","dvsvz2r0jdjjx3w",585,"200.csv","","315.2000000476837","resources/trios/L4T2A3.jpg","38","restless",0.6,0.4,0.4,0.812870028246017,"false"
"image-keyboard-response",211,184291,"0.0-4.66-1.66","dvsvz2r0jdjjx3w",585,"200.csv","","null","resources/maskTrios/BT2B.jpg","null","",NA,NA,NA,NA,""
"image-keyboard-response",212,185507,"0.0-4.66-2.66","dvsvz2r0jdjjx3w",585,"200.csv","","null","resources/images/fishbone.png","null","",NA,NA,NA,NA,""
"image-keyboard-response",213,185780,"0.0-4.67-0.67","dvsvz2r0jdjjx3w",585,"200.csv","","270.2999999523163","resources/trios/L4T2A3.jpg","39","restless",0.6,0.5,0.4,0.3636959688718,"true"
"image-keyboard-response",214,186187,"0.0-4.67-1.67","dvsvz2r0jdjjx3w",585,"200.csv","","null","resources/maskTrios/BBA3.jpg","null","",NA,NA,NA,NA,""
"image-keyboard-response",215,187403,"0.0-4.67-2.67","dvsvz2r0jdjjx3w",585,"200.csv","","null","resources/images/coin2.png","null","",NA,NA,NA,NA,""
"image-keyboard-response",216,187810,"0.0-4.68-0.68","dvsvz2r0jdjjx3w",585,"200.csv","","403.7999999523163","resources/trios/L4T2A3.jpg","39","restless",0.7,0.5,0.4,0.635963142095314,"false"
"image-keyboard-response",217,188223,"0.0-4.68-1.68","dvsvz2r0jdjjx3w",585,"200.csv","","null","resources/maskTrios/BBA3.jpg","null","",NA,NA,NA,NA,""
"image-keyboard-response",218,189437,"0.0-4.68-2.68","dvsvz2r0jdjjx3w",585,"200.csv","","null","resources/images/fishbone.png","null","",NA,NA,NA,NA,""
"image-keyboard-response",219,189688,"0.0-4.69-0.69","dvsvz2r0jdjjx3w",585,"200.csv","","248.5","resources/trios/L4T2A3.jpg","38","restless",0.7,0.5,0.3,0.0854245069159907,"true"
"image-keyboard-response",220,190108,"0.0-4.69-1.69","dvsvz2r0jdjjx3w",585,"200.csv","","null","resources/maskTrios/BT2B.jpg","null","",NA,NA,NA,NA,""
"image-keyboard-response",221,191328,"0.0-4.69-2.69","dvsvz2r0jdjjx3w",585,"200.csv","","null","resources/images/coin2.png","null","",NA,NA,NA,NA,""
"image-keyboard-response",222,191844,"0.0-4.70-0.70","dvsvz2r0jdjjx3w",585,"200.csv","","514.5999999046326","resources/trios/L4T2A3.jpg","38","restless",0.7,0.5,0.3,0.565081312419956,"false"
"image-keyboard-response",223,192260,"0.0-4.70-1.70","dvsvz2r0jdjjx3w",585,"200.csv","","null","resources/maskTrios/BT2B.jpg","null","",NA,NA,NA,NA,""
"image-keyboard-response",224,193470,"0.0-4.70-2.70","dvsvz2r0jdjjx3w",585,"200.csv","","null","resources/images/fishbone.png","null","",NA,NA,NA,NA,""
"image-keyboard-response",225,193796,"0.0-4.71-0.71","dvsvz2r0jdjjx3w",585,"200.csv","","324.10000002384186","resources/trios/L4T2A3.jpg","37","restless",0.7,0.5,0.3,0.931320490767686,"false"
"image-keyboard-response",226,194207,"0.0-4.71-1.71","dvsvz2r0jdjjx3w",585,"200.csv","","null","resources/maskTrios/L4BB.jpg","null","",NA,NA,NA,NA,""
"image-keyboard-response",227,195423,"0.0-4.71-2.71","dvsvz2r0jdjjx3w",585,"200.csv","","null","resources/images/fishbone.png","null","",NA,NA,NA,NA,""
"image-keyboard-response",228,195841,"0.0-4.72-0.72","dvsvz2r0jdjjx3w",585,"200.csv","","415.39999997615814","resources/trios/L4T2A3.jpg","39","restless",0.7,0.5,0.3,0.877945935351197,"false"
"image-keyboard-response",229,196251,"0.0-4.72-1.72","dvsvz2r0jdjjx3w",585,"200.csv","","null","resources/maskTrios/BBA3.jpg","null","",NA,NA,NA,NA,""
"image-keyboard-response",230,197460,"0.0-4.72-2.72","dvsvz2r0jdjjx3w",585,"200.csv","","null","resources/images/fishbone.png","null","",NA,NA,NA,NA,""
"image-keyboard-response",231,197741,"0.0-4.73-0.73","dvsvz2r0jdjjx3w",585,"200.csv","","278.39999997615814","resources/trios/L4T2A3.jpg","38","restless",0.7,0.5,0.3,0.184775482161263,"true"
"image-keyboard-response",232,198156,"0.0-4.73-1.73","dvsvz2r0jdjjx3w",585,"200.csv","","null","resources/maskTrios/BT2B.jpg","null","",NA,NA,NA,NA,""
"image-keyboard-response",233,199361,"0.0-4.73-2.73","dvsvz2r0jdjjx3w",585,"200.csv","","null","resources/images/coin2.png","null","",NA,NA,NA,NA,""
"image-keyboard-response",234,200044,"0.0-4.74-0.74","dvsvz2r0jdjjx3w",585,"200.csv","","681.5","resources/trios/L4T2A3.jpg","38","restless",0.7,0.4,0.4,0.389194039627621,"true"
"image-keyboard-response",235,200453,"0.0-4.74-1.74","dvsvz2r0jdjjx3w",585,"200.csv","","null","resources/maskTrios/BT2B.jpg","null","",NA,NA,NA,NA,""
"image-keyboard-response",236,201667,"0.0-4.74-2.74","dvsvz2r0jdjjx3w",585,"200.csv","","null","resources/images/coin2.png","null","",NA,NA,NA,NA,""
"image-keyboard-response",237,202518,"0.0-4.75-0.75","dvsvz2r0jdjjx3w",585,"200.csv","","848.2999999523163","resources/trios/L4T2A3.jpg","37","restless",0.7,0.4,0.4,0.228918078069476,"true"
"image-keyboard-response",238,202920,"0.0-4.75-1.75","dvsvz2r0jdjjx3w",585,"200.csv","","null","resources/maskTrios/L4BB.jpg","null","",NA,NA,NA,NA,""
"image-keyboard-response",239,204124,"0.0-4.75-2.75","dvsvz2r0jdjjx3w",585,"200.csv","","null","resources/images/coin2.png","null","",NA,NA,NA,NA,""
"image-keyboard-response",240,204638,"0.0-4.76-0.76","dvsvz2r0jdjjx3w",585,"200.csv","","512.2000000476837","resources/trios/L4T2A3.jpg","39","restless",0.7,0.4,0.4,0.239547544128247,"true"
"image-keyboard-response",241,205044,"0.0-4.76-1.76","dvsvz2r0jdjjx3w",585,"200.csv","","null","resources/maskTrios/BBA3.jpg","null","",NA,NA,NA,NA,""
"image-keyboard-response",242,206256,"0.0-4.76-2.76","dvsvz2r0jdjjx3w",585,"200.csv","","null","resources/images/coin2.png","null","",NA,NA,NA,NA,""
"image-keyboard-response",243,206583,"0.0-4.77-0.77","dvsvz2r0jdjjx3w",585,"200.csv","","322.7999999523163","resources/trios/L4T2A3.jpg","38","restless",0.7,0.4,0.4,0.0196991367447594,"true"
"image-keyboard-response",244,206987,"0.0-4.77-1.77","dvsvz2r0jdjjx3w",585,"200.csv","","null","resources/maskTrios/BT2B.jpg","null","",NA,NA,NA,NA,""
"image-keyboard-response",245,208190,"0.0-4.77-2.77","dvsvz2r0jdjjx3w",585,"200.csv","","null","resources/images/coin2.png","null","",NA,NA,NA,NA,""
"image-keyboard-response",246,208591,"0.0-4.78-0.78","dvsvz2r0jdjjx3w",585,"200.csv","","397.7000000476837","resources/trios/L4T2A3.jpg","38","restless",0.7,0.4,0.4,0.893967997764018,"false"
"image-keyboard-response",247,209000,"0.0-4.78-1.78","dvsvz2r0jdjjx3w",585,"200.csv","","null","resources/maskTrios/BT2B.jpg","null","",NA,NA,NA,NA,""
"image-keyboard-response",248,210210,"0.0-4.78-2.78","dvsvz2r0jdjjx3w",585,"200.csv","","null","resources/images/fishbone.png","null","",NA,NA,NA,NA,""
"image-keyboard-response",249,210754,"0.0-4.79-0.79","dvsvz2r0jdjjx3w",585,"200.csv","","540.9000000953674","resources/trios/L4T2A3.jpg","39","restless",0.7,0.4,0.4,0.812894213446932,"false"
"image-keyboard-response",250,211163,"0.0-4.79-1.79","dvsvz2r0jdjjx3w",585,"200.csv","","null","resources/maskTrios/BBA3.jpg","null","",NA,NA,NA,NA,""
"image-keyboard-response",251,212376,"0.0-4.79-2.79","dvsvz2r0jdjjx3w",585,"200.csv","","null","resources/images/fishbone.png","null","",NA,NA,NA,NA,""
"image-keyboard-response",252,212656,"0.0-4.80-0.80","dvsvz2r0jdjjx3w",585,"200.csv","","276.6999999284744","resources/trios/L4T2A3.jpg","37","restless",0.7,0.4,0.4,0.604296029039604,"true"
"image-keyboard-response",253,213064,"0.0-4.80-1.80","dvsvz2r0jdjjx3w",585,"200.csv","","null","resources/maskTrios/L4BB.jpg","null","",NA,NA,NA,NA,""
"image-keyboard-response",254,214270,"0.0-4.80-2.80","dvsvz2r0jdjjx3w",585,"200.csv","","null","resources/images/coin2.png","null","",NA,NA,NA,NA,""
"image-keyboard-response",255,214661,"0.0-4.81-0.81","dvsvz2r0jdjjx3w",585,"200.csv","","389.59999990463257","resources/trios/L4T2A3.jpg","38","restless",0.7,0.4,0.4,0.605741233950862,"false"
"image-keyboard-response",256,215076,"0.0-4.81-1.81","dvsvz2r0jdjjx3w",585,"200.csv","","null","resources/maskTrios/BT2B.jpg","null","",NA,NA,NA,NA,""
"image-keyboard-response",257,216288,"0.0-4.81-2.81","dvsvz2r0jdjjx3w",585,"200.csv","","null","resources/images/fishbone.png","null","",NA,NA,NA,NA,""
"image-keyboard-response",258,216873,"0.0-4.82-0.82","dvsvz2r0jdjjx3w",585,"200.csv","","582.6000000238419","resources/trios/L4T2A3.jpg","37","restless",0.7,0.4,0.4,0.530659567247918,"true"
"image-keyboard-response",259,217287,"0.0-4.82-1.82","dvsvz2r0jdjjx3w",585,"200.csv","","null","resources/maskTrios/L4BB.jpg","null","",NA,NA,NA,NA,""
"image-keyboard-response",260,218494,"0.0-4.82-2.82","dvsvz2r0jdjjx3w",585,"200.csv","","null","resources/images/coin2.png","null","",NA,NA,NA,NA,""
"image-keyboard-response",261,218866,"0.0-4.83-0.83","dvsvz2r0jdjjx3w",585,"200.csv","","368.6999999284744","resources/trios/L4T2A3.jpg","37","restless",0.7,0.4,0.4,0.602593011894581,"true"
"image-keyboard-response",262,219283,"0.0-4.83-1.83","dvsvz2r0jdjjx3w",585,"200.csv","","null","resources/maskTrios/L4BB.jpg","null","",NA,NA,NA,NA,""
"image-keyboard-response",263,220489,"0.0-4.83-2.83","dvsvz2r0jdjjx3w",585,"200.csv","","null","resources/images/coin2.png","null","",NA,NA,NA,NA,""
"image-keyboard-response",264,220890,"0.0-4.84-0.84","dvsvz2r0jdjjx3w",585,"200.csv","","398","resources/trios/L4T2A3.jpg","39","restless",0.7,0.4,0.4,0.155418187808004,"true"
"image-keyboard-response",265,221300,"0.0-4.84-1.84","dvsvz2r0jdjjx3w",585,"200.csv","","null","resources/maskTrios/BBA3.jpg","null","",NA,NA,NA,NA,""
"image-keyboard-response",266,222506,"0.0-4.84-2.84","dvsvz2r0jdjjx3w",585,"200.csv","","null","resources/images/coin2.png","null","",NA,NA,NA,NA,""
"image-keyboard-response",267,222848,"0.0-4.85-0.85","dvsvz2r0jdjjx3w",585,"200.csv","","339.3000000715256","resources/trios/L4T2A3.jpg","38","restless",0.7,0.4,0.3,0.349438577567573,"true"
"image-keyboard-response",268,223256,"0.0-4.85-1.85","dvsvz2r0jdjjx3w",585,"200.csv","","null","resources/maskTrios/BT2B.jpg","null","",NA,NA,NA,NA,""
"image-keyboard-response",269,224460,"0.0-4.85-2.85","dvsvz2r0jdjjx3w",585,"200.csv","","null","resources/images/coin2.png","null","",NA,NA,NA,NA,""
"image-keyboard-response",270,224760,"0.0-4.86-0.86","dvsvz2r0jdjjx3w",585,"200.csv","","297.40000009536743","resources/trios/L4T2A3.jpg","39","restless",0.7,0.4,0.3,0.935657005370241,"false"
"image-keyboard-response",271,225170,"0.0-4.86-1.86","dvsvz2r0jdjjx3w",585,"200.csv","","null","resources/maskTrios/BBA3.jpg","null","",NA,NA,NA,NA,""
"image-keyboard-response",272,226375,"0.0-4.86-2.86","dvsvz2r0jdjjx3w",585,"200.csv","","null","resources/images/fishbone.png","null","",NA,NA,NA,NA,""
"image-keyboard-response",273,226620,"0.0-4.87-0.87","dvsvz2r0jdjjx3w",585,"200.csv","","243.60000002384186","resources/trios/L4T2A3.jpg","37","restless",0.6,0.4,0.3,0.0231119866511946,"true"
"image-keyboard-response",274,227037,"0.0-4.87-1.87","dvsvz2r0jdjjx3w",585,"200.csv","","null","resources/maskTrios/L4BB.jpg","null","",NA,NA,NA,NA,""
"image-keyboard-response",275,228241,"0.0-4.87-2.87","dvsvz2r0jdjjx3w",585,"200.csv","","null","resources/images/coin2.png","null","",NA,NA,NA,NA,""
"image-keyboard-response",276,228572,"0.0-4.88-0.88","dvsvz2r0jdjjx3w",585,"200.csv","","329.39999997615814","resources/trios/L4T2A3.jpg","38","restless",0.6,0.4,0.3,0.271924282430821,"true"
"image-keyboard-response",277,228977,"0.0-4.88-1.88","dvsvz2r0jdjjx3w",585,"200.csv","","null","resources/maskTrios/BT2B.jpg","null","",NA,NA,NA,NA,""
"image-keyboard-response",278,230190,"0.0-4.88-2.88","dvsvz2r0jdjjx3w",585,"200.csv","","null","resources/images/coin2.png","null","",NA,NA,NA,NA,""
"image-keyboard-response",279,231076,"0.0-4.89-0.89","dvsvz2r0jdjjx3w",585,"200.csv","","883.1000000238419","resources/trios/L4T2A3.jpg","38","restless",0.6,0.4,0.3,0.310120848107365,"true"
"image-keyboard-response",280,231482,"0.0-4.89-1.89","dvsvz2r0jdjjx3w",585,"200.csv","","null","resources/maskTrios/BT2B.jpg","null","",NA,NA,NA,NA,""
"image-keyboard-response",281,232692,"0.0-4.89-2.89","dvsvz2r0jdjjx3w",585,"200.csv","","null","resources/images/coin2.png","null","",NA,NA,NA,NA,""
"image-keyboard-response",282,233234,"0.0-4.90-0.90","dvsvz2r0jdjjx3w",585,"200.csv","","539.3999999761581","resources/trios/L4T2A3.jpg","37","restless",0.6,0.5,0.3,0.244742204229752,"true"
"image-keyboard-response",283,233654,"0.0-4.90-1.90","dvsvz2r0jdjjx3w",585,"200.csv","","null","resources/maskTrios/L4BB.jpg","null","",NA,NA,NA,NA,""
"image-keyboard-response",284,234870,"0.0-4.90-2.90","dvsvz2r0jdjjx3w",585,"200.csv","","null","resources/images/coin2.png","null","",NA,NA,NA,NA,""
"image-keyboard-response",285,235334,"0.0-4.91-0.91","dvsvz2r0jdjjx3w",585,"200.csv","","461.5","resources/trios/L4T2A3.jpg","37","restless",0.6,0.5,0.3,0.0160835974287601,"true"
"image-keyboard-response",286,235741,"0.0-4.91-1.91","dvsvz2r0jdjjx3w",585,"200.csv","","null","resources/maskTrios/L4BB.jpg","null","",NA,NA,NA,NA,""
"image-keyboard-response",287,236952,"0.0-4.91-2.91","dvsvz2r0jdjjx3w",585,"200.csv","","null","resources/images/coin2.png","null","",NA,NA,NA,NA,""
"image-keyboard-response",288,237327,"0.0-4.92-0.92","dvsvz2r0jdjjx3w",585,"200.csv","","372.6999999284744","resources/trios/L4T2A3.jpg","38","restless",0.6,0.5,0.3,0.396692048957635,"true"
"image-keyboard-response",289,237731,"0.0-4.92-1.92","dvsvz2r0jdjjx3w",585,"200.csv","","null","resources/maskTrios/BT2B.jpg","null","",NA,NA,NA,NA,""
"image-keyboard-response",290,238942,"0.0-4.92-2.92","dvsvz2r0jdjjx3w",585,"200.csv","","null","resources/images/coin2.png","null","",NA,NA,NA,NA,""
"image-keyboard-response",291,239258,"0.0-4.93-0.93","dvsvz2r0jdjjx3w",585,"200.csv","","313.7999999523163","resources/trios/L4T2A3.jpg","39","restless",0.6,0.5,0.3,0.491202418378097,"false"
"image-keyboard-response",292,239676,"0.0-4.93-1.93","dvsvz2r0jdjjx3w",585,"200.csv","","null","resources/maskTrios/BBA3.jpg","null","",NA,NA,NA,NA,""
"image-keyboard-response",293,240880,"0.0-4.93-2.93","dvsvz2r0jdjjx3w",585,"200.csv","","null","resources/images/fishbone.png","null","",NA,NA,NA,NA,""
"image-keyboard-response",294,241154,"0.0-4.94-0.94","dvsvz2r0jdjjx3w",585,"200.csv","","270.89999997615814","resources/trios/L4T2A3.jpg","38","restless",0.6,0.5,0.3,0.585687782205059,"false"
"image-keyboard-response",295,241563,"0.0-4.94-1.94","dvsvz2r0jdjjx3w",585,"200.csv","","null","resources/maskTrios/BT2B.jpg","null","",NA,NA,NA,NA,""
"image-keyboard-response",296,242781,"0.0-4.94-2.94","dvsvz2r0jdjjx3w",585,"200.csv","","null","resources/images/fishbone.png","null","",NA,NA,NA,NA,""
"image-keyboard-response",297,243130,"0.0-4.95-0.95","dvsvz2r0jdjjx3w",585,"200.csv","","347","resources/trios/L4T2A3.jpg","39","restless",0.6,0.5,0.3,0.2299738835152,"true"
"image-keyboard-response",298,243541,"0.0-4.95-1.95","dvsvz2r0jdjjx3w",585,"200.csv","","null","resources/maskTrios/BBA3.jpg","null","",NA,NA,NA,NA,""
"image-keyboard-response",299,244757,"0.0-4.95-2.95","dvsvz2r0jdjjx3w",585,"200.csv","","null","resources/images/coin2.png","null","",NA,NA,NA,NA,""
"image-keyboard-response",300,245211,"0.0-4.96-0.96","dvsvz2r0jdjjx3w",585,"200.csv","","452.5","resources/trios/L4T2A3.jpg","37","restless",0.6,0.4,0.3,0.148960884960149,"true"
"image-keyboard-response",301,245614,"0.0-4.96-1.96","dvsvz2r0jdjjx3w",585,"200.csv","","null","resources/maskTrios/L4BB.jpg","null","",NA,NA,NA,NA,""
"image-keyboard-response",302,246819,"0.0-4.96-2.96","dvsvz2r0jdjjx3w",585,"200.csv","","null","resources/images/coin2.png","null","",NA,NA,NA,NA,""
"image-keyboard-response",303,247160,"0.0-4.97-0.97","dvsvz2r0jdjjx3w",585,"200.csv","","339.10000002384186","resources/trios/L4T2A3.jpg","39","restless",0.6,0.4,0.3,0.673212483134796,"false"
"image-keyboard-response",304,247567,"0.0-4.97-1.97","dvsvz2r0jdjjx3w",585,"200.csv","","null","resources/maskTrios/BBA3.jpg","null","",NA,NA,NA,NA,""
"image-keyboard-response",305,248774,"0.0-4.97-2.97","dvsvz2r0jdjjx3w",585,"200.csv","","null","resources/images/fishbone.png","null","",NA,NA,NA,NA,""
"image-keyboard-response",306,249063,"0.0-4.98-0.98","dvsvz2r0jdjjx3w",585,"200.csv","","287","resources/trios/L4T2A3.jpg","38","restless",0.6,0.4,0.2,0.499834027639157,"false"
"image-keyboard-response",307,249479,"0.0-4.98-1.98","dvsvz2r0jdjjx3w",585,"200.csv","","null","resources/maskTrios/BT2B.jpg","null","",NA,NA,NA,NA,""
"image-keyboard-response",308,250691,"0.0-4.98-2.98","dvsvz2r0jdjjx3w",585,"200.csv","","null","resources/images/fishbone.png","null","",NA,NA,NA,NA,""
"image-keyboard-response",309,251024,"0.0-4.99-0.99","dvsvz2r0jdjjx3w",585,"200.csv","","330.6999999284744","resources/trios/L4T2A3.jpg","38","restless",0.6,0.4,0.1,0.0887091761504624,"true"
"image-keyboard-response",310,251438,"0.0-4.99-1.99","dvsvz2r0jdjjx3w",585,"200.csv","","null","resources/maskTrios/BT2B.jpg","null","",NA,NA,NA,NA,""
"image-keyboard-response",311,252646,"0.0-4.99-2.99","dvsvz2r0jdjjx3w",585,"200.csv","","null","resources/images/coin2.png","null","",NA,NA,NA,NA,""
"image-keyboard-response",312,253049,"0.0-4.100-0.100","dvsvz2r0jdjjx3w",585,"200.csv","","401.60000002384186","resources/trios/L4T2A3.jpg","37","restless",0.6,0.4,0.1,0.476078662536506,"true"
"image-keyboard-response",313,253458,"0.0-4.100-1.100","dvsvz2r0jdjjx3w",585,"200.csv","","null","resources/maskTrios/L4BB.jpg","null","",NA,NA,NA,NA,""
"image-keyboard-response",314,254668,"0.0-4.100-2.100","dvsvz2r0jdjjx3w",585,"200.csv","","null","resources/images/coin2.png","null","",NA,NA,NA,NA,""
"image-keyboard-response",315,254921,"0.0-4.101-0.101","dvsvz2r0jdjjx3w",585,"200.csv","","251.39999997615814","resources/trios/L4T2A3.jpg","39","restless",0.6,0.4,0.1,0.239756628773804,"false"
"image-keyboard-response",316,255327,"0.0-4.101-1.101","dvsvz2r0jdjjx3w",585,"200.csv","","null","resources/maskTrios/BBA3.jpg","null","",NA,NA,NA,NA,""
"image-keyboard-response",317,256544,"0.0-4.101-2.101","dvsvz2r0jdjjx3w",585,"200.csv","","null","resources/images/fishbone.png","null","",NA,NA,NA,NA,""
"image-keyboard-response",318,256887,"0.0-4.102-0.102","dvsvz2r0jdjjx3w",585,"200.csv","","341.6999999284744","resources/trios/L4T2A3.jpg","38","restless",0.6,0.4,0.2,0.530452879250065,"false"
"image-keyboard-response",319,257292,"0.0-4.102-1.102","dvsvz2r0jdjjx3w",585,"200.csv","","null","resources/maskTrios/BT2B.jpg","null","",NA,NA,NA,NA,""
"image-keyboard-response",320,258497,"0.0-4.102-2.102","dvsvz2r0jdjjx3w",585,"200.csv","","null","resources/images/fishbone.png","null","",NA,NA,NA,NA,""
"image-keyboard-response",321,259037,"0.0-4.103-0.103","dvsvz2r0jdjjx3w",585,"200.csv","","537.3999999761581","resources/trios/L4T2A3.jpg","37","restless",0.6,0.5,0.2,0.915058852310201,"false"
"image-keyboard-response",322,259446,"0.0-4.103-1.103","dvsvz2r0jdjjx3w",585,"200.csv","","null","resources/maskTrios/L4BB.jpg","null","",NA,NA,NA,NA,""
"image-keyboard-response",323,260657,"0.0-4.103-2.103","dvsvz2r0jdjjx3w",585,"200.csv","","null","resources/images/fishbone.png","null","",NA,NA,NA,NA,""
"image-keyboard-response",324,260974,"0.0-4.104-0.104","dvsvz2r0jdjjx3w",585,"200.csv","","314.7999999523163","resources/trios/L4T2A3.jpg","37","restless",0.6,0.5,0.2,0.613434032938146,"false"
"image-keyboard-response",325,261392,"0.0-4.104-1.104","dvsvz2r0jdjjx3w",585,"200.csv","","null","resources/maskTrios/L4BB.jpg","null","",NA,NA,NA,NA,""
"image-keyboard-response",326,262595,"0.0-4.104-2.104","dvsvz2r0jdjjx3w",585,"200.csv","","null","resources/images/fishbone.png","null","",NA,NA,NA,NA,""
"image-keyboard-response",327,262887,"0.0-4.105-0.105","dvsvz2r0jdjjx3w",585,"200.csv","","289.5","resources/trios/L4T2A3.jpg","38","restless",0.6,0.5,0.2,0.235761966679779,"true"
"image-keyboard-response",328,263298,"0.0-4.105-1.105","dvsvz2r0jdjjx3w",585,"200.csv","","null","resources/maskTrios/BT2B.jpg","null","",NA,NA,NA,NA,""
"image-keyboard-response",329,264517,"0.0-4.105-2.105","dvsvz2r0jdjjx3w",585,"200.csv","","null","resources/images/coin2.png","null","",NA,NA,NA,NA,""
"image-keyboard-response",330,264961,"0.0-4.106-0.106","dvsvz2r0jdjjx3w",585,"200.csv","","441.6999999284744","resources/trios/L4T2A3.jpg","38","restless",0.6,0.5,0.2,0.246331109842427,"true"
"image-keyboard-response",331,265367,"0.0-4.106-1.106","dvsvz2r0jdjjx3w",585,"200.csv","","null","resources/maskTrios/BT2B.jpg","null","",NA,NA,NA,NA,""
"image-keyboard-response",332,266580,"0.0-4.106-2.106","dvsvz2r0jdjjx3w",585,"200.csv","","null","resources/images/coin2.png","null","",NA,NA,NA,NA,""
"image-keyboard-response",333,266922,"0.0-4.107-0.107","dvsvz2r0jdjjx3w",585,"200.csv","","339.5","resources/trios/L4T2A3.jpg","39","restless",0.6,0.6,0.2,0.594164289216811,"false"
"image-keyboard-response",334,267338,"0.0-4.107-1.107","dvsvz2r0jdjjx3w",585,"200.csv","","null","resources/maskTrios/BBA3.jpg","null","",NA,NA,NA,NA,""
"image-keyboard-response",335,268551,"0.0-4.107-2.107","dvsvz2r0jdjjx3w",585,"200.csv","","null","resources/images/fishbone.png","null","",NA,NA,NA,NA,""
"image-keyboard-response",336,268816,"0.0-4.108-0.108","dvsvz2r0jdjjx3w",585,"200.csv","","262.39999997615814","resources/trios/L4T2A3.jpg","38","restless",0.6,0.6,0.2,0.302332529341049,"true"
"image-keyboard-response",337,269224,"0.0-4.108-1.108","dvsvz2r0jdjjx3w",585,"200.csv","","null","resources/maskTrios/BT2B.jpg","null","",NA,NA,NA,NA,""
"image-keyboard-response",338,270440,"0.0-4.108-2.108","dvsvz2r0jdjjx3w",585,"200.csv","","null","resources/images/coin2.png","null","",NA,NA,NA,NA,""
"image-keyboard-response",339,270807,"0.0-4.109-0.109","dvsvz2r0jdjjx3w",585,"200.csv","","364.3000000715256","resources/trios/L4T2A3.jpg","39","restless",0.6,0.6,0.2,0.573872579481147,"false"
"image-keyboard-response",340,271221,"0.0-4.109-1.109","dvsvz2r0jdjjx3w",585,"200.csv","","null","resources/maskTrios/BBA3.jpg","null","",NA,NA,NA,NA,""
"image-keyboard-response",341,272434,"0.0-4.109-2.109","dvsvz2r0jdjjx3w",585,"200.csv","","null","resources/images/fishbone.png","null","",NA,NA,NA,NA,""
"image-keyboard-response",342,272779,"0.0-4.110-0.110","dvsvz2r0jdjjx3w",585,"200.csv","","342.59999990463257","resources/trios/L4T2A3.jpg","37","restless",0.5,0.6,0.2,0.576304189488887,"false"
"image-keyboard-response",343,273194,"0.0-4.110-1.110","dvsvz2r0jdjjx3w",585,"200.csv","","null","resources/maskTrios/L4BB.jpg","null","",NA,NA,NA,NA,""
"image-keyboard-response",344,274403,"0.0-4.110-2.110","dvsvz2r0jdjjx3w",585,"200.csv","","null","resources/images/fishbone.png","null","",NA,NA,NA,NA,""
"image-keyboard-response",345,274675,"0.0-4.111-0.111","dvsvz2r0jdjjx3w",585,"200.csv","","269","resources/trios/L4T2A3.jpg","39","restless",0.5,0.6,0.2,0.0347394348322074,"true"
"image-keyboard-response",346,275091,"0.0-4.111-1.111","dvsvz2r0jdjjx3w",585,"200.csv","","null","resources/maskTrios/BBA3.jpg","null","",NA,NA,NA,NA,""
"image-keyboard-response",347,276295,"0.0-4.111-2.111","dvsvz2r0jdjjx3w",585,"200.csv","","null","resources/images/coin2.png","null","",NA,NA,NA,NA,""
"image-keyboard-response",348,276622,"0.0-4.112-0.112","dvsvz2r0jdjjx3w",585,"200.csv","","325.10000002384186","resources/trios/L4T2A3.jpg","38","restless",0.5,0.6,0.3,0.366508285050769,"true"
"image-keyboard-response",349,277042,"0.0-4.112-1.112","dvsvz2r0jdjjx3w",585,"200.csv","","null","resources/maskTrios/BT2B.jpg","null","",NA,NA,NA,NA,""
"image-keyboard-response",350,278248,"0.0-4.112-2.112","dvsvz2r0jdjjx3w",585,"200.csv","","null","resources/images/coin2.png","null","",NA,NA,NA,NA,""
"image-keyboard-response",351,278539,"0.0-4.113-0.113","dvsvz2r0jdjjx3w",585,"200.csv","","288.39999997615814","resources/trios/L4T2A3.jpg","39","restless",0.5,0.6,0.3,0.188447497651602,"true"
"image-keyboard-response",352,278942,"0.0-4.113-1.113","dvsvz2r0jdjjx3w",585,"200.csv","","null","resources/maskTrios/BBA3.jpg","null","",NA,NA,NA,NA,""
"image-keyboard-response",353,280152,"0.0-4.113-2.113","dvsvz2r0jdjjx3w",585,"200.csv","","null","resources/images/coin2.png","null","",NA,NA,NA,NA,""
"image-keyboard-response",354,280590,"0.0-4.114-0.114","dvsvz2r0jdjjx3w",585,"200.csv","","435.2000000476837","resources/trios/L4T2A3.jpg","37","restless",0.5,0.6,0.3,0.192957298617996,"true"
"image-keyboard-response",355,280994,"0.0-4.114-1.114","dvsvz2r0jdjjx3w",585,"200.csv","","null","resources/maskTrios/L4BB.jpg","null","",NA,NA,NA,NA,""
"image-keyboard-response",356,282211,"0.0-4.114-2.114","dvsvz2r0jdjjx3w",585,"200.csv","","null","resources/images/coin2.png","null","",NA,NA,NA,NA,""
"image-keyboard-response",357,282617,"0.0-4.115-0.115","dvsvz2r0jdjjx3w",585,"200.csv","","404","resources/trios/L4T2A3.jpg","38","restless",0.5,0.6,0.3,0.397244896316846,"true"
"image-keyboard-response",358,283034,"0.0-4.115-1.115","dvsvz2r0jdjjx3w",585,"200.csv","","null","resources/maskTrios/BT2B.jpg","null","",NA,NA,NA,NA,""
"image-keyboard-response",359,284250,"0.0-4.115-2.115","dvsvz2r0jdjjx3w",585,"200.csv","","null","resources/images/coin2.png","null","",NA,NA,NA,NA,""
"image-keyboard-response",360,284659,"0.0-4.116-0.116","dvsvz2r0jdjjx3w",585,"200.csv","","405.90000009536743","resources/trios/L4T2A3.jpg","37","restless",0.5,0.6,0.3,0.608985566795523,"false"
"image-keyboard-response",361,285070,"0.0-4.116-1.116","dvsvz2r0jdjjx3w",585,"200.csv","","null","resources/maskTrios/L4BB.jpg","null","",NA,NA,NA,NA,""
"image-keyboard-response",362,286275,"0.0-4.116-2.116","dvsvz2r0jdjjx3w",585,"200.csv","","null","resources/images/fishbone.png","null","",NA,NA,NA,NA,""
"image-keyboard-response",363,286533,"0.0-4.117-0.117","dvsvz2r0jdjjx3w",585,"200.csv","","255.39999997615814","resources/trios/L4T2A3.jpg","38","restless",0.5,0.6,0.3,0.673524080055254,"false"
"image-keyboard-response",364,286944,"0.0-4.117-1.117","dvsvz2r0jdjjx3w",585,"200.csv","","null","resources/maskTrios/BT2B.jpg","null","",NA,NA,NA,NA,""
"image-keyboard-response",365,288150,"0.0-4.117-2.117","dvsvz2r0jdjjx3w",585,"200.csv","","null","resources/images/fishbone.png","null","",NA,NA,NA,NA,""
"image-keyboard-response",366,288443,"0.0-4.118-0.118","dvsvz2r0jdjjx3w",585,"200.csv","","290.5","resources/trios/L4T2A3.jpg","39","restless",0.5,0.6,0.3,0.229825349215338,"true"
"image-keyboard-response",367,288862,"0.0-4.118-1.118","dvsvz2r0jdjjx3w",585,"200.csv","","null","resources/maskTrios/BBA3.jpg","null","",NA,NA,NA,NA,""
"image-keyboard-response",368,290065,"0.0-4.118-2.118","dvsvz2r0jdjjx3w",585,"200.csv","","null","resources/images/coin2.png","null","",NA,NA,NA,NA,""
"image-keyboard-response",369,290421,"0.0-4.119-0.119","dvsvz2r0jdjjx3w",585,"200.csv","","353.7999999523163","resources/trios/L4T2A3.jpg","39","restless",0.5,0.6,0.4,0.272331638852306,"true"
"image-keyboard-response",370,290825,"0.0-4.119-1.119","dvsvz2r0jdjjx3w",585,"200.csv","","null","resources/maskTrios/BBA3.jpg","null","",NA,NA,NA,NA,""
"image-keyboard-response",371,292034,"0.0-4.119-2.119","dvsvz2r0jdjjx3w",585,"200.csv","","null","resources/images/coin2.png","null","",NA,NA,NA,NA,""
"image-keyboard-response",372,293099,"0.0-4.120-0.120","dvsvz2r0jdjjx3w",585,"200.csv","","1063.2000000476837","resources/trios/L4T2A3.jpg","38","restless",0.5,0.6,0.4,0.419874659774981,"true"
"image-keyboard-response",373,293504,"0.0-4.120-1.120","dvsvz2r0jdjjx3w",585,"200.csv","","null","resources/maskTrios/BT2B.jpg","null","",NA,NA,NA,NA,""
"image-keyboard-response",374,294712,"0.0-4.120-2.120","dvsvz2r0jdjjx3w",585,"200.csv","","null","resources/images/coin2.png","null","",NA,NA,NA,NA,""
"image-keyboard-response",375,295229,"0.0-4.121-0.121","dvsvz2r0jdjjx3w",585,"200.csv","","514.3999999761581","resources/trios/L4T2A3.jpg","37","restless",0.5,0.6,0.4,0.0174345172694232,"true"
"image-keyboard-response",376,295635,"0.0-4.121-1.121","dvsvz2r0jdjjx3w",585,"200.csv","","null","resources/maskTrios/L4BB.jpg","null","",NA,NA,NA,NA,""
"image-keyboard-response",377,296847,"0.0-4.121-2.121","dvsvz2r0jdjjx3w",585,"200.csv","","null","resources/images/coin2.png","null","",NA,NA,NA,NA,""
"image-keyboard-response",378,297376,"0.0-4.122-0.122","dvsvz2r0jdjjx3w",585,"200.csv","","526.3000000715256","resources/trios/L4T2A3.jpg","38","restless",0.5,0.6,0.4,0.3897407142177,"true"
"image-keyboard-response",379,297791,"0.0-4.122-1.122","dvsvz2r0jdjjx3w",585,"200.csv","","null","resources/maskTrios/BT2B.jpg","null","",NA,NA,NA,NA,""
"image-keyboard-response",380,299002,"0.0-4.122-2.122","dvsvz2r0jdjjx3w",585,"200.csv","","null","resources/images/coin2.png","null","",NA,NA,NA,NA,""
"image-keyboard-response",381,299215,"0.0-4.123-0.123","dvsvz2r0jdjjx3w",585,"200.csv","","211.30000007152557","resources/trios/L4T2A3.jpg","38","restless",0.5,0.6,0.4,0.441851322541932,"true"
"image-keyboard-response",382,299627,"0.0-4.123-1.123","dvsvz2r0jdjjx3w",585,"200.csv","","null","resources/maskTrios/BT2B.jpg","null","",NA,NA,NA,NA,""
"image-keyboard-response",383,300830,"0.0-4.123-2.123","dvsvz2r0jdjjx3w",585,"200.csv","","null","resources/images/coin2.png","null","",NA,NA,NA,NA,""
"image-keyboard-response",384,301305,"0.0-4.124-0.124","dvsvz2r0jdjjx3w",585,"200.csv","","471.7999999523163","resources/trios/L4T2A3.jpg","39","restless",0.5,0.6,0.4,0.446671425611475,"false"
"image-keyboard-response",385,301725,"0.0-4.124-1.124","dvsvz2r0jdjjx3w",585,"200.csv","","null","resources/maskTrios/BBA3.jpg","null","",NA,NA,NA,NA,""
"image-keyboard-response",386,302930,"0.0-4.124-2.124","dvsvz2r0jdjjx3w",585,"200.csv","","null","resources/images/fishbone.png","null","",NA,NA,NA,NA,""
"image-keyboard-response",387,303202,"0.0-4.125-0.125","dvsvz2r0jdjjx3w",585,"200.csv","","270.10000002384186","resources/trios/L4T2A3.jpg","39","restless",0.5,0.6,0.4,0.522154000979899,"false"
"image-keyboard-response",388,303622,"0.0-4.125-1.125","dvsvz2r0jdjjx3w",585,"200.csv","","null","resources/maskTrios/BBA3.jpg","null","",NA,NA,NA,NA,""
"image-keyboard-response",389,304841,"0.0-4.125-2.125","dvsvz2r0jdjjx3w",585,"200.csv","","null","resources/images/fishbone.png","null","",NA,NA,NA,NA,""
"image-keyboard-response",390,305350,"0.0-4.126-0.126","dvsvz2r0jdjjx3w",585,"200.csv","","507.5","resources/trios/L4T2A3.jpg","37","restless",0.5,0.6,0.3,0.0328863192022457,"true"
"image-keyboard-response",391,305762,"0.0-4.126-1.126","dvsvz2r0jdjjx3w",585,"200.csv","","null","resources/maskTrios/L4BB.jpg","null","",NA,NA,NA,NA,""
"image-keyboard-response",392,306970,"0.0-4.126-2.126","dvsvz2r0jdjjx3w",585,"200.csv","","null","resources/images/coin2.png","null","",NA,NA,NA,NA,""
"image-keyboard-response",393,307552,"0.0-4.127-0.127","dvsvz2r0jdjjx3w",585,"200.csv","","578.8999999761581","resources/trios/L4T2A3.jpg","38","restless",0.5,0.6,0.3,0.433815889426016,"true"
"image-keyboard-response",394,307963,"0.0-4.127-1.127","dvsvz2r0jdjjx3w",585,"200.csv","","null","resources/maskTrios/BT2B.jpg","null","",NA,NA,NA,NA,""
"image-keyboard-response",395,309182,"0.0-4.127-2.127","dvsvz2r0jdjjx3w",585,"200.csv","","null","resources/images/coin2.png","null","",NA,NA,NA,NA,""
"image-keyboard-response",396,309926,"0.0-4.128-0.128","dvsvz2r0jdjjx3w",585,"200.csv","","741","resources/trios/L4T2A3.jpg","37","restless",0.5,0.6,0.3,0.128353569459442,"true"
"image-keyboard-response",397,310340,"0.0-4.128-1.128","dvsvz2r0jdjjx3w",585,"200.csv","","null","resources/maskTrios/L4BB.jpg","null","",NA,NA,NA,NA,""
"image-keyboard-response",398,311547,"0.0-4.128-2.128","dvsvz2r0jdjjx3w",585,"200.csv","","null","resources/images/coin2.png","null","",NA,NA,NA,NA,""
"image-keyboard-response",399,312158,"0.0-4.129-0.129","dvsvz2r0jdjjx3w",585,"200.csv","","609.8999999761581","resources/trios/L4T2A3.jpg","38","restless",0.5,0.6,0.3,0.877762771799273,"false"
"image-keyboard-response",400,312565,"0.0-4.129-1.129","dvsvz2r0jdjjx3w",585,"200.csv","","null","resources/maskTrios/BT2B.jpg","null","",NA,NA,NA,NA,""
"image-keyboard-response",401,313767,"0.0-4.129-2.129","dvsvz2r0jdjjx3w",585,"200.csv","","null","resources/images/fishbone.png","null","",NA,NA,NA,NA,""
"image-keyboard-response",402,314293,"0.0-4.130-0.130","dvsvz2r0jdjjx3w",585,"200.csv","","523.8999999761581","resources/trios/L4T2A3.jpg","38","restless",0.6,0.5,0.3,0.829377995072626,"false"
"image-keyboard-response",403,314711,"0.0-4.130-1.130","dvsvz2r0jdjjx3w",585,"200.csv","","null","resources/maskTrios/BT2B.jpg","null","",NA,NA,NA,NA,""
"image-keyboard-response",404,315916,"0.0-4.130-2.130","dvsvz2r0jdjjx3w",585,"200.csv","","null","resources/images/fishbone.png","null","",NA,NA,NA,NA,""
"image-keyboard-response",405,316395,"0.0-4.131-0.131","dvsvz2r0jdjjx3w",585,"200.csv","","475.89999997615814","resources/trios/L4T2A3.jpg","39","restless",0.6,0.5,0.4,0.920777000222058,"false"
"image-keyboard-response",406,316805,"0.0-4.131-1.131","dvsvz2r0jdjjx3w",585,"200.csv","","null","resources/maskTrios/BBA3.jpg","null","",NA,NA,NA,NA,""
"image-keyboard-response",407,318022,"0.0-4.131-2.131","dvsvz2r0jdjjx3w",585,"200.csv","","null","resources/images/fishbone.png","null","",NA,NA,NA,NA,""
"image-keyboard-response",408,318422,"0.0-4.132-0.132","dvsvz2r0jdjjx3w",585,"200.csv","","397.39999997615814","resources/trios/L4T2A3.jpg","37","restless",0.6,0.6,0.4,0.0782014228774564,"true"
"image-keyboard-response",409,318830,"0.0-4.132-1.132","dvsvz2r0jdjjx3w",585,"200.csv","","null","resources/maskTrios/L4BB.jpg","null","",NA,NA,NA,NA,""
"image-keyboard-response",410,320035,"0.0-4.132-2.132","dvsvz2r0jdjjx3w",585,"200.csv","","null","resources/images/coin2.png","null","",NA,NA,NA,NA,""
"image-keyboard-response",411,321023,"0.0-4.133-0.133","dvsvz2r0jdjjx3w",585,"200.csv","","985.1999999284744","resources/trios/L4T2A3.jpg","37","restless",0.6,0.6,0.4,0.476007523471293,"true"
"image-keyboard-response",412,321434,"0.0-4.133-1.133","dvsvz2r0jdjjx3w",585,"200.csv","","null","resources/maskTrios/L4BB.jpg","null","",NA,NA,NA,NA,""
"image-keyboard-response",413,322653,"0.0-4.133-2.133","dvsvz2r0jdjjx3w",585,"200.csv","","null","resources/images/coin2.png","null","",NA,NA,NA,NA,""
"image-keyboard-response",414,323444,"0.0-4.134-0.134","dvsvz2r0jdjjx3w",585,"200.csv","","790.2000000476837","resources/trios/L4T2A3.jpg","38","restless",0.6,0.6,0.4,0.813175372223115,"false"
"image-keyboard-response",415,323850,"0.0-4.134-1.134","dvsvz2r0jdjjx3w",585,"200.csv","","null","resources/maskTrios/BT2B.jpg","null","",NA,NA,NA,NA,""
"image-keyboard-response",416,325062,"0.0-4.134-2.134","dvsvz2r0jdjjx3w",585,"200.csv","","null","resources/images/fishbone.png","null","",NA,NA,NA,NA,""
"image-keyboard-response",417,325768,"0.0-4.135-0.135","dvsvz2r0jdjjx3w",585,"200.csv","","703.3999999761581","resources/trios/L4T2A3.jpg","37","restless",0.6,0.6,0.5,0.143898293041353,"true"
"image-keyboard-response",418,326174,"0.0-4.135-1.135","dvsvz2r0jdjjx3w",585,"200.csv","","null","resources/maskTrios/L4BB.jpg","null","",NA,NA,NA,NA,""
"image-keyboard-response",419,327382,"0.0-4.135-2.135","dvsvz2r0jdjjx3w",585,"200.csv","","null","resources/images/coin2.png","null","",NA,NA,NA,NA,""
"image-keyboard-response",420,329265,"0.0-4.136-0.136","dvsvz2r0jdjjx3w",585,"200.csv","","1880.2000000476837","resources/trios/L4T2A3.jpg","37","restless",0.6,0.6,0.5,0.279674546227794,"true"
"image-keyboard-response",421,329683,"0.0-4.136-1.136","dvsvz2r0jdjjx3w",585,"200.csv","","null","resources/maskTrios/L4BB.jpg","null","",NA,NA,NA,NA,""
"image-keyboard-response",422,330900,"0.0-4.136-2.136","dvsvz2r0jdjjx3w",585,"200.csv","","null","resources/images/coin2.png","null","",NA,NA,NA,NA,""
"image-keyboard-response",423,334173,"0.0-4.137-0.137","dvsvz2r0jdjjx3w",585,"200.csv","","3270.7000000476837","resources/trios/L4T2A3.jpg","37","restless",0.6,0.6,0.5,0.44708675395955,"true"
"image-keyboard-response",424,334591,"0.0-4.137-1.137","dvsvz2r0jdjjx3w",585,"200.csv","","null","resources/maskTrios/L4BB.jpg","null","",NA,NA,NA,NA,""
"image-keyboard-response",425,335798,"0.0-4.137-2.137","dvsvz2r0jdjjx3w",585,"200.csv","","null","resources/images/coin2.png","null","",NA,NA,NA,NA,""
"image-keyboard-response",426,336299,"0.0-4.138-0.138","dvsvz2r0jdjjx3w",585,"200.csv","","498.40000009536743","resources/trios/L4T2A3.jpg","39","restless",0.6,0.6,0.5,0.819371908010127,"false"
"image-keyboard-response",427,336712,"0.0-4.138-1.138","dvsvz2r0jdjjx3w",585,"200.csv","","null","resources/maskTrios/BBA3.jpg","null","",NA,NA,NA,NA,""
"image-keyboard-response",428,337922,"0.0-4.138-2.138","dvsvz2r0jdjjx3w",585,"200.csv","","null","resources/images/fishbone.png","null","",NA,NA,NA,NA,""
"image-keyboard-response",429,338397,"0.0-4.139-0.139","dvsvz2r0jdjjx3w",585,"200.csv","","472.7000000476837","resources/trios/L4T2A3.jpg","38","restless",0.6,0.6,0.5,0.625850905713614,"false"
"image-keyboard-response",430,338806,"0.0-4.139-1.139","dvsvz2r0jdjjx3w",585,"200.csv","","null","resources/maskTrios/BT2B.jpg","null","",NA,NA,NA,NA,""
"image-keyboard-response",431,340016,"0.0-4.139-2.139","dvsvz2r0jdjjx3w",585,"200.csv","","null","resources/images/fishbone.png","null","",NA,NA,NA,NA,""
"image-keyboard-response",432,340320,"0.0-4.140-0.140","dvsvz2r0jdjjx3w",585,"200.csv","","301.7999999523163","resources/trios/L4T2A3.jpg","37","restless",0.5,0.6,0.5,0.360600469062682,"true"
"image-keyboard-response",433,340734,"0.0-4.140-1.140","dvsvz2r0jdjjx3w",585,"200.csv","","null","resources/maskTrios/L4BB.jpg","null","",NA,NA,NA,NA,""
"image-keyboard-response",434,341950,"0.0-4.140-2.140","dvsvz2r0jdjjx3w",585,"200.csv","","null","resources/images/coin2.png","null","",NA,NA,NA,NA,""
"image-keyboard-response",435,342708,"0.0-4.141-0.141","dvsvz2r0jdjjx3w",585,"200.csv","","755.2999999523163","resources/trios/L4T2A3.jpg","38","restless",0.5,0.6,0.5,0.833686783614605,"false"
"image-keyboard-response",436,343115,"0.0-4.141-1.141","dvsvz2r0jdjjx3w",585,"200.csv","","null","resources/maskTrios/BT2B.jpg","null","",NA,NA,NA,NA,""
"image-keyboard-response",437,344320,"0.0-4.141-2.141","dvsvz2r0jdjjx3w",585,"200.csv","","null","resources/images/fishbone.png","null","",NA,NA,NA,NA,""
"image-keyboard-response",438,344703,"0.0-4.142-0.142","dvsvz2r0jdjjx3w",585,"200.csv","","380.5","resources/trios/L4T2A3.jpg","39","restless",0.5,0.6,0.5,0.495558326101676,"true"
"image-keyboard-response",439,345114,"0.0-4.142-1.142","dvsvz2r0jdjjx3w",585,"200.csv","","null","resources/maskTrios/BBA3.jpg","null","",NA,NA,NA,NA,""
"image-keyboard-response",440,346322,"0.0-4.142-2.142","dvsvz2r0jdjjx3w",585,"200.csv","","null","resources/images/coin2.png","null","",NA,NA,NA,NA,""
"image-keyboard-response",441,347011,"0.0-4.143-0.143","dvsvz2r0jdjjx3w",585,"200.csv","","686.7999999523163","resources/trios/L4T2A3.jpg","37","restless",0.5,0.5,0.6,0.58529607861419,"false"
"image-keyboard-response",442,347417,"0.0-4.143-1.143","dvsvz2r0jdjjx3w",585,"200.csv","","null","resources/maskTrios/L4BB.jpg","null","",NA,NA,NA,NA,""
"image-keyboard-response",443,348620,"0.0-4.143-2.143","dvsvz2r0jdjjx3w",585,"200.csv","","null","resources/images/fishbone.png","null","",NA,NA,NA,NA,""
"image-keyboard-response",444,348972,"0.0-4.144-0.144","dvsvz2r0jdjjx3w",585,"200.csv","","349.2000000476837","resources/trios/L4T2A3.jpg","38","restless",0.5,0.5,0.6,0.856755926325682,"false"
"image-keyboard-response",445,349375,"0.0-4.144-1.144","dvsvz2r0jdjjx3w",585,"200.csv","","null","resources/maskTrios/BT2B.jpg","null","",NA,NA,NA,NA,""
"image-keyboard-response",446,350581,"0.0-4.144-2.144","dvsvz2r0jdjjx3w",585,"200.csv","","null","resources/images/fishbone.png","null","",NA,NA,NA,NA,""
"image-keyboard-response",447,350954,"0.0-4.145-0.145","dvsvz2r0jdjjx3w",585,"200.csv","","371","resources/trios/L4T2A3.jpg","39","restless",0.5,0.5,0.6,0.709489176000054,"false"
"image-keyboard-response",448,351364,"0.0-4.145-1.145","dvsvz2r0jdjjx3w",585,"200.csv","","null","resources/maskTrios/BBA3.jpg","null","",NA,NA,NA,NA,""
"image-keyboard-response",449,352582,"0.0-4.145-2.145","dvsvz2r0jdjjx3w",585,"200.csv","","null","resources/images/fishbone.png","null","",NA,NA,NA,NA,""
"image-keyboard-response",450,352869,"0.0-4.146-0.146","dvsvz2r0jdjjx3w",585,"200.csv","","284.60000002384186","resources/trios/L4T2A3.jpg","39","restless",0.5,0.5,0.6,0.985035049856579,"false"
"image-keyboard-response",451,353274,"0.0-4.146-1.146","dvsvz2r0jdjjx3w",585,"200.csv","","null","resources/maskTrios/BBA3.jpg","null","",NA,NA,NA,NA,""
"image-keyboard-response",452,354480,"0.0-4.146-2.146","dvsvz2r0jdjjx3w",585,"200.csv","","null","resources/images/fishbone.png","null","",NA,NA,NA,NA,""
"image-keyboard-response",453,354910,"0.0-4.147-0.147","dvsvz2r0jdjjx3w",585,"200.csv","","426.5","resources/trios/L4T2A3.jpg","38","restless",0.5,0.5,0.6,0.599091614005199,"false"
"image-keyboard-response",454,355324,"0.0-4.147-1.147","dvsvz2r0jdjjx3w",585,"200.csv","","null","resources/maskTrios/BT2B.jpg","null","",NA,NA,NA,NA,""
"image-keyboard-response",455,356538,"0.0-4.147-2.147","dvsvz2r0jdjjx3w",585,"200.csv","","null","resources/images/fishbone.png","null","",NA,NA,NA,NA,""
"image-keyboard-response",456,356928,"0.0-4.148-0.148","dvsvz2r0jdjjx3w",585,"200.csv","","387.7999999523163","resources/trios/L4T2A3.jpg","38","restless",0.5,0.5,0.6,0.286519373690092,"true"
"image-keyboard-response",457,357336,"0.0-4.148-1.148","dvsvz2r0jdjjx3w",585,"200.csv","","null","resources/maskTrios/BT2B.jpg","null","",NA,NA,NA,NA,""
"image-keyboard-response",458,358550,"0.0-4.148-2.148","dvsvz2r0jdjjx3w",585,"200.csv","","null","resources/images/coin2.png","null","",NA,NA,NA,NA,""
"image-keyboard-response",459,359320,"0.0-4.149-0.149","dvsvz2r0jdjjx3w",585,"200.csv","","769","resources/trios/L4T2A3.jpg","37","restless",0.5,0.5,0.6,0.959518196671534,"false"
"image-keyboard-response",460,359731,"0.0-4.149-1.149","dvsvz2r0jdjjx3w",585,"200.csv","","null","resources/maskTrios/L4BB.jpg","null","",NA,NA,NA,NA,""
"image-keyboard-response",461,360939,"0.0-4.149-2.149","dvsvz2r0jdjjx3w",585,"200.csv","","null","resources/images/fishbone.png","null","",NA,NA,NA,NA,""
"image-keyboard-response",462,361521,"0.0-4.150-0.150","dvsvz2r0jdjjx3w",585,"200.csv","","579.3999999761581","resources/trios/L4T2A3.jpg","37","restless",0.5,0.5,0.7,0.201232567941577,"true"
"image-keyboard-response",463,361927,"0.0-4.150-1.150","dvsvz2r0jdjjx3w",585,"200.csv","","null","resources/maskTrios/L4BB.jpg","null","",NA,NA,NA,NA,""
"image-keyboard-response",464,363130,"0.0-4.150-2.150","dvsvz2r0jdjjx3w",585,"200.csv","","null","resources/images/coin2.png","null","",NA,NA,NA,NA,""
"image-keyboard-response",465,363947,"0.0-4.151-0.151","dvsvz2r0jdjjx3w",585,"200.csv","","813.6999999284744","resources/trios/L4T2A3.jpg","37","restless",0.5,0.5,0.7,0.892709018652736,"false"
"image-keyboard-response",466,364352,"0.0-4.151-1.151","dvsvz2r0jdjjx3w",585,"200.csv","","null","resources/maskTrios/L4BB.jpg","null","",NA,NA,NA,NA,""
"image-keyboard-response",467,365556,"0.0-4.151-2.151","dvsvz2r0jdjjx3w",585,"200.csv","","null","resources/images/fishbone.png","null","",NA,NA,NA,NA,""
"image-keyboard-response",468,365954,"0.0-4.152-0.152","dvsvz2r0jdjjx3w",585,"200.csv","","395.5","resources/trios/L4T2A3.jpg","38","restless",0.5,0.4,0.7,0.184261041046299,"true"
"image-keyboard-response",469,366362,"0.0-4.152-1.152","dvsvz2r0jdjjx3w",585,"200.csv","","null","resources/maskTrios/BT2B.jpg","null","",NA,NA,NA,NA,""
"image-keyboard-response",470,367577,"0.0-4.152-2.152","dvsvz2r0jdjjx3w",585,"200.csv","","null","resources/images/coin2.png","null","",NA,NA,NA,NA,""
"image-keyboard-response",471,368388,"0.0-4.153-0.153","dvsvz2r0jdjjx3w",585,"200.csv","","808","resources/trios/L4T2A3.jpg","38","restless",0.4,0.3,0.7,0.708074938094526,"false"
"image-keyboard-response",472,368801,"0.0-4.153-1.153","dvsvz2r0jdjjx3w",585,"200.csv","","null","resources/maskTrios/BT2B.jpg","null","",NA,NA,NA,NA,""
"image-keyboard-response",473,370005,"0.0-4.153-2.153","dvsvz2r0jdjjx3w",585,"200.csv","","null","resources/images/fishbone.png","null","",NA,NA,NA,NA,""
"image-keyboard-response",474,370377,"0.0-4.154-0.154","dvsvz2r0jdjjx3w",585,"200.csv","","369.10000002384186","resources/trios/L4T2A3.jpg","38","restless",0.4,0.3,0.7,0.243525688466338,"true"
"image-keyboard-response",475,370795,"0.0-4.154-1.154","dvsvz2r0jdjjx3w",585,"200.csv","","null","resources/maskTrios/BT2B.jpg","null","",NA,NA,NA,NA,""
"image-keyboard-response",476,372008,"0.0-4.154-2.154","dvsvz2r0jdjjx3w",585,"200.csv","","null","resources/images/coin2.png","null","",NA,NA,NA,NA,""
"image-keyboard-response",477,372464,"0.0-4.155-0.155","dvsvz2r0jdjjx3w",585,"200.csv","","453.3000000715256","resources/trios/L4T2A3.jpg","39","restless",0.4,0.3,0.7,0.394556473928578,"true"
"image-keyboard-response",478,372882,"0.0-4.155-1.155","dvsvz2r0jdjjx3w",585,"200.csv","","null","resources/maskTrios/BBA3.jpg","null","",NA,NA,NA,NA,""
"image-keyboard-response",479,374097,"0.0-4.155-2.155","dvsvz2r0jdjjx3w",585,"200.csv","","null","resources/images/coin2.png","null","",NA,NA,NA,NA,""
"image-keyboard-response",480,374455,"0.0-4.156-0.156","dvsvz2r0jdjjx3w",585,"200.csv","","357.10000002384186","resources/trios/L4T2A3.jpg","37","restless",0.4,0.3,0.7,0.259760009019621,"true"
"image-keyboard-response",481,374862,"0.0-4.156-1.156","dvsvz2r0jdjjx3w",585,"200.csv","","null","resources/maskTrios/L4BB.jpg","null","",NA,NA,NA,NA,""
"image-keyboard-response",482,376069,"0.0-4.156-2.156","dvsvz2r0jdjjx3w",585,"200.csv","","null","resources/images/coin2.png","null","",NA,NA,NA,NA,""
"image-keyboard-response",483,376408,"0.0-4.157-0.157","dvsvz2r0jdjjx3w",585,"200.csv","","337.39999997615814","resources/trios/L4T2A3.jpg","39","restless",0.4,0.3,0.7,0.573603228549949,"true"
"image-keyboard-response",484,376822,"0.0-4.157-1.157","dvsvz2r0jdjjx3w",585,"200.csv","","null","resources/maskTrios/BBA3.jpg","null","",NA,NA,NA,NA,""
"image-keyboard-response",485,378036,"0.0-4.157-2.157","dvsvz2r0jdjjx3w",585,"200.csv","","null","resources/images/coin2.png","null","",NA,NA,NA,NA,""
"image-keyboard-response",486,378329,"0.0-4.158-0.158","dvsvz2r0jdjjx3w",585,"200.csv","","291.7999999523163","resources/trios/L4T2A3.jpg","38","restless",0.5,0.3,0.7,0.434088518329046,"false"
"image-keyboard-response",487,378745,"0.0-4.158-1.158","dvsvz2r0jdjjx3w",585,"200.csv","","null","resources/maskTrios/BT2B.jpg","null","",NA,NA,NA,NA,""
"image-keyboard-response",488,379960,"0.0-4.158-2.158","dvsvz2r0jdjjx3w",585,"200.csv","","null","resources/images/fishbone.png","null","",NA,NA,NA,NA,""
"image-keyboard-response",489,380279,"0.0-4.159-0.159","dvsvz2r0jdjjx3w",585,"200.csv","","316.8000000715256","resources/trios/L4T2A3.jpg","38","restless",0.5,0.3,0.7,0.87254599927281,"false"
"image-keyboard-response",490,380695,"0.0-4.159-1.159","dvsvz2r0jdjjx3w",585,"200.csv","","null","resources/maskTrios/BT2B.jpg","null","",NA,NA,NA,NA,""
"image-keyboard-response",491,381906,"0.0-4.159-2.159","dvsvz2r0jdjjx3w",585,"200.csv","","null","resources/images/fishbone.png","null","",NA,NA,NA,NA,""
"image-keyboard-response",492,382262,"0.0-4.160-0.160","dvsvz2r0jdjjx3w",585,"200.csv","","354.39999997615814","resources/trios/L4T2A3.jpg","38","restless",0.5,0.3,0.7,0.356618747793255,"false"
"image-keyboard-response",493,382674,"0.0-4.160-1.160","dvsvz2r0jdjjx3w",585,"200.csv","","null","resources/maskTrios/BT2B.jpg","null","",NA,NA,NA,NA,""
"image-keyboard-response",494,383878,"0.0-4.160-2.160","dvsvz2r0jdjjx3w",585,"200.csv","","null","resources/images/fishbone.png","null","",NA,NA,NA,NA,""
"image-keyboard-response",495,384224,"0.0-4.161-0.161","dvsvz2r0jdjjx3w",585,"200.csv","","343.2999999523163","resources/trios/L4T2A3.jpg","39","restless",0.5,0.3,0.7,0.216616235852704,"true"
"image-keyboard-response",496,384628,"0.0-4.161-1.161","dvsvz2r0jdjjx3w",585,"200.csv","","null","resources/maskTrios/BBA3.jpg","null","",NA,NA,NA,NA,""
"image-keyboard-response",497,385844,"0.0-4.161-2.161","dvsvz2r0jdjjx3w",585,"200.csv","","null","resources/images/coin2.png","null","",NA,NA,NA,NA,""
"image-keyboard-response",498,386300,"0.0-4.162-0.162","dvsvz2r0jdjjx3w",585,"200.csv","","454.10000002384186","resources/trios/L4T2A3.jpg","37","restless",0.5,0.3,0.7,0.52119818957233,"false"
"image-keyboard-response",499,386716,"0.0-4.162-1.162","dvsvz2r0jdjjx3w",585,"200.csv","","null","resources/maskTrios/L4BB.jpg","null","",NA,NA,NA,NA,""
"image-keyboard-response",500,387926,"0.0-4.162-2.162","dvsvz2r0jdjjx3w",585,"200.csv","","null","resources/images/fishbone.png","null","",NA,NA,NA,NA,""
"image-keyboard-response",501,388359,"0.0-4.163-0.163","dvsvz2r0jdjjx3w",585,"200.csv","","430.5","resources/trios/L4T2A3.jpg","38","restless",0.5,0.3,0.7,0.544609976371394,"false"
"image-keyboard-response",502,388769,"0.0-4.163-1.163","dvsvz2r0jdjjx3w",585,"200.csv","","null","resources/maskTrios/BT2B.jpg","null","",NA,NA,NA,NA,""
"image-keyboard-response",503,389982,"0.0-4.163-2.163","dvsvz2r0jdjjx3w",585,"200.csv","","null","resources/images/fishbone.png","null","",NA,NA,NA,NA,""
"image-keyboard-response",504,390384,"0.0-4.164-0.164","dvsvz2r0jdjjx3w",585,"200.csv","","400","resources/trios/L4T2A3.jpg","38","restless",0.5,0.3,0.7,0.772672710022409,"false"
"image-keyboard-response",505,390798,"0.0-4.164-1.164","dvsvz2r0jdjjx3w",585,"200.csv","","null","resources/maskTrios/BT2B.jpg","null","",NA,NA,NA,NA,""
"image-keyboard-response",506,392003,"0.0-4.164-2.164","dvsvz2r0jdjjx3w",585,"200.csv","","null","resources/images/fishbone.png","null","",NA,NA,NA,NA,""
"image-keyboard-response",507,392573,"0.0-4.165-0.165","dvsvz2r0jdjjx3w",585,"200.csv","","568.0999999046326","resources/trios/L4T2A3.jpg","37","restless",0.5,0.3,0.7,0.734512887539568,"false"
"image-keyboard-response",508,392983,"0.0-4.165-1.165","dvsvz2r0jdjjx3w",585,"200.csv","","null","resources/maskTrios/L4BB.jpg","null","",NA,NA,NA,NA,""
"image-keyboard-response",509,394201,"0.0-4.165-2.165","dvsvz2r0jdjjx3w",585,"200.csv","","null","resources/images/fishbone.png","null","",NA,NA,NA,NA,""
"image-keyboard-response",510,394664,"0.0-4.166-0.166","dvsvz2r0jdjjx3w",585,"200.csv","","461.39999997615814","resources/trios/L4T2A3.jpg","39","restless",0.5,0.3,0.7,0.00730761074546615,"true"
"image-keyboard-response",511,395072,"0.0-4.166-1.166","dvsvz2r0jdjjx3w",585,"200.csv","","null","resources/maskTrios/BBA3.jpg","null","",NA,NA,NA,NA,""
"image-keyboard-response",512,396288,"0.0-4.166-2.166","dvsvz2r0jdjjx3w",585,"200.csv","","null","resources/images/coin2.png","null","",NA,NA,NA,NA,""
"image-keyboard-response",513,396682,"0.0-4.167-0.167","dvsvz2r0jdjjx3w",585,"200.csv","","390.8000000715256","resources/trios/L4T2A3.jpg","38","restless",0.5,0.3,0.7,0.203836343222718,"true"
"image-keyboard-response",514,397085,"0.0-4.167-1.167","dvsvz2r0jdjjx3w",585,"200.csv","","null","resources/maskTrios/BT2B.jpg","null","",NA,NA,NA,NA,""
"image-keyboard-response",515,398292,"0.0-4.167-2.167","dvsvz2r0jdjjx3w",585,"200.csv","","null","resources/images/coin2.png","null","",NA,NA,NA,NA,""
"image-keyboard-response",516,398728,"0.0-4.168-0.168","dvsvz2r0jdjjx3w",585,"200.csv","","434.89999997615814","resources/trios/L4T2A3.jpg","37","restless",0.4,0.3,0.7,0.347492527301331,"true"
"image-keyboard-response",517,399142,"0.0-4.168-1.168","dvsvz2r0jdjjx3w",585,"200.csv","","null","resources/maskTrios/L4BB.jpg","null","",NA,NA,NA,NA,""
"image-keyboard-response",518,400352,"0.0-4.168-2.168","dvsvz2r0jdjjx3w",585,"200.csv","","null","resources/images/coin2.png","null","",NA,NA,NA,NA,""
"image-keyboard-response",519,400991,"0.0-4.169-0.169","dvsvz2r0jdjjx3w",585,"200.csv","","636.8000000715256","resources/trios/L4T2A3.jpg","37","restless",0.4,0.2,0.7,0.339533801100116,"true"
"image-keyboard-response",520,401398,"0.0-4.169-1.169","dvsvz2r0jdjjx3w",585,"200.csv","","null","resources/maskTrios/L4BB.jpg","null","",NA,NA,NA,NA,""
"image-keyboard-response",521,402610,"0.0-4.169-2.169","dvsvz2r0jdjjx3w",585,"200.csv","","null","resources/images/coin2.png","null","",NA,NA,NA,NA,""
"image-keyboard-response",522,403003,"0.0-4.170-0.170","dvsvz2r0jdjjx3w",585,"200.csv","","390.7000000476837","resources/trios/L4T2A3.jpg","38","restless",0.4,0.2,0.8,0.550065293498227,"false"
"image-keyboard-response",523,403408,"0.0-4.170-1.170","dvsvz2r0jdjjx3w",585,"200.csv","","null","resources/maskTrios/BT2B.jpg","null","",NA,NA,NA,NA,""
"image-keyboard-response",524,404613,"0.0-4.170-2.170","dvsvz2r0jdjjx3w",585,"200.csv","","null","resources/images/fishbone.png","null","",NA,NA,NA,NA,""
"image-keyboard-response",525,404990,"0.0-4.171-0.171","dvsvz2r0jdjjx3w",585,"200.csv","","375.2999999523163","resources/trios/L4T2A3.jpg","39","restless",0.4,0.2,0.8,0.902178099488588,"false"
"image-keyboard-response",526,405408,"0.0-4.171-1.171","dvsvz2r0jdjjx3w",585,"200.csv","","null","resources/maskTrios/BBA3.jpg","null","",NA,NA,NA,NA,""
"image-keyboard-response",527,406615,"0.0-4.171-2.171","dvsvz2r0jdjjx3w",585,"200.csv","","null","resources/images/fishbone.png","null","",NA,NA,NA,NA,""
"image-keyboard-response",528,407054,"0.0-4.172-0.172","dvsvz2r0jdjjx3w",585,"200.csv","","435.7999999523163","resources/trios/L4T2A3.jpg","37","restless",0.4,0.2,0.8,0.870707198440992,"false"
"image-keyboard-response",529,407459,"0.0-4.172-1.172","dvsvz2r0jdjjx3w",585,"200.csv","","null","resources/maskTrios/L4BB.jpg","null","",NA,NA,NA,NA,""
"image-keyboard-response",530,408670,"0.0-4.172-2.172","dvsvz2r0jdjjx3w",585,"200.csv","","null","resources/images/fishbone.png","null","",NA,NA,NA,NA,""
"image-keyboard-response",531,408965,"0.0-4.173-0.173","dvsvz2r0jdjjx3w",585,"200.csv","","293.60000002384186","resources/trios/L4T2A3.jpg","38","restless",0.4,0.2,0.8,0.604532316548373,"false"
"image-keyboard-response",532,409373,"0.0-4.173-1.173","dvsvz2r0jdjjx3w",585,"200.csv","","null","resources/maskTrios/BT2B.jpg","null","",NA,NA,NA,NA,""
"image-keyboard-response",533,410590,"0.0-4.173-2.173","dvsvz2r0jdjjx3w",585,"200.csv","","null","resources/images/fishbone.png","null","",NA,NA,NA,NA,""
"image-keyboard-response",534,410937,"0.0-4.174-0.174","dvsvz2r0jdjjx3w",585,"200.csv","","345","resources/trios/L4T2A3.jpg","38","restless",0.4,0.2,0.8,0.38016515768468,"false"
"image-keyboard-response",535,411353,"0.0-4.174-1.174","dvsvz2r0jdjjx3w",585,"200.csv","","null","resources/maskTrios/BT2B.jpg","null","",NA,NA,NA,NA,""
"image-keyboard-response",536,412555,"0.0-4.174-2.174","dvsvz2r0jdjjx3w",585,"200.csv","","null","resources/images/fishbone.png","null","",NA,NA,NA,NA,""
"image-keyboard-response",537,413082,"0.0-4.175-0.175","dvsvz2r0jdjjx3w",585,"200.csv","","524","resources/trios/L4T2A3.jpg","39","restless",0.4,0.2,0.8,0.360004896919646,"true"
"image-keyboard-response",538,413492,"0.0-4.175-1.175","dvsvz2r0jdjjx3w",585,"200.csv","","null","resources/maskTrios/BBA3.jpg","null","",NA,NA,NA,NA,""
"image-keyboard-response",539,414705,"0.0-4.175-2.175","dvsvz2r0jdjjx3w",585,"200.csv","","null","resources/images/coin2.png","null","",NA,NA,NA,NA,""
"image-keyboard-response",540,414996,"0.0-4.176-0.176","dvsvz2r0jdjjx3w",585,"200.csv","","288.40000009536743","resources/trios/L4T2A3.jpg","37","restless",0.4,0.2,0.8,0.489376374360879,"false"
"image-keyboard-response",541,415404,"0.0-4.176-1.176","dvsvz2r0jdjjx3w",585,"200.csv","","null","resources/maskTrios/L4BB.jpg","null","",NA,NA,NA,NA,""
"image-keyboard-response",542,416615,"0.0-4.176-2.176","dvsvz2r0jdjjx3w",585,"200.csv","","null","resources/images/fishbone.png","null","",NA,NA,NA,NA,""
"image-keyboard-response",543,416961,"0.0-4.177-0.177","dvsvz2r0jdjjx3w",585,"200.csv","","343.2999999523163","resources/trios/L4T2A3.jpg","38","restless",0.4,0.2,0.8,0.282446540637347,"false"
"image-keyboard-response",544,417371,"0.0-4.177-1.177","dvsvz2r0jdjjx3w",585,"200.csv","","null","resources/maskTrios/BT2B.jpg","null","",NA,NA,NA,NA,""
"image-keyboard-response",545,418578,"0.0-4.177-2.177","dvsvz2r0jdjjx3w",585,"200.csv","","null","resources/images/fishbone.png","null","",NA,NA,NA,NA,""
"image-keyboard-response",546,418900,"0.0-4.178-0.178","dvsvz2r0jdjjx3w",585,"200.csv","","318.7999999523163","resources/trios/L4T2A3.jpg","37","restless",0.4,0.2,0.8,0.589929923065038,"false"
"image-keyboard-response",547,419312,"0.0-4.178-1.178","dvsvz2r0jdjjx3w",585,"200.csv","","null","resources/maskTrios/L4BB.jpg","null","",NA,NA,NA,NA,""
"image-keyboard-response",548,420522,"0.0-4.178-2.178","dvsvz2r0jdjjx3w",585,"200.csv","","null","resources/images/fishbone.png","null","",NA,NA,NA,NA,""
"image-keyboard-response",549,420788,"0.0-4.179-0.179","dvsvz2r0jdjjx3w",585,"200.csv","","264.60000002384186","resources/trios/L4T2A3.jpg","39","restless",0.4,0.2,0.8,0.541573635797677,"true"
"image-keyboard-response",550,421199,"0.0-4.179-1.179","dvsvz2r0jdjjx3w",585,"200.csv","","null","resources/maskTrios/BBA3.jpg","null","",NA,NA,NA,NA,""
"image-keyboard-response",551,422417,"0.0-4.179-2.179","dvsvz2r0jdjjx3w",585,"200.csv","","null","resources/images/coin2.png","null","",NA,NA,NA,NA,""
"image-keyboard-response",552,422909,"0.0-4.180-0.180","dvsvz2r0jdjjx3w",585,"200.csv","","490.89999997615814","resources/trios/L4T2A3.jpg","39","restless",0.4,0.2,0.8,0.071828760448055,"true"
"image-keyboard-response",553,423321,"0.0-4.180-1.180","dvsvz2r0jdjjx3w",585,"200.csv","","null","resources/maskTrios/BBA3.jpg","null","",NA,NA,NA,NA,""
"image-keyboard-response",554,424526,"0.0-4.180-2.180","dvsvz2r0jdjjx3w",585,"200.csv","","null","resources/images/coin2.png","null","",NA,NA,NA,NA,""
"image-keyboard-response",555,424935,"0.0-4.181-0.181","dvsvz2r0jdjjx3w",585,"200.csv","","407.8000000715256","resources/trios/L4T2A3.jpg","37","restless",0.4,0.3,0.8,0.226647406215164,"true"
"image-keyboard-response",556,425354,"0.0-4.181-1.181","dvsvz2r0jdjjx3w",585,"200.csv","","null","resources/maskTrios/L4BB.jpg","null","",NA,NA,NA,NA,""
"image-keyboard-response",557,426569,"0.0-4.181-2.181","dvsvz2r0jdjjx3w",585,"200.csv","","null","resources/images/coin2.png","null","",NA,NA,NA,NA,""
"image-keyboard-response",558,427015,"0.0-4.182-0.182","dvsvz2r0jdjjx3w",585,"200.csv","","443.10000002384186","resources/trios/L4T2A3.jpg","38","restless",0.4,0.4,0.8,0.676758060651039,"false"
"image-keyboard-response",559,427423,"0.0-4.182-1.182","dvsvz2r0jdjjx3w",585,"200.csv","","null","resources/maskTrios/BT2B.jpg","null","",NA,NA,NA,NA,""
"image-keyboard-response",560,428629,"0.0-4.182-2.182","dvsvz2r0jdjjx3w",585,"200.csv","","null","resources/images/fishbone.png","null","",NA,NA,NA,NA,""
"image-keyboard-response",561,428973,"0.0-4.183-0.183","dvsvz2r0jdjjx3w",585,"200.csv","","341.8000000715256","resources/trios/L4T2A3.jpg","37","restless",0.4,0.4,0.8,0.709948447764743,"false"
"image-keyboard-response",562,429383,"0.0-4.183-1.183","dvsvz2r0jdjjx3w",585,"200.csv","","null","resources/maskTrios/L4BB.jpg","null","",NA,NA,NA,NA,""
"image-keyboard-response",563,430589,"0.0-4.183-2.183","dvsvz2r0jdjjx3w",585,"200.csv","","null","resources/images/fishbone.png","null","",NA,NA,NA,NA,""
"image-keyboard-response",564,430924,"0.0-4.184-0.184","dvsvz2r0jdjjx3w",585,"200.csv","","332.7999999523163","resources/trios/L4T2A3.jpg","39","restless",0.4,0.4,0.8,0.909923651635458,"false"
"image-keyboard-response",565,431344,"0.0-4.184-1.184","dvsvz2r0jdjjx3w",585,"200.csv","","null","resources/maskTrios/BBA3.jpg","null","",NA,NA,NA,NA,""
"image-keyboard-response",566,432560,"0.0-4.184-2.184","dvsvz2r0jdjjx3w",585,"200.csv","","null","resources/images/fishbone.png","null","",NA,NA,NA,NA,""
"image-keyboard-response",567,432930,"0.0-4.185-0.185","dvsvz2r0jdjjx3w",585,"200.csv","","367.2000000476837","resources/trios/L4T2A3.jpg","38","restless",0.4,0.4,0.8,0.835098619453839,"false"
"image-keyboard-response",568,433337,"0.0-4.185-1.185","dvsvz2r0jdjjx3w",585,"200.csv","","null","resources/maskTrios/BT2B.jpg","null","",NA,NA,NA,NA,""
"image-keyboard-response",569,434541,"0.0-4.185-2.185","dvsvz2r0jdjjx3w",585,"200.csv","","null","resources/images/fishbone.png","null","",NA,NA,NA,NA,""
"image-keyboard-response",570,434909,"0.0-4.186-0.186","dvsvz2r0jdjjx3w",585,"200.csv","","366","resources/trios/L4T2A3.jpg","38","restless",0.4,0.4,0.8,0.81296928464236,"false"
"image-keyboard-response",571,435319,"0.0-4.186-1.186","dvsvz2r0jdjjx3w",585,"200.csv","","null","resources/maskTrios/BT2B.jpg","null","",NA,NA,NA,NA,""
"image-keyboard-response",572,436535,"0.0-4.186-2.186","dvsvz2r0jdjjx3w",585,"200.csv","","null","resources/images/fishbone.png","null","",NA,NA,NA,NA,""
"image-keyboard-response",573,436891,"0.0-4.187-0.187","dvsvz2r0jdjjx3w",585,"200.csv","","352.89999997615814","resources/trios/L4T2A3.jpg","39","restless",0.4,0.4,0.8,0.0384990143997272,"true"
"image-keyboard-response",574,437303,"0.0-4.187-1.187","dvsvz2r0jdjjx3w",585,"200.csv","","null","resources/maskTrios/BBA3.jpg","null","",NA,NA,NA,NA,""
"image-keyboard-response",575,438520,"0.0-4.187-2.187","dvsvz2r0jdjjx3w",585,"200.csv","","null","resources/images/coin2.png","null","",NA,NA,NA,NA,""
"image-keyboard-response",576,439000,"0.0-4.188-0.188","dvsvz2r0jdjjx3w",585,"200.csv","","477.90000009536743","resources/trios/L4T2A3.jpg","37","restless",0.4,0.4,0.8,0.676573615141166,"false"
"image-keyboard-response",577,439407,"0.0-4.188-1.188","dvsvz2r0jdjjx3w",585,"200.csv","","null","resources/maskTrios/L4BB.jpg","null","",NA,NA,NA,NA,""
"image-keyboard-response",578,440617,"0.0-4.188-2.188","dvsvz2r0jdjjx3w",585,"200.csv","","null","resources/images/fishbone.png","null","",NA,NA,NA,NA,""
"image-keyboard-response",579,440895,"0.0-4.189-0.189","dvsvz2r0jdjjx3w",585,"200.csv","","275.59999990463257","resources/trios/L4T2A3.jpg","39","restless",0.4,0.3,0.8,0.123840992349241,"true"
"image-keyboard-response",580,441314,"0.0-4.189-1.189","dvsvz2r0jdjjx3w",585,"200.csv","","null","resources/maskTrios/BBA3.jpg","null","",NA,NA,NA,NA,""
"image-keyboard-response",581,442526,"0.0-4.189-2.189","dvsvz2r0jdjjx3w",585,"200.csv","","null","resources/images/coin2.png","null","",NA,NA,NA,NA,""
"image-keyboard-response",582,443106,"0.0-4.190-0.190","dvsvz2r0jdjjx3w",585,"200.csv","","579.1000000238419","resources/trios/L4T2A3.jpg","39","restless",0.4,0.3,0.8,0.985457732386206,"false"
"image-keyboard-response",583,443516,"0.0-4.190-1.190","dvsvz2r0jdjjx3w",585,"200.csv","","null","resources/maskTrios/BBA3.jpg","null","",NA,NA,NA,NA,""
"image-keyboard-response",584,444719,"0.0-4.190-2.190","dvsvz2r0jdjjx3w",585,"200.csv","","null","resources/images/fishbone.png","null","",NA,NA,NA,NA,""
"image-keyboard-response",585,445086,"0.0-4.191-0.191","dvsvz2r0jdjjx3w",585,"200.csv","","363.2000000476837","resources/trios/L4T2A3.jpg","38","restless",0.4,0.3,0.8,0.316718097262499,"false"
"image-keyboard-response",586,445499,"0.0-4.191-1.191","dvsvz2r0jdjjx3w",585,"200.csv","","null","resources/maskTrios/BT2B.jpg","null","",NA,NA,NA,NA,""
"image-keyboard-response",587,446710,"0.0-4.191-2.191","dvsvz2r0jdjjx3w",585,"200.csv","","null","resources/images/fishbone.png","null","",NA,NA,NA,NA,""
"image-keyboard-response",588,447050,"0.0-4.192-0.192","dvsvz2r0jdjjx3w",585,"200.csv","","337.39999997615814","resources/trios/L4T2A3.jpg","39","restless",0.4,0.3,0.7,0.452453249863351,"true"
"image-keyboard-response",589,447461,"0.0-4.192-1.192","dvsvz2r0jdjjx3w",585,"200.csv","","null","resources/maskTrios/BBA3.jpg","null","",NA,NA,NA,NA,""
"image-keyboard-response",590,448672,"0.0-4.192-2.192","dvsvz2r0jdjjx3w",585,"200.csv","","null","resources/images/coin2.png","null","",NA,NA,NA,NA,""
"image-keyboard-response",591,449113,"0.0-4.193-0.193","dvsvz2r0jdjjx3w",585,"200.csv","","438.3000000715256","resources/trios/L4T2A3.jpg","39","restless",0.4,0.3,0.7,0.59100247210974,"true"
"image-keyboard-response",592,449533,"0.0-4.193-1.193","dvsvz2r0jdjjx3w",585,"200.csv","","null","resources/maskTrios/BBA3.jpg","null","",NA,NA,NA,NA,""
"image-keyboard-response",593,450741,"0.0-4.193-2.193","dvsvz2r0jdjjx3w",585,"200.csv","","null","resources/images/coin2.png","null","",NA,NA,NA,NA,""
"image-keyboard-response",594,451156,"0.0-4.194-0.194","dvsvz2r0jdjjx3w",585,"200.csv","","412.1999999284744","resources/trios/L4T2A3.jpg","37","restless",0.4,0.3,0.7,0.270945336170446,"true"
"image-keyboard-response",595,451569,"0.0-4.194-1.194","dvsvz2r0jdjjx3w",585,"200.csv","","null","resources/maskTrios/L4BB.jpg","null","",NA,NA,NA,NA,""
"image-keyboard-response",596,452784,"0.0-4.194-2.194","dvsvz2r0jdjjx3w",585,"200.csv","","null","resources/images/coin2.png","null","",NA,NA,NA,NA,""
"image-keyboard-response",597,453233,"0.0-4.195-0.195","dvsvz2r0jdjjx3w",585,"200.csv","","447.5","resources/trios/L4T2A3.jpg","38","restless",0.4,0.3,0.7,0.13254614170497,"true"
"image-keyboard-response",598,453645,"0.0-4.195-1.195","dvsvz2r0jdjjx3w",585,"200.csv","","null","resources/maskTrios/BT2B.jpg","null","",NA,NA,NA,NA,""
"image-keyboard-response",599,454847,"0.0-4.195-2.195","dvsvz2r0jdjjx3w",585,"200.csv","","null","resources/images/coin2.png","null","",NA,NA,NA,NA,""
"image-keyboard-response",600,455524,"0.0-4.196-0.196","dvsvz2r0jdjjx3w",585,"200.csv","","674.5","resources/trios/L4T2A3.jpg","39","restless",0.4,0.3,0.7,0.762873787518208,"false"
"image-keyboard-response",601,455937,"0.0-4.196-1.196","dvsvz2r0jdjjx3w",585,"200.csv","","null","resources/maskTrios/BBA3.jpg","null","",NA,NA,NA,NA,""
"image-keyboard-response",602,457146,"0.0-4.196-2.196","dvsvz2r0jdjjx3w",585,"200.csv","","null","resources/images/fishbone.png","null","",NA,NA,NA,NA,""
"image-keyboard-response",603,457484,"0.0-4.197-0.197","dvsvz2r0jdjjx3w",585,"200.csv","","335.60000002384186","resources/trios/L4T2A3.jpg","38","restless",0.4,0.3,0.7,0.663932570273541,"false"
"image-keyboard-response",604,457895,"0.0-4.197-1.197","dvsvz2r0jdjjx3w",585,"200.csv","","null","resources/maskTrios/BT2B.jpg","null","",NA,NA,NA,NA,""
"image-keyboard-response",605,459111,"0.0-4.197-2.197","dvsvz2r0jdjjx3w",585,"200.csv","","null","resources/images/fishbone.png","null","",NA,NA,NA,NA,""
"image-keyboard-response",606,459390,"0.0-4.198-0.198","dvsvz2r0jdjjx3w",585,"200.csv","","275.7000000476837","resources/trios/L4T2A3.jpg","37","restless",0.4,0.3,0.7,0.289101475664442,"true"
"image-keyboard-response",607,459803,"0.0-4.198-1.198","dvsvz2r0jdjjx3w",585,"200.csv","","null","resources/maskTrios/L4BB.jpg","null","",NA,NA,NA,NA,""
"image-keyboard-response",608,461016,"0.0-4.198-2.198","dvsvz2r0jdjjx3w",585,"200.csv","","null","resources/images/coin2.png","null","",NA,NA,NA,NA,""
