"trial_type","trial_index","time_elapsed","internal_node_id","subject","participantCode","walkNumber","success","rt","stimulus","key_press","test_part","leftProb","midProb","rightProb","generatedNum","correct"
"pavlovia",0,1657,"0.0-0.0","2y4vk1u1y0bf2wg",437,"120.csv","","","","","",NA,NA,NA,NA,""
"fullscreen",1,12585,"0.0-1.0","2y4vk1u1y0bf2wg",437,"120.csv","true","","","","",NA,NA,NA,NA,""
"survey-html-form",2,26354,"0.0-2.0","2y4vk1u1y0bf2wg",437,"120.csv","","13749.89999999851","","","",NA,NA,NA,NA,""
"image-keyboard-response",3,33932,"0.0-3.0-0.0","2y4vk1u1y0bf2wg",437,"120.csv","","7574.39999999851","resources/images/parrot_nobg.png","13","",NA,NA,NA,NA,""
"image-keyboard-response",4,36934,"0.0-3.0-1.0","2y4vk1u1y0bf2wg",437,"120.csv","","null","resources/image_sets/111.png","null","",NA,NA,NA,NA,""
"image-keyboard-response",5,40168,"0.0-3.0-2.0","2y4vk1u1y0bf2wg",437,"120.csv","","3231.400000002235","resources/image_sets/left_highlight.png","37","",NA,NA,NA,NA,""
"image-keyboard-response",6,43703,"0.0-3.0-3.0","2y4vk1u1y0bf2wg",437,"120.csv","","3532.5","resources/image_sets/mid_highlight.png","38","",NA,NA,NA,NA,""
"image-keyboard-response",7,45611,"0.0-3.0-4.0","2y4vk1u1y0bf2wg",437,"120.csv","","1905.5999999977648","resources/image_sets/right_highlight.png","39","",NA,NA,NA,NA,""
"image-keyboard-response",8,48166,"0.0-3.0-5.0","2y4vk1u1y0bf2wg",437,"120.csv","","2553.10000000149","resources/image_sets/111.png","13","",NA,NA,NA,NA,""
"image-keyboard-response",9,52740,"0.0-3.0-6.0","2y4vk1u1y0bf2wg",437,"120.csv","","4571.29999999702","resources/images/coin2.png","13","",NA,NA,NA,NA,""
"image-keyboard-response",10,53955,"0.0-3.0-7.0","2y4vk1u1y0bf2wg",437,"120.csv","","1212.800000000745","resources/images/fishbone.png","13","",NA,NA,NA,NA,""
"html-keyboard-response",11,58644,"0.0-3.0-8.0","2y4vk1u1y0bf2wg",437,"120.csv","","4687.199999999255","<p>You can track your coin total on the top right of your screen. </p><p>At the end of your journey you will be directed to a survey, so please click on the link before exiting the task</p><p>Press Enter to begin</p>","13","",NA,NA,NA,NA,""
"image-keyboard-response",12,62104,"0.0-4.0-0.0","2y4vk1u1y0bf2wg",437,"120.csv","","3456.800000000745","resources/trios/L1T2A3.jpg","38","restless",0.9,0.3,0.7,0.50759301176659,"false"
"image-keyboard-response",13,62508,"0.0-4.0-1.0","2y4vk1u1y0bf2wg",437,"120.csv","","null","resources/maskTrios/BT2B.jpg","null","",NA,NA,NA,NA,""
"image-keyboard-response",14,63712,"0.0-4.0-2.0","2y4vk1u1y0bf2wg",437,"120.csv","","null","resources/images/fishbone.png","null","",NA,NA,NA,NA,""
"image-keyboard-response",15,66016,"0.0-4.1-0.1","2y4vk1u1y0bf2wg",437,"120.csv","","2299.699999999255","resources/trios/L1T2A3.jpg","37","restless",0.9,0.3,0.7,0.61855387502385,"true"
"image-keyboard-response",16,66419,"0.0-4.1-1.1","2y4vk1u1y0bf2wg",437,"120.csv","","null","resources/maskTrios/L1BB.jpg","null","",NA,NA,NA,NA,""
"image-keyboard-response",17,67624,"0.0-4.1-2.1","2y4vk1u1y0bf2wg",437,"120.csv","","null","resources/images/coin2.png","null","",NA,NA,NA,NA,""
"image-keyboard-response",18,68701,"0.0-4.2-0.2","2y4vk1u1y0bf2wg",437,"120.csv","","1072.5","resources/trios/L1T2A3.jpg","37","restless",0.8,0.3,0.6,0.0939255284184952,"true"
"image-keyboard-response",19,69104,"0.0-4.2-1.2","2y4vk1u1y0bf2wg",437,"120.csv","","null","resources/maskTrios/L1BB.jpg","null","",NA,NA,NA,NA,""
"image-keyboard-response",20,70309,"0.0-4.2-2.2","2y4vk1u1y0bf2wg",437,"120.csv","","null","resources/images/coin2.png","null","",NA,NA,NA,NA,""
"image-keyboard-response",21,71013,"0.0-4.3-0.3","2y4vk1u1y0bf2wg",437,"120.csv","","701.6999999992549","resources/trios/L1T2A3.jpg","37","restless",0.8,0.2,0.6,0.628293245789234,"true"
"image-keyboard-response",22,71417,"0.0-4.3-1.3","2y4vk1u1y0bf2wg",437,"120.csv","","null","resources/maskTrios/L1BB.jpg","null","",NA,NA,NA,NA,""
"image-keyboard-response",23,72624,"0.0-4.3-2.3","2y4vk1u1y0bf2wg",437,"120.csv","","null","resources/images/coin2.png","null","",NA,NA,NA,NA,""
"image-keyboard-response",24,73164,"0.0-4.4-0.4","2y4vk1u1y0bf2wg",437,"120.csv","","538.4000000022352","resources/trios/L1T2A3.jpg","37","restless",0.7,0.2,0.5,0.400956054749068,"true"
"image-keyboard-response",25,73568,"0.0-4.4-1.4","2y4vk1u1y0bf2wg",437,"120.csv","","null","resources/maskTrios/L1BB.jpg","null","",NA,NA,NA,NA,""
"image-keyboard-response",26,74770,"0.0-4.4-2.4","2y4vk1u1y0bf2wg",437,"120.csv","","null","resources/images/coin2.png","null","",NA,NA,NA,NA,""
"image-keyboard-response",27,75356,"0.0-4.5-0.5","2y4vk1u1y0bf2wg",437,"120.csv","","580.8999999985099","resources/trios/L1T2A3.jpg","37","restless",0.7,0.2,0.5,0.965790887224735,"false"
"image-keyboard-response",28,75759,"0.0-4.5-1.5","2y4vk1u1y0bf2wg",437,"120.csv","","null","resources/maskTrios/L1BB.jpg","null","",NA,NA,NA,NA,""
"image-keyboard-response",29,76962,"0.0-4.5-2.5","2y4vk1u1y0bf2wg",437,"120.csv","","null","resources/images/fishbone.png","null","",NA,NA,NA,NA,""
"image-keyboard-response",30,77678,"0.0-4.6-0.6","2y4vk1u1y0bf2wg",437,"120.csv","","713.5","resources/trios/L1T2A3.jpg","39","restless",0.8,0.2,0.5,0.910365205653535,"false"
"image-keyboard-response",31,78080,"0.0-4.6-1.6","2y4vk1u1y0bf2wg",437,"120.csv","","null","resources/maskTrios/BBA3.jpg","null","",NA,NA,NA,NA,""
"image-keyboard-response",32,79284,"0.0-4.6-2.6","2y4vk1u1y0bf2wg",437,"120.csv","","null","resources/images/fishbone.png","null","",NA,NA,NA,NA,""
"image-keyboard-response",33,79769,"0.0-4.7-0.7","2y4vk1u1y0bf2wg",437,"120.csv","","480.5","resources/trios/L1T2A3.jpg","38","restless",0.8,0.2,0.5,0.920126039989132,"false"
"image-keyboard-response",34,80172,"0.0-4.7-1.7","2y4vk1u1y0bf2wg",437,"120.csv","","null","resources/maskTrios/BT2B.jpg","null","",NA,NA,NA,NA,""
"image-keyboard-response",35,81376,"0.0-4.7-2.7","2y4vk1u1y0bf2wg",437,"120.csv","","null","resources/images/fishbone.png","null","",NA,NA,NA,NA,""
"image-keyboard-response",36,81812,"0.0-4.8-0.8","2y4vk1u1y0bf2wg",437,"120.csv","","433.30000000074506","resources/trios/L1T2A3.jpg","39","restless",0.8,0.2,0.5,0.266577598201593,"true"
"image-keyboard-response",37,82216,"0.0-4.8-1.8","2y4vk1u1y0bf2wg",437,"120.csv","","null","resources/maskTrios/BBA3.jpg","null","",NA,NA,NA,NA,""
"image-keyboard-response",38,83419,"0.0-4.8-2.8","2y4vk1u1y0bf2wg",437,"120.csv","","null","resources/images/coin2.png","null","",NA,NA,NA,NA,""
"image-keyboard-response",39,83795,"0.0-4.9-0.9","2y4vk1u1y0bf2wg",437,"120.csv","","372.30000000074506","resources/trios/L1T2A3.jpg","39","restless",0.8,0.2,0.5,0.766512249032194,"false"
"image-keyboard-response",40,84198,"0.0-4.9-1.9","2y4vk1u1y0bf2wg",437,"120.csv","","null","resources/maskTrios/BBA3.jpg","null","",NA,NA,NA,NA,""
"image-keyboard-response",41,85401,"0.0-4.9-2.9","2y4vk1u1y0bf2wg",437,"120.csv","","null","resources/images/fishbone.png","null","",NA,NA,NA,NA,""
"image-keyboard-response",42,85758,"0.0-4.10-0.10","2y4vk1u1y0bf2wg",437,"120.csv","","352.30000000074506","resources/trios/L1T2A3.jpg","39","restless",0.8,0.2,0.5,0.703219972482058,"false"
"image-keyboard-response",43,86161,"0.0-4.10-1.10","2y4vk1u1y0bf2wg",437,"120.csv","","null","resources/maskTrios/BBA3.jpg","null","",NA,NA,NA,NA,""
"image-keyboard-response",44,87364,"0.0-4.10-2.10","2y4vk1u1y0bf2wg",437,"120.csv","","null","resources/images/fishbone.png","null","",NA,NA,NA,NA,""
"image-keyboard-response",45,87912,"0.0-4.11-0.11","2y4vk1u1y0bf2wg",437,"120.csv","","545","resources/trios/L1T2A3.jpg","38","restless",0.8,0.2,0.5,0.721025860612723,"false"
"image-keyboard-response",46,88315,"0.0-4.11-1.11","2y4vk1u1y0bf2wg",437,"120.csv","","null","resources/maskTrios/BT2B.jpg","null","",NA,NA,NA,NA,""
"image-keyboard-response",47,89518,"0.0-4.11-2.11","2y4vk1u1y0bf2wg",437,"120.csv","","null","resources/images/fishbone.png","null","",NA,NA,NA,NA,""
"image-keyboard-response",48,89834,"0.0-4.12-0.12","2y4vk1u1y0bf2wg",437,"120.csv","","310.69999999925494","resources/trios/L1T2A3.jpg","37","restless",0.8,0.2,0.5,0.427599507306273,"true"
"image-keyboard-response",49,90238,"0.0-4.12-1.12","2y4vk1u1y0bf2wg",437,"120.csv","","null","resources/maskTrios/L1BB.jpg","null","",NA,NA,NA,NA,""
"image-keyboard-response",50,91444,"0.0-4.12-2.12","2y4vk1u1y0bf2wg",437,"120.csv","","null","resources/images/coin2.png","null","",NA,NA,NA,NA,""
"image-keyboard-response",51,91806,"0.0-4.13-0.13","2y4vk1u1y0bf2wg",437,"120.csv","","357.19999999925494","resources/trios/L1T2A3.jpg","37","restless",0.8,0.2,0.5,0.379086774443418,"true"
"image-keyboard-response",52,92209,"0.0-4.13-1.13","2y4vk1u1y0bf2wg",437,"120.csv","","null","resources/maskTrios/L1BB.jpg","null","",NA,NA,NA,NA,""
"image-keyboard-response",53,93413,"0.0-4.13-2.13","2y4vk1u1y0bf2wg",437,"120.csv","","null","resources/images/coin2.png","null","",NA,NA,NA,NA,""
"image-keyboard-response",54,93757,"0.0-4.14-0.14","2y4vk1u1y0bf2wg",437,"120.csv","","340.8999999985099","resources/trios/L1T2A3.jpg","37","restless",0.8,0.2,0.5,0.382414867340721,"true"
"image-keyboard-response",55,94160,"0.0-4.14-1.14","2y4vk1u1y0bf2wg",437,"120.csv","","null","resources/maskTrios/L1BB.jpg","null","",NA,NA,NA,NA,""
"image-keyboard-response",56,95364,"0.0-4.14-2.14","2y4vk1u1y0bf2wg",437,"120.csv","","null","resources/images/coin2.png","null","",NA,NA,NA,NA,""
"image-keyboard-response",57,95629,"0.0-4.15-0.15","2y4vk1u1y0bf2wg",437,"120.csv","","261.30000000074506","resources/trios/L1T2A3.jpg","37","restless",0.8,0.2,0.5,0.337753566010601,"true"
"image-keyboard-response",58,96032,"0.0-4.15-1.15","2y4vk1u1y0bf2wg",437,"120.csv","","null","resources/maskTrios/L1BB.jpg","null","",NA,NA,NA,NA,""
"image-keyboard-response",59,97236,"0.0-4.15-2.15","2y4vk1u1y0bf2wg",437,"120.csv","","null","resources/images/coin2.png","null","",NA,NA,NA,NA,""
"image-keyboard-response",60,97639,"0.0-4.16-0.16","2y4vk1u1y0bf2wg",437,"120.csv","","400.30000000074506","resources/trios/L1T2A3.jpg","38","restless",0.8,0.2,0.5,0.992535351534487,"false"
"image-keyboard-response",61,98043,"0.0-4.16-1.16","2y4vk1u1y0bf2wg",437,"120.csv","","null","resources/maskTrios/BT2B.jpg","null","",NA,NA,NA,NA,""
"image-keyboard-response",62,99247,"0.0-4.16-2.16","2y4vk1u1y0bf2wg",437,"120.csv","","null","resources/images/fishbone.png","null","",NA,NA,NA,NA,""
"image-keyboard-response",63,99465,"0.0-4.17-0.17","2y4vk1u1y0bf2wg",437,"120.csv","","213.59999999776483","resources/trios/L1T2A3.jpg","37","restless",0.8,0.3,0.5,0.85209871359077,"false"
"image-keyboard-response",64,99867,"0.0-4.17-1.17","2y4vk1u1y0bf2wg",437,"120.csv","","null","resources/maskTrios/L1BB.jpg","null","",NA,NA,NA,NA,""
"image-keyboard-response",65,101071,"0.0-4.17-2.17","2y4vk1u1y0bf2wg",437,"120.csv","","null","resources/images/fishbone.png","null","",NA,NA,NA,NA,""
"image-keyboard-response",66,101354,"0.0-4.18-0.18","2y4vk1u1y0bf2wg",437,"120.csv","","278.6000000014901","resources/trios/L1T2A3.jpg","38","restless",0.7,0.3,0.4,0.159905761353667,"true"
"image-keyboard-response",67,101757,"0.0-4.18-1.18","2y4vk1u1y0bf2wg",437,"120.csv","","null","resources/maskTrios/BT2B.jpg","null","",NA,NA,NA,NA,""
"image-keyboard-response",68,102959,"0.0-4.18-2.18","2y4vk1u1y0bf2wg",437,"120.csv","","null","resources/images/coin2.png","null","",NA,NA,NA,NA,""
"image-keyboard-response",69,103315,"0.0-4.19-0.19","2y4vk1u1y0bf2wg",437,"120.csv","","352.1000000014901","resources/trios/L1T2A3.jpg","38","restless",0.7,0.3,0.4,0.865043786885133,"false"
"image-keyboard-response",70,103720,"0.0-4.19-1.19","2y4vk1u1y0bf2wg",437,"120.csv","","null","resources/maskTrios/BT2B.jpg","null","",NA,NA,NA,NA,""
"image-keyboard-response",71,104923,"0.0-4.19-2.19","2y4vk1u1y0bf2wg",437,"120.csv","","null","resources/images/fishbone.png","null","",NA,NA,NA,NA,""
"image-keyboard-response",72,105196,"0.0-4.20-0.20","2y4vk1u1y0bf2wg",437,"120.csv","","268.30000000074506","resources/trios/L1T2A3.jpg","39","restless",0.7,0.3,0.4,0.247601106744471,"true"
"image-keyboard-response",73,105601,"0.0-4.20-1.20","2y4vk1u1y0bf2wg",437,"120.csv","","null","resources/maskTrios/BBA3.jpg","null","",NA,NA,NA,NA,""
"image-keyboard-response",74,106805,"0.0-4.20-2.20","2y4vk1u1y0bf2wg",437,"120.csv","","null","resources/images/coin2.png","null","",NA,NA,NA,NA,""
"image-keyboard-response",75,107535,"0.0-4.21-0.21","2y4vk1u1y0bf2wg",437,"120.csv","","726.1999999992549","resources/trios/L1T2A3.jpg","39","restless",0.7,0.3,0.4,0.62061082898679,"false"
"image-keyboard-response",76,107937,"0.0-4.21-1.21","2y4vk1u1y0bf2wg",437,"120.csv","","null","resources/maskTrios/BBA3.jpg","null","",NA,NA,NA,NA,""
"image-keyboard-response",77,109141,"0.0-4.21-2.21","2y4vk1u1y0bf2wg",437,"120.csv","","null","resources/images/fishbone.png","null","",NA,NA,NA,NA,""
"image-keyboard-response",78,109261,"0.0-4.22-0.22","2y4vk1u1y0bf2wg",437,"120.csv","","118.39999999850988","resources/trios/L1T2A3.jpg","37","restless",0.6,0.3,0.4,0.52646894556971,"true"
"image-keyboard-response",79,109665,"0.0-4.22-1.22","2y4vk1u1y0bf2wg",437,"120.csv","","null","resources/maskTrios/L1BB.jpg","null","",NA,NA,NA,NA,""
"image-keyboard-response",80,110869,"0.0-4.22-2.22","2y4vk1u1y0bf2wg",437,"120.csv","","null","resources/images/coin2.png","null","",NA,NA,NA,NA,""
"image-keyboard-response",81,111384,"0.0-4.23-0.23","2y4vk1u1y0bf2wg",437,"120.csv","","510.9000000022352","resources/trios/L1T2A3.jpg","37","restless",0.6,0.3,0.4,0.595727929744659,"true"
"image-keyboard-response",82,111786,"0.0-4.23-1.23","2y4vk1u1y0bf2wg",437,"120.csv","","null","resources/maskTrios/L1BB.jpg","null","",NA,NA,NA,NA,""
"image-keyboard-response",83,112990,"0.0-4.23-2.23","2y4vk1u1y0bf2wg",437,"120.csv","","null","resources/images/coin2.png","null","",NA,NA,NA,NA,""
"image-keyboard-response",84,113235,"0.0-4.24-0.24","2y4vk1u1y0bf2wg",437,"120.csv","","240.59999999776483","resources/trios/L1T2A3.jpg","37","restless",0.6,0.3,0.4,0.457202686282458,"true"
"image-keyboard-response",85,113639,"0.0-4.24-1.24","2y4vk1u1y0bf2wg",437,"120.csv","","null","resources/maskTrios/L1BB.jpg","null","",NA,NA,NA,NA,""
"image-keyboard-response",86,114842,"0.0-4.24-2.24","2y4vk1u1y0bf2wg",437,"120.csv","","null","resources/images/coin2.png","null","",NA,NA,NA,NA,""
"image-keyboard-response",87,114953,"0.0-4.25-0.25","2y4vk1u1y0bf2wg",437,"120.csv","","108.29999999701977","resources/trios/L1T2A3.jpg","37","restless",0.6,0.3,0.4,0.71533638997888,"false"
"image-keyboard-response",88,115357,"0.0-4.25-1.25","2y4vk1u1y0bf2wg",437,"120.csv","","null","resources/maskTrios/L1BB.jpg","null","",NA,NA,NA,NA,""
"image-keyboard-response",89,116560,"0.0-4.25-2.25","2y4vk1u1y0bf2wg",437,"120.csv","","null","resources/images/fishbone.png","null","",NA,NA,NA,NA,""
"image-keyboard-response",90,116811,"0.0-4.26-0.26","2y4vk1u1y0bf2wg",437,"120.csv","","248.09999999776483","resources/trios/L1T2A3.jpg","38","restless",0.5,0.3,0.4,0.0421834805584045,"true"
"image-keyboard-response",91,117215,"0.0-4.26-1.26","2y4vk1u1y0bf2wg",437,"120.csv","","null","resources/maskTrios/BT2B.jpg","null","",NA,NA,NA,NA,""
"image-keyboard-response",92,118419,"0.0-4.26-2.26","2y4vk1u1y0bf2wg",437,"120.csv","","null","resources/images/coin2.png","null","",NA,NA,NA,NA,""
"image-keyboard-response",93,122017,"0.0-4.27-0.27","2y4vk1u1y0bf2wg",437,"120.csv","","3596.400000002235","resources/trios/L1T2A3.jpg","38","restless",0.5,0.4,0.4,0.397367589940569,"true"
"image-keyboard-response",94,122419,"0.0-4.27-1.27","2y4vk1u1y0bf2wg",437,"120.csv","","null","resources/maskTrios/BT2B.jpg","null","",NA,NA,NA,NA,""
"image-keyboard-response",95,123623,"0.0-4.27-2.27","2y4vk1u1y0bf2wg",437,"120.csv","","null","resources/images/coin2.png","null","",NA,NA,NA,NA,""
"image-keyboard-response",96,123834,"0.0-4.28-0.28","2y4vk1u1y0bf2wg",437,"120.csv","","208.39999999850988","resources/trios/L1T2A3.jpg","38","restless",0.5,0.4,0.4,0.227401072322519,"true"
"image-keyboard-response",97,124237,"0.0-4.28-1.28","2y4vk1u1y0bf2wg",437,"120.csv","","null","resources/maskTrios/BT2B.jpg","null","",NA,NA,NA,NA,""
"image-keyboard-response",98,125440,"0.0-4.28-2.28","2y4vk1u1y0bf2wg",437,"120.csv","","null","resources/images/coin2.png","null","",NA,NA,NA,NA,""
"image-keyboard-response",99,125676,"0.0-4.29-0.29","2y4vk1u1y0bf2wg",437,"120.csv","","231.5","resources/trios/L1T2A3.jpg","38","restless",0.5,0.5,0.4,0.515601445102806,"false"
"image-keyboard-response",100,126079,"0.0-4.29-1.29","2y4vk1u1y0bf2wg",437,"120.csv","","null","resources/maskTrios/BT2B.jpg","null","",NA,NA,NA,NA,""
"image-keyboard-response",101,127282,"0.0-4.29-2.29","2y4vk1u1y0bf2wg",437,"120.csv","","null","resources/images/fishbone.png","null","",NA,NA,NA,NA,""
"image-keyboard-response",102,127668,"0.0-4.30-0.30","2y4vk1u1y0bf2wg",437,"120.csv","","382.69999999925494","resources/trios/L1T2A3.jpg","39","restless",0.5,0.5,0.4,0.0734552162711277,"true"
"image-keyboard-response",103,128071,"0.0-4.30-1.30","2y4vk1u1y0bf2wg",437,"120.csv","","null","resources/maskTrios/BBA3.jpg","null","",NA,NA,NA,NA,""
"image-keyboard-response",104,129274,"0.0-4.30-2.30","2y4vk1u1y0bf2wg",437,"120.csv","","null","resources/images/coin2.png","null","",NA,NA,NA,NA,""
"image-keyboard-response",105,129605,"0.0-4.31-0.31","2y4vk1u1y0bf2wg",437,"120.csv","","327.1000000014901","resources/trios/L1T2A3.jpg","39","restless",0.5,0.5,0.4,0.805933072598868,"false"
"image-keyboard-response",106,130008,"0.0-4.31-1.31","2y4vk1u1y0bf2wg",437,"120.csv","","null","resources/maskTrios/BBA3.jpg","null","",NA,NA,NA,NA,""
"image-keyboard-response",107,131211,"0.0-4.31-2.31","2y4vk1u1y0bf2wg",437,"120.csv","","null","resources/images/fishbone.png","null","",NA,NA,NA,NA,""
"image-keyboard-response",108,131228,"0.0-4.32-0.32","2y4vk1u1y0bf2wg",437,"120.csv","","12.5","resources/trios/L1T2A3.jpg","37","restless",0.5,0.5,0.4,0.346119067999993,"true"
"image-keyboard-response",109,131631,"0.0-4.32-1.32","2y4vk1u1y0bf2wg",437,"120.csv","","null","resources/maskTrios/L1BB.jpg","null","",NA,NA,NA,NA,""
"image-keyboard-response",110,132834,"0.0-4.32-2.32","2y4vk1u1y0bf2wg",437,"120.csv","","null","resources/images/coin2.png","null","",NA,NA,NA,NA,""
"image-keyboard-response",111,132870,"0.0-4.33-0.33","2y4vk1u1y0bf2wg",437,"120.csv","","32.5","resources/trios/L1T2A3.jpg","37","restless",0.5,0.5,0.4,0.232035894187907,"true"
"image-keyboard-response",112,133272,"0.0-4.33-1.33","2y4vk1u1y0bf2wg",437,"120.csv","","null","resources/maskTrios/L1BB.jpg","null","",NA,NA,NA,NA,""
"image-keyboard-response",113,134475,"0.0-4.33-2.33","2y4vk1u1y0bf2wg",437,"120.csv","","null","resources/images/coin2.png","null","",NA,NA,NA,NA,""
"image-keyboard-response",114,135336,"0.0-4.34-0.34","2y4vk1u1y0bf2wg",437,"120.csv","","856.5999999977648","resources/trios/L1T2A3.jpg","37","restless",0.5,0.5,0.3,0.278818961211628,"true"
"image-keyboard-response",115,135741,"0.0-4.34-1.34","2y4vk1u1y0bf2wg",437,"120.csv","","null","resources/maskTrios/L1BB.jpg","null","",NA,NA,NA,NA,""
"image-keyboard-response",116,136945,"0.0-4.34-2.34","2y4vk1u1y0bf2wg",437,"120.csv","","null","resources/images/coin2.png","null","",NA,NA,NA,NA,""
"image-keyboard-response",117,137054,"0.0-4.35-0.35","2y4vk1u1y0bf2wg",437,"120.csv","","104.09999999776483","resources/trios/L1T2A3.jpg","37","restless",0.5,0.5,0.3,0.954947468277107,"false"
"image-keyboard-response",118,137457,"0.0-4.35-1.35","2y4vk1u1y0bf2wg",437,"120.csv","","null","resources/maskTrios/L1BB.jpg","null","",NA,NA,NA,NA,""
"image-keyboard-response",119,138661,"0.0-4.35-2.35","2y4vk1u1y0bf2wg",437,"120.csv","","null","resources/images/fishbone.png","null","",NA,NA,NA,NA,""
"image-keyboard-response",120,139339,"0.0-4.36-0.36","2y4vk1u1y0bf2wg",437,"120.csv","","674.6000000014901","resources/trios/L1T2A3.jpg","37","restless",0.5,0.5,0.3,0.975562176369044,"false"
"image-keyboard-response",121,139742,"0.0-4.36-1.36","2y4vk1u1y0bf2wg",437,"120.csv","","null","resources/maskTrios/L1BB.jpg","null","",NA,NA,NA,NA,""
"image-keyboard-response",122,140946,"0.0-4.36-2.36","2y4vk1u1y0bf2wg",437,"120.csv","","null","resources/images/fishbone.png","null","",NA,NA,NA,NA,""
"image-keyboard-response",123,141265,"0.0-4.37-0.37","2y4vk1u1y0bf2wg",437,"120.csv","","315.1000000014901","resources/trios/L1T2A3.jpg","37","restless",0.5,0.5,0.3,0.198270969326227,"true"
"image-keyboard-response",124,141668,"0.0-4.37-1.37","2y4vk1u1y0bf2wg",437,"120.csv","","null","resources/maskTrios/L1BB.jpg","null","",NA,NA,NA,NA,""
"image-keyboard-response",125,142872,"0.0-4.37-2.37","2y4vk1u1y0bf2wg",437,"120.csv","","null","resources/images/coin2.png","null","",NA,NA,NA,NA,""
"image-keyboard-response",126,143175,"0.0-4.38-0.38","2y4vk1u1y0bf2wg",437,"120.csv","","300.30000000074506","resources/trios/L1T2A3.jpg","37","restless",0.5,0.5,0.3,0.517165251974051,"false"
"image-keyboard-response",127,143578,"0.0-4.38-1.38","2y4vk1u1y0bf2wg",437,"120.csv","","null","resources/maskTrios/L1BB.jpg","null","",NA,NA,NA,NA,""
"image-keyboard-response",128,144781,"0.0-4.38-2.38","2y4vk1u1y0bf2wg",437,"120.csv","","null","resources/images/fishbone.png","null","",NA,NA,NA,NA,""
"image-keyboard-response",129,145167,"0.0-4.39-0.39","2y4vk1u1y0bf2wg",437,"120.csv","","381.5","resources/trios/L1T2A3.jpg","38","restless",0.5,0.5,0.3,0.383418548855848,"true"
"image-keyboard-response",130,145570,"0.0-4.39-1.39","2y4vk1u1y0bf2wg",437,"120.csv","","null","resources/maskTrios/BT2B.jpg","null","",NA,NA,NA,NA,""
"image-keyboard-response",131,146773,"0.0-4.39-2.39","2y4vk1u1y0bf2wg",437,"120.csv","","null","resources/images/coin2.png","null","",NA,NA,NA,NA,""
"image-keyboard-response",132,147397,"0.0-4.40-0.40","2y4vk1u1y0bf2wg",437,"120.csv","","620.2000000029802","resources/trios/L1T2A3.jpg","38","restless",0.5,0.5,0.3,0.82147071046923,"false"
"image-keyboard-response",133,147801,"0.0-4.40-1.40","2y4vk1u1y0bf2wg",437,"120.csv","","null","resources/maskTrios/BT2B.jpg","null","",NA,NA,NA,NA,""
"image-keyboard-response",134,149004,"0.0-4.40-2.40","2y4vk1u1y0bf2wg",437,"120.csv","","null","resources/images/fishbone.png","null","",NA,NA,NA,NA,""
"image-keyboard-response",135,151455,"0.0-4.41-0.41","2y4vk1u1y0bf2wg",437,"120.csv","","2447","resources/trios/L1T2A3.jpg","38","restless",0.5,0.4,0.3,0.259505360138848,"true"
"image-keyboard-response",136,151860,"0.0-4.41-1.41","2y4vk1u1y0bf2wg",437,"120.csv","","null","resources/maskTrios/BT2B.jpg","null","",NA,NA,NA,NA,""
"image-keyboard-response",137,153064,"0.0-4.41-2.41","2y4vk1u1y0bf2wg",437,"120.csv","","null","resources/images/coin2.png","null","",NA,NA,NA,NA,""
"image-keyboard-response",138,153390,"0.0-4.42-0.42","2y4vk1u1y0bf2wg",437,"120.csv","","322.80000000074506","resources/trios/L1T2A3.jpg","38","restless",0.5,0.4,0.3,0.201961794393014,"true"
"image-keyboard-response",139,153793,"0.0-4.42-1.42","2y4vk1u1y0bf2wg",437,"120.csv","","null","resources/maskTrios/BT2B.jpg","null","",NA,NA,NA,NA,""
"image-keyboard-response",140,154997,"0.0-4.42-2.42","2y4vk1u1y0bf2wg",437,"120.csv","","null","resources/images/coin2.png","null","",NA,NA,NA,NA,""
"image-keyboard-response",141,155309,"0.0-4.43-0.43","2y4vk1u1y0bf2wg",437,"120.csv","","307.8999999985099","resources/trios/L1T2A3.jpg","38","restless",0.5,0.4,0.3,0.0535551859290364,"true"
"image-keyboard-response",142,155712,"0.0-4.43-1.43","2y4vk1u1y0bf2wg",437,"120.csv","","null","resources/maskTrios/BT2B.jpg","null","",NA,NA,NA,NA,""
"image-keyboard-response",143,156916,"0.0-4.43-2.43","2y4vk1u1y0bf2wg",437,"120.csv","","null","resources/images/coin2.png","null","",NA,NA,NA,NA,""
"image-keyboard-response",144,157239,"0.0-4.44-0.44","2y4vk1u1y0bf2wg",437,"120.csv","","319","resources/trios/L1T2A3.jpg","38","restless",0.6,0.4,0.3,0.446764958904044,"false"
"image-keyboard-response",145,157644,"0.0-4.44-1.44","2y4vk1u1y0bf2wg",437,"120.csv","","null","resources/maskTrios/BT2B.jpg","null","",NA,NA,NA,NA,""
"image-keyboard-response",146,158847,"0.0-4.44-2.44","2y4vk1u1y0bf2wg",437,"120.csv","","null","resources/images/fishbone.png","null","",NA,NA,NA,NA,""
"image-keyboard-response",147,159008,"0.0-4.45-0.45","2y4vk1u1y0bf2wg",437,"120.csv","","157","resources/trios/L1T2A3.jpg","39","restless",0.6,0.4,0.3,0.714727346123401,"false"
"image-keyboard-response",148,159411,"0.0-4.45-1.45","2y4vk1u1y0bf2wg",437,"120.csv","","null","resources/maskTrios/BBA3.jpg","null","",NA,NA,NA,NA,""
"image-keyboard-response",149,160614,"0.0-4.45-2.45","2y4vk1u1y0bf2wg",437,"120.csv","","null","resources/images/fishbone.png","null","",NA,NA,NA,NA,""
"image-keyboard-response",150,160792,"0.0-4.46-0.46","2y4vk1u1y0bf2wg",437,"120.csv","","174.19999999925494","resources/trios/L1T2A3.jpg","39","restless",0.6,0.4,0.3,0.67474895386784,"false"
"image-keyboard-response",151,161195,"0.0-4.46-1.46","2y4vk1u1y0bf2wg",437,"120.csv","","null","resources/maskTrios/BBA3.jpg","null","",NA,NA,NA,NA,""
"image-keyboard-response",152,162398,"0.0-4.46-2.46","2y4vk1u1y0bf2wg",437,"120.csv","","null","resources/images/fishbone.png","null","",NA,NA,NA,NA,""
"image-keyboard-response",153,162476,"0.0-4.47-0.47","2y4vk1u1y0bf2wg",437,"120.csv","","76.80000000074506","resources/trios/L1T2A3.jpg","38","restless",0.6,0.4,0.2,0.689272707012285,"false"
"image-keyboard-response",154,162881,"0.0-4.47-1.47","2y4vk1u1y0bf2wg",437,"120.csv","","null","resources/maskTrios/BT2B.jpg","null","",NA,NA,NA,NA,""
"image-keyboard-response",155,164084,"0.0-4.47-2.47","2y4vk1u1y0bf2wg",437,"120.csv","","null","resources/images/fishbone.png","null","",NA,NA,NA,NA,""
"image-keyboard-response",156,164327,"0.0-4.48-0.48","2y4vk1u1y0bf2wg",437,"120.csv","","238.89999999850988","resources/trios/L1T2A3.jpg","39","restless",0.7,0.4,0.2,0.238496873810409,"false"
"image-keyboard-response",157,164730,"0.0-4.48-1.48","2y4vk1u1y0bf2wg",437,"120.csv","","null","resources/maskTrios/BBA3.jpg","null","",NA,NA,NA,NA,""
"image-keyboard-response",158,165933,"0.0-4.48-2.48","2y4vk1u1y0bf2wg",437,"120.csv","","null","resources/images/fishbone.png","null","",NA,NA,NA,NA,""
"image-keyboard-response",159,166126,"0.0-4.49-0.49","2y4vk1u1y0bf2wg",437,"120.csv","","190.69999999925494","resources/trios/L1T2A3.jpg","37","restless",0.7,0.5,0.2,0.293628594670912,"true"
"image-keyboard-response",160,166529,"0.0-4.49-1.49","2y4vk1u1y0bf2wg",437,"120.csv","","null","resources/maskTrios/L1BB.jpg","null","",NA,NA,NA,NA,""
"image-keyboard-response",161,167733,"0.0-4.49-2.49","2y4vk1u1y0bf2wg",437,"120.csv","","null","resources/images/coin2.png","null","",NA,NA,NA,NA,""
"image-keyboard-response",162,168122,"0.0-4.50-0.50","2y4vk1u1y0bf2wg",437,"120.csv","","386","resources/trios/L1T2A3.jpg","37","restless",0.7,0.5,0.2,0.146858352249037,"true"
"image-keyboard-response",163,168526,"0.0-4.50-1.50","2y4vk1u1y0bf2wg",437,"120.csv","","null","resources/maskTrios/L1BB.jpg","null","",NA,NA,NA,NA,""
"image-keyboard-response",164,169729,"0.0-4.50-2.50","2y4vk1u1y0bf2wg",437,"120.csv","","null","resources/images/coin2.png","null","",NA,NA,NA,NA,""
"image-keyboard-response",165,170104,"0.0-4.51-0.51","2y4vk1u1y0bf2wg",437,"120.csv","","373.0999999977648","resources/trios/L1T2A3.jpg","37","restless",0.7,0.5,0.2,0.193210102788385,"true"
"image-keyboard-response",166,170507,"0.0-4.51-1.51","2y4vk1u1y0bf2wg",437,"120.csv","","null","resources/maskTrios/L1BB.jpg","null","",NA,NA,NA,NA,""
"image-keyboard-response",167,171711,"0.0-4.51-2.51","2y4vk1u1y0bf2wg",437,"120.csv","","null","resources/images/coin2.png","null","",NA,NA,NA,NA,""
"image-keyboard-response",168,172469,"0.0-4.52-0.52","2y4vk1u1y0bf2wg",437,"120.csv","","754.3000000007451","resources/trios/L1T2A3.jpg","37","restless",0.7,0.5,0.2,0.431073900564686,"true"
"image-keyboard-response",169,172873,"0.0-4.52-1.52","2y4vk1u1y0bf2wg",437,"120.csv","","null","resources/maskTrios/L1BB.jpg","null","",NA,NA,NA,NA,""
"image-keyboard-response",170,174077,"0.0-4.52-2.52","2y4vk1u1y0bf2wg",437,"120.csv","","null","resources/images/coin2.png","null","",NA,NA,NA,NA,""
"image-keyboard-response",171,174375,"0.0-4.53-0.53","2y4vk1u1y0bf2wg",437,"120.csv","","293.3999999985099","resources/trios/L1T2A3.jpg","37","restless",0.7,0.5,0.2,0.0607906814942694,"true"
"image-keyboard-response",172,174778,"0.0-4.53-1.53","2y4vk1u1y0bf2wg",437,"120.csv","","null","resources/maskTrios/L1BB.jpg","null","",NA,NA,NA,NA,""
"image-keyboard-response",173,175982,"0.0-4.53-2.53","2y4vk1u1y0bf2wg",437,"120.csv","","null","resources/images/coin2.png","null","",NA,NA,NA,NA,""
"image-keyboard-response",174,176272,"0.0-4.54-0.54","2y4vk1u1y0bf2wg",437,"120.csv","","285.80000000074506","resources/trios/L1T2A3.jpg","38","restless",0.7,0.5,0.2,0.461568690451291,"true"
"image-keyboard-response",175,176676,"0.0-4.54-1.54","2y4vk1u1y0bf2wg",437,"120.csv","","null","resources/maskTrios/BT2B.jpg","null","",NA,NA,NA,NA,""
"image-keyboard-response",176,177880,"0.0-4.54-2.54","2y4vk1u1y0bf2wg",437,"120.csv","","null","resources/images/coin2.png","null","",NA,NA,NA,NA,""
"image-keyboard-response",177,177995,"0.0-4.55-0.55","2y4vk1u1y0bf2wg",437,"120.csv","","110.80000000074506","resources/trios/L1T2A3.jpg","38","restless",0.8,0.5,0.2,0.610213897630662,"false"
"image-keyboard-response",178,178399,"0.0-4.55-1.55","2y4vk1u1y0bf2wg",437,"120.csv","","null","resources/maskTrios/BT2B.jpg","null","",NA,NA,NA,NA,""
"image-keyboard-response",179,179602,"0.0-4.55-2.55","2y4vk1u1y0bf2wg",437,"120.csv","","null","resources/images/fishbone.png","null","",NA,NA,NA,NA,""
"image-keyboard-response",180,180611,"0.0-4.56-0.56","2y4vk1u1y0bf2wg",437,"120.csv","","1005.5999999977648","resources/trios/L1T2A3.jpg","37","restless",0.8,0.5,0.2,0.890218497134676,"false"
"image-keyboard-response",181,181015,"0.0-4.56-1.56","2y4vk1u1y0bf2wg",437,"120.csv","","null","resources/maskTrios/L1BB.jpg","null","",NA,NA,NA,NA,""
"image-keyboard-response",182,182218,"0.0-4.56-2.56","2y4vk1u1y0bf2wg",437,"120.csv","","null","resources/images/fishbone.png","null","",NA,NA,NA,NA,""
"image-keyboard-response",183,182958,"0.0-4.57-0.57","2y4vk1u1y0bf2wg",437,"120.csv","","735.1999999992549","resources/trios/L1T2A3.jpg","39","restless",0.8,0.5,0.2,0.404736093586895,"false"
"image-keyboard-response",184,183361,"0.0-4.57-1.57","2y4vk1u1y0bf2wg",437,"120.csv","","null","resources/maskTrios/BBA3.jpg","null","",NA,NA,NA,NA,""
"image-keyboard-response",185,184564,"0.0-4.57-2.57","2y4vk1u1y0bf2wg",437,"120.csv","","null","resources/images/fishbone.png","null","",NA,NA,NA,NA,""
"image-keyboard-response",186,189832,"0.0-4.58-0.58","2y4vk1u1y0bf2wg",437,"120.csv","","5263.900000002235","resources/trios/L1T2A3.jpg","37","restless",0.7,0.5,0.2,0.46011550376755,"true"
"image-keyboard-response",187,190235,"0.0-4.58-1.58","2y4vk1u1y0bf2wg",437,"120.csv","","null","resources/maskTrios/L1BB.jpg","null","",NA,NA,NA,NA,""
"image-keyboard-response",188,191438,"0.0-4.58-2.58","2y4vk1u1y0bf2wg",437,"120.csv","","null","resources/images/coin2.png","null","",NA,NA,NA,NA,""
"image-keyboard-response",189,191740,"0.0-4.59-0.59","2y4vk1u1y0bf2wg",437,"120.csv","","299.8999999985099","resources/trios/L1T2A3.jpg","37","restless",0.7,0.5,0.2,0.480110929275833,"true"
"image-keyboard-response",190,192143,"0.0-4.59-1.59","2y4vk1u1y0bf2wg",437,"120.csv","","null","resources/maskTrios/L1BB.jpg","null","",NA,NA,NA,NA,""
"image-keyboard-response",191,193347,"0.0-4.59-2.59","2y4vk1u1y0bf2wg",437,"120.csv","","null","resources/images/coin2.png","null","",NA,NA,NA,NA,""
"image-keyboard-response",192,197795,"0.0-4.60-0.60","2y4vk1u1y0bf2wg",437,"120.csv","","4444.400000002235","resources/trios/L1T2A3.jpg","38","restless",0.7,0.5,0.2,0.19913422675615,"true"
"image-keyboard-response",193,198198,"0.0-4.60-1.60","2y4vk1u1y0bf2wg",437,"120.csv","","null","resources/maskTrios/BT2B.jpg","null","",NA,NA,NA,NA,""
"image-keyboard-response",194,199402,"0.0-4.60-2.60","2y4vk1u1y0bf2wg",437,"120.csv","","null","resources/images/coin2.png","null","",NA,NA,NA,NA,""
"image-keyboard-response",195,199832,"0.0-4.61-0.61","2y4vk1u1y0bf2wg",437,"120.csv","","426.79999999701977","resources/trios/L1T2A3.jpg","38","restless",0.7,0.5,0.2,0.577946454191459,"false"
"image-keyboard-response",196,200235,"0.0-4.61-1.61","2y4vk1u1y0bf2wg",437,"120.csv","","null","resources/maskTrios/BT2B.jpg","null","",NA,NA,NA,NA,""
"image-keyboard-response",197,201438,"0.0-4.61-2.61","2y4vk1u1y0bf2wg",437,"120.csv","","null","resources/images/fishbone.png","null","",NA,NA,NA,NA,""
"image-keyboard-response",198,202314,"0.0-4.62-0.62","2y4vk1u1y0bf2wg",437,"120.csv","","872.3000000007451","resources/trios/L1T2A3.jpg","39","restless",0.6,0.5,0.3,0.517689930628424,"false"
"image-keyboard-response",199,202719,"0.0-4.62-1.62","2y4vk1u1y0bf2wg",437,"120.csv","","null","resources/maskTrios/BBA3.jpg","null","",NA,NA,NA,NA,""
"image-keyboard-response",200,203922,"0.0-4.62-2.62","2y4vk1u1y0bf2wg",437,"120.csv","","null","resources/images/fishbone.png","null","",NA,NA,NA,NA,""
"image-keyboard-response",201,204695,"0.0-4.63-0.63","2y4vk1u1y0bf2wg",437,"120.csv","","770.3000000007451","resources/trios/L1T2A3.jpg","37","restless",0.6,0.5,0.3,0.137134713114144,"true"
"image-keyboard-response",202,205098,"0.0-4.63-1.63","2y4vk1u1y0bf2wg",437,"120.csv","","null","resources/maskTrios/L1BB.jpg","null","",NA,NA,NA,NA,""
"image-keyboard-response",203,206300,"0.0-4.63-2.63","2y4vk1u1y0bf2wg",437,"120.csv","","null","resources/images/coin2.png","null","",NA,NA,NA,NA,""
"image-keyboard-response",204,206804,"0.0-4.64-0.64","2y4vk1u1y0bf2wg",437,"120.csv","","499.80000000074506","resources/trios/L1T2A3.jpg","37","restless",0.5,0.5,0.3,0.256864818467417,"true"
"image-keyboard-response",205,207207,"0.0-4.64-1.64","2y4vk1u1y0bf2wg",437,"120.csv","","null","resources/maskTrios/L1BB.jpg","null","",NA,NA,NA,NA,""
"image-keyboard-response",206,208411,"0.0-4.64-2.64","2y4vk1u1y0bf2wg",437,"120.csv","","null","resources/images/coin2.png","null","",NA,NA,NA,NA,""
"image-keyboard-response",207,212021,"0.0-4.65-0.65","2y4vk1u1y0bf2wg",437,"120.csv","","3606.7000000029802","resources/trios/L1T2A3.jpg","37","restless",0.4,0.5,0.2,0.0394583777276942,"true"
"image-keyboard-response",208,212424,"0.0-4.65-1.65","2y4vk1u1y0bf2wg",437,"120.csv","","null","resources/maskTrios/L1BB.jpg","null","",NA,NA,NA,NA,""
"image-keyboard-response",209,213628,"0.0-4.65-2.65","2y4vk1u1y0bf2wg",437,"120.csv","","null","resources/images/coin2.png","null","",NA,NA,NA,NA,""
"image-keyboard-response",210,215242,"0.0-4.66-0.66","2y4vk1u1y0bf2wg",437,"120.csv","","1609.8999999985099","resources/trios/L1T2A3.jpg","39","restless",0.4,0.5,0.2,0.766104721620451,"false"
"image-keyboard-response",211,215645,"0.0-4.66-1.66","2y4vk1u1y0bf2wg",437,"120.csv","","null","resources/maskTrios/BBA3.jpg","null","",NA,NA,NA,NA,""
"image-keyboard-response",212,216849,"0.0-4.66-2.66","2y4vk1u1y0bf2wg",437,"120.csv","","null","resources/images/fishbone.png","null","",NA,NA,NA,NA,""
"image-keyboard-response",213,220911,"0.0-4.67-0.67","2y4vk1u1y0bf2wg",437,"120.csv","","4057.900000002235","resources/trios/L1T2A3.jpg","39","restless",0.4,0.5,0.2,0.694290545797423,"false"
"image-keyboard-response",214,221313,"0.0-4.67-1.67","2y4vk1u1y0bf2wg",437,"120.csv","","null","resources/maskTrios/BBA3.jpg","null","",NA,NA,NA,NA,""
"image-keyboard-response",215,222516,"0.0-4.67-2.67","2y4vk1u1y0bf2wg",437,"120.csv","","null","resources/images/fishbone.png","null","",NA,NA,NA,NA,""
"image-keyboard-response",216,222877,"0.0-4.68-0.68","2y4vk1u1y0bf2wg",437,"120.csv","","356.5","resources/trios/L1T2A3.jpg","38","restless",0.4,0.5,0.2,0.118026573193164,"true"
"image-keyboard-response",217,223280,"0.0-4.68-1.68","2y4vk1u1y0bf2wg",437,"120.csv","","null","resources/maskTrios/BT2B.jpg","null","",NA,NA,NA,NA,""
"image-keyboard-response",218,224483,"0.0-4.68-2.68","2y4vk1u1y0bf2wg",437,"120.csv","","null","resources/images/coin2.png","null","",NA,NA,NA,NA,""
"image-keyboard-response",219,228846,"0.0-4.69-0.69","2y4vk1u1y0bf2wg",437,"120.csv","","4358.10000000149","resources/trios/L1T2A3.jpg","38","restless",0.4,0.5,0.3,0.83523545928966,"false"
"image-keyboard-response",220,229250,"0.0-4.69-1.69","2y4vk1u1y0bf2wg",437,"120.csv","","null","resources/maskTrios/BT2B.jpg","null","",NA,NA,NA,NA,""
"image-keyboard-response",221,230453,"0.0-4.69-2.69","2y4vk1u1y0bf2wg",437,"120.csv","","null","resources/images/fishbone.png","null","",NA,NA,NA,NA,""
"image-keyboard-response",222,231266,"0.0-4.70-0.70","2y4vk1u1y0bf2wg",437,"120.csv","","810.5999999977648","resources/trios/L1T2A3.jpg","37","restless",0.4,0.5,0.3,0.505925860613047,"false"
"image-keyboard-response",223,231668,"0.0-4.70-1.70","2y4vk1u1y0bf2wg",437,"120.csv","","null","resources/maskTrios/L1BB.jpg","null","",NA,NA,NA,NA,""
"image-keyboard-response",224,232872,"0.0-4.70-2.70","2y4vk1u1y0bf2wg",437,"120.csv","","null","resources/images/fishbone.png","null","",NA,NA,NA,NA,""
"image-keyboard-response",225,233440,"0.0-4.71-0.71","2y4vk1u1y0bf2wg",437,"120.csv","","564.1000000014901","resources/trios/L1T2A3.jpg","37","restless",0.4,0.4,0.2,0.581939296427338,"false"
"image-keyboard-response",226,233844,"0.0-4.71-1.71","2y4vk1u1y0bf2wg",437,"120.csv","","null","resources/maskTrios/L1BB.jpg","null","",NA,NA,NA,NA,""
"image-keyboard-response",227,235047,"0.0-4.71-2.71","2y4vk1u1y0bf2wg",437,"120.csv","","null","resources/images/fishbone.png","null","",NA,NA,NA,NA,""
"image-keyboard-response",228,236849,"0.0-4.72-0.72","2y4vk1u1y0bf2wg",437,"120.csv","","1799.7999999970198","resources/trios/L1T2A3.jpg","39","restless",0.4,0.4,0.2,0.296065345651393,"false"
"image-keyboard-response",229,237252,"0.0-4.72-1.72","2y4vk1u1y0bf2wg",437,"120.csv","","null","resources/maskTrios/BBA3.jpg","null","",NA,NA,NA,NA,""
"image-keyboard-response",230,238454,"0.0-4.72-2.72","2y4vk1u1y0bf2wg",437,"120.csv","","null","resources/images/fishbone.png","null","",NA,NA,NA,NA,""
"image-keyboard-response",231,238686,"0.0-4.73-0.73","2y4vk1u1y0bf2wg",437,"120.csv","","227.30000000074506","resources/trios/L1T2A3.jpg","39","restless",0.4,0.4,0.2,0.836761057911173,"false"
"image-keyboard-response",232,239089,"0.0-4.73-1.73","2y4vk1u1y0bf2wg",437,"120.csv","","null","resources/maskTrios/BBA3.jpg","null","",NA,NA,NA,NA,""
"image-keyboard-response",233,240293,"0.0-4.73-2.73","2y4vk1u1y0bf2wg",437,"120.csv","","null","resources/images/fishbone.png","null","",NA,NA,NA,NA,""
"image-keyboard-response",234,240825,"0.0-4.74-0.74","2y4vk1u1y0bf2wg",437,"120.csv","","528.7000000029802","resources/trios/L1T2A3.jpg","38","restless",0.4,0.4,0.2,0.143731301748965,"true"
"image-keyboard-response",235,241228,"0.0-4.74-1.74","2y4vk1u1y0bf2wg",437,"120.csv","","null","resources/maskTrios/BT2B.jpg","null","",NA,NA,NA,NA,""
"image-keyboard-response",236,242431,"0.0-4.74-2.74","2y4vk1u1y0bf2wg",437,"120.csv","","null","resources/images/coin2.png","null","",NA,NA,NA,NA,""
"image-keyboard-response",237,242641,"0.0-4.75-0.75","2y4vk1u1y0bf2wg",437,"120.csv","","204.10000000149012","resources/trios/L1T2A3.jpg","38","restless",0.4,0.3,0.2,0.808019585995887,"false"
"image-keyboard-response",238,243042,"0.0-4.75-1.75","2y4vk1u1y0bf2wg",437,"120.csv","","null","resources/maskTrios/BT2B.jpg","null","",NA,NA,NA,NA,""
"image-keyboard-response",239,244244,"0.0-4.75-2.75","2y4vk1u1y0bf2wg",437,"120.csv","","null","resources/images/fishbone.png","null","",NA,NA,NA,NA,""
"image-keyboard-response",240,245126,"0.0-4.76-0.76","2y4vk1u1y0bf2wg",437,"120.csv","","879.1000000014901","resources/trios/L1T2A3.jpg","37","restless",0.4,0.4,0.2,0.624799765939196,"false"
"image-keyboard-response",241,245529,"0.0-4.76-1.76","2y4vk1u1y0bf2wg",437,"120.csv","","null","resources/maskTrios/L1BB.jpg","null","",NA,NA,NA,NA,""
"image-keyboard-response",242,246732,"0.0-4.76-2.76","2y4vk1u1y0bf2wg",437,"120.csv","","null","resources/images/fishbone.png","null","",NA,NA,NA,NA,""
"image-keyboard-response",243,249693,"0.0-4.77-0.77","2y4vk1u1y0bf2wg",437,"120.csv","","2957.900000002235","resources/trios/L1T2A3.jpg","37","restless",0.4,0.4,0.2,0.806327468124723,"false"
"image-keyboard-response",244,250096,"0.0-4.77-1.77","2y4vk1u1y0bf2wg",437,"120.csv","","null","resources/maskTrios/L1BB.jpg","null","",NA,NA,NA,NA,""
"image-keyboard-response",245,251299,"0.0-4.77-2.77","2y4vk1u1y0bf2wg",437,"120.csv","","null","resources/images/fishbone.png","null","",NA,NA,NA,NA,""
"image-keyboard-response",246,251309,"0.0-4.78-0.78","2y4vk1u1y0bf2wg",437,"120.csv","","5","resources/trios/L1T2A3.jpg","39","restless",0.4,0.4,0.2,0.568338747714751,"false"
"image-keyboard-response",247,251712,"0.0-4.78-1.78","2y4vk1u1y0bf2wg",437,"120.csv","","null","resources/maskTrios/BBA3.jpg","null","",NA,NA,NA,NA,""
"image-keyboard-response",248,252916,"0.0-4.78-2.78","2y4vk1u1y0bf2wg",437,"120.csv","","null","resources/images/fishbone.png","null","",NA,NA,NA,NA,""
"image-keyboard-response",249,253110,"0.0-4.79-0.79","2y4vk1u1y0bf2wg",437,"120.csv","","190.30000000074506","resources/trios/L1T2A3.jpg","39","restless",0.4,0.4,0.2,0.261409824934684,"false"
"image-keyboard-response",250,253513,"0.0-4.79-1.79","2y4vk1u1y0bf2wg",437,"120.csv","","null","resources/maskTrios/BBA3.jpg","null","",NA,NA,NA,NA,""
"image-keyboard-response",251,254715,"0.0-4.79-2.79","2y4vk1u1y0bf2wg",437,"120.csv","","null","resources/images/fishbone.png","null","",NA,NA,NA,NA,""
"image-keyboard-response",252,261709,"0.0-4.80-0.80","2y4vk1u1y0bf2wg",437,"120.csv","","6990.300000000745","resources/trios/L1T2A3.jpg","38","restless",0.4,0.4,0.2,0.000506332667336462,"true"
"image-keyboard-response",253,262113,"0.0-4.80-1.80","2y4vk1u1y0bf2wg",437,"120.csv","","null","resources/maskTrios/BT2B.jpg","null","",NA,NA,NA,NA,""
"image-keyboard-response",254,263317,"0.0-4.80-2.80","2y4vk1u1y0bf2wg",437,"120.csv","","null","resources/images/coin2.png","null","",NA,NA,NA,NA,""
"image-keyboard-response",255,263931,"0.0-4.81-0.81","2y4vk1u1y0bf2wg",437,"120.csv","","609.7000000029802","resources/trios/L1T2A3.jpg","38","restless",0.4,0.4,0.3,0.161706682184926,"true"
"image-keyboard-response",256,264335,"0.0-4.81-1.81","2y4vk1u1y0bf2wg",437,"120.csv","","null","resources/maskTrios/BT2B.jpg","null","",NA,NA,NA,NA,""
"image-keyboard-response",257,265540,"0.0-4.81-2.81","2y4vk1u1y0bf2wg",437,"120.csv","","null","resources/images/coin2.png","null","",NA,NA,NA,NA,""
"image-keyboard-response",258,268140,"0.0-4.82-0.82","2y4vk1u1y0bf2wg",437,"120.csv","","2596.199999999255","resources/trios/L1T2A3.jpg","38","restless",0.4,0.4,0.3,0.522303146889045,"false"
"image-keyboard-response",259,268543,"0.0-4.82-1.82","2y4vk1u1y0bf2wg",437,"120.csv","","null","resources/maskTrios/BT2B.jpg","null","",NA,NA,NA,NA,""
"image-keyboard-response",260,269747,"0.0-4.82-2.82","2y4vk1u1y0bf2wg",437,"120.csv","","null","resources/images/fishbone.png","null","",NA,NA,NA,NA,""
"image-keyboard-response",261,273262,"0.0-4.83-0.83","2y4vk1u1y0bf2wg",437,"120.csv","","3511.800000000745","resources/trios/L1T2A3.jpg","39","restless",0.4,0.3,0.3,0.749394854620661,"false"
"image-keyboard-response",262,273664,"0.0-4.83-1.83","2y4vk1u1y0bf2wg",437,"120.csv","","null","resources/maskTrios/BBA3.jpg","null","",NA,NA,NA,NA,""
"image-keyboard-response",263,274866,"0.0-4.83-2.83","2y4vk1u1y0bf2wg",437,"120.csv","","null","resources/images/fishbone.png","null","",NA,NA,NA,NA,""
"image-keyboard-response",264,279639,"0.0-4.84-0.84","2y4vk1u1y0bf2wg",437,"120.csv","","4768.89999999851","resources/trios/L1T2A3.jpg","39","restless",0.3,0.3,0.3,0.914795008304783,"false"
"image-keyboard-response",265,280043,"0.0-4.84-1.84","2y4vk1u1y0bf2wg",437,"120.csv","","null","resources/maskTrios/BBA3.jpg","null","",NA,NA,NA,NA,""
"image-keyboard-response",266,281246,"0.0-4.84-2.84","2y4vk1u1y0bf2wg",437,"120.csv","","null","resources/images/fishbone.png","null","",NA,NA,NA,NA,""
"image-keyboard-response",267,281483,"0.0-4.85-0.85","2y4vk1u1y0bf2wg",437,"120.csv","","234","resources/trios/L1T2A3.jpg","38","restless",0.3,0.3,0.3,0.870358724876868,"false"
"image-keyboard-response",268,281886,"0.0-4.85-1.85","2y4vk1u1y0bf2wg",437,"120.csv","","null","resources/maskTrios/BT2B.jpg","null","",NA,NA,NA,NA,""
"image-keyboard-response",269,283089,"0.0-4.85-2.85","2y4vk1u1y0bf2wg",437,"120.csv","","null","resources/images/fishbone.png","null","",NA,NA,NA,NA,""
"image-keyboard-response",270,283161,"0.0-4.86-0.86","2y4vk1u1y0bf2wg",437,"120.csv","","68.40000000223517","resources/trios/L1T2A3.jpg","37","restless",0.3,0.3,0.3,0.291010586900254,"true"
"image-keyboard-response",271,283565,"0.0-4.86-1.86","2y4vk1u1y0bf2wg",437,"120.csv","","null","resources/maskTrios/L1BB.jpg","null","",NA,NA,NA,NA,""
"image-keyboard-response",272,284769,"0.0-4.86-2.86","2y4vk1u1y0bf2wg",437,"120.csv","","null","resources/images/coin2.png","null","",NA,NA,NA,NA,""
"image-keyboard-response",273,285135,"0.0-4.87-0.87","2y4vk1u1y0bf2wg",437,"120.csv","","363.9000000022352","resources/trios/L1T2A3.jpg","37","restless",0.3,0.3,0.3,0.831271333946777,"false"
"image-keyboard-response",274,285538,"0.0-4.87-1.87","2y4vk1u1y0bf2wg",437,"120.csv","","null","resources/maskTrios/L1BB.jpg","null","",NA,NA,NA,NA,""
"image-keyboard-response",275,286741,"0.0-4.87-2.87","2y4vk1u1y0bf2wg",437,"120.csv","","null","resources/images/fishbone.png","null","",NA,NA,NA,NA,""
"image-keyboard-response",276,289177,"0.0-4.88-0.88","2y4vk1u1y0bf2wg",437,"120.csv","","2433.199999999255","resources/trios/L1T2A3.jpg","37","restless",0.3,0.3,0.3,0.152199975130748,"true"
"image-keyboard-response",277,289581,"0.0-4.88-1.88","2y4vk1u1y0bf2wg",437,"120.csv","","null","resources/maskTrios/L1BB.jpg","null","",NA,NA,NA,NA,""
"image-keyboard-response",278,290784,"0.0-4.88-2.88","2y4vk1u1y0bf2wg",437,"120.csv","","null","resources/images/coin2.png","null","",NA,NA,NA,NA,""
"image-keyboard-response",279,291076,"0.0-4.89-0.89","2y4vk1u1y0bf2wg",437,"120.csv","","289","resources/trios/L1T2A3.jpg","37","restless",0.3,0.3,0.3,0.81472403489948,"false"
"image-keyboard-response",280,291479,"0.0-4.89-1.89","2y4vk1u1y0bf2wg",437,"120.csv","","null","resources/maskTrios/L1BB.jpg","null","",NA,NA,NA,NA,""
"image-keyboard-response",281,292683,"0.0-4.89-2.89","2y4vk1u1y0bf2wg",437,"120.csv","","null","resources/images/fishbone.png","null","",NA,NA,NA,NA,""
"image-keyboard-response",282,293423,"0.0-4.90-0.90","2y4vk1u1y0bf2wg",437,"120.csv","","736.6000000014901","resources/trios/L1T2A3.jpg","39","restless",0.3,0.4,0.3,0.672353887128505,"false"
"image-keyboard-response",283,293827,"0.0-4.90-1.90","2y4vk1u1y0bf2wg",437,"120.csv","","null","resources/maskTrios/BBA3.jpg","null","",NA,NA,NA,NA,""
"image-keyboard-response",284,295032,"0.0-4.90-2.90","2y4vk1u1y0bf2wg",437,"120.csv","","null","resources/images/fishbone.png","null","",NA,NA,NA,NA,""
"image-keyboard-response",285,295774,"0.0-4.91-0.91","2y4vk1u1y0bf2wg",437,"120.csv","","736.1999999992549","resources/trios/L1T2A3.jpg","37","restless",0.3,0.4,0.3,0.621582907056465,"false"
"image-keyboard-response",286,296176,"0.0-4.91-1.91","2y4vk1u1y0bf2wg",437,"120.csv","","null","resources/maskTrios/L1BB.jpg","null","",NA,NA,NA,NA,""
"image-keyboard-response",287,297380,"0.0-4.91-2.91","2y4vk1u1y0bf2wg",437,"120.csv","","null","resources/images/fishbone.png","null","",NA,NA,NA,NA,""
"image-keyboard-response",288,297622,"0.0-4.92-0.92","2y4vk1u1y0bf2wg",437,"120.csv","","238.30000000074506","resources/trios/L1T2A3.jpg","38","restless",0.3,0.4,0.3,0.0653133994304846,"true"
"image-keyboard-response",289,298025,"0.0-4.92-1.92","2y4vk1u1y0bf2wg",437,"120.csv","","null","resources/maskTrios/BT2B.jpg","null","",NA,NA,NA,NA,""
"image-keyboard-response",290,299229,"0.0-4.92-2.92","2y4vk1u1y0bf2wg",437,"120.csv","","null","resources/images/coin2.png","null","",NA,NA,NA,NA,""
"image-keyboard-response",291,299557,"0.0-4.93-0.93","2y4vk1u1y0bf2wg",437,"120.csv","","325.30000000074506","resources/trios/L1T2A3.jpg","38","restless",0.3,0.5,0.3,0.899262458893725,"false"
"image-keyboard-response",292,299961,"0.0-4.93-1.93","2y4vk1u1y0bf2wg",437,"120.csv","","null","resources/maskTrios/BT2B.jpg","null","",NA,NA,NA,NA,""
"image-keyboard-response",293,301164,"0.0-4.93-2.93","2y4vk1u1y0bf2wg",437,"120.csv","","null","resources/images/fishbone.png","null","",NA,NA,NA,NA,""
"image-keyboard-response",294,301489,"0.0-4.94-0.94","2y4vk1u1y0bf2wg",437,"120.csv","","321.5999999977648","resources/trios/L1T2A3.jpg","37","restless",0.3,0.5,0.3,0.0599478015582771,"true"
"image-keyboard-response",295,301894,"0.0-4.94-1.94","2y4vk1u1y0bf2wg",437,"120.csv","","null","resources/maskTrios/L1BB.jpg","null","",NA,NA,NA,NA,""
"image-keyboard-response",296,303097,"0.0-4.94-2.94","2y4vk1u1y0bf2wg",437,"120.csv","","null","resources/images/coin2.png","null","",NA,NA,NA,NA,""
"image-keyboard-response",297,311571,"0.0-4.95-0.95","2y4vk1u1y0bf2wg",437,"120.csv","","8471","resources/trios/L1T2A3.jpg","38","restless",0.3,0.5,0.3,0.278117912154205,"true"
"image-keyboard-response",298,311973,"0.0-4.95-1.95","2y4vk1u1y0bf2wg",437,"120.csv","","null","resources/maskTrios/BT2B.jpg","null","",NA,NA,NA,NA,""
"image-keyboard-response",299,313176,"0.0-4.95-2.95","2y4vk1u1y0bf2wg",437,"120.csv","","null","resources/images/coin2.png","null","",NA,NA,NA,NA,""
"image-keyboard-response",300,314901,"0.0-4.96-0.96","2y4vk1u1y0bf2wg",437,"120.csv","","1722.5999999977648","resources/trios/L1T2A3.jpg","38","restless",0.3,0.5,0.3,0.0073998258762269,"true"
"image-keyboard-response",301,315304,"0.0-4.96-1.96","2y4vk1u1y0bf2wg",437,"120.csv","","null","resources/maskTrios/BT2B.jpg","null","",NA,NA,NA,NA,""
"image-keyboard-response",302,316507,"0.0-4.96-2.96","2y4vk1u1y0bf2wg",437,"120.csv","","null","resources/images/coin2.png","null","",NA,NA,NA,NA,""
"image-keyboard-response",303,317338,"0.0-4.97-0.97","2y4vk1u1y0bf2wg",437,"120.csv","","828.0999999977648","resources/trios/L1T2A3.jpg","38","restless",0.3,0.5,0.3,0.435869947399395,"true"
"image-keyboard-response",304,317742,"0.0-4.97-1.97","2y4vk1u1y0bf2wg",437,"120.csv","","null","resources/maskTrios/BT2B.jpg","null","",NA,NA,NA,NA,""
"image-keyboard-response",305,318945,"0.0-4.97-2.97","2y4vk1u1y0bf2wg",437,"120.csv","","null","resources/images/coin2.png","null","",NA,NA,NA,NA,""
"image-keyboard-response",306,320003,"0.0-4.98-0.98","2y4vk1u1y0bf2wg",437,"120.csv","","1054","resources/trios/L1T2A3.jpg","39","restless",0.3,0.5,0.4,0.501837405932152,"false"
"image-keyboard-response",307,320406,"0.0-4.98-1.98","2y4vk1u1y0bf2wg",437,"120.csv","","null","resources/maskTrios/BBA3.jpg","null","",NA,NA,NA,NA,""
"image-keyboard-response",308,321609,"0.0-4.98-2.98","2y4vk1u1y0bf2wg",437,"120.csv","","null","resources/images/fishbone.png","null","",NA,NA,NA,NA,""
"image-keyboard-response",309,321986,"0.0-4.99-0.99","2y4vk1u1y0bf2wg",437,"120.csv","","373.0999999977648","resources/trios/L1T2A3.jpg","38","restless",0.3,0.5,0.4,0.202296232236685,"true"
"image-keyboard-response",310,322390,"0.0-4.99-1.99","2y4vk1u1y0bf2wg",437,"120.csv","","null","resources/maskTrios/BT2B.jpg","null","",NA,NA,NA,NA,""
"image-keyboard-response",311,323594,"0.0-4.99-2.99","2y4vk1u1y0bf2wg",437,"120.csv","","null","resources/images/coin2.png","null","",NA,NA,NA,NA,""
"image-keyboard-response",312,324416,"0.0-4.100-0.100","2y4vk1u1y0bf2wg",437,"120.csv","","819.6000000014901","resources/trios/L1T2A3.jpg","37","restless",0.4,0.5,0.4,0.763574586815031,"false"
"image-keyboard-response",313,324819,"0.0-4.100-1.100","2y4vk1u1y0bf2wg",437,"120.csv","","null","resources/maskTrios/L1BB.jpg","null","",NA,NA,NA,NA,""
"image-keyboard-response",314,326022,"0.0-4.100-2.100","2y4vk1u1y0bf2wg",437,"120.csv","","null","resources/images/fishbone.png","null","",NA,NA,NA,NA,""
"image-keyboard-response",315,326212,"0.0-4.101-0.101","2y4vk1u1y0bf2wg",437,"120.csv","","185.80000000074506","resources/trios/L1T2A3.jpg","38","restless",0.4,0.5,0.4,0.591741383868805,"false"
"image-keyboard-response",316,326616,"0.0-4.101-1.101","2y4vk1u1y0bf2wg",437,"120.csv","","null","resources/maskTrios/BT2B.jpg","null","",NA,NA,NA,NA,""
"image-keyboard-response",317,327819,"0.0-4.101-2.101","2y4vk1u1y0bf2wg",437,"120.csv","","null","resources/images/fishbone.png","null","",NA,NA,NA,NA,""
"image-keyboard-response",318,328015,"0.0-4.102-0.102","2y4vk1u1y0bf2wg",437,"120.csv","","194.19999999925494","resources/trios/L1T2A3.jpg","37","restless",0.4,0.5,0.4,0.10906484095112,"true"
"image-keyboard-response",319,328419,"0.0-4.102-1.102","2y4vk1u1y0bf2wg",437,"120.csv","","null","resources/maskTrios/L1BB.jpg","null","",NA,NA,NA,NA,""
"image-keyboard-response",320,329622,"0.0-4.102-2.102","2y4vk1u1y0bf2wg",437,"120.csv","","null","resources/images/coin2.png","null","",NA,NA,NA,NA,""
"image-keyboard-response",321,329996,"0.0-4.103-0.103","2y4vk1u1y0bf2wg",437,"120.csv","","369","resources/trios/L1T2A3.jpg","37","restless",0.4,0.5,0.5,0.110758870501829,"true"
"image-keyboard-response",322,330398,"0.0-4.103-1.103","2y4vk1u1y0bf2wg",437,"120.csv","","null","resources/maskTrios/L1BB.jpg","null","",NA,NA,NA,NA,""
"image-keyboard-response",323,331602,"0.0-4.103-2.103","2y4vk1u1y0bf2wg",437,"120.csv","","null","resources/images/coin2.png","null","",NA,NA,NA,NA,""
"image-keyboard-response",324,336712,"0.0-4.104-0.104","2y4vk1u1y0bf2wg",437,"120.csv","","5106.5","resources/trios/L1T2A3.jpg","39","restless",0.4,0.5,0.5,0.39249372746457,"true"
"image-keyboard-response",325,337115,"0.0-4.104-1.104","2y4vk1u1y0bf2wg",437,"120.csv","","null","resources/maskTrios/BBA3.jpg","null","",NA,NA,NA,NA,""
"image-keyboard-response",326,338319,"0.0-4.104-2.104","2y4vk1u1y0bf2wg",437,"120.csv","","null","resources/images/coin2.png","null","",NA,NA,NA,NA,""
"image-keyboard-response",327,338521,"0.0-4.105-0.105","2y4vk1u1y0bf2wg",437,"120.csv","","198","resources/trios/L1T2A3.jpg","39","restless",0.4,0.5,0.5,0.00976389058601779,"true"
"image-keyboard-response",328,338924,"0.0-4.105-1.105","2y4vk1u1y0bf2wg",437,"120.csv","","null","resources/maskTrios/BBA3.jpg","null","",NA,NA,NA,NA,""
"image-keyboard-response",329,340128,"0.0-4.105-2.105","2y4vk1u1y0bf2wg",437,"120.csv","","null","resources/images/coin2.png","null","",NA,NA,NA,NA,""
"image-keyboard-response",330,342590,"0.0-4.106-0.106","2y4vk1u1y0bf2wg",437,"120.csv","","2458.10000000149","resources/trios/L1T2A3.jpg","39","restless",0.4,0.5,0.5,0.690165412820014,"false"
"image-keyboard-response",331,342993,"0.0-4.106-1.106","2y4vk1u1y0bf2wg",437,"120.csv","","null","resources/maskTrios/BBA3.jpg","null","",NA,NA,NA,NA,""
"image-keyboard-response",332,344195,"0.0-4.106-2.106","2y4vk1u1y0bf2wg",437,"120.csv","","null","resources/images/fishbone.png","null","",NA,NA,NA,NA,""
"image-keyboard-response",333,344435,"0.0-4.107-0.107","2y4vk1u1y0bf2wg",437,"120.csv","","236.20000000298023","resources/trios/L1T2A3.jpg","38","restless",0.4,0.5,0.5,0.549315949302606,"false"
"image-keyboard-response",334,344838,"0.0-4.107-1.107","2y4vk1u1y0bf2wg",437,"120.csv","","null","resources/maskTrios/BT2B.jpg","null","",NA,NA,NA,NA,""
"image-keyboard-response",335,346042,"0.0-4.107-2.107","2y4vk1u1y0bf2wg",437,"120.csv","","null","resources/images/fishbone.png","null","",NA,NA,NA,NA,""
"image-keyboard-response",336,346162,"0.0-4.108-0.108","2y4vk1u1y0bf2wg",437,"120.csv","","116.5","resources/trios/L1T2A3.jpg","37","restless",0.4,0.5,0.6,0.291558449597395,"true"
"image-keyboard-response",337,346565,"0.0-4.108-1.108","2y4vk1u1y0bf2wg",437,"120.csv","","null","resources/maskTrios/L1BB.jpg","null","",NA,NA,NA,NA,""
"image-keyboard-response",338,347768,"0.0-4.108-2.108","2y4vk1u1y0bf2wg",437,"120.csv","","null","resources/images/coin2.png","null","",NA,NA,NA,NA,""
"image-keyboard-response",339,347897,"0.0-4.109-0.109","2y4vk1u1y0bf2wg",437,"120.csv","","125","resources/trios/L1T2A3.jpg","37","restless",0.5,0.5,0.6,0.345241712970957,"true"
"image-keyboard-response",340,348300,"0.0-4.109-1.109","2y4vk1u1y0bf2wg",437,"120.csv","","null","resources/maskTrios/L1BB.jpg","null","",NA,NA,NA,NA,""
"image-keyboard-response",341,349505,"0.0-4.109-2.109","2y4vk1u1y0bf2wg",437,"120.csv","","null","resources/images/coin2.png","null","",NA,NA,NA,NA,""
"image-keyboard-response",342,349594,"0.0-4.110-0.110","2y4vk1u1y0bf2wg",437,"120.csv","","85.19999999925494","resources/trios/L1T2A3.jpg","37","restless",0.5,0.5,0.6,0.965718341915531,"false"
"image-keyboard-response",343,349997,"0.0-4.110-1.110","2y4vk1u1y0bf2wg",437,"120.csv","","null","resources/maskTrios/L1BB.jpg","null","",NA,NA,NA,NA,""
"image-keyboard-response",344,351199,"0.0-4.110-2.110","2y4vk1u1y0bf2wg",437,"120.csv","","null","resources/images/fishbone.png","null","",NA,NA,NA,NA,""
"image-keyboard-response",345,351374,"0.0-4.111-0.111","2y4vk1u1y0bf2wg",437,"120.csv","","171.80000000074506","resources/trios/L1T2A3.jpg","37","restless",0.5,0.5,0.6,0.0413720092761214,"true"
"image-keyboard-response",346,351777,"0.0-4.111-1.111","2y4vk1u1y0bf2wg",437,"120.csv","","null","resources/maskTrios/L1BB.jpg","null","",NA,NA,NA,NA,""
"image-keyboard-response",347,352982,"0.0-4.111-2.111","2y4vk1u1y0bf2wg",437,"120.csv","","null","resources/images/coin2.png","null","",NA,NA,NA,NA,""
"image-keyboard-response",348,356352,"0.0-4.112-0.112","2y4vk1u1y0bf2wg",437,"120.csv","","3365.5","resources/trios/L1T2A3.jpg","38","restless",0.5,0.5,0.6,0.322056122586077,"true"
"image-keyboard-response",349,356755,"0.0-4.112-1.112","2y4vk1u1y0bf2wg",437,"120.csv","","null","resources/maskTrios/BT2B.jpg","null","",NA,NA,NA,NA,""
"image-keyboard-response",350,357959,"0.0-4.112-2.112","2y4vk1u1y0bf2wg",437,"120.csv","","null","resources/images/coin2.png","null","",NA,NA,NA,NA,""
"image-keyboard-response",351,358005,"0.0-4.113-0.113","2y4vk1u1y0bf2wg",437,"120.csv","","42.400000002235174","resources/trios/L1T2A3.jpg","38","restless",0.5,0.5,0.7,0.848856975489516,"false"
"image-keyboard-response",352,358409,"0.0-4.113-1.113","2y4vk1u1y0bf2wg",437,"120.csv","","null","resources/maskTrios/BT2B.jpg","null","",NA,NA,NA,NA,""
"image-keyboard-response",353,359613,"0.0-4.113-2.113","2y4vk1u1y0bf2wg",437,"120.csv","","null","resources/images/fishbone.png","null","",NA,NA,NA,NA,""
"image-keyboard-response",354,362477,"0.0-4.114-0.114","2y4vk1u1y0bf2wg",437,"120.csv","","2859.5","resources/trios/L1T2A3.jpg","37","restless",0.5,0.5,0.7,0.928738784276946,"false"
"image-keyboard-response",355,362881,"0.0-4.114-1.114","2y4vk1u1y0bf2wg",437,"120.csv","","null","resources/maskTrios/L1BB.jpg","null","",NA,NA,NA,NA,""
"image-keyboard-response",356,364084,"0.0-4.114-2.114","2y4vk1u1y0bf2wg",437,"120.csv","","null","resources/images/fishbone.png","null","",NA,NA,NA,NA,""
"image-keyboard-response",357,364554,"0.0-4.115-0.115","2y4vk1u1y0bf2wg",437,"120.csv","","467.8999999985099","resources/trios/L1T2A3.jpg","39","restless",0.5,0.5,0.7,0.0495725960241324,"true"
"image-keyboard-response",358,364957,"0.0-4.115-1.115","2y4vk1u1y0bf2wg",437,"120.csv","","null","resources/maskTrios/BBA3.jpg","null","",NA,NA,NA,NA,""
"image-keyboard-response",359,366161,"0.0-4.115-2.115","2y4vk1u1y0bf2wg",437,"120.csv","","null","resources/images/coin2.png","null","",NA,NA,NA,NA,""
"image-keyboard-response",360,369590,"0.0-4.116-0.116","2y4vk1u1y0bf2wg",437,"120.csv","","3425.60000000149","resources/trios/L1T2A3.jpg","39","restless",0.5,0.5,0.7,0.414903464406391,"true"
"image-keyboard-response",361,369993,"0.0-4.116-1.116","2y4vk1u1y0bf2wg",437,"120.csv","","null","resources/maskTrios/BBA3.jpg","null","",NA,NA,NA,NA,""
"image-keyboard-response",362,371197,"0.0-4.116-2.116","2y4vk1u1y0bf2wg",437,"120.csv","","null","resources/images/coin2.png","null","",NA,NA,NA,NA,""
"image-keyboard-response",363,371633,"0.0-4.117-0.117","2y4vk1u1y0bf2wg",437,"120.csv","","432.3999999985099","resources/trios/L1T2A3.jpg","39","restless",0.5,0.5,0.7,0.805673745852897,"false"
"image-keyboard-response",364,372037,"0.0-4.117-1.117","2y4vk1u1y0bf2wg",437,"120.csv","","null","resources/maskTrios/BBA3.jpg","null","",NA,NA,NA,NA,""
"image-keyboard-response",365,373239,"0.0-4.117-2.117","2y4vk1u1y0bf2wg",437,"120.csv","","null","resources/images/fishbone.png","null","",NA,NA,NA,NA,""
"image-keyboard-response",366,373577,"0.0-4.118-0.118","2y4vk1u1y0bf2wg",437,"120.csv","","334.30000000074506","resources/trios/L1T2A3.jpg","37","restless",0.5,0.5,0.7,0.180396384992743,"true"
"image-keyboard-response",367,373983,"0.0-4.118-1.118","2y4vk1u1y0bf2wg",437,"120.csv","","null","resources/maskTrios/L1BB.jpg","null","",NA,NA,NA,NA,""
"image-keyboard-response",368,375187,"0.0-4.118-2.118","2y4vk1u1y0bf2wg",437,"120.csv","","null","resources/images/coin2.png","null","",NA,NA,NA,NA,""
"image-keyboard-response",369,375506,"0.0-4.119-0.119","2y4vk1u1y0bf2wg",437,"120.csv","","315.80000000074506","resources/trios/L1T2A3.jpg","38","restless",0.5,0.5,0.7,0.188720343980321,"true"
"image-keyboard-response",370,375910,"0.0-4.119-1.119","2y4vk1u1y0bf2wg",437,"120.csv","","null","resources/maskTrios/BT2B.jpg","null","",NA,NA,NA,NA,""
"image-keyboard-response",371,377114,"0.0-4.119-2.119","2y4vk1u1y0bf2wg",437,"120.csv","","null","resources/images/coin2.png","null","",NA,NA,NA,NA,""
"image-keyboard-response",372,377428,"0.0-4.120-0.120","2y4vk1u1y0bf2wg",437,"120.csv","","310.5","resources/trios/L1T2A3.jpg","38","restless",0.5,0.5,0.7,0.948370996972775,"false"
"image-keyboard-response",373,377831,"0.0-4.120-1.120","2y4vk1u1y0bf2wg",437,"120.csv","","null","resources/maskTrios/BT2B.jpg","null","",NA,NA,NA,NA,""
"image-keyboard-response",374,379035,"0.0-4.120-2.120","2y4vk1u1y0bf2wg",437,"120.csv","","null","resources/images/fishbone.png","null","",NA,NA,NA,NA,""
"image-keyboard-response",375,379288,"0.0-4.121-0.121","2y4vk1u1y0bf2wg",437,"120.csv","","251","resources/trios/L1T2A3.jpg","37","restless",0.5,0.5,0.7,0.687702704037002,"false"
"image-keyboard-response",376,379691,"0.0-4.121-1.121","2y4vk1u1y0bf2wg",437,"120.csv","","null","resources/maskTrios/L1BB.jpg","null","",NA,NA,NA,NA,""
"image-keyboard-response",377,380894,"0.0-4.121-2.121","2y4vk1u1y0bf2wg",437,"120.csv","","null","resources/images/fishbone.png","null","",NA,NA,NA,NA,""
"image-keyboard-response",378,382264,"0.0-4.122-0.122","2y4vk1u1y0bf2wg",437,"120.csv","","1366.8999999985099","resources/trios/L1T2A3.jpg","39","restless",0.5,0.5,0.7,0.479678088151221,"true"
"image-keyboard-response",379,382667,"0.0-4.122-1.122","2y4vk1u1y0bf2wg",437,"120.csv","","null","resources/maskTrios/BBA3.jpg","null","",NA,NA,NA,NA,""
"image-keyboard-response",380,383872,"0.0-4.122-2.122","2y4vk1u1y0bf2wg",437,"120.csv","","null","resources/images/coin2.png","null","",NA,NA,NA,NA,""
"image-keyboard-response",381,384111,"0.0-4.123-0.123","2y4vk1u1y0bf2wg",437,"120.csv","","235.70000000298023","resources/trios/L1T2A3.jpg","39","restless",0.5,0.5,0.8,0.884290898089622,"false"
"image-keyboard-response",382,384515,"0.0-4.123-1.123","2y4vk1u1y0bf2wg",437,"120.csv","","null","resources/maskTrios/BBA3.jpg","null","",NA,NA,NA,NA,""
"image-keyboard-response",383,385718,"0.0-4.123-2.123","2y4vk1u1y0bf2wg",437,"120.csv","","null","resources/images/fishbone.png","null","",NA,NA,NA,NA,""
"image-keyboard-response",384,386082,"0.0-4.124-0.124","2y4vk1u1y0bf2wg",437,"120.csv","","360.19999999925494","resources/trios/L1T2A3.jpg","39","restless",0.5,0.5,0.8,0.704570680327727,"true"
"image-keyboard-response",385,386485,"0.0-4.124-1.124","2y4vk1u1y0bf2wg",437,"120.csv","","null","resources/maskTrios/BBA3.jpg","null","",NA,NA,NA,NA,""
"image-keyboard-response",386,387689,"0.0-4.124-2.124","2y4vk1u1y0bf2wg",437,"120.csv","","null","resources/images/coin2.png","null","",NA,NA,NA,NA,""
"image-keyboard-response",387,388305,"0.0-4.125-0.125","2y4vk1u1y0bf2wg",437,"120.csv","","612.1999999992549","resources/trios/L1T2A3.jpg","38","restless",0.5,0.5,0.8,0.938452518404187,"false"
"image-keyboard-response",388,388708,"0.0-4.125-1.125","2y4vk1u1y0bf2wg",437,"120.csv","","null","resources/maskTrios/BT2B.jpg","null","",NA,NA,NA,NA,""
"image-keyboard-response",389,389911,"0.0-4.125-2.125","2y4vk1u1y0bf2wg",437,"120.csv","","null","resources/images/fishbone.png","null","",NA,NA,NA,NA,""
"image-keyboard-response",390,390453,"0.0-4.126-0.126","2y4vk1u1y0bf2wg",437,"120.csv","","537.1000000014901","resources/trios/L1T2A3.jpg","38","restless",0.5,0.5,0.8,0.280291286459791,"true"
"image-keyboard-response",391,390856,"0.0-4.126-1.126","2y4vk1u1y0bf2wg",437,"120.csv","","null","resources/maskTrios/BT2B.jpg","null","",NA,NA,NA,NA,""
"image-keyboard-response",392,392059,"0.0-4.126-2.126","2y4vk1u1y0bf2wg",437,"120.csv","","null","resources/images/coin2.png","null","",NA,NA,NA,NA,""
"image-keyboard-response",393,392589,"0.0-4.127-0.127","2y4vk1u1y0bf2wg",437,"120.csv","","526.3999999985099","resources/trios/L1T2A3.jpg","37","restless",0.5,0.5,0.8,0.0755045209301723,"true"
"image-keyboard-response",394,392992,"0.0-4.127-1.127","2y4vk1u1y0bf2wg",437,"120.csv","","null","resources/maskTrios/L1BB.jpg","null","",NA,NA,NA,NA,""
"image-keyboard-response",395,394196,"0.0-4.127-2.127","2y4vk1u1y0bf2wg",437,"120.csv","","null","resources/images/coin2.png","null","",NA,NA,NA,NA,""
"image-keyboard-response",396,394487,"0.0-4.128-0.128","2y4vk1u1y0bf2wg",437,"120.csv","","286.6000000014901","resources/trios/L1T2A3.jpg","37","restless",0.5,0.5,0.8,0.0796589571477244,"true"
"image-keyboard-response",397,394890,"0.0-4.128-1.128","2y4vk1u1y0bf2wg",437,"120.csv","","null","resources/maskTrios/L1BB.jpg","null","",NA,NA,NA,NA,""
"image-keyboard-response",398,396094,"0.0-4.128-2.128","2y4vk1u1y0bf2wg",437,"120.csv","","null","resources/images/coin2.png","null","",NA,NA,NA,NA,""
"image-keyboard-response",399,396555,"0.0-4.129-0.129","2y4vk1u1y0bf2wg",437,"120.csv","","457.30000000074506","resources/trios/L1T2A3.jpg","37","restless",0.5,0.5,0.8,0.127628295606107,"true"
"image-keyboard-response",400,396959,"0.0-4.129-1.129","2y4vk1u1y0bf2wg",437,"120.csv","","null","resources/maskTrios/L1BB.jpg","null","",NA,NA,NA,NA,""
"image-keyboard-response",401,398164,"0.0-4.129-2.129","2y4vk1u1y0bf2wg",437,"120.csv","","null","resources/images/coin2.png","null","",NA,NA,NA,NA,""
"image-keyboard-response",402,398517,"0.0-4.130-0.130","2y4vk1u1y0bf2wg",437,"120.csv","","348.9000000022352","resources/trios/L1T2A3.jpg","39","restless",0.5,0.5,0.9,0.301984909634882,"true"
"image-keyboard-response",403,398921,"0.0-4.130-1.130","2y4vk1u1y0bf2wg",437,"120.csv","","null","resources/maskTrios/BBA3.jpg","null","",NA,NA,NA,NA,""
"image-keyboard-response",404,400125,"0.0-4.130-2.130","2y4vk1u1y0bf2wg",437,"120.csv","","null","resources/images/coin2.png","null","",NA,NA,NA,NA,""
"image-keyboard-response",405,400774,"0.0-4.131-0.131","2y4vk1u1y0bf2wg",437,"120.csv","","645.5","resources/trios/L1T2A3.jpg","38","restless",0.5,0.5,0.9,0.395690231009104,"true"
"image-keyboard-response",406,401178,"0.0-4.131-1.131","2y4vk1u1y0bf2wg",437,"120.csv","","null","resources/maskTrios/BT2B.jpg","null","",NA,NA,NA,NA,""
"image-keyboard-response",407,402382,"0.0-4.131-2.131","2y4vk1u1y0bf2wg",437,"120.csv","","null","resources/images/coin2.png","null","",NA,NA,NA,NA,""
"image-keyboard-response",408,402802,"0.0-4.132-0.132","2y4vk1u1y0bf2wg",437,"120.csv","","415.5999999977648","resources/trios/L1T2A3.jpg","37","restless",0.5,0.5,0.9,0.391655710762933,"true"
"image-keyboard-response",409,403205,"0.0-4.132-1.132","2y4vk1u1y0bf2wg",437,"120.csv","","null","resources/maskTrios/L1BB.jpg","null","",NA,NA,NA,NA,""
"image-keyboard-response",410,404410,"0.0-4.132-2.132","2y4vk1u1y0bf2wg",437,"120.csv","","null","resources/images/coin2.png","null","",NA,NA,NA,NA,""
"image-keyboard-response",411,404566,"0.0-4.133-0.133","2y4vk1u1y0bf2wg",437,"120.csv","","152","resources/trios/L1T2A3.jpg","39","restless",0.5,0.5,0.9,0.455813444604543,"true"
"image-keyboard-response",412,404970,"0.0-4.133-1.133","2y4vk1u1y0bf2wg",437,"120.csv","","null","resources/maskTrios/BBA3.jpg","null","",NA,NA,NA,NA,""
"image-keyboard-response",413,406175,"0.0-4.133-2.133","2y4vk1u1y0bf2wg",437,"120.csv","","null","resources/images/coin2.png","null","",NA,NA,NA,NA,""
"image-keyboard-response",414,406379,"0.0-4.134-0.134","2y4vk1u1y0bf2wg",437,"120.csv","","200.39999999850988","resources/trios/L1T2A3.jpg","38","restless",0.5,0.5,0.9,0.984443224302187,"false"
"image-keyboard-response",415,406783,"0.0-4.134-1.134","2y4vk1u1y0bf2wg",437,"120.csv","","null","resources/maskTrios/BT2B.jpg","null","",NA,NA,NA,NA,""
"image-keyboard-response",416,407986,"0.0-4.134-2.134","2y4vk1u1y0bf2wg",437,"120.csv","","null","resources/images/fishbone.png","null","",NA,NA,NA,NA,""
"image-keyboard-response",417,408163,"0.0-4.135-0.135","2y4vk1u1y0bf2wg",437,"120.csv","","173.40000000223517","resources/trios/L1T2A3.jpg","37","restless",0.5,0.5,0.9,0.605296490043018,"false"
"image-keyboard-response",418,408566,"0.0-4.135-1.135","2y4vk1u1y0bf2wg",437,"120.csv","","null","resources/maskTrios/L1BB.jpg","null","",NA,NA,NA,NA,""
"image-keyboard-response",419,409769,"0.0-4.135-2.135","2y4vk1u1y0bf2wg",437,"120.csv","","null","resources/images/fishbone.png","null","",NA,NA,NA,NA,""
"image-keyboard-response",420,410095,"0.0-4.136-0.136","2y4vk1u1y0bf2wg",437,"120.csv","","322.29999999701977","resources/trios/L1T2A3.jpg","39","restless",0.5,0.5,0.9,0.780810736148813,"true"
"image-keyboard-response",421,410498,"0.0-4.136-1.136","2y4vk1u1y0bf2wg",437,"120.csv","","null","resources/maskTrios/BBA3.jpg","null","",NA,NA,NA,NA,""
"image-keyboard-response",422,411702,"0.0-4.136-2.136","2y4vk1u1y0bf2wg",437,"120.csv","","null","resources/images/coin2.png","null","",NA,NA,NA,NA,""
"image-keyboard-response",423,411996,"0.0-4.137-0.137","2y4vk1u1y0bf2wg",437,"120.csv","","289.69999999925494","resources/trios/L1T2A3.jpg","37","restless",0.5,0.5,0.8,0.381152529425952,"true"
"image-keyboard-response",424,412401,"0.0-4.137-1.137","2y4vk1u1y0bf2wg",437,"120.csv","","null","resources/maskTrios/L1BB.jpg","null","",NA,NA,NA,NA,""
"image-keyboard-response",425,413605,"0.0-4.137-2.137","2y4vk1u1y0bf2wg",437,"120.csv","","null","resources/images/coin2.png","null","",NA,NA,NA,NA,""
"image-keyboard-response",426,414063,"0.0-4.138-0.138","2y4vk1u1y0bf2wg",437,"120.csv","","454.5","resources/trios/L1T2A3.jpg","38","restless",0.5,0.5,0.8,0.661422291019417,"false"
"image-keyboard-response",427,414465,"0.0-4.138-1.138","2y4vk1u1y0bf2wg",437,"120.csv","","null","resources/maskTrios/BT2B.jpg","null","",NA,NA,NA,NA,""
"image-keyboard-response",428,415669,"0.0-4.138-2.138","2y4vk1u1y0bf2wg",437,"120.csv","","null","resources/images/fishbone.png","null","",NA,NA,NA,NA,""
"image-keyboard-response",429,415707,"0.0-4.139-0.139","2y4vk1u1y0bf2wg",437,"120.csv","","35.600000001490116","resources/trios/L1T2A3.jpg","39","restless",0.5,0.5,0.8,0.951539989546933,"false"
"image-keyboard-response",430,416112,"0.0-4.139-1.139","2y4vk1u1y0bf2wg",437,"120.csv","","null","resources/maskTrios/BBA3.jpg","null","",NA,NA,NA,NA,""
"image-keyboard-response",431,417315,"0.0-4.139-2.139","2y4vk1u1y0bf2wg",437,"120.csv","","null","resources/images/fishbone.png","null","",NA,NA,NA,NA,""
"image-keyboard-response",432,417903,"0.0-4.140-0.140","2y4vk1u1y0bf2wg",437,"120.csv","","584.3000000007451","resources/trios/L1T2A3.jpg","38","restless",0.5,0.5,0.8,0.662728814175015,"false"
"image-keyboard-response",433,418306,"0.0-4.140-1.140","2y4vk1u1y0bf2wg",437,"120.csv","","null","resources/maskTrios/BT2B.jpg","null","",NA,NA,NA,NA,""
"image-keyboard-response",434,419509,"0.0-4.140-2.140","2y4vk1u1y0bf2wg",437,"120.csv","","null","resources/images/fishbone.png","null","",NA,NA,NA,NA,""
"image-keyboard-response",435,420261,"0.0-4.141-0.141","2y4vk1u1y0bf2wg",437,"120.csv","","748.6000000014901","resources/trios/L1T2A3.jpg","37","restless",0.5,0.5,0.8,0.148512164633084,"true"
"image-keyboard-response",436,420664,"0.0-4.141-1.141","2y4vk1u1y0bf2wg",437,"120.csv","","null","resources/maskTrios/L1BB.jpg","null","",NA,NA,NA,NA,""
"image-keyboard-response",437,421868,"0.0-4.141-2.141","2y4vk1u1y0bf2wg",437,"120.csv","","null","resources/images/coin2.png","null","",NA,NA,NA,NA,""
"image-keyboard-response",438,422643,"0.0-4.142-0.142","2y4vk1u1y0bf2wg",437,"120.csv","","771.6000000014901","resources/trios/L1T2A3.jpg","37","restless",0.5,0.5,0.8,0.0120486373828996,"true"
"image-keyboard-response",439,423045,"0.0-4.142-1.142","2y4vk1u1y0bf2wg",437,"120.csv","","null","resources/maskTrios/L1BB.jpg","null","",NA,NA,NA,NA,""
"image-keyboard-response",440,424248,"0.0-4.142-2.142","2y4vk1u1y0bf2wg",437,"120.csv","","null","resources/images/coin2.png","null","",NA,NA,NA,NA,""
"image-keyboard-response",441,424465,"0.0-4.143-0.143","2y4vk1u1y0bf2wg",437,"120.csv","","213.30000000074506","resources/trios/L1T2A3.jpg","37","restless",0.5,0.5,0.9,0.349846859682054,"true"
"image-keyboard-response",442,424869,"0.0-4.143-1.143","2y4vk1u1y0bf2wg",437,"120.csv","","null","resources/maskTrios/L1BB.jpg","null","",NA,NA,NA,NA,""
"image-keyboard-response",443,426073,"0.0-4.143-2.143","2y4vk1u1y0bf2wg",437,"120.csv","","null","resources/images/coin2.png","null","",NA,NA,NA,NA,""
"image-keyboard-response",444,426374,"0.0-4.144-0.144","2y4vk1u1y0bf2wg",437,"120.csv","","297.3999999985099","resources/trios/L1T2A3.jpg","37","restless",0.5,0.5,0.9,0.844249275740225,"false"
"image-keyboard-response",445,426778,"0.0-4.144-1.144","2y4vk1u1y0bf2wg",437,"120.csv","","null","resources/maskTrios/L1BB.jpg","null","",NA,NA,NA,NA,""
"image-keyboard-response",446,427982,"0.0-4.144-2.144","2y4vk1u1y0bf2wg",437,"120.csv","","null","resources/images/fishbone.png","null","",NA,NA,NA,NA,""
"image-keyboard-response",447,428218,"0.0-4.145-0.145","2y4vk1u1y0bf2wg",437,"120.csv","","232.89999999850988","resources/trios/L1T2A3.jpg","37","restless",0.5,0.5,0.9,0.979058353306808,"false"
"image-keyboard-response",448,428620,"0.0-4.145-1.145","2y4vk1u1y0bf2wg",437,"120.csv","","null","resources/maskTrios/L1BB.jpg","null","",NA,NA,NA,NA,""
"image-keyboard-response",449,429822,"0.0-4.145-2.145","2y4vk1u1y0bf2wg",437,"120.csv","","null","resources/images/fishbone.png","null","",NA,NA,NA,NA,""
"image-keyboard-response",450,429846,"0.0-4.146-0.146","2y4vk1u1y0bf2wg",437,"120.csv","","20.199999999254942","resources/trios/L1T2A3.jpg","38","restless",0.5,0.5,0.9,0.552681447841409,"false"
"image-keyboard-response",451,430250,"0.0-4.146-1.146","2y4vk1u1y0bf2wg",437,"120.csv","","null","resources/maskTrios/BT2B.jpg","null","",NA,NA,NA,NA,""
"image-keyboard-response",452,431453,"0.0-4.146-2.146","2y4vk1u1y0bf2wg",437,"120.csv","","null","resources/images/fishbone.png","null","",NA,NA,NA,NA,""
"image-keyboard-response",453,431555,"0.0-4.147-0.147","2y4vk1u1y0bf2wg",437,"120.csv","","99.40000000223517","resources/trios/L1T2A3.jpg","39","restless",0.5,0.5,0.9,0.815485740726981,"true"
"image-keyboard-response",454,431958,"0.0-4.147-1.147","2y4vk1u1y0bf2wg",437,"120.csv","","null","resources/maskTrios/BBA3.jpg","null","",NA,NA,NA,NA,""
"image-keyboard-response",455,433161,"0.0-4.147-2.147","2y4vk1u1y0bf2wg",437,"120.csv","","null","resources/images/coin2.png","null","",NA,NA,NA,NA,""
"image-keyboard-response",456,433302,"0.0-4.148-0.148","2y4vk1u1y0bf2wg",437,"120.csv","","138.09999999776483","resources/trios/L1T2A3.jpg","39","restless",0.5,0.5,0.9,0.259067531896715,"true"
"image-keyboard-response",457,433705,"0.0-4.148-1.148","2y4vk1u1y0bf2wg",437,"120.csv","","null","resources/maskTrios/BBA3.jpg","null","",NA,NA,NA,NA,""
"image-keyboard-response",458,434909,"0.0-4.148-2.148","2y4vk1u1y0bf2wg",437,"120.csv","","null","resources/images/coin2.png","null","",NA,NA,NA,NA,""
"image-keyboard-response",459,435290,"0.0-4.149-0.149","2y4vk1u1y0bf2wg",437,"120.csv","","378.80000000074506","resources/trios/L1T2A3.jpg","38","restless",0.5,0.5,0.9,0.0684289009719938,"true"
"image-keyboard-response",460,435693,"0.0-4.149-1.149","2y4vk1u1y0bf2wg",437,"120.csv","","null","resources/maskTrios/BT2B.jpg","null","",NA,NA,NA,NA,""
"image-keyboard-response",461,436898,"0.0-4.149-2.149","2y4vk1u1y0bf2wg",437,"120.csv","","null","resources/images/coin2.png","null","",NA,NA,NA,NA,""
"image-keyboard-response",462,437138,"0.0-4.150-0.150","2y4vk1u1y0bf2wg",437,"120.csv","","236.09999999776483","resources/trios/L1T2A3.jpg","38","restless",0.5,0.5,0.9,0.720874021470615,"false"
"image-keyboard-response",463,437541,"0.0-4.150-1.150","2y4vk1u1y0bf2wg",437,"120.csv","","null","resources/maskTrios/BT2B.jpg","null","",NA,NA,NA,NA,""
"image-keyboard-response",464,438744,"0.0-4.150-2.150","2y4vk1u1y0bf2wg",437,"120.csv","","null","resources/images/fishbone.png","null","",NA,NA,NA,NA,""
"image-keyboard-response",465,438823,"0.0-4.151-0.151","2y4vk1u1y0bf2wg",437,"120.csv","","74.59999999776483","resources/trios/L1T2A3.jpg","37","restless",0.5,0.5,0.9,0.182534321730144,"true"
"image-keyboard-response",466,439227,"0.0-4.151-1.151","2y4vk1u1y0bf2wg",437,"120.csv","","null","resources/maskTrios/L1BB.jpg","null","",NA,NA,NA,NA,""
"image-keyboard-response",467,440429,"0.0-4.151-2.151","2y4vk1u1y0bf2wg",437,"120.csv","","null","resources/images/coin2.png","null","",NA,NA,NA,NA,""
"image-keyboard-response",468,440845,"0.0-4.152-0.152","2y4vk1u1y0bf2wg",437,"120.csv","","413.1000000014901","resources/trios/L1T2A3.jpg","37","restless",0.5,0.5,0.9,0.860136634986175,"false"
"image-keyboard-response",469,441249,"0.0-4.152-1.152","2y4vk1u1y0bf2wg",437,"120.csv","","null","resources/maskTrios/L1BB.jpg","null","",NA,NA,NA,NA,""
"image-keyboard-response",470,442452,"0.0-4.152-2.152","2y4vk1u1y0bf2wg",437,"120.csv","","null","resources/images/fishbone.png","null","",NA,NA,NA,NA,""
"image-keyboard-response",471,442799,"0.0-4.153-0.153","2y4vk1u1y0bf2wg",437,"120.csv","","343.69999999925494","resources/trios/L1T2A3.jpg","39","restless",0.6,0.5,0.9,0.106750550360323,"true"
"image-keyboard-response",472,443202,"0.0-4.153-1.153","2y4vk1u1y0bf2wg",437,"120.csv","","null","resources/maskTrios/BBA3.jpg","null","",NA,NA,NA,NA,""
"image-keyboard-response",473,444407,"0.0-4.153-2.153","2y4vk1u1y0bf2wg",437,"120.csv","","null","resources/images/coin2.png","null","",NA,NA,NA,NA,""
"image-keyboard-response",474,444702,"0.0-4.154-0.154","2y4vk1u1y0bf2wg",437,"120.csv","","291.20000000298023","resources/trios/L1T2A3.jpg","39","restless",0.6,0.5,0.9,0.855477411233695,"true"
"image-keyboard-response",475,445104,"0.0-4.154-1.154","2y4vk1u1y0bf2wg",437,"120.csv","","null","resources/maskTrios/BBA3.jpg","null","",NA,NA,NA,NA,""
"image-keyboard-response",476,446306,"0.0-4.154-2.154","2y4vk1u1y0bf2wg",437,"120.csv","","null","resources/images/coin2.png","null","",NA,NA,NA,NA,""
"image-keyboard-response",477,446616,"0.0-4.155-0.155","2y4vk1u1y0bf2wg",437,"120.csv","","307.5","resources/trios/L1T2A3.jpg","38","restless",0.6,0.5,0.9,0.0276000625833015,"true"
"image-keyboard-response",478,447019,"0.0-4.155-1.155","2y4vk1u1y0bf2wg",437,"120.csv","","null","resources/maskTrios/BT2B.jpg","null","",NA,NA,NA,NA,""
"image-keyboard-response",479,448223,"0.0-4.155-2.155","2y4vk1u1y0bf2wg",437,"120.csv","","null","resources/images/coin2.png","null","",NA,NA,NA,NA,""
"image-keyboard-response",480,448481,"0.0-4.156-0.156","2y4vk1u1y0bf2wg",437,"120.csv","","254.69999999925494","resources/trios/L1T2A3.jpg","37","restless",0.6,0.5,0.9,0.0195195956849368,"true"
"image-keyboard-response",481,448885,"0.0-4.156-1.156","2y4vk1u1y0bf2wg",437,"120.csv","","null","resources/maskTrios/L1BB.jpg","null","",NA,NA,NA,NA,""
"image-keyboard-response",482,450088,"0.0-4.156-2.156","2y4vk1u1y0bf2wg",437,"120.csv","","null","resources/images/coin2.png","null","",NA,NA,NA,NA,""
"image-keyboard-response",483,450302,"0.0-4.157-0.157","2y4vk1u1y0bf2wg",437,"120.csv","","209.19999999925494","resources/trios/L1T2A3.jpg","39","restless",0.6,0.5,0.9,0.285857417171361,"true"
"image-keyboard-response",484,450705,"0.0-4.157-1.157","2y4vk1u1y0bf2wg",437,"120.csv","","null","resources/maskTrios/BBA3.jpg","null","",NA,NA,NA,NA,""
"image-keyboard-response",485,451909,"0.0-4.157-2.157","2y4vk1u1y0bf2wg",437,"120.csv","","null","resources/images/coin2.png","null","",NA,NA,NA,NA,""
"image-keyboard-response",486,452120,"0.0-4.158-0.158","2y4vk1u1y0bf2wg",437,"120.csv","","207","resources/trios/L1T2A3.jpg","37","restless",0.6,0.5,0.9,0.287927103657875,"true"
"image-keyboard-response",487,452524,"0.0-4.158-1.158","2y4vk1u1y0bf2wg",437,"120.csv","","null","resources/maskTrios/L1BB.jpg","null","",NA,NA,NA,NA,""
"image-keyboard-response",488,453728,"0.0-4.158-2.158","2y4vk1u1y0bf2wg",437,"120.csv","","null","resources/images/coin2.png","null","",NA,NA,NA,NA,""
"image-keyboard-response",489,453996,"0.0-4.159-0.159","2y4vk1u1y0bf2wg",437,"120.csv","","264.6000000014901","resources/trios/L1T2A3.jpg","38","restless",0.6,0.5,0.9,0.096046107451208,"true"
"image-keyboard-response",490,454400,"0.0-4.159-1.159","2y4vk1u1y0bf2wg",437,"120.csv","","null","resources/maskTrios/BT2B.jpg","null","",NA,NA,NA,NA,""
"image-keyboard-response",491,455604,"0.0-4.159-2.159","2y4vk1u1y0bf2wg",437,"120.csv","","null","resources/images/coin2.png","null","",NA,NA,NA,NA,""
"image-keyboard-response",492,455738,"0.0-4.160-0.160","2y4vk1u1y0bf2wg",437,"120.csv","","130.59999999776483","resources/trios/L1T2A3.jpg","39","restless",0.6,0.4,0.9,0.0209045333646567,"true"
"image-keyboard-response",493,456141,"0.0-4.160-1.160","2y4vk1u1y0bf2wg",437,"120.csv","","null","resources/maskTrios/BBA3.jpg","null","",NA,NA,NA,NA,""
"image-keyboard-response",494,457344,"0.0-4.160-2.160","2y4vk1u1y0bf2wg",437,"120.csv","","null","resources/images/coin2.png","null","",NA,NA,NA,NA,""
"image-keyboard-response",495,457595,"0.0-4.161-0.161","2y4vk1u1y0bf2wg",437,"120.csv","","247.5","resources/trios/L1T2A3.jpg","37","restless",0.6,0.4,0.9,0.461825019529421,"true"
"image-keyboard-response",496,457998,"0.0-4.161-1.161","2y4vk1u1y0bf2wg",437,"120.csv","","null","resources/maskTrios/L1BB.jpg","null","",NA,NA,NA,NA,""
"image-keyboard-response",497,459202,"0.0-4.161-2.161","2y4vk1u1y0bf2wg",437,"120.csv","","null","resources/images/coin2.png","null","",NA,NA,NA,NA,""
"image-keyboard-response",498,459331,"0.0-4.162-0.162","2y4vk1u1y0bf2wg",437,"120.csv","","124.39999999850988","resources/trios/L1T2A3.jpg","38","restless",0.6,0.4,0.9,0.970476366490849,"false"
"image-keyboard-response",499,459735,"0.0-4.162-1.162","2y4vk1u1y0bf2wg",437,"120.csv","","null","resources/maskTrios/BT2B.jpg","null","",NA,NA,NA,NA,""
"image-keyboard-response",500,460938,"0.0-4.162-2.162","2y4vk1u1y0bf2wg",437,"120.csv","","null","resources/images/fishbone.png","null","",NA,NA,NA,NA,""
"image-keyboard-response",501,461426,"0.0-4.163-0.163","2y4vk1u1y0bf2wg",437,"120.csv","","483.80000000074506","resources/trios/L1T2A3.jpg","39","restless",0.6,0.4,0.9,0.749026958072929,"true"
"image-keyboard-response",502,461831,"0.0-4.163-1.163","2y4vk1u1y0bf2wg",437,"120.csv","","null","resources/maskTrios/BBA3.jpg","null","",NA,NA,NA,NA,""
"image-keyboard-response",503,463035,"0.0-4.163-2.163","2y4vk1u1y0bf2wg",437,"120.csv","","null","resources/images/coin2.png","null","",NA,NA,NA,NA,""
"image-keyboard-response",504,463129,"0.0-4.164-0.164","2y4vk1u1y0bf2wg",437,"120.csv","","90","resources/trios/L1T2A3.jpg","37","restless",0.6,0.4,0.9,0.325173867532713,"true"
"image-keyboard-response",505,463533,"0.0-4.164-1.164","2y4vk1u1y0bf2wg",437,"120.csv","","null","resources/maskTrios/L1BB.jpg","null","",NA,NA,NA,NA,""
"image-keyboard-response",506,464736,"0.0-4.164-2.164","2y4vk1u1y0bf2wg",437,"120.csv","","null","resources/images/coin2.png","null","",NA,NA,NA,NA,""
"image-keyboard-response",507,469194,"0.0-4.165-0.165","2y4vk1u1y0bf2wg",437,"120.csv","","4452.900000002235","resources/trios/L1T2A3.jpg","38","restless",0.6,0.4,0.9,0.114242501028088,"true"
"image-keyboard-response",508,469597,"0.0-4.165-1.165","2y4vk1u1y0bf2wg",437,"120.csv","","null","resources/maskTrios/BT2B.jpg","null","",NA,NA,NA,NA,""
"image-keyboard-response",509,470801,"0.0-4.165-2.165","2y4vk1u1y0bf2wg",437,"120.csv","","null","resources/images/coin2.png","null","",NA,NA,NA,NA,""
"image-keyboard-response",510,471311,"0.0-4.166-0.166","2y4vk1u1y0bf2wg",437,"120.csv","","505.3999999985099","resources/trios/L1T2A3.jpg","38","restless",0.6,0.4,0.9,0.672341790894586,"false"
"image-keyboard-response",511,471714,"0.0-4.166-1.166","2y4vk1u1y0bf2wg",437,"120.csv","","null","resources/maskTrios/BT2B.jpg","null","",NA,NA,NA,NA,""
"image-keyboard-response",512,472916,"0.0-4.166-2.166","2y4vk1u1y0bf2wg",437,"120.csv","","null","resources/images/fishbone.png","null","",NA,NA,NA,NA,""
"image-keyboard-response",513,473140,"0.0-4.167-0.167","2y4vk1u1y0bf2wg",437,"120.csv","","220.19999999925494","resources/trios/L1T2A3.jpg","39","restless",0.6,0.4,0.9,0.560749634203777,"true"
"image-keyboard-response",514,473543,"0.0-4.167-1.167","2y4vk1u1y0bf2wg",437,"120.csv","","null","resources/maskTrios/BBA3.jpg","null","",NA,NA,NA,NA,""
"image-keyboard-response",515,474745,"0.0-4.167-2.167","2y4vk1u1y0bf2wg",437,"120.csv","","null","resources/images/coin2.png","null","",NA,NA,NA,NA,""
"image-keyboard-response",516,474830,"0.0-4.168-0.168","2y4vk1u1y0bf2wg",437,"120.csv","","81.69999999925494","resources/trios/L1T2A3.jpg","37","restless",0.7,0.4,0.8,0.212070749231999,"true"
"image-keyboard-response",517,475234,"0.0-4.168-1.168","2y4vk1u1y0bf2wg",437,"120.csv","","null","resources/maskTrios/L1BB.jpg","null","",NA,NA,NA,NA,""
"image-keyboard-response",518,476438,"0.0-4.168-2.168","2y4vk1u1y0bf2wg",437,"120.csv","","null","resources/images/coin2.png","null","",NA,NA,NA,NA,""
"image-keyboard-response",519,476667,"0.0-4.169-0.169","2y4vk1u1y0bf2wg",437,"120.csv","","224.39999999850988","resources/trios/L1T2A3.jpg","37","restless",0.7,0.4,0.8,0.431369956622977,"true"
"image-keyboard-response",520,477069,"0.0-4.169-1.169","2y4vk1u1y0bf2wg",437,"120.csv","","null","resources/maskTrios/L1BB.jpg","null","",NA,NA,NA,NA,""
"image-keyboard-response",521,478273,"0.0-4.169-2.169","2y4vk1u1y0bf2wg",437,"120.csv","","null","resources/images/coin2.png","null","",NA,NA,NA,NA,""
"image-keyboard-response",522,478370,"0.0-4.170-0.170","2y4vk1u1y0bf2wg",437,"120.csv","","92.10000000149012","resources/trios/L1T2A3.jpg","39","restless",0.7,0.4,0.7,0.778941165338076,"false"
"image-keyboard-response",523,478774,"0.0-4.170-1.170","2y4vk1u1y0bf2wg",437,"120.csv","","null","resources/maskTrios/BBA3.jpg","null","",NA,NA,NA,NA,""
"image-keyboard-response",524,479977,"0.0-4.170-2.170","2y4vk1u1y0bf2wg",437,"120.csv","","null","resources/images/fishbone.png","null","",NA,NA,NA,NA,""
"image-keyboard-response",525,480661,"0.0-4.171-0.171","2y4vk1u1y0bf2wg",437,"120.csv","","678.8000000007451","resources/trios/L1T2A3.jpg","38","restless",0.7,0.4,0.7,0.448284655774621,"false"
"image-keyboard-response",526,481064,"0.0-4.171-1.171","2y4vk1u1y0bf2wg",437,"120.csv","","null","resources/maskTrios/BT2B.jpg","null","",NA,NA,NA,NA,""
"image-keyboard-response",527,482268,"0.0-4.171-2.171","2y4vk1u1y0bf2wg",437,"120.csv","","null","resources/images/fishbone.png","null","",NA,NA,NA,NA,""
"image-keyboard-response",528,482622,"0.0-4.172-0.172","2y4vk1u1y0bf2wg",437,"120.csv","","350","resources/trios/L1T2A3.jpg","37","restless",0.7,0.4,0.7,0.879629998785612,"false"
"image-keyboard-response",529,483026,"0.0-4.172-1.172","2y4vk1u1y0bf2wg",437,"120.csv","","null","resources/maskTrios/L1BB.jpg","null","",NA,NA,NA,NA,""
"image-keyboard-response",530,484229,"0.0-4.172-2.172","2y4vk1u1y0bf2wg",437,"120.csv","","null","resources/images/fishbone.png","null","",NA,NA,NA,NA,""
"image-keyboard-response",531,484385,"0.0-4.173-0.173","2y4vk1u1y0bf2wg",437,"120.csv","","151.19999999925494","resources/trios/L1T2A3.jpg","39","restless",0.7,0.4,0.7,0.390092404442057,"true"
"image-keyboard-response",532,484788,"0.0-4.173-1.173","2y4vk1u1y0bf2wg",437,"120.csv","","null","resources/maskTrios/BBA3.jpg","null","",NA,NA,NA,NA,""
"image-keyboard-response",533,485993,"0.0-4.173-2.173","2y4vk1u1y0bf2wg",437,"120.csv","","null","resources/images/coin2.png","null","",NA,NA,NA,NA,""
"image-keyboard-response",534,486298,"0.0-4.174-0.174","2y4vk1u1y0bf2wg",437,"120.csv","","301.1000000014901","resources/trios/L1T2A3.jpg","39","restless",0.7,0.4,0.7,0.34788725790733,"true"
"image-keyboard-response",535,486701,"0.0-4.174-1.174","2y4vk1u1y0bf2wg",437,"120.csv","","null","resources/maskTrios/BBA3.jpg","null","",NA,NA,NA,NA,""
"image-keyboard-response",536,487903,"0.0-4.174-2.174","2y4vk1u1y0bf2wg",437,"120.csv","","null","resources/images/coin2.png","null","",NA,NA,NA,NA,""
"image-keyboard-response",537,488109,"0.0-4.175-0.175","2y4vk1u1y0bf2wg",437,"120.csv","","203.19999999925494","resources/trios/L1T2A3.jpg","39","restless",0.6,0.4,0.7,0.526933886508846,"true"
"image-keyboard-response",538,488513,"0.0-4.175-1.175","2y4vk1u1y0bf2wg",437,"120.csv","","null","resources/maskTrios/BBA3.jpg","null","",NA,NA,NA,NA,""
"image-keyboard-response",539,489718,"0.0-4.175-2.175","2y4vk1u1y0bf2wg",437,"120.csv","","null","resources/images/coin2.png","null","",NA,NA,NA,NA,""
"image-keyboard-response",540,491711,"0.0-4.176-0.176","2y4vk1u1y0bf2wg",437,"120.csv","","1989.2999999970198","resources/trios/L1T2A3.jpg","38","restless",0.6,0.4,0.7,0.531795649392209,"false"
"image-keyboard-response",541,492116,"0.0-4.176-1.176","2y4vk1u1y0bf2wg",437,"120.csv","","null","resources/maskTrios/BT2B.jpg","null","",NA,NA,NA,NA,""
"image-keyboard-response",542,493320,"0.0-4.176-2.176","2y4vk1u1y0bf2wg",437,"120.csv","","null","resources/images/fishbone.png","null","",NA,NA,NA,NA,""
"image-keyboard-response",543,493362,"0.0-4.177-0.177","2y4vk1u1y0bf2wg",437,"120.csv","","38","resources/trios/L1T2A3.jpg","37","restless",0.6,0.4,0.8,0.157760076594742,"true"
"image-keyboard-response",544,493765,"0.0-4.177-1.177","2y4vk1u1y0bf2wg",437,"120.csv","","null","resources/maskTrios/L1BB.jpg","null","",NA,NA,NA,NA,""
"image-keyboard-response",545,494970,"0.0-4.177-2.177","2y4vk1u1y0bf2wg",437,"120.csv","","null","resources/images/coin2.png","null","",NA,NA,NA,NA,""
"image-keyboard-response",546,496834,"0.0-4.178-0.178","2y4vk1u1y0bf2wg",437,"120.csv","","1859.300000000745","resources/trios/L1T2A3.jpg","37","restless",0.6,0.4,0.8,0.174462378700851,"true"
"image-keyboard-response",547,497237,"0.0-4.178-1.178","2y4vk1u1y0bf2wg",437,"120.csv","","null","resources/maskTrios/L1BB.jpg","null","",NA,NA,NA,NA,""
"image-keyboard-response",548,498441,"0.0-4.178-2.178","2y4vk1u1y0bf2wg",437,"120.csv","","null","resources/images/coin2.png","null","",NA,NA,NA,NA,""
"image-keyboard-response",549,498714,"0.0-4.179-0.179","2y4vk1u1y0bf2wg",437,"120.csv","","270.0999999977648","resources/trios/L1T2A3.jpg","37","restless",0.6,0.4,0.8,0.349959220960631,"true"
"image-keyboard-response",550,499117,"0.0-4.179-1.179","2y4vk1u1y0bf2wg",437,"120.csv","","null","resources/maskTrios/L1BB.jpg","null","",NA,NA,NA,NA,""
"image-keyboard-response",551,500319,"0.0-4.179-2.179","2y4vk1u1y0bf2wg",437,"120.csv","","null","resources/images/coin2.png","null","",NA,NA,NA,NA,""
"image-keyboard-response",552,500522,"0.0-4.180-0.180","2y4vk1u1y0bf2wg",437,"120.csv","","201.39999999850988","resources/trios/L1T2A3.jpg","37","restless",0.6,0.4,0.7,0.522127929399691,"true"
"image-keyboard-response",553,500926,"0.0-4.180-1.180","2y4vk1u1y0bf2wg",437,"120.csv","","null","resources/maskTrios/L1BB.jpg","null","",NA,NA,NA,NA,""
"image-keyboard-response",554,502130,"0.0-4.180-2.180","2y4vk1u1y0bf2wg",437,"120.csv","","null","resources/images/coin2.png","null","",NA,NA,NA,NA,""
"image-keyboard-response",555,502403,"0.0-4.181-0.181","2y4vk1u1y0bf2wg",437,"120.csv","","268.79999999701977","resources/trios/L1T2A3.jpg","39","restless",0.5,0.4,0.7,0.329440896310949,"true"
"image-keyboard-response",556,502805,"0.0-4.181-1.181","2y4vk1u1y0bf2wg",437,"120.csv","","null","resources/maskTrios/BBA3.jpg","null","",NA,NA,NA,NA,""
"image-keyboard-response",557,504009,"0.0-4.181-2.181","2y4vk1u1y0bf2wg",437,"120.csv","","null","resources/images/coin2.png","null","",NA,NA,NA,NA,""
"image-keyboard-response",558,504208,"0.0-4.182-0.182","2y4vk1u1y0bf2wg",437,"120.csv","","194.30000000074506","resources/trios/L1T2A3.jpg","39","restless",0.5,0.4,0.7,0.48543797705477,"true"
"image-keyboard-response",559,504612,"0.0-4.182-1.182","2y4vk1u1y0bf2wg",437,"120.csv","","null","resources/maskTrios/BBA3.jpg","null","",NA,NA,NA,NA,""
"image-keyboard-response",560,505815,"0.0-4.182-2.182","2y4vk1u1y0bf2wg",437,"120.csv","","null","resources/images/coin2.png","null","",NA,NA,NA,NA,""
"image-keyboard-response",561,508621,"0.0-4.183-0.183","2y4vk1u1y0bf2wg",437,"120.csv","","2803.39999999851","resources/trios/L1T2A3.jpg","38","restless",0.5,0.4,0.7,0.687039759324936,"false"
"image-keyboard-response",562,509025,"0.0-4.183-1.183","2y4vk1u1y0bf2wg",437,"120.csv","","null","resources/maskTrios/BT2B.jpg","null","",NA,NA,NA,NA,""
"image-keyboard-response",563,510228,"0.0-4.183-2.183","2y4vk1u1y0bf2wg",437,"120.csv","","null","resources/images/fishbone.png","null","",NA,NA,NA,NA,""
"image-keyboard-response",564,516681,"0.0-4.184-0.184","2y4vk1u1y0bf2wg",437,"120.csv","","6449.300000000745","resources/trios/L1T2A3.jpg","39","restless",0.5,0.5,0.7,0.0173069121104057,"true"
"image-keyboard-response",565,517085,"0.0-4.184-1.184","2y4vk1u1y0bf2wg",437,"120.csv","","null","resources/maskTrios/BBA3.jpg","null","",NA,NA,NA,NA,""
"image-keyboard-response",566,518289,"0.0-4.184-2.184","2y4vk1u1y0bf2wg",437,"120.csv","","null","resources/images/coin2.png","null","",NA,NA,NA,NA,""
"image-keyboard-response",567,518576,"0.0-4.185-0.185","2y4vk1u1y0bf2wg",437,"120.csv","","283.19999999925494","resources/trios/L1T2A3.jpg","37","restless",0.5,0.5,0.7,0.455033273933339,"true"
"image-keyboard-response",568,518980,"0.0-4.185-1.185","2y4vk1u1y0bf2wg",437,"120.csv","","null","resources/maskTrios/L1BB.jpg","null","",NA,NA,NA,NA,""
"image-keyboard-response",569,520184,"0.0-4.185-2.185","2y4vk1u1y0bf2wg",437,"120.csv","","null","resources/images/coin2.png","null","",NA,NA,NA,NA,""
"image-keyboard-response",570,520231,"0.0-4.186-0.186","2y4vk1u1y0bf2wg",437,"120.csv","","44.5","resources/trios/L1T2A3.jpg","38","restless",0.5,0.6,0.7,0.0651914953979369,"true"
"image-keyboard-response",571,520634,"0.0-4.186-1.186","2y4vk1u1y0bf2wg",437,"120.csv","","null","resources/maskTrios/BT2B.jpg","null","",NA,NA,NA,NA,""
"image-keyboard-response",572,521837,"0.0-4.186-2.186","2y4vk1u1y0bf2wg",437,"120.csv","","null","resources/images/coin2.png","null","",NA,NA,NA,NA,""
"image-keyboard-response",573,522041,"0.0-4.187-0.187","2y4vk1u1y0bf2wg",437,"120.csv","","199.30000000074506","resources/trios/L1T2A3.jpg","37","restless",0.5,0.6,0.7,0.69069412855777,"false"
"image-keyboard-response",574,522445,"0.0-4.187-1.187","2y4vk1u1y0bf2wg",437,"120.csv","","null","resources/maskTrios/L1BB.jpg","null","",NA,NA,NA,NA,""
"image-keyboard-response",575,523648,"0.0-4.187-2.187","2y4vk1u1y0bf2wg",437,"120.csv","","null","resources/images/fishbone.png","null","",NA,NA,NA,NA,""
"image-keyboard-response",576,524031,"0.0-4.188-0.188","2y4vk1u1y0bf2wg",437,"120.csv","","379.70000000298023","resources/trios/L1T2A3.jpg","38","restless",0.5,0.6,0.7,0.796952762401037,"false"
"image-keyboard-response",577,524436,"0.0-4.188-1.188","2y4vk1u1y0bf2wg",437,"120.csv","","null","resources/maskTrios/BT2B.jpg","null","",NA,NA,NA,NA,""
"image-keyboard-response",578,525640,"0.0-4.188-2.188","2y4vk1u1y0bf2wg",437,"120.csv","","null","resources/images/fishbone.png","null","",NA,NA,NA,NA,""
"image-keyboard-response",579,525848,"0.0-4.189-0.189","2y4vk1u1y0bf2wg",437,"120.csv","","203.69999999925494","resources/trios/L1T2A3.jpg","37","restless",0.5,0.6,0.7,0.322885904406155,"true"
"image-keyboard-response",580,526251,"0.0-4.189-1.189","2y4vk1u1y0bf2wg",437,"120.csv","","null","resources/maskTrios/L1BB.jpg","null","",NA,NA,NA,NA,""
"image-keyboard-response",581,527455,"0.0-4.189-2.189","2y4vk1u1y0bf2wg",437,"120.csv","","null","resources/images/coin2.png","null","",NA,NA,NA,NA,""
"image-keyboard-response",582,529950,"0.0-4.190-0.190","2y4vk1u1y0bf2wg",437,"120.csv","","2492.2999999970198","resources/trios/L1T2A3.jpg","39","restless",0.5,0.6,0.7,0.728331156300266,"false"
"image-keyboard-response",583,530354,"0.0-4.190-1.190","2y4vk1u1y0bf2wg",437,"120.csv","","null","resources/maskTrios/BBA3.jpg","null","",NA,NA,NA,NA,""
"image-keyboard-response",584,531557,"0.0-4.190-2.190","2y4vk1u1y0bf2wg",437,"120.csv","","null","resources/images/fishbone.png","null","",NA,NA,NA,NA,""
"image-keyboard-response",585,539024,"0.0-4.191-0.191","2y4vk1u1y0bf2wg",437,"120.csv","","7463.699999999255","resources/trios/L1T2A3.jpg","39","restless",0.5,0.6,0.7,0.980750104312167,"false"
"image-keyboard-response",586,539428,"0.0-4.191-1.191","2y4vk1u1y0bf2wg",437,"120.csv","","null","resources/maskTrios/BBA3.jpg","null","",NA,NA,NA,NA,""
"image-keyboard-response",587,540632,"0.0-4.191-2.191","2y4vk1u1y0bf2wg",437,"120.csv","","null","resources/images/fishbone.png","null","",NA,NA,NA,NA,""
"image-keyboard-response",588,540818,"0.0-4.192-0.192","2y4vk1u1y0bf2wg",437,"120.csv","","183.80000000074506","resources/trios/L1T2A3.jpg","38","restless",0.5,0.6,0.7,0.810947367955186,"false"
"image-keyboard-response",589,541223,"0.0-4.192-1.192","2y4vk1u1y0bf2wg",437,"120.csv","","null","resources/maskTrios/BT2B.jpg","null","",NA,NA,NA,NA,""
"image-keyboard-response",590,542426,"0.0-4.192-2.192","2y4vk1u1y0bf2wg",437,"120.csv","","null","resources/images/fishbone.png","null","",NA,NA,NA,NA,""
"image-keyboard-response",591,542714,"0.0-4.193-0.193","2y4vk1u1y0bf2wg",437,"120.csv","","283.5","resources/trios/L1T2A3.jpg","37","restless",0.5,0.6,0.7,0.117473448219754,"true"
"image-keyboard-response",592,543118,"0.0-4.193-1.193","2y4vk1u1y0bf2wg",437,"120.csv","","null","resources/maskTrios/L1BB.jpg","null","",NA,NA,NA,NA,""
"image-keyboard-response",593,544322,"0.0-4.193-2.193","2y4vk1u1y0bf2wg",437,"120.csv","","null","resources/images/coin2.png","null","",NA,NA,NA,NA,""
"image-keyboard-response",594,544552,"0.0-4.194-0.194","2y4vk1u1y0bf2wg",437,"120.csv","","225.19999999925494","resources/trios/L1T2A3.jpg","37","restless",0.5,0.7,0.7,0.350892494632198,"true"
"image-keyboard-response",595,544954,"0.0-4.194-1.194","2y4vk1u1y0bf2wg",437,"120.csv","","null","resources/maskTrios/L1BB.jpg","null","",NA,NA,NA,NA,""
"image-keyboard-response",596,546159,"0.0-4.194-2.194","2y4vk1u1y0bf2wg",437,"120.csv","","null","resources/images/coin2.png","null","",NA,NA,NA,NA,""
"image-keyboard-response",597,546381,"0.0-4.195-0.195","2y4vk1u1y0bf2wg",437,"120.csv","","217.90000000223517","resources/trios/L1T2A3.jpg","39","restless",0.5,0.7,0.7,0.890111781178346,"false"
"image-keyboard-response",598,546786,"0.0-4.195-1.195","2y4vk1u1y0bf2wg",437,"120.csv","","null","resources/maskTrios/BBA3.jpg","null","",NA,NA,NA,NA,""
"image-keyboard-response",599,547989,"0.0-4.195-2.195","2y4vk1u1y0bf2wg",437,"120.csv","","null","resources/images/fishbone.png","null","",NA,NA,NA,NA,""
"image-keyboard-response",600,548232,"0.0-4.196-0.196","2y4vk1u1y0bf2wg",437,"120.csv","","240.80000000074506","resources/trios/L1T2A3.jpg","38","restless",0.6,0.7,0.7,0.42874924608666,"true"
"image-keyboard-response",601,548634,"0.0-4.196-1.196","2y4vk1u1y0bf2wg",437,"120.csv","","null","resources/maskTrios/BT2B.jpg","null","",NA,NA,NA,NA,""
"image-keyboard-response",602,549835,"0.0-4.196-2.196","2y4vk1u1y0bf2wg",437,"120.csv","","null","resources/images/coin2.png","null","",NA,NA,NA,NA,""
"image-keyboard-response",603,550711,"0.0-4.197-0.197","2y4vk1u1y0bf2wg",437,"120.csv","","873.5","resources/trios/L1T2A3.jpg","38","restless",0.6,0.8,0.7,0.176817883979499,"true"
"image-keyboard-response",604,551114,"0.0-4.197-1.197","2y4vk1u1y0bf2wg",437,"120.csv","","null","resources/maskTrios/BT2B.jpg","null","",NA,NA,NA,NA,""
"image-keyboard-response",605,552319,"0.0-4.197-2.197","2y4vk1u1y0bf2wg",437,"120.csv","","null","resources/images/coin2.png","null","",NA,NA,NA,NA,""
"image-keyboard-response",606,552708,"0.0-4.198-0.198","2y4vk1u1y0bf2wg",437,"120.csv","","385.8999999985099","resources/trios/L1T2A3.jpg","38","restless",0.6,0.8,0.7,0.417442128865203,"true"
"image-keyboard-response",607,553110,"0.0-4.198-1.198","2y4vk1u1y0bf2wg",437,"120.csv","","null","resources/maskTrios/BT2B.jpg","null","",NA,NA,NA,NA,""
"image-keyboard-response",608,554315,"0.0-4.198-2.198","2y4vk1u1y0bf2wg",437,"120.csv","","null","resources/images/coin2.png","null","",NA,NA,NA,NA,""
