"trial_type","trial_index","time_elapsed","internal_node_id","subject","participantCode","walkNumber","success","rt","stimulus","key_press","test_part","leftProb","midProb","rightProb","generatedNum","correct"
"pavlovia",0,1028,"0.0-0.0","tno68m877079aw8",593,"181.csv","","","","","",NA,NA,NA,NA,""
"fullscreen",1,3372,"0.0-1.0","tno68m877079aw8",593,"181.csv","true","","","","",NA,NA,NA,NA,""
"survey-html-form",2,8430,"0.0-2.0","tno68m877079aw8",593,"181.csv","","5054.900000095367","","","",NA,NA,NA,NA,""
"image-keyboard-response",3,21241,"0.0-3.0-0.0","tno68m877079aw8",593,"181.csv","","12810.399999856949","resources/images/parrot_nobg.png","13","",NA,NA,NA,NA,""
"image-keyboard-response",4,24248,"0.0-3.0-1.0","tno68m877079aw8",593,"181.csv","","null","resources/image_sets/111.png","null","",NA,NA,NA,NA,""
"image-keyboard-response",5,26714,"0.0-3.0-2.0","tno68m877079aw8",593,"181.csv","","2465.5999999046326","resources/image_sets/left_highlight.png","37","",NA,NA,NA,NA,""
"image-keyboard-response",6,27827,"0.0-3.0-3.0","tno68m877079aw8",593,"181.csv","","1112.2000000476837","resources/image_sets/mid_highlight.png","38","",NA,NA,NA,NA,""
"image-keyboard-response",7,28417,"0.0-3.0-4.0","tno68m877079aw8",593,"181.csv","","588.5","resources/image_sets/right_highlight.png","39","",NA,NA,NA,NA,""
"image-keyboard-response",8,30931,"0.0-3.0-5.0","tno68m877079aw8",593,"181.csv","","2513.800000190735","resources/image_sets/111.png","13","",NA,NA,NA,NA,""
"image-keyboard-response",9,32575,"0.0-3.0-6.0","tno68m877079aw8",593,"181.csv","","1644","resources/images/coin2.png","13","",NA,NA,NA,NA,""
"image-keyboard-response",10,33670,"0.0-3.0-7.0","tno68m877079aw8",593,"181.csv","","1094.7000000476837","resources/images/fishbone.png","13","",NA,NA,NA,NA,""
"html-keyboard-response",11,37566,"0.0-3.0-8.0","tno68m877079aw8",593,"181.csv","","3895.2000000476837","<p>You can track your coin total on the top right of your screen. </p><p>At the end of your journey you will be directed to a survey, so please click on the link before exiting the task</p><p>Press Enter to begin</p>","13","",NA,NA,NA,NA,""
"image-keyboard-response",12,39765,"0.0-4.0-0.0","tno68m877079aw8",593,"181.csv","","2198.2999999523163","resources/trios/L1T2A2.jpg","37","restless",0.3,0.7,0.9,0.292813680682791,"true"
"image-keyboard-response",13,40183,"0.0-4.0-1.0","tno68m877079aw8",593,"181.csv","","null","resources/maskTrios/L1BB.jpg","null","",NA,NA,NA,NA,""
"image-keyboard-response",14,41403,"0.0-4.0-2.0","tno68m877079aw8",593,"181.csv","","null","resources/images/coin2.png","null","",NA,NA,NA,NA,""
"image-keyboard-response",15,41960,"0.0-4.1-0.1","tno68m877079aw8",593,"181.csv","","553.5","resources/trios/L1T2A2.jpg","37","restless",0.3,0.7,0.9,0.642777670760345,"false"
"image-keyboard-response",16,42376,"0.0-4.1-1.1","tno68m877079aw8",593,"181.csv","","null","resources/maskTrios/L1BB.jpg","null","",NA,NA,NA,NA,""
"image-keyboard-response",17,43584,"0.0-4.1-2.1","tno68m877079aw8",593,"181.csv","","null","resources/images/fishbone.png","null","",NA,NA,NA,NA,""
"image-keyboard-response",18,44157,"0.0-4.2-0.2","tno68m877079aw8",593,"181.csv","","570.2000000476837","resources/trios/L1T2A2.jpg","37","restless",0.3,0.7,0.9,0.193986570270884,"true"
"image-keyboard-response",19,44570,"0.0-4.2-1.2","tno68m877079aw8",593,"181.csv","","null","resources/maskTrios/L1BB.jpg","null","",NA,NA,NA,NA,""
"image-keyboard-response",20,45777,"0.0-4.2-2.2","tno68m877079aw8",593,"181.csv","","null","resources/images/coin2.png","null","",NA,NA,NA,NA,""
"image-keyboard-response",21,46217,"0.0-4.3-0.3","tno68m877079aw8",593,"181.csv","","438.10000014305115","resources/trios/L1T2A2.jpg","37","restless",0.2,0.7,0.9,0.756491450732273,"false"
"image-keyboard-response",22,46630,"0.0-4.3-1.3","tno68m877079aw8",593,"181.csv","","null","resources/maskTrios/L1BB.jpg","null","",NA,NA,NA,NA,""
"image-keyboard-response",23,47846,"0.0-4.3-2.3","tno68m877079aw8",593,"181.csv","","null","resources/images/fishbone.png","null","",NA,NA,NA,NA,""
"image-keyboard-response",24,48291,"0.0-4.4-0.4","tno68m877079aw8",593,"181.csv","","443.09999990463257","resources/trios/L1T2A2.jpg","37","restless",0.2,0.7,0.9,0.000720621768838248,"true"
"image-keyboard-response",25,48698,"0.0-4.4-1.4","tno68m877079aw8",593,"181.csv","","null","resources/maskTrios/L1BB.jpg","null","",NA,NA,NA,NA,""
"image-keyboard-response",26,49902,"0.0-4.4-2.4","tno68m877079aw8",593,"181.csv","","null","resources/images/coin2.png","null","",NA,NA,NA,NA,""
"image-keyboard-response",27,50293,"0.0-4.5-0.5","tno68m877079aw8",593,"181.csv","","390.7999999523163","resources/trios/L1T2A2.jpg","37","restless",0.2,0.7,0.9,0.427650572220092,"false"
"image-keyboard-response",28,50700,"0.0-4.5-1.5","tno68m877079aw8",593,"181.csv","","null","resources/maskTrios/L1BB.jpg","null","",NA,NA,NA,NA,""
"image-keyboard-response",29,51910,"0.0-4.5-2.5","tno68m877079aw8",593,"181.csv","","null","resources/images/fishbone.png","null","",NA,NA,NA,NA,""
"image-keyboard-response",30,52301,"0.0-4.6-0.6","tno68m877079aw8",593,"181.csv","","388.90000009536743","resources/trios/L1T2A2.jpg","37","restless",0.2,0.7,0.9,0.0401220121309203,"true"
"image-keyboard-response",31,52718,"0.0-4.6-1.6","tno68m877079aw8",593,"181.csv","","null","resources/maskTrios/L1BB.jpg","null","",NA,NA,NA,NA,""
"image-keyboard-response",32,53924,"0.0-4.6-2.6","tno68m877079aw8",593,"181.csv","","null","resources/images/coin2.png","null","",NA,NA,NA,NA,""
"image-keyboard-response",33,54321,"0.0-4.7-0.7","tno68m877079aw8",593,"181.csv","","394.5","resources/trios/L1T2A2.jpg","38","restless",0.2,0.7,0.9,0.709848477739045,"false"
"image-keyboard-response",34,54727,"0.0-4.7-1.7","tno68m877079aw8",593,"181.csv","","null","resources/maskTrios/BT2B.jpg","null","",NA,NA,NA,NA,""
"image-keyboard-response",35,55930,"0.0-4.7-2.7","tno68m877079aw8",593,"181.csv","","null","resources/images/fishbone.png","null","",NA,NA,NA,NA,""
"image-keyboard-response",36,56300,"0.0-4.8-0.8","tno68m877079aw8",593,"181.csv","","369.2999999523163","resources/trios/L1T2A2.jpg","37","restless",0.2,0.7,0.9,0.19421145996758,"true"
"image-keyboard-response",37,56716,"0.0-4.8-1.8","tno68m877079aw8",593,"181.csv","","null","resources/maskTrios/L1BB.jpg","null","",NA,NA,NA,NA,""
"image-keyboard-response",38,57921,"0.0-4.8-2.8","tno68m877079aw8",593,"181.csv","","null","resources/images/coin2.png","null","",NA,NA,NA,NA,""
"image-keyboard-response",39,58238,"0.0-4.9-0.9","tno68m877079aw8",593,"181.csv","","315.7999999523163","resources/trios/L1T2A2.jpg","39","restless",0.3,0.6,0.9,0.223821742163681,"true"
"image-keyboard-response",40,58642,"0.0-4.9-1.9","tno68m877079aw8",593,"181.csv","","null","resources/maskTrios/BBA2.jpg","null","",NA,NA,NA,NA,""
"image-keyboard-response",41,59852,"0.0-4.9-2.9","tno68m877079aw8",593,"181.csv","","null","resources/images/coin2.png","null","",NA,NA,NA,NA,""
"image-keyboard-response",42,60109,"0.0-4.10-0.10","tno68m877079aw8",593,"181.csv","","256","resources/trios/L1T2A2.jpg","37","restless",0.4,0.6,0.9,0.325657554457476,"true"
"image-keyboard-response",43,60515,"0.0-4.10-1.10","tno68m877079aw8",593,"181.csv","","null","resources/maskTrios/L1BB.jpg","null","",NA,NA,NA,NA,""
"image-keyboard-response",44,61727,"0.0-4.10-2.10","tno68m877079aw8",593,"181.csv","","null","resources/images/coin2.png","null","",NA,NA,NA,NA,""
"image-keyboard-response",45,61783,"0.0-4.11-0.11","tno68m877079aw8",593,"181.csv","","55","resources/trios/L1T2A2.jpg","39","restless",0.4,0.6,0.9,0.227684169603535,"true"
"image-keyboard-response",46,62199,"0.0-4.11-1.11","tno68m877079aw8",593,"181.csv","","null","resources/maskTrios/BBA2.jpg","null","",NA,NA,NA,NA,""
"image-keyboard-response",47,63404,"0.0-4.11-2.11","tno68m877079aw8",593,"181.csv","","null","resources/images/coin2.png","null","",NA,NA,NA,NA,""
"image-keyboard-response",48,63814,"0.0-4.12-0.12","tno68m877079aw8",593,"181.csv","","410.09999990463257","resources/trios/L1T2A2.jpg","37","restless",0.4,0.6,0.9,0.163389396500412,"true"
"image-keyboard-response",49,64220,"0.0-4.12-1.12","tno68m877079aw8",593,"181.csv","","null","resources/maskTrios/L1BB.jpg","null","",NA,NA,NA,NA,""
"image-keyboard-response",50,65431,"0.0-4.12-2.12","tno68m877079aw8",593,"181.csv","","null","resources/images/coin2.png","null","",NA,NA,NA,NA,""
"image-keyboard-response",51,65696,"0.0-4.13-0.13","tno68m877079aw8",593,"181.csv","","264.2000000476837","resources/trios/L1T2A2.jpg","39","restless",0.4,0.6,0.9,0.297350162725596,"true"
"image-keyboard-response",52,66100,"0.0-4.13-1.13","tno68m877079aw8",593,"181.csv","","null","resources/maskTrios/BBA2.jpg","null","",NA,NA,NA,NA,""
"image-keyboard-response",53,67310,"0.0-4.13-2.13","tno68m877079aw8",593,"181.csv","","null","resources/images/coin2.png","null","",NA,NA,NA,NA,""
"image-keyboard-response",54,67515,"0.0-4.14-0.14","tno68m877079aw8",593,"181.csv","","204.29999995231628","resources/trios/L1T2A2.jpg","37","restless",0.4,0.6,0.9,0.282254889187881,"true"
"image-keyboard-response",55,67920,"0.0-4.14-1.14","tno68m877079aw8",593,"181.csv","","null","resources/maskTrios/L1BB.jpg","null","",NA,NA,NA,NA,""
"image-keyboard-response",56,69136,"0.0-4.14-2.14","tno68m877079aw8",593,"181.csv","","null","resources/images/coin2.png","null","",NA,NA,NA,NA,""
"image-keyboard-response",57,69367,"0.0-4.15-0.15","tno68m877079aw8",593,"181.csv","","228","resources/trios/L1T2A2.jpg","39","restless",0.4,0.6,0.9,0.286565916441233,"true"
"image-keyboard-response",58,69780,"0.0-4.15-1.15","tno68m877079aw8",593,"181.csv","","null","resources/maskTrios/BBA2.jpg","null","",NA,NA,NA,NA,""
"image-keyboard-response",59,70981,"0.0-4.15-2.15","tno68m877079aw8",593,"181.csv","","null","resources/images/coin2.png","null","",NA,NA,NA,NA,""
"image-keyboard-response",60,71202,"0.0-4.16-0.16","tno68m877079aw8",593,"181.csv","","220.20000004768372","resources/trios/L1T2A2.jpg","37","restless",0.4,0.6,0.9,0.811879898598856,"false"
"image-keyboard-response",61,71613,"0.0-4.16-1.16","tno68m877079aw8",593,"181.csv","","null","resources/maskTrios/L1BB.jpg","null","",NA,NA,NA,NA,""
"image-keyboard-response",62,72816,"0.0-4.16-2.16","tno68m877079aw8",593,"181.csv","","null","resources/images/fishbone.png","null","",NA,NA,NA,NA,""
"image-keyboard-response",63,73045,"0.0-4.17-0.17","tno68m877079aw8",593,"181.csv","","229","resources/trios/L1T2A2.jpg","39","restless",0.4,0.6,0.9,0.00519657134386131,"true"
"image-keyboard-response",64,73460,"0.0-4.17-1.17","tno68m877079aw8",593,"181.csv","","null","resources/maskTrios/BBA2.jpg","null","",NA,NA,NA,NA,""
"image-keyboard-response",65,74666,"0.0-4.17-2.17","tno68m877079aw8",593,"181.csv","","null","resources/images/coin2.png","null","",NA,NA,NA,NA,""
"image-keyboard-response",66,75127,"0.0-4.18-0.18","tno68m877079aw8",593,"181.csv","","459.7999999523163","resources/trios/L1T2A2.jpg","37","restless",0.4,0.6,0.9,0.447998586435128,"false"
"image-keyboard-response",67,75536,"0.0-4.18-1.18","tno68m877079aw8",593,"181.csv","","null","resources/maskTrios/L1BB.jpg","null","",NA,NA,NA,NA,""
"image-keyboard-response",68,76746,"0.0-4.18-2.18","tno68m877079aw8",593,"181.csv","","null","resources/images/fishbone.png","null","",NA,NA,NA,NA,""
"image-keyboard-response",69,77059,"0.0-4.19-0.19","tno68m877079aw8",593,"181.csv","","310.2000000476837","resources/trios/L1T2A2.jpg","39","restless",0.4,0.6,0.9,0.699601973680724,"true"
"image-keyboard-response",70,77469,"0.0-4.19-1.19","tno68m877079aw8",593,"181.csv","","null","resources/maskTrios/BBA2.jpg","null","",NA,NA,NA,NA,""
"image-keyboard-response",71,78682,"0.0-4.19-2.19","tno68m877079aw8",593,"181.csv","","null","resources/images/coin2.png","null","",NA,NA,NA,NA,""
"image-keyboard-response",72,78936,"0.0-4.20-0.20","tno68m877079aw8",593,"181.csv","","252.60000014305115","resources/trios/L1T2A2.jpg","38","restless",0.5,0.6,0.9,0.371573599290961,"true"
"image-keyboard-response",73,79346,"0.0-4.20-1.20","tno68m877079aw8",593,"181.csv","","null","resources/maskTrios/BT2B.jpg","null","",NA,NA,NA,NA,""
"image-keyboard-response",74,80550,"0.0-4.20-2.20","tno68m877079aw8",593,"181.csv","","null","resources/images/coin2.png","null","",NA,NA,NA,NA,""
"image-keyboard-response",75,80768,"0.0-4.21-0.21","tno68m877079aw8",593,"181.csv","","216.10000014305115","resources/trios/L1T2A2.jpg","39","restless",0.5,0.6,0.9,0.986535112421344,"false"
"image-keyboard-response",76,81179,"0.0-4.21-1.21","tno68m877079aw8",593,"181.csv","","null","resources/maskTrios/BBA2.jpg","null","",NA,NA,NA,NA,""
"image-keyboard-response",77,82392,"0.0-4.21-2.21","tno68m877079aw8",593,"181.csv","","null","resources/images/fishbone.png","null","",NA,NA,NA,NA,""
"image-keyboard-response",78,82709,"0.0-4.22-0.22","tno68m877079aw8",593,"181.csv","","314.7999999523163","resources/trios/L1T2A2.jpg","38","restless",0.5,0.6,0.8,0.484174251269052,"true"
"image-keyboard-response",79,83114,"0.0-4.22-1.22","tno68m877079aw8",593,"181.csv","","null","resources/maskTrios/BT2B.jpg","null","",NA,NA,NA,NA,""
"image-keyboard-response",80,84324,"0.0-4.22-2.22","tno68m877079aw8",593,"181.csv","","null","resources/images/coin2.png","null","",NA,NA,NA,NA,""
"image-keyboard-response",81,84563,"0.0-4.23-0.23","tno68m877079aw8",593,"181.csv","","236.80000019073486","resources/trios/L1T2A2.jpg","37","restless",0.5,0.6,0.8,0.934375465162752,"false"
"image-keyboard-response",82,84964,"0.0-4.23-1.23","tno68m877079aw8",593,"181.csv","","null","resources/maskTrios/L1BB.jpg","null","",NA,NA,NA,NA,""
"image-keyboard-response",83,86168,"0.0-4.23-2.23","tno68m877079aw8",593,"181.csv","","null","resources/images/fishbone.png","null","",NA,NA,NA,NA,""
"image-keyboard-response",84,86444,"0.0-4.24-0.24","tno68m877079aw8",593,"181.csv","","276","resources/trios/L1T2A2.jpg","38","restless",0.5,0.6,0.7,0.0922645243217233,"true"
"image-keyboard-response",85,86861,"0.0-4.24-1.24","tno68m877079aw8",593,"181.csv","","null","resources/maskTrios/BT2B.jpg","null","",NA,NA,NA,NA,""
"image-keyboard-response",86,88067,"0.0-4.24-2.24","tno68m877079aw8",593,"181.csv","","null","resources/images/coin2.png","null","",NA,NA,NA,NA,""
"image-keyboard-response",87,88324,"0.0-4.25-0.25","tno68m877079aw8",593,"181.csv","","254.80000019073486","resources/trios/L1T2A2.jpg","39","restless",0.4,0.6,0.7,0.473621135005479,"true"
"image-keyboard-response",88,88729,"0.0-4.25-1.25","tno68m877079aw8",593,"181.csv","","null","resources/maskTrios/BBA2.jpg","null","",NA,NA,NA,NA,""
"image-keyboard-response",89,89930,"0.0-4.25-2.25","tno68m877079aw8",593,"181.csv","","null","resources/images/coin2.png","null","",NA,NA,NA,NA,""
"image-keyboard-response",90,90182,"0.0-4.26-0.26","tno68m877079aw8",593,"181.csv","","249.40000009536743","resources/trios/L1T2A2.jpg","38","restless",0.4,0.6,0.7,0.120222600674801,"true"
"image-keyboard-response",91,90590,"0.0-4.26-1.26","tno68m877079aw8",593,"181.csv","","null","resources/maskTrios/BT2B.jpg","null","",NA,NA,NA,NA,""
"image-keyboard-response",92,91807,"0.0-4.26-2.26","tno68m877079aw8",593,"181.csv","","null","resources/images/coin2.png","null","",NA,NA,NA,NA,""
"image-keyboard-response",93,91962,"0.0-4.27-0.27","tno68m877079aw8",593,"181.csv","","153.20000004768372","resources/trios/L1T2A2.jpg","39","restless",0.4,0.6,0.7,0.705336132216366,"false"
"image-keyboard-response",94,92374,"0.0-4.27-1.27","tno68m877079aw8",593,"181.csv","","null","resources/maskTrios/BBA2.jpg","null","",NA,NA,NA,NA,""
"image-keyboard-response",95,93590,"0.0-4.27-2.27","tno68m877079aw8",593,"181.csv","","null","resources/images/fishbone.png","null","",NA,NA,NA,NA,""
"image-keyboard-response",96,93852,"0.0-4.28-0.28","tno68m877079aw8",593,"181.csv","","261.2000000476837","resources/trios/L1T2A2.jpg","38","restless",0.4,0.6,0.7,0.0381469980420004,"true"
"image-keyboard-response",97,94266,"0.0-4.28-1.28","tno68m877079aw8",593,"181.csv","","null","resources/maskTrios/BT2B.jpg","null","",NA,NA,NA,NA,""
"image-keyboard-response",98,95470,"0.0-4.28-2.28","tno68m877079aw8",593,"181.csv","","null","resources/images/coin2.png","null","",NA,NA,NA,NA,""
"image-keyboard-response",99,95644,"0.0-4.29-0.29","tno68m877079aw8",593,"181.csv","","173.09999990463257","resources/trios/L1T2A2.jpg","37","restless",0.4,0.6,0.7,0.778845692931778,"false"
"image-keyboard-response",100,96048,"0.0-4.29-1.29","tno68m877079aw8",593,"181.csv","","null","resources/maskTrios/L1BB.jpg","null","",NA,NA,NA,NA,""
"image-keyboard-response",101,97262,"0.0-4.29-2.29","tno68m877079aw8",593,"181.csv","","null","resources/images/fishbone.png","null","",NA,NA,NA,NA,""
"image-keyboard-response",102,97630,"0.0-4.30-0.30","tno68m877079aw8",593,"181.csv","","365.2999999523163","resources/trios/L1T2A2.jpg","38","restless",0.4,0.6,0.7,0.0582628227722877,"true"
"image-keyboard-response",103,98037,"0.0-4.30-1.30","tno68m877079aw8",593,"181.csv","","null","resources/maskTrios/BT2B.jpg","null","",NA,NA,NA,NA,""
"image-keyboard-response",104,99249,"0.0-4.30-2.30","tno68m877079aw8",593,"181.csv","","null","resources/images/coin2.png","null","",NA,NA,NA,NA,""
"image-keyboard-response",105,99493,"0.0-4.31-0.31","tno68m877079aw8",593,"181.csv","","241.90000009536743","resources/trios/L1T2A2.jpg","39","restless",0.4,0.6,0.7,0.464778965811012,"true"
"image-keyboard-response",106,99902,"0.0-4.31-1.31","tno68m877079aw8",593,"181.csv","","null","resources/maskTrios/BBA2.jpg","null","",NA,NA,NA,NA,""
"image-keyboard-response",107,101106,"0.0-4.31-2.31","tno68m877079aw8",593,"181.csv","","null","resources/images/coin2.png","null","",NA,NA,NA,NA,""
"image-keyboard-response",108,101391,"0.0-4.32-0.32","tno68m877079aw8",593,"181.csv","","281.90000009536743","resources/trios/L1T2A2.jpg","38","restless",0.4,0.7,0.7,0.699619728341568,"true"
"image-keyboard-response",109,101802,"0.0-4.32-1.32","tno68m877079aw8",593,"181.csv","","null","resources/maskTrios/BT2B.jpg","null","",NA,NA,NA,NA,""
"image-keyboard-response",110,103020,"0.0-4.32-2.32","tno68m877079aw8",593,"181.csv","","null","resources/images/coin2.png","null","",NA,NA,NA,NA,""
"image-keyboard-response",111,103214,"0.0-4.33-0.33","tno68m877079aw8",593,"181.csv","","193","resources/trios/L1T2A2.jpg","39","restless",0.4,0.7,0.7,0.286486704529303,"true"
"image-keyboard-response",112,103628,"0.0-4.33-1.33","tno68m877079aw8",593,"181.csv","","null","resources/maskTrios/BBA2.jpg","null","",NA,NA,NA,NA,""
"image-keyboard-response",113,104836,"0.0-4.33-2.33","tno68m877079aw8",593,"181.csv","","null","resources/images/coin2.png","null","",NA,NA,NA,NA,""
"image-keyboard-response",114,105088,"0.0-4.34-0.34","tno68m877079aw8",593,"181.csv","","249.20000004768372","resources/trios/L1T2A2.jpg","38","restless",0.4,0.7,0.7,0.673106191765403,"true"
"image-keyboard-response",115,105500,"0.0-4.34-1.34","tno68m877079aw8",593,"181.csv","","null","resources/maskTrios/BT2B.jpg","null","",NA,NA,NA,NA,""
"image-keyboard-response",116,106712,"0.0-4.34-2.34","tno68m877079aw8",593,"181.csv","","null","resources/images/coin2.png","null","",NA,NA,NA,NA,""
"image-keyboard-response",117,106938,"0.0-4.35-0.35","tno68m877079aw8",593,"181.csv","","225.09999990463257","resources/trios/L1T2A2.jpg","39","restless",0.4,0.7,0.7,0.00460953959807942,"true"
"image-keyboard-response",118,107342,"0.0-4.35-1.35","tno68m877079aw8",593,"181.csv","","null","resources/maskTrios/BBA2.jpg","null","",NA,NA,NA,NA,""
"image-keyboard-response",119,108552,"0.0-4.35-2.35","tno68m877079aw8",593,"181.csv","","null","resources/images/coin2.png","null","",NA,NA,NA,NA,""
"image-keyboard-response",120,108771,"0.0-4.36-0.36","tno68m877079aw8",593,"181.csv","","218.20000004768372","resources/trios/L1T2A2.jpg","38","restless",0.3,0.7,0.6,0.611189228840282,"true"
"image-keyboard-response",121,109182,"0.0-4.36-1.36","tno68m877079aw8",593,"181.csv","","null","resources/maskTrios/BT2B.jpg","null","",NA,NA,NA,NA,""
"image-keyboard-response",122,110400,"0.0-4.36-2.36","tno68m877079aw8",593,"181.csv","","null","resources/images/coin2.png","null","",NA,NA,NA,NA,""
"image-keyboard-response",123,110621,"0.0-4.37-0.37","tno68m877079aw8",593,"181.csv","","220.10000014305115","resources/trios/L1T2A2.jpg","39","restless",0.3,0.7,0.6,0.962045825367303,"false"
"image-keyboard-response",124,111032,"0.0-4.37-1.37","tno68m877079aw8",593,"181.csv","","null","resources/maskTrios/BBA2.jpg","null","",NA,NA,NA,NA,""
"image-keyboard-response",125,112234,"0.0-4.37-2.37","tno68m877079aw8",593,"181.csv","","null","resources/images/fishbone.png","null","",NA,NA,NA,NA,""
"image-keyboard-response",126,112464,"0.0-4.38-0.38","tno68m877079aw8",593,"181.csv","","226.80000019073486","resources/trios/L1T2A2.jpg","38","restless",0.3,0.7,0.6,0.616959025042689,"true"
"image-keyboard-response",127,112874,"0.0-4.38-1.38","tno68m877079aw8",593,"181.csv","","null","resources/maskTrios/BT2B.jpg","null","",NA,NA,NA,NA,""
"image-keyboard-response",128,114081,"0.0-4.38-2.38","tno68m877079aw8",593,"181.csv","","null","resources/images/coin2.png","null","",NA,NA,NA,NA,""
"image-keyboard-response",129,114203,"0.0-4.39-0.39","tno68m877079aw8",593,"181.csv","","121.5","resources/trios/L1T2A2.jpg","37","restless",0.3,0.7,0.6,0.236831088463747,"true"
"image-keyboard-response",130,114620,"0.0-4.39-1.39","tno68m877079aw8",593,"181.csv","","null","resources/maskTrios/L1BB.jpg","null","",NA,NA,NA,NA,""
"image-keyboard-response",131,115826,"0.0-4.39-2.39","tno68m877079aw8",593,"181.csv","","null","resources/images/coin2.png","null","",NA,NA,NA,NA,""
"image-keyboard-response",132,116040,"0.0-4.40-0.40","tno68m877079aw8",593,"181.csv","","211.70000004768372","resources/trios/L1T2A2.jpg","38","restless",0.3,0.7,0.5,0.0250344112909899,"true"
"image-keyboard-response",133,116448,"0.0-4.40-1.40","tno68m877079aw8",593,"181.csv","","null","resources/maskTrios/BT2B.jpg","null","",NA,NA,NA,NA,""
"image-keyboard-response",134,117651,"0.0-4.40-2.40","tno68m877079aw8",593,"181.csv","","null","resources/images/coin2.png","null","",NA,NA,NA,NA,""
"image-keyboard-response",135,117742,"0.0-4.41-0.41","tno68m877079aw8",593,"181.csv","","90.19999980926514","resources/trios/L1T2A2.jpg","37","restless",0.3,0.7,0.5,0.266857339683954,"true"
"image-keyboard-response",136,118148,"0.0-4.41-1.41","tno68m877079aw8",593,"181.csv","","null","resources/maskTrios/L1BB.jpg","null","",NA,NA,NA,NA,""
"image-keyboard-response",137,119358,"0.0-4.41-2.41","tno68m877079aw8",593,"181.csv","","null","resources/images/coin2.png","null","",NA,NA,NA,NA,""
"image-keyboard-response",138,119578,"0.0-4.42-0.42","tno68m877079aw8",593,"181.csv","","218.29999995231628","resources/trios/L1T2A2.jpg","38","restless",0.3,0.7,0.5,0.360161123571458,"true"
"image-keyboard-response",139,119987,"0.0-4.42-1.42","tno68m877079aw8",593,"181.csv","","null","resources/maskTrios/BT2B.jpg","null","",NA,NA,NA,NA,""
"image-keyboard-response",140,121190,"0.0-4.42-2.42","tno68m877079aw8",593,"181.csv","","null","resources/images/coin2.png","null","",NA,NA,NA,NA,""
"image-keyboard-response",141,121421,"0.0-4.43-0.43","tno68m877079aw8",593,"181.csv","","230.60000014305115","resources/trios/L1T2A2.jpg","37","restless",0.4,0.7,0.5,0.710349977887896,"false"
"image-keyboard-response",142,121829,"0.0-4.43-1.43","tno68m877079aw8",593,"181.csv","","null","resources/maskTrios/L1BB.jpg","null","",NA,NA,NA,NA,""
"image-keyboard-response",143,123042,"0.0-4.43-2.43","tno68m877079aw8",593,"181.csv","","null","resources/images/fishbone.png","null","",NA,NA,NA,NA,""
"image-keyboard-response",144,123263,"0.0-4.44-0.44","tno68m877079aw8",593,"181.csv","","218.70000004768372","resources/trios/L1T2A2.jpg","38","restless",0.4,0.7,0.5,0.0794158372321618,"true"
"image-keyboard-response",145,123664,"0.0-4.44-1.44","tno68m877079aw8",593,"181.csv","","null","resources/maskTrios/BT2B.jpg","null","",NA,NA,NA,NA,""
"image-keyboard-response",146,124878,"0.0-4.44-2.44","tno68m877079aw8",593,"181.csv","","null","resources/images/coin2.png","null","",NA,NA,NA,NA,""
"image-keyboard-response",147,124883,"0.0-4.45-0.45","tno68m877079aw8",593,"181.csv","","4.6000001430511475","resources/trios/L1T2A2.jpg","39","restless",0.4,0.7,0.5,0.763459255743929,"false"
"image-keyboard-response",148,125295,"0.0-4.45-1.45","tno68m877079aw8",593,"181.csv","","null","resources/maskTrios/BBA2.jpg","null","",NA,NA,NA,NA,""
"image-keyboard-response",149,126502,"0.0-4.45-2.45","tno68m877079aw8",593,"181.csv","","null","resources/images/fishbone.png","null","",NA,NA,NA,NA,""
"image-keyboard-response",150,126608,"0.0-4.46-0.46","tno68m877079aw8",593,"181.csv","","103.70000004768372","resources/trios/L1T2A2.jpg","38","restless",0.4,0.7,0.5,0.509533629834512,"true"
"image-keyboard-response",151,127022,"0.0-4.46-1.46","tno68m877079aw8",593,"181.csv","","null","resources/maskTrios/BT2B.jpg","null","",NA,NA,NA,NA,""
"image-keyboard-response",152,128224,"0.0-4.46-2.46","tno68m877079aw8",593,"181.csv","","null","resources/images/coin2.png","null","",NA,NA,NA,NA,""
"image-keyboard-response",153,128313,"0.0-4.47-0.47","tno68m877079aw8",593,"181.csv","","88","resources/trios/L1T2A2.jpg","37","restless",0.4,0.7,0.5,0.905401899288779,"false"
"image-keyboard-response",154,128720,"0.0-4.47-1.47","tno68m877079aw8",593,"181.csv","","null","resources/maskTrios/L1BB.jpg","null","",NA,NA,NA,NA,""
"image-keyboard-response",155,129936,"0.0-4.47-2.47","tno68m877079aw8",593,"181.csv","","null","resources/images/fishbone.png","null","",NA,NA,NA,NA,""
"image-keyboard-response",156,129951,"0.0-4.48-0.48","tno68m877079aw8",593,"181.csv","","14.200000047683716","resources/trios/L1T2A2.jpg","38","restless",0.4,0.7,0.5,0.5805663517978,"true"
"image-keyboard-response",157,130360,"0.0-4.48-1.48","tno68m877079aw8",593,"181.csv","","null","resources/maskTrios/BT2B.jpg","null","",NA,NA,NA,NA,""
"image-keyboard-response",158,131561,"0.0-4.48-2.48","tno68m877079aw8",593,"181.csv","","null","resources/images/coin2.png","null","",NA,NA,NA,NA,""
"image-keyboard-response",159,132226,"0.0-4.49-0.49","tno68m877079aw8",593,"181.csv","","664.2000000476837","resources/trios/L1T2A2.jpg","39","restless",0.4,0.7,0.5,0.197373895285435,"true"
"image-keyboard-response",160,132632,"0.0-4.49-1.49","tno68m877079aw8",593,"181.csv","","null","resources/maskTrios/BBA2.jpg","null","",NA,NA,NA,NA,""
"image-keyboard-response",161,133849,"0.0-4.49-2.49","tno68m877079aw8",593,"181.csv","","null","resources/images/coin2.png","null","",NA,NA,NA,NA,""
"image-keyboard-response",162,134073,"0.0-4.50-0.50","tno68m877079aw8",593,"181.csv","","221.40000009536743","resources/trios/L1T2A2.jpg","38","restless",0.4,0.8,0.4,0.906380193143132,"false"
"image-keyboard-response",163,134480,"0.0-4.50-1.50","tno68m877079aw8",593,"181.csv","","null","resources/maskTrios/BT2B.jpg","null","",NA,NA,NA,NA,""
"image-keyboard-response",164,135692,"0.0-4.50-2.50","tno68m877079aw8",593,"181.csv","","null","resources/images/fishbone.png","null","",NA,NA,NA,NA,""
"image-keyboard-response",165,135895,"0.0-4.51-0.51","tno68m877079aw8",593,"181.csv","","202.09999990463257","resources/trios/L1T2A2.jpg","39","restless",0.4,0.8,0.4,0.825206093428181,"false"
"image-keyboard-response",166,136298,"0.0-4.51-1.51","tno68m877079aw8",593,"181.csv","","null","resources/maskTrios/BBA2.jpg","null","",NA,NA,NA,NA,""
"image-keyboard-response",167,137502,"0.0-4.51-2.51","tno68m877079aw8",593,"181.csv","","null","resources/images/fishbone.png","null","",NA,NA,NA,NA,""
"image-keyboard-response",168,137730,"0.0-4.52-0.52","tno68m877079aw8",593,"181.csv","","227.29999995231628","resources/trios/L1T2A2.jpg","37","restless",0.5,0.8,0.4,0.49524077294017,"true"
"image-keyboard-response",169,138138,"0.0-4.52-1.52","tno68m877079aw8",593,"181.csv","","null","resources/maskTrios/L1BB.jpg","null","",NA,NA,NA,NA,""
"image-keyboard-response",170,139354,"0.0-4.52-2.52","tno68m877079aw8",593,"181.csv","","null","resources/images/coin2.png","null","",NA,NA,NA,NA,""
"image-keyboard-response",171,139588,"0.0-4.53-0.53","tno68m877079aw8",593,"181.csv","","231.70000004768372","resources/trios/L1T2A2.jpg","37","restless",0.5,0.8,0.4,0.565880257431449,"false"
"image-keyboard-response",172,139993,"0.0-4.53-1.53","tno68m877079aw8",593,"181.csv","","null","resources/maskTrios/L1BB.jpg","null","",NA,NA,NA,NA,""
"image-keyboard-response",173,141208,"0.0-4.53-2.53","tno68m877079aw8",593,"181.csv","","null","resources/images/fishbone.png","null","",NA,NA,NA,NA,""
"image-keyboard-response",174,141409,"0.0-4.54-0.54","tno68m877079aw8",593,"181.csv","","200.30000019073486","resources/trios/L1T2A2.jpg","38","restless",0.5,0.7,0.4,0.866671642316452,"false"
"image-keyboard-response",175,141823,"0.0-4.54-1.54","tno68m877079aw8",593,"181.csv","","null","resources/maskTrios/BT2B.jpg","null","",NA,NA,NA,NA,""
"image-keyboard-response",176,143040,"0.0-4.54-2.54","tno68m877079aw8",593,"181.csv","","null","resources/images/fishbone.png","null","",NA,NA,NA,NA,""
"image-keyboard-response",177,143269,"0.0-4.55-0.55","tno68m877079aw8",593,"181.csv","","226.89999985694885","resources/trios/L1T2A2.jpg","39","restless",0.5,0.7,0.4,0.0881266045797044,"true"
"image-keyboard-response",178,143681,"0.0-4.55-1.55","tno68m877079aw8",593,"181.csv","","null","resources/maskTrios/BBA2.jpg","null","",NA,NA,NA,NA,""
"image-keyboard-response",179,144884,"0.0-4.55-2.55","tno68m877079aw8",593,"181.csv","","null","resources/images/coin2.png","null","",NA,NA,NA,NA,""
"image-keyboard-response",180,145073,"0.0-4.56-0.56","tno68m877079aw8",593,"181.csv","","188.69999980926514","resources/trios/L1T2A2.jpg","37","restless",0.5,0.8,0.4,0.277344813938007,"true"
"image-keyboard-response",181,145480,"0.0-4.56-1.56","tno68m877079aw8",593,"181.csv","","null","resources/maskTrios/L1BB.jpg","null","",NA,NA,NA,NA,""
"image-keyboard-response",182,146686,"0.0-4.56-2.56","tno68m877079aw8",593,"181.csv","","null","resources/images/coin2.png","null","",NA,NA,NA,NA,""
"image-keyboard-response",183,146887,"0.0-4.57-0.57","tno68m877079aw8",593,"181.csv","","199.10000014305115","resources/trios/L1T2A2.jpg","39","restless",0.5,0.8,0.4,0.717389934563746,"false"
"image-keyboard-response",184,147298,"0.0-4.57-1.57","tno68m877079aw8",593,"181.csv","","null","resources/maskTrios/BBA2.jpg","null","",NA,NA,NA,NA,""
"image-keyboard-response",185,148515,"0.0-4.57-2.57","tno68m877079aw8",593,"181.csv","","null","resources/images/fishbone.png","null","",NA,NA,NA,NA,""
"image-keyboard-response",186,148606,"0.0-4.58-0.58","tno68m877079aw8",593,"181.csv","","89.90000009536743","resources/trios/L1T2A2.jpg","37","restless",0.6,0.8,0.4,0.0329743703781948,"true"
"image-keyboard-response",187,149010,"0.0-4.58-1.58","tno68m877079aw8",593,"181.csv","","null","resources/maskTrios/L1BB.jpg","null","",NA,NA,NA,NA,""
"image-keyboard-response",188,150222,"0.0-4.58-2.58","tno68m877079aw8",593,"181.csv","","null","resources/images/coin2.png","null","",NA,NA,NA,NA,""
"image-keyboard-response",189,150407,"0.0-4.59-0.59","tno68m877079aw8",593,"181.csv","","184","resources/trios/L1T2A2.jpg","39","restless",0.6,0.8,0.4,0.913284378490006,"false"
"image-keyboard-response",190,150817,"0.0-4.59-1.59","tno68m877079aw8",593,"181.csv","","null","resources/maskTrios/BBA2.jpg","null","",NA,NA,NA,NA,""
"image-keyboard-response",191,152021,"0.0-4.59-2.59","tno68m877079aw8",593,"181.csv","","null","resources/images/fishbone.png","null","",NA,NA,NA,NA,""
"image-keyboard-response",192,152155,"0.0-4.60-0.60","tno68m877079aw8",593,"181.csv","","133.40000009536743","resources/trios/L1T2A2.jpg","37","restless",0.6,0.8,0.4,0.84325066944081,"false"
"image-keyboard-response",193,152563,"0.0-4.60-1.60","tno68m877079aw8",593,"181.csv","","null","resources/maskTrios/L1BB.jpg","null","",NA,NA,NA,NA,""
"image-keyboard-response",194,153769,"0.0-4.60-2.60","tno68m877079aw8",593,"181.csv","","null","resources/images/fishbone.png","null","",NA,NA,NA,NA,""
"image-keyboard-response",195,153981,"0.0-4.61-0.61","tno68m877079aw8",593,"181.csv","","209.39999985694885","resources/trios/L1T2A2.jpg","38","restless",0.6,0.8,0.4,0.356524077974688,"true"
"image-keyboard-response",196,154386,"0.0-4.61-1.61","tno68m877079aw8",593,"181.csv","","null","resources/maskTrios/BT2B.jpg","null","",NA,NA,NA,NA,""
"image-keyboard-response",197,155600,"0.0-4.61-2.61","tno68m877079aw8",593,"181.csv","","null","resources/images/coin2.png","null","",NA,NA,NA,NA,""
"image-keyboard-response",198,155782,"0.0-4.62-0.62","tno68m877079aw8",593,"181.csv","","181.09999990463257","resources/trios/L1T2A2.jpg","37","restless",0.6,0.9,0.4,0.0348475891525528,"true"
"image-keyboard-response",199,156198,"0.0-4.62-1.62","tno68m877079aw8",593,"181.csv","","null","resources/maskTrios/L1BB.jpg","null","",NA,NA,NA,NA,""
"image-keyboard-response",200,157402,"0.0-4.62-2.62","tno68m877079aw8",593,"181.csv","","null","resources/images/coin2.png","null","",NA,NA,NA,NA,""
"image-keyboard-response",201,157659,"0.0-4.63-0.63","tno68m877079aw8",593,"181.csv","","255.80000019073486","resources/trios/L1T2A2.jpg","38","restless",0.6,0.9,0.4,0.24210162389418,"true"
"image-keyboard-response",202,158074,"0.0-4.63-1.63","tno68m877079aw8",593,"181.csv","","null","resources/maskTrios/BT2B.jpg","null","",NA,NA,NA,NA,""
"image-keyboard-response",203,159276,"0.0-4.63-2.63","tno68m877079aw8",593,"181.csv","","null","resources/images/coin2.png","null","",NA,NA,NA,NA,""
"image-keyboard-response",204,159389,"0.0-4.64-0.64","tno68m877079aw8",593,"181.csv","","111.10000014305115","resources/trios/L1T2A2.jpg","37","restless",0.6,0.9,0.3,0.900162372835543,"false"
"image-keyboard-response",205,159798,"0.0-4.64-1.64","tno68m877079aw8",593,"181.csv","","null","resources/maskTrios/L1BB.jpg","null","",NA,NA,NA,NA,""
"image-keyboard-response",206,160999,"0.0-4.64-2.64","tno68m877079aw8",593,"181.csv","","null","resources/images/fishbone.png","null","",NA,NA,NA,NA,""
"image-keyboard-response",207,161218,"0.0-4.65-0.65","tno68m877079aw8",593,"181.csv","","217.60000014305115","resources/trios/L1T2A2.jpg","38","restless",0.6,0.9,0.3,0.340526056566486,"true"
"image-keyboard-response",208,161624,"0.0-4.65-1.65","tno68m877079aw8",593,"181.csv","","null","resources/maskTrios/BT2B.jpg","null","",NA,NA,NA,NA,""
"image-keyboard-response",209,162838,"0.0-4.65-2.65","tno68m877079aw8",593,"181.csv","","null","resources/images/coin2.png","null","",NA,NA,NA,NA,""
"image-keyboard-response",210,162935,"0.0-4.66-0.66","tno68m877079aw8",593,"181.csv","","94.70000004768372","resources/trios/L1T2A2.jpg","37","restless",0.6,0.9,0.4,0.638853551512543,"false"
"image-keyboard-response",211,163350,"0.0-4.66-1.66","tno68m877079aw8",593,"181.csv","","null","resources/maskTrios/L1BB.jpg","null","",NA,NA,NA,NA,""
"image-keyboard-response",212,164563,"0.0-4.66-2.66","tno68m877079aw8",593,"181.csv","","null","resources/images/fishbone.png","null","",NA,NA,NA,NA,""
"image-keyboard-response",213,164765,"0.0-4.67-0.67","tno68m877079aw8",593,"181.csv","","201.09999990463257","resources/trios/L1T2A2.jpg","38","restless",0.6,0.9,0.4,0.118259204727529,"true"
"image-keyboard-response",214,165172,"0.0-4.67-1.67","tno68m877079aw8",593,"181.csv","","null","resources/maskTrios/BT2B.jpg","null","",NA,NA,NA,NA,""
"image-keyboard-response",215,166376,"0.0-4.67-2.67","tno68m877079aw8",593,"181.csv","","null","resources/images/coin2.png","null","",NA,NA,NA,NA,""
"image-keyboard-response",216,166567,"0.0-4.68-0.68","tno68m877079aw8",593,"181.csv","","190.10000014305115","resources/trios/L1T2A2.jpg","39","restless",0.6,0.9,0.4,0.287347207138022,"true"
"image-keyboard-response",217,166977,"0.0-4.68-1.68","tno68m877079aw8",593,"181.csv","","null","resources/maskTrios/BBA2.jpg","null","",NA,NA,NA,NA,""
"image-keyboard-response",218,168192,"0.0-4.68-2.68","tno68m877079aw8",593,"181.csv","","null","resources/images/coin2.png","null","",NA,NA,NA,NA,""
"image-keyboard-response",219,168382,"0.0-4.69-0.69","tno68m877079aw8",593,"181.csv","","186.39999985694885","resources/trios/L1T2A2.jpg","38","restless",0.6,0.9,0.5,0.167269008396827,"true"
"image-keyboard-response",220,168796,"0.0-4.69-1.69","tno68m877079aw8",593,"181.csv","","null","resources/maskTrios/BT2B.jpg","null","",NA,NA,NA,NA,""
"image-keyboard-response",221,169998,"0.0-4.69-2.69","tno68m877079aw8",593,"181.csv","","null","resources/images/coin2.png","null","",NA,NA,NA,NA,""
"image-keyboard-response",222,170128,"0.0-4.70-0.70","tno68m877079aw8",593,"181.csv","","129","resources/trios/L1T2A2.jpg","39","restless",0.6,0.9,0.5,0.735936187260532,"false"
"image-keyboard-response",223,170534,"0.0-4.70-1.70","tno68m877079aw8",593,"181.csv","","null","resources/maskTrios/BBA2.jpg","null","",NA,NA,NA,NA,""
"image-keyboard-response",224,171738,"0.0-4.70-2.70","tno68m877079aw8",593,"181.csv","","null","resources/images/fishbone.png","null","",NA,NA,NA,NA,""
"image-keyboard-response",225,171963,"0.0-4.71-0.71","tno68m877079aw8",593,"181.csv","","222.70000004768372","resources/trios/L1T2A2.jpg","38","restless",0.6,0.8,0.5,0.138054500379865,"true"
"image-keyboard-response",226,172378,"0.0-4.71-1.71","tno68m877079aw8",593,"181.csv","","null","resources/maskTrios/BT2B.jpg","null","",NA,NA,NA,NA,""
"image-keyboard-response",227,173591,"0.0-4.71-2.71","tno68m877079aw8",593,"181.csv","","null","resources/images/coin2.png","null","",NA,NA,NA,NA,""
"image-keyboard-response",228,173626,"0.0-4.72-0.72","tno68m877079aw8",593,"181.csv","","32.5","resources/trios/L1T2A2.jpg","37","restless",0.6,0.8,0.5,0.158818089378129,"true"
"image-keyboard-response",229,174032,"0.0-4.72-1.72","tno68m877079aw8",593,"181.csv","","null","resources/maskTrios/L1BB.jpg","null","",NA,NA,NA,NA,""
"image-keyboard-response",230,175251,"0.0-4.72-2.72","tno68m877079aw8",593,"181.csv","","null","resources/images/coin2.png","null","",NA,NA,NA,NA,""
"image-keyboard-response",231,175510,"0.0-4.73-0.73","tno68m877079aw8",593,"181.csv","","255.70000004768372","resources/trios/L1T2A2.jpg","38","restless",0.6,0.8,0.5,0.0501063967729005,"true"
"image-keyboard-response",232,175919,"0.0-4.73-1.73","tno68m877079aw8",593,"181.csv","","null","resources/maskTrios/BT2B.jpg","null","",NA,NA,NA,NA,""
"image-keyboard-response",233,177125,"0.0-4.73-2.73","tno68m877079aw8",593,"181.csv","","null","resources/images/coin2.png","null","",NA,NA,NA,NA,""
"image-keyboard-response",234,177183,"0.0-4.74-0.74","tno68m877079aw8",593,"181.csv","","56.89999985694885","resources/trios/L1T2A2.jpg","37","restless",0.6,0.8,0.5,0.864400902279812,"false"
"image-keyboard-response",235,177586,"0.0-4.74-1.74","tno68m877079aw8",593,"181.csv","","null","resources/maskTrios/L1BB.jpg","null","",NA,NA,NA,NA,""
"image-keyboard-response",236,178803,"0.0-4.74-2.74","tno68m877079aw8",593,"181.csv","","null","resources/images/fishbone.png","null","",NA,NA,NA,NA,""
"image-keyboard-response",237,178965,"0.0-4.75-0.75","tno68m877079aw8",593,"181.csv","","158.70000004768372","resources/trios/L1T2A2.jpg","38","restless",0.6,0.8,0.5,0.306011127977929,"true"
"image-keyboard-response",238,179375,"0.0-4.75-1.75","tno68m877079aw8",593,"181.csv","","null","resources/maskTrios/BT2B.jpg","null","",NA,NA,NA,NA,""
"image-keyboard-response",239,180586,"0.0-4.75-2.75","tno68m877079aw8",593,"181.csv","","null","resources/images/coin2.png","null","",NA,NA,NA,NA,""
"image-keyboard-response",240,180637,"0.0-4.76-0.76","tno68m877079aw8",593,"181.csv","","48.90000009536743","resources/trios/L1T2A2.jpg","39","restless",0.6,0.8,0.5,0.1580556867235,"true"
"image-keyboard-response",241,181039,"0.0-4.76-1.76","tno68m877079aw8",593,"181.csv","","null","resources/maskTrios/BBA2.jpg","null","",NA,NA,NA,NA,""
"image-keyboard-response",242,182256,"0.0-4.76-2.76","tno68m877079aw8",593,"181.csv","","null","resources/images/coin2.png","null","",NA,NA,NA,NA,""
"image-keyboard-response",243,182331,"0.0-4.77-0.77","tno68m877079aw8",593,"181.csv","","73.5","resources/trios/L1T2A2.jpg","38","restless",0.6,0.8,0.5,0.0757837503131715,"true"
"image-keyboard-response",244,182747,"0.0-4.77-1.77","tno68m877079aw8",593,"181.csv","","null","resources/maskTrios/BT2B.jpg","null","",NA,NA,NA,NA,""
"image-keyboard-response",245,183954,"0.0-4.77-2.77","tno68m877079aw8",593,"181.csv","","null","resources/images/coin2.png","null","",NA,NA,NA,NA,""
"image-keyboard-response",246,184034,"0.0-4.78-0.78","tno68m877079aw8",593,"181.csv","","79.30000019073486","resources/trios/L1T2A2.jpg","39","restless",0.6,0.8,0.5,0.252638862047051,"true"
"image-keyboard-response",247,184440,"0.0-4.78-1.78","tno68m877079aw8",593,"181.csv","","null","resources/maskTrios/BBA2.jpg","null","",NA,NA,NA,NA,""
"image-keyboard-response",248,185646,"0.0-4.78-2.78","tno68m877079aw8",593,"181.csv","","null","resources/images/coin2.png","null","",NA,NA,NA,NA,""
"image-keyboard-response",249,185723,"0.0-4.79-0.79","tno68m877079aw8",593,"181.csv","","74","resources/trios/L1T2A2.jpg","38","restless",0.6,0.8,0.5,0.55357695109156,"true"
"image-keyboard-response",250,186133,"0.0-4.79-1.79","tno68m877079aw8",593,"181.csv","","null","resources/maskTrios/BT2B.jpg","null","",NA,NA,NA,NA,""
"image-keyboard-response",251,187346,"0.0-4.79-2.79","tno68m877079aw8",593,"181.csv","","null","resources/images/coin2.png","null","",NA,NA,NA,NA,""
"image-keyboard-response",252,187367,"0.0-4.80-0.80","tno68m877079aw8",593,"181.csv","","18.799999952316284","resources/trios/L1T2A2.jpg","39","restless",0.6,0.8,0.5,0.0203387038959035,"true"
"image-keyboard-response",253,187780,"0.0-4.80-1.80","tno68m877079aw8",593,"181.csv","","null","resources/maskTrios/BBA2.jpg","null","",NA,NA,NA,NA,""
"image-keyboard-response",254,188997,"0.0-4.80-2.80","tno68m877079aw8",593,"181.csv","","null","resources/images/coin2.png","null","",NA,NA,NA,NA,""
"image-keyboard-response",255,189210,"0.0-4.81-0.81","tno68m877079aw8",593,"181.csv","","210.09999990463257","resources/trios/L1T2A2.jpg","38","restless",0.6,0.8,0.5,0.110450091978379,"true"
"image-keyboard-response",256,189614,"0.0-4.81-1.81","tno68m877079aw8",593,"181.csv","","null","resources/maskTrios/BT2B.jpg","null","",NA,NA,NA,NA,""
"image-keyboard-response",257,190828,"0.0-4.81-2.81","tno68m877079aw8",593,"181.csv","","null","resources/images/coin2.png","null","",NA,NA,NA,NA,""
"image-keyboard-response",258,190972,"0.0-4.82-0.82","tno68m877079aw8",593,"181.csv","","142.70000004768372","resources/trios/L1T2A2.jpg","39","restless",0.5,0.8,0.5,0.289384715687518,"true"
"image-keyboard-response",259,191380,"0.0-4.82-1.82","tno68m877079aw8",593,"181.csv","","null","resources/maskTrios/BBA2.jpg","null","",NA,NA,NA,NA,""
"image-keyboard-response",260,192597,"0.0-4.82-2.82","tno68m877079aw8",593,"181.csv","","null","resources/images/coin2.png","null","",NA,NA,NA,NA,""
"image-keyboard-response",261,192714,"0.0-4.83-0.83","tno68m877079aw8",593,"181.csv","","114.80000019073486","resources/trios/L1T2A2.jpg","38","restless",0.5,0.8,0.5,0.583520905731224,"true"
"image-keyboard-response",262,193120,"0.0-4.83-1.83","tno68m877079aw8",593,"181.csv","","null","resources/maskTrios/BT2B.jpg","null","",NA,NA,NA,NA,""
"image-keyboard-response",263,194332,"0.0-4.83-2.83","tno68m877079aw8",593,"181.csv","","null","resources/images/coin2.png","null","",NA,NA,NA,NA,""
"image-keyboard-response",264,194350,"0.0-4.84-0.84","tno68m877079aw8",593,"181.csv","","17.09999990463257","resources/trios/L1T2A2.jpg","39","restless",0.5,0.7,0.5,0.321167472063189,"true"
"image-keyboard-response",265,194760,"0.0-4.84-1.84","tno68m877079aw8",593,"181.csv","","null","resources/maskTrios/BBA2.jpg","null","",NA,NA,NA,NA,""
"image-keyboard-response",266,195965,"0.0-4.84-2.84","tno68m877079aw8",593,"181.csv","","null","resources/images/coin2.png","null","",NA,NA,NA,NA,""
"image-keyboard-response",267,196058,"0.0-4.85-0.85","tno68m877079aw8",593,"181.csv","","92.10000014305115","resources/trios/L1T2A2.jpg","38","restless",0.5,0.7,0.5,0.848597380563046,"false"
"image-keyboard-response",268,196463,"0.0-4.85-1.85","tno68m877079aw8",593,"181.csv","","null","resources/maskTrios/BT2B.jpg","null","",NA,NA,NA,NA,""
"image-keyboard-response",269,197668,"0.0-4.85-2.85","tno68m877079aw8",593,"181.csv","","null","resources/images/fishbone.png","null","",NA,NA,NA,NA,""
"image-keyboard-response",270,197743,"0.0-4.86-0.86","tno68m877079aw8",593,"181.csv","","73.60000014305115","resources/trios/L1T2A2.jpg","39","restless",0.5,0.7,0.5,0.284099177251243,"true"
"image-keyboard-response",271,198144,"0.0-4.86-1.86","tno68m877079aw8",593,"181.csv","","null","resources/maskTrios/BBA2.jpg","null","",NA,NA,NA,NA,""
"image-keyboard-response",272,199360,"0.0-4.86-2.86","tno68m877079aw8",593,"181.csv","","null","resources/images/coin2.png","null","",NA,NA,NA,NA,""
"image-keyboard-response",273,199444,"0.0-4.87-0.87","tno68m877079aw8",593,"181.csv","","83.09999990463257","resources/trios/L1T2A2.jpg","37","restless",0.5,0.7,0.5,0.327166783877808,"true"
"image-keyboard-response",274,199856,"0.0-4.87-1.87","tno68m877079aw8",593,"181.csv","","null","resources/maskTrios/L1BB.jpg","null","",NA,NA,NA,NA,""
"image-keyboard-response",275,201070,"0.0-4.87-2.87","tno68m877079aw8",593,"181.csv","","null","resources/images/coin2.png","null","",NA,NA,NA,NA,""
"image-keyboard-response",276,201181,"0.0-4.88-0.88","tno68m877079aw8",593,"181.csv","","110.70000004768372","resources/trios/L1T2A2.jpg","39","restless",0.5,0.7,0.5,0.87583513012636,"false"
"image-keyboard-response",277,201585,"0.0-4.88-1.88","tno68m877079aw8",593,"181.csv","","null","resources/maskTrios/BBA2.jpg","null","",NA,NA,NA,NA,""
"image-keyboard-response",278,202788,"0.0-4.88-2.88","tno68m877079aw8",593,"181.csv","","null","resources/images/fishbone.png","null","",NA,NA,NA,NA,""
"image-keyboard-response",279,203337,"0.0-4.89-0.89","tno68m877079aw8",593,"181.csv","","546.6999998092651","resources/trios/L1T2A2.jpg","37","restless",0.5,0.7,0.5,0.82447205970624,"false"
"image-keyboard-response",280,203740,"0.0-4.89-1.89","tno68m877079aw8",593,"181.csv","","null","resources/maskTrios/L1BB.jpg","null","",NA,NA,NA,NA,""
"image-keyboard-response",281,204948,"0.0-4.89-2.89","tno68m877079aw8",593,"181.csv","","null","resources/images/fishbone.png","null","",NA,NA,NA,NA,""
"image-keyboard-response",282,205211,"0.0-4.90-0.90","tno68m877079aw8",593,"181.csv","","258.89999985694885","resources/trios/L1T2A2.jpg","38","restless",0.5,0.7,0.5,0.149961725484996,"true"
"image-keyboard-response",283,205614,"0.0-4.90-1.90","tno68m877079aw8",593,"181.csv","","null","resources/maskTrios/BT2B.jpg","null","",NA,NA,NA,NA,""
"image-keyboard-response",284,206817,"0.0-4.90-2.90","tno68m877079aw8",593,"181.csv","","null","resources/images/coin2.png","null","",NA,NA,NA,NA,""
"image-keyboard-response",285,206952,"0.0-4.91-0.91","tno68m877079aw8",593,"181.csv","","131.90000009536743","resources/trios/L1T2A2.jpg","39","restless",0.5,0.7,0.5,0.300708862742126,"true"
"image-keyboard-response",286,207354,"0.0-4.91-1.91","tno68m877079aw8",593,"181.csv","","null","resources/maskTrios/BBA2.jpg","null","",NA,NA,NA,NA,""
"image-keyboard-response",287,208568,"0.0-4.91-2.91","tno68m877079aw8",593,"181.csv","","null","resources/images/coin2.png","null","",NA,NA,NA,NA,""
"image-keyboard-response",288,208654,"0.0-4.92-0.92","tno68m877079aw8",593,"181.csv","","85.20000004768372","resources/trios/L1T2A2.jpg","38","restless",0.5,0.7,0.4,0.418264612553417,"true"
"image-keyboard-response",289,209065,"0.0-4.92-1.92","tno68m877079aw8",593,"181.csv","","null","resources/maskTrios/BT2B.jpg","null","",NA,NA,NA,NA,""
"image-keyboard-response",290,210274,"0.0-4.92-2.92","tno68m877079aw8",593,"181.csv","","null","resources/images/coin2.png","null","",NA,NA,NA,NA,""
"image-keyboard-response",291,210755,"0.0-4.93-0.93","tno68m877079aw8",593,"181.csv","","479.90000009536743","resources/trios/L1T2A2.jpg","39","restless",0.5,0.7,0.4,0.443243853671289,"false"
"image-keyboard-response",292,211158,"0.0-4.93-1.93","tno68m877079aw8",593,"181.csv","","null","resources/maskTrios/BBA2.jpg","null","",NA,NA,NA,NA,""
"image-keyboard-response",293,212369,"0.0-4.93-2.93","tno68m877079aw8",593,"181.csv","","null","resources/images/fishbone.png","null","",NA,NA,NA,NA,""
"image-keyboard-response",294,212575,"0.0-4.94-0.94","tno68m877079aw8",593,"181.csv","","203.5","resources/trios/L1T2A2.jpg","38","restless",0.5,0.7,0.4,0.329694032318365,"true"
"image-keyboard-response",295,212986,"0.0-4.94-1.94","tno68m877079aw8",593,"181.csv","","null","resources/maskTrios/BT2B.jpg","null","",NA,NA,NA,NA,""
"image-keyboard-response",296,214202,"0.0-4.94-2.94","tno68m877079aw8",593,"181.csv","","null","resources/images/coin2.png","null","",NA,NA,NA,NA,""
"image-keyboard-response",297,214398,"0.0-4.95-0.95","tno68m877079aw8",593,"181.csv","","195.20000004768372","resources/trios/L1T2A2.jpg","37","restless",0.5,0.7,0.4,0.70812113622847,"false"
"image-keyboard-response",298,214814,"0.0-4.95-1.95","tno68m877079aw8",593,"181.csv","","null","resources/maskTrios/L1BB.jpg","null","",NA,NA,NA,NA,""
"image-keyboard-response",299,216018,"0.0-4.95-2.95","tno68m877079aw8",593,"181.csv","","null","resources/images/fishbone.png","null","",NA,NA,NA,NA,""
"image-keyboard-response",300,216528,"0.0-4.96-0.96","tno68m877079aw8",593,"181.csv","","508.60000014305115","resources/trios/L1T2A2.jpg","38","restless",0.5,0.7,0.4,0.335353991174298,"true"
"image-keyboard-response",301,216932,"0.0-4.96-1.96","tno68m877079aw8",593,"181.csv","","null","resources/maskTrios/BT2B.jpg","null","",NA,NA,NA,NA,""
"image-keyboard-response",302,218145,"0.0-4.96-2.96","tno68m877079aw8",593,"181.csv","","null","resources/images/coin2.png","null","",NA,NA,NA,NA,""
"image-keyboard-response",303,218324,"0.0-4.97-0.97","tno68m877079aw8",593,"181.csv","","175.70000004768372","resources/trios/L1T2A2.jpg","39","restless",0.5,0.7,0.4,0.887068546727838,"false"
"image-keyboard-response",304,218728,"0.0-4.97-1.97","tno68m877079aw8",593,"181.csv","","null","resources/maskTrios/BBA2.jpg","null","",NA,NA,NA,NA,""
"image-keyboard-response",305,219930,"0.0-4.97-2.97","tno68m877079aw8",593,"181.csv","","null","resources/images/fishbone.png","null","",NA,NA,NA,NA,""
"image-keyboard-response",306,220127,"0.0-4.98-0.98","tno68m877079aw8",593,"181.csv","","195.5","resources/trios/L1T2A2.jpg","38","restless",0.5,0.7,0.4,0.526439835513089,"true"
"image-keyboard-response",307,220538,"0.0-4.98-1.98","tno68m877079aw8",593,"181.csv","","null","resources/maskTrios/BT2B.jpg","null","",NA,NA,NA,NA,""
"image-keyboard-response",308,221747,"0.0-4.98-2.98","tno68m877079aw8",593,"181.csv","","null","resources/images/coin2.png","null","",NA,NA,NA,NA,""
"image-keyboard-response",309,221866,"0.0-4.99-0.99","tno68m877079aw8",593,"181.csv","","118.29999995231628","resources/trios/L1T2A2.jpg","38","restless",0.5,0.7,0.4,0.0351857775089053,"true"
"image-keyboard-response",310,222270,"0.0-4.99-1.99","tno68m877079aw8",593,"181.csv","","null","resources/maskTrios/BT2B.jpg","null","",NA,NA,NA,NA,""
"image-keyboard-response",311,223479,"0.0-4.99-2.99","tno68m877079aw8",593,"181.csv","","null","resources/images/coin2.png","null","",NA,NA,NA,NA,""
"image-keyboard-response",312,223665,"0.0-4.100-0.100","tno68m877079aw8",593,"181.csv","","182.5","resources/trios/L1T2A2.jpg","38","restless",0.5,0.7,0.4,0.0116428157620898,"true"
"image-keyboard-response",313,224076,"0.0-4.100-1.100","tno68m877079aw8",593,"181.csv","","null","resources/maskTrios/BT2B.jpg","null","",NA,NA,NA,NA,""
"image-keyboard-response",314,225287,"0.0-4.100-2.100","tno68m877079aw8",593,"181.csv","","null","resources/images/coin2.png","null","",NA,NA,NA,NA,""
"image-keyboard-response",315,225498,"0.0-4.101-0.101","tno68m877079aw8",593,"181.csv","","210.5","resources/trios/L1T2A2.jpg","38","restless",0.5,0.7,0.4,0.983588859913941,"false"
"image-keyboard-response",316,225904,"0.0-4.101-1.101","tno68m877079aw8",593,"181.csv","","null","resources/maskTrios/BT2B.jpg","null","",NA,NA,NA,NA,""
"image-keyboard-response",317,227106,"0.0-4.101-2.101","tno68m877079aw8",593,"181.csv","","null","resources/images/fishbone.png","null","",NA,NA,NA,NA,""
"image-keyboard-response",318,227325,"0.0-4.102-0.102","tno68m877079aw8",593,"181.csv","","217.5","resources/trios/L1T2A2.jpg","39","restless",0.5,0.7,0.4,0.208366585871537,"true"
"image-keyboard-response",319,227738,"0.0-4.102-1.102","tno68m877079aw8",593,"181.csv","","null","resources/maskTrios/BBA2.jpg","null","",NA,NA,NA,NA,""
"image-keyboard-response",320,228953,"0.0-4.102-2.102","tno68m877079aw8",593,"181.csv","","null","resources/images/coin2.png","null","",NA,NA,NA,NA,""
"image-keyboard-response",321,229098,"0.0-4.103-0.103","tno68m877079aw8",593,"181.csv","","144.40000009536743","resources/trios/L1T2A2.jpg","37","restless",0.5,0.7,0.3,0.394527906904055,"true"
"image-keyboard-response",322,229499,"0.0-4.103-1.103","tno68m877079aw8",593,"181.csv","","null","resources/maskTrios/L1BB.jpg","null","",NA,NA,NA,NA,""
"image-keyboard-response",323,230714,"0.0-4.103-2.103","tno68m877079aw8",593,"181.csv","","null","resources/images/coin2.png","null","",NA,NA,NA,NA,""
"image-keyboard-response",324,230852,"0.0-4.104-0.104","tno68m877079aw8",593,"181.csv","","136.89999985694885","resources/trios/L1T2A2.jpg","39","restless",0.5,0.8,0.3,0.894313166887813,"false"
"image-keyboard-response",325,231254,"0.0-4.104-1.104","tno68m877079aw8",593,"181.csv","","null","resources/maskTrios/BBA2.jpg","null","",NA,NA,NA,NA,""
"image-keyboard-response",326,232464,"0.0-4.104-2.104","tno68m877079aw8",593,"181.csv","","null","resources/images/fishbone.png","null","",NA,NA,NA,NA,""
"image-keyboard-response",327,232658,"0.0-4.105-0.105","tno68m877079aw8",593,"181.csv","","191.79999995231628","resources/trios/L1T2A2.jpg","37","restless",0.5,0.8,0.4,0.641524485175484,"false"
"image-keyboard-response",328,233076,"0.0-4.105-1.105","tno68m877079aw8",593,"181.csv","","null","resources/maskTrios/L1BB.jpg","null","",NA,NA,NA,NA,""
"image-keyboard-response",329,234290,"0.0-4.105-2.105","tno68m877079aw8",593,"181.csv","","null","resources/images/fishbone.png","null","",NA,NA,NA,NA,""
"image-keyboard-response",330,234487,"0.0-4.106-0.106","tno68m877079aw8",593,"181.csv","","195.20000004768372","resources/trios/L1T2A2.jpg","38","restless",0.5,0.7,0.5,0.633054832142398,"true"
"image-keyboard-response",331,234902,"0.0-4.106-1.106","tno68m877079aw8",593,"181.csv","","null","resources/maskTrios/BT2B.jpg","null","",NA,NA,NA,NA,""
"image-keyboard-response",332,236110,"0.0-4.106-2.106","tno68m877079aw8",593,"181.csv","","null","resources/images/coin2.png","null","",NA,NA,NA,NA,""
"image-keyboard-response",333,236323,"0.0-4.107-0.107","tno68m877079aw8",593,"181.csv","","210.79999995231628","resources/trios/L1T2A2.jpg","38","restless",0.5,0.8,0.5,0.431040110608304,"true"
"image-keyboard-response",334,236736,"0.0-4.107-1.107","tno68m877079aw8",593,"181.csv","","null","resources/maskTrios/BT2B.jpg","null","",NA,NA,NA,NA,""
"image-keyboard-response",335,237947,"0.0-4.107-2.107","tno68m877079aw8",593,"181.csv","","null","resources/images/coin2.png","null","",NA,NA,NA,NA,""
"image-keyboard-response",336,238152,"0.0-4.108-0.108","tno68m877079aw8",593,"181.csv","","204.29999995231628","resources/trios/L1T2A2.jpg","38","restless",0.5,0.8,0.5,0.73395583377084,"true"
"image-keyboard-response",337,238560,"0.0-4.108-1.108","tno68m877079aw8",593,"181.csv","","null","resources/maskTrios/BT2B.jpg","null","",NA,NA,NA,NA,""
"image-keyboard-response",338,239764,"0.0-4.108-2.108","tno68m877079aw8",593,"181.csv","","null","resources/images/coin2.png","null","",NA,NA,NA,NA,""
"image-keyboard-response",339,239994,"0.0-4.109-0.109","tno68m877079aw8",593,"181.csv","","228.40000009536743","resources/trios/L1T2A2.jpg","38","restless",0.5,0.7,0.6,0.0863359213913604,"true"
"image-keyboard-response",340,240410,"0.0-4.109-1.109","tno68m877079aw8",593,"181.csv","","null","resources/maskTrios/BT2B.jpg","null","",NA,NA,NA,NA,""
"image-keyboard-response",341,241616,"0.0-4.109-2.109","tno68m877079aw8",593,"181.csv","","null","resources/images/coin2.png","null","",NA,NA,NA,NA,""
"image-keyboard-response",342,241848,"0.0-4.110-0.110","tno68m877079aw8",593,"181.csv","","231.09999990463257","resources/trios/L1T2A2.jpg","38","restless",0.5,0.7,0.6,0.941288064059151,"false"
"image-keyboard-response",343,242255,"0.0-4.110-1.110","tno68m877079aw8",593,"181.csv","","null","resources/maskTrios/BT2B.jpg","null","",NA,NA,NA,NA,""
"image-keyboard-response",344,243458,"0.0-4.110-2.110","tno68m877079aw8",593,"181.csv","","null","resources/images/fishbone.png","null","",NA,NA,NA,NA,""
"image-keyboard-response",345,243720,"0.0-4.111-0.111","tno68m877079aw8",593,"181.csv","","259.69999980926514","resources/trios/L1T2A2.jpg","39","restless",0.5,0.7,0.6,0.384271026701008,"true"
"image-keyboard-response",346,244122,"0.0-4.111-1.111","tno68m877079aw8",593,"181.csv","","null","resources/maskTrios/BBA2.jpg","null","",NA,NA,NA,NA,""
"image-keyboard-response",347,245331,"0.0-4.111-2.111","tno68m877079aw8",593,"181.csv","","null","resources/images/coin2.png","null","",NA,NA,NA,NA,""
"image-keyboard-response",348,245580,"0.0-4.112-0.112","tno68m877079aw8",593,"181.csv","","245.5","resources/trios/L1T2A2.jpg","37","restless",0.5,0.7,0.6,0.467483180013577,"true"
"image-keyboard-response",349,245985,"0.0-4.112-1.112","tno68m877079aw8",593,"181.csv","","null","resources/maskTrios/L1BB.jpg","null","",NA,NA,NA,NA,""
"image-keyboard-response",350,247196,"0.0-4.112-2.112","tno68m877079aw8",593,"181.csv","","null","resources/images/coin2.png","null","",NA,NA,NA,NA,""
"image-keyboard-response",351,247413,"0.0-4.113-0.113","tno68m877079aw8",593,"181.csv","","214.70000004768372","resources/trios/L1T2A2.jpg","39","restless",0.5,0.7,0.5,0.50307335737653,"false"
"image-keyboard-response",352,247824,"0.0-4.113-1.113","tno68m877079aw8",593,"181.csv","","null","resources/maskTrios/BBA2.jpg","null","",NA,NA,NA,NA,""
"image-keyboard-response",353,249031,"0.0-4.113-2.113","tno68m877079aw8",593,"181.csv","","null","resources/images/fishbone.png","null","",NA,NA,NA,NA,""
"image-keyboard-response",354,249228,"0.0-4.114-0.114","tno68m877079aw8",593,"181.csv","","196.5","resources/trios/L1T2A2.jpg","37","restless",0.5,0.7,0.5,0.662461532660644,"false"
"image-keyboard-response",355,249638,"0.0-4.114-1.114","tno68m877079aw8",593,"181.csv","","null","resources/maskTrios/L1BB.jpg","null","",NA,NA,NA,NA,""
"image-keyboard-response",356,250852,"0.0-4.114-2.114","tno68m877079aw8",593,"181.csv","","null","resources/images/fishbone.png","null","",NA,NA,NA,NA,""
"image-keyboard-response",357,251076,"0.0-4.115-0.115","tno68m877079aw8",593,"181.csv","","221.70000004768372","resources/trios/L1T2A2.jpg","38","restless",0.4,0.7,0.5,0.468939565393419,"true"
"image-keyboard-response",358,251487,"0.0-4.115-1.115","tno68m877079aw8",593,"181.csv","","null","resources/maskTrios/BT2B.jpg","null","",NA,NA,NA,NA,""
"image-keyboard-response",359,252689,"0.0-4.115-2.115","tno68m877079aw8",593,"181.csv","","null","resources/images/coin2.png","null","",NA,NA,NA,NA,""
"image-keyboard-response",360,252846,"0.0-4.116-0.116","tno68m877079aw8",593,"181.csv","","154.20000004768372","resources/trios/L1T2A2.jpg","38","restless",0.4,0.7,0.5,0.773597623115512,"false"
"image-keyboard-response",361,253251,"0.0-4.116-1.116","tno68m877079aw8",593,"181.csv","","null","resources/maskTrios/BT2B.jpg","null","",NA,NA,NA,NA,""
"image-keyboard-response",362,254454,"0.0-4.116-2.116","tno68m877079aw8",593,"181.csv","","null","resources/images/fishbone.png","null","",NA,NA,NA,NA,""
"image-keyboard-response",363,254665,"0.0-4.117-0.117","tno68m877079aw8",593,"181.csv","","210.29999995231628","resources/trios/L1T2A2.jpg","39","restless",0.4,0.7,0.5,0.911200130111272,"false"
"image-keyboard-response",364,255071,"0.0-4.117-1.117","tno68m877079aw8",593,"181.csv","","null","resources/maskTrios/BBA2.jpg","null","",NA,NA,NA,NA,""
"image-keyboard-response",365,256276,"0.0-4.117-2.117","tno68m877079aw8",593,"181.csv","","null","resources/images/fishbone.png","null","",NA,NA,NA,NA,""
"image-keyboard-response",366,256466,"0.0-4.118-0.118","tno68m877079aw8",593,"181.csv","","187.39999985694885","resources/trios/L1T2A2.jpg","37","restless",0.4,0.7,0.5,0.30060747849827,"true"
"image-keyboard-response",367,256868,"0.0-4.118-1.118","tno68m877079aw8",593,"181.csv","","null","resources/maskTrios/L1BB.jpg","null","",NA,NA,NA,NA,""
"image-keyboard-response",368,258083,"0.0-4.118-2.118","tno68m877079aw8",593,"181.csv","","null","resources/images/coin2.png","null","",NA,NA,NA,NA,""
"image-keyboard-response",369,258316,"0.0-4.119-0.119","tno68m877079aw8",593,"181.csv","","230.40000009536743","resources/trios/L1T2A2.jpg","37","restless",0.4,0.7,0.5,0.0736602615849882,"true"
"image-keyboard-response",370,258732,"0.0-4.119-1.119","tno68m877079aw8",593,"181.csv","","null","resources/maskTrios/L1BB.jpg","null","",NA,NA,NA,NA,""
"image-keyboard-response",371,259937,"0.0-4.119-2.119","tno68m877079aw8",593,"181.csv","","null","resources/images/coin2.png","null","",NA,NA,NA,NA,""
"image-keyboard-response",372,260188,"0.0-4.120-0.120","tno68m877079aw8",593,"181.csv","","249.5","resources/trios/L1T2A2.jpg","37","restless",0.4,0.7,0.5,0.388577436415053,"true"
"image-keyboard-response",373,260598,"0.0-4.120-1.120","tno68m877079aw8",593,"181.csv","","null","resources/maskTrios/L1BB.jpg","null","",NA,NA,NA,NA,""
"image-keyboard-response",374,261811,"0.0-4.120-2.120","tno68m877079aw8",593,"181.csv","","null","resources/images/coin2.png","null","",NA,NA,NA,NA,""
"image-keyboard-response",375,262018,"0.0-4.121-0.121","tno68m877079aw8",593,"181.csv","","205.79999995231628","resources/trios/L1T2A2.jpg","37","restless",0.4,0.6,0.5,0.903482073710857,"false"
"image-keyboard-response",376,262426,"0.0-4.121-1.121","tno68m877079aw8",593,"181.csv","","null","resources/maskTrios/L1BB.jpg","null","",NA,NA,NA,NA,""
"image-keyboard-response",377,263630,"0.0-4.121-2.121","tno68m877079aw8",593,"181.csv","","null","resources/images/fishbone.png","null","",NA,NA,NA,NA,""
"image-keyboard-response",378,263860,"0.0-4.122-0.122","tno68m877079aw8",593,"181.csv","","229","resources/trios/L1T2A2.jpg","38","restless",0.4,0.6,0.5,0.290376027144942,"true"
"image-keyboard-response",379,264264,"0.0-4.122-1.122","tno68m877079aw8",593,"181.csv","","null","resources/maskTrios/BT2B.jpg","null","",NA,NA,NA,NA,""
"image-keyboard-response",380,265472,"0.0-4.122-2.122","tno68m877079aw8",593,"181.csv","","null","resources/images/coin2.png","null","",NA,NA,NA,NA,""
"image-keyboard-response",381,265662,"0.0-4.123-0.123","tno68m877079aw8",593,"181.csv","","189.30000019073486","resources/trios/L1T2A2.jpg","38","restless",0.4,0.6,0.5,0.745505119534198,"false"
"image-keyboard-response",382,266078,"0.0-4.123-1.123","tno68m877079aw8",593,"181.csv","","null","resources/maskTrios/BT2B.jpg","null","",NA,NA,NA,NA,""
"image-keyboard-response",383,267283,"0.0-4.123-2.123","tno68m877079aw8",593,"181.csv","","null","resources/images/fishbone.png","null","",NA,NA,NA,NA,""
"image-keyboard-response",384,267458,"0.0-4.124-0.124","tno68m877079aw8",593,"181.csv","","174.19999980926514","resources/trios/L1T2A2.jpg","39","restless",0.4,0.6,0.5,0.277993797624984,"true"
"image-keyboard-response",385,267865,"0.0-4.124-1.124","tno68m877079aw8",593,"181.csv","","null","resources/maskTrios/BBA2.jpg","null","",NA,NA,NA,NA,""
"image-keyboard-response",386,269078,"0.0-4.124-2.124","tno68m877079aw8",593,"181.csv","","null","resources/images/coin2.png","null","",NA,NA,NA,NA,""
"image-keyboard-response",387,269367,"0.0-4.125-0.125","tno68m877079aw8",593,"181.csv","","288.10000014305115","resources/trios/L1T2A2.jpg","38","restless",0.4,0.6,0.5,0.0505704307573549,"true"
"image-keyboard-response",388,269783,"0.0-4.125-1.125","tno68m877079aw8",593,"181.csv","","null","resources/maskTrios/BT2B.jpg","null","",NA,NA,NA,NA,""
"image-keyboard-response",389,270999,"0.0-4.125-2.125","tno68m877079aw8",593,"181.csv","","null","resources/images/coin2.png","null","",NA,NA,NA,NA,""
"image-keyboard-response",390,271245,"0.0-4.126-0.126","tno68m877079aw8",593,"181.csv","","244.5","resources/trios/L1T2A2.jpg","39","restless",0.4,0.6,0.5,0.500831178564955,"false"
"image-keyboard-response",391,271652,"0.0-4.126-1.126","tno68m877079aw8",593,"181.csv","","null","resources/maskTrios/BBA2.jpg","null","",NA,NA,NA,NA,""
"image-keyboard-response",392,272868,"0.0-4.126-2.126","tno68m877079aw8",593,"181.csv","","null","resources/images/fishbone.png","null","",NA,NA,NA,NA,""
"image-keyboard-response",393,273017,"0.0-4.127-0.127","tno68m877079aw8",593,"181.csv","","146.20000004768372","resources/trios/L1T2A2.jpg","38","restless",0.5,0.6,0.5,0.301781848799251,"true"
"image-keyboard-response",394,273430,"0.0-4.127-1.127","tno68m877079aw8",593,"181.csv","","null","resources/maskTrios/BT2B.jpg","null","",NA,NA,NA,NA,""
"image-keyboard-response",395,274646,"0.0-4.127-2.127","tno68m877079aw8",593,"181.csv","","null","resources/images/coin2.png","null","",NA,NA,NA,NA,""
"image-keyboard-response",396,274861,"0.0-4.128-0.128","tno68m877079aw8",593,"181.csv","","212.79999995231628","resources/trios/L1T2A2.jpg","37","restless",0.5,0.6,0.5,0.37089070817484,"true"
"image-keyboard-response",397,275266,"0.0-4.128-1.128","tno68m877079aw8",593,"181.csv","","null","resources/maskTrios/L1BB.jpg","null","",NA,NA,NA,NA,""
"image-keyboard-response",398,276484,"0.0-4.128-2.128","tno68m877079aw8",593,"181.csv","","null","resources/images/coin2.png","null","",NA,NA,NA,NA,""
"image-keyboard-response",399,276712,"0.0-4.129-0.129","tno68m877079aw8",593,"181.csv","","224.89999985694885","resources/trios/L1T2A2.jpg","38","restless",0.5,0.6,0.5,0.653592752676605,"false"
"image-keyboard-response",400,277125,"0.0-4.129-1.129","tno68m877079aw8",593,"181.csv","","null","resources/maskTrios/BT2B.jpg","null","",NA,NA,NA,NA,""
"image-keyboard-response",401,278338,"0.0-4.129-2.129","tno68m877079aw8",593,"181.csv","","null","resources/images/fishbone.png","null","",NA,NA,NA,NA,""
"image-keyboard-response",402,278502,"0.0-4.130-0.130","tno68m877079aw8",593,"181.csv","","163.10000014305115","resources/trios/L1T2A2.jpg","39","restless",0.6,0.6,0.5,0.494325105077249,"true"
"image-keyboard-response",403,278916,"0.0-4.130-1.130","tno68m877079aw8",593,"181.csv","","null","resources/maskTrios/BBA2.jpg","null","",NA,NA,NA,NA,""
"image-keyboard-response",404,280133,"0.0-4.130-2.130","tno68m877079aw8",593,"181.csv","","null","resources/images/coin2.png","null","",NA,NA,NA,NA,""
"image-keyboard-response",405,280358,"0.0-4.131-0.131","tno68m877079aw8",593,"181.csv","","222.89999985694885","resources/trios/L1T2A2.jpg","37","restless",0.6,0.6,0.5,0.0748068713778076,"true"
"image-keyboard-response",406,280760,"0.0-4.131-1.131","tno68m877079aw8",593,"181.csv","","null","resources/maskTrios/L1BB.jpg","null","",NA,NA,NA,NA,""
"image-keyboard-response",407,281968,"0.0-4.131-2.131","tno68m877079aw8",593,"181.csv","","null","resources/images/coin2.png","null","",NA,NA,NA,NA,""
"image-keyboard-response",408,282206,"0.0-4.132-0.132","tno68m877079aw8",593,"181.csv","","237","resources/trios/L1T2A2.jpg","39","restless",0.6,0.6,0.5,0.845827197938642,"false"
"image-keyboard-response",409,282610,"0.0-4.132-1.132","tno68m877079aw8",593,"181.csv","","null","resources/maskTrios/BBA2.jpg","null","",NA,NA,NA,NA,""
"image-keyboard-response",410,283824,"0.0-4.132-2.132","tno68m877079aw8",593,"181.csv","","null","resources/images/fishbone.png","null","",NA,NA,NA,NA,""
"image-keyboard-response",411,284015,"0.0-4.133-0.133","tno68m877079aw8",593,"181.csv","","189.09999990463257","resources/trios/L1T2A2.jpg","37","restless",0.6,0.6,0.5,0.389548577075737,"true"
"image-keyboard-response",412,284427,"0.0-4.133-1.133","tno68m877079aw8",593,"181.csv","","null","resources/maskTrios/L1BB.jpg","null","",NA,NA,NA,NA,""
"image-keyboard-response",413,285639,"0.0-4.133-2.133","tno68m877079aw8",593,"181.csv","","null","resources/images/coin2.png","null","",NA,NA,NA,NA,""
"image-keyboard-response",414,285765,"0.0-4.134-0.134","tno68m877079aw8",593,"181.csv","","124.90000009536743","resources/trios/L1T2A2.jpg","38","restless",0.6,0.6,0.5,0.679226833406103,"false"
"image-keyboard-response",415,286171,"0.0-4.134-1.134","tno68m877079aw8",593,"181.csv","","null","resources/maskTrios/BT2B.jpg","null","",NA,NA,NA,NA,""
"image-keyboard-response",416,287377,"0.0-4.134-2.134","tno68m877079aw8",593,"181.csv","","null","resources/images/fishbone.png","null","",NA,NA,NA,NA,""
"image-keyboard-response",417,287586,"0.0-4.135-0.135","tno68m877079aw8",593,"181.csv","","206.40000009536743","resources/trios/L1T2A2.jpg","37","restless",0.6,0.6,0.4,0.44346553480305,"true"
"image-keyboard-response",418,287989,"0.0-4.135-1.135","tno68m877079aw8",593,"181.csv","","null","resources/maskTrios/L1BB.jpg","null","",NA,NA,NA,NA,""
"image-keyboard-response",419,289191,"0.0-4.135-2.135","tno68m877079aw8",593,"181.csv","","null","resources/images/coin2.png","null","",NA,NA,NA,NA,""
"image-keyboard-response",420,289411,"0.0-4.136-0.136","tno68m877079aw8",593,"181.csv","","217.60000014305115","resources/trios/L1T2A2.jpg","37","restless",0.6,0.6,0.4,0.791916031595558,"false"
"image-keyboard-response",421,289815,"0.0-4.136-1.136","tno68m877079aw8",593,"181.csv","","null","resources/maskTrios/L1BB.jpg","null","",NA,NA,NA,NA,""
"image-keyboard-response",422,291020,"0.0-4.136-2.136","tno68m877079aw8",593,"181.csv","","null","resources/images/fishbone.png","null","",NA,NA,NA,NA,""
"image-keyboard-response",423,291191,"0.0-4.137-0.137","tno68m877079aw8",593,"181.csv","","168.5","resources/trios/L1T2A2.jpg","39","restless",0.6,0.6,0.4,0.679457669507625,"false"
"image-keyboard-response",424,291602,"0.0-4.137-1.137","tno68m877079aw8",593,"181.csv","","null","resources/maskTrios/BBA2.jpg","null","",NA,NA,NA,NA,""
"image-keyboard-response",425,292819,"0.0-4.137-2.137","tno68m877079aw8",593,"181.csv","","null","resources/images/fishbone.png","null","",NA,NA,NA,NA,""
"image-keyboard-response",426,292919,"0.0-4.138-0.138","tno68m877079aw8",593,"181.csv","","96.60000014305115","resources/trios/L1T2A2.jpg","38","restless",0.6,0.6,0.4,0.829189486028528,"false"
"image-keyboard-response",427,293324,"0.0-4.138-1.138","tno68m877079aw8",593,"181.csv","","null","resources/maskTrios/BT2B.jpg","null","",NA,NA,NA,NA,""
"image-keyboard-response",428,294528,"0.0-4.138-2.138","tno68m877079aw8",593,"181.csv","","null","resources/images/fishbone.png","null","",NA,NA,NA,NA,""
"image-keyboard-response",429,294685,"0.0-4.139-0.139","tno68m877079aw8",593,"181.csv","","155.70000004768372","resources/trios/L1T2A2.jpg","37","restless",0.6,0.6,0.3,0.280034580539968,"true"
"image-keyboard-response",430,295093,"0.0-4.139-1.139","tno68m877079aw8",593,"181.csv","","null","resources/maskTrios/L1BB.jpg","null","",NA,NA,NA,NA,""
"image-keyboard-response",431,296299,"0.0-4.139-2.139","tno68m877079aw8",593,"181.csv","","null","resources/images/coin2.png","null","",NA,NA,NA,NA,""
"image-keyboard-response",432,296383,"0.0-4.140-0.140","tno68m877079aw8",593,"181.csv","","81.20000004768372","resources/trios/L1T2A2.jpg","37","restless",0.6,0.6,0.3,0.354161852566416,"true"
"image-keyboard-response",433,296786,"0.0-4.140-1.140","tno68m877079aw8",593,"181.csv","","null","resources/maskTrios/L1BB.jpg","null","",NA,NA,NA,NA,""
"image-keyboard-response",434,298002,"0.0-4.140-2.140","tno68m877079aw8",593,"181.csv","","null","resources/images/coin2.png","null","",NA,NA,NA,NA,""
"image-keyboard-response",435,298175,"0.0-4.141-0.141","tno68m877079aw8",593,"181.csv","","172.10000014305115","resources/trios/L1T2A2.jpg","37","restless",0.6,0.6,0.3,0.801172958041309,"false"
"image-keyboard-response",436,298592,"0.0-4.141-1.141","tno68m877079aw8",593,"181.csv","","null","resources/maskTrios/L1BB.jpg","null","",NA,NA,NA,NA,""
"image-keyboard-response",437,299798,"0.0-4.141-2.141","tno68m877079aw8",593,"181.csv","","null","resources/images/fishbone.png","null","",NA,NA,NA,NA,""
"image-keyboard-response",438,299857,"0.0-4.142-0.142","tno68m877079aw8",593,"181.csv","","53.90000009536743","resources/trios/L1T2A2.jpg","39","restless",0.6,0.6,0.3,0.973067952545707,"false"
"image-keyboard-response",439,300268,"0.0-4.142-1.142","tno68m877079aw8",593,"181.csv","","null","resources/maskTrios/BBA2.jpg","null","",NA,NA,NA,NA,""
"image-keyboard-response",440,301484,"0.0-4.142-2.142","tno68m877079aw8",593,"181.csv","","null","resources/images/fishbone.png","null","",NA,NA,NA,NA,""
"image-keyboard-response",441,301543,"0.0-4.143-0.143","tno68m877079aw8",593,"181.csv","","56.39999985694885","resources/trios/L1T2A2.jpg","38","restless",0.6,0.6,0.3,0.658766733206654,"false"
"image-keyboard-response",442,301945,"0.0-4.143-1.143","tno68m877079aw8",593,"181.csv","","null","resources/maskTrios/BT2B.jpg","null","",NA,NA,NA,NA,""
"image-keyboard-response",443,303147,"0.0-4.143-2.143","tno68m877079aw8",593,"181.csv","","null","resources/images/fishbone.png","null","",NA,NA,NA,NA,""
"image-keyboard-response",444,303311,"0.0-4.144-0.144","tno68m877079aw8",593,"181.csv","","162.40000009536743","resources/trios/L1T2A2.jpg","37","restless",0.6,0.6,0.3,0.974133278054603,"false"
"image-keyboard-response",445,303724,"0.0-4.144-1.144","tno68m877079aw8",593,"181.csv","","null","resources/maskTrios/L1BB.jpg","null","",NA,NA,NA,NA,""
"image-keyboard-response",446,304939,"0.0-4.144-2.144","tno68m877079aw8",593,"181.csv","","null","resources/images/fishbone.png","null","",NA,NA,NA,NA,""
"image-keyboard-response",447,305116,"0.0-4.145-0.145","tno68m877079aw8",593,"181.csv","","173.90000009536743","resources/trios/L1T2A2.jpg","39","restless",0.6,0.6,0.3,0.685127685521399,"false"
"image-keyboard-response",448,305520,"0.0-4.145-1.145","tno68m877079aw8",593,"181.csv","","null","resources/maskTrios/BBA2.jpg","null","",NA,NA,NA,NA,""
"image-keyboard-response",449,306729,"0.0-4.145-2.145","tno68m877079aw8",593,"181.csv","","null","resources/images/fishbone.png","null","",NA,NA,NA,NA,""
"image-keyboard-response",450,306960,"0.0-4.146-0.146","tno68m877079aw8",593,"181.csv","","229.79999995231628","resources/trios/L1T2A2.jpg","38","restless",0.6,0.6,0.3,0.405556038869957,"true"
"image-keyboard-response",451,307368,"0.0-4.146-1.146","tno68m877079aw8",593,"181.csv","","null","resources/maskTrios/BT2B.jpg","null","",NA,NA,NA,NA,""
"image-keyboard-response",452,308580,"0.0-4.146-2.146","tno68m877079aw8",593,"181.csv","","null","resources/images/coin2.png","null","",NA,NA,NA,NA,""
"image-keyboard-response",453,308817,"0.0-4.147-0.147","tno68m877079aw8",593,"181.csv","","234.70000004768372","resources/trios/L1T2A2.jpg","38","restless",0.6,0.6,0.4,0.60863742017485,"false"
"image-keyboard-response",454,309222,"0.0-4.147-1.147","tno68m877079aw8",593,"181.csv","","null","resources/maskTrios/BT2B.jpg","null","",NA,NA,NA,NA,""
"image-keyboard-response",455,310431,"0.0-4.147-2.147","tno68m877079aw8",593,"181.csv","","null","resources/images/fishbone.png","null","",NA,NA,NA,NA,""
"image-keyboard-response",456,310584,"0.0-4.148-0.148","tno68m877079aw8",593,"181.csv","","152.59999990463257","resources/trios/L1T2A2.jpg","39","restless",0.6,0.6,0.5,0.36898599826502,"true"
"image-keyboard-response",457,310992,"0.0-4.148-1.148","tno68m877079aw8",593,"181.csv","","null","resources/maskTrios/BBA2.jpg","null","",NA,NA,NA,NA,""
"image-keyboard-response",458,312208,"0.0-4.148-2.148","tno68m877079aw8",593,"181.csv","","null","resources/images/coin2.png","null","",NA,NA,NA,NA,""
"image-keyboard-response",459,312971,"0.0-4.149-0.149","tno68m877079aw8",593,"181.csv","","762.3000001907349","resources/trios/L1T2A2.jpg","38","restless",0.6,0.6,0.5,0.0966945084485531,"true"
"image-keyboard-response",460,313381,"0.0-4.149-1.149","tno68m877079aw8",593,"181.csv","","null","resources/maskTrios/BT2B.jpg","null","",NA,NA,NA,NA,""
"image-keyboard-response",461,314594,"0.0-4.149-2.149","tno68m877079aw8",593,"181.csv","","null","resources/images/coin2.png","null","",NA,NA,NA,NA,""
"image-keyboard-response",462,314785,"0.0-4.150-0.150","tno68m877079aw8",593,"181.csv","","190.09999990463257","resources/trios/L1T2A2.jpg","37","restless",0.6,0.6,0.5,0.944058378375463,"false"
"image-keyboard-response",463,315198,"0.0-4.150-1.150","tno68m877079aw8",593,"181.csv","","null","resources/maskTrios/L1BB.jpg","null","",NA,NA,NA,NA,""
"image-keyboard-response",464,316400,"0.0-4.150-2.150","tno68m877079aw8",593,"181.csv","","null","resources/images/fishbone.png","null","",NA,NA,NA,NA,""
"image-keyboard-response",465,316599,"0.0-4.151-0.151","tno68m877079aw8",593,"181.csv","","197.5","resources/trios/L1T2A2.jpg","39","restless",0.6,0.6,0.5,0.667911592491822,"false"
"image-keyboard-response",466,317012,"0.0-4.151-1.151","tno68m877079aw8",593,"181.csv","","null","resources/maskTrios/BBA2.jpg","null","",NA,NA,NA,NA,""
"image-keyboard-response",467,318213,"0.0-4.151-2.151","tno68m877079aw8",593,"181.csv","","null","resources/images/fishbone.png","null","",NA,NA,NA,NA,""
"image-keyboard-response",468,318270,"0.0-4.152-0.152","tno68m877079aw8",593,"181.csv","","54.299999952316284","resources/trios/L1T2A2.jpg","38","restless",0.6,0.6,0.5,0.809549720840475,"false"
"image-keyboard-response",469,318672,"0.0-4.152-1.152","tno68m877079aw8",593,"181.csv","","null","resources/maskTrios/BT2B.jpg","null","",NA,NA,NA,NA,""
"image-keyboard-response",470,319876,"0.0-4.152-2.152","tno68m877079aw8",593,"181.csv","","null","resources/images/fishbone.png","null","",NA,NA,NA,NA,""
"image-keyboard-response",471,320030,"0.0-4.153-0.153","tno68m877079aw8",593,"181.csv","","150.5","resources/trios/L1T2A2.jpg","37","restless",0.6,0.6,0.5,0.0272488850598054,"true"
"image-keyboard-response",472,320432,"0.0-4.153-1.153","tno68m877079aw8",593,"181.csv","","null","resources/maskTrios/L1BB.jpg","null","",NA,NA,NA,NA,""
"image-keyboard-response",473,321642,"0.0-4.153-2.153","tno68m877079aw8",593,"181.csv","","null","resources/images/coin2.png","null","",NA,NA,NA,NA,""
"image-keyboard-response",474,321808,"0.0-4.154-0.154","tno68m877079aw8",593,"181.csv","","163.19999980926514","resources/trios/L1T2A2.jpg","39","restless",0.6,0.6,0.5,0.932823116436321,"false"
"image-keyboard-response",475,322223,"0.0-4.154-1.154","tno68m877079aw8",593,"181.csv","","null","resources/maskTrios/BBA2.jpg","null","",NA,NA,NA,NA,""
"image-keyboard-response",476,323428,"0.0-4.154-2.154","tno68m877079aw8",593,"181.csv","","null","resources/images/fishbone.png","null","",NA,NA,NA,NA,""
"image-keyboard-response",477,323651,"0.0-4.155-0.155","tno68m877079aw8",593,"181.csv","","221.39999985694885","resources/trios/L1T2A2.jpg","38","restless",0.6,0.6,0.5,0.0888756117812692,"true"
"image-keyboard-response",478,324058,"0.0-4.155-1.155","tno68m877079aw8",593,"181.csv","","null","resources/maskTrios/BT2B.jpg","null","",NA,NA,NA,NA,""
"image-keyboard-response",479,325276,"0.0-4.155-2.155","tno68m877079aw8",593,"181.csv","","null","resources/images/coin2.png","null","",NA,NA,NA,NA,""
"image-keyboard-response",480,325392,"0.0-4.156-0.156","tno68m877079aw8",593,"181.csv","","115.20000004768372","resources/trios/L1T2A2.jpg","37","restless",0.6,0.6,0.5,0.464312895977781,"true"
"image-keyboard-response",481,325808,"0.0-4.156-1.156","tno68m877079aw8",593,"181.csv","","null","resources/maskTrios/L1BB.jpg","null","",NA,NA,NA,NA,""
"image-keyboard-response",482,327016,"0.0-4.156-2.156","tno68m877079aw8",593,"181.csv","","null","resources/images/coin2.png","null","",NA,NA,NA,NA,""
"image-keyboard-response",483,327046,"0.0-4.157-0.157","tno68m877079aw8",593,"181.csv","","27.100000143051147","resources/trios/L1T2A2.jpg","39","restless",0.6,0.6,0.5,0.311636980865827,"true"
"image-keyboard-response",484,327450,"0.0-4.157-1.157","tno68m877079aw8",593,"181.csv","","null","resources/maskTrios/BBA2.jpg","null","",NA,NA,NA,NA,""
"image-keyboard-response",485,328652,"0.0-4.157-2.157","tno68m877079aw8",593,"181.csv","","null","resources/images/coin2.png","null","",NA,NA,NA,NA,""
"image-keyboard-response",486,328837,"0.0-4.158-0.158","tno68m877079aw8",593,"181.csv","","184.29999995231628","resources/trios/L1T2A2.jpg","38","restless",0.6,0.6,0.5,0.572866601289983,"true"
"image-keyboard-response",487,329248,"0.0-4.158-1.158","tno68m877079aw8",593,"181.csv","","null","resources/maskTrios/BT2B.jpg","null","",NA,NA,NA,NA,""
"image-keyboard-response",488,330451,"0.0-4.158-2.158","tno68m877079aw8",593,"181.csv","","null","resources/images/coin2.png","null","",NA,NA,NA,NA,""
"image-keyboard-response",489,330527,"0.0-4.159-0.159","tno68m877079aw8",593,"181.csv","","73.70000004768372","resources/trios/L1T2A2.jpg","37","restless",0.7,0.6,0.6,0.803267788618998,"false"
"image-keyboard-response",490,330930,"0.0-4.159-1.159","tno68m877079aw8",593,"181.csv","","null","resources/maskTrios/L1BB.jpg","null","",NA,NA,NA,NA,""
"image-keyboard-response",491,332143,"0.0-4.159-2.159","tno68m877079aw8",593,"181.csv","","null","resources/images/fishbone.png","null","",NA,NA,NA,NA,""
"image-keyboard-response",492,332178,"0.0-4.160-0.160","tno68m877079aw8",593,"181.csv","","33.799999952316284","resources/trios/L1T2A2.jpg","39","restless",0.7,0.6,0.6,0.90760031780266,"false"
"image-keyboard-response",493,332585,"0.0-4.160-1.160","tno68m877079aw8",593,"181.csv","","null","resources/maskTrios/BBA2.jpg","null","",NA,NA,NA,NA,""
"image-keyboard-response",494,333800,"0.0-4.160-2.160","tno68m877079aw8",593,"181.csv","","null","resources/images/fishbone.png","null","",NA,NA,NA,NA,""
"image-keyboard-response",495,333996,"0.0-4.161-0.161","tno68m877079aw8",593,"181.csv","","194.40000009536743","resources/trios/L1T2A2.jpg","38","restless",0.7,0.6,0.6,0.495609553224315,"true"
"image-keyboard-response",496,334407,"0.0-4.161-1.161","tno68m877079aw8",593,"181.csv","","null","resources/maskTrios/BT2B.jpg","null","",NA,NA,NA,NA,""
"image-keyboard-response",497,335614,"0.0-4.161-2.161","tno68m877079aw8",593,"181.csv","","null","resources/images/coin2.png","null","",NA,NA,NA,NA,""
"image-keyboard-response",498,335676,"0.0-4.162-0.162","tno68m877079aw8",593,"181.csv","","59.40000009536743","resources/trios/L1T2A2.jpg","38","restless",0.7,0.6,0.6,0.838454302897684,"false"
"image-keyboard-response",499,336090,"0.0-4.162-1.162","tno68m877079aw8",593,"181.csv","","null","resources/maskTrios/BT2B.jpg","null","",NA,NA,NA,NA,""
"image-keyboard-response",500,337293,"0.0-4.162-2.162","tno68m877079aw8",593,"181.csv","","null","resources/images/fishbone.png","null","",NA,NA,NA,NA,""
"image-keyboard-response",501,337440,"0.0-4.163-0.163","tno68m877079aw8",593,"181.csv","","146.29999995231628","resources/trios/L1T2A2.jpg","37","restless",0.7,0.6,0.6,0.792732664586031,"false"
"image-keyboard-response",502,337857,"0.0-4.163-1.163","tno68m877079aw8",593,"181.csv","","null","resources/maskTrios/L1BB.jpg","null","",NA,NA,NA,NA,""
"image-keyboard-response",503,339066,"0.0-4.163-2.163","tno68m877079aw8",593,"181.csv","","null","resources/images/fishbone.png","null","",NA,NA,NA,NA,""
"image-keyboard-response",504,339156,"0.0-4.164-0.164","tno68m877079aw8",593,"181.csv","","87.59999990463257","resources/trios/L1T2A2.jpg","39","restless",0.7,0.6,0.6,0.194165560397582,"true"
"image-keyboard-response",505,339566,"0.0-4.164-1.164","tno68m877079aw8",593,"181.csv","","null","resources/maskTrios/BBA2.jpg","null","",NA,NA,NA,NA,""
"image-keyboard-response",506,340768,"0.0-4.164-2.164","tno68m877079aw8",593,"181.csv","","null","resources/images/coin2.png","null","",NA,NA,NA,NA,""
"image-keyboard-response",507,340849,"0.0-4.165-0.165","tno68m877079aw8",593,"181.csv","","79.29999995231628","resources/trios/L1T2A2.jpg","39","restless",0.7,0.6,0.6,0.694531668220152,"false"
"image-keyboard-response",508,341251,"0.0-4.165-1.165","tno68m877079aw8",593,"181.csv","","null","resources/maskTrios/BBA2.jpg","null","",NA,NA,NA,NA,""
"image-keyboard-response",509,342466,"0.0-4.165-2.165","tno68m877079aw8",593,"181.csv","","null","resources/images/fishbone.png","null","",NA,NA,NA,NA,""
"image-keyboard-response",510,342593,"0.0-4.166-0.166","tno68m877079aw8",593,"181.csv","","127","resources/trios/L1T2A2.jpg","38","restless",0.7,0.6,0.6,0.107443077535883,"true"
"image-keyboard-response",511,343000,"0.0-4.166-1.166","tno68m877079aw8",593,"181.csv","","null","resources/maskTrios/BT2B.jpg","null","",NA,NA,NA,NA,""
"image-keyboard-response",512,344204,"0.0-4.166-2.166","tno68m877079aw8",593,"181.csv","","null","resources/images/coin2.png","null","",NA,NA,NA,NA,""
"image-keyboard-response",513,344276,"0.0-4.167-0.167","tno68m877079aw8",593,"181.csv","","69.29999995231628","resources/trios/L1T2A2.jpg","38","restless",0.6,0.6,0.6,0.240956561116637,"true"
"image-keyboard-response",514,344692,"0.0-4.167-1.167","tno68m877079aw8",593,"181.csv","","null","resources/maskTrios/BT2B.jpg","null","",NA,NA,NA,NA,""
"image-keyboard-response",515,345906,"0.0-4.167-2.167","tno68m877079aw8",593,"181.csv","","null","resources/images/coin2.png","null","",NA,NA,NA,NA,""
"image-keyboard-response",516,346012,"0.0-4.168-0.168","tno68m877079aw8",593,"181.csv","","105.20000004768372","resources/trios/L1T2A2.jpg","38","restless",0.6,0.6,0.6,0.228883657181661,"true"
"image-keyboard-response",517,346424,"0.0-4.168-1.168","tno68m877079aw8",593,"181.csv","","null","resources/maskTrios/BT2B.jpg","null","",NA,NA,NA,NA,""
"image-keyboard-response",518,347638,"0.0-4.168-2.168","tno68m877079aw8",593,"181.csv","","null","resources/images/coin2.png","null","",NA,NA,NA,NA,""
"image-keyboard-response",519,347699,"0.0-4.169-0.169","tno68m877079aw8",593,"181.csv","","61.09999990463257","resources/trios/L1T2A2.jpg","38","restless",0.6,0.6,0.6,0.517748167877594,"true"
"image-keyboard-response",520,348110,"0.0-4.169-1.169","tno68m877079aw8",593,"181.csv","","null","resources/maskTrios/BT2B.jpg","null","",NA,NA,NA,NA,""
"image-keyboard-response",521,349319,"0.0-4.169-2.169","tno68m877079aw8",593,"181.csv","","null","resources/images/coin2.png","null","",NA,NA,NA,NA,""
"image-keyboard-response",522,349349,"0.0-4.170-0.170","tno68m877079aw8",593,"181.csv","","28","resources/trios/L1T2A2.jpg","38","restless",0.6,0.6,0.6,0.872373457046945,"false"
"image-keyboard-response",523,349758,"0.0-4.170-1.170","tno68m877079aw8",593,"181.csv","","null","resources/maskTrios/BT2B.jpg","null","",NA,NA,NA,NA,""
"image-keyboard-response",524,350963,"0.0-4.170-2.170","tno68m877079aw8",593,"181.csv","","null","resources/images/fishbone.png","null","",NA,NA,NA,NA,""
"image-keyboard-response",525,351029,"0.0-4.171-0.171","tno68m877079aw8",593,"181.csv","","62.799999952316284","resources/trios/L1T2A2.jpg","37","restless",0.6,0.6,0.6,0.453186669470707,"true"
"image-keyboard-response",526,351436,"0.0-4.171-1.171","tno68m877079aw8",593,"181.csv","","null","resources/maskTrios/L1BB.jpg","null","",NA,NA,NA,NA,""
"image-keyboard-response",527,352650,"0.0-4.171-2.171","tno68m877079aw8",593,"181.csv","","null","resources/images/coin2.png","null","",NA,NA,NA,NA,""
"image-keyboard-response",528,352710,"0.0-4.172-0.172","tno68m877079aw8",593,"181.csv","","57.299999952316284","resources/trios/L1T2A2.jpg","37","restless",0.6,0.6,0.6,0.268925676645475,"true"
"image-keyboard-response",529,353123,"0.0-4.172-1.172","tno68m877079aw8",593,"181.csv","","null","resources/maskTrios/L1BB.jpg","null","",NA,NA,NA,NA,""
"image-keyboard-response",530,354326,"0.0-4.172-2.172","tno68m877079aw8",593,"181.csv","","null","resources/images/coin2.png","null","",NA,NA,NA,NA,""
"image-keyboard-response",531,354363,"0.0-4.173-0.173","tno68m877079aw8",593,"181.csv","","36","resources/trios/L1T2A2.jpg","37","restless",0.6,0.6,0.6,0.053499649731662,"true"
"image-keyboard-response",532,354766,"0.0-4.173-1.173","tno68m877079aw8",593,"181.csv","","null","resources/maskTrios/L1BB.jpg","null","",NA,NA,NA,NA,""
"image-keyboard-response",533,355981,"0.0-4.173-2.173","tno68m877079aw8",593,"181.csv","","null","resources/images/coin2.png","null","",NA,NA,NA,NA,""
"image-keyboard-response",534,355991,"0.0-4.174-0.174","tno68m877079aw8",593,"181.csv","","8.899999856948853","resources/trios/L1T2A2.jpg","37","restless",0.6,0.6,0.6,0.541292938768575,"true"
"image-keyboard-response",535,356406,"0.0-4.174-1.174","tno68m877079aw8",593,"181.csv","","null","resources/maskTrios/L1BB.jpg","null","",NA,NA,NA,NA,""
"image-keyboard-response",536,357620,"0.0-4.174-2.174","tno68m877079aw8",593,"181.csv","","null","resources/images/coin2.png","null","",NA,NA,NA,NA,""
"image-keyboard-response",537,357707,"0.0-4.175-0.175","tno68m877079aw8",593,"181.csv","","86.39999985694885","resources/trios/L1T2A2.jpg","37","restless",0.6,0.5,0.6,0.550095540503245,"true"
"image-keyboard-response",538,358123,"0.0-4.175-1.175","tno68m877079aw8",593,"181.csv","","null","resources/maskTrios/L1BB.jpg","null","",NA,NA,NA,NA,""
"image-keyboard-response",539,359338,"0.0-4.175-2.175","tno68m877079aw8",593,"181.csv","","null","resources/images/coin2.png","null","",NA,NA,NA,NA,""
"image-keyboard-response",540,359393,"0.0-4.176-0.176","tno68m877079aw8",593,"181.csv","","53.799999952316284","resources/trios/L1T2A2.jpg","37","restless",0.6,0.5,0.6,0.907497292789355,"false"
"image-keyboard-response",541,359807,"0.0-4.176-1.176","tno68m877079aw8",593,"181.csv","","null","resources/maskTrios/L1BB.jpg","null","",NA,NA,NA,NA,""
"image-keyboard-response",542,361010,"0.0-4.176-2.176","tno68m877079aw8",593,"181.csv","","null","resources/images/fishbone.png","null","",NA,NA,NA,NA,""
"image-keyboard-response",543,361068,"0.0-4.177-0.177","tno68m877079aw8",593,"181.csv","","57.60000014305115","resources/trios/L1T2A2.jpg","39","restless",0.6,0.5,0.6,0.626115694511728,"false"
"image-keyboard-response",544,361480,"0.0-4.177-1.177","tno68m877079aw8",593,"181.csv","","null","resources/maskTrios/BBA2.jpg","null","",NA,NA,NA,NA,""
"image-keyboard-response",545,362686,"0.0-4.177-2.177","tno68m877079aw8",593,"181.csv","","null","resources/images/fishbone.png","null","",NA,NA,NA,NA,""
"image-keyboard-response",546,362726,"0.0-4.178-0.178","tno68m877079aw8",593,"181.csv","","39.200000047683716","resources/trios/L1T2A2.jpg","38","restless",0.6,0.5,0.6,0.919262788237248,"false"
"image-keyboard-response",547,363130,"0.0-4.178-1.178","tno68m877079aw8",593,"181.csv","","null","resources/maskTrios/BT2B.jpg","null","",NA,NA,NA,NA,""
"image-keyboard-response",548,364340,"0.0-4.178-2.178","tno68m877079aw8",593,"181.csv","","null","resources/images/fishbone.png","null","",NA,NA,NA,NA,""
"image-keyboard-response",549,364367,"0.0-4.179-0.179","tno68m877079aw8",593,"181.csv","","25.799999952316284","resources/trios/L1T2A2.jpg","37","restless",0.6,0.5,0.6,0.559526176816842,"true"
"image-keyboard-response",550,364775,"0.0-4.179-1.179","tno68m877079aw8",593,"181.csv","","null","resources/maskTrios/L1BB.jpg","null","",NA,NA,NA,NA,""
"image-keyboard-response",551,365986,"0.0-4.179-2.179","tno68m877079aw8",593,"181.csv","","null","resources/images/coin2.png","null","",NA,NA,NA,NA,""
"image-keyboard-response",552,366008,"0.0-4.180-0.180","tno68m877079aw8",593,"181.csv","","20.299999952316284","resources/trios/L1T2A2.jpg","37","restless",0.6,0.5,0.6,0.979211245987129,"false"
"image-keyboard-response",553,366412,"0.0-4.180-1.180","tno68m877079aw8",593,"181.csv","","null","resources/maskTrios/L1BB.jpg","null","",NA,NA,NA,NA,""
"image-keyboard-response",554,367628,"0.0-4.180-2.180","tno68m877079aw8",593,"181.csv","","null","resources/images/fishbone.png","null","",NA,NA,NA,NA,""
"image-keyboard-response",555,367673,"0.0-4.181-0.181","tno68m877079aw8",593,"181.csv","","42.799999952316284","resources/trios/L1T2A2.jpg","39","restless",0.6,0.5,0.6,0.886281767529224,"false"
"image-keyboard-response",556,368084,"0.0-4.181-1.181","tno68m877079aw8",593,"181.csv","","null","resources/maskTrios/BBA2.jpg","null","",NA,NA,NA,NA,""
"image-keyboard-response",557,369290,"0.0-4.181-2.181","tno68m877079aw8",593,"181.csv","","null","resources/images/fishbone.png","null","",NA,NA,NA,NA,""
"image-keyboard-response",558,370009,"0.0-4.182-0.182","tno68m877079aw8",593,"181.csv","","717.5999999046326","resources/trios/L1T2A2.jpg","38","restless",0.5,0.4,0.6,0.139106013591185,"true"
"image-keyboard-response",559,370418,"0.0-4.182-1.182","tno68m877079aw8",593,"181.csv","","null","resources/maskTrios/BT2B.jpg","null","",NA,NA,NA,NA,""
"image-keyboard-response",560,371626,"0.0-4.182-2.182","tno68m877079aw8",593,"181.csv","","null","resources/images/coin2.png","null","",NA,NA,NA,NA,""
"image-keyboard-response",561,371810,"0.0-4.183-0.183","tno68m877079aw8",593,"181.csv","","183.5","resources/trios/L1T2A2.jpg","38","restless",0.6,0.4,0.6,0.985399432930679,"false"
"image-keyboard-response",562,372226,"0.0-4.183-1.183","tno68m877079aw8",593,"181.csv","","null","resources/maskTrios/BT2B.jpg","null","",NA,NA,NA,NA,""
"image-keyboard-response",563,373433,"0.0-4.183-2.183","tno68m877079aw8",593,"181.csv","","null","resources/images/fishbone.png","null","",NA,NA,NA,NA,""
"image-keyboard-response",564,374230,"0.0-4.184-0.184","tno68m877079aw8",593,"181.csv","","795.1999998092651","resources/trios/L1T2A2.jpg","37","restless",0.6,0.4,0.6,0.433770373452966,"true"
"image-keyboard-response",565,374638,"0.0-4.184-1.184","tno68m877079aw8",593,"181.csv","","null","resources/maskTrios/L1BB.jpg","null","",NA,NA,NA,NA,""
"image-keyboard-response",566,375840,"0.0-4.184-2.184","tno68m877079aw8",593,"181.csv","","null","resources/images/coin2.png","null","",NA,NA,NA,NA,""
"image-keyboard-response",567,376110,"0.0-4.185-0.185","tno68m877079aw8",593,"181.csv","","269.90000009536743","resources/trios/L1T2A2.jpg","37","restless",0.6,0.4,0.5,0.184596082515729,"true"
"image-keyboard-response",568,376520,"0.0-4.185-1.185","tno68m877079aw8",593,"181.csv","","null","resources/maskTrios/L1BB.jpg","null","",NA,NA,NA,NA,""
"image-keyboard-response",569,377730,"0.0-4.185-2.185","tno68m877079aw8",593,"181.csv","","null","resources/images/coin2.png","null","",NA,NA,NA,NA,""
"image-keyboard-response",570,377874,"0.0-4.186-0.186","tno68m877079aw8",593,"181.csv","","142","resources/trios/L1T2A2.jpg","37","restless",0.7,0.3,0.5,0.978420388254919,"false"
"image-keyboard-response",571,378280,"0.0-4.186-1.186","tno68m877079aw8",593,"181.csv","","null","resources/maskTrios/L1BB.jpg","null","",NA,NA,NA,NA,""
"image-keyboard-response",572,379483,"0.0-4.186-2.186","tno68m877079aw8",593,"181.csv","","null","resources/images/fishbone.png","null","",NA,NA,NA,NA,""
"image-keyboard-response",573,379643,"0.0-4.187-0.187","tno68m877079aw8",593,"181.csv","","157.29999995231628","resources/trios/L1T2A2.jpg","39","restless",0.7,0.3,0.5,0.212836839146171,"true"
"image-keyboard-response",574,380052,"0.0-4.187-1.187","tno68m877079aw8",593,"181.csv","","null","resources/maskTrios/BBA2.jpg","null","",NA,NA,NA,NA,""
"image-keyboard-response",575,381264,"0.0-4.187-2.187","tno68m877079aw8",593,"181.csv","","null","resources/images/coin2.png","null","",NA,NA,NA,NA,""
"image-keyboard-response",576,381834,"0.0-4.188-0.188","tno68m877079aw8",593,"181.csv","","567.0999999046326","resources/trios/L1T2A2.jpg","39","restless",0.7,0.3,0.5,0.806452272680282,"false"
"image-keyboard-response",577,382250,"0.0-4.188-1.188","tno68m877079aw8",593,"181.csv","","null","resources/maskTrios/BBA2.jpg","null","",NA,NA,NA,NA,""
"image-keyboard-response",578,383452,"0.0-4.188-2.188","tno68m877079aw8",593,"181.csv","","null","resources/images/fishbone.png","null","",NA,NA,NA,NA,""
"image-keyboard-response",579,383757,"0.0-4.189-0.189","tno68m877079aw8",593,"181.csv","","301.90000009536743","resources/trios/L1T2A2.jpg","38","restless",0.7,0.3,0.5,0.310022480689604,"false"
"image-keyboard-response",580,384158,"0.0-4.189-1.189","tno68m877079aw8",593,"181.csv","","null","resources/maskTrios/BT2B.jpg","null","",NA,NA,NA,NA,""
"image-keyboard-response",581,385360,"0.0-4.189-2.189","tno68m877079aw8",593,"181.csv","","null","resources/images/fishbone.png","null","",NA,NA,NA,NA,""
"image-keyboard-response",582,385450,"0.0-4.190-0.190","tno68m877079aw8",593,"181.csv","","89","resources/trios/L1T2A2.jpg","37","restless",0.7,0.3,0.5,0.734407850647681,"false"
"image-keyboard-response",583,385856,"0.0-4.190-1.190","tno68m877079aw8",593,"181.csv","","null","resources/maskTrios/L1BB.jpg","null","",NA,NA,NA,NA,""
"image-keyboard-response",584,387073,"0.0-4.190-2.190","tno68m877079aw8",593,"181.csv","","null","resources/images/fishbone.png","null","",NA,NA,NA,NA,""
"image-keyboard-response",585,387273,"0.0-4.191-0.191","tno68m877079aw8",593,"181.csv","","197.29999995231628","resources/trios/L1T2A2.jpg","39","restless",0.7,0.3,0.5,0.707717868065505,"false"
"image-keyboard-response",586,387683,"0.0-4.191-1.191","tno68m877079aw8",593,"181.csv","","null","resources/maskTrios/BBA2.jpg","null","",NA,NA,NA,NA,""
"image-keyboard-response",587,388890,"0.0-4.191-2.191","tno68m877079aw8",593,"181.csv","","null","resources/images/fishbone.png","null","",NA,NA,NA,NA,""
"image-keyboard-response",588,389012,"0.0-4.192-0.192","tno68m877079aw8",593,"181.csv","","120.09999990463257","resources/trios/L1T2A2.jpg","38","restless",0.7,0.3,0.4,0.718164410374863,"false"
"image-keyboard-response",589,389424,"0.0-4.192-1.192","tno68m877079aw8",593,"181.csv","","null","resources/maskTrios/BT2B.jpg","null","",NA,NA,NA,NA,""
"image-keyboard-response",590,390638,"0.0-4.192-2.192","tno68m877079aw8",593,"181.csv","","null","resources/images/fishbone.png","null","",NA,NA,NA,NA,""
"image-keyboard-response",591,390818,"0.0-4.193-0.193","tno68m877079aw8",593,"181.csv","","178.70000004768372","resources/trios/L1T2A2.jpg","37","restless",0.7,0.3,0.4,0.995000686331716,"false"
"image-keyboard-response",592,391236,"0.0-4.193-1.193","tno68m877079aw8",593,"181.csv","","null","resources/maskTrios/L1BB.jpg","null","",NA,NA,NA,NA,""
"image-keyboard-response",593,392449,"0.0-4.193-2.193","tno68m877079aw8",593,"181.csv","","null","resources/images/fishbone.png","null","",NA,NA,NA,NA,""
"image-keyboard-response",594,392651,"0.0-4.194-0.194","tno68m877079aw8",593,"181.csv","","200","resources/trios/L1T2A2.jpg","39","restless",0.7,0.3,0.4,0.268755847086675,"true"
"image-keyboard-response",595,393056,"0.0-4.194-1.194","tno68m877079aw8",593,"181.csv","","null","resources/maskTrios/BBA2.jpg","null","",NA,NA,NA,NA,""
"image-keyboard-response",596,394264,"0.0-4.194-2.194","tno68m877079aw8",593,"181.csv","","null","resources/images/coin2.png","null","",NA,NA,NA,NA,""
"image-keyboard-response",597,394416,"0.0-4.195-0.195","tno68m877079aw8",593,"181.csv","","150.89999985694885","resources/trios/L1T2A2.jpg","39","restless",0.7,0.3,0.4,0.206534897145831,"true"
"image-keyboard-response",598,394823,"0.0-4.195-1.195","tno68m877079aw8",593,"181.csv","","null","resources/maskTrios/BBA2.jpg","null","",NA,NA,NA,NA,""
"image-keyboard-response",599,396027,"0.0-4.195-2.195","tno68m877079aw8",593,"181.csv","","null","resources/images/coin2.png","null","",NA,NA,NA,NA,""
"image-keyboard-response",600,396214,"0.0-4.196-0.196","tno68m877079aw8",593,"181.csv","","187","resources/trios/L1T2A2.jpg","39","restless",0.7,0.3,0.4,0.548481578780575,"false"
"image-keyboard-response",601,396624,"0.0-4.196-1.196","tno68m877079aw8",593,"181.csv","","null","resources/maskTrios/BBA2.jpg","null","",NA,NA,NA,NA,""
"image-keyboard-response",602,397830,"0.0-4.196-2.196","tno68m877079aw8",593,"181.csv","","null","resources/images/fishbone.png","null","",NA,NA,NA,NA,""
"image-keyboard-response",603,398020,"0.0-4.197-0.197","tno68m877079aw8",593,"181.csv","","187","resources/trios/L1T2A2.jpg","38","restless",0.7,0.3,0.4,0.402733132242729,"false"
"image-keyboard-response",604,398433,"0.0-4.197-1.197","tno68m877079aw8",593,"181.csv","","null","resources/maskTrios/BT2B.jpg","null","",NA,NA,NA,NA,""
"image-keyboard-response",605,399646,"0.0-4.197-2.197","tno68m877079aw8",593,"181.csv","","null","resources/images/fishbone.png","null","",NA,NA,NA,NA,""
"image-keyboard-response",606,399707,"0.0-4.198-0.198","tno68m877079aw8",593,"181.csv","","60","resources/trios/L1T2A2.jpg","37","restless",0.7,0.3,0.4,0.00698954803478813,"true"
"image-keyboard-response",607,400114,"0.0-4.198-1.198","tno68m877079aw8",593,"181.csv","","null","resources/maskTrios/L1BB.jpg","null","",NA,NA,NA,NA,""
"image-keyboard-response",608,401332,"0.0-4.198-2.198","tno68m877079aw8",593,"181.csv","","null","resources/images/coin2.png","null","",NA,NA,NA,NA,""
