"trial_type","trial_index","time_elapsed","internal_node_id","subject","participantCode","walkNumber","success","rt","stimulus","key_press","test_part","leftProb","midProb","rightProb","generatedNum","correct"
"pavlovia",0,843,"0.0-0.0","7erbets5yqww8xn",462,"16.csv","","","","","",NA,NA,NA,NA,""
"fullscreen",1,3162,"0.0-1.0","7erbets5yqww8xn",462,"16.csv","true","","","","",NA,NA,NA,NA,""
"survey-html-form",2,14787,"0.0-2.0","7erbets5yqww8xn",462,"16.csv","","11612.100000023842","","","",NA,NA,NA,NA,""
"image-keyboard-response",3,17191,"0.0-3.0-0.0","7erbets5yqww8xn",462,"16.csv","","2400.800000011921","resources/images/parrot_nobg.png","13","",NA,NA,NA,NA,""
"image-keyboard-response",4,20193,"0.0-3.0-1.0","7erbets5yqww8xn",462,"16.csv","","null","resources/image_sets/111.png","null","",NA,NA,NA,NA,""
"image-keyboard-response",5,24452,"0.0-3.0-2.0","7erbets5yqww8xn",462,"16.csv","","4258.399999976158","resources/image_sets/left_highlight.png","37","",NA,NA,NA,NA,""
"image-keyboard-response",6,25158,"0.0-3.0-3.0","7erbets5yqww8xn",462,"16.csv","","704.8000000119209","resources/image_sets/mid_highlight.png","38","",NA,NA,NA,NA,""
"image-keyboard-response",7,25658,"0.0-3.0-4.0","7erbets5yqww8xn",462,"16.csv","","499.30000001192093","resources/image_sets/right_highlight.png","39","",NA,NA,NA,NA,""
"image-keyboard-response",8,29784,"0.0-3.0-5.0","7erbets5yqww8xn",462,"16.csv","","4125.200000047684","resources/image_sets/111.png","13","",NA,NA,NA,NA,""
"image-keyboard-response",9,32407,"0.0-3.0-6.0","7erbets5yqww8xn",462,"16.csv","","2621.800000011921","resources/images/coin2.png","13","",NA,NA,NA,NA,""
"image-keyboard-response",10,33411,"0.0-3.0-7.0","7erbets5yqww8xn",462,"16.csv","","1003","resources/images/fishbone.png","13","",NA,NA,NA,NA,""
"html-keyboard-response",11,34701,"0.0-3.0-8.0","7erbets5yqww8xn",462,"16.csv","","1288.3999999761581","<p>You can track your coin total on the top right of your screen. </p><p>At the end of your journey you will be directed to a survey, so please click on the link before exiting the task</p><p>Press Enter to begin</p>","13","",NA,NA,NA,NA,""
"image-keyboard-response",12,36132,"0.0-4.0-0.0","7erbets5yqww8xn",462,"16.csv","","1430","resources/trios/L4T2A3.jpg","37","restless",0.9,0.3,0.7,0.833918834128371,"true"
"image-keyboard-response",13,36536,"0.0-4.0-1.0","7erbets5yqww8xn",462,"16.csv","","null","resources/maskTrios/L4BB.jpg","null","",NA,NA,NA,NA,""
"image-keyboard-response",14,37739,"0.0-4.0-2.0","7erbets5yqww8xn",462,"16.csv","","null","resources/images/coin2.png","null","",NA,NA,NA,NA,""
"image-keyboard-response",15,38672,"0.0-4.1-0.1","7erbets5yqww8xn",462,"16.csv","","931.3999999761581","resources/trios/L4T2A3.jpg","37","restless",0.9,0.3,0.7,0.410818883881024,"true"
"image-keyboard-response",16,39074,"0.0-4.1-1.1","7erbets5yqww8xn",462,"16.csv","","null","resources/maskTrios/L4BB.jpg","null","",NA,NA,NA,NA,""
"image-keyboard-response",17,40280,"0.0-4.1-2.1","7erbets5yqww8xn",462,"16.csv","","null","resources/images/coin2.png","null","",NA,NA,NA,NA,""
"image-keyboard-response",18,40861,"0.0-4.2-0.2","7erbets5yqww8xn",462,"16.csv","","579.8999999761581","resources/trios/L4T2A3.jpg","37","restless",0.9,0.3,0.7,0.692698359451123,"true"
"image-keyboard-response",19,41267,"0.0-4.2-1.2","7erbets5yqww8xn",462,"16.csv","","null","resources/maskTrios/L4BB.jpg","null","",NA,NA,NA,NA,""
"image-keyboard-response",20,42472,"0.0-4.2-2.2","7erbets5yqww8xn",462,"16.csv","","null","resources/images/coin2.png","null","",NA,NA,NA,NA,""
"image-keyboard-response",21,43637,"0.0-4.3-0.3","7erbets5yqww8xn",462,"16.csv","","1163.3999999761581","resources/trios/L4T2A3.jpg","37","restless",0.9,0.3,0.7,0.363227400381903,"true"
"image-keyboard-response",22,44041,"0.0-4.3-1.3","7erbets5yqww8xn",462,"16.csv","","null","resources/maskTrios/L4BB.jpg","null","",NA,NA,NA,NA,""
"image-keyboard-response",23,45243,"0.0-4.3-2.3","7erbets5yqww8xn",462,"16.csv","","null","resources/images/coin2.png","null","",NA,NA,NA,NA,""
"image-keyboard-response",24,47088,"0.0-4.4-0.4","7erbets5yqww8xn",462,"16.csv","","1842.8999999761581","resources/trios/L4T2A3.jpg","37","restless",0.8,0.3,0.7,0.52280323899124,"true"
"image-keyboard-response",25,47490,"0.0-4.4-1.4","7erbets5yqww8xn",462,"16.csv","","null","resources/maskTrios/L4BB.jpg","null","",NA,NA,NA,NA,""
"image-keyboard-response",26,48694,"0.0-4.4-2.4","7erbets5yqww8xn",462,"16.csv","","null","resources/images/coin2.png","null","",NA,NA,NA,NA,""
"image-keyboard-response",27,49138,"0.0-4.5-0.5","7erbets5yqww8xn",462,"16.csv","","443","resources/trios/L4T2A3.jpg","37","restless",0.8,0.3,0.7,0.959327533274218,"false"
"image-keyboard-response",28,49539,"0.0-4.5-1.5","7erbets5yqww8xn",462,"16.csv","","null","resources/maskTrios/L4BB.jpg","null","",NA,NA,NA,NA,""
"image-keyboard-response",29,50741,"0.0-4.5-2.5","7erbets5yqww8xn",462,"16.csv","","null","resources/images/fishbone.png","null","",NA,NA,NA,NA,""
"image-keyboard-response",30,53954,"0.0-4.6-0.6","7erbets5yqww8xn",462,"16.csv","","3212.199999988079","resources/trios/L4T2A3.jpg","39","restless",0.8,0.3,0.8,0.818275593062667,"false"
"image-keyboard-response",31,54357,"0.0-4.6-1.6","7erbets5yqww8xn",462,"16.csv","","null","resources/maskTrios/BBA3.jpg","null","",NA,NA,NA,NA,""
"image-keyboard-response",32,55564,"0.0-4.6-2.6","7erbets5yqww8xn",462,"16.csv","","null","resources/images/fishbone.png","null","",NA,NA,NA,NA,""
"image-keyboard-response",33,56905,"0.0-4.7-0.7","7erbets5yqww8xn",462,"16.csv","","1340.1000000238419","resources/trios/L4T2A3.jpg","39","restless",0.7,0.3,0.8,0.0623331707313626,"true"
"image-keyboard-response",34,57309,"0.0-4.7-1.7","7erbets5yqww8xn",462,"16.csv","","null","resources/maskTrios/BBA3.jpg","null","",NA,NA,NA,NA,""
"image-keyboard-response",35,58514,"0.0-4.7-2.7","7erbets5yqww8xn",462,"16.csv","","null","resources/images/coin2.png","null","",NA,NA,NA,NA,""
"image-keyboard-response",36,58898,"0.0-4.8-0.8","7erbets5yqww8xn",462,"16.csv","","383.4000000357628","resources/trios/L4T2A3.jpg","39","restless",0.7,0.3,0.8,0.473923158121763,"true"
"image-keyboard-response",37,59300,"0.0-4.8-1.8","7erbets5yqww8xn",462,"16.csv","","null","resources/maskTrios/BBA3.jpg","null","",NA,NA,NA,NA,""
"image-keyboard-response",38,60505,"0.0-4.8-2.8","7erbets5yqww8xn",462,"16.csv","","null","resources/images/coin2.png","null","",NA,NA,NA,NA,""
"image-keyboard-response",39,60794,"0.0-4.9-0.9","7erbets5yqww8xn",462,"16.csv","","287.10000002384186","resources/trios/L4T2A3.jpg","39","restless",0.7,0.3,0.8,0.991758261623269,"false"
"image-keyboard-response",40,61196,"0.0-4.9-1.9","7erbets5yqww8xn",462,"16.csv","","null","resources/maskTrios/BBA3.jpg","null","",NA,NA,NA,NA,""
"image-keyboard-response",41,62403,"0.0-4.9-2.9","7erbets5yqww8xn",462,"16.csv","","null","resources/images/fishbone.png","null","",NA,NA,NA,NA,""
"image-keyboard-response",42,62763,"0.0-4.10-0.10","7erbets5yqww8xn",462,"16.csv","","358.5","resources/trios/L4T2A3.jpg","39","restless",0.6,0.3,0.7,0.177192760380054,"true"
"image-keyboard-response",43,63169,"0.0-4.10-1.10","7erbets5yqww8xn",462,"16.csv","","null","resources/maskTrios/BBA3.jpg","null","",NA,NA,NA,NA,""
"image-keyboard-response",44,64374,"0.0-4.10-2.10","7erbets5yqww8xn",462,"16.csv","","null","resources/images/coin2.png","null","",NA,NA,NA,NA,""
"image-keyboard-response",45,64729,"0.0-4.11-0.11","7erbets5yqww8xn",462,"16.csv","","353.89999997615814","resources/trios/L4T2A3.jpg","39","restless",0.6,0.3,0.6,0.235753817232736,"true"
"image-keyboard-response",46,65132,"0.0-4.11-1.11","7erbets5yqww8xn",462,"16.csv","","null","resources/maskTrios/BBA3.jpg","null","",NA,NA,NA,NA,""
"image-keyboard-response",47,66334,"0.0-4.11-2.11","7erbets5yqww8xn",462,"16.csv","","null","resources/images/coin2.png","null","",NA,NA,NA,NA,""
"image-keyboard-response",48,66540,"0.0-4.12-0.12","7erbets5yqww8xn",462,"16.csv","","205.20000004768372","resources/trios/L4T2A3.jpg","39","restless",0.6,0.3,0.6,0.795262621483371,"false"
"image-keyboard-response",49,66943,"0.0-4.12-1.12","7erbets5yqww8xn",462,"16.csv","","null","resources/maskTrios/BBA3.jpg","null","",NA,NA,NA,NA,""
"image-keyboard-response",50,68145,"0.0-4.12-2.12","7erbets5yqww8xn",462,"16.csv","","null","resources/images/fishbone.png","null","",NA,NA,NA,NA,""
"image-keyboard-response",51,68538,"0.0-4.13-0.13","7erbets5yqww8xn",462,"16.csv","","392","resources/trios/L4T2A3.jpg","39","restless",0.6,0.3,0.6,0.550308397203243,"true"
"image-keyboard-response",52,68942,"0.0-4.13-1.13","7erbets5yqww8xn",462,"16.csv","","null","resources/maskTrios/BBA3.jpg","null","",NA,NA,NA,NA,""
"image-keyboard-response",53,70148,"0.0-4.13-2.13","7erbets5yqww8xn",462,"16.csv","","null","resources/images/coin2.png","null","",NA,NA,NA,NA,""
"image-keyboard-response",54,70393,"0.0-4.14-0.14","7erbets5yqww8xn",462,"16.csv","","243.60000002384186","resources/trios/L4T2A3.jpg","39","restless",0.6,0.3,0.6,0.276392373717231,"true"
"image-keyboard-response",55,70798,"0.0-4.14-1.14","7erbets5yqww8xn",462,"16.csv","","null","resources/maskTrios/BBA3.jpg","null","",NA,NA,NA,NA,""
"image-keyboard-response",56,72000,"0.0-4.14-2.14","7erbets5yqww8xn",462,"16.csv","","null","resources/images/coin2.png","null","",NA,NA,NA,NA,""
"image-keyboard-response",57,72458,"0.0-4.15-0.15","7erbets5yqww8xn",462,"16.csv","","456.89999997615814","resources/trios/L4T2A3.jpg","38","restless",0.7,0.3,0.6,0.104715628661927,"true"
"image-keyboard-response",58,72864,"0.0-4.15-1.15","7erbets5yqww8xn",462,"16.csv","","null","resources/maskTrios/BT2B.jpg","null","",NA,NA,NA,NA,""
"image-keyboard-response",59,74066,"0.0-4.15-2.15","7erbets5yqww8xn",462,"16.csv","","null","resources/images/coin2.png","null","",NA,NA,NA,NA,""
"image-keyboard-response",60,74429,"0.0-4.16-0.16","7erbets5yqww8xn",462,"16.csv","","361.69999998807907","resources/trios/L4T2A3.jpg","38","restless",0.7,0.2,0.6,0.219717447883083,"false"
"image-keyboard-response",61,74831,"0.0-4.16-1.16","7erbets5yqww8xn",462,"16.csv","","null","resources/maskTrios/BT2B.jpg","null","",NA,NA,NA,NA,""
"image-keyboard-response",62,76033,"0.0-4.16-2.16","7erbets5yqww8xn",462,"16.csv","","null","resources/images/fishbone.png","null","",NA,NA,NA,NA,""
"image-keyboard-response",63,76275,"0.0-4.17-0.17","7erbets5yqww8xn",462,"16.csv","","240.30000001192093","resources/trios/L4T2A3.jpg","38","restless",0.7,0.2,0.6,0.581322809244232,"false"
"image-keyboard-response",64,76677,"0.0-4.17-1.17","7erbets5yqww8xn",462,"16.csv","","null","resources/maskTrios/BT2B.jpg","null","",NA,NA,NA,NA,""
"image-keyboard-response",65,77880,"0.0-4.17-2.17","7erbets5yqww8xn",462,"16.csv","","null","resources/images/fishbone.png","null","",NA,NA,NA,NA,""
"image-keyboard-response",66,78115,"0.0-4.18-0.18","7erbets5yqww8xn",462,"16.csv","","234.4000000357628","resources/trios/L4T2A3.jpg","38","restless",0.7,0.2,0.6,0.210661244222929,"false"
"image-keyboard-response",67,78519,"0.0-4.18-1.18","7erbets5yqww8xn",462,"16.csv","","null","resources/maskTrios/BT2B.jpg","null","",NA,NA,NA,NA,""
"image-keyboard-response",68,79724,"0.0-4.18-2.18","7erbets5yqww8xn",462,"16.csv","","null","resources/images/fishbone.png","null","",NA,NA,NA,NA,""
"image-keyboard-response",69,79746,"0.0-4.19-0.19","7erbets5yqww8xn",462,"16.csv","","21.19999998807907","resources/trios/L4T2A3.jpg","39","restless",0.7,0.2,0.6,0.902746777138035,"false"
"image-keyboard-response",70,80150,"0.0-4.19-1.19","7erbets5yqww8xn",462,"16.csv","","null","resources/maskTrios/BBA3.jpg","null","",NA,NA,NA,NA,""
"image-keyboard-response",71,81352,"0.0-4.19-2.19","7erbets5yqww8xn",462,"16.csv","","null","resources/images/fishbone.png","null","",NA,NA,NA,NA,""
"image-keyboard-response",72,81823,"0.0-4.20-0.20","7erbets5yqww8xn",462,"16.csv","","470","resources/trios/L4T2A3.jpg","39","restless",0.7,0.3,0.6,0.492254707715881,"true"
"image-keyboard-response",73,82225,"0.0-4.20-1.20","7erbets5yqww8xn",462,"16.csv","","null","resources/maskTrios/BBA3.jpg","null","",NA,NA,NA,NA,""
"image-keyboard-response",74,83430,"0.0-4.20-2.20","7erbets5yqww8xn",462,"16.csv","","null","resources/images/coin2.png","null","",NA,NA,NA,NA,""
"image-keyboard-response",75,83754,"0.0-4.21-0.21","7erbets5yqww8xn",462,"16.csv","","322.60000002384186","resources/trios/L4T2A3.jpg","39","restless",0.7,0.3,0.6,0.682087304660967,"false"
"image-keyboard-response",76,84157,"0.0-4.21-1.21","7erbets5yqww8xn",462,"16.csv","","null","resources/maskTrios/BBA3.jpg","null","",NA,NA,NA,NA,""
"image-keyboard-response",77,85363,"0.0-4.21-2.21","7erbets5yqww8xn",462,"16.csv","","null","resources/images/fishbone.png","null","",NA,NA,NA,NA,""
"image-keyboard-response",78,85723,"0.0-4.22-0.22","7erbets5yqww8xn",462,"16.csv","","359","resources/trios/L4T2A3.jpg","39","restless",0.7,0.2,0.6,0.610847934759542,"false"
"image-keyboard-response",79,86129,"0.0-4.22-1.22","7erbets5yqww8xn",462,"16.csv","","null","resources/maskTrios/BBA3.jpg","null","",NA,NA,NA,NA,""
"image-keyboard-response",80,87331,"0.0-4.22-2.22","7erbets5yqww8xn",462,"16.csv","","null","resources/images/fishbone.png","null","",NA,NA,NA,NA,""
"image-keyboard-response",81,87372,"0.0-4.23-0.23","7erbets5yqww8xn",462,"16.csv","","40","resources/trios/L4T2A3.jpg","37","restless",0.7,0.2,0.5,0.307392033840277,"true"
"image-keyboard-response",82,87775,"0.0-4.23-1.23","7erbets5yqww8xn",462,"16.csv","","null","resources/maskTrios/L4BB.jpg","null","",NA,NA,NA,NA,""
"image-keyboard-response",83,88979,"0.0-4.23-2.23","7erbets5yqww8xn",462,"16.csv","","null","resources/images/coin2.png","null","",NA,NA,NA,NA,""
"image-keyboard-response",84,90293,"0.0-4.24-0.24","7erbets5yqww8xn",462,"16.csv","","1313","resources/trios/L4T2A3.jpg","37","restless",0.6,0.2,0.5,0.306994211863706,"true"
"image-keyboard-response",85,90698,"0.0-4.24-1.24","7erbets5yqww8xn",462,"16.csv","","null","resources/maskTrios/L4BB.jpg","null","",NA,NA,NA,NA,""
"image-keyboard-response",86,91900,"0.0-4.24-2.24","7erbets5yqww8xn",462,"16.csv","","null","resources/images/coin2.png","null","",NA,NA,NA,NA,""
"image-keyboard-response",87,92375,"0.0-4.25-0.25","7erbets5yqww8xn",462,"16.csv","","473.9000000357628","resources/trios/L4T2A3.jpg","37","restless",0.6,0.2,0.5,0.78607743306857,"false"
"image-keyboard-response",88,92781,"0.0-4.25-1.25","7erbets5yqww8xn",462,"16.csv","","null","resources/maskTrios/L4BB.jpg","null","",NA,NA,NA,NA,""
"image-keyboard-response",89,93984,"0.0-4.25-2.25","7erbets5yqww8xn",462,"16.csv","","null","resources/images/fishbone.png","null","",NA,NA,NA,NA,""
"image-keyboard-response",90,94337,"0.0-4.26-0.26","7erbets5yqww8xn",462,"16.csv","","352.69999998807907","resources/trios/L4T2A3.jpg","37","restless",0.6,0.2,0.5,0.821710422683478,"false"
"image-keyboard-response",91,94744,"0.0-4.26-1.26","7erbets5yqww8xn",462,"16.csv","","null","resources/maskTrios/L4BB.jpg","null","",NA,NA,NA,NA,""
"image-keyboard-response",92,95946,"0.0-4.26-2.26","7erbets5yqww8xn",462,"16.csv","","null","resources/images/fishbone.png","null","",NA,NA,NA,NA,""
"image-keyboard-response",93,96283,"0.0-4.27-0.27","7erbets5yqww8xn",462,"16.csv","","336.39999997615814","resources/trios/L4T2A3.jpg","39","restless",0.6,0.2,0.5,0.242603733108408,"true"
"image-keyboard-response",94,96690,"0.0-4.27-1.27","7erbets5yqww8xn",462,"16.csv","","null","resources/maskTrios/BBA3.jpg","null","",NA,NA,NA,NA,""
"image-keyboard-response",95,97893,"0.0-4.27-2.27","7erbets5yqww8xn",462,"16.csv","","null","resources/images/coin2.png","null","",NA,NA,NA,NA,""
"image-keyboard-response",96,98361,"0.0-4.28-0.28","7erbets5yqww8xn",462,"16.csv","","466.69999998807907","resources/trios/L4T2A3.jpg","39","restless",0.6,0.2,0.4,0.268776917624286,"true"
"image-keyboard-response",97,98767,"0.0-4.28-1.28","7erbets5yqww8xn",462,"16.csv","","null","resources/maskTrios/BBA3.jpg","null","",NA,NA,NA,NA,""
"image-keyboard-response",98,99969,"0.0-4.28-2.28","7erbets5yqww8xn",462,"16.csv","","null","resources/images/coin2.png","null","",NA,NA,NA,NA,""
"image-keyboard-response",99,100090,"0.0-4.29-0.29","7erbets5yqww8xn",462,"16.csv","","120","resources/trios/L4T2A3.jpg","39","restless",0.6,0.2,0.4,0.00724973283746055,"true"
"image-keyboard-response",100,100491,"0.0-4.29-1.29","7erbets5yqww8xn",462,"16.csv","","null","resources/maskTrios/BBA3.jpg","null","",NA,NA,NA,NA,""
"image-keyboard-response",101,101694,"0.0-4.29-2.29","7erbets5yqww8xn",462,"16.csv","","null","resources/images/coin2.png","null","",NA,NA,NA,NA,""
"image-keyboard-response",102,101891,"0.0-4.30-0.30","7erbets5yqww8xn",462,"16.csv","","195.80000001192093","resources/trios/L4T2A3.jpg","39","restless",0.6,0.2,0.4,0.977288065940827,"false"
"image-keyboard-response",103,102297,"0.0-4.30-1.30","7erbets5yqww8xn",462,"16.csv","","null","resources/maskTrios/BBA3.jpg","null","",NA,NA,NA,NA,""
"image-keyboard-response",104,103499,"0.0-4.30-2.30","7erbets5yqww8xn",462,"16.csv","","null","resources/images/fishbone.png","null","",NA,NA,NA,NA,""
"image-keyboard-response",105,103688,"0.0-4.31-0.31","7erbets5yqww8xn",462,"16.csv","","188.39999997615814","resources/trios/L4T2A3.jpg","39","restless",0.6,0.2,0.4,0.78845602628537,"false"
"image-keyboard-response",106,104090,"0.0-4.31-1.31","7erbets5yqww8xn",462,"16.csv","","null","resources/maskTrios/BBA3.jpg","null","",NA,NA,NA,NA,""
"image-keyboard-response",107,105292,"0.0-4.31-2.31","7erbets5yqww8xn",462,"16.csv","","null","resources/images/fishbone.png","null","",NA,NA,NA,NA,""
"image-keyboard-response",108,105595,"0.0-4.32-0.32","7erbets5yqww8xn",462,"16.csv","","301.89999997615814","resources/trios/L4T2A3.jpg","39","restless",0.6,0.2,0.4,0.603599719627808,"false"
"image-keyboard-response",109,105998,"0.0-4.32-1.32","7erbets5yqww8xn",462,"16.csv","","null","resources/maskTrios/BBA3.jpg","null","",NA,NA,NA,NA,""
"image-keyboard-response",110,107200,"0.0-4.32-2.32","7erbets5yqww8xn",462,"16.csv","","null","resources/images/fishbone.png","null","",NA,NA,NA,NA,""
"image-keyboard-response",111,107497,"0.0-4.33-0.33","7erbets5yqww8xn",462,"16.csv","","296.30000001192093","resources/trios/L4T2A3.jpg","38","restless",0.6,0.2,0.4,0.140073961246753,"true"
"image-keyboard-response",112,107899,"0.0-4.33-1.33","7erbets5yqww8xn",462,"16.csv","","null","resources/maskTrios/BT2B.jpg","null","",NA,NA,NA,NA,""
"image-keyboard-response",113,109105,"0.0-4.33-2.33","7erbets5yqww8xn",462,"16.csv","","null","resources/images/coin2.png","null","",NA,NA,NA,NA,""
"image-keyboard-response",114,109391,"0.0-4.34-0.34","7erbets5yqww8xn",462,"16.csv","","284.5999999642372","resources/trios/L4T2A3.jpg","38","restless",0.5,0.2,0.4,0.634313075784177,"false"
"image-keyboard-response",115,109797,"0.0-4.34-1.34","7erbets5yqww8xn",462,"16.csv","","null","resources/maskTrios/BT2B.jpg","null","",NA,NA,NA,NA,""
"image-keyboard-response",116,110999,"0.0-4.34-2.34","7erbets5yqww8xn",462,"16.csv","","null","resources/images/fishbone.png","null","",NA,NA,NA,NA,""
"image-keyboard-response",117,111740,"0.0-4.35-0.35","7erbets5yqww8xn",462,"16.csv","","740.6999999880791","resources/trios/L4T2A3.jpg","38","restless",0.5,0.2,0.4,0.62946721431564,"false"
"image-keyboard-response",118,112146,"0.0-4.35-1.35","7erbets5yqww8xn",462,"16.csv","","null","resources/maskTrios/BT2B.jpg","null","",NA,NA,NA,NA,""
"image-keyboard-response",119,113350,"0.0-4.35-2.35","7erbets5yqww8xn",462,"16.csv","","null","resources/images/fishbone.png","null","",NA,NA,NA,NA,""
"image-keyboard-response",120,114376,"0.0-4.36-0.36","7erbets5yqww8xn",462,"16.csv","","1025.199999988079","resources/trios/L4T2A3.jpg","38","restless",0.4,0.2,0.4,0.91438702374619,"false"
"image-keyboard-response",121,114782,"0.0-4.36-1.36","7erbets5yqww8xn",462,"16.csv","","null","resources/maskTrios/BT2B.jpg","null","",NA,NA,NA,NA,""
"image-keyboard-response",122,115985,"0.0-4.36-2.36","7erbets5yqww8xn",462,"16.csv","","null","resources/images/fishbone.png","null","",NA,NA,NA,NA,""
"image-keyboard-response",123,117585,"0.0-4.37-0.37","7erbets5yqww8xn",462,"16.csv","","1598.5","resources/trios/L4T2A3.jpg","38","restless",0.4,0.2,0.4,0.155262383182699,"true"
"image-keyboard-response",124,117991,"0.0-4.37-1.37","7erbets5yqww8xn",462,"16.csv","","null","resources/maskTrios/BT2B.jpg","null","",NA,NA,NA,NA,""
"image-keyboard-response",125,119196,"0.0-4.37-2.37","7erbets5yqww8xn",462,"16.csv","","null","resources/images/coin2.png","null","",NA,NA,NA,NA,""
"image-keyboard-response",126,119491,"0.0-4.38-0.38","7erbets5yqww8xn",462,"16.csv","","293.60000002384186","resources/trios/L4T2A3.jpg","38","restless",0.4,0.2,0.4,0.781987394448558,"false"
"image-keyboard-response",127,119892,"0.0-4.38-1.38","7erbets5yqww8xn",462,"16.csv","","null","resources/maskTrios/BT2B.jpg","null","",NA,NA,NA,NA,""
"image-keyboard-response",128,121099,"0.0-4.38-2.38","7erbets5yqww8xn",462,"16.csv","","null","resources/images/fishbone.png","null","",NA,NA,NA,NA,""
"image-keyboard-response",129,121640,"0.0-4.39-0.39","7erbets5yqww8xn",462,"16.csv","","540.1999999880791","resources/trios/L4T2A3.jpg","38","restless",0.4,0.2,0.4,0.823997002110752,"false"
"image-keyboard-response",130,122046,"0.0-4.39-1.39","7erbets5yqww8xn",462,"16.csv","","null","resources/maskTrios/BT2B.jpg","null","",NA,NA,NA,NA,""
"image-keyboard-response",131,123247,"0.0-4.39-2.39","7erbets5yqww8xn",462,"16.csv","","null","resources/images/fishbone.png","null","",NA,NA,NA,NA,""
"image-keyboard-response",132,123384,"0.0-4.40-0.40","7erbets5yqww8xn",462,"16.csv","","135.89999997615814","resources/trios/L4T2A3.jpg","37","restless",0.4,0.2,0.4,0.629181473933476,"false"
"image-keyboard-response",133,123787,"0.0-4.40-1.40","7erbets5yqww8xn",462,"16.csv","","null","resources/maskTrios/L4BB.jpg","null","",NA,NA,NA,NA,""
"image-keyboard-response",134,124994,"0.0-4.40-2.40","7erbets5yqww8xn",462,"16.csv","","null","resources/images/fishbone.png","null","",NA,NA,NA,NA,""
"image-keyboard-response",135,125718,"0.0-4.41-0.41","7erbets5yqww8xn",462,"16.csv","","723","resources/trios/L4T2A3.jpg","37","restless",0.4,0.2,0.4,0.724964886408942,"false"
"image-keyboard-response",136,126120,"0.0-4.41-1.41","7erbets5yqww8xn",462,"16.csv","","null","resources/maskTrios/L4BB.jpg","null","",NA,NA,NA,NA,""
"image-keyboard-response",137,127324,"0.0-4.41-2.41","7erbets5yqww8xn",462,"16.csv","","null","resources/images/fishbone.png","null","",NA,NA,NA,NA,""
"image-keyboard-response",138,128203,"0.0-4.42-0.42","7erbets5yqww8xn",462,"16.csv","","878.9000000357628","resources/trios/L4T2A3.jpg","37","restless",0.4,0.2,0.4,0.837264621641868,"false"
"image-keyboard-response",139,128606,"0.0-4.42-1.42","7erbets5yqww8xn",462,"16.csv","","null","resources/maskTrios/L4BB.jpg","null","",NA,NA,NA,NA,""
"image-keyboard-response",140,129807,"0.0-4.42-2.42","7erbets5yqww8xn",462,"16.csv","","null","resources/images/fishbone.png","null","",NA,NA,NA,NA,""
"image-keyboard-response",141,130289,"0.0-4.43-0.43","7erbets5yqww8xn",462,"16.csv","","480.4000000357628","resources/trios/L4T2A3.jpg","38","restless",0.4,0.2,0.4,0.142544009420362,"true"
"image-keyboard-response",142,130696,"0.0-4.43-1.43","7erbets5yqww8xn",462,"16.csv","","null","resources/maskTrios/BT2B.jpg","null","",NA,NA,NA,NA,""
"image-keyboard-response",143,131902,"0.0-4.43-2.43","7erbets5yqww8xn",462,"16.csv","","null","resources/images/coin2.png","null","",NA,NA,NA,NA,""
"image-keyboard-response",144,132416,"0.0-4.44-0.44","7erbets5yqww8xn",462,"16.csv","","512.6000000238419","resources/trios/L4T2A3.jpg","38","restless",0.4,0.2,0.4,0.388353093137099,"false"
"image-keyboard-response",145,132820,"0.0-4.44-1.44","7erbets5yqww8xn",462,"16.csv","","null","resources/maskTrios/BT2B.jpg","null","",NA,NA,NA,NA,""
"image-keyboard-response",146,134022,"0.0-4.44-2.44","7erbets5yqww8xn",462,"16.csv","","null","resources/images/fishbone.png","null","",NA,NA,NA,NA,""
"image-keyboard-response",147,134676,"0.0-4.45-0.45","7erbets5yqww8xn",462,"16.csv","","652.2999999523163","resources/trios/L4T2A3.jpg","38","restless",0.4,0.3,0.4,0.266791053473415,"true"
"image-keyboard-response",148,135081,"0.0-4.45-1.45","7erbets5yqww8xn",462,"16.csv","","null","resources/maskTrios/BT2B.jpg","null","",NA,NA,NA,NA,""
"image-keyboard-response",149,136285,"0.0-4.45-2.45","7erbets5yqww8xn",462,"16.csv","","null","resources/images/coin2.png","null","",NA,NA,NA,NA,""
"image-keyboard-response",150,136694,"0.0-4.46-0.46","7erbets5yqww8xn",462,"16.csv","","408.5","resources/trios/L4T2A3.jpg","38","restless",0.4,0.3,0.3,0.179684668024505,"true"
"image-keyboard-response",151,137099,"0.0-4.46-1.46","7erbets5yqww8xn",462,"16.csv","","null","resources/maskTrios/BT2B.jpg","null","",NA,NA,NA,NA,""
"image-keyboard-response",152,138300,"0.0-4.46-2.46","7erbets5yqww8xn",462,"16.csv","","null","resources/images/coin2.png","null","",NA,NA,NA,NA,""
"image-keyboard-response",153,139002,"0.0-4.47-0.47","7erbets5yqww8xn",462,"16.csv","","700.6999999880791","resources/trios/L4T2A3.jpg","38","restless",0.4,0.3,0.3,0.0605087319683495,"true"
"image-keyboard-response",154,139408,"0.0-4.47-1.47","7erbets5yqww8xn",462,"16.csv","","null","resources/maskTrios/BT2B.jpg","null","",NA,NA,NA,NA,""
"image-keyboard-response",155,140611,"0.0-4.47-2.47","7erbets5yqww8xn",462,"16.csv","","null","resources/images/coin2.png","null","",NA,NA,NA,NA,""
"image-keyboard-response",156,141004,"0.0-4.48-0.48","7erbets5yqww8xn",462,"16.csv","","392.5","resources/trios/L4T2A3.jpg","38","restless",0.4,0.4,0.3,0.426713391153448,"false"
"image-keyboard-response",157,141408,"0.0-4.48-1.48","7erbets5yqww8xn",462,"16.csv","","null","resources/maskTrios/BT2B.jpg","null","",NA,NA,NA,NA,""
"image-keyboard-response",158,142610,"0.0-4.48-2.48","7erbets5yqww8xn",462,"16.csv","","null","resources/images/fishbone.png","null","",NA,NA,NA,NA,""
"image-keyboard-response",159,143309,"0.0-4.49-0.49","7erbets5yqww8xn",462,"16.csv","","697.8000000119209","resources/trios/L4T2A3.jpg","38","restless",0.5,0.4,0.3,2.36631283236921e-05,"true"
"image-keyboard-response",160,143711,"0.0-4.49-1.49","7erbets5yqww8xn",462,"16.csv","","null","resources/maskTrios/BT2B.jpg","null","",NA,NA,NA,NA,""
"image-keyboard-response",161,144917,"0.0-4.49-2.49","7erbets5yqww8xn",462,"16.csv","","null","resources/images/coin2.png","null","",NA,NA,NA,NA,""
"image-keyboard-response",162,145359,"0.0-4.50-0.50","7erbets5yqww8xn",462,"16.csv","","440.5","resources/trios/L4T2A3.jpg","38","restless",0.5,0.4,0.3,0.218427483283784,"true"
"image-keyboard-response",163,145765,"0.0-4.50-1.50","7erbets5yqww8xn",462,"16.csv","","null","resources/maskTrios/BT2B.jpg","null","",NA,NA,NA,NA,""
"image-keyboard-response",164,146969,"0.0-4.50-2.50","7erbets5yqww8xn",462,"16.csv","","null","resources/images/coin2.png","null","",NA,NA,NA,NA,""
"image-keyboard-response",165,149191,"0.0-4.51-0.51","7erbets5yqww8xn",462,"16.csv","","2220.5","resources/trios/L4T2A3.jpg","38","restless",0.5,0.4,0.2,0.755171175620111,"false"
"image-keyboard-response",166,149597,"0.0-4.51-1.51","7erbets5yqww8xn",462,"16.csv","","null","resources/maskTrios/BT2B.jpg","null","",NA,NA,NA,NA,""
"image-keyboard-response",167,150801,"0.0-4.51-2.51","7erbets5yqww8xn",462,"16.csv","","null","resources/images/fishbone.png","null","",NA,NA,NA,NA,""
"image-keyboard-response",168,151615,"0.0-4.52-0.52","7erbets5yqww8xn",462,"16.csv","","812.7999999523163","resources/trios/L4T2A3.jpg","38","restless",0.6,0.4,0.2,0.631756609179761,"false"
"image-keyboard-response",169,152018,"0.0-4.52-1.52","7erbets5yqww8xn",462,"16.csv","","null","resources/maskTrios/BT2B.jpg","null","",NA,NA,NA,NA,""
"image-keyboard-response",170,153220,"0.0-4.52-2.52","7erbets5yqww8xn",462,"16.csv","","null","resources/images/fishbone.png","null","",NA,NA,NA,NA,""
"image-keyboard-response",171,153635,"0.0-4.53-0.53","7erbets5yqww8xn",462,"16.csv","","414.39999997615814","resources/trios/L4T2A3.jpg","39","restless",0.6,0.4,0.2,0.0144164360072701,"true"
"image-keyboard-response",172,154038,"0.0-4.53-1.53","7erbets5yqww8xn",462,"16.csv","","null","resources/maskTrios/BBA3.jpg","null","",NA,NA,NA,NA,""
"image-keyboard-response",173,155240,"0.0-4.53-2.53","7erbets5yqww8xn",462,"16.csv","","null","resources/images/coin2.png","null","",NA,NA,NA,NA,""
"image-keyboard-response",174,155327,"0.0-4.54-0.54","7erbets5yqww8xn",462,"16.csv","","86.19999998807907","resources/trios/L4T2A3.jpg","39","restless",0.6,0.4,0.2,0.437128101595571,"false"
"image-keyboard-response",175,155733,"0.0-4.54-1.54","7erbets5yqww8xn",462,"16.csv","","null","resources/maskTrios/BBA3.jpg","null","",NA,NA,NA,NA,""
"image-keyboard-response",176,156935,"0.0-4.54-2.54","7erbets5yqww8xn",462,"16.csv","","null","resources/images/fishbone.png","null","",NA,NA,NA,NA,""
"image-keyboard-response",177,157055,"0.0-4.55-0.55","7erbets5yqww8xn",462,"16.csv","","118.39999997615814","resources/trios/L4T2A3.jpg","39","restless",0.6,0.4,0.3,0.649558590808898,"false"
"image-keyboard-response",178,157459,"0.0-4.55-1.55","7erbets5yqww8xn",462,"16.csv","","null","resources/maskTrios/BBA3.jpg","null","",NA,NA,NA,NA,""
"image-keyboard-response",179,158665,"0.0-4.55-2.55","7erbets5yqww8xn",462,"16.csv","","null","resources/images/fishbone.png","null","",NA,NA,NA,NA,""
"image-keyboard-response",180,158956,"0.0-4.56-0.56","7erbets5yqww8xn",462,"16.csv","","289.5","resources/trios/L4T2A3.jpg","39","restless",0.6,0.4,0.3,0.225367670930432,"true"
"image-keyboard-response",181,159360,"0.0-4.56-1.56","7erbets5yqww8xn",462,"16.csv","","null","resources/maskTrios/BBA3.jpg","null","",NA,NA,NA,NA,""
"image-keyboard-response",182,160563,"0.0-4.56-2.56","7erbets5yqww8xn",462,"16.csv","","null","resources/images/coin2.png","null","",NA,NA,NA,NA,""
"image-keyboard-response",183,160895,"0.0-4.57-0.57","7erbets5yqww8xn",462,"16.csv","","330.5","resources/trios/L4T2A3.jpg","39","restless",0.6,0.4,0.3,0.15802174775333,"true"
"image-keyboard-response",184,161300,"0.0-4.57-1.57","7erbets5yqww8xn",462,"16.csv","","null","resources/maskTrios/BBA3.jpg","null","",NA,NA,NA,NA,""
"image-keyboard-response",185,162505,"0.0-4.57-2.57","7erbets5yqww8xn",462,"16.csv","","null","resources/images/coin2.png","null","",NA,NA,NA,NA,""
"image-keyboard-response",186,162948,"0.0-4.58-0.58","7erbets5yqww8xn",462,"16.csv","","442.4000000357628","resources/trios/L4T2A3.jpg","39","restless",0.6,0.4,0.3,0.314410295420349,"false"
"image-keyboard-response",187,163355,"0.0-4.58-1.58","7erbets5yqww8xn",462,"16.csv","","null","resources/maskTrios/BBA3.jpg","null","",NA,NA,NA,NA,""
"image-keyboard-response",188,164557,"0.0-4.58-2.58","7erbets5yqww8xn",462,"16.csv","","null","resources/images/fishbone.png","null","",NA,NA,NA,NA,""
"image-keyboard-response",189,165187,"0.0-4.59-0.59","7erbets5yqww8xn",462,"16.csv","","628.5","resources/trios/L4T2A3.jpg","39","restless",0.6,0.4,0.2,0.753933591592528,"false"
"image-keyboard-response",190,165589,"0.0-4.59-1.59","7erbets5yqww8xn",462,"16.csv","","null","resources/maskTrios/BBA3.jpg","null","",NA,NA,NA,NA,""
"image-keyboard-response",191,166793,"0.0-4.59-2.59","7erbets5yqww8xn",462,"16.csv","","null","resources/images/fishbone.png","null","",NA,NA,NA,NA,""
"image-keyboard-response",192,167184,"0.0-4.60-0.60","7erbets5yqww8xn",462,"16.csv","","389.30000001192093","resources/trios/L4T2A3.jpg","37","restless",0.6,0.5,0.2,0.373176068889653,"true"
"image-keyboard-response",193,167587,"0.0-4.60-1.60","7erbets5yqww8xn",462,"16.csv","","null","resources/maskTrios/L4BB.jpg","null","",NA,NA,NA,NA,""
"image-keyboard-response",194,168789,"0.0-4.60-2.60","7erbets5yqww8xn",462,"16.csv","","null","resources/images/coin2.png","null","",NA,NA,NA,NA,""
"image-keyboard-response",195,169777,"0.0-4.61-0.61","7erbets5yqww8xn",462,"16.csv","","987","resources/trios/L4T2A3.jpg","37","restless",0.6,0.5,0.2,0.348163449757355,"true"
"image-keyboard-response",196,170182,"0.0-4.61-1.61","7erbets5yqww8xn",462,"16.csv","","null","resources/maskTrios/L4BB.jpg","null","",NA,NA,NA,NA,""
"image-keyboard-response",197,171387,"0.0-4.61-2.61","7erbets5yqww8xn",462,"16.csv","","null","resources/images/coin2.png","null","",NA,NA,NA,NA,""
"image-keyboard-response",198,171872,"0.0-4.62-0.62","7erbets5yqww8xn",462,"16.csv","","484.10000002384186","resources/trios/L4T2A3.jpg","37","restless",0.6,0.5,0.2,0.243372329960793,"true"
"image-keyboard-response",199,172278,"0.0-4.62-1.62","7erbets5yqww8xn",462,"16.csv","","null","resources/maskTrios/L4BB.jpg","null","",NA,NA,NA,NA,""
"image-keyboard-response",200,173480,"0.0-4.62-2.62","7erbets5yqww8xn",462,"16.csv","","null","resources/images/coin2.png","null","",NA,NA,NA,NA,""
"image-keyboard-response",201,174101,"0.0-4.63-0.63","7erbets5yqww8xn",462,"16.csv","","620.9000000357628","resources/trios/L4T2A3.jpg","37","restless",0.6,0.5,0.2,0.816392241611721,"false"
"image-keyboard-response",202,174507,"0.0-4.63-1.63","7erbets5yqww8xn",462,"16.csv","","null","resources/maskTrios/L4BB.jpg","null","",NA,NA,NA,NA,""
"image-keyboard-response",203,175709,"0.0-4.63-2.63","7erbets5yqww8xn",462,"16.csv","","null","resources/images/fishbone.png","null","",NA,NA,NA,NA,""
"image-keyboard-response",204,176226,"0.0-4.64-0.64","7erbets5yqww8xn",462,"16.csv","","515.6999999880791","resources/trios/L4T2A3.jpg","37","restless",0.6,0.5,0.2,0.36005293099606,"true"
"image-keyboard-response",205,176632,"0.0-4.64-1.64","7erbets5yqww8xn",462,"16.csv","","null","resources/maskTrios/L4BB.jpg","null","",NA,NA,NA,NA,""
"image-keyboard-response",206,177839,"0.0-4.64-2.64","7erbets5yqww8xn",462,"16.csv","","null","resources/images/coin2.png","null","",NA,NA,NA,NA,""
"image-keyboard-response",207,178366,"0.0-4.65-0.65","7erbets5yqww8xn",462,"16.csv","","525.6000000238419","resources/trios/L4T2A3.jpg","37","restless",0.6,0.5,0.2,0.314310636795141,"true"
"image-keyboard-response",208,178768,"0.0-4.65-1.65","7erbets5yqww8xn",462,"16.csv","","null","resources/maskTrios/L4BB.jpg","null","",NA,NA,NA,NA,""
"image-keyboard-response",209,179975,"0.0-4.65-2.65","7erbets5yqww8xn",462,"16.csv","","null","resources/images/coin2.png","null","",NA,NA,NA,NA,""
"image-keyboard-response",210,180399,"0.0-4.66-0.66","7erbets5yqww8xn",462,"16.csv","","422.69999998807907","resources/trios/L4T2A3.jpg","37","restless",0.6,0.5,0.3,0.590989680241021,"true"
"image-keyboard-response",211,180806,"0.0-4.66-1.66","7erbets5yqww8xn",462,"16.csv","","null","resources/maskTrios/L4BB.jpg","null","",NA,NA,NA,NA,""
"image-keyboard-response",212,182007,"0.0-4.66-2.66","7erbets5yqww8xn",462,"16.csv","","null","resources/images/coin2.png","null","",NA,NA,NA,NA,""
"image-keyboard-response",213,182365,"0.0-4.67-0.67","7erbets5yqww8xn",462,"16.csv","","356.30000001192093","resources/trios/L4T2A3.jpg","37","restless",0.6,0.5,0.3,0.496831659284502,"true"
"image-keyboard-response",214,182766,"0.0-4.67-1.67","7erbets5yqww8xn",462,"16.csv","","null","resources/maskTrios/L4BB.jpg","null","",NA,NA,NA,NA,""
"image-keyboard-response",215,183969,"0.0-4.67-2.67","7erbets5yqww8xn",462,"16.csv","","null","resources/images/coin2.png","null","",NA,NA,NA,NA,""
"image-keyboard-response",216,184180,"0.0-4.68-0.68","7erbets5yqww8xn",462,"16.csv","","210.0999999642372","resources/trios/L4T2A3.jpg","37","restless",0.6,0.5,0.3,0.465550362839831,"true"
"image-keyboard-response",217,184586,"0.0-4.68-1.68","7erbets5yqww8xn",462,"16.csv","","null","resources/maskTrios/L4BB.jpg","null","",NA,NA,NA,NA,""
"image-keyboard-response",218,185792,"0.0-4.68-2.68","7erbets5yqww8xn",462,"16.csv","","null","resources/images/coin2.png","null","",NA,NA,NA,NA,""
"image-keyboard-response",219,186539,"0.0-4.69-0.69","7erbets5yqww8xn",462,"16.csv","","745.3000000119209","resources/trios/L4T2A3.jpg","37","restless",0.6,0.5,0.4,0.0778711959597309,"true"
"image-keyboard-response",220,186940,"0.0-4.69-1.69","7erbets5yqww8xn",462,"16.csv","","null","resources/maskTrios/L4BB.jpg","null","",NA,NA,NA,NA,""
"image-keyboard-response",221,188146,"0.0-4.69-2.69","7erbets5yqww8xn",462,"16.csv","","null","resources/images/coin2.png","null","",NA,NA,NA,NA,""
"image-keyboard-response",222,188921,"0.0-4.70-0.70","7erbets5yqww8xn",462,"16.csv","","773.5","resources/trios/L4T2A3.jpg","37","restless",0.6,0.4,0.4,0.439831936792389,"true"
"image-keyboard-response",223,189322,"0.0-4.70-1.70","7erbets5yqww8xn",462,"16.csv","","null","resources/maskTrios/L4BB.jpg","null","",NA,NA,NA,NA,""
"image-keyboard-response",224,190526,"0.0-4.70-2.70","7erbets5yqww8xn",462,"16.csv","","null","resources/images/coin2.png","null","",NA,NA,NA,NA,""
"image-keyboard-response",225,190866,"0.0-4.71-0.71","7erbets5yqww8xn",462,"16.csv","","338.60000002384186","resources/trios/L4T2A3.jpg","37","restless",0.6,0.4,0.4,0.435629753883485,"true"
"image-keyboard-response",226,191272,"0.0-4.71-1.71","7erbets5yqww8xn",462,"16.csv","","null","resources/maskTrios/L4BB.jpg","null","",NA,NA,NA,NA,""
"image-keyboard-response",227,192476,"0.0-4.71-2.71","7erbets5yqww8xn",462,"16.csv","","null","resources/images/coin2.png","null","",NA,NA,NA,NA,""
"image-keyboard-response",228,192747,"0.0-4.72-0.72","7erbets5yqww8xn",462,"16.csv","","269.4000000357628","resources/trios/L4T2A3.jpg","37","restless",0.6,0.4,0.4,0.0737433638273366,"true"
"image-keyboard-response",229,193149,"0.0-4.72-1.72","7erbets5yqww8xn",462,"16.csv","","null","resources/maskTrios/L4BB.jpg","null","",NA,NA,NA,NA,""
"image-keyboard-response",230,194355,"0.0-4.72-2.72","7erbets5yqww8xn",462,"16.csv","","null","resources/images/coin2.png","null","",NA,NA,NA,NA,""
"image-keyboard-response",231,196025,"0.0-4.73-0.73","7erbets5yqww8xn",462,"16.csv","","1669","resources/trios/L4T2A3.jpg","39","restless",0.6,0.4,0.4,0.202049465023253,"true"
"image-keyboard-response",232,196427,"0.0-4.73-1.73","7erbets5yqww8xn",462,"16.csv","","null","resources/maskTrios/BBA3.jpg","null","",NA,NA,NA,NA,""
"image-keyboard-response",233,197631,"0.0-4.73-2.73","7erbets5yqww8xn",462,"16.csv","","null","resources/images/coin2.png","null","",NA,NA,NA,NA,""
"image-keyboard-response",234,197682,"0.0-4.74-0.74","7erbets5yqww8xn",462,"16.csv","","49.799999952316284","resources/trios/L4T2A3.jpg","39","restless",0.6,0.4,0.4,0.430760036947663,"false"
"image-keyboard-response",235,198088,"0.0-4.74-1.74","7erbets5yqww8xn",462,"16.csv","","null","resources/maskTrios/BBA3.jpg","null","",NA,NA,NA,NA,""
"image-keyboard-response",236,199292,"0.0-4.74-2.74","7erbets5yqww8xn",462,"16.csv","","null","resources/images/fishbone.png","null","",NA,NA,NA,NA,""
"image-keyboard-response",237,199731,"0.0-4.75-0.75","7erbets5yqww8xn",462,"16.csv","","437.69999998807907","resources/trios/L4T2A3.jpg","37","restless",0.6,0.4,0.4,0.386006200972328,"true"
"image-keyboard-response",238,200136,"0.0-4.75-1.75","7erbets5yqww8xn",462,"16.csv","","null","resources/maskTrios/L4BB.jpg","null","",NA,NA,NA,NA,""
"image-keyboard-response",239,201338,"0.0-4.75-2.75","7erbets5yqww8xn",462,"16.csv","","null","resources/images/coin2.png","null","",NA,NA,NA,NA,""
"image-keyboard-response",240,201688,"0.0-4.76-0.76","7erbets5yqww8xn",462,"16.csv","","348.19999998807907","resources/trios/L4T2A3.jpg","37","restless",0.6,0.4,0.4,0.433759178250215,"true"
"image-keyboard-response",241,202093,"0.0-4.76-1.76","7erbets5yqww8xn",462,"16.csv","","null","resources/maskTrios/L4BB.jpg","null","",NA,NA,NA,NA,""
"image-keyboard-response",242,203300,"0.0-4.76-2.76","7erbets5yqww8xn",462,"16.csv","","null","resources/images/coin2.png","null","",NA,NA,NA,NA,""
"image-keyboard-response",243,203516,"0.0-4.77-0.77","7erbets5yqww8xn",462,"16.csv","","214.5","resources/trios/L4T2A3.jpg","37","restless",0.6,0.4,0.4,0.560835555615914,"true"
"image-keyboard-response",244,203918,"0.0-4.77-1.77","7erbets5yqww8xn",462,"16.csv","","null","resources/maskTrios/L4BB.jpg","null","",NA,NA,NA,NA,""
"image-keyboard-response",245,205123,"0.0-4.77-2.77","7erbets5yqww8xn",462,"16.csv","","null","resources/images/coin2.png","null","",NA,NA,NA,NA,""
"image-keyboard-response",246,205550,"0.0-4.78-0.78","7erbets5yqww8xn",462,"16.csv","","426","resources/trios/L4T2A3.jpg","37","restless",0.6,0.4,0.4,0.546775359481351,"true"
"image-keyboard-response",247,205952,"0.0-4.78-1.78","7erbets5yqww8xn",462,"16.csv","","null","resources/maskTrios/L4BB.jpg","null","",NA,NA,NA,NA,""
"image-keyboard-response",248,207154,"0.0-4.78-2.78","7erbets5yqww8xn",462,"16.csv","","null","resources/images/coin2.png","null","",NA,NA,NA,NA,""
"image-keyboard-response",249,207512,"0.0-4.79-0.79","7erbets5yqww8xn",462,"16.csv","","357.5","resources/trios/L4T2A3.jpg","37","restless",0.6,0.4,0.4,0.826566413412282,"false"
"image-keyboard-response",250,207916,"0.0-4.79-1.79","7erbets5yqww8xn",462,"16.csv","","null","resources/maskTrios/L4BB.jpg","null","",NA,NA,NA,NA,""
"image-keyboard-response",251,209118,"0.0-4.79-2.79","7erbets5yqww8xn",462,"16.csv","","null","resources/images/fishbone.png","null","",NA,NA,NA,NA,""
"image-keyboard-response",252,210907,"0.0-4.80-0.80","7erbets5yqww8xn",462,"16.csv","","1788.6000000238419","resources/trios/L4T2A3.jpg","39","restless",0.6,0.4,0.4,0.871800384462889,"false"
"image-keyboard-response",253,211312,"0.0-4.80-1.80","7erbets5yqww8xn",462,"16.csv","","null","resources/maskTrios/BBA3.jpg","null","",NA,NA,NA,NA,""
"image-keyboard-response",254,212518,"0.0-4.80-2.80","7erbets5yqww8xn",462,"16.csv","","null","resources/images/fishbone.png","null","",NA,NA,NA,NA,""
"image-keyboard-response",255,212970,"0.0-4.81-0.81","7erbets5yqww8xn",462,"16.csv","","451.5","resources/trios/L4T2A3.jpg","39","restless",0.6,0.4,0.4,0.551110054559222,"false"
"image-keyboard-response",256,213377,"0.0-4.81-1.81","7erbets5yqww8xn",462,"16.csv","","null","resources/maskTrios/BBA3.jpg","null","",NA,NA,NA,NA,""
"image-keyboard-response",257,214579,"0.0-4.81-2.81","7erbets5yqww8xn",462,"16.csv","","null","resources/images/fishbone.png","null","",NA,NA,NA,NA,""
"image-keyboard-response",258,214910,"0.0-4.82-0.82","7erbets5yqww8xn",462,"16.csv","","329.89999997615814","resources/trios/L4T2A3.jpg","39","restless",0.6,0.4,0.4,0.443688203740717,"false"
"image-keyboard-response",259,215316,"0.0-4.82-1.82","7erbets5yqww8xn",462,"16.csv","","null","resources/maskTrios/BBA3.jpg","null","",NA,NA,NA,NA,""
"image-keyboard-response",260,216519,"0.0-4.82-2.82","7erbets5yqww8xn",462,"16.csv","","null","resources/images/fishbone.png","null","",NA,NA,NA,NA,""
"image-keyboard-response",261,216725,"0.0-4.83-0.83","7erbets5yqww8xn",462,"16.csv","","204.9000000357628","resources/trios/L4T2A3.jpg","38","restless",0.6,0.4,0.4,0.808744944792678,"false"
"image-keyboard-response",262,217128,"0.0-4.83-1.83","7erbets5yqww8xn",462,"16.csv","","null","resources/maskTrios/BT2B.jpg","null","",NA,NA,NA,NA,""
"image-keyboard-response",263,218332,"0.0-4.83-2.83","7erbets5yqww8xn",462,"16.csv","","null","resources/images/fishbone.png","null","",NA,NA,NA,NA,""
"image-keyboard-response",264,218633,"0.0-4.84-0.84","7erbets5yqww8xn",462,"16.csv","","300","resources/trios/L4T2A3.jpg","38","restless",0.6,0.4,0.4,0.604011133138714,"false"
"image-keyboard-response",265,219038,"0.0-4.84-1.84","7erbets5yqww8xn",462,"16.csv","","null","resources/maskTrios/BT2B.jpg","null","",NA,NA,NA,NA,""
"image-keyboard-response",266,220245,"0.0-4.84-2.84","7erbets5yqww8xn",462,"16.csv","","null","resources/images/fishbone.png","null","",NA,NA,NA,NA,""
"image-keyboard-response",267,220616,"0.0-4.85-0.85","7erbets5yqww8xn",462,"16.csv","","370.10000002384186","resources/trios/L4T2A3.jpg","38","restless",0.6,0.4,0.4,0.793870938349577,"false"
"image-keyboard-response",268,221017,"0.0-4.85-1.85","7erbets5yqww8xn",462,"16.csv","","null","resources/maskTrios/BT2B.jpg","null","",NA,NA,NA,NA,""
"image-keyboard-response",269,222220,"0.0-4.85-2.85","7erbets5yqww8xn",462,"16.csv","","null","resources/images/fishbone.png","null","",NA,NA,NA,NA,""
"image-keyboard-response",270,222230,"0.0-4.86-0.86","7erbets5yqww8xn",462,"16.csv","","8.899999976158142","resources/trios/L4T2A3.jpg","38","restless",0.6,0.4,0.4,0.597844829231379,"false"
"image-keyboard-response",271,222632,"0.0-4.86-1.86","7erbets5yqww8xn",462,"16.csv","","null","resources/maskTrios/BT2B.jpg","null","",NA,NA,NA,NA,""
"image-keyboard-response",272,223835,"0.0-4.86-2.86","7erbets5yqww8xn",462,"16.csv","","null","resources/images/fishbone.png","null","",NA,NA,NA,NA,""
"image-keyboard-response",273,225026,"0.0-4.87-0.87","7erbets5yqww8xn",462,"16.csv","","1189.5999999642372","resources/trios/L4T2A3.jpg","38","restless",0.7,0.4,0.4,0.484689796384148,"false"
"image-keyboard-response",274,225428,"0.0-4.87-1.87","7erbets5yqww8xn",462,"16.csv","","null","resources/maskTrios/BT2B.jpg","null","",NA,NA,NA,NA,""
"image-keyboard-response",275,226632,"0.0-4.87-2.87","7erbets5yqww8xn",462,"16.csv","","null","resources/images/fishbone.png","null","",NA,NA,NA,NA,""
"image-keyboard-response",276,227041,"0.0-4.88-0.88","7erbets5yqww8xn",462,"16.csv","","408.80000001192093","resources/trios/L4T2A3.jpg","38","restless",0.7,0.4,0.4,0.99624867838691,"false"
"image-keyboard-response",277,227445,"0.0-4.88-1.88","7erbets5yqww8xn",462,"16.csv","","null","resources/maskTrios/BT2B.jpg","null","",NA,NA,NA,NA,""
"image-keyboard-response",278,228651,"0.0-4.88-2.88","7erbets5yqww8xn",462,"16.csv","","null","resources/images/fishbone.png","null","",NA,NA,NA,NA,""
"image-keyboard-response",279,229159,"0.0-4.89-0.89","7erbets5yqww8xn",462,"16.csv","","506.19999998807907","resources/trios/L4T2A3.jpg","37","restless",0.7,0.4,0.3,0.833970968519202,"false"
"image-keyboard-response",280,229565,"0.0-4.89-1.89","7erbets5yqww8xn",462,"16.csv","","null","resources/maskTrios/L4BB.jpg","null","",NA,NA,NA,NA,""
"image-keyboard-response",281,230767,"0.0-4.89-2.89","7erbets5yqww8xn",462,"16.csv","","null","resources/images/fishbone.png","null","",NA,NA,NA,NA,""
"image-keyboard-response",282,231331,"0.0-4.90-0.90","7erbets5yqww8xn",462,"16.csv","","563","resources/trios/L4T2A3.jpg","37","restless",0.7,0.5,0.3,0.732757726036067,"false"
"image-keyboard-response",283,231735,"0.0-4.90-1.90","7erbets5yqww8xn",462,"16.csv","","null","resources/maskTrios/L4BB.jpg","null","",NA,NA,NA,NA,""
"image-keyboard-response",284,232939,"0.0-4.90-2.90","7erbets5yqww8xn",462,"16.csv","","null","resources/images/fishbone.png","null","",NA,NA,NA,NA,""
"image-keyboard-response",285,233300,"0.0-4.91-0.91","7erbets5yqww8xn",462,"16.csv","","360.2000000476837","resources/trios/L4T2A3.jpg","37","restless",0.7,0.5,0.3,0.30384742582184,"true"
"image-keyboard-response",286,233705,"0.0-4.91-1.91","7erbets5yqww8xn",462,"16.csv","","null","resources/maskTrios/L4BB.jpg","null","",NA,NA,NA,NA,""
"image-keyboard-response",287,234910,"0.0-4.91-2.91","7erbets5yqww8xn",462,"16.csv","","null","resources/images/coin2.png","null","",NA,NA,NA,NA,""
"image-keyboard-response",288,235203,"0.0-4.92-0.92","7erbets5yqww8xn",462,"16.csv","","292.5999999642372","resources/trios/L4T2A3.jpg","37","restless",0.7,0.6,0.3,0.285883372154875,"true"
"image-keyboard-response",289,235605,"0.0-4.92-1.92","7erbets5yqww8xn",462,"16.csv","","null","resources/maskTrios/L4BB.jpg","null","",NA,NA,NA,NA,""
"image-keyboard-response",290,236808,"0.0-4.92-2.92","7erbets5yqww8xn",462,"16.csv","","null","resources/images/coin2.png","null","",NA,NA,NA,NA,""
"image-keyboard-response",291,236853,"0.0-4.93-0.93","7erbets5yqww8xn",462,"16.csv","","43.90000003576279","resources/trios/L4T2A3.jpg","37","restless",0.7,0.6,0.3,0.948313071618043,"false"
"image-keyboard-response",292,237258,"0.0-4.93-1.93","7erbets5yqww8xn",462,"16.csv","","null","resources/maskTrios/L4BB.jpg","null","",NA,NA,NA,NA,""
"image-keyboard-response",293,238462,"0.0-4.93-2.93","7erbets5yqww8xn",462,"16.csv","","null","resources/images/fishbone.png","null","",NA,NA,NA,NA,""
"image-keyboard-response",294,238960,"0.0-4.94-0.94","7erbets5yqww8xn",462,"16.csv","","496.5","resources/trios/L4T2A3.jpg","37","restless",0.7,0.6,0.3,0.808840531071399,"false"
"image-keyboard-response",295,239363,"0.0-4.94-1.94","7erbets5yqww8xn",462,"16.csv","","null","resources/maskTrios/L4BB.jpg","null","",NA,NA,NA,NA,""
"image-keyboard-response",296,240564,"0.0-4.94-2.94","7erbets5yqww8xn",462,"16.csv","","null","resources/images/fishbone.png","null","",NA,NA,NA,NA,""
"image-keyboard-response",297,241128,"0.0-4.95-0.95","7erbets5yqww8xn",462,"16.csv","","562.3999999761581","resources/trios/L4T2A3.jpg","37","restless",0.7,0.6,0.3,0.547534737194184,"true"
"image-keyboard-response",298,241531,"0.0-4.95-1.95","7erbets5yqww8xn",462,"16.csv","","null","resources/maskTrios/L4BB.jpg","null","",NA,NA,NA,NA,""
"image-keyboard-response",299,242736,"0.0-4.95-2.95","7erbets5yqww8xn",462,"16.csv","","null","resources/images/coin2.png","null","",NA,NA,NA,NA,""
"image-keyboard-response",300,243277,"0.0-4.96-0.96","7erbets5yqww8xn",462,"16.csv","","541","resources/trios/L4T2A3.jpg","37","restless",0.7,0.6,0.3,0.861102584699558,"false"
"image-keyboard-response",301,243681,"0.0-4.96-1.96","7erbets5yqww8xn",462,"16.csv","","null","resources/maskTrios/L4BB.jpg","null","",NA,NA,NA,NA,""
"image-keyboard-response",302,244883,"0.0-4.96-2.96","7erbets5yqww8xn",462,"16.csv","","null","resources/images/fishbone.png","null","",NA,NA,NA,NA,""
"image-keyboard-response",303,244911,"0.0-4.97-0.97","7erbets5yqww8xn",462,"16.csv","","26.600000023841858","resources/trios/L4T2A3.jpg","39","restless",0.7,0.6,0.3,0.753505112377898,"false"
"image-keyboard-response",304,245313,"0.0-4.97-1.97","7erbets5yqww8xn",462,"16.csv","","null","resources/maskTrios/BBA3.jpg","null","",NA,NA,NA,NA,""
"image-keyboard-response",305,246519,"0.0-4.97-2.97","7erbets5yqww8xn",462,"16.csv","","null","resources/images/fishbone.png","null","",NA,NA,NA,NA,""
"image-keyboard-response",306,246877,"0.0-4.98-0.98","7erbets5yqww8xn",462,"16.csv","","356.10000002384186","resources/trios/L4T2A3.jpg","39","restless",0.7,0.6,0.3,0.963375161490615,"false"
"image-keyboard-response",307,247283,"0.0-4.98-1.98","7erbets5yqww8xn",462,"16.csv","","null","resources/maskTrios/BBA3.jpg","null","",NA,NA,NA,NA,""
"image-keyboard-response",308,248487,"0.0-4.98-2.98","7erbets5yqww8xn",462,"16.csv","","null","resources/images/fishbone.png","null","",NA,NA,NA,NA,""
"image-keyboard-response",309,248806,"0.0-4.99-0.99","7erbets5yqww8xn",462,"16.csv","","317.60000002384186","resources/trios/L4T2A3.jpg","39","restless",0.7,0.5,0.3,0.658782125311459,"false"
"image-keyboard-response",310,249213,"0.0-4.99-1.99","7erbets5yqww8xn",462,"16.csv","","null","resources/maskTrios/BBA3.jpg","null","",NA,NA,NA,NA,""
"image-keyboard-response",311,250419,"0.0-4.99-2.99","7erbets5yqww8xn",462,"16.csv","","null","resources/images/fishbone.png","null","",NA,NA,NA,NA,""
"image-keyboard-response",312,251013,"0.0-4.100-0.100","7erbets5yqww8xn",462,"16.csv","","592.5","resources/trios/L4T2A3.jpg","39","restless",0.7,0.5,0.3,0.0547114069357113,"true"
"image-keyboard-response",313,251414,"0.0-4.100-1.100","7erbets5yqww8xn",462,"16.csv","","null","resources/maskTrios/BBA3.jpg","null","",NA,NA,NA,NA,""
"image-keyboard-response",314,252615,"0.0-4.100-2.100","7erbets5yqww8xn",462,"16.csv","","null","resources/images/coin2.png","null","",NA,NA,NA,NA,""
"image-keyboard-response",315,254140,"0.0-4.101-0.101","7erbets5yqww8xn",462,"16.csv","","1523.300000011921","resources/trios/L4T2A3.jpg","39","restless",0.7,0.5,0.4,0.904197602270953,"false"
"image-keyboard-response",316,254543,"0.0-4.101-1.101","7erbets5yqww8xn",462,"16.csv","","null","resources/maskTrios/BBA3.jpg","null","",NA,NA,NA,NA,""
"image-keyboard-response",317,255747,"0.0-4.101-2.101","7erbets5yqww8xn",462,"16.csv","","null","resources/images/fishbone.png","null","",NA,NA,NA,NA,""
"image-keyboard-response",318,256362,"0.0-4.102-0.102","7erbets5yqww8xn",462,"16.csv","","613.7999999523163","resources/trios/L4T2A3.jpg","38","restless",0.7,0.5,0.4,0.310233289104101,"true"
"image-keyboard-response",319,256766,"0.0-4.102-1.102","7erbets5yqww8xn",462,"16.csv","","null","resources/maskTrios/BT2B.jpg","null","",NA,NA,NA,NA,""
"image-keyboard-response",320,257968,"0.0-4.102-2.102","7erbets5yqww8xn",462,"16.csv","","null","resources/images/coin2.png","null","",NA,NA,NA,NA,""
"image-keyboard-response",321,258247,"0.0-4.103-0.103","7erbets5yqww8xn",462,"16.csv","","277.5","resources/trios/L4T2A3.jpg","38","restless",0.7,0.5,0.4,0.79557459774701,"false"
"image-keyboard-response",322,258648,"0.0-4.103-1.103","7erbets5yqww8xn",462,"16.csv","","null","resources/maskTrios/BT2B.jpg","null","",NA,NA,NA,NA,""
"image-keyboard-response",323,259855,"0.0-4.103-2.103","7erbets5yqww8xn",462,"16.csv","","null","resources/images/fishbone.png","null","",NA,NA,NA,NA,""
"image-keyboard-response",324,261328,"0.0-4.104-0.104","7erbets5yqww8xn",462,"16.csv","","1472.199999988079","resources/trios/L4T2A3.jpg","37","restless",0.7,0.5,0.4,0.672204560710238,"true"
"image-keyboard-response",325,261734,"0.0-4.104-1.104","7erbets5yqww8xn",462,"16.csv","","null","resources/maskTrios/L4BB.jpg","null","",NA,NA,NA,NA,""
"image-keyboard-response",326,262937,"0.0-4.104-2.104","7erbets5yqww8xn",462,"16.csv","","null","resources/images/coin2.png","null","",NA,NA,NA,NA,""
"image-keyboard-response",327,263385,"0.0-4.105-0.105","7erbets5yqww8xn",462,"16.csv","","446.89999997615814","resources/trios/L4T2A3.jpg","37","restless",0.7,0.4,0.4,0.699385451591754,"true"
"image-keyboard-response",328,263790,"0.0-4.105-1.105","7erbets5yqww8xn",462,"16.csv","","null","resources/maskTrios/L4BB.jpg","null","",NA,NA,NA,NA,""
"image-keyboard-response",329,264992,"0.0-4.105-2.105","7erbets5yqww8xn",462,"16.csv","","null","resources/images/coin2.png","null","",NA,NA,NA,NA,""
"image-keyboard-response",330,265498,"0.0-4.106-0.106","7erbets5yqww8xn",462,"16.csv","","504.9000000357628","resources/trios/L4T2A3.jpg","37","restless",0.8,0.4,0.4,0.0868480871593853,"true"
"image-keyboard-response",331,265903,"0.0-4.106-1.106","7erbets5yqww8xn",462,"16.csv","","null","resources/maskTrios/L4BB.jpg","null","",NA,NA,NA,NA,""
"image-keyboard-response",332,267111,"0.0-4.106-2.106","7erbets5yqww8xn",462,"16.csv","","null","resources/images/coin2.png","null","",NA,NA,NA,NA,""
"image-keyboard-response",333,267554,"0.0-4.107-0.107","7erbets5yqww8xn",462,"16.csv","","442.19999998807907","resources/trios/L4T2A3.jpg","37","restless",0.8,0.4,0.4,0.986138745256324,"false"
"image-keyboard-response",334,267960,"0.0-4.107-1.107","7erbets5yqww8xn",462,"16.csv","","null","resources/maskTrios/L4BB.jpg","null","",NA,NA,NA,NA,""
"image-keyboard-response",335,269165,"0.0-4.107-2.107","7erbets5yqww8xn",462,"16.csv","","null","resources/images/fishbone.png","null","",NA,NA,NA,NA,""
"image-keyboard-response",336,269689,"0.0-4.108-0.108","7erbets5yqww8xn",462,"16.csv","","522.8999999761581","resources/trios/L4T2A3.jpg","37","restless",0.8,0.4,0.4,0.147976075857861,"true"
"image-keyboard-response",337,270094,"0.0-4.108-1.108","7erbets5yqww8xn",462,"16.csv","","null","resources/maskTrios/L4BB.jpg","null","",NA,NA,NA,NA,""
"image-keyboard-response",338,271296,"0.0-4.108-2.108","7erbets5yqww8xn",462,"16.csv","","null","resources/images/coin2.png","null","",NA,NA,NA,NA,""
"image-keyboard-response",339,271782,"0.0-4.109-0.109","7erbets5yqww8xn",462,"16.csv","","484.69999998807907","resources/trios/L4T2A3.jpg","37","restless",0.8,0.4,0.4,0.364938929060449,"true"
"image-keyboard-response",340,272184,"0.0-4.109-1.109","7erbets5yqww8xn",462,"16.csv","","null","resources/maskTrios/L4BB.jpg","null","",NA,NA,NA,NA,""
"image-keyboard-response",341,273386,"0.0-4.109-2.109","7erbets5yqww8xn",462,"16.csv","","null","resources/images/coin2.png","null","",NA,NA,NA,NA,""
"image-keyboard-response",342,274056,"0.0-4.110-0.110","7erbets5yqww8xn",462,"16.csv","","668.5","resources/trios/L4T2A3.jpg","37","restless",0.8,0.4,0.4,0.249923746118771,"true"
"image-keyboard-response",343,274460,"0.0-4.110-1.110","7erbets5yqww8xn",462,"16.csv","","null","resources/maskTrios/L4BB.jpg","null","",NA,NA,NA,NA,""
"image-keyboard-response",344,275666,"0.0-4.110-2.110","7erbets5yqww8xn",462,"16.csv","","null","resources/images/coin2.png","null","",NA,NA,NA,NA,""
"image-keyboard-response",345,276160,"0.0-4.111-0.111","7erbets5yqww8xn",462,"16.csv","","492.9000000357628","resources/trios/L4T2A3.jpg","37","restless",0.8,0.4,0.4,0.224438124687875,"true"
"image-keyboard-response",346,276562,"0.0-4.111-1.111","7erbets5yqww8xn",462,"16.csv","","null","resources/maskTrios/L4BB.jpg","null","",NA,NA,NA,NA,""
"image-keyboard-response",347,277767,"0.0-4.111-2.111","7erbets5yqww8xn",462,"16.csv","","null","resources/images/coin2.png","null","",NA,NA,NA,NA,""
"image-keyboard-response",348,278103,"0.0-4.112-0.112","7erbets5yqww8xn",462,"16.csv","","335.5","resources/trios/L4T2A3.jpg","37","restless",0.8,0.4,0.4,0.707059889248476,"true"
"image-keyboard-response",349,278506,"0.0-4.112-1.112","7erbets5yqww8xn",462,"16.csv","","null","resources/maskTrios/L4BB.jpg","null","",NA,NA,NA,NA,""
"image-keyboard-response",350,279711,"0.0-4.112-2.112","7erbets5yqww8xn",462,"16.csv","","null","resources/images/coin2.png","null","",NA,NA,NA,NA,""
"image-keyboard-response",351,280350,"0.0-4.113-0.113","7erbets5yqww8xn",462,"16.csv","","638.4000000357628","resources/trios/L4T2A3.jpg","37","restless",0.8,0.4,0.4,0.164162627297191,"true"
"image-keyboard-response",352,280753,"0.0-4.113-1.113","7erbets5yqww8xn",462,"16.csv","","null","resources/maskTrios/L4BB.jpg","null","",NA,NA,NA,NA,""
"image-keyboard-response",353,281954,"0.0-4.113-2.113","7erbets5yqww8xn",462,"16.csv","","null","resources/images/coin2.png","null","",NA,NA,NA,NA,""
"image-keyboard-response",354,282507,"0.0-4.114-0.114","7erbets5yqww8xn",462,"16.csv","","551.5","resources/trios/L4T2A3.jpg","37","restless",0.8,0.4,0.4,0.0908164949750321,"true"
"image-keyboard-response",355,282912,"0.0-4.114-1.114","7erbets5yqww8xn",462,"16.csv","","null","resources/maskTrios/L4BB.jpg","null","",NA,NA,NA,NA,""
"image-keyboard-response",356,284114,"0.0-4.114-2.114","7erbets5yqww8xn",462,"16.csv","","null","resources/images/coin2.png","null","",NA,NA,NA,NA,""
"image-keyboard-response",357,284482,"0.0-4.115-0.115","7erbets5yqww8xn",462,"16.csv","","366.5","resources/trios/L4T2A3.jpg","37","restless",0.8,0.4,0.4,0.145816437789714,"true"
"image-keyboard-response",358,284886,"0.0-4.115-1.115","7erbets5yqww8xn",462,"16.csv","","null","resources/maskTrios/L4BB.jpg","null","",NA,NA,NA,NA,""
"image-keyboard-response",359,286088,"0.0-4.115-2.115","7erbets5yqww8xn",462,"16.csv","","null","resources/images/coin2.png","null","",NA,NA,NA,NA,""
"image-keyboard-response",360,286515,"0.0-4.116-0.116","7erbets5yqww8xn",462,"16.csv","","425.5","resources/trios/L4T2A3.jpg","37","restless",0.8,0.4,0.4,0.884398843868181,"false"
"image-keyboard-response",361,286920,"0.0-4.116-1.116","7erbets5yqww8xn",462,"16.csv","","null","resources/maskTrios/L4BB.jpg","null","",NA,NA,NA,NA,""
"image-keyboard-response",362,288122,"0.0-4.116-2.116","7erbets5yqww8xn",462,"16.csv","","null","resources/images/fishbone.png","null","",NA,NA,NA,NA,""
"image-keyboard-response",363,288512,"0.0-4.117-0.117","7erbets5yqww8xn",462,"16.csv","","388.5","resources/trios/L4T2A3.jpg","39","restless",0.8,0.4,0.4,0.12407066326448,"true"
"image-keyboard-response",364,288915,"0.0-4.117-1.117","7erbets5yqww8xn",462,"16.csv","","null","resources/maskTrios/BBA3.jpg","null","",NA,NA,NA,NA,""
"image-keyboard-response",365,290117,"0.0-4.117-2.117","7erbets5yqww8xn",462,"16.csv","","null","resources/images/coin2.png","null","",NA,NA,NA,NA,""
"image-keyboard-response",366,290484,"0.0-4.118-0.118","7erbets5yqww8xn",462,"16.csv","","365.69999998807907","resources/trios/L4T2A3.jpg","39","restless",0.8,0.4,0.4,0.67232403247475,"false"
"image-keyboard-response",367,290889,"0.0-4.118-1.118","7erbets5yqww8xn",462,"16.csv","","null","resources/maskTrios/BBA3.jpg","null","",NA,NA,NA,NA,""
"image-keyboard-response",368,292093,"0.0-4.118-2.118","7erbets5yqww8xn",462,"16.csv","","null","resources/images/fishbone.png","null","",NA,NA,NA,NA,""
"image-keyboard-response",369,292833,"0.0-4.119-0.119","7erbets5yqww8xn",462,"16.csv","","738.5","resources/trios/L4T2A3.jpg","39","restless",0.8,0.4,0.4,0.789696617495264,"false"
"image-keyboard-response",370,293239,"0.0-4.119-1.119","7erbets5yqww8xn",462,"16.csv","","null","resources/maskTrios/BBA3.jpg","null","",NA,NA,NA,NA,""
"image-keyboard-response",371,294441,"0.0-4.119-2.119","7erbets5yqww8xn",462,"16.csv","","null","resources/images/fishbone.png","null","",NA,NA,NA,NA,""
"image-keyboard-response",372,295289,"0.0-4.120-0.120","7erbets5yqww8xn",462,"16.csv","","846.5","resources/trios/L4T2A3.jpg","38","restless",0.8,0.4,0.4,0.417050519882882,"false"
"image-keyboard-response",373,295692,"0.0-4.120-1.120","7erbets5yqww8xn",462,"16.csv","","null","resources/maskTrios/BT2B.jpg","null","",NA,NA,NA,NA,""
"image-keyboard-response",374,296898,"0.0-4.120-2.120","7erbets5yqww8xn",462,"16.csv","","null","resources/images/fishbone.png","null","",NA,NA,NA,NA,""
"image-keyboard-response",375,297407,"0.0-4.121-0.121","7erbets5yqww8xn",462,"16.csv","","508.80000001192093","resources/trios/L4T2A3.jpg","38","restless",0.8,0.4,0.4,0.927990015811064,"false"
"image-keyboard-response",376,297813,"0.0-4.121-1.121","7erbets5yqww8xn",462,"16.csv","","null","resources/maskTrios/BT2B.jpg","null","",NA,NA,NA,NA,""
"image-keyboard-response",377,299016,"0.0-4.121-2.121","7erbets5yqww8xn",462,"16.csv","","null","resources/images/fishbone.png","null","",NA,NA,NA,NA,""
"image-keyboard-response",378,299478,"0.0-4.122-0.122","7erbets5yqww8xn",462,"16.csv","","460.4000000357628","resources/trios/L4T2A3.jpg","39","restless",0.8,0.4,0.5,0.673888087911839,"false"
"image-keyboard-response",379,299881,"0.0-4.122-1.122","7erbets5yqww8xn",462,"16.csv","","null","resources/maskTrios/BBA3.jpg","null","",NA,NA,NA,NA,""
"image-keyboard-response",380,301083,"0.0-4.122-2.122","7erbets5yqww8xn",462,"16.csv","","null","resources/images/fishbone.png","null","",NA,NA,NA,NA,""
"image-keyboard-response",381,301456,"0.0-4.123-0.123","7erbets5yqww8xn",462,"16.csv","","371.89999997615814","resources/trios/L4T2A3.jpg","39","restless",0.8,0.3,0.5,0.560091796974189,"false"
"image-keyboard-response",382,301862,"0.0-4.123-1.123","7erbets5yqww8xn",462,"16.csv","","null","resources/maskTrios/BBA3.jpg","null","",NA,NA,NA,NA,""
"image-keyboard-response",383,303068,"0.0-4.123-2.123","7erbets5yqww8xn",462,"16.csv","","null","resources/images/fishbone.png","null","",NA,NA,NA,NA,""
"image-keyboard-response",384,303605,"0.0-4.124-0.124","7erbets5yqww8xn",462,"16.csv","","535.3000000119209","resources/trios/L4T2A3.jpg","37","restless",0.7,0.3,0.5,0.627134145610398,"true"
"image-keyboard-response",385,304011,"0.0-4.124-1.124","7erbets5yqww8xn",462,"16.csv","","null","resources/maskTrios/L4BB.jpg","null","",NA,NA,NA,NA,""
"image-keyboard-response",386,305217,"0.0-4.124-2.124","7erbets5yqww8xn",462,"16.csv","","null","resources/images/coin2.png","null","",NA,NA,NA,NA,""
"image-keyboard-response",387,306068,"0.0-4.125-0.125","7erbets5yqww8xn",462,"16.csv","","850","resources/trios/L4T2A3.jpg","37","restless",0.7,0.3,0.6,0.556743246901798,"true"
"image-keyboard-response",388,306471,"0.0-4.125-1.125","7erbets5yqww8xn",462,"16.csv","","null","resources/maskTrios/L4BB.jpg","null","",NA,NA,NA,NA,""
"image-keyboard-response",389,307676,"0.0-4.125-2.125","7erbets5yqww8xn",462,"16.csv","","null","resources/images/coin2.png","null","",NA,NA,NA,NA,""
"image-keyboard-response",390,308463,"0.0-4.126-0.126","7erbets5yqww8xn",462,"16.csv","","785.8000000119209","resources/trios/L4T2A3.jpg","37","restless",0.7,0.4,0.6,0.30200508095716,"true"
"image-keyboard-response",391,308867,"0.0-4.126-1.126","7erbets5yqww8xn",462,"16.csv","","null","resources/maskTrios/L4BB.jpg","null","",NA,NA,NA,NA,""
"image-keyboard-response",392,310069,"0.0-4.126-2.126","7erbets5yqww8xn",462,"16.csv","","null","resources/images/coin2.png","null","",NA,NA,NA,NA,""
"image-keyboard-response",393,311399,"0.0-4.127-0.127","7erbets5yqww8xn",462,"16.csv","","1328.5","resources/trios/L4T2A3.jpg","37","restless",0.7,0.4,0.6,0.874597954328175,"false"
"image-keyboard-response",394,311805,"0.0-4.127-1.127","7erbets5yqww8xn",462,"16.csv","","null","resources/maskTrios/L4BB.jpg","null","",NA,NA,NA,NA,""
"image-keyboard-response",395,313007,"0.0-4.127-2.127","7erbets5yqww8xn",462,"16.csv","","null","resources/images/fishbone.png","null","",NA,NA,NA,NA,""
"image-keyboard-response",396,313674,"0.0-4.128-0.128","7erbets5yqww8xn",462,"16.csv","","666","resources/trios/L4T2A3.jpg","37","restless",0.7,0.4,0.6,0.889826377513945,"false"
"image-keyboard-response",397,314081,"0.0-4.128-1.128","7erbets5yqww8xn",462,"16.csv","","null","resources/maskTrios/L4BB.jpg","null","",NA,NA,NA,NA,""
"image-keyboard-response",398,315288,"0.0-4.128-2.128","7erbets5yqww8xn",462,"16.csv","","null","resources/images/fishbone.png","null","",NA,NA,NA,NA,""
"image-keyboard-response",399,316636,"0.0-4.129-0.129","7erbets5yqww8xn",462,"16.csv","","1346.8999999761581","resources/trios/L4T2A3.jpg","39","restless",0.7,0.4,0.6,0.00250243948704454,"true"
"image-keyboard-response",400,317038,"0.0-4.129-1.129","7erbets5yqww8xn",462,"16.csv","","null","resources/maskTrios/BBA3.jpg","null","",NA,NA,NA,NA,""
"image-keyboard-response",401,318243,"0.0-4.129-2.129","7erbets5yqww8xn",462,"16.csv","","null","resources/images/coin2.png","null","",NA,NA,NA,NA,""
"image-keyboard-response",402,318835,"0.0-4.130-0.130","7erbets5yqww8xn",462,"16.csv","","591.4000000357628","resources/trios/L4T2A3.jpg","39","restless",0.7,0.4,0.6,0.285894135120145,"true"
"image-keyboard-response",403,319241,"0.0-4.130-1.130","7erbets5yqww8xn",462,"16.csv","","null","resources/maskTrios/BBA3.jpg","null","",NA,NA,NA,NA,""
"image-keyboard-response",404,320447,"0.0-4.130-2.130","7erbets5yqww8xn",462,"16.csv","","null","resources/images/coin2.png","null","",NA,NA,NA,NA,""
"image-keyboard-response",405,321148,"0.0-4.131-0.131","7erbets5yqww8xn",462,"16.csv","","699.9000000357628","resources/trios/L4T2A3.jpg","39","restless",0.7,0.4,0.6,0.510314292724314,"true"
"image-keyboard-response",406,321555,"0.0-4.131-1.131","7erbets5yqww8xn",462,"16.csv","","null","resources/maskTrios/BBA3.jpg","null","",NA,NA,NA,NA,""
"image-keyboard-response",407,322758,"0.0-4.131-2.131","7erbets5yqww8xn",462,"16.csv","","null","resources/images/coin2.png","null","",NA,NA,NA,NA,""
"image-keyboard-response",408,323727,"0.0-4.132-0.132","7erbets5yqww8xn",462,"16.csv","","967.5999999642372","resources/trios/L4T2A3.jpg","39","restless",0.6,0.4,0.6,0.458026293612221,"true"
"image-keyboard-response",409,324129,"0.0-4.132-1.132","7erbets5yqww8xn",462,"16.csv","","null","resources/maskTrios/BBA3.jpg","null","",NA,NA,NA,NA,""
"image-keyboard-response",410,325334,"0.0-4.132-2.132","7erbets5yqww8xn",462,"16.csv","","null","resources/images/coin2.png","null","",NA,NA,NA,NA,""
"image-keyboard-response",411,325922,"0.0-4.133-0.133","7erbets5yqww8xn",462,"16.csv","","586.9000000357628","resources/trios/L4T2A3.jpg","39","restless",0.6,0.4,0.6,0.720397496082355,"false"
"image-keyboard-response",412,326324,"0.0-4.133-1.133","7erbets5yqww8xn",462,"16.csv","","null","resources/maskTrios/BBA3.jpg","null","",NA,NA,NA,NA,""
"image-keyboard-response",413,327529,"0.0-4.133-2.133","7erbets5yqww8xn",462,"16.csv","","null","resources/images/fishbone.png","null","",NA,NA,NA,NA,""
"image-keyboard-response",414,328088,"0.0-4.134-0.134","7erbets5yqww8xn",462,"16.csv","","557","resources/trios/L4T2A3.jpg","37","restless",0.6,0.5,0.6,0.529522922488951,"true"
"image-keyboard-response",415,328490,"0.0-4.134-1.134","7erbets5yqww8xn",462,"16.csv","","null","resources/maskTrios/L4BB.jpg","null","",NA,NA,NA,NA,""
"image-keyboard-response",416,329692,"0.0-4.134-2.134","7erbets5yqww8xn",462,"16.csv","","null","resources/images/coin2.png","null","",NA,NA,NA,NA,""
"image-keyboard-response",417,330240,"0.0-4.135-0.135","7erbets5yqww8xn",462,"16.csv","","547.5999999642372","resources/trios/L4T2A3.jpg","37","restless",0.7,0.5,0.5,0.258984972382189,"true"
"image-keyboard-response",418,330642,"0.0-4.135-1.135","7erbets5yqww8xn",462,"16.csv","","null","resources/maskTrios/L4BB.jpg","null","",NA,NA,NA,NA,""
"image-keyboard-response",419,331844,"0.0-4.135-2.135","7erbets5yqww8xn",462,"16.csv","","null","resources/images/coin2.png","null","",NA,NA,NA,NA,""
"image-keyboard-response",420,332537,"0.0-4.136-0.136","7erbets5yqww8xn",462,"16.csv","","691.4000000357628","resources/trios/L4T2A3.jpg","37","restless",0.7,0.5,0.5,0.557099415135936,"true"
"image-keyboard-response",421,332941,"0.0-4.136-1.136","7erbets5yqww8xn",462,"16.csv","","null","resources/maskTrios/L4BB.jpg","null","",NA,NA,NA,NA,""
"image-keyboard-response",422,334143,"0.0-4.136-2.136","7erbets5yqww8xn",462,"16.csv","","null","resources/images/coin2.png","null","",NA,NA,NA,NA,""
"image-keyboard-response",423,334739,"0.0-4.137-0.137","7erbets5yqww8xn",462,"16.csv","","594.6999999880791","resources/trios/L4T2A3.jpg","37","restless",0.7,0.6,0.6,0.764625872683757,"false"
"image-keyboard-response",424,335142,"0.0-4.137-1.137","7erbets5yqww8xn",462,"16.csv","","null","resources/maskTrios/L4BB.jpg","null","",NA,NA,NA,NA,""
"image-keyboard-response",425,336343,"0.0-4.137-2.137","7erbets5yqww8xn",462,"16.csv","","null","resources/images/fishbone.png","null","",NA,NA,NA,NA,""
"image-keyboard-response",426,336710,"0.0-4.138-0.138","7erbets5yqww8xn",462,"16.csv","","365.0999999642372","resources/trios/L4T2A3.jpg","39","restless",0.7,0.6,0.7,0.495163851102345,"true"
"image-keyboard-response",427,337114,"0.0-4.138-1.138","7erbets5yqww8xn",462,"16.csv","","null","resources/maskTrios/BBA3.jpg","null","",NA,NA,NA,NA,""
"image-keyboard-response",428,338320,"0.0-4.138-2.138","7erbets5yqww8xn",462,"16.csv","","null","resources/images/coin2.png","null","",NA,NA,NA,NA,""
"image-keyboard-response",429,339411,"0.0-4.139-0.139","7erbets5yqww8xn",462,"16.csv","","1090.4000000357628","resources/trios/L4T2A3.jpg","39","restless",0.7,0.6,0.7,0.0709248626420376,"true"
"image-keyboard-response",430,339815,"0.0-4.139-1.139","7erbets5yqww8xn",462,"16.csv","","null","resources/maskTrios/BBA3.jpg","null","",NA,NA,NA,NA,""
"image-keyboard-response",431,341017,"0.0-4.139-2.139","7erbets5yqww8xn",462,"16.csv","","null","resources/images/coin2.png","null","",NA,NA,NA,NA,""
"image-keyboard-response",432,341890,"0.0-4.140-0.140","7erbets5yqww8xn",462,"16.csv","","872.5","resources/trios/L4T2A3.jpg","39","restless",0.7,0.6,0.7,0.180770501538487,"true"
"image-keyboard-response",433,342293,"0.0-4.140-1.140","7erbets5yqww8xn",462,"16.csv","","null","resources/maskTrios/BBA3.jpg","null","",NA,NA,NA,NA,""
"image-keyboard-response",434,343495,"0.0-4.140-2.140","7erbets5yqww8xn",462,"16.csv","","null","resources/images/coin2.png","null","",NA,NA,NA,NA,""
"image-keyboard-response",435,344460,"0.0-4.141-0.141","7erbets5yqww8xn",462,"16.csv","","963.5","resources/trios/L4T2A3.jpg","39","restless",0.7,0.6,0.7,0.741870753125683,"false"
"image-keyboard-response",436,344865,"0.0-4.141-1.141","7erbets5yqww8xn",462,"16.csv","","null","resources/maskTrios/BBA3.jpg","null","",NA,NA,NA,NA,""
"image-keyboard-response",437,346067,"0.0-4.141-2.141","7erbets5yqww8xn",462,"16.csv","","null","resources/images/fishbone.png","null","",NA,NA,NA,NA,""
"image-keyboard-response",438,346699,"0.0-4.142-0.142","7erbets5yqww8xn",462,"16.csv","","630.6999999880791","resources/trios/L4T2A3.jpg","37","restless",0.7,0.6,0.7,0.343464475556672,"true"
"image-keyboard-response",439,347105,"0.0-4.142-1.142","7erbets5yqww8xn",462,"16.csv","","null","resources/maskTrios/L4BB.jpg","null","",NA,NA,NA,NA,""
"image-keyboard-response",440,348307,"0.0-4.142-2.142","7erbets5yqww8xn",462,"16.csv","","null","resources/images/coin2.png","null","",NA,NA,NA,NA,""
"image-keyboard-response",441,348768,"0.0-4.143-0.143","7erbets5yqww8xn",462,"16.csv","","459.39999997615814","resources/trios/L4T2A3.jpg","37","restless",0.7,0.6,0.7,0.258794941971981,"true"
"image-keyboard-response",442,349173,"0.0-4.143-1.143","7erbets5yqww8xn",462,"16.csv","","null","resources/maskTrios/L4BB.jpg","null","",NA,NA,NA,NA,""
"image-keyboard-response",443,350379,"0.0-4.143-2.143","7erbets5yqww8xn",462,"16.csv","","null","resources/images/coin2.png","null","",NA,NA,NA,NA,""
"image-keyboard-response",444,350663,"0.0-4.144-0.144","7erbets5yqww8xn",462,"16.csv","","283.30000001192093","resources/trios/L4T2A3.jpg","37","restless",0.6,0.6,0.7,0.179735929094016,"true"
"image-keyboard-response",445,351066,"0.0-4.144-1.144","7erbets5yqww8xn",462,"16.csv","","null","resources/maskTrios/L4BB.jpg","null","",NA,NA,NA,NA,""
"image-keyboard-response",446,352269,"0.0-4.144-2.144","7erbets5yqww8xn",462,"16.csv","","null","resources/images/coin2.png","null","",NA,NA,NA,NA,""
"image-keyboard-response",447,353520,"0.0-4.145-0.145","7erbets5yqww8xn",462,"16.csv","","1250.300000011921","resources/trios/L4T2A3.jpg","37","restless",0.6,0.6,0.7,0.727750878621487,"false"
"image-keyboard-response",448,353922,"0.0-4.145-1.145","7erbets5yqww8xn",462,"16.csv","","null","resources/maskTrios/L4BB.jpg","null","",NA,NA,NA,NA,""
"image-keyboard-response",449,355125,"0.0-4.145-2.145","7erbets5yqww8xn",462,"16.csv","","null","resources/images/fishbone.png","null","",NA,NA,NA,NA,""
"image-keyboard-response",450,362140,"0.0-4.146-0.146","7erbets5yqww8xn",462,"16.csv","","7013.900000035763","resources/trios/L4T2A3.jpg","38","restless",0.6,0.6,0.7,0.732926838310388,"false"
"image-keyboard-response",451,362542,"0.0-4.146-1.146","7erbets5yqww8xn",462,"16.csv","","null","resources/maskTrios/BT2B.jpg","null","",NA,NA,NA,NA,""
"image-keyboard-response",452,363744,"0.0-4.146-2.146","7erbets5yqww8xn",462,"16.csv","","null","resources/images/fishbone.png","null","",NA,NA,NA,NA,""
"image-keyboard-response",453,368422,"0.0-4.147-0.147","7erbets5yqww8xn",462,"16.csv","","4676.5","resources/trios/L4T2A3.jpg","39","restless",0.6,0.6,0.7,0.285767037609802,"true"
"image-keyboard-response",454,368827,"0.0-4.147-1.147","7erbets5yqww8xn",462,"16.csv","","null","resources/maskTrios/BBA3.jpg","null","",NA,NA,NA,NA,""
"image-keyboard-response",455,370032,"0.0-4.147-2.147","7erbets5yqww8xn",462,"16.csv","","null","resources/images/coin2.png","null","",NA,NA,NA,NA,""
"image-keyboard-response",456,370912,"0.0-4.148-0.148","7erbets5yqww8xn",462,"16.csv","","878.5","resources/trios/L4T2A3.jpg","39","restless",0.6,0.6,0.7,0.502920719273039,"true"
"image-keyboard-response",457,371313,"0.0-4.148-1.148","7erbets5yqww8xn",462,"16.csv","","null","resources/maskTrios/BBA3.jpg","null","",NA,NA,NA,NA,""
"image-keyboard-response",458,372515,"0.0-4.148-2.148","7erbets5yqww8xn",462,"16.csv","","null","resources/images/coin2.png","null","",NA,NA,NA,NA,""
"image-keyboard-response",459,372999,"0.0-4.149-0.149","7erbets5yqww8xn",462,"16.csv","","482.69999998807907","resources/trios/L4T2A3.jpg","37","restless",0.6,0.7,0.7,0.783146939961755,"false"
"image-keyboard-response",460,373404,"0.0-4.149-1.149","7erbets5yqww8xn",462,"16.csv","","null","resources/maskTrios/L4BB.jpg","null","",NA,NA,NA,NA,""
"image-keyboard-response",461,374606,"0.0-4.149-2.149","7erbets5yqww8xn",462,"16.csv","","null","resources/images/fishbone.png","null","",NA,NA,NA,NA,""
"image-keyboard-response",462,374964,"0.0-4.150-0.150","7erbets5yqww8xn",462,"16.csv","","357.0999999642372","resources/trios/L4T2A3.jpg","39","restless",0.6,0.7,0.7,0.0219537460254828,"true"
"image-keyboard-response",463,375370,"0.0-4.150-1.150","7erbets5yqww8xn",462,"16.csv","","null","resources/maskTrios/BBA3.jpg","null","",NA,NA,NA,NA,""
"image-keyboard-response",464,376573,"0.0-4.150-2.150","7erbets5yqww8xn",462,"16.csv","","null","resources/images/coin2.png","null","",NA,NA,NA,NA,""
"image-keyboard-response",465,377434,"0.0-4.151-0.151","7erbets5yqww8xn",462,"16.csv","","859.5","resources/trios/L4T2A3.jpg","39","restless",0.6,0.7,0.7,0.215820655973734,"true"
"image-keyboard-response",466,377840,"0.0-4.151-1.151","7erbets5yqww8xn",462,"16.csv","","null","resources/maskTrios/BBA3.jpg","null","",NA,NA,NA,NA,""
"image-keyboard-response",467,379041,"0.0-4.151-2.151","7erbets5yqww8xn",462,"16.csv","","null","resources/images/coin2.png","null","",NA,NA,NA,NA,""
"image-keyboard-response",468,379097,"0.0-4.152-0.152","7erbets5yqww8xn",462,"16.csv","","54.40000003576279","resources/trios/L4T2A3.jpg","39","restless",0.6,0.7,0.7,0.581299425665936,"true"
"image-keyboard-response",469,379499,"0.0-4.152-1.152","7erbets5yqww8xn",462,"16.csv","","null","resources/maskTrios/BBA3.jpg","null","",NA,NA,NA,NA,""
"image-keyboard-response",470,380706,"0.0-4.152-2.152","7erbets5yqww8xn",462,"16.csv","","null","resources/images/coin2.png","null","",NA,NA,NA,NA,""
"image-keyboard-response",471,381071,"0.0-4.153-0.153","7erbets5yqww8xn",462,"16.csv","","364.30000001192093","resources/trios/L4T2A3.jpg","39","restless",0.6,0.7,0.7,0.372581677817706,"true"
"image-keyboard-response",472,381473,"0.0-4.153-1.153","7erbets5yqww8xn",462,"16.csv","","null","resources/maskTrios/BBA3.jpg","null","",NA,NA,NA,NA,""
"image-keyboard-response",473,382674,"0.0-4.153-2.153","7erbets5yqww8xn",462,"16.csv","","null","resources/images/coin2.png","null","",NA,NA,NA,NA,""
"image-keyboard-response",474,383039,"0.0-4.154-0.154","7erbets5yqww8xn",462,"16.csv","","363.0999999642372","resources/trios/L4T2A3.jpg","39","restless",0.6,0.7,0.7,0.983606435384968,"false"
"image-keyboard-response",475,383441,"0.0-4.154-1.154","7erbets5yqww8xn",462,"16.csv","","null","resources/maskTrios/BBA3.jpg","null","",NA,NA,NA,NA,""
"image-keyboard-response",476,384645,"0.0-4.154-2.154","7erbets5yqww8xn",462,"16.csv","","null","resources/images/fishbone.png","null","",NA,NA,NA,NA,""
"image-keyboard-response",477,385186,"0.0-4.155-0.155","7erbets5yqww8xn",462,"16.csv","","539.8000000119209","resources/trios/L4T2A3.jpg","39","restless",0.6,0.8,0.7,0.883039192726136,"false"
"image-keyboard-response",478,385588,"0.0-4.155-1.155","7erbets5yqww8xn",462,"16.csv","","null","resources/maskTrios/BBA3.jpg","null","",NA,NA,NA,NA,""
"image-keyboard-response",479,386792,"0.0-4.155-2.155","7erbets5yqww8xn",462,"16.csv","","null","resources/images/fishbone.png","null","",NA,NA,NA,NA,""
"image-keyboard-response",480,386978,"0.0-4.156-0.156","7erbets5yqww8xn",462,"16.csv","","184.89999997615814","resources/trios/L4T2A3.jpg","38","restless",0.5,0.8,0.6,0.847573725235182,"false"
"image-keyboard-response",481,387384,"0.0-4.156-1.156","7erbets5yqww8xn",462,"16.csv","","null","resources/maskTrios/BT2B.jpg","null","",NA,NA,NA,NA,""
"image-keyboard-response",482,388586,"0.0-4.156-2.156","7erbets5yqww8xn",462,"16.csv","","null","resources/images/fishbone.png","null","",NA,NA,NA,NA,""
"image-keyboard-response",483,389293,"0.0-4.157-0.157","7erbets5yqww8xn",462,"16.csv","","706.3000000119209","resources/trios/L4T2A3.jpg","38","restless",0.5,0.8,0.6,0.393211714202918,"true"
"image-keyboard-response",484,389699,"0.0-4.157-1.157","7erbets5yqww8xn",462,"16.csv","","null","resources/maskTrios/BT2B.jpg","null","",NA,NA,NA,NA,""
"image-keyboard-response",485,390900,"0.0-4.157-2.157","7erbets5yqww8xn",462,"16.csv","","null","resources/images/coin2.png","null","",NA,NA,NA,NA,""
"image-keyboard-response",486,390973,"0.0-4.158-0.158","7erbets5yqww8xn",462,"16.csv","","71.5","resources/trios/L4T2A3.jpg","38","restless",0.4,0.8,0.6,0.354166051406029,"true"
"image-keyboard-response",487,391377,"0.0-4.158-1.158","7erbets5yqww8xn",462,"16.csv","","null","resources/maskTrios/BT2B.jpg","null","",NA,NA,NA,NA,""
"image-keyboard-response",488,392578,"0.0-4.158-2.158","7erbets5yqww8xn",462,"16.csv","","null","resources/images/coin2.png","null","",NA,NA,NA,NA,""
"image-keyboard-response",489,392998,"0.0-4.159-0.159","7erbets5yqww8xn",462,"16.csv","","418.2000000476837","resources/trios/L4T2A3.jpg","38","restless",0.4,0.8,0.6,0.318166734547884,"true"
"image-keyboard-response",490,393403,"0.0-4.159-1.159","7erbets5yqww8xn",462,"16.csv","","null","resources/maskTrios/BT2B.jpg","null","",NA,NA,NA,NA,""
"image-keyboard-response",491,394604,"0.0-4.159-2.159","7erbets5yqww8xn",462,"16.csv","","null","resources/images/coin2.png","null","",NA,NA,NA,NA,""
"image-keyboard-response",492,395725,"0.0-4.160-0.160","7erbets5yqww8xn",462,"16.csv","","1120.2999999523163","resources/trios/L4T2A3.jpg","38","restless",0.4,0.8,0.6,0.715881771389407,"true"
"image-keyboard-response",493,396131,"0.0-4.160-1.160","7erbets5yqww8xn",462,"16.csv","","null","resources/maskTrios/BT2B.jpg","null","",NA,NA,NA,NA,""
"image-keyboard-response",494,397332,"0.0-4.160-2.160","7erbets5yqww8xn",462,"16.csv","","null","resources/images/coin2.png","null","",NA,NA,NA,NA,""
"image-keyboard-response",495,397696,"0.0-4.161-0.161","7erbets5yqww8xn",462,"16.csv","","362","resources/trios/L4T2A3.jpg","38","restless",0.4,0.8,0.6,0.281397926875514,"true"
"image-keyboard-response",496,398099,"0.0-4.161-1.161","7erbets5yqww8xn",462,"16.csv","","null","resources/maskTrios/BT2B.jpg","null","",NA,NA,NA,NA,""
"image-keyboard-response",497,399305,"0.0-4.161-2.161","7erbets5yqww8xn",462,"16.csv","","null","resources/images/coin2.png","null","",NA,NA,NA,NA,""
"image-keyboard-response",498,399763,"0.0-4.162-0.162","7erbets5yqww8xn",462,"16.csv","","457","resources/trios/L4T2A3.jpg","38","restless",0.3,0.8,0.5,0.300840985682934,"true"
"image-keyboard-response",499,400170,"0.0-4.162-1.162","7erbets5yqww8xn",462,"16.csv","","null","resources/maskTrios/BT2B.jpg","null","",NA,NA,NA,NA,""
"image-keyboard-response",500,401375,"0.0-4.162-2.162","7erbets5yqww8xn",462,"16.csv","","null","resources/images/coin2.png","null","",NA,NA,NA,NA,""
"image-keyboard-response",501,402086,"0.0-4.163-0.163","7erbets5yqww8xn",462,"16.csv","","709.1999999880791","resources/trios/L4T2A3.jpg","38","restless",0.3,0.8,0.5,0.834937988672903,"false"
"image-keyboard-response",502,402487,"0.0-4.163-1.163","7erbets5yqww8xn",462,"16.csv","","null","resources/maskTrios/BT2B.jpg","null","",NA,NA,NA,NA,""
"image-keyboard-response",503,403691,"0.0-4.163-2.163","7erbets5yqww8xn",462,"16.csv","","null","resources/images/fishbone.png","null","",NA,NA,NA,NA,""
"image-keyboard-response",504,404584,"0.0-4.164-0.164","7erbets5yqww8xn",462,"16.csv","","891.6000000238419","resources/trios/L4T2A3.jpg","38","restless",0.3,0.7,0.5,0.982429846548927,"false"
"image-keyboard-response",505,404989,"0.0-4.164-1.164","7erbets5yqww8xn",462,"16.csv","","null","resources/maskTrios/BT2B.jpg","null","",NA,NA,NA,NA,""
"image-keyboard-response",506,406191,"0.0-4.164-2.164","7erbets5yqww8xn",462,"16.csv","","null","resources/images/fishbone.png","null","",NA,NA,NA,NA,""
"image-keyboard-response",507,406629,"0.0-4.165-0.165","7erbets5yqww8xn",462,"16.csv","","437.0999999642372","resources/trios/L4T2A3.jpg","38","restless",0.3,0.7,0.5,0.0886029885175055,"true"
"image-keyboard-response",508,407032,"0.0-4.165-1.165","7erbets5yqww8xn",462,"16.csv","","null","resources/maskTrios/BT2B.jpg","null","",NA,NA,NA,NA,""
"image-keyboard-response",509,408235,"0.0-4.165-2.165","7erbets5yqww8xn",462,"16.csv","","null","resources/images/coin2.png","null","",NA,NA,NA,NA,""
"image-keyboard-response",510,408784,"0.0-4.166-0.166","7erbets5yqww8xn",462,"16.csv","","548","resources/trios/L4T2A3.jpg","38","restless",0.2,0.7,0.5,0.114005756443955,"true"
"image-keyboard-response",511,409186,"0.0-4.166-1.166","7erbets5yqww8xn",462,"16.csv","","null","resources/maskTrios/BT2B.jpg","null","",NA,NA,NA,NA,""
"image-keyboard-response",512,410389,"0.0-4.166-2.166","7erbets5yqww8xn",462,"16.csv","","null","resources/images/coin2.png","null","",NA,NA,NA,NA,""
"image-keyboard-response",513,411129,"0.0-4.167-0.167","7erbets5yqww8xn",462,"16.csv","","739.3000000119209","resources/trios/L4T2A3.jpg","38","restless",0.2,0.7,0.5,0.710146527683921,"false"
"image-keyboard-response",514,411532,"0.0-4.167-1.167","7erbets5yqww8xn",462,"16.csv","","null","resources/maskTrios/BT2B.jpg","null","",NA,NA,NA,NA,""
"image-keyboard-response",515,412733,"0.0-4.167-2.167","7erbets5yqww8xn",462,"16.csv","","null","resources/images/fishbone.png","null","",NA,NA,NA,NA,""
"image-keyboard-response",516,414101,"0.0-4.168-0.168","7erbets5yqww8xn",462,"16.csv","","1366","resources/trios/L4T2A3.jpg","38","restless",0.2,0.7,0.5,0.585176018606681,"true"
"image-keyboard-response",517,414503,"0.0-4.168-1.168","7erbets5yqww8xn",462,"16.csv","","null","resources/maskTrios/BT2B.jpg","null","",NA,NA,NA,NA,""
"image-keyboard-response",518,415706,"0.0-4.168-2.168","7erbets5yqww8xn",462,"16.csv","","null","resources/images/coin2.png","null","",NA,NA,NA,NA,""
"image-keyboard-response",519,416160,"0.0-4.169-0.169","7erbets5yqww8xn",462,"16.csv","","453","resources/trios/L4T2A3.jpg","38","restless",0.2,0.7,0.5,0.916216217031013,"false"
"image-keyboard-response",520,416565,"0.0-4.169-1.169","7erbets5yqww8xn",462,"16.csv","","null","resources/maskTrios/BT2B.jpg","null","",NA,NA,NA,NA,""
"image-keyboard-response",521,417771,"0.0-4.169-2.169","7erbets5yqww8xn",462,"16.csv","","null","resources/images/fishbone.png","null","",NA,NA,NA,NA,""
"image-keyboard-response",522,418204,"0.0-4.170-0.170","7erbets5yqww8xn",462,"16.csv","","431.30000001192093","resources/trios/L4T2A3.jpg","38","restless",0.2,0.7,0.5,0.491391584550943,"true"
"image-keyboard-response",523,418608,"0.0-4.170-1.170","7erbets5yqww8xn",462,"16.csv","","null","resources/maskTrios/BT2B.jpg","null","",NA,NA,NA,NA,""
"image-keyboard-response",524,419810,"0.0-4.170-2.170","7erbets5yqww8xn",462,"16.csv","","null","resources/images/coin2.png","null","",NA,NA,NA,NA,""
"image-keyboard-response",525,420065,"0.0-4.171-0.171","7erbets5yqww8xn",462,"16.csv","","254.20000004768372","resources/trios/L4T2A3.jpg","38","restless",0.2,0.7,0.5,0.987003047101244,"false"
"image-keyboard-response",526,420471,"0.0-4.171-1.171","7erbets5yqww8xn",462,"16.csv","","null","resources/maskTrios/BT2B.jpg","null","",NA,NA,NA,NA,""
"image-keyboard-response",527,421673,"0.0-4.171-2.171","7erbets5yqww8xn",462,"16.csv","","null","resources/images/fishbone.png","null","",NA,NA,NA,NA,""
"image-keyboard-response",528,422205,"0.0-4.172-0.172","7erbets5yqww8xn",462,"16.csv","","530.1999999880791","resources/trios/L4T2A3.jpg","38","restless",0.2,0.7,0.6,0.590473638092765,"true"
"image-keyboard-response",529,422608,"0.0-4.172-1.172","7erbets5yqww8xn",462,"16.csv","","null","resources/maskTrios/BT2B.jpg","null","",NA,NA,NA,NA,""
"image-keyboard-response",530,423810,"0.0-4.172-2.172","7erbets5yqww8xn",462,"16.csv","","null","resources/images/coin2.png","null","",NA,NA,NA,NA,""
"image-keyboard-response",531,424148,"0.0-4.173-0.173","7erbets5yqww8xn",462,"16.csv","","337.10000002384186","resources/trios/L4T2A3.jpg","38","restless",0.2,0.7,0.6,0.881534531337269,"false"
"image-keyboard-response",532,424553,"0.0-4.173-1.173","7erbets5yqww8xn",462,"16.csv","","null","resources/maskTrios/BT2B.jpg","null","",NA,NA,NA,NA,""
"image-keyboard-response",533,425760,"0.0-4.173-2.173","7erbets5yqww8xn",462,"16.csv","","null","resources/images/fishbone.png","null","",NA,NA,NA,NA,""
"image-keyboard-response",534,427099,"0.0-4.174-0.174","7erbets5yqww8xn",462,"16.csv","","1337.4000000357628","resources/trios/L4T2A3.jpg","38","restless",0.2,0.7,0.6,0.365435659326065,"true"
"image-keyboard-response",535,427504,"0.0-4.174-1.174","7erbets5yqww8xn",462,"16.csv","","null","resources/maskTrios/BT2B.jpg","null","",NA,NA,NA,NA,""
"image-keyboard-response",536,428707,"0.0-4.174-2.174","7erbets5yqww8xn",462,"16.csv","","null","resources/images/coin2.png","null","",NA,NA,NA,NA,""
"image-keyboard-response",537,429555,"0.0-4.175-0.175","7erbets5yqww8xn",462,"16.csv","","847.3999999761581","resources/trios/L4T2A3.jpg","38","restless",0.2,0.7,0.6,0.339810283873111,"true"
"image-keyboard-response",538,429957,"0.0-4.175-1.175","7erbets5yqww8xn",462,"16.csv","","null","resources/maskTrios/BT2B.jpg","null","",NA,NA,NA,NA,""
"image-keyboard-response",539,431159,"0.0-4.175-2.175","7erbets5yqww8xn",462,"16.csv","","null","resources/images/coin2.png","null","",NA,NA,NA,NA,""
"image-keyboard-response",540,436979,"0.0-4.176-0.176","7erbets5yqww8xn",462,"16.csv","","5818.100000023842","resources/trios/L4T2A3.jpg","38","restless",0.2,0.7,0.6,0.444948078160671,"true"
"image-keyboard-response",541,437384,"0.0-4.176-1.176","7erbets5yqww8xn",462,"16.csv","","null","resources/maskTrios/BT2B.jpg","null","",NA,NA,NA,NA,""
"image-keyboard-response",542,438587,"0.0-4.176-2.176","7erbets5yqww8xn",462,"16.csv","","null","resources/images/coin2.png","null","",NA,NA,NA,NA,""
"image-keyboard-response",543,439720,"0.0-4.177-0.177","7erbets5yqww8xn",462,"16.csv","","1132.5","resources/trios/L4T2A3.jpg","39","restless",0.2,0.7,0.6,0.0735210888745652,"true"
"image-keyboard-response",544,440126,"0.0-4.177-1.177","7erbets5yqww8xn",462,"16.csv","","null","resources/maskTrios/BBA3.jpg","null","",NA,NA,NA,NA,""
"image-keyboard-response",545,441332,"0.0-4.177-2.177","7erbets5yqww8xn",462,"16.csv","","null","resources/images/coin2.png","null","",NA,NA,NA,NA,""
"image-keyboard-response",546,443722,"0.0-4.178-0.178","7erbets5yqww8xn",462,"16.csv","","2389","resources/trios/L4T2A3.jpg","39","restless",0.2,0.7,0.6,0.18280165660792,"true"
"image-keyboard-response",547,444129,"0.0-4.178-1.178","7erbets5yqww8xn",462,"16.csv","","null","resources/maskTrios/BBA3.jpg","null","",NA,NA,NA,NA,""
"image-keyboard-response",548,445335,"0.0-4.178-2.178","7erbets5yqww8xn",462,"16.csv","","null","resources/images/coin2.png","null","",NA,NA,NA,NA,""
"image-keyboard-response",549,445804,"0.0-4.179-0.179","7erbets5yqww8xn",462,"16.csv","","467.30000001192093","resources/trios/L4T2A3.jpg","39","restless",0.2,0.7,0.6,0.451435483386135,"true"
"image-keyboard-response",550,446209,"0.0-4.179-1.179","7erbets5yqww8xn",462,"16.csv","","null","resources/maskTrios/BBA3.jpg","null","",NA,NA,NA,NA,""
"image-keyboard-response",551,447412,"0.0-4.179-2.179","7erbets5yqww8xn",462,"16.csv","","null","resources/images/coin2.png","null","",NA,NA,NA,NA,""
"image-keyboard-response",552,447719,"0.0-4.180-0.180","7erbets5yqww8xn",462,"16.csv","","306.30000001192093","resources/trios/L4T2A3.jpg","39","restless",0.2,0.7,0.6,0.25323137437551,"true"
"image-keyboard-response",553,448122,"0.0-4.180-1.180","7erbets5yqww8xn",462,"16.csv","","null","resources/maskTrios/BBA3.jpg","null","",NA,NA,NA,NA,""
"image-keyboard-response",554,449328,"0.0-4.180-2.180","7erbets5yqww8xn",462,"16.csv","","null","resources/images/coin2.png","null","",NA,NA,NA,NA,""
"image-keyboard-response",555,449728,"0.0-4.181-0.181","7erbets5yqww8xn",462,"16.csv","","399.0999999642372","resources/trios/L4T2A3.jpg","39","restless",0.2,0.7,0.6,0.367412122614532,"true"
"image-keyboard-response",556,450130,"0.0-4.181-1.181","7erbets5yqww8xn",462,"16.csv","","null","resources/maskTrios/BBA3.jpg","null","",NA,NA,NA,NA,""
"image-keyboard-response",557,451333,"0.0-4.181-2.181","7erbets5yqww8xn",462,"16.csv","","null","resources/images/coin2.png","null","",NA,NA,NA,NA,""
"image-keyboard-response",558,451641,"0.0-4.182-0.182","7erbets5yqww8xn",462,"16.csv","","306.5999999642372","resources/trios/L4T2A3.jpg","39","restless",0.2,0.7,0.6,0.695620831459067,"false"
"image-keyboard-response",559,452046,"0.0-4.182-1.182","7erbets5yqww8xn",462,"16.csv","","null","resources/maskTrios/BBA3.jpg","null","",NA,NA,NA,NA,""
"image-keyboard-response",560,453250,"0.0-4.182-2.182","7erbets5yqww8xn",462,"16.csv","","null","resources/images/fishbone.png","null","",NA,NA,NA,NA,""
"image-keyboard-response",561,453624,"0.0-4.183-0.183","7erbets5yqww8xn",462,"16.csv","","372.60000002384186","resources/trios/L4T2A3.jpg","39","restless",0.2,0.7,0.6,0.959648749842713,"false"
"image-keyboard-response",562,454026,"0.0-4.183-1.183","7erbets5yqww8xn",462,"16.csv","","null","resources/maskTrios/BBA3.jpg","null","",NA,NA,NA,NA,""
"image-keyboard-response",563,455227,"0.0-4.183-2.183","7erbets5yqww8xn",462,"16.csv","","null","resources/images/fishbone.png","null","",NA,NA,NA,NA,""
"image-keyboard-response",564,455658,"0.0-4.184-0.184","7erbets5yqww8xn",462,"16.csv","","429.4000000357628","resources/trios/L4T2A3.jpg","39","restless",0.2,0.7,0.5,0.948192692942567,"false"
"image-keyboard-response",565,456062,"0.0-4.184-1.184","7erbets5yqww8xn",462,"16.csv","","null","resources/maskTrios/BBA3.jpg","null","",NA,NA,NA,NA,""
"image-keyboard-response",566,457265,"0.0-4.184-2.184","7erbets5yqww8xn",462,"16.csv","","null","resources/images/fishbone.png","null","",NA,NA,NA,NA,""
"image-keyboard-response",567,457554,"0.0-4.185-0.185","7erbets5yqww8xn",462,"16.csv","","287.39999997615814","resources/trios/L4T2A3.jpg","37","restless",0.2,0.7,0.5,0.928039896855642,"false"
"image-keyboard-response",568,457956,"0.0-4.185-1.185","7erbets5yqww8xn",462,"16.csv","","null","resources/maskTrios/L4BB.jpg","null","",NA,NA,NA,NA,""
"image-keyboard-response",569,459157,"0.0-4.185-2.185","7erbets5yqww8xn",462,"16.csv","","null","resources/images/fishbone.png","null","",NA,NA,NA,NA,""
"image-keyboard-response",570,460159,"0.0-4.186-0.186","7erbets5yqww8xn",462,"16.csv","","1000.1999999880791","resources/trios/L4T2A3.jpg","37","restless",0.2,0.7,0.5,0.873930256706314,"false"
"image-keyboard-response",571,460562,"0.0-4.186-1.186","7erbets5yqww8xn",462,"16.csv","","null","resources/maskTrios/L4BB.jpg","null","",NA,NA,NA,NA,""
"image-keyboard-response",572,461764,"0.0-4.186-2.186","7erbets5yqww8xn",462,"16.csv","","null","resources/images/fishbone.png","null","",NA,NA,NA,NA,""
"image-keyboard-response",573,462082,"0.0-4.187-0.187","7erbets5yqww8xn",462,"16.csv","","317","resources/trios/L4T2A3.jpg","38","restless",0.2,0.7,0.5,0.477833762587781,"true"
"image-keyboard-response",574,462486,"0.0-4.187-1.187","7erbets5yqww8xn",462,"16.csv","","null","resources/maskTrios/BT2B.jpg","null","",NA,NA,NA,NA,""
"image-keyboard-response",575,463691,"0.0-4.187-2.187","7erbets5yqww8xn",462,"16.csv","","null","resources/images/coin2.png","null","",NA,NA,NA,NA,""
"image-keyboard-response",576,464107,"0.0-4.188-0.188","7erbets5yqww8xn",462,"16.csv","","415.2000000476837","resources/trios/L4T2A3.jpg","38","restless",0.3,0.7,0.5,0.303085345549099,"true"
"image-keyboard-response",577,464510,"0.0-4.188-1.188","7erbets5yqww8xn",462,"16.csv","","null","resources/maskTrios/BT2B.jpg","null","",NA,NA,NA,NA,""
"image-keyboard-response",578,465711,"0.0-4.188-2.188","7erbets5yqww8xn",462,"16.csv","","null","resources/images/coin2.png","null","",NA,NA,NA,NA,""
"image-keyboard-response",579,466108,"0.0-4.189-0.189","7erbets5yqww8xn",462,"16.csv","","395.5","resources/trios/L4T2A3.jpg","38","restless",0.3,0.7,0.5,0.158319777530387,"true"
"image-keyboard-response",580,466513,"0.0-4.189-1.189","7erbets5yqww8xn",462,"16.csv","","null","resources/maskTrios/BT2B.jpg","null","",NA,NA,NA,NA,""
"image-keyboard-response",581,467715,"0.0-4.189-2.189","7erbets5yqww8xn",462,"16.csv","","null","resources/images/coin2.png","null","",NA,NA,NA,NA,""
"image-keyboard-response",582,468038,"0.0-4.190-0.190","7erbets5yqww8xn",462,"16.csv","","322.19999998807907","resources/trios/L4T2A3.jpg","38","restless",0.3,0.7,0.5,0.349498130056811,"true"
"image-keyboard-response",583,468441,"0.0-4.190-1.190","7erbets5yqww8xn",462,"16.csv","","null","resources/maskTrios/BT2B.jpg","null","",NA,NA,NA,NA,""
"image-keyboard-response",584,469645,"0.0-4.190-2.190","7erbets5yqww8xn",462,"16.csv","","null","resources/images/coin2.png","null","",NA,NA,NA,NA,""
"image-keyboard-response",585,469961,"0.0-4.191-0.191","7erbets5yqww8xn",462,"16.csv","","314.80000001192093","resources/trios/L4T2A3.jpg","38","restless",0.3,0.7,0.5,0.761183455112654,"false"
"image-keyboard-response",586,470367,"0.0-4.191-1.191","7erbets5yqww8xn",462,"16.csv","","null","resources/maskTrios/BT2B.jpg","null","",NA,NA,NA,NA,""
"image-keyboard-response",587,471570,"0.0-4.191-2.191","7erbets5yqww8xn",462,"16.csv","","null","resources/images/fishbone.png","null","",NA,NA,NA,NA,""
"image-keyboard-response",588,471949,"0.0-4.192-0.192","7erbets5yqww8xn",462,"16.csv","","378.19999998807907","resources/trios/L4T2A3.jpg","38","restless",0.4,0.7,0.5,0.723492220656412,"false"
"image-keyboard-response",589,472353,"0.0-4.192-1.192","7erbets5yqww8xn",462,"16.csv","","null","resources/maskTrios/BT2B.jpg","null","",NA,NA,NA,NA,""
"image-keyboard-response",590,473554,"0.0-4.192-2.192","7erbets5yqww8xn",462,"16.csv","","null","resources/images/fishbone.png","null","",NA,NA,NA,NA,""
"image-keyboard-response",591,473758,"0.0-4.193-0.193","7erbets5yqww8xn",462,"16.csv","","202.39999997615814","resources/trios/L4T2A3.jpg","39","restless",0.4,0.8,0.5,0.634666566788734,"false"
"image-keyboard-response",592,474164,"0.0-4.193-1.193","7erbets5yqww8xn",462,"16.csv","","null","resources/maskTrios/BBA3.jpg","null","",NA,NA,NA,NA,""
"image-keyboard-response",593,475365,"0.0-4.193-2.193","7erbets5yqww8xn",462,"16.csv","","null","resources/images/fishbone.png","null","",NA,NA,NA,NA,""
"image-keyboard-response",594,475761,"0.0-4.194-0.194","7erbets5yqww8xn",462,"16.csv","","394","resources/trios/L4T2A3.jpg","37","restless",0.4,0.8,0.5,0.610142764652466,"false"
"image-keyboard-response",595,476166,"0.0-4.194-1.194","7erbets5yqww8xn",462,"16.csv","","null","resources/maskTrios/L4BB.jpg","null","",NA,NA,NA,NA,""
"image-keyboard-response",596,477368,"0.0-4.194-2.194","7erbets5yqww8xn",462,"16.csv","","null","resources/images/fishbone.png","null","",NA,NA,NA,NA,""
"image-keyboard-response",597,477742,"0.0-4.195-0.195","7erbets5yqww8xn",462,"16.csv","","372.7000000476837","resources/trios/L4T2A3.jpg","38","restless",0.4,0.8,0.5,0.386969125357221,"true"
"image-keyboard-response",598,478146,"0.0-4.195-1.195","7erbets5yqww8xn",462,"16.csv","","null","resources/maskTrios/BT2B.jpg","null","",NA,NA,NA,NA,""
"image-keyboard-response",599,479351,"0.0-4.195-2.195","7erbets5yqww8xn",462,"16.csv","","null","resources/images/coin2.png","null","",NA,NA,NA,NA,""
"image-keyboard-response",600,479670,"0.0-4.196-0.196","7erbets5yqww8xn",462,"16.csv","","317.80000001192093","resources/trios/L4T2A3.jpg","38","restless",0.4,0.7,0.5,0.857667510606296,"false"
"image-keyboard-response",601,480073,"0.0-4.196-1.196","7erbets5yqww8xn",462,"16.csv","","null","resources/maskTrios/BT2B.jpg","null","",NA,NA,NA,NA,""
"image-keyboard-response",602,481275,"0.0-4.196-2.196","7erbets5yqww8xn",462,"16.csv","","null","resources/images/fishbone.png","null","",NA,NA,NA,NA,""
"image-keyboard-response",603,481846,"0.0-4.197-0.197","7erbets5yqww8xn",462,"16.csv","","569.6999999880791","resources/trios/L4T2A3.jpg","39","restless",0.4,0.7,0.5,0.380152784015043,"true"
"image-keyboard-response",604,482250,"0.0-4.197-1.197","7erbets5yqww8xn",462,"16.csv","","null","resources/maskTrios/BBA3.jpg","null","",NA,NA,NA,NA,""
"image-keyboard-response",605,483452,"0.0-4.197-2.197","7erbets5yqww8xn",462,"16.csv","","null","resources/images/coin2.png","null","",NA,NA,NA,NA,""
"image-keyboard-response",606,485309,"0.0-4.198-0.198","7erbets5yqww8xn",462,"16.csv","","1855.8999999761581","resources/trios/L4T2A3.jpg","39","restless",0.4,0.7,0.5,0.817542349678007,"false"
"image-keyboard-response",607,485712,"0.0-4.198-1.198","7erbets5yqww8xn",462,"16.csv","","null","resources/maskTrios/BBA3.jpg","null","",NA,NA,NA,NA,""
"image-keyboard-response",608,486918,"0.0-4.198-2.198","7erbets5yqww8xn",462,"16.csv","","null","resources/images/fishbone.png","null","",NA,NA,NA,NA,""
"image-keyboard-response",609,488677,"0.0-4.199-0.199","7erbets5yqww8xn",462,"16.csv","","1757.6000000238419","resources/trios/L4T2A3.jpg","38","restless",0.4,0.7,0.5,0.528652001919276,"true"
"image-keyboard-response",610,489081,"0.0-4.199-1.199","7erbets5yqww8xn",462,"16.csv","","null","resources/maskTrios/BT2B.jpg","null","",NA,NA,NA,NA,""
"image-keyboard-response",611,490285,"0.0-4.199-2.199","7erbets5yqww8xn",462,"16.csv","","null","resources/images/coin2.png","null","",NA,NA,NA,NA,""
"survey-text",612,498211,"0.0-5.0","7erbets5yqww8xn",462,"16.csv","","7921.600000023842","","","",NA,NA,NA,NA,""
