"trial_type","trial_index","time_elapsed","internal_node_id","subject","participantCode","walkNumber","success","rt","stimulus","key_press","test_part","leftProb","midProb","rightProb","generatedNum","correct"
"pavlovia",0,1078,"0.0-0.0","krvbdjul505gomc",647,"78.csv","","","","","",NA,NA,NA,NA,""
"fullscreen",1,6084,"0.0-1.0","krvbdjul505gomc",647,"78.csv","true","","","","",NA,NA,NA,NA,""
"survey-html-form",2,11996,"0.0-2.0","krvbdjul505gomc",647,"78.csv","","5910","","","",NA,NA,NA,NA,""
"image-keyboard-response",3,35668,"0.0-3.0-0.0","krvbdjul505gomc",647,"78.csv","","23671.099999997765","resources/images/parrot_nobg.png","13","",NA,NA,NA,NA,""
"image-keyboard-response",4,38684,"0.0-3.0-1.0","krvbdjul505gomc",647,"78.csv","","null","resources/image_sets/111.png","null","",NA,NA,NA,NA,""
"image-keyboard-response",5,42923,"0.0-3.0-2.0","krvbdjul505gomc",647,"78.csv","","4238.800000000745","resources/image_sets/left_highlight.png","37","",NA,NA,NA,NA,""
"image-keyboard-response",6,44206,"0.0-3.0-3.0","krvbdjul505gomc",647,"78.csv","","1281.300000000745","resources/image_sets/mid_highlight.png","38","",NA,NA,NA,NA,""
"image-keyboard-response",7,45292,"0.0-3.0-4.0","krvbdjul505gomc",647,"78.csv","","1084.699999999255","resources/image_sets/right_highlight.png","39","",NA,NA,NA,NA,""
"image-keyboard-response",8,49350,"0.0-3.0-5.0","krvbdjul505gomc",647,"78.csv","","4057.10000000149","resources/image_sets/111.png","13","",NA,NA,NA,NA,""
"image-keyboard-response",9,51679,"0.0-3.0-6.0","krvbdjul505gomc",647,"78.csv","","2328.5","resources/images/coin2.png","13","",NA,NA,NA,NA,""
"image-keyboard-response",10,52809,"0.0-3.0-7.0","krvbdjul505gomc",647,"78.csv","","1129.699999999255","resources/images/fishbone.png","13","",NA,NA,NA,NA,""
"html-keyboard-response",11,59267,"0.0-3.0-8.0","krvbdjul505gomc",647,"78.csv","","6457.5","<p>You can track your coin total on the top right of your screen. </p><p>At the end of your journey you will be directed to a survey, so please click on the link before exiting the task</p><p>Press Enter to begin</p>","13","",NA,NA,NA,NA,""
"image-keyboard-response",12,60984,"0.0-4.0-0.0","krvbdjul505gomc",647,"78.csv","","1715.5999999977648","resources/trios/L1T2A2.jpg","38","restless",0.7,0.9,0.3,0.97344533298123,"false"
"image-keyboard-response",13,61404,"0.0-4.0-1.0","krvbdjul505gomc",647,"78.csv","","null","resources/maskTrios/BT2B.jpg","null","",NA,NA,NA,NA,""
"image-keyboard-response",14,62616,"0.0-4.0-2.0","krvbdjul505gomc",647,"78.csv","","null","resources/images/fishbone.png","null","",NA,NA,NA,NA,""
"image-keyboard-response",15,63791,"0.0-4.1-0.1","krvbdjul505gomc",647,"78.csv","","1173.4000000022352","resources/trios/L1T2A2.jpg","37","restless",0.7,0.9,0.3,0.176805761997347,"true"
"image-keyboard-response",16,64201,"0.0-4.1-1.1","krvbdjul505gomc",647,"78.csv","","null","resources/maskTrios/L1BB.jpg","null","",NA,NA,NA,NA,""
"image-keyboard-response",17,65414,"0.0-4.1-2.1","krvbdjul505gomc",647,"78.csv","","null","resources/images/coin2.png","null","",NA,NA,NA,NA,""
"image-keyboard-response",18,66084,"0.0-4.2-0.2","krvbdjul505gomc",647,"78.csv","","668.3999999985099","resources/trios/L1T2A2.jpg","39","restless",0.7,0.9,0.2,0.787764288067844,"false"
"image-keyboard-response",19,66493,"0.0-4.2-1.2","krvbdjul505gomc",647,"78.csv","","null","resources/maskTrios/BBA2.jpg","null","",NA,NA,NA,NA,""
"image-keyboard-response",20,67700,"0.0-4.2-2.2","krvbdjul505gomc",647,"78.csv","","null","resources/images/fishbone.png","null","",NA,NA,NA,NA,""
"image-keyboard-response",21,67940,"0.0-4.3-0.3","krvbdjul505gomc",647,"78.csv","","239","resources/trios/L1T2A2.jpg","38","restless",0.7,0.9,0.2,0.350870390681244,"true"
"image-keyboard-response",22,68346,"0.0-4.3-1.3","krvbdjul505gomc",647,"78.csv","","null","resources/maskTrios/BT2B.jpg","null","",NA,NA,NA,NA,""
"image-keyboard-response",23,69560,"0.0-4.3-2.3","krvbdjul505gomc",647,"78.csv","","null","resources/images/coin2.png","null","",NA,NA,NA,NA,""
"image-keyboard-response",24,70502,"0.0-4.4-0.4","krvbdjul505gomc",647,"78.csv","","939.5999999977648","resources/trios/L1T2A2.jpg","39","restless",0.7,0.9,0.2,0.660920071166021,"false"
"image-keyboard-response",25,70914,"0.0-4.4-1.4","krvbdjul505gomc",647,"78.csv","","null","resources/maskTrios/BBA2.jpg","null","",NA,NA,NA,NA,""
"image-keyboard-response",26,72123,"0.0-4.4-2.4","krvbdjul505gomc",647,"78.csv","","null","resources/images/fishbone.png","null","",NA,NA,NA,NA,""
"image-keyboard-response",27,72615,"0.0-4.5-0.5","krvbdjul505gomc",647,"78.csv","","488.79999999701977","resources/trios/L1T2A2.jpg","38","restless",0.7,0.9,0.2,0.113279975730225,"true"
"image-keyboard-response",28,73022,"0.0-4.5-1.5","krvbdjul505gomc",647,"78.csv","","null","resources/maskTrios/BT2B.jpg","null","",NA,NA,NA,NA,""
"image-keyboard-response",29,74234,"0.0-4.5-2.5","krvbdjul505gomc",647,"78.csv","","null","resources/images/coin2.png","null","",NA,NA,NA,NA,""
"image-keyboard-response",30,74619,"0.0-4.6-0.6","krvbdjul505gomc",647,"78.csv","","382.80000000074506","resources/trios/L1T2A2.jpg","38","restless",0.7,0.8,0.2,0.197825129415001,"true"
"image-keyboard-response",31,75022,"0.0-4.6-1.6","krvbdjul505gomc",647,"78.csv","","null","resources/maskTrios/BT2B.jpg","null","",NA,NA,NA,NA,""
"image-keyboard-response",32,76237,"0.0-4.6-2.6","krvbdjul505gomc",647,"78.csv","","null","resources/images/coin2.png","null","",NA,NA,NA,NA,""
"image-keyboard-response",33,76540,"0.0-4.7-0.7","krvbdjul505gomc",647,"78.csv","","301.1000000014901","resources/trios/L1T2A2.jpg","37","restless",0.7,0.8,0.2,0.198978249408335,"true"
"image-keyboard-response",34,76943,"0.0-4.7-1.7","krvbdjul505gomc",647,"78.csv","","null","resources/maskTrios/L1BB.jpg","null","",NA,NA,NA,NA,""
"image-keyboard-response",35,78150,"0.0-4.7-2.7","krvbdjul505gomc",647,"78.csv","","null","resources/images/coin2.png","null","",NA,NA,NA,NA,""
"image-keyboard-response",36,79544,"0.0-4.8-0.8","krvbdjul505gomc",647,"78.csv","","1392.7999999970198","resources/trios/L1T2A2.jpg","39","restless",0.7,0.8,0.2,0.440851948287087,"false"
"image-keyboard-response",37,79960,"0.0-4.8-1.8","krvbdjul505gomc",647,"78.csv","","null","resources/maskTrios/BBA2.jpg","null","",NA,NA,NA,NA,""
"image-keyboard-response",38,81176,"0.0-4.8-2.8","krvbdjul505gomc",647,"78.csv","","null","resources/images/fishbone.png","null","",NA,NA,NA,NA,""
"image-keyboard-response",39,81751,"0.0-4.9-0.9","krvbdjul505gomc",647,"78.csv","","574.5","resources/trios/L1T2A2.jpg","39","restless",0.7,0.8,0.3,0.734497968726297,"false"
"image-keyboard-response",40,82168,"0.0-4.9-1.9","krvbdjul505gomc",647,"78.csv","","null","resources/maskTrios/BBA2.jpg","null","",NA,NA,NA,NA,""
"image-keyboard-response",41,83378,"0.0-4.9-2.9","krvbdjul505gomc",647,"78.csv","","null","resources/images/fishbone.png","null","",NA,NA,NA,NA,""
"image-keyboard-response",42,83508,"0.0-4.10-0.10","krvbdjul505gomc",647,"78.csv","","128.80000000074506","resources/trios/L1T2A2.jpg","38","restless",0.7,0.8,0.4,0.269381576122681,"true"
"image-keyboard-response",43,83915,"0.0-4.10-1.10","krvbdjul505gomc",647,"78.csv","","null","resources/maskTrios/BT2B.jpg","null","",NA,NA,NA,NA,""
"image-keyboard-response",44,85127,"0.0-4.10-2.10","krvbdjul505gomc",647,"78.csv","","null","resources/images/coin2.png","null","",NA,NA,NA,NA,""
"image-keyboard-response",45,85159,"0.0-4.11-0.11","krvbdjul505gomc",647,"78.csv","","29.899999998509884","resources/trios/L1T2A2.jpg","37","restless",0.7,0.8,0.4,0.493172259123562,"true"
"image-keyboard-response",46,85566,"0.0-4.11-1.11","krvbdjul505gomc",647,"78.csv","","null","resources/maskTrios/L1BB.jpg","null","",NA,NA,NA,NA,""
"image-keyboard-response",47,86780,"0.0-4.11-2.11","krvbdjul505gomc",647,"78.csv","","null","resources/images/coin2.png","null","",NA,NA,NA,NA,""
"image-keyboard-response",48,87176,"0.0-4.12-0.12","krvbdjul505gomc",647,"78.csv","","394.5","resources/trios/L1T2A2.jpg","38","restless",0.8,0.8,0.4,0.486542823919279,"true"
"image-keyboard-response",49,87581,"0.0-4.12-1.12","krvbdjul505gomc",647,"78.csv","","null","resources/maskTrios/BT2B.jpg","null","",NA,NA,NA,NA,""
"image-keyboard-response",50,88793,"0.0-4.12-2.12","krvbdjul505gomc",647,"78.csv","","null","resources/images/coin2.png","null","",NA,NA,NA,NA,""
"image-keyboard-response",51,89325,"0.0-4.13-0.13","krvbdjul505gomc",647,"78.csv","","530.3000000007451","resources/trios/L1T2A2.jpg","37","restless",0.8,0.8,0.4,0.691792786044617,"true"
"image-keyboard-response",52,89737,"0.0-4.13-1.13","krvbdjul505gomc",647,"78.csv","","null","resources/maskTrios/L1BB.jpg","null","",NA,NA,NA,NA,""
"image-keyboard-response",53,90948,"0.0-4.13-2.13","krvbdjul505gomc",647,"78.csv","","null","resources/images/coin2.png","null","",NA,NA,NA,NA,""
"image-keyboard-response",54,91131,"0.0-4.14-0.14","krvbdjul505gomc",647,"78.csv","","182","resources/trios/L1T2A2.jpg","39","restless",0.8,0.8,0.4,0.644228837418995,"false"
"image-keyboard-response",55,91547,"0.0-4.14-1.14","krvbdjul505gomc",647,"78.csv","","null","resources/maskTrios/BBA2.jpg","null","",NA,NA,NA,NA,""
"image-keyboard-response",56,92757,"0.0-4.14-2.14","krvbdjul505gomc",647,"78.csv","","null","resources/images/fishbone.png","null","",NA,NA,NA,NA,""
"image-keyboard-response",57,93130,"0.0-4.15-0.15","krvbdjul505gomc",647,"78.csv","","371.80000000074506","resources/trios/L1T2A2.jpg","38","restless",0.8,0.8,0.4,0.29805326533567,"true"
"image-keyboard-response",58,93541,"0.0-4.15-1.15","krvbdjul505gomc",647,"78.csv","","null","resources/maskTrios/BT2B.jpg","null","",NA,NA,NA,NA,""
"image-keyboard-response",59,94752,"0.0-4.15-2.15","krvbdjul505gomc",647,"78.csv","","null","resources/images/coin2.png","null","",NA,NA,NA,NA,""
"image-keyboard-response",60,94913,"0.0-4.16-0.16","krvbdjul505gomc",647,"78.csv","","159.40000000223517","resources/trios/L1T2A2.jpg","38","restless",0.8,0.8,0.4,0.791608797227147,"true"
"image-keyboard-response",61,95331,"0.0-4.16-1.16","krvbdjul505gomc",647,"78.csv","","null","resources/maskTrios/BT2B.jpg","null","",NA,NA,NA,NA,""
"image-keyboard-response",62,96543,"0.0-4.16-2.16","krvbdjul505gomc",647,"78.csv","","null","resources/images/coin2.png","null","",NA,NA,NA,NA,""
"image-keyboard-response",63,96657,"0.0-4.17-0.17","krvbdjul505gomc",647,"78.csv","","113","resources/trios/L1T2A2.jpg","37","restless",0.8,0.8,0.4,0.73008340638763,"true"
"image-keyboard-response",64,97066,"0.0-4.17-1.17","krvbdjul505gomc",647,"78.csv","","null","resources/maskTrios/L1BB.jpg","null","",NA,NA,NA,NA,""
"image-keyboard-response",65,98282,"0.0-4.17-2.17","krvbdjul505gomc",647,"78.csv","","null","resources/images/coin2.png","null","",NA,NA,NA,NA,""
"image-keyboard-response",66,98503,"0.0-4.18-0.18","krvbdjul505gomc",647,"78.csv","","219.60000000149012","resources/trios/L1T2A2.jpg","37","restless",0.8,0.8,0.4,0.905896498587128,"false"
"image-keyboard-response",67,98912,"0.0-4.18-1.18","krvbdjul505gomc",647,"78.csv","","null","resources/maskTrios/L1BB.jpg","null","",NA,NA,NA,NA,""
"image-keyboard-response",68,100122,"0.0-4.18-2.18","krvbdjul505gomc",647,"78.csv","","null","resources/images/fishbone.png","null","",NA,NA,NA,NA,""
"image-keyboard-response",69,100234,"0.0-4.19-0.19","krvbdjul505gomc",647,"78.csv","","108.39999999850988","resources/trios/L1T2A2.jpg","39","restless",0.8,0.8,0.5,0.634568490931955,"false"
"image-keyboard-response",70,100642,"0.0-4.19-1.19","krvbdjul505gomc",647,"78.csv","","null","resources/maskTrios/BBA2.jpg","null","",NA,NA,NA,NA,""
"image-keyboard-response",71,101852,"0.0-4.19-2.19","krvbdjul505gomc",647,"78.csv","","null","resources/images/fishbone.png","null","",NA,NA,NA,NA,""
"image-keyboard-response",72,101912,"0.0-4.20-0.20","krvbdjul505gomc",647,"78.csv","","59","resources/trios/L1T2A2.jpg","38","restless",0.8,0.8,0.5,0.608055157184223,"true"
"image-keyboard-response",73,102323,"0.0-4.20-1.20","krvbdjul505gomc",647,"78.csv","","null","resources/maskTrios/BT2B.jpg","null","",NA,NA,NA,NA,""
"image-keyboard-response",74,103539,"0.0-4.20-2.20","krvbdjul505gomc",647,"78.csv","","null","resources/images/coin2.png","null","",NA,NA,NA,NA,""
"image-keyboard-response",75,103652,"0.0-4.21-0.21","krvbdjul505gomc",647,"78.csv","","111.40000000223517","resources/trios/L1T2A2.jpg","38","restless",0.8,0.8,0.5,0.0422501688116459,"true"
"image-keyboard-response",76,104053,"0.0-4.21-1.21","krvbdjul505gomc",647,"78.csv","","null","resources/maskTrios/BT2B.jpg","null","",NA,NA,NA,NA,""
"image-keyboard-response",77,105267,"0.0-4.21-2.21","krvbdjul505gomc",647,"78.csv","","null","resources/images/coin2.png","null","",NA,NA,NA,NA,""
"image-keyboard-response",78,105517,"0.0-4.22-0.22","krvbdjul505gomc",647,"78.csv","","248.30000000074506","resources/trios/L1T2A2.jpg","38","restless",0.8,0.8,0.5,0.651762157838342,"true"
"image-keyboard-response",79,105930,"0.0-4.22-1.22","krvbdjul505gomc",647,"78.csv","","null","resources/maskTrios/BT2B.jpg","null","",NA,NA,NA,NA,""
"image-keyboard-response",80,107139,"0.0-4.22-2.22","krvbdjul505gomc",647,"78.csv","","null","resources/images/coin2.png","null","",NA,NA,NA,NA,""
"image-keyboard-response",81,107207,"0.0-4.23-0.23","krvbdjul505gomc",647,"78.csv","","65.80000000074506","resources/trios/L1T2A2.jpg","38","restless",0.8,0.7,0.5,0.924388717122382,"false"
"image-keyboard-response",82,107613,"0.0-4.23-1.23","krvbdjul505gomc",647,"78.csv","","null","resources/maskTrios/BT2B.jpg","null","",NA,NA,NA,NA,""
"image-keyboard-response",83,108824,"0.0-4.23-2.23","krvbdjul505gomc",647,"78.csv","","null","resources/images/fishbone.png","null","",NA,NA,NA,NA,""
"image-keyboard-response",84,108981,"0.0-4.24-0.24","krvbdjul505gomc",647,"78.csv","","155.39999999850988","resources/trios/L1T2A2.jpg","39","restless",0.8,0.7,0.5,0.391779168152375,"true"
"image-keyboard-response",85,109388,"0.0-4.24-1.24","krvbdjul505gomc",647,"78.csv","","null","resources/maskTrios/BBA2.jpg","null","",NA,NA,NA,NA,""
"image-keyboard-response",86,110602,"0.0-4.24-2.24","krvbdjul505gomc",647,"78.csv","","null","resources/images/coin2.png","null","",NA,NA,NA,NA,""
"image-keyboard-response",87,110824,"0.0-4.25-0.25","krvbdjul505gomc",647,"78.csv","","220.30000000074506","resources/trios/L1T2A2.jpg","37","restless",0.9,0.7,0.5,0.830214798876757,"true"
"image-keyboard-response",88,111229,"0.0-4.25-1.25","krvbdjul505gomc",647,"78.csv","","null","resources/maskTrios/L1BB.jpg","null","",NA,NA,NA,NA,""
"image-keyboard-response",89,112439,"0.0-4.25-2.25","krvbdjul505gomc",647,"78.csv","","null","resources/images/coin2.png","null","",NA,NA,NA,NA,""
"image-keyboard-response",90,112517,"0.0-4.26-0.26","krvbdjul505gomc",647,"78.csv","","76.19999999925494","resources/trios/L1T2A2.jpg","39","restless",0.9,0.7,0.5,0.942024035199266,"false"
"image-keyboard-response",91,112926,"0.0-4.26-1.26","krvbdjul505gomc",647,"78.csv","","null","resources/maskTrios/BBA2.jpg","null","",NA,NA,NA,NA,""
"image-keyboard-response",92,114138,"0.0-4.26-2.26","krvbdjul505gomc",647,"78.csv","","null","resources/images/fishbone.png","null","",NA,NA,NA,NA,""
"image-keyboard-response",93,114362,"0.0-4.27-0.27","krvbdjul505gomc",647,"78.csv","","222.70000000298023","resources/trios/L1T2A2.jpg","37","restless",0.9,0.7,0.5,0.749784148165418,"true"
"image-keyboard-response",94,114767,"0.0-4.27-1.27","krvbdjul505gomc",647,"78.csv","","null","resources/maskTrios/L1BB.jpg","null","",NA,NA,NA,NA,""
"image-keyboard-response",95,115979,"0.0-4.27-2.27","krvbdjul505gomc",647,"78.csv","","null","resources/images/coin2.png","null","",NA,NA,NA,NA,""
"image-keyboard-response",96,116356,"0.0-4.28-0.28","krvbdjul505gomc",647,"78.csv","","375.19999999925494","resources/trios/L1T2A2.jpg","38","restless",0.9,0.7,0.5,0.145683241494432,"true"
"image-keyboard-response",97,116767,"0.0-4.28-1.28","krvbdjul505gomc",647,"78.csv","","null","resources/maskTrios/BT2B.jpg","null","",NA,NA,NA,NA,""
"image-keyboard-response",98,117976,"0.0-4.28-2.28","krvbdjul505gomc",647,"78.csv","","null","resources/images/coin2.png","null","",NA,NA,NA,NA,""
"image-keyboard-response",99,118102,"0.0-4.29-0.29","krvbdjul505gomc",647,"78.csv","","123.79999999701977","resources/trios/L1T2A2.jpg","37","restless",0.9,0.7,0.5,0.558124090062257,"true"
"image-keyboard-response",100,118511,"0.0-4.29-1.29","krvbdjul505gomc",647,"78.csv","","null","resources/maskTrios/L1BB.jpg","null","",NA,NA,NA,NA,""
"image-keyboard-response",101,119722,"0.0-4.29-2.29","krvbdjul505gomc",647,"78.csv","","null","resources/images/coin2.png","null","",NA,NA,NA,NA,""
"image-keyboard-response",102,119821,"0.0-4.30-0.30","krvbdjul505gomc",647,"78.csv","","98.5","resources/trios/L1T2A2.jpg","38","restless",0.9,0.7,0.5,0.250309582199197,"true"
"image-keyboard-response",103,120224,"0.0-4.30-1.30","krvbdjul505gomc",647,"78.csv","","null","resources/maskTrios/BT2B.jpg","null","",NA,NA,NA,NA,""
"image-keyboard-response",104,121434,"0.0-4.30-2.30","krvbdjul505gomc",647,"78.csv","","null","resources/images/coin2.png","null","",NA,NA,NA,NA,""
"image-keyboard-response",105,121494,"0.0-4.31-0.31","krvbdjul505gomc",647,"78.csv","","58.599999997764826","resources/trios/L1T2A2.jpg","38","restless",0.9,0.7,0.5,0.150358948387162,"true"
"image-keyboard-response",106,121906,"0.0-4.31-1.31","krvbdjul505gomc",647,"78.csv","","null","resources/maskTrios/BT2B.jpg","null","",NA,NA,NA,NA,""
"image-keyboard-response",107,123118,"0.0-4.31-2.31","krvbdjul505gomc",647,"78.csv","","null","resources/images/coin2.png","null","",NA,NA,NA,NA,""
"image-keyboard-response",108,123230,"0.0-4.32-0.32","krvbdjul505gomc",647,"78.csv","","110.39999999850988","resources/trios/L1T2A2.jpg","37","restless",0.9,0.8,0.5,0.40313629620064,"true"
"image-keyboard-response",109,123642,"0.0-4.32-1.32","krvbdjul505gomc",647,"78.csv","","null","resources/maskTrios/L1BB.jpg","null","",NA,NA,NA,NA,""
"image-keyboard-response",110,124852,"0.0-4.32-2.32","krvbdjul505gomc",647,"78.csv","","null","resources/images/coin2.png","null","",NA,NA,NA,NA,""
"image-keyboard-response",111,125411,"0.0-4.33-0.33","krvbdjul505gomc",647,"78.csv","","558.5","resources/trios/L1T2A2.jpg","38","restless",0.9,0.8,0.5,0.394054624549876,"true"
"image-keyboard-response",112,125819,"0.0-4.33-1.33","krvbdjul505gomc",647,"78.csv","","null","resources/maskTrios/BT2B.jpg","null","",NA,NA,NA,NA,""
"image-keyboard-response",113,127030,"0.0-4.33-2.33","krvbdjul505gomc",647,"78.csv","","null","resources/images/coin2.png","null","",NA,NA,NA,NA,""
"image-keyboard-response",114,127118,"0.0-4.34-0.34","krvbdjul505gomc",647,"78.csv","","87.5","resources/trios/L1T2A2.jpg","38","restless",0.9,0.8,0.5,0.311739585311866,"true"
"image-keyboard-response",115,127520,"0.0-4.34-1.34","krvbdjul505gomc",647,"78.csv","","null","resources/maskTrios/BT2B.jpg","null","",NA,NA,NA,NA,""
"image-keyboard-response",116,128733,"0.0-4.34-2.34","krvbdjul505gomc",647,"78.csv","","null","resources/images/coin2.png","null","",NA,NA,NA,NA,""
"image-keyboard-response",117,129325,"0.0-4.35-0.35","krvbdjul505gomc",647,"78.csv","","589.5999999977648","resources/trios/L1T2A2.jpg","39","restless",0.9,0.8,0.5,0.257239915384701,"true"
"image-keyboard-response",118,129739,"0.0-4.35-1.35","krvbdjul505gomc",647,"78.csv","","null","resources/maskTrios/BBA2.jpg","null","",NA,NA,NA,NA,""
"image-keyboard-response",119,130947,"0.0-4.35-2.35","krvbdjul505gomc",647,"78.csv","","null","resources/images/coin2.png","null","",NA,NA,NA,NA,""
"image-keyboard-response",120,131012,"0.0-4.36-0.36","krvbdjul505gomc",647,"78.csv","","62.399999998509884","resources/trios/L1T2A2.jpg","38","restless",0.9,0.8,0.6,0.0248204361116482,"true"
"image-keyboard-response",121,131416,"0.0-4.36-1.36","krvbdjul505gomc",647,"78.csv","","null","resources/maskTrios/BT2B.jpg","null","",NA,NA,NA,NA,""
"image-keyboard-response",122,132627,"0.0-4.36-2.36","krvbdjul505gomc",647,"78.csv","","null","resources/images/coin2.png","null","",NA,NA,NA,NA,""
"image-keyboard-response",123,132639,"0.0-4.37-0.37","krvbdjul505gomc",647,"78.csv","","9","resources/trios/L1T2A2.jpg","38","restless",0.8,0.7,0.6,0.987369132537398,"false"
"image-keyboard-response",124,133049,"0.0-4.37-1.37","krvbdjul505gomc",647,"78.csv","","null","resources/maskTrios/BT2B.jpg","null","",NA,NA,NA,NA,""
"image-keyboard-response",125,134256,"0.0-4.37-2.37","krvbdjul505gomc",647,"78.csv","","null","resources/images/fishbone.png","null","",NA,NA,NA,NA,""
"image-keyboard-response",126,134413,"0.0-4.38-0.38","krvbdjul505gomc",647,"78.csv","","155.30000000074506","resources/trios/L1T2A2.jpg","38","restless",0.8,0.7,0.6,0.0711072387538747,"true"
"image-keyboard-response",127,134819,"0.0-4.38-1.38","krvbdjul505gomc",647,"78.csv","","null","resources/maskTrios/BT2B.jpg","null","",NA,NA,NA,NA,""
"image-keyboard-response",128,136033,"0.0-4.38-2.38","krvbdjul505gomc",647,"78.csv","","null","resources/images/coin2.png","null","",NA,NA,NA,NA,""
"image-keyboard-response",129,136352,"0.0-4.39-0.39","krvbdjul505gomc",647,"78.csv","","318.30000000074506","resources/trios/L1T2A2.jpg","37","restless",0.8,0.7,0.6,0.27108325202585,"true"
"image-keyboard-response",130,136755,"0.0-4.39-1.39","krvbdjul505gomc",647,"78.csv","","null","resources/maskTrios/L1BB.jpg","null","",NA,NA,NA,NA,""
"image-keyboard-response",131,137964,"0.0-4.39-2.39","krvbdjul505gomc",647,"78.csv","","null","resources/images/coin2.png","null","",NA,NA,NA,NA,""
"image-keyboard-response",132,138804,"0.0-4.40-0.40","krvbdjul505gomc",647,"78.csv","","838.6000000014901","resources/trios/L1T2A2.jpg","37","restless",0.8,0.7,0.6,0.407081768004164,"true"
"image-keyboard-response",133,139208,"0.0-4.40-1.40","krvbdjul505gomc",647,"78.csv","","null","resources/maskTrios/L1BB.jpg","null","",NA,NA,NA,NA,""
"image-keyboard-response",134,140414,"0.0-4.40-2.40","krvbdjul505gomc",647,"78.csv","","null","resources/images/coin2.png","null","",NA,NA,NA,NA,""
"image-keyboard-response",135,140579,"0.0-4.41-0.41","krvbdjul505gomc",647,"78.csv","","163.39999999850988","resources/trios/L1T2A2.jpg","37","restless",0.7,0.7,0.6,0.156134532815329,"true"
"image-keyboard-response",136,140993,"0.0-4.41-1.41","krvbdjul505gomc",647,"78.csv","","null","resources/maskTrios/L1BB.jpg","null","",NA,NA,NA,NA,""
"image-keyboard-response",137,142210,"0.0-4.41-2.41","krvbdjul505gomc",647,"78.csv","","null","resources/images/coin2.png","null","",NA,NA,NA,NA,""
"image-keyboard-response",138,142419,"0.0-4.42-0.42","krvbdjul505gomc",647,"78.csv","","208.69999999925494","resources/trios/L1T2A2.jpg","37","restless",0.7,0.7,0.6,0.842443289406879,"false"
"image-keyboard-response",139,142823,"0.0-4.42-1.42","krvbdjul505gomc",647,"78.csv","","null","resources/maskTrios/L1BB.jpg","null","",NA,NA,NA,NA,""
"image-keyboard-response",140,144031,"0.0-4.42-2.42","krvbdjul505gomc",647,"78.csv","","null","resources/images/fishbone.png","null","",NA,NA,NA,NA,""
"image-keyboard-response",141,144527,"0.0-4.43-0.43","krvbdjul505gomc",647,"78.csv","","494.4000000022352","resources/trios/L1T2A2.jpg","37","restless",0.7,0.7,0.6,0.187690993433109,"true"
"image-keyboard-response",142,144945,"0.0-4.43-1.43","krvbdjul505gomc",647,"78.csv","","null","resources/maskTrios/L1BB.jpg","null","",NA,NA,NA,NA,""
"image-keyboard-response",143,146156,"0.0-4.43-2.43","krvbdjul505gomc",647,"78.csv","","null","resources/images/coin2.png","null","",NA,NA,NA,NA,""
"image-keyboard-response",144,146225,"0.0-4.44-0.44","krvbdjul505gomc",647,"78.csv","","67.19999999925494","resources/trios/L1T2A2.jpg","39","restless",0.7,0.6,0.6,0.65440171716395,"false"
"image-keyboard-response",145,146629,"0.0-4.44-1.44","krvbdjul505gomc",647,"78.csv","","null","resources/maskTrios/BBA2.jpg","null","",NA,NA,NA,NA,""
"image-keyboard-response",146,147845,"0.0-4.44-2.44","krvbdjul505gomc",647,"78.csv","","null","resources/images/fishbone.png","null","",NA,NA,NA,NA,""
"image-keyboard-response",147,148044,"0.0-4.45-0.45","krvbdjul505gomc",647,"78.csv","","197.60000000149012","resources/trios/L1T2A2.jpg","38","restless",0.7,0.6,0.6,0.836783412660255,"false"
"image-keyboard-response",148,148459,"0.0-4.45-1.45","krvbdjul505gomc",647,"78.csv","","null","resources/maskTrios/BT2B.jpg","null","",NA,NA,NA,NA,""
"image-keyboard-response",149,149666,"0.0-4.45-2.45","krvbdjul505gomc",647,"78.csv","","null","resources/images/fishbone.png","null","",NA,NA,NA,NA,""
"image-keyboard-response",150,149909,"0.0-4.46-0.46","krvbdjul505gomc",647,"78.csv","","242.40000000223517","resources/trios/L1T2A2.jpg","37","restless",0.7,0.6,0.6,0.898725727084549,"false"
"image-keyboard-response",151,150318,"0.0-4.46-1.46","krvbdjul505gomc",647,"78.csv","","null","resources/maskTrios/L1BB.jpg","null","",NA,NA,NA,NA,""
"image-keyboard-response",152,151522,"0.0-4.46-2.46","krvbdjul505gomc",647,"78.csv","","null","resources/images/fishbone.png","null","",NA,NA,NA,NA,""
"image-keyboard-response",153,151569,"0.0-4.47-0.47","krvbdjul505gomc",647,"78.csv","","46.100000001490116","resources/trios/L1T2A2.jpg","39","restless",0.7,0.7,0.6,0.551508814505905,"true"
"image-keyboard-response",154,151978,"0.0-4.47-1.47","krvbdjul505gomc",647,"78.csv","","null","resources/maskTrios/BBA2.jpg","null","",NA,NA,NA,NA,""
"image-keyboard-response",155,153188,"0.0-4.47-2.47","krvbdjul505gomc",647,"78.csv","","null","resources/images/coin2.png","null","",NA,NA,NA,NA,""
"image-keyboard-response",156,153285,"0.0-4.48-0.48","krvbdjul505gomc",647,"78.csv","","95.5","resources/trios/L1T2A2.jpg","39","restless",0.7,0.7,0.5,0.85872818915846,"false"
"image-keyboard-response",157,153692,"0.0-4.48-1.48","krvbdjul505gomc",647,"78.csv","","null","resources/maskTrios/BBA2.jpg","null","",NA,NA,NA,NA,""
"image-keyboard-response",158,154897,"0.0-4.48-2.48","krvbdjul505gomc",647,"78.csv","","null","resources/images/fishbone.png","null","",NA,NA,NA,NA,""
"image-keyboard-response",159,154946,"0.0-4.49-0.49","krvbdjul505gomc",647,"78.csv","","47.400000002235174","resources/trios/L1T2A2.jpg","38","restless",0.7,0.7,0.5,0.34590262246076,"true"
"image-keyboard-response",160,155350,"0.0-4.49-1.49","krvbdjul505gomc",647,"78.csv","","null","resources/maskTrios/BT2B.jpg","null","",NA,NA,NA,NA,""
"image-keyboard-response",161,156560,"0.0-4.49-2.49","krvbdjul505gomc",647,"78.csv","","null","resources/images/coin2.png","null","",NA,NA,NA,NA,""
"image-keyboard-response",162,156586,"0.0-4.50-0.50","krvbdjul505gomc",647,"78.csv","","23.699999999254942","resources/trios/L1T2A2.jpg","39","restless",0.7,0.7,0.5,0.611541609569537,"false"
"image-keyboard-response",163,157000,"0.0-4.50-1.50","krvbdjul505gomc",647,"78.csv","","null","resources/maskTrios/BBA2.jpg","null","",NA,NA,NA,NA,""
"image-keyboard-response",164,158217,"0.0-4.50-2.50","krvbdjul505gomc",647,"78.csv","","null","resources/images/fishbone.png","null","",NA,NA,NA,NA,""
"image-keyboard-response",165,158284,"0.0-4.51-0.51","krvbdjul505gomc",647,"78.csv","","65.39999999850988","resources/trios/L1T2A2.jpg","38","restless",0.6,0.7,0.5,0.816716691425734,"false"
"image-keyboard-response",166,158687,"0.0-4.51-1.51","krvbdjul505gomc",647,"78.csv","","null","resources/maskTrios/BT2B.jpg","null","",NA,NA,NA,NA,""
"image-keyboard-response",167,159898,"0.0-4.51-2.51","krvbdjul505gomc",647,"78.csv","","null","resources/images/fishbone.png","null","",NA,NA,NA,NA,""
"image-keyboard-response",168,160208,"0.0-4.52-0.52","krvbdjul505gomc",647,"78.csv","","309.5999999977648","resources/trios/L1T2A2.jpg","38","restless",0.5,0.7,0.5,0.800469063167737,"false"
"image-keyboard-response",169,160621,"0.0-4.52-1.52","krvbdjul505gomc",647,"78.csv","","null","resources/maskTrios/BT2B.jpg","null","",NA,NA,NA,NA,""
"image-keyboard-response",170,161832,"0.0-4.52-2.52","krvbdjul505gomc",647,"78.csv","","null","resources/images/fishbone.png","null","",NA,NA,NA,NA,""
"image-keyboard-response",171,162019,"0.0-4.53-0.53","krvbdjul505gomc",647,"78.csv","","186.20000000298023","resources/trios/L1T2A2.jpg","39","restless",0.5,0.7,0.5,0.785466523967187,"false"
"image-keyboard-response",172,162430,"0.0-4.53-1.53","krvbdjul505gomc",647,"78.csv","","null","resources/maskTrios/BBA2.jpg","null","",NA,NA,NA,NA,""
"image-keyboard-response",173,163640,"0.0-4.53-2.53","krvbdjul505gomc",647,"78.csv","","null","resources/images/fishbone.png","null","",NA,NA,NA,NA,""
"image-keyboard-response",174,163816,"0.0-4.54-0.54","krvbdjul505gomc",647,"78.csv","","174.5","resources/trios/L1T2A2.jpg","37","restless",0.5,0.7,0.5,0.533853189680321,"false"
"image-keyboard-response",175,164220,"0.0-4.54-1.54","krvbdjul505gomc",647,"78.csv","","null","resources/maskTrios/L1BB.jpg","null","",NA,NA,NA,NA,""
"image-keyboard-response",176,165429,"0.0-4.54-2.54","krvbdjul505gomc",647,"78.csv","","null","resources/images/fishbone.png","null","",NA,NA,NA,NA,""
"image-keyboard-response",177,165617,"0.0-4.55-0.55","krvbdjul505gomc",647,"78.csv","","185.80000000074506","resources/trios/L1T2A2.jpg","37","restless",0.5,0.7,0.5,0.540229698272619,"false"
"image-keyboard-response",178,166026,"0.0-4.55-1.55","krvbdjul505gomc",647,"78.csv","","null","resources/maskTrios/L1BB.jpg","null","",NA,NA,NA,NA,""
"image-keyboard-response",179,167236,"0.0-4.55-2.55","krvbdjul505gomc",647,"78.csv","","null","resources/images/fishbone.png","null","",NA,NA,NA,NA,""
"image-keyboard-response",180,167355,"0.0-4.56-0.56","krvbdjul505gomc",647,"78.csv","","118.69999999925494","resources/trios/L1T2A2.jpg","38","restless",0.5,0.7,0.5,0.0916747794972923,"true"
"image-keyboard-response",181,167772,"0.0-4.56-1.56","krvbdjul505gomc",647,"78.csv","","null","resources/maskTrios/BT2B.jpg","null","",NA,NA,NA,NA,""
"image-keyboard-response",182,168982,"0.0-4.56-2.56","krvbdjul505gomc",647,"78.csv","","null","resources/images/coin2.png","null","",NA,NA,NA,NA,""
"image-keyboard-response",183,169080,"0.0-4.57-0.57","krvbdjul505gomc",647,"78.csv","","96.30000000074506","resources/trios/L1T2A2.jpg","38","restless",0.5,0.6,0.5,0.109130812750303,"true"
"image-keyboard-response",184,169486,"0.0-4.57-1.57","krvbdjul505gomc",647,"78.csv","","null","resources/maskTrios/BT2B.jpg","null","",NA,NA,NA,NA,""
"image-keyboard-response",185,170694,"0.0-4.57-2.57","krvbdjul505gomc",647,"78.csv","","null","resources/images/coin2.png","null","",NA,NA,NA,NA,""
"image-keyboard-response",186,170902,"0.0-4.58-0.58","krvbdjul505gomc",647,"78.csv","","205.69999999925494","resources/trios/L1T2A2.jpg","38","restless",0.5,0.6,0.5,0.48614650440847,"true"
"image-keyboard-response",187,171304,"0.0-4.58-1.58","krvbdjul505gomc",647,"78.csv","","null","resources/maskTrios/BT2B.jpg","null","",NA,NA,NA,NA,""
"image-keyboard-response",188,172518,"0.0-4.58-2.58","krvbdjul505gomc",647,"78.csv","","null","resources/images/coin2.png","null","",NA,NA,NA,NA,""
"image-keyboard-response",189,172663,"0.0-4.59-0.59","krvbdjul505gomc",647,"78.csv","","142.89999999850988","resources/trios/L1T2A2.jpg","38","restless",0.5,0.6,0.5,0.186823259508856,"true"
"image-keyboard-response",190,173068,"0.0-4.59-1.59","krvbdjul505gomc",647,"78.csv","","null","resources/maskTrios/BT2B.jpg","null","",NA,NA,NA,NA,""
"image-keyboard-response",191,174278,"0.0-4.59-2.59","krvbdjul505gomc",647,"78.csv","","null","resources/images/coin2.png","null","",NA,NA,NA,NA,""
"image-keyboard-response",192,174349,"0.0-4.60-0.60","krvbdjul505gomc",647,"78.csv","","69.5","resources/trios/L1T2A2.jpg","38","restless",0.5,0.7,0.5,0.695570092326232,"true"
"image-keyboard-response",193,174766,"0.0-4.60-1.60","krvbdjul505gomc",647,"78.csv","","null","resources/maskTrios/BT2B.jpg","null","",NA,NA,NA,NA,""
"image-keyboard-response",194,175974,"0.0-4.60-2.60","krvbdjul505gomc",647,"78.csv","","null","resources/images/coin2.png","null","",NA,NA,NA,NA,""
"image-keyboard-response",195,176071,"0.0-4.61-0.61","krvbdjul505gomc",647,"78.csv","","95.60000000149012","resources/trios/L1T2A2.jpg","38","restless",0.5,0.7,0.5,0.0573887896936178,"true"
"image-keyboard-response",196,176476,"0.0-4.61-1.61","krvbdjul505gomc",647,"78.csv","","null","resources/maskTrios/BT2B.jpg","null","",NA,NA,NA,NA,""
"image-keyboard-response",197,177689,"0.0-4.61-2.61","krvbdjul505gomc",647,"78.csv","","null","resources/images/coin2.png","null","",NA,NA,NA,NA,""
"image-keyboard-response",198,177751,"0.0-4.62-0.62","krvbdjul505gomc",647,"78.csv","","60.399999998509884","resources/trios/L1T2A2.jpg","38","restless",0.5,0.7,0.5,0.471542894176598,"true"
"image-keyboard-response",199,178163,"0.0-4.62-1.62","krvbdjul505gomc",647,"78.csv","","null","resources/maskTrios/BT2B.jpg","null","",NA,NA,NA,NA,""
"image-keyboard-response",200,179366,"0.0-4.62-2.62","krvbdjul505gomc",647,"78.csv","","null","resources/images/coin2.png","null","",NA,NA,NA,NA,""
"image-keyboard-response",201,179426,"0.0-4.63-0.63","krvbdjul505gomc",647,"78.csv","","55.899999998509884","resources/trios/L1T2A2.jpg","38","restless",0.4,0.7,0.5,0.412534711751853,"true"
"image-keyboard-response",202,179834,"0.0-4.63-1.63","krvbdjul505gomc",647,"78.csv","","null","resources/maskTrios/BT2B.jpg","null","",NA,NA,NA,NA,""
"image-keyboard-response",203,181038,"0.0-4.63-2.63","krvbdjul505gomc",647,"78.csv","","null","resources/images/coin2.png","null","",NA,NA,NA,NA,""
"image-keyboard-response",204,181395,"0.0-4.64-0.64","krvbdjul505gomc",647,"78.csv","","356","resources/trios/L1T2A2.jpg","38","restless",0.3,0.7,0.5,0.934550459119185,"false"
"image-keyboard-response",205,181805,"0.0-4.64-1.64","krvbdjul505gomc",647,"78.csv","","null","resources/maskTrios/BT2B.jpg","null","",NA,NA,NA,NA,""
"image-keyboard-response",206,183015,"0.0-4.64-2.64","krvbdjul505gomc",647,"78.csv","","null","resources/images/fishbone.png","null","",NA,NA,NA,NA,""
"image-keyboard-response",207,183167,"0.0-4.65-0.65","krvbdjul505gomc",647,"78.csv","","150.09999999776483","resources/trios/L1T2A2.jpg","38","restless",0.3,0.7,0.5,0.7591973824082,"false"
"image-keyboard-response",208,183578,"0.0-4.65-1.65","krvbdjul505gomc",647,"78.csv","","null","resources/maskTrios/BT2B.jpg","null","",NA,NA,NA,NA,""
"image-keyboard-response",209,184794,"0.0-4.65-2.65","krvbdjul505gomc",647,"78.csv","","null","resources/images/fishbone.png","null","",NA,NA,NA,NA,""
"image-keyboard-response",210,184847,"0.0-4.66-0.66","krvbdjul505gomc",647,"78.csv","","51.5","resources/trios/L1T2A2.jpg","37","restless",0.3,0.7,0.5,0.370421154978338,"false"
"image-keyboard-response",211,185253,"0.0-4.66-1.66","krvbdjul505gomc",647,"78.csv","","null","resources/maskTrios/L1BB.jpg","null","",NA,NA,NA,NA,""
"image-keyboard-response",212,186460,"0.0-4.66-2.66","krvbdjul505gomc",647,"78.csv","","null","resources/images/fishbone.png","null","",NA,NA,NA,NA,""
"image-keyboard-response",213,186594,"0.0-4.67-0.67","krvbdjul505gomc",647,"78.csv","","132.30000000074506","resources/trios/L1T2A2.jpg","39","restless",0.3,0.7,0.5,0.673280900231814,"false"
"image-keyboard-response",214,187005,"0.0-4.67-1.67","krvbdjul505gomc",647,"78.csv","","null","resources/maskTrios/BBA2.jpg","null","",NA,NA,NA,NA,""
"image-keyboard-response",215,188212,"0.0-4.67-2.67","krvbdjul505gomc",647,"78.csv","","null","resources/images/fishbone.png","null","",NA,NA,NA,NA,""
"image-keyboard-response",216,188502,"0.0-4.68-0.68","krvbdjul505gomc",647,"78.csv","","288.5","resources/trios/L1T2A2.jpg","37","restless",0.3,0.7,0.5,0.268208809304946,"true"
"image-keyboard-response",217,188920,"0.0-4.68-1.68","krvbdjul505gomc",647,"78.csv","","null","resources/maskTrios/L1BB.jpg","null","",NA,NA,NA,NA,""
"image-keyboard-response",218,190124,"0.0-4.68-2.68","krvbdjul505gomc",647,"78.csv","","null","resources/images/coin2.png","null","",NA,NA,NA,NA,""
"image-keyboard-response",219,190236,"0.0-4.69-0.69","krvbdjul505gomc",647,"78.csv","","109.30000000074506","resources/trios/L1T2A2.jpg","38","restless",0.3,0.7,0.5,0.0413330404164647,"true"
"image-keyboard-response",220,190644,"0.0-4.69-1.69","krvbdjul505gomc",647,"78.csv","","null","resources/maskTrios/BT2B.jpg","null","",NA,NA,NA,NA,""
"image-keyboard-response",221,191850,"0.0-4.69-2.69","krvbdjul505gomc",647,"78.csv","","null","resources/images/coin2.png","null","",NA,NA,NA,NA,""
"image-keyboard-response",222,192039,"0.0-4.70-0.70","krvbdjul505gomc",647,"78.csv","","187.80000000074506","resources/trios/L1T2A2.jpg","37","restless",0.3,0.7,0.4,0.332390360003159,"false"
"image-keyboard-response",223,192450,"0.0-4.70-1.70","krvbdjul505gomc",647,"78.csv","","null","resources/maskTrios/L1BB.jpg","null","",NA,NA,NA,NA,""
"image-keyboard-response",224,193666,"0.0-4.70-2.70","krvbdjul505gomc",647,"78.csv","","null","resources/images/fishbone.png","null","",NA,NA,NA,NA,""
"image-keyboard-response",225,193692,"0.0-4.71-0.71","krvbdjul505gomc",647,"78.csv","","24.699999999254942","resources/trios/L1T2A2.jpg","38","restless",0.3,0.7,0.4,0.944427297135939,"false"
"image-keyboard-response",226,194102,"0.0-4.71-1.71","krvbdjul505gomc",647,"78.csv","","null","resources/maskTrios/BT2B.jpg","null","",NA,NA,NA,NA,""
"image-keyboard-response",227,195312,"0.0-4.71-2.71","krvbdjul505gomc",647,"78.csv","","null","resources/images/fishbone.png","null","",NA,NA,NA,NA,""
"image-keyboard-response",228,195460,"0.0-4.72-0.72","krvbdjul505gomc",647,"78.csv","","147.5","resources/trios/L1T2A2.jpg","38","restless",0.3,0.7,0.4,0.53035917581506,"true"
"image-keyboard-response",229,195878,"0.0-4.72-1.72","krvbdjul505gomc",647,"78.csv","","null","resources/maskTrios/BT2B.jpg","null","",NA,NA,NA,NA,""
"image-keyboard-response",230,197092,"0.0-4.72-2.72","krvbdjul505gomc",647,"78.csv","","null","resources/images/coin2.png","null","",NA,NA,NA,NA,""
"image-keyboard-response",231,197153,"0.0-4.73-0.73","krvbdjul505gomc",647,"78.csv","","59","resources/trios/L1T2A2.jpg","38","restless",0.3,0.7,0.4,0.839924075678083,"false"
"image-keyboard-response",232,197564,"0.0-4.73-1.73","krvbdjul505gomc",647,"78.csv","","null","resources/maskTrios/BT2B.jpg","null","",NA,NA,NA,NA,""
"image-keyboard-response",233,198773,"0.0-4.73-2.73","krvbdjul505gomc",647,"78.csv","","null","resources/images/fishbone.png","null","",NA,NA,NA,NA,""
"image-keyboard-response",234,198811,"0.0-4.74-0.74","krvbdjul505gomc",647,"78.csv","","36.69999999925494","resources/trios/L1T2A2.jpg","39","restless",0.3,0.7,0.4,0.22787511484295,"true"
"image-keyboard-response",235,199215,"0.0-4.74-1.74","krvbdjul505gomc",647,"78.csv","","null","resources/maskTrios/BBA2.jpg","null","",NA,NA,NA,NA,""
"image-keyboard-response",236,200426,"0.0-4.74-2.74","krvbdjul505gomc",647,"78.csv","","null","resources/images/coin2.png","null","",NA,NA,NA,NA,""
"image-keyboard-response",237,200621,"0.0-4.75-0.75","krvbdjul505gomc",647,"78.csv","","193.40000000223517","resources/trios/L1T2A2.jpg","38","restless",0.2,0.7,0.4,0.0295248543792679,"true"
"image-keyboard-response",238,201036,"0.0-4.75-1.75","krvbdjul505gomc",647,"78.csv","","null","resources/maskTrios/BT2B.jpg","null","",NA,NA,NA,NA,""
"image-keyboard-response",239,202241,"0.0-4.75-2.75","krvbdjul505gomc",647,"78.csv","","null","resources/images/coin2.png","null","",NA,NA,NA,NA,""
"image-keyboard-response",240,202293,"0.0-4.76-0.76","krvbdjul505gomc",647,"78.csv","","49.80000000074506","resources/trios/L1T2A2.jpg","38","restless",0.2,0.7,0.4,0.844310906480696,"false"
"image-keyboard-response",241,202711,"0.0-4.76-1.76","krvbdjul505gomc",647,"78.csv","","null","resources/maskTrios/BT2B.jpg","null","",NA,NA,NA,NA,""
"image-keyboard-response",242,203922,"0.0-4.76-2.76","krvbdjul505gomc",647,"78.csv","","null","resources/images/fishbone.png","null","",NA,NA,NA,NA,""
"image-keyboard-response",243,204027,"0.0-4.77-0.77","krvbdjul505gomc",647,"78.csv","","103.60000000149012","resources/trios/L1T2A2.jpg","39","restless",0.2,0.7,0.4,0.106395384984499,"true"
"image-keyboard-response",244,204441,"0.0-4.77-1.77","krvbdjul505gomc",647,"78.csv","","null","resources/maskTrios/BBA2.jpg","null","",NA,NA,NA,NA,""
"image-keyboard-response",245,205650,"0.0-4.77-2.77","krvbdjul505gomc",647,"78.csv","","null","resources/images/coin2.png","null","",NA,NA,NA,NA,""
"image-keyboard-response",246,205819,"0.0-4.78-0.78","krvbdjul505gomc",647,"78.csv","","166.69999999925494","resources/trios/L1T2A2.jpg","38","restless",0.2,0.7,0.4,0.280753177995418,"true"
"image-keyboard-response",247,206234,"0.0-4.78-1.78","krvbdjul505gomc",647,"78.csv","","null","resources/maskTrios/BT2B.jpg","null","",NA,NA,NA,NA,""
"image-keyboard-response",248,207436,"0.0-4.78-2.78","krvbdjul505gomc",647,"78.csv","","null","resources/images/coin2.png","null","",NA,NA,NA,NA,""
"image-keyboard-response",249,207485,"0.0-4.79-0.79","krvbdjul505gomc",647,"78.csv","","47.5","resources/trios/L1T2A2.jpg","39","restless",0.2,0.7,0.4,0.505919067087024,"false"
"image-keyboard-response",250,207896,"0.0-4.79-1.79","krvbdjul505gomc",647,"78.csv","","null","resources/maskTrios/BBA2.jpg","null","",NA,NA,NA,NA,""
"image-keyboard-response",251,209110,"0.0-4.79-2.79","krvbdjul505gomc",647,"78.csv","","null","resources/images/fishbone.png","null","",NA,NA,NA,NA,""
"image-keyboard-response",252,209422,"0.0-4.80-0.80","krvbdjul505gomc",647,"78.csv","","308.1000000014901","resources/trios/L1T2A2.jpg","38","restless",0.2,0.7,0.4,0.509681368205493,"true"
"image-keyboard-response",253,209833,"0.0-4.80-1.80","krvbdjul505gomc",647,"78.csv","","null","resources/maskTrios/BT2B.jpg","null","",NA,NA,NA,NA,""
"image-keyboard-response",254,211048,"0.0-4.80-2.80","krvbdjul505gomc",647,"78.csv","","null","resources/images/coin2.png","null","",NA,NA,NA,NA,""
"image-keyboard-response",255,211107,"0.0-4.81-0.81","krvbdjul505gomc",647,"78.csv","","57.600000001490116","resources/trios/L1T2A2.jpg","38","restless",0.2,0.6,0.4,0.556756775093515,"true"
"image-keyboard-response",256,211519,"0.0-4.81-1.81","krvbdjul505gomc",647,"78.csv","","null","resources/maskTrios/BT2B.jpg","null","",NA,NA,NA,NA,""
"image-keyboard-response",257,212729,"0.0-4.81-2.81","krvbdjul505gomc",647,"78.csv","","null","resources/images/coin2.png","null","",NA,NA,NA,NA,""
"image-keyboard-response",258,212889,"0.0-4.82-0.82","krvbdjul505gomc",647,"78.csv","","157.89999999850988","resources/trios/L1T2A2.jpg","38","restless",0.2,0.6,0.4,0.0266259574584873,"true"
"image-keyboard-response",259,213295,"0.0-4.82-1.82","krvbdjul505gomc",647,"78.csv","","null","resources/maskTrios/BT2B.jpg","null","",NA,NA,NA,NA,""
"image-keyboard-response",260,214505,"0.0-4.82-2.82","krvbdjul505gomc",647,"78.csv","","null","resources/images/coin2.png","null","",NA,NA,NA,NA,""
"image-keyboard-response",261,214652,"0.0-4.83-0.83","krvbdjul505gomc",647,"78.csv","","144.89999999850988","resources/trios/L1T2A2.jpg","38","restless",0.2,0.6,0.4,0.293121151088509,"true"
"image-keyboard-response",262,215056,"0.0-4.83-1.83","krvbdjul505gomc",647,"78.csv","","null","resources/maskTrios/BT2B.jpg","null","",NA,NA,NA,NA,""
"image-keyboard-response",263,216262,"0.0-4.83-2.83","krvbdjul505gomc",647,"78.csv","","null","resources/images/coin2.png","null","",NA,NA,NA,NA,""
"image-keyboard-response",264,216286,"0.0-4.84-0.84","krvbdjul505gomc",647,"78.csv","","22","resources/trios/L1T2A2.jpg","38","restless",0.2,0.6,0.4,0.650998324284125,"false"
"image-keyboard-response",265,216689,"0.0-4.84-1.84","krvbdjul505gomc",647,"78.csv","","null","resources/maskTrios/BT2B.jpg","null","",NA,NA,NA,NA,""
"image-keyboard-response",266,217900,"0.0-4.84-2.84","krvbdjul505gomc",647,"78.csv","","null","resources/images/fishbone.png","null","",NA,NA,NA,NA,""
"image-keyboard-response",267,217908,"0.0-4.85-0.85","krvbdjul505gomc",647,"78.csv","","6.400000002235174","resources/trios/L1T2A2.jpg","39","restless",0.2,0.6,0.4,0.501622116823348,"false"
"image-keyboard-response",268,218324,"0.0-4.85-1.85","krvbdjul505gomc",647,"78.csv","","null","resources/maskTrios/BBA2.jpg","null","",NA,NA,NA,NA,""
"image-keyboard-response",269,219536,"0.0-4.85-2.85","krvbdjul505gomc",647,"78.csv","","null","resources/images/fishbone.png","null","",NA,NA,NA,NA,""
"image-keyboard-response",270,219859,"0.0-4.86-0.86","krvbdjul505gomc",647,"78.csv","","320.80000000074506","resources/trios/L1T2A2.jpg","38","restless",0.3,0.6,0.4,0.139962114009707,"true"
"image-keyboard-response",271,220274,"0.0-4.86-1.86","krvbdjul505gomc",647,"78.csv","","null","resources/maskTrios/BT2B.jpg","null","",NA,NA,NA,NA,""
"image-keyboard-response",272,221486,"0.0-4.86-2.86","krvbdjul505gomc",647,"78.csv","","null","resources/images/coin2.png","null","",NA,NA,NA,NA,""
"image-keyboard-response",273,221561,"0.0-4.87-0.87","krvbdjul505gomc",647,"78.csv","","74","resources/trios/L1T2A2.jpg","38","restless",0.4,0.6,0.4,0.373607349778845,"true"
"image-keyboard-response",274,221973,"0.0-4.87-1.87","krvbdjul505gomc",647,"78.csv","","null","resources/maskTrios/BT2B.jpg","null","",NA,NA,NA,NA,""
"image-keyboard-response",275,223179,"0.0-4.87-2.87","krvbdjul505gomc",647,"78.csv","","null","resources/images/coin2.png","null","",NA,NA,NA,NA,""
"image-keyboard-response",276,223304,"0.0-4.88-0.88","krvbdjul505gomc",647,"78.csv","","122.5","resources/trios/L1T2A2.jpg","38","restless",0.4,0.6,0.4,0.551420875084285,"true"
"image-keyboard-response",277,223715,"0.0-4.88-1.88","krvbdjul505gomc",647,"78.csv","","null","resources/maskTrios/BT2B.jpg","null","",NA,NA,NA,NA,""
"image-keyboard-response",278,224931,"0.0-4.88-2.88","krvbdjul505gomc",647,"78.csv","","null","resources/images/coin2.png","null","",NA,NA,NA,NA,""
"image-keyboard-response",279,225247,"0.0-4.89-0.89","krvbdjul505gomc",647,"78.csv","","315","resources/trios/L1T2A2.jpg","38","restless",0.4,0.6,0.4,0.764092607303711,"false"
"image-keyboard-response",280,225656,"0.0-4.89-1.89","krvbdjul505gomc",647,"78.csv","","null","resources/maskTrios/BT2B.jpg","null","",NA,NA,NA,NA,""
"image-keyboard-response",281,226872,"0.0-4.89-2.89","krvbdjul505gomc",647,"78.csv","","null","resources/images/fishbone.png","null","",NA,NA,NA,NA,""
"image-keyboard-response",282,226946,"0.0-4.90-0.90","krvbdjul505gomc",647,"78.csv","","71.5","resources/trios/L1T2A2.jpg","38","restless",0.4,0.6,0.4,0.165387912723353,"true"
"image-keyboard-response",283,227358,"0.0-4.90-1.90","krvbdjul505gomc",647,"78.csv","","null","resources/maskTrios/BT2B.jpg","null","",NA,NA,NA,NA,""
"image-keyboard-response",284,228572,"0.0-4.90-2.90","krvbdjul505gomc",647,"78.csv","","null","resources/images/coin2.png","null","",NA,NA,NA,NA,""
"image-keyboard-response",285,228704,"0.0-4.91-0.91","krvbdjul505gomc",647,"78.csv","","129.5","resources/trios/L1T2A2.jpg","38","restless",0.4,0.6,0.4,0.787473983334263,"false"
"image-keyboard-response",286,229106,"0.0-4.91-1.91","krvbdjul505gomc",647,"78.csv","","null","resources/maskTrios/BT2B.jpg","null","",NA,NA,NA,NA,""
"image-keyboard-response",287,230318,"0.0-4.91-2.91","krvbdjul505gomc",647,"78.csv","","null","resources/images/fishbone.png","null","",NA,NA,NA,NA,""
"image-keyboard-response",288,230333,"0.0-4.92-0.92","krvbdjul505gomc",647,"78.csv","","14.199999999254942","resources/trios/L1T2A2.jpg","37","restless",0.4,0.6,0.4,0.713877896150775,"false"
"image-keyboard-response",289,230741,"0.0-4.92-1.92","krvbdjul505gomc",647,"78.csv","","null","resources/maskTrios/L1BB.jpg","null","",NA,NA,NA,NA,""
"image-keyboard-response",290,231952,"0.0-4.92-2.92","krvbdjul505gomc",647,"78.csv","","null","resources/images/fishbone.png","null","",NA,NA,NA,NA,""
"image-keyboard-response",291,232307,"0.0-4.93-0.93","krvbdjul505gomc",647,"78.csv","","353.5","resources/trios/L1T2A2.jpg","38","restless",0.4,0.6,0.4,0.469733919766682,"true"
"image-keyboard-response",292,232720,"0.0-4.93-1.93","krvbdjul505gomc",647,"78.csv","","null","resources/maskTrios/BT2B.jpg","null","",NA,NA,NA,NA,""
"image-keyboard-response",293,233933,"0.0-4.93-2.93","krvbdjul505gomc",647,"78.csv","","null","resources/images/coin2.png","null","",NA,NA,NA,NA,""
"image-keyboard-response",294,234045,"0.0-4.94-0.94","krvbdjul505gomc",647,"78.csv","","111.10000000149012","resources/trios/L1T2A2.jpg","38","restless",0.4,0.6,0.4,0.708703522932318,"false"
"image-keyboard-response",295,234451,"0.0-4.94-1.94","krvbdjul505gomc",647,"78.csv","","null","resources/maskTrios/BT2B.jpg","null","",NA,NA,NA,NA,""
"image-keyboard-response",296,235663,"0.0-4.94-2.94","krvbdjul505gomc",647,"78.csv","","null","resources/images/fishbone.png","null","",NA,NA,NA,NA,""
"image-keyboard-response",297,236037,"0.0-4.95-0.95","krvbdjul505gomc",647,"78.csv","","372.5","resources/trios/L1T2A2.jpg","39","restless",0.4,0.7,0.4,0.403273139035328,"false"
"image-keyboard-response",298,236449,"0.0-4.95-1.95","krvbdjul505gomc",647,"78.csv","","null","resources/maskTrios/BBA2.jpg","null","",NA,NA,NA,NA,""
"image-keyboard-response",299,237652,"0.0-4.95-2.95","krvbdjul505gomc",647,"78.csv","","null","resources/images/fishbone.png","null","",NA,NA,NA,NA,""
"image-keyboard-response",300,237954,"0.0-4.96-0.96","krvbdjul505gomc",647,"78.csv","","300.8999999985099","resources/trios/L1T2A2.jpg","38","restless",0.4,0.7,0.4,0.900943180976493,"false"
"image-keyboard-response",301,238370,"0.0-4.96-1.96","krvbdjul505gomc",647,"78.csv","","null","resources/maskTrios/BT2B.jpg","null","",NA,NA,NA,NA,""
"image-keyboard-response",302,239582,"0.0-4.96-2.96","krvbdjul505gomc",647,"78.csv","","null","resources/images/fishbone.png","null","",NA,NA,NA,NA,""
"image-keyboard-response",303,239744,"0.0-4.97-0.97","krvbdjul505gomc",647,"78.csv","","160.5","resources/trios/L1T2A2.jpg","38","restless",0.5,0.7,0.4,0.22816174909743,"true"
"image-keyboard-response",304,240148,"0.0-4.97-1.97","krvbdjul505gomc",647,"78.csv","","null","resources/maskTrios/BT2B.jpg","null","",NA,NA,NA,NA,""
"image-keyboard-response",305,241358,"0.0-4.97-2.97","krvbdjul505gomc",647,"78.csv","","null","resources/images/coin2.png","null","",NA,NA,NA,NA,""
"image-keyboard-response",306,241498,"0.0-4.98-0.98","krvbdjul505gomc",647,"78.csv","","138.80000000074506","resources/trios/L1T2A2.jpg","37","restless",0.5,0.7,0.4,0.240966654323471,"true"
"image-keyboard-response",307,241908,"0.0-4.98-1.98","krvbdjul505gomc",647,"78.csv","","null","resources/maskTrios/L1BB.jpg","null","",NA,NA,NA,NA,""
"image-keyboard-response",308,243110,"0.0-4.98-2.98","krvbdjul505gomc",647,"78.csv","","null","resources/images/coin2.png","null","",NA,NA,NA,NA,""
"image-keyboard-response",309,243417,"0.0-4.99-0.99","krvbdjul505gomc",647,"78.csv","","305.80000000074506","resources/trios/L1T2A2.jpg","38","restless",0.5,0.7,0.4,0.498425763536029,"true"
"image-keyboard-response",310,243819,"0.0-4.99-1.99","krvbdjul505gomc",647,"78.csv","","null","resources/maskTrios/BT2B.jpg","null","",NA,NA,NA,NA,""
"image-keyboard-response",311,245029,"0.0-4.99-2.99","krvbdjul505gomc",647,"78.csv","","null","resources/images/coin2.png","null","",NA,NA,NA,NA,""
"image-keyboard-response",312,245149,"0.0-4.100-0.100","krvbdjul505gomc",647,"78.csv","","117.89999999850988","resources/trios/L1T2A2.jpg","37","restless",0.5,0.7,0.4,0.256890336731901,"true"
"image-keyboard-response",313,245564,"0.0-4.100-1.100","krvbdjul505gomc",647,"78.csv","","null","resources/maskTrios/L1BB.jpg","null","",NA,NA,NA,NA,""
"image-keyboard-response",314,246776,"0.0-4.100-2.100","krvbdjul505gomc",647,"78.csv","","null","resources/images/coin2.png","null","",NA,NA,NA,NA,""
"image-keyboard-response",315,246875,"0.0-4.101-0.101","krvbdjul505gomc",647,"78.csv","","97","resources/trios/L1T2A2.jpg","38","restless",0.5,0.7,0.4,0.640653110419069,"true"
"image-keyboard-response",316,247279,"0.0-4.101-1.101","krvbdjul505gomc",647,"78.csv","","null","resources/maskTrios/BT2B.jpg","null","",NA,NA,NA,NA,""
"image-keyboard-response",317,248484,"0.0-4.101-2.101","krvbdjul505gomc",647,"78.csv","","null","resources/images/coin2.png","null","",NA,NA,NA,NA,""
"image-keyboard-response",318,248581,"0.0-4.102-0.102","krvbdjul505gomc",647,"78.csv","","95.79999999701977","resources/trios/L1T2A2.jpg","37","restless",0.5,0.7,0.4,0.360100464698581,"true"
"image-keyboard-response",319,248988,"0.0-4.102-1.102","krvbdjul505gomc",647,"78.csv","","null","resources/maskTrios/L1BB.jpg","null","",NA,NA,NA,NA,""
"image-keyboard-response",320,250194,"0.0-4.102-2.102","krvbdjul505gomc",647,"78.csv","","null","resources/images/coin2.png","null","",NA,NA,NA,NA,""
"image-keyboard-response",321,250324,"0.0-4.103-0.103","krvbdjul505gomc",647,"78.csv","","129.60000000149012","resources/trios/L1T2A2.jpg","38","restless",0.5,0.8,0.4,0.312491971940867,"true"
"image-keyboard-response",322,250740,"0.0-4.103-1.103","krvbdjul505gomc",647,"78.csv","","null","resources/maskTrios/BT2B.jpg","null","",NA,NA,NA,NA,""
"image-keyboard-response",323,251945,"0.0-4.103-2.103","krvbdjul505gomc",647,"78.csv","","null","resources/images/coin2.png","null","",NA,NA,NA,NA,""
"image-keyboard-response",324,251959,"0.0-4.104-0.104","krvbdjul505gomc",647,"78.csv","","12.300000000745058","resources/trios/L1T2A2.jpg","37","restless",0.5,0.8,0.4,0.949469668118902,"false"
"image-keyboard-response",325,252371,"0.0-4.104-1.104","krvbdjul505gomc",647,"78.csv","","null","resources/maskTrios/L1BB.jpg","null","",NA,NA,NA,NA,""
"image-keyboard-response",326,253584,"0.0-4.104-2.104","krvbdjul505gomc",647,"78.csv","","null","resources/images/fishbone.png","null","",NA,NA,NA,NA,""
"image-keyboard-response",327,253644,"0.0-4.105-0.105","krvbdjul505gomc",647,"78.csv","","58.599999997764826","resources/trios/L1T2A2.jpg","38","restless",0.5,0.8,0.4,0.135717024507394,"true"
"image-keyboard-response",328,254056,"0.0-4.105-1.105","krvbdjul505gomc",647,"78.csv","","null","resources/maskTrios/BT2B.jpg","null","",NA,NA,NA,NA,""
"image-keyboard-response",329,255267,"0.0-4.105-2.105","krvbdjul505gomc",647,"78.csv","","null","resources/images/coin2.png","null","",NA,NA,NA,NA,""
"image-keyboard-response",330,255376,"0.0-4.106-0.106","krvbdjul505gomc",647,"78.csv","","107","resources/trios/L1T2A2.jpg","38","restless",0.5,0.8,0.4,0.699813012005951,"true"
"image-keyboard-response",331,255788,"0.0-4.106-1.106","krvbdjul505gomc",647,"78.csv","","null","resources/maskTrios/BT2B.jpg","null","",NA,NA,NA,NA,""
"image-keyboard-response",332,256996,"0.0-4.106-2.106","krvbdjul505gomc",647,"78.csv","","null","resources/images/coin2.png","null","",NA,NA,NA,NA,""
"image-keyboard-response",333,257335,"0.0-4.107-0.107","krvbdjul505gomc",647,"78.csv","","337.30000000074506","resources/trios/L1T2A2.jpg","37","restless",0.5,0.8,0.4,0.264550763991136,"true"
"image-keyboard-response",334,257752,"0.0-4.107-1.107","krvbdjul505gomc",647,"78.csv","","null","resources/maskTrios/L1BB.jpg","null","",NA,NA,NA,NA,""
"image-keyboard-response",335,258965,"0.0-4.107-2.107","krvbdjul505gomc",647,"78.csv","","null","resources/images/coin2.png","null","",NA,NA,NA,NA,""
"image-keyboard-response",336,259069,"0.0-4.108-0.108","krvbdjul505gomc",647,"78.csv","","102.69999999925494","resources/trios/L1T2A2.jpg","38","restless",0.5,0.8,0.4,0.828594953570805,"false"
"image-keyboard-response",337,259484,"0.0-4.108-1.108","krvbdjul505gomc",647,"78.csv","","null","resources/maskTrios/BT2B.jpg","null","",NA,NA,NA,NA,""
"image-keyboard-response",338,260689,"0.0-4.108-2.108","krvbdjul505gomc",647,"78.csv","","null","resources/images/fishbone.png","null","",NA,NA,NA,NA,""
"image-keyboard-response",339,260692,"0.0-4.109-0.109","krvbdjul505gomc",647,"78.csv","","1.800000000745058","resources/trios/L1T2A2.jpg","39","restless",0.5,0.8,0.5,0.801828255192457,"false"
"image-keyboard-response",340,261098,"0.0-4.109-1.109","krvbdjul505gomc",647,"78.csv","","null","resources/maskTrios/BBA2.jpg","null","",NA,NA,NA,NA,""
"image-keyboard-response",341,262302,"0.0-4.109-2.109","krvbdjul505gomc",647,"78.csv","","null","resources/images/fishbone.png","null","",NA,NA,NA,NA,""
"image-keyboard-response",342,262342,"0.0-4.110-0.110","krvbdjul505gomc",647,"78.csv","","38.30000000074506","resources/trios/L1T2A2.jpg","37","restless",0.5,0.7,0.5,0.522858199156059,"false"
"image-keyboard-response",343,262745,"0.0-4.110-1.110","krvbdjul505gomc",647,"78.csv","","null","resources/maskTrios/L1BB.jpg","null","",NA,NA,NA,NA,""
"image-keyboard-response",344,263957,"0.0-4.110-2.110","krvbdjul505gomc",647,"78.csv","","null","resources/images/fishbone.png","null","",NA,NA,NA,NA,""
"image-keyboard-response",345,263998,"0.0-4.111-0.111","krvbdjul505gomc",647,"78.csv","","38.80000000074506","resources/trios/L1T2A2.jpg","38","restless",0.5,0.7,0.5,0.804881984799596,"false"
"image-keyboard-response",346,264412,"0.0-4.111-1.111","krvbdjul505gomc",647,"78.csv","","null","resources/maskTrios/BT2B.jpg","null","",NA,NA,NA,NA,""
"image-keyboard-response",347,265621,"0.0-4.111-2.111","krvbdjul505gomc",647,"78.csv","","null","resources/images/fishbone.png","null","",NA,NA,NA,NA,""
"image-keyboard-response",348,265885,"0.0-4.112-0.112","krvbdjul505gomc",647,"78.csv","","263.30000000074506","resources/trios/L1T2A2.jpg","38","restless",0.5,0.7,0.5,0.71049844132872,"false"
"image-keyboard-response",349,266301,"0.0-4.112-1.112","krvbdjul505gomc",647,"78.csv","","null","resources/maskTrios/BT2B.jpg","null","",NA,NA,NA,NA,""
"image-keyboard-response",350,267509,"0.0-4.112-2.112","krvbdjul505gomc",647,"78.csv","","null","resources/images/fishbone.png","null","",NA,NA,NA,NA,""
"image-keyboard-response",351,267747,"0.0-4.113-0.113","krvbdjul505gomc",647,"78.csv","","236.30000000074506","resources/trios/L1T2A2.jpg","37","restless",0.5,0.7,0.5,0.254268668906907,"true"
"image-keyboard-response",352,268163,"0.0-4.113-1.113","krvbdjul505gomc",647,"78.csv","","null","resources/maskTrios/L1BB.jpg","null","",NA,NA,NA,NA,""
"image-keyboard-response",353,269367,"0.0-4.113-2.113","krvbdjul505gomc",647,"78.csv","","null","resources/images/coin2.png","null","",NA,NA,NA,NA,""
"image-keyboard-response",354,269485,"0.0-4.114-0.114","krvbdjul505gomc",647,"78.csv","","116.5","resources/trios/L1T2A2.jpg","38","restless",0.5,0.6,0.6,0.328189133870028,"true"
"image-keyboard-response",355,269890,"0.0-4.114-1.114","krvbdjul505gomc",647,"78.csv","","null","resources/maskTrios/BT2B.jpg","null","",NA,NA,NA,NA,""
"image-keyboard-response",356,271100,"0.0-4.114-2.114","krvbdjul505gomc",647,"78.csv","","null","resources/images/coin2.png","null","",NA,NA,NA,NA,""
"image-keyboard-response",357,271199,"0.0-4.115-0.115","krvbdjul505gomc",647,"78.csv","","96.69999999925494","resources/trios/L1T2A2.jpg","38","restless",0.5,0.6,0.6,0.699671368389172,"false"
"image-keyboard-response",358,271617,"0.0-4.115-1.115","krvbdjul505gomc",647,"78.csv","","null","resources/maskTrios/BT2B.jpg","null","",NA,NA,NA,NA,""
"image-keyboard-response",359,272824,"0.0-4.115-2.115","krvbdjul505gomc",647,"78.csv","","null","resources/images/fishbone.png","null","",NA,NA,NA,NA,""
"image-keyboard-response",360,272907,"0.0-4.116-0.116","krvbdjul505gomc",647,"78.csv","","82.30000000074506","resources/trios/L1T2A2.jpg","37","restless",0.5,0.5,0.6,0.505408304163086,"false"
"image-keyboard-response",361,273310,"0.0-4.116-1.116","krvbdjul505gomc",647,"78.csv","","null","resources/maskTrios/L1BB.jpg","null","",NA,NA,NA,NA,""
"image-keyboard-response",362,274519,"0.0-4.116-2.116","krvbdjul505gomc",647,"78.csv","","null","resources/images/fishbone.png","null","",NA,NA,NA,NA,""
"image-keyboard-response",363,274792,"0.0-4.117-0.117","krvbdjul505gomc",647,"78.csv","","271.4000000022352","resources/trios/L1T2A2.jpg","38","restless",0.5,0.5,0.7,0.0818657093197319,"true"
"image-keyboard-response",364,275207,"0.0-4.117-1.117","krvbdjul505gomc",647,"78.csv","","null","resources/maskTrios/BT2B.jpg","null","",NA,NA,NA,NA,""
"image-keyboard-response",365,276420,"0.0-4.117-2.117","krvbdjul505gomc",647,"78.csv","","null","resources/images/coin2.png","null","",NA,NA,NA,NA,""
"image-keyboard-response",366,276492,"0.0-4.118-0.118","krvbdjul505gomc",647,"78.csv","","70.89999999850988","resources/trios/L1T2A2.jpg","38","restless",0.5,0.5,0.7,0.62052995623566,"false"
"image-keyboard-response",367,276908,"0.0-4.118-1.118","krvbdjul505gomc",647,"78.csv","","null","resources/maskTrios/BT2B.jpg","null","",NA,NA,NA,NA,""
"image-keyboard-response",368,278120,"0.0-4.118-2.118","krvbdjul505gomc",647,"78.csv","","null","resources/images/fishbone.png","null","",NA,NA,NA,NA,""
"image-keyboard-response",369,278255,"0.0-4.119-0.119","krvbdjul505gomc",647,"78.csv","","134.69999999925494","resources/trios/L1T2A2.jpg","39","restless",0.6,0.5,0.7,0.828664038410072,"false"
"image-keyboard-response",370,278668,"0.0-4.119-1.119","krvbdjul505gomc",647,"78.csv","","null","resources/maskTrios/BBA2.jpg","null","",NA,NA,NA,NA,""
"image-keyboard-response",371,279882,"0.0-4.119-2.119","krvbdjul505gomc",647,"78.csv","","null","resources/images/fishbone.png","null","",NA,NA,NA,NA,""
"image-keyboard-response",372,280160,"0.0-4.120-0.120","krvbdjul505gomc",647,"78.csv","","276.30000000074506","resources/trios/L1T2A2.jpg","37","restless",0.6,0.5,0.7,0.19795882472397,"true"
"image-keyboard-response",373,280569,"0.0-4.120-1.120","krvbdjul505gomc",647,"78.csv","","null","resources/maskTrios/L1BB.jpg","null","",NA,NA,NA,NA,""
"image-keyboard-response",374,281774,"0.0-4.120-2.120","krvbdjul505gomc",647,"78.csv","","null","resources/images/coin2.png","null","",NA,NA,NA,NA,""
"image-keyboard-response",375,281818,"0.0-4.121-0.121","krvbdjul505gomc",647,"78.csv","","43.80000000074506","resources/trios/L1T2A2.jpg","37","restless",0.6,0.5,0.7,0.756568766675152,"false"
"image-keyboard-response",376,282226,"0.0-4.121-1.121","krvbdjul505gomc",647,"78.csv","","null","resources/maskTrios/L1BB.jpg","null","",NA,NA,NA,NA,""
"image-keyboard-response",377,283428,"0.0-4.121-2.121","krvbdjul505gomc",647,"78.csv","","null","resources/images/fishbone.png","null","",NA,NA,NA,NA,""
"image-keyboard-response",378,283639,"0.0-4.122-0.122","krvbdjul505gomc",647,"78.csv","","209.80000000074506","resources/trios/L1T2A2.jpg","38","restless",0.6,0.5,0.7,0.133833647659616,"true"
"image-keyboard-response",379,284054,"0.0-4.122-1.122","krvbdjul505gomc",647,"78.csv","","null","resources/maskTrios/BT2B.jpg","null","",NA,NA,NA,NA,""
"image-keyboard-response",380,285264,"0.0-4.122-2.122","krvbdjul505gomc",647,"78.csv","","null","resources/images/coin2.png","null","",NA,NA,NA,NA,""
"image-keyboard-response",381,285370,"0.0-4.123-0.123","krvbdjul505gomc",647,"78.csv","","104.79999999701977","resources/trios/L1T2A2.jpg","38","restless",0.6,0.5,0.7,0.38100908264632,"true"
"image-keyboard-response",382,285784,"0.0-4.123-1.123","krvbdjul505gomc",647,"78.csv","","null","resources/maskTrios/BT2B.jpg","null","",NA,NA,NA,NA,""
"image-keyboard-response",383,286994,"0.0-4.123-2.123","krvbdjul505gomc",647,"78.csv","","null","resources/images/coin2.png","null","",NA,NA,NA,NA,""
"image-keyboard-response",384,287202,"0.0-4.124-0.124","krvbdjul505gomc",647,"78.csv","","205.60000000149012","resources/trios/L1T2A2.jpg","38","restless",0.6,0.5,0.7,0.76784602779177,"false"
"image-keyboard-response",385,287606,"0.0-4.124-1.124","krvbdjul505gomc",647,"78.csv","","null","resources/maskTrios/BT2B.jpg","null","",NA,NA,NA,NA,""
"image-keyboard-response",386,288815,"0.0-4.124-2.124","krvbdjul505gomc",647,"78.csv","","null","resources/images/fishbone.png","null","",NA,NA,NA,NA,""
"image-keyboard-response",387,288980,"0.0-4.125-0.125","krvbdjul505gomc",647,"78.csv","","164.29999999701977","resources/trios/L1T2A2.jpg","37","restless",0.6,0.5,0.7,0.268959930666519,"true"
"image-keyboard-response",388,289395,"0.0-4.125-1.125","krvbdjul505gomc",647,"78.csv","","null","resources/maskTrios/L1BB.jpg","null","",NA,NA,NA,NA,""
"image-keyboard-response",389,290608,"0.0-4.125-2.125","krvbdjul505gomc",647,"78.csv","","null","resources/images/coin2.png","null","",NA,NA,NA,NA,""
"image-keyboard-response",390,290647,"0.0-4.126-0.126","krvbdjul505gomc",647,"78.csv","","37.100000001490116","resources/trios/L1T2A2.jpg","38","restless",0.6,0.5,0.7,0.460107648208181,"true"
"image-keyboard-response",391,291062,"0.0-4.126-1.126","krvbdjul505gomc",647,"78.csv","","null","resources/maskTrios/BT2B.jpg","null","",NA,NA,NA,NA,""
"image-keyboard-response",392,292271,"0.0-4.126-2.126","krvbdjul505gomc",647,"78.csv","","null","resources/images/coin2.png","null","",NA,NA,NA,NA,""
"image-keyboard-response",393,292574,"0.0-4.127-0.127","krvbdjul505gomc",647,"78.csv","","301.3999999985099","resources/trios/L1T2A2.jpg","38","restless",0.6,0.5,0.7,0.69766527816816,"false"
"image-keyboard-response",394,292991,"0.0-4.127-1.127","krvbdjul505gomc",647,"78.csv","","null","resources/maskTrios/BT2B.jpg","null","",NA,NA,NA,NA,""
"image-keyboard-response",395,294201,"0.0-4.127-2.127","krvbdjul505gomc",647,"78.csv","","null","resources/images/fishbone.png","null","",NA,NA,NA,NA,""
"image-keyboard-response",396,294269,"0.0-4.128-0.128","krvbdjul505gomc",647,"78.csv","","67.80000000074506","resources/trios/L1T2A2.jpg","37","restless",0.6,0.5,0.7,0.132363884378631,"true"
"image-keyboard-response",397,294686,"0.0-4.128-1.128","krvbdjul505gomc",647,"78.csv","","null","resources/maskTrios/L1BB.jpg","null","",NA,NA,NA,NA,""
"image-keyboard-response",398,295900,"0.0-4.128-2.128","krvbdjul505gomc",647,"78.csv","","null","resources/images/coin2.png","null","",NA,NA,NA,NA,""
"image-keyboard-response",399,296069,"0.0-4.129-0.129","krvbdjul505gomc",647,"78.csv","","168.59999999776483","resources/trios/L1T2A2.jpg","39","restless",0.6,0.5,0.7,0.598030855017212,"true"
"image-keyboard-response",400,296483,"0.0-4.129-1.129","krvbdjul505gomc",647,"78.csv","","null","resources/maskTrios/BBA2.jpg","null","",NA,NA,NA,NA,""
"image-keyboard-response",401,297692,"0.0-4.129-2.129","krvbdjul505gomc",647,"78.csv","","null","resources/images/coin2.png","null","",NA,NA,NA,NA,""
"image-keyboard-response",402,298012,"0.0-4.130-0.130","krvbdjul505gomc",647,"78.csv","","318.6000000014901","resources/trios/L1T2A2.jpg","37","restless",0.5,0.5,0.7,0.662013076510837,"false"
"image-keyboard-response",403,298419,"0.0-4.130-1.130","krvbdjul505gomc",647,"78.csv","","null","resources/maskTrios/L1BB.jpg","null","",NA,NA,NA,NA,""
"image-keyboard-response",404,299635,"0.0-4.130-2.130","krvbdjul505gomc",647,"78.csv","","null","resources/images/fishbone.png","null","",NA,NA,NA,NA,""
"image-keyboard-response",405,299757,"0.0-4.131-0.131","krvbdjul505gomc",647,"78.csv","","120.59999999776483","resources/trios/L1T2A2.jpg","39","restless",0.5,0.5,0.7,0.504488683342549,"true"
"image-keyboard-response",406,300172,"0.0-4.131-1.131","krvbdjul505gomc",647,"78.csv","","null","resources/maskTrios/BBA2.jpg","null","",NA,NA,NA,NA,""
"image-keyboard-response",407,301386,"0.0-4.131-2.131","krvbdjul505gomc",647,"78.csv","","null","resources/images/coin2.png","null","",NA,NA,NA,NA,""
"image-keyboard-response",408,301590,"0.0-4.132-0.132","krvbdjul505gomc",647,"78.csv","","203.10000000149012","resources/trios/L1T2A2.jpg","39","restless",0.4,0.5,0.7,0.709404960307779,"false"
"image-keyboard-response",409,301998,"0.0-4.132-1.132","krvbdjul505gomc",647,"78.csv","","null","resources/maskTrios/BBA2.jpg","null","",NA,NA,NA,NA,""
"image-keyboard-response",410,303207,"0.0-4.132-2.132","krvbdjul505gomc",647,"78.csv","","null","resources/images/fishbone.png","null","",NA,NA,NA,NA,""
"image-keyboard-response",411,303286,"0.0-4.133-0.133","krvbdjul505gomc",647,"78.csv","","77.69999999925494","resources/trios/L1T2A2.jpg","39","restless",0.4,0.5,0.7,0.26465434128278,"true"
"image-keyboard-response",412,303693,"0.0-4.133-1.133","krvbdjul505gomc",647,"78.csv","","null","resources/maskTrios/BBA2.jpg","null","",NA,NA,NA,NA,""
"image-keyboard-response",413,304897,"0.0-4.133-2.133","krvbdjul505gomc",647,"78.csv","","null","resources/images/coin2.png","null","",NA,NA,NA,NA,""
"image-keyboard-response",414,305092,"0.0-4.134-0.134","krvbdjul505gomc",647,"78.csv","","193.69999999925494","resources/trios/L1T2A2.jpg","39","restless",0.4,0.5,0.7,0.266528066708411,"true"
"image-keyboard-response",415,305507,"0.0-4.134-1.134","krvbdjul505gomc",647,"78.csv","","null","resources/maskTrios/BBA2.jpg","null","",NA,NA,NA,NA,""
"image-keyboard-response",416,306715,"0.0-4.134-2.134","krvbdjul505gomc",647,"78.csv","","null","resources/images/coin2.png","null","",NA,NA,NA,NA,""
"image-keyboard-response",417,306841,"0.0-4.135-0.135","krvbdjul505gomc",647,"78.csv","","124.30000000074506","resources/trios/L1T2A2.jpg","37","restless",0.4,0.5,0.7,0.263153635915757,"true"
"image-keyboard-response",418,307252,"0.0-4.135-1.135","krvbdjul505gomc",647,"78.csv","","null","resources/maskTrios/L1BB.jpg","null","",NA,NA,NA,NA,""
"image-keyboard-response",419,308463,"0.0-4.135-2.135","krvbdjul505gomc",647,"78.csv","","null","resources/images/coin2.png","null","",NA,NA,NA,NA,""
"image-keyboard-response",420,308648,"0.0-4.136-0.136","krvbdjul505gomc",647,"78.csv","","183.89999999850988","resources/trios/L1T2A2.jpg","38","restless",0.4,0.5,0.6,0.831565877651952,"false"
"image-keyboard-response",421,309060,"0.0-4.136-1.136","krvbdjul505gomc",647,"78.csv","","null","resources/maskTrios/BT2B.jpg","null","",NA,NA,NA,NA,""
"image-keyboard-response",422,310273,"0.0-4.136-2.136","krvbdjul505gomc",647,"78.csv","","null","resources/images/fishbone.png","null","",NA,NA,NA,NA,""
"image-keyboard-response",423,310324,"0.0-4.137-0.137","krvbdjul505gomc",647,"78.csv","","50.79999999701977","resources/trios/L1T2A2.jpg","37","restless",0.4,0.5,0.5,0.586530364093917,"false"
"image-keyboard-response",424,310729,"0.0-4.137-1.137","krvbdjul505gomc",647,"78.csv","","null","resources/maskTrios/L1BB.jpg","null","",NA,NA,NA,NA,""
"image-keyboard-response",425,311941,"0.0-4.137-2.137","krvbdjul505gomc",647,"78.csv","","null","resources/images/fishbone.png","null","",NA,NA,NA,NA,""
"image-keyboard-response",426,312002,"0.0-4.138-0.138","krvbdjul505gomc",647,"78.csv","","59.099999997764826","resources/trios/L1T2A2.jpg","38","restless",0.4,0.4,0.5,0.175438181765655,"true"
"image-keyboard-response",427,312413,"0.0-4.138-1.138","krvbdjul505gomc",647,"78.csv","","null","resources/maskTrios/BT2B.jpg","null","",NA,NA,NA,NA,""
"image-keyboard-response",428,313622,"0.0-4.138-2.138","krvbdjul505gomc",647,"78.csv","","null","resources/images/coin2.png","null","",NA,NA,NA,NA,""
"image-keyboard-response",429,313909,"0.0-4.139-0.139","krvbdjul505gomc",647,"78.csv","","285.5999999977648","resources/trios/L1T2A2.jpg","38","restless",0.3,0.3,0.5,0.663859981315126,"false"
"image-keyboard-response",430,314314,"0.0-4.139-1.139","krvbdjul505gomc",647,"78.csv","","null","resources/maskTrios/BT2B.jpg","null","",NA,NA,NA,NA,""
"image-keyboard-response",431,315526,"0.0-4.139-2.139","krvbdjul505gomc",647,"78.csv","","null","resources/images/fishbone.png","null","",NA,NA,NA,NA,""
"image-keyboard-response",432,315544,"0.0-4.140-0.140","krvbdjul505gomc",647,"78.csv","","16.400000002235174","resources/trios/L1T2A2.jpg","39","restless",0.3,0.3,0.5,0.0495147945821566,"true"
"image-keyboard-response",433,315949,"0.0-4.140-1.140","krvbdjul505gomc",647,"78.csv","","null","resources/maskTrios/BBA2.jpg","null","",NA,NA,NA,NA,""
"image-keyboard-response",434,317157,"0.0-4.140-2.140","krvbdjul505gomc",647,"78.csv","","null","resources/images/coin2.png","null","",NA,NA,NA,NA,""
"image-keyboard-response",435,317248,"0.0-4.141-0.141","krvbdjul505gomc",647,"78.csv","","90.69999999925494","resources/trios/L1T2A2.jpg","39","restless",0.3,0.3,0.5,0.967607684983647,"false"
"image-keyboard-response",436,317660,"0.0-4.141-1.141","krvbdjul505gomc",647,"78.csv","","null","resources/maskTrios/BBA2.jpg","null","",NA,NA,NA,NA,""
"image-keyboard-response",437,318870,"0.0-4.141-2.141","krvbdjul505gomc",647,"78.csv","","null","resources/images/fishbone.png","null","",NA,NA,NA,NA,""
"image-keyboard-response",438,318989,"0.0-4.142-0.142","krvbdjul505gomc",647,"78.csv","","117.79999999701977","resources/trios/L1T2A2.jpg","38","restless",0.3,0.3,0.5,0.41919538396552,"false"
"image-keyboard-response",439,319404,"0.0-4.142-1.142","krvbdjul505gomc",647,"78.csv","","null","resources/maskTrios/BT2B.jpg","null","",NA,NA,NA,NA,""
"image-keyboard-response",440,320609,"0.0-4.142-2.142","krvbdjul505gomc",647,"78.csv","","null","resources/images/fishbone.png","null","",NA,NA,NA,NA,""
"image-keyboard-response",441,320697,"0.0-4.143-0.143","krvbdjul505gomc",647,"78.csv","","87.19999999925494","resources/trios/L1T2A2.jpg","39","restless",0.3,0.3,0.5,0.269709127151082,"true"
"image-keyboard-response",442,321100,"0.0-4.143-1.143","krvbdjul505gomc",647,"78.csv","","null","resources/maskTrios/BBA2.jpg","null","",NA,NA,NA,NA,""
"image-keyboard-response",443,322309,"0.0-4.143-2.143","krvbdjul505gomc",647,"78.csv","","null","resources/images/coin2.png","null","",NA,NA,NA,NA,""
"image-keyboard-response",444,322320,"0.0-4.144-0.144","krvbdjul505gomc",647,"78.csv","","10.699999999254942","resources/trios/L1T2A2.jpg","39","restless",0.2,0.3,0.5,0.413536123642073,"true"
"image-keyboard-response",445,322733,"0.0-4.144-1.144","krvbdjul505gomc",647,"78.csv","","null","resources/maskTrios/BBA2.jpg","null","",NA,NA,NA,NA,""
"image-keyboard-response",446,323941,"0.0-4.144-2.144","krvbdjul505gomc",647,"78.csv","","null","resources/images/coin2.png","null","",NA,NA,NA,NA,""
"image-keyboard-response",447,324081,"0.0-4.145-0.145","krvbdjul505gomc",647,"78.csv","","139.60000000149012","resources/trios/L1T2A2.jpg","39","restless",0.2,0.3,0.5,0.323556287213949,"true"
"image-keyboard-response",448,324490,"0.0-4.145-1.145","krvbdjul505gomc",647,"78.csv","","null","resources/maskTrios/BBA2.jpg","null","",NA,NA,NA,NA,""
"image-keyboard-response",449,325698,"0.0-4.145-2.145","krvbdjul505gomc",647,"78.csv","","null","resources/images/coin2.png","null","",NA,NA,NA,NA,""
"image-keyboard-response",450,325783,"0.0-4.146-0.146","krvbdjul505gomc",647,"78.csv","","83.60000000149012","resources/trios/L1T2A2.jpg","39","restless",0.2,0.3,0.5,0.501184504372266,"false"
"image-keyboard-response",451,326186,"0.0-4.146-1.146","krvbdjul505gomc",647,"78.csv","","null","resources/maskTrios/BBA2.jpg","null","",NA,NA,NA,NA,""
"image-keyboard-response",452,327398,"0.0-4.146-2.146","krvbdjul505gomc",647,"78.csv","","null","resources/images/fishbone.png","null","",NA,NA,NA,NA,""
"image-keyboard-response",453,327400,"0.0-4.147-0.147","krvbdjul505gomc",647,"78.csv","","0.30000000074505806","resources/trios/L1T2A2.jpg","37","restless",0.2,0.3,0.5,0.0817001398515267,"true"
"image-keyboard-response",454,327805,"0.0-4.147-1.147","krvbdjul505gomc",647,"78.csv","","null","resources/maskTrios/L1BB.jpg","null","",NA,NA,NA,NA,""
"image-keyboard-response",455,329021,"0.0-4.147-2.147","krvbdjul505gomc",647,"78.csv","","null","resources/images/coin2.png","null","",NA,NA,NA,NA,""
"image-keyboard-response",456,329181,"0.0-4.148-0.148","krvbdjul505gomc",647,"78.csv","","159","resources/trios/L1T2A2.jpg","37","restless",0.2,0.2,0.5,0.650144242500424,"false"
"image-keyboard-response",457,329587,"0.0-4.148-1.148","krvbdjul505gomc",647,"78.csv","","null","resources/maskTrios/L1BB.jpg","null","",NA,NA,NA,NA,""
"image-keyboard-response",458,330801,"0.0-4.148-2.148","krvbdjul505gomc",647,"78.csv","","null","resources/images/fishbone.png","null","",NA,NA,NA,NA,""
"image-keyboard-response",459,330904,"0.0-4.149-0.149","krvbdjul505gomc",647,"78.csv","","101.90000000223517","resources/trios/L1T2A2.jpg","38","restless",0.2,0.2,0.5,0.702348316132845,"false"
"image-keyboard-response",460,331317,"0.0-4.149-1.149","krvbdjul505gomc",647,"78.csv","","null","resources/maskTrios/BT2B.jpg","null","",NA,NA,NA,NA,""
"image-keyboard-response",461,332529,"0.0-4.149-2.149","krvbdjul505gomc",647,"78.csv","","null","resources/images/fishbone.png","null","",NA,NA,NA,NA,""
"image-keyboard-response",462,332647,"0.0-4.150-0.150","krvbdjul505gomc",647,"78.csv","","115.39999999850988","resources/trios/L1T2A2.jpg","37","restless",0.2,0.2,0.5,0.420987762163027,"false"
"image-keyboard-response",463,333048,"0.0-4.150-1.150","krvbdjul505gomc",647,"78.csv","","null","resources/maskTrios/L1BB.jpg","null","",NA,NA,NA,NA,""
"image-keyboard-response",464,334255,"0.0-4.150-2.150","krvbdjul505gomc",647,"78.csv","","null","resources/images/fishbone.png","null","",NA,NA,NA,NA,""
"image-keyboard-response",465,334260,"0.0-4.151-0.151","krvbdjul505gomc",647,"78.csv","","2.399999998509884","resources/trios/L1T2A2.jpg","39","restless",0.2,0.2,0.5,0.689583737869811,"false"
"image-keyboard-response",466,334663,"0.0-4.151-1.151","krvbdjul505gomc",647,"78.csv","","null","resources/maskTrios/BBA2.jpg","null","",NA,NA,NA,NA,""
"image-keyboard-response",467,335874,"0.0-4.151-2.151","krvbdjul505gomc",647,"78.csv","","null","resources/images/fishbone.png","null","",NA,NA,NA,NA,""
"image-keyboard-response",468,335937,"0.0-4.152-0.152","krvbdjul505gomc",647,"78.csv","","61.900000002235174","resources/trios/L1T2A2.jpg","37","restless",0.2,0.2,0.5,0.974163736792827,"false"
"image-keyboard-response",469,336346,"0.0-4.152-1.152","krvbdjul505gomc",647,"78.csv","","null","resources/maskTrios/L1BB.jpg","null","",NA,NA,NA,NA,""
"image-keyboard-response",470,337554,"0.0-4.152-2.152","krvbdjul505gomc",647,"78.csv","","null","resources/images/fishbone.png","null","",NA,NA,NA,NA,""
"image-keyboard-response",471,337642,"0.0-4.153-0.153","krvbdjul505gomc",647,"78.csv","","85.59999999776483","resources/trios/L1T2A2.jpg","38","restless",0.2,0.2,0.5,0.28339113961655,"false"
"image-keyboard-response",472,338058,"0.0-4.153-1.153","krvbdjul505gomc",647,"78.csv","","null","resources/maskTrios/BT2B.jpg","null","",NA,NA,NA,NA,""
"image-keyboard-response",473,339269,"0.0-4.153-2.153","krvbdjul505gomc",647,"78.csv","","null","resources/images/fishbone.png","null","",NA,NA,NA,NA,""
"image-keyboard-response",474,339507,"0.0-4.154-0.154","krvbdjul505gomc",647,"78.csv","","235.90000000223517","resources/trios/L1T2A2.jpg","38","restless",0.3,0.2,0.5,0.54234575690972,"false"
"image-keyboard-response",475,339918,"0.0-4.154-1.154","krvbdjul505gomc",647,"78.csv","","null","resources/maskTrios/BT2B.jpg","null","",NA,NA,NA,NA,""
"image-keyboard-response",476,341126,"0.0-4.154-2.154","krvbdjul505gomc",647,"78.csv","","null","resources/images/fishbone.png","null","",NA,NA,NA,NA,""
"image-keyboard-response",477,341205,"0.0-4.155-0.155","krvbdjul505gomc",647,"78.csv","","77.09999999776483","resources/trios/L1T2A2.jpg","37","restless",0.3,0.2,0.5,0.378547245633022,"false"
"image-keyboard-response",478,341615,"0.0-4.155-1.155","krvbdjul505gomc",647,"78.csv","","null","resources/maskTrios/L1BB.jpg","null","",NA,NA,NA,NA,""
"image-keyboard-response",479,342821,"0.0-4.155-2.155","krvbdjul505gomc",647,"78.csv","","null","resources/images/fishbone.png","null","",NA,NA,NA,NA,""
"image-keyboard-response",480,342946,"0.0-4.156-0.156","krvbdjul505gomc",647,"78.csv","","122.5","resources/trios/L1T2A2.jpg","39","restless",0.3,0.2,0.6,0.0624443590780019,"true"
"image-keyboard-response",481,343354,"0.0-4.156-1.156","krvbdjul505gomc",647,"78.csv","","null","resources/maskTrios/BBA2.jpg","null","",NA,NA,NA,NA,""
"image-keyboard-response",482,344564,"0.0-4.156-2.156","krvbdjul505gomc",647,"78.csv","","null","resources/images/coin2.png","null","",NA,NA,NA,NA,""
"image-keyboard-response",483,344578,"0.0-4.157-0.157","krvbdjul505gomc",647,"78.csv","","14.100000001490116","resources/trios/L1T2A2.jpg","39","restless",0.3,0.2,0.6,0.140727025324256,"true"
"image-keyboard-response",484,344986,"0.0-4.157-1.157","krvbdjul505gomc",647,"78.csv","","null","resources/maskTrios/BBA2.jpg","null","",NA,NA,NA,NA,""
"image-keyboard-response",485,346198,"0.0-4.157-2.157","krvbdjul505gomc",647,"78.csv","","null","resources/images/coin2.png","null","",NA,NA,NA,NA,""
"image-keyboard-response",486,346392,"0.0-4.158-0.158","krvbdjul505gomc",647,"78.csv","","193.30000000074506","resources/trios/L1T2A2.jpg","39","restless",0.3,0.3,0.6,0.173444589919955,"true"
"image-keyboard-response",487,346809,"0.0-4.158-1.158","krvbdjul505gomc",647,"78.csv","","null","resources/maskTrios/BBA2.jpg","null","",NA,NA,NA,NA,""
"image-keyboard-response",488,348020,"0.0-4.158-2.158","krvbdjul505gomc",647,"78.csv","","null","resources/images/coin2.png","null","",NA,NA,NA,NA,""
"image-keyboard-response",489,348153,"0.0-4.159-0.159","krvbdjul505gomc",647,"78.csv","","131.10000000149012","resources/trios/L1T2A2.jpg","39","restless",0.3,0.3,0.6,0.562561469073791,"true"
"image-keyboard-response",490,348569,"0.0-4.159-1.159","krvbdjul505gomc",647,"78.csv","","null","resources/maskTrios/BBA2.jpg","null","",NA,NA,NA,NA,""
"image-keyboard-response",491,349778,"0.0-4.159-2.159","krvbdjul505gomc",647,"78.csv","","null","resources/images/coin2.png","null","",NA,NA,NA,NA,""
"image-keyboard-response",492,349950,"0.0-4.160-0.160","krvbdjul505gomc",647,"78.csv","","171.19999999925494","resources/trios/L1T2A2.jpg","39","restless",0.3,0.3,0.6,0.436200539843136,"true"
"image-keyboard-response",493,350361,"0.0-4.160-1.160","krvbdjul505gomc",647,"78.csv","","null","resources/maskTrios/BBA2.jpg","null","",NA,NA,NA,NA,""
"image-keyboard-response",494,351571,"0.0-4.160-2.160","krvbdjul505gomc",647,"78.csv","","null","resources/images/coin2.png","null","",NA,NA,NA,NA,""
"image-keyboard-response",495,351632,"0.0-4.161-0.161","krvbdjul505gomc",647,"78.csv","","60.399999998509884","resources/trios/L1T2A2.jpg","39","restless",0.3,0.3,0.6,0.883085652213182,"false"
"image-keyboard-response",496,352045,"0.0-4.161-1.161","krvbdjul505gomc",647,"78.csv","","null","resources/maskTrios/BBA2.jpg","null","",NA,NA,NA,NA,""
"image-keyboard-response",497,353256,"0.0-4.161-2.161","krvbdjul505gomc",647,"78.csv","","null","resources/images/fishbone.png","null","",NA,NA,NA,NA,""
"image-keyboard-response",498,353446,"0.0-4.162-0.162","krvbdjul505gomc",647,"78.csv","","188","resources/trios/L1T2A2.jpg","39","restless",0.3,0.3,0.6,0.0594342513911807,"true"
"image-keyboard-response",499,353856,"0.0-4.162-1.162","krvbdjul505gomc",647,"78.csv","","null","resources/maskTrios/BBA2.jpg","null","",NA,NA,NA,NA,""
"image-keyboard-response",500,355068,"0.0-4.162-2.162","krvbdjul505gomc",647,"78.csv","","null","resources/images/coin2.png","null","",NA,NA,NA,NA,""
"image-keyboard-response",501,355251,"0.0-4.163-0.163","krvbdjul505gomc",647,"78.csv","","180.90000000223517","resources/trios/L1T2A2.jpg","39","restless",0.3,0.3,0.6,0.0874644463513392,"true"
"image-keyboard-response",502,355663,"0.0-4.163-1.163","krvbdjul505gomc",647,"78.csv","","null","resources/maskTrios/BBA2.jpg","null","",NA,NA,NA,NA,""
"image-keyboard-response",503,356874,"0.0-4.163-2.163","krvbdjul505gomc",647,"78.csv","","null","resources/images/coin2.png","null","",NA,NA,NA,NA,""
"image-keyboard-response",504,356938,"0.0-4.164-0.164","krvbdjul505gomc",647,"78.csv","","61.5","resources/trios/L1T2A2.jpg","39","restless",0.3,0.3,0.6,0.751985325058465,"false"
"image-keyboard-response",505,357346,"0.0-4.164-1.164","krvbdjul505gomc",647,"78.csv","","null","resources/maskTrios/BBA2.jpg","null","",NA,NA,NA,NA,""
"image-keyboard-response",506,358556,"0.0-4.164-2.164","krvbdjul505gomc",647,"78.csv","","null","resources/images/fishbone.png","null","",NA,NA,NA,NA,""
"image-keyboard-response",507,358715,"0.0-4.165-0.165","krvbdjul505gomc",647,"78.csv","","158.69999999925494","resources/trios/L1T2A2.jpg","38","restless",0.3,0.3,0.6,0.498958140198391,"false"
"image-keyboard-response",508,359117,"0.0-4.165-1.165","krvbdjul505gomc",647,"78.csv","","null","resources/maskTrios/BT2B.jpg","null","",NA,NA,NA,NA,""
"image-keyboard-response",509,360328,"0.0-4.165-2.165","krvbdjul505gomc",647,"78.csv","","null","resources/images/fishbone.png","null","",NA,NA,NA,NA,""
"image-keyboard-response",510,360749,"0.0-4.166-0.166","krvbdjul505gomc",647,"78.csv","","418.30000000074506","resources/trios/L1T2A2.jpg","37","restless",0.3,0.3,0.6,0.81059806115405,"false"
"image-keyboard-response",511,361162,"0.0-4.166-1.166","krvbdjul505gomc",647,"78.csv","","null","resources/maskTrios/L1BB.jpg","null","",NA,NA,NA,NA,""
"image-keyboard-response",512,362370,"0.0-4.166-2.166","krvbdjul505gomc",647,"78.csv","","null","resources/images/fishbone.png","null","",NA,NA,NA,NA,""
"image-keyboard-response",513,362381,"0.0-4.167-0.167","krvbdjul505gomc",647,"78.csv","","9.199999999254942","resources/trios/L1T2A2.jpg","39","restless",0.3,0.2,0.6,0.759642485914964,"false"
"image-keyboard-response",514,362794,"0.0-4.167-1.167","krvbdjul505gomc",647,"78.csv","","null","resources/maskTrios/BBA2.jpg","null","",NA,NA,NA,NA,""
"image-keyboard-response",515,364007,"0.0-4.167-2.167","krvbdjul505gomc",647,"78.csv","","null","resources/images/fishbone.png","null","",NA,NA,NA,NA,""
"image-keyboard-response",516,364094,"0.0-4.168-0.168","krvbdjul505gomc",647,"78.csv","","85.5","resources/trios/L1T2A2.jpg","38","restless",0.3,0.2,0.6,0.678471696828259,"false"
"image-keyboard-response",517,364510,"0.0-4.168-1.168","krvbdjul505gomc",647,"78.csv","","null","resources/maskTrios/BT2B.jpg","null","",NA,NA,NA,NA,""
"image-keyboard-response",518,365720,"0.0-4.168-2.168","krvbdjul505gomc",647,"78.csv","","null","resources/images/fishbone.png","null","",NA,NA,NA,NA,""
"image-keyboard-response",519,365802,"0.0-4.169-0.169","krvbdjul505gomc",647,"78.csv","","79.5","resources/trios/L1T2A2.jpg","37","restless",0.3,0.2,0.6,0.774966146063329,"false"
"image-keyboard-response",520,366207,"0.0-4.169-1.169","krvbdjul505gomc",647,"78.csv","","null","resources/maskTrios/L1BB.jpg","null","",NA,NA,NA,NA,""
"image-keyboard-response",521,367412,"0.0-4.169-2.169","krvbdjul505gomc",647,"78.csv","","null","resources/images/fishbone.png","null","",NA,NA,NA,NA,""
"image-keyboard-response",522,367585,"0.0-4.170-0.170","krvbdjul505gomc",647,"78.csv","","171.60000000149012","resources/trios/L1T2A2.jpg","38","restless",0.2,0.2,0.6,0.521437995954867,"false"
"image-keyboard-response",523,367992,"0.0-4.170-1.170","krvbdjul505gomc",647,"78.csv","","null","resources/maskTrios/BT2B.jpg","null","",NA,NA,NA,NA,""
"image-keyboard-response",524,369203,"0.0-4.170-2.170","krvbdjul505gomc",647,"78.csv","","null","resources/images/fishbone.png","null","",NA,NA,NA,NA,""
"image-keyboard-response",525,369236,"0.0-4.171-0.171","krvbdjul505gomc",647,"78.csv","","31.800000000745058","resources/trios/L1T2A2.jpg","37","restless",0.2,0.2,0.6,0.766922573300759,"false"
"image-keyboard-response",526,369645,"0.0-4.171-1.171","krvbdjul505gomc",647,"78.csv","","null","resources/maskTrios/L1BB.jpg","null","",NA,NA,NA,NA,""
"image-keyboard-response",527,370854,"0.0-4.171-2.171","krvbdjul505gomc",647,"78.csv","","null","resources/images/fishbone.png","null","",NA,NA,NA,NA,""
"image-keyboard-response",528,370968,"0.0-4.172-0.172","krvbdjul505gomc",647,"78.csv","","113.5","resources/trios/L1T2A2.jpg","38","restless",0.2,0.2,0.6,0.515813092591154,"false"
"image-keyboard-response",529,371374,"0.0-4.172-1.172","krvbdjul505gomc",647,"78.csv","","null","resources/maskTrios/BT2B.jpg","null","",NA,NA,NA,NA,""
"image-keyboard-response",530,372587,"0.0-4.172-2.172","krvbdjul505gomc",647,"78.csv","","null","resources/images/fishbone.png","null","",NA,NA,NA,NA,""
"image-keyboard-response",531,372712,"0.0-4.173-0.173","krvbdjul505gomc",647,"78.csv","","123.40000000223517","resources/trios/L1T2A2.jpg","39","restless",0.2,0.2,0.6,0.903130471089124,"false"
"image-keyboard-response",532,373125,"0.0-4.173-1.173","krvbdjul505gomc",647,"78.csv","","null","resources/maskTrios/BBA2.jpg","null","",NA,NA,NA,NA,""
"image-keyboard-response",533,374335,"0.0-4.173-2.173","krvbdjul505gomc",647,"78.csv","","null","resources/images/fishbone.png","null","",NA,NA,NA,NA,""
"image-keyboard-response",534,374429,"0.0-4.174-0.174","krvbdjul505gomc",647,"78.csv","","92.30000000074506","resources/trios/L1T2A2.jpg","39","restless",0.2,0.2,0.6,0.435092739169852,"true"
"image-keyboard-response",535,374833,"0.0-4.174-1.174","krvbdjul505gomc",647,"78.csv","","null","resources/maskTrios/BBA2.jpg","null","",NA,NA,NA,NA,""
"image-keyboard-response",536,376042,"0.0-4.174-2.174","krvbdjul505gomc",647,"78.csv","","null","resources/images/coin2.png","null","",NA,NA,NA,NA,""
"image-keyboard-response",537,376132,"0.0-4.175-0.175","krvbdjul505gomc",647,"78.csv","","88.19999999925494","resources/trios/L1T2A2.jpg","39","restless",0.3,0.2,0.6,0.791553263969039,"false"
"image-keyboard-response",538,376544,"0.0-4.175-1.175","krvbdjul505gomc",647,"78.csv","","null","resources/maskTrios/BBA2.jpg","null","",NA,NA,NA,NA,""
"image-keyboard-response",539,377753,"0.0-4.175-2.175","krvbdjul505gomc",647,"78.csv","","null","resources/images/fishbone.png","null","",NA,NA,NA,NA,""
"image-keyboard-response",540,377969,"0.0-4.176-0.176","krvbdjul505gomc",647,"78.csv","","214.20000000298023","resources/trios/L1T2A2.jpg","38","restless",0.3,0.2,0.6,0.88754315164145,"false"
"image-keyboard-response",541,378386,"0.0-4.176-1.176","krvbdjul505gomc",647,"78.csv","","null","resources/maskTrios/BT2B.jpg","null","",NA,NA,NA,NA,""
"image-keyboard-response",542,379599,"0.0-4.176-2.176","krvbdjul505gomc",647,"78.csv","","null","resources/images/fishbone.png","null","",NA,NA,NA,NA,""
"image-keyboard-response",543,379911,"0.0-4.177-0.177","krvbdjul505gomc",647,"78.csv","","310.69999999925494","resources/trios/L1T2A2.jpg","39","restless",0.3,0.2,0.7,0.766741690018884,"false"
"image-keyboard-response",544,380319,"0.0-4.177-1.177","krvbdjul505gomc",647,"78.csv","","null","resources/maskTrios/BBA2.jpg","null","",NA,NA,NA,NA,""
"image-keyboard-response",545,381534,"0.0-4.177-2.177","krvbdjul505gomc",647,"78.csv","","null","resources/images/fishbone.png","null","",NA,NA,NA,NA,""
"image-keyboard-response",546,381846,"0.0-4.178-0.178","krvbdjul505gomc",647,"78.csv","","310.69999999925494","resources/trios/L1T2A2.jpg","37","restless",0.3,0.2,0.7,0.341697879970835,"false"
"image-keyboard-response",547,382254,"0.0-4.178-1.178","krvbdjul505gomc",647,"78.csv","","null","resources/maskTrios/L1BB.jpg","null","",NA,NA,NA,NA,""
"image-keyboard-response",548,383461,"0.0-4.178-2.178","krvbdjul505gomc",647,"78.csv","","null","resources/images/fishbone.png","null","",NA,NA,NA,NA,""
"image-keyboard-response",549,383597,"0.0-4.179-0.179","krvbdjul505gomc",647,"78.csv","","134.5","resources/trios/L1T2A2.jpg","39","restless",0.3,0.2,0.7,0.559711178595168,"true"
"image-keyboard-response",550,384006,"0.0-4.179-1.179","krvbdjul505gomc",647,"78.csv","","null","resources/maskTrios/BBA2.jpg","null","",NA,NA,NA,NA,""
"image-keyboard-response",551,385222,"0.0-4.179-2.179","krvbdjul505gomc",647,"78.csv","","null","resources/images/coin2.png","null","",NA,NA,NA,NA,""
"image-keyboard-response",552,385429,"0.0-4.180-0.180","krvbdjul505gomc",647,"78.csv","","205.90000000223517","resources/trios/L1T2A2.jpg","39","restless",0.3,0.2,0.7,0.849683552798811,"false"
"image-keyboard-response",553,385837,"0.0-4.180-1.180","krvbdjul505gomc",647,"78.csv","","null","resources/maskTrios/BBA2.jpg","null","",NA,NA,NA,NA,""
"image-keyboard-response",554,387049,"0.0-4.180-2.180","krvbdjul505gomc",647,"78.csv","","null","resources/images/fishbone.png","null","",NA,NA,NA,NA,""
"image-keyboard-response",555,387263,"0.0-4.181-0.181","krvbdjul505gomc",647,"78.csv","","211.69999999925494","resources/trios/L1T2A2.jpg","39","restless",0.3,0.2,0.7,0.693445090571018,"true"
"image-keyboard-response",556,387678,"0.0-4.181-1.181","krvbdjul505gomc",647,"78.csv","","null","resources/maskTrios/BBA2.jpg","null","",NA,NA,NA,NA,""
"image-keyboard-response",557,388887,"0.0-4.181-2.181","krvbdjul505gomc",647,"78.csv","","null","resources/images/coin2.png","null","",NA,NA,NA,NA,""
"image-keyboard-response",558,389042,"0.0-4.182-0.182","krvbdjul505gomc",647,"78.csv","","153.19999999925494","resources/trios/L1T2A2.jpg","39","restless",0.3,0.2,0.7,0.147591024189082,"true"
"image-keyboard-response",559,389452,"0.0-4.182-1.182","krvbdjul505gomc",647,"78.csv","","null","resources/maskTrios/BBA2.jpg","null","",NA,NA,NA,NA,""
"image-keyboard-response",560,390663,"0.0-4.182-2.182","krvbdjul505gomc",647,"78.csv","","null","resources/images/coin2.png","null","",NA,NA,NA,NA,""
"image-keyboard-response",561,390725,"0.0-4.183-0.183","krvbdjul505gomc",647,"78.csv","","59.80000000074506","resources/trios/L1T2A2.jpg","39","restless",0.3,0.2,0.7,0.963626480593642,"false"
"image-keyboard-response",562,391133,"0.0-4.183-1.183","krvbdjul505gomc",647,"78.csv","","null","resources/maskTrios/BBA2.jpg","null","",NA,NA,NA,NA,""
"image-keyboard-response",563,392350,"0.0-4.183-2.183","krvbdjul505gomc",647,"78.csv","","null","resources/images/fishbone.png","null","",NA,NA,NA,NA,""
"image-keyboard-response",564,392430,"0.0-4.184-0.184","krvbdjul505gomc",647,"78.csv","","78.80000000074506","resources/trios/L1T2A2.jpg","38","restless",0.3,0.2,0.7,0.900114657874779,"false"
"image-keyboard-response",565,392838,"0.0-4.184-1.184","krvbdjul505gomc",647,"78.csv","","null","resources/maskTrios/BT2B.jpg","null","",NA,NA,NA,NA,""
"image-keyboard-response",566,394050,"0.0-4.184-2.184","krvbdjul505gomc",647,"78.csv","","null","resources/images/fishbone.png","null","",NA,NA,NA,NA,""
"image-keyboard-response",567,394348,"0.0-4.185-0.185","krvbdjul505gomc",647,"78.csv","","296.19999999925494","resources/trios/L1T2A2.jpg","39","restless",0.3,0.2,0.7,0.897363041798714,"false"
"image-keyboard-response",568,394761,"0.0-4.185-1.185","krvbdjul505gomc",647,"78.csv","","null","resources/maskTrios/BBA2.jpg","null","",NA,NA,NA,NA,""
"image-keyboard-response",569,395976,"0.0-4.185-2.185","krvbdjul505gomc",647,"78.csv","","null","resources/images/fishbone.png","null","",NA,NA,NA,NA,""
"image-keyboard-response",570,396017,"0.0-4.186-0.186","krvbdjul505gomc",647,"78.csv","","39.400000002235174","resources/trios/L1T2A2.jpg","39","restless",0.4,0.2,0.7,0.269280869927077,"true"
"image-keyboard-response",571,396432,"0.0-4.186-1.186","krvbdjul505gomc",647,"78.csv","","null","resources/maskTrios/BBA2.jpg","null","",NA,NA,NA,NA,""
"image-keyboard-response",572,397640,"0.0-4.186-2.186","krvbdjul505gomc",647,"78.csv","","null","resources/images/coin2.png","null","",NA,NA,NA,NA,""
"image-keyboard-response",573,397795,"0.0-4.187-0.187","krvbdjul505gomc",647,"78.csv","","153.40000000223517","resources/trios/L1T2A2.jpg","39","restless",0.4,0.2,0.7,0.263301818627018,"true"
"image-keyboard-response",574,398206,"0.0-4.187-1.187","krvbdjul505gomc",647,"78.csv","","null","resources/maskTrios/BBA2.jpg","null","",NA,NA,NA,NA,""
"image-keyboard-response",575,399416,"0.0-4.187-2.187","krvbdjul505gomc",647,"78.csv","","null","resources/images/coin2.png","null","",NA,NA,NA,NA,""
"image-keyboard-response",576,399510,"0.0-4.188-0.188","krvbdjul505gomc",647,"78.csv","","91.80000000074506","resources/trios/L1T2A2.jpg","39","restless",0.5,0.2,0.7,0.294678206914472,"true"
"image-keyboard-response",577,399924,"0.0-4.188-1.188","krvbdjul505gomc",647,"78.csv","","null","resources/maskTrios/BBA2.jpg","null","",NA,NA,NA,NA,""
"image-keyboard-response",578,401135,"0.0-4.188-2.188","krvbdjul505gomc",647,"78.csv","","null","resources/images/coin2.png","null","",NA,NA,NA,NA,""
"image-keyboard-response",579,401217,"0.0-4.189-0.189","krvbdjul505gomc",647,"78.csv","","80.80000000074506","resources/trios/L1T2A2.jpg","39","restless",0.5,0.1,0.7,0.672228302426012,"true"
"image-keyboard-response",580,401621,"0.0-4.189-1.189","krvbdjul505gomc",647,"78.csv","","null","resources/maskTrios/BBA2.jpg","null","",NA,NA,NA,NA,""
"image-keyboard-response",581,402834,"0.0-4.189-2.189","krvbdjul505gomc",647,"78.csv","","null","resources/images/coin2.png","null","",NA,NA,NA,NA,""
"image-keyboard-response",582,402909,"0.0-4.190-0.190","krvbdjul505gomc",647,"78.csv","","73.30000000074506","resources/trios/L1T2A2.jpg","39","restless",0.5,0.1,0.7,0.698676457370313,"true"
"image-keyboard-response",583,403320,"0.0-4.190-1.190","krvbdjul505gomc",647,"78.csv","","null","resources/maskTrios/BBA2.jpg","null","",NA,NA,NA,NA,""
"image-keyboard-response",584,404534,"0.0-4.190-2.190","krvbdjul505gomc",647,"78.csv","","null","resources/images/coin2.png","null","",NA,NA,NA,NA,""
"image-keyboard-response",585,404691,"0.0-4.191-0.191","krvbdjul505gomc",647,"78.csv","","155.40000000223517","resources/trios/L1T2A2.jpg","39","restless",0.5,0.1,0.7,0.537407646087671,"true"
"image-keyboard-response",586,405101,"0.0-4.191-1.191","krvbdjul505gomc",647,"78.csv","","null","resources/maskTrios/BBA2.jpg","null","",NA,NA,NA,NA,""
"image-keyboard-response",587,406309,"0.0-4.191-2.191","krvbdjul505gomc",647,"78.csv","","null","resources/images/coin2.png","null","",NA,NA,NA,NA,""
"image-keyboard-response",588,406488,"0.0-4.192-0.192","krvbdjul505gomc",647,"78.csv","","176.59999999776483","resources/trios/L1T2A2.jpg","39","restless",0.5,0.1,0.7,0.664678710678381,"true"
"image-keyboard-response",589,406890,"0.0-4.192-1.192","krvbdjul505gomc",647,"78.csv","","null","resources/maskTrios/BBA2.jpg","null","",NA,NA,NA,NA,""
"image-keyboard-response",590,408100,"0.0-4.192-2.192","krvbdjul505gomc",647,"78.csv","","null","resources/images/coin2.png","null","",NA,NA,NA,NA,""
"image-keyboard-response",591,408124,"0.0-4.193-0.193","krvbdjul505gomc",647,"78.csv","","21.800000000745058","resources/trios/L1T2A2.jpg","39","restless",0.5,0.1,0.7,0.520197832505321,"true"
"image-keyboard-response",592,408540,"0.0-4.193-1.193","krvbdjul505gomc",647,"78.csv","","null","resources/maskTrios/BBA2.jpg","null","",NA,NA,NA,NA,""
"image-keyboard-response",593,409753,"0.0-4.193-2.193","krvbdjul505gomc",647,"78.csv","","null","resources/images/coin2.png","null","",NA,NA,NA,NA,""
"image-keyboard-response",594,409807,"0.0-4.194-0.194","krvbdjul505gomc",647,"78.csv","","49.399999998509884","resources/trios/L1T2A2.jpg","39","restless",0.5,0.1,0.7,0.189382676505479,"true"
"image-keyboard-response",595,410225,"0.0-4.194-1.194","krvbdjul505gomc",647,"78.csv","","null","resources/maskTrios/BBA2.jpg","null","",NA,NA,NA,NA,""
"image-keyboard-response",596,411437,"0.0-4.194-2.194","krvbdjul505gomc",647,"78.csv","","null","resources/images/coin2.png","null","",NA,NA,NA,NA,""
"image-keyboard-response",597,411450,"0.0-4.195-0.195","krvbdjul505gomc",647,"78.csv","","11.199999999254942","resources/trios/L1T2A2.jpg","39","restless",0.5,0.1,0.6,0.924054139328731,"false"
"image-keyboard-response",598,411861,"0.0-4.195-1.195","krvbdjul505gomc",647,"78.csv","","null","resources/maskTrios/BBA2.jpg","null","",NA,NA,NA,NA,""
"image-keyboard-response",599,413070,"0.0-4.195-2.195","krvbdjul505gomc",647,"78.csv","","null","resources/images/fishbone.png","null","",NA,NA,NA,NA,""
"image-keyboard-response",600,413212,"0.0-4.196-0.196","krvbdjul505gomc",647,"78.csv","","140.19999999925494","resources/trios/L1T2A2.jpg","37","restless",0.5,0.1,0.6,0.392283831863014,"true"
"image-keyboard-response",601,413619,"0.0-4.196-1.196","krvbdjul505gomc",647,"78.csv","","null","resources/maskTrios/L1BB.jpg","null","",NA,NA,NA,NA,""
"image-keyboard-response",602,414834,"0.0-4.196-2.196","krvbdjul505gomc",647,"78.csv","","null","resources/images/coin2.png","null","",NA,NA,NA,NA,""
"image-keyboard-response",603,414912,"0.0-4.197-0.197","krvbdjul505gomc",647,"78.csv","","77.19999999925494","resources/trios/L1T2A2.jpg","37","restless",0.5,0.1,0.6,0.991247889546364,"false"
"image-keyboard-response",604,415320,"0.0-4.197-1.197","krvbdjul505gomc",647,"78.csv","","null","resources/maskTrios/L1BB.jpg","null","",NA,NA,NA,NA,""
"image-keyboard-response",605,416534,"0.0-4.197-2.197","krvbdjul505gomc",647,"78.csv","","null","resources/images/fishbone.png","null","",NA,NA,NA,NA,""
"image-keyboard-response",606,416713,"0.0-4.198-0.198","krvbdjul505gomc",647,"78.csv","","177.89999999850988","resources/trios/L1T2A2.jpg","37","restless",0.5,0.2,0.6,0.295853589284895,"true"
"image-keyboard-response",607,417117,"0.0-4.198-1.198","krvbdjul505gomc",647,"78.csv","","null","resources/maskTrios/L1BB.jpg","null","",NA,NA,NA,NA,""
"image-keyboard-response",608,418333,"0.0-4.198-2.198","krvbdjul505gomc",647,"78.csv","","null","resources/images/coin2.png","null","",NA,NA,NA,NA,""
"image-keyboard-response",609,418388,"0.0-4.199-0.199","krvbdjul505gomc",647,"78.csv","","53.29999999701977","resources/trios/L1T2A2.jpg","37","restless",0.5,0.2,0.6,0.893785141936266,"false"
"image-keyboard-response",610,418802,"0.0-4.199-1.199","krvbdjul505gomc",647,"78.csv","","null","resources/maskTrios/L1BB.jpg","null","",NA,NA,NA,NA,""
"image-keyboard-response",611,420007,"0.0-4.199-2.199","krvbdjul505gomc",647,"78.csv","","null","resources/images/fishbone.png","null","",NA,NA,NA,NA,""
"survey-text",612,526478,"0.0-5.0","krvbdjul505gomc",647,"78.csv","","106469.29999999702","","","",NA,NA,NA,NA,""
