"trial_type","trial_index","time_elapsed","internal_node_id","subject","participantCode","walkNumber","success","rt","stimulus","key_press","test_part","leftProb","midProb","rightProb","generatedNum","correct"
"pavlovia",0,1187,"0.0-0.0","k95j0f80yp0wzkd",733,"76.csv","","","","","",NA,NA,NA,NA,""
"fullscreen",1,4616,"0.0-1.0","k95j0f80yp0wzkd",733,"76.csv","true","","","","",NA,NA,NA,NA,""
"survey-html-form",2,11971,"0.0-2.0","k95j0f80yp0wzkd",733,"76.csv","","7246","","","",NA,NA,NA,NA,""
"image-keyboard-response",3,24936,"0.0-3.0-0.0","k95j0f80yp0wzkd",733,"76.csv","","12959","resources/images/parrot_nobg.png","13","",NA,NA,NA,NA,""
"image-keyboard-response",4,27946,"0.0-3.0-1.0","k95j0f80yp0wzkd",733,"76.csv","","null","resources/image_sets/111.png","null","",NA,NA,NA,NA,""
"image-keyboard-response",5,31976,"0.0-3.0-2.0","k95j0f80yp0wzkd",733,"76.csv","","4026","resources/image_sets/left_highlight.png","37","",NA,NA,NA,NA,""
"image-keyboard-response",6,33310,"0.0-3.0-3.0","k95j0f80yp0wzkd",733,"76.csv","","1332","resources/image_sets/mid_highlight.png","38","",NA,NA,NA,NA,""
"image-keyboard-response",7,33903,"0.0-3.0-4.0","k95j0f80yp0wzkd",733,"76.csv","","589","resources/image_sets/right_highlight.png","39","",NA,NA,NA,NA,""
"image-keyboard-response",8,35401,"0.0-3.0-5.0","k95j0f80yp0wzkd",733,"76.csv","","1497","resources/image_sets/111.png","13","",NA,NA,NA,NA,""
"image-keyboard-response",9,37191,"0.0-3.0-6.0","k95j0f80yp0wzkd",733,"76.csv","","1790","resources/images/coin2.png","13","",NA,NA,NA,NA,""
"image-keyboard-response",10,38750,"0.0-3.0-7.0","k95j0f80yp0wzkd",733,"76.csv","","1557","resources/images/fishbone.png","13","",NA,NA,NA,NA,""
"html-keyboard-response",11,44310,"0.0-3.0-8.0","k95j0f80yp0wzkd",733,"76.csv","","5559","<p>You can track your coin total on the top right of your screen. </p><p>At the end of your journey you will be directed to a survey, so please click on the link before exiting the task</p><p>Press Enter to begin</p>","13","",NA,NA,NA,NA,""
"image-keyboard-response",12,45272,"0.0-4.0-0.0","k95j0f80yp0wzkd",733,"76.csv","","959","resources/trios/L1T2A3.jpg","37","restless",0.7,0.9,0.3,0.8549590804862,"false"
"image-keyboard-response",13,45716,"0.0-4.0-1.0","k95j0f80yp0wzkd",733,"76.csv","","null","resources/maskTrios/L1BB.jpg","null","",NA,NA,NA,NA,""
"image-keyboard-response",14,46927,"0.0-4.0-2.0","k95j0f80yp0wzkd",733,"76.csv","","null","resources/images/fishbone.png","null","",NA,NA,NA,NA,""
"image-keyboard-response",15,47563,"0.0-4.1-0.1","k95j0f80yp0wzkd",733,"76.csv","","633","resources/trios/L1T2A3.jpg","39","restless",0.7,0.9,0.3,0.988580101063545,"false"
"image-keyboard-response",16,47966,"0.0-4.1-1.1","k95j0f80yp0wzkd",733,"76.csv","","null","resources/maskTrios/BBA3.jpg","null","",NA,NA,NA,NA,""
"image-keyboard-response",17,49185,"0.0-4.1-2.1","k95j0f80yp0wzkd",733,"76.csv","","null","resources/images/fishbone.png","null","",NA,NA,NA,NA,""
"image-keyboard-response",18,49738,"0.0-4.2-0.2","k95j0f80yp0wzkd",733,"76.csv","","548","resources/trios/L1T2A3.jpg","38","restless",0.7,0.9,0.3,0.31269503765063,"true"
"image-keyboard-response",19,50147,"0.0-4.2-1.2","k95j0f80yp0wzkd",733,"76.csv","","null","resources/maskTrios/BT2B.jpg","null","",NA,NA,NA,NA,""
"image-keyboard-response",20,51367,"0.0-4.2-2.2","k95j0f80yp0wzkd",733,"76.csv","","null","resources/images/coin2.png","null","",NA,NA,NA,NA,""
"image-keyboard-response",21,52033,"0.0-4.3-0.3","k95j0f80yp0wzkd",733,"76.csv","","663","resources/trios/L1T2A3.jpg","38","restless",0.7,0.9,0.3,0.771826711301735,"true"
"image-keyboard-response",22,52445,"0.0-4.3-1.3","k95j0f80yp0wzkd",733,"76.csv","","null","resources/maskTrios/BT2B.jpg","null","",NA,NA,NA,NA,""
"image-keyboard-response",23,53665,"0.0-4.3-2.3","k95j0f80yp0wzkd",733,"76.csv","","null","resources/images/coin2.png","null","",NA,NA,NA,NA,""
"image-keyboard-response",24,54044,"0.0-4.4-0.4","k95j0f80yp0wzkd",733,"76.csv","","375","resources/trios/L1T2A3.jpg","38","restless",0.7,0.9,0.3,0.622455095344922,"true"
"image-keyboard-response",25,54465,"0.0-4.4-1.4","k95j0f80yp0wzkd",733,"76.csv","","null","resources/maskTrios/BT2B.jpg","null","",NA,NA,NA,NA,""
"image-keyboard-response",26,55677,"0.0-4.4-2.4","k95j0f80yp0wzkd",733,"76.csv","","null","resources/images/coin2.png","null","",NA,NA,NA,NA,""
"image-keyboard-response",27,56220,"0.0-4.5-0.5","k95j0f80yp0wzkd",733,"76.csv","","541","resources/trios/L1T2A3.jpg","39","restless",0.7,0.8,0.3,0.998333983583596,"false"
"image-keyboard-response",28,56637,"0.0-4.5-1.5","k95j0f80yp0wzkd",733,"76.csv","","null","resources/maskTrios/BBA3.jpg","null","",NA,NA,NA,NA,""
"image-keyboard-response",29,57856,"0.0-4.5-2.5","k95j0f80yp0wzkd",733,"76.csv","","null","resources/images/fishbone.png","null","",NA,NA,NA,NA,""
"image-keyboard-response",30,58191,"0.0-4.6-0.6","k95j0f80yp0wzkd",733,"76.csv","","332","resources/trios/L1T2A3.jpg","38","restless",0.7,0.8,0.3,0.973834126885843,"false"
"image-keyboard-response",31,58606,"0.0-4.6-1.6","k95j0f80yp0wzkd",733,"76.csv","","null","resources/maskTrios/BT2B.jpg","null","",NA,NA,NA,NA,""
"image-keyboard-response",32,59827,"0.0-4.6-2.6","k95j0f80yp0wzkd",733,"76.csv","","null","resources/images/fishbone.png","null","",NA,NA,NA,NA,""
"image-keyboard-response",33,59959,"0.0-4.7-0.7","k95j0f80yp0wzkd",733,"76.csv","","129","resources/trios/L1T2A3.jpg","37","restless",0.7,0.8,0.3,0.343947909946765,"true"
"image-keyboard-response",34,60367,"0.0-4.7-1.7","k95j0f80yp0wzkd",733,"76.csv","","null","resources/maskTrios/L1BB.jpg","null","",NA,NA,NA,NA,""
"image-keyboard-response",35,61587,"0.0-4.7-2.7","k95j0f80yp0wzkd",733,"76.csv","","null","resources/images/coin2.png","null","",NA,NA,NA,NA,""
"image-keyboard-response",36,61833,"0.0-4.8-0.8","k95j0f80yp0wzkd",733,"76.csv","","244","resources/trios/L1T2A3.jpg","37","restless",0.7,0.7,0.3,0.549451348261858,"true"
"image-keyboard-response",37,62245,"0.0-4.8-1.8","k95j0f80yp0wzkd",733,"76.csv","","null","resources/maskTrios/L1BB.jpg","null","",NA,NA,NA,NA,""
"image-keyboard-response",38,63466,"0.0-4.8-2.8","k95j0f80yp0wzkd",733,"76.csv","","null","resources/images/coin2.png","null","",NA,NA,NA,NA,""
"image-keyboard-response",39,63707,"0.0-4.9-0.9","k95j0f80yp0wzkd",733,"76.csv","","238","resources/trios/L1T2A3.jpg","37","restless",0.7,0.7,0.3,0.689133144176825,"true"
"image-keyboard-response",40,64127,"0.0-4.9-1.9","k95j0f80yp0wzkd",733,"76.csv","","null","resources/maskTrios/L1BB.jpg","null","",NA,NA,NA,NA,""
"image-keyboard-response",41,65346,"0.0-4.9-2.9","k95j0f80yp0wzkd",733,"76.csv","","null","resources/images/coin2.png","null","",NA,NA,NA,NA,""
"image-keyboard-response",42,65538,"0.0-4.10-0.10","k95j0f80yp0wzkd",733,"76.csv","","191","resources/trios/L1T2A3.jpg","39","restless",0.7,0.7,0.3,0.0321009391436622,"true"
"image-keyboard-response",43,65945,"0.0-4.10-1.10","k95j0f80yp0wzkd",733,"76.csv","","null","resources/maskTrios/BBA3.jpg","null","",NA,NA,NA,NA,""
"image-keyboard-response",44,67166,"0.0-4.10-2.10","k95j0f80yp0wzkd",733,"76.csv","","null","resources/images/coin2.png","null","",NA,NA,NA,NA,""
"image-keyboard-response",45,67390,"0.0-4.11-0.11","k95j0f80yp0wzkd",733,"76.csv","","221","resources/trios/L1T2A3.jpg","39","restless",0.7,0.6,0.3,0.326884197319767,"false"
"image-keyboard-response",46,67797,"0.0-4.11-1.11","k95j0f80yp0wzkd",733,"76.csv","","null","resources/maskTrios/BBA3.jpg","null","",NA,NA,NA,NA,""
"image-keyboard-response",47,69018,"0.0-4.11-2.11","k95j0f80yp0wzkd",733,"76.csv","","null","resources/images/fishbone.png","null","",NA,NA,NA,NA,""
"image-keyboard-response",48,69230,"0.0-4.12-0.12","k95j0f80yp0wzkd",733,"76.csv","","209","resources/trios/L1T2A3.jpg","38","restless",0.7,0.6,0.3,0.656653437788395,"false"
"image-keyboard-response",49,69637,"0.0-4.12-1.12","k95j0f80yp0wzkd",733,"76.csv","","null","resources/maskTrios/BT2B.jpg","null","",NA,NA,NA,NA,""
"image-keyboard-response",50,70856,"0.0-4.12-2.12","k95j0f80yp0wzkd",733,"76.csv","","null","resources/images/fishbone.png","null","",NA,NA,NA,NA,""
"image-keyboard-response",51,71263,"0.0-4.13-0.13","k95j0f80yp0wzkd",733,"76.csv","","405","resources/trios/L1T2A3.jpg","39","restless",0.8,0.7,0.3,0.726112475439473,"false"
"image-keyboard-response",52,71667,"0.0-4.13-1.13","k95j0f80yp0wzkd",733,"76.csv","","null","resources/maskTrios/BBA3.jpg","null","",NA,NA,NA,NA,""
"image-keyboard-response",53,72885,"0.0-4.13-2.13","k95j0f80yp0wzkd",733,"76.csv","","null","resources/images/fishbone.png","null","",NA,NA,NA,NA,""
"image-keyboard-response",54,73130,"0.0-4.14-0.14","k95j0f80yp0wzkd",733,"76.csv","","244","resources/trios/L1T2A3.jpg","37","restless",0.8,0.7,0.3,0.0409752575054962,"true"
"image-keyboard-response",55,73547,"0.0-4.14-1.14","k95j0f80yp0wzkd",733,"76.csv","","null","resources/maskTrios/L1BB.jpg","null","",NA,NA,NA,NA,""
"image-keyboard-response",56,74756,"0.0-4.14-2.14","k95j0f80yp0wzkd",733,"76.csv","","null","resources/images/coin2.png","null","",NA,NA,NA,NA,""
"image-keyboard-response",57,75024,"0.0-4.15-0.15","k95j0f80yp0wzkd",733,"76.csv","","264","resources/trios/L1T2A3.jpg","37","restless",0.8,0.7,0.3,0.802449569075942,"false"
"image-keyboard-response",58,75447,"0.0-4.15-1.15","k95j0f80yp0wzkd",733,"76.csv","","null","resources/maskTrios/L1BB.jpg","null","",NA,NA,NA,NA,""
"image-keyboard-response",59,76668,"0.0-4.15-2.15","k95j0f80yp0wzkd",733,"76.csv","","null","resources/images/fishbone.png","null","",NA,NA,NA,NA,""
"image-keyboard-response",60,76881,"0.0-4.16-0.16","k95j0f80yp0wzkd",733,"76.csv","","209","resources/trios/L1T2A3.jpg","38","restless",0.8,0.7,0.3,0.584715978508033,"true"
"image-keyboard-response",61,77287,"0.0-4.16-1.16","k95j0f80yp0wzkd",733,"76.csv","","null","resources/maskTrios/BT2B.jpg","null","",NA,NA,NA,NA,""
"image-keyboard-response",62,78496,"0.0-4.16-2.16","k95j0f80yp0wzkd",733,"76.csv","","null","resources/images/coin2.png","null","",NA,NA,NA,NA,""
"image-keyboard-response",63,78718,"0.0-4.17-0.17","k95j0f80yp0wzkd",733,"76.csv","","217","resources/trios/L1T2A3.jpg","38","restless",0.8,0.7,0.3,0.301501620857953,"true"
"image-keyboard-response",64,79139,"0.0-4.17-1.17","k95j0f80yp0wzkd",733,"76.csv","","null","resources/maskTrios/BT2B.jpg","null","",NA,NA,NA,NA,""
"image-keyboard-response",65,80351,"0.0-4.17-2.17","k95j0f80yp0wzkd",733,"76.csv","","null","resources/images/coin2.png","null","",NA,NA,NA,NA,""
"image-keyboard-response",66,80890,"0.0-4.18-0.18","k95j0f80yp0wzkd",733,"76.csv","","536","resources/trios/L1T2A3.jpg","38","restless",0.8,0.7,0.2,0.0779458790478091,"true"
"image-keyboard-response",67,81306,"0.0-4.18-1.18","k95j0f80yp0wzkd",733,"76.csv","","null","resources/maskTrios/BT2B.jpg","null","",NA,NA,NA,NA,""
"image-keyboard-response",68,82527,"0.0-4.18-2.18","k95j0f80yp0wzkd",733,"76.csv","","null","resources/images/coin2.png","null","",NA,NA,NA,NA,""
"image-keyboard-response",69,82751,"0.0-4.19-0.19","k95j0f80yp0wzkd",733,"76.csv","","222","resources/trios/L1T2A3.jpg","38","restless",0.8,0.7,0.2,0.159111646998681,"true"
"image-keyboard-response",70,83155,"0.0-4.19-1.19","k95j0f80yp0wzkd",733,"76.csv","","null","resources/maskTrios/BT2B.jpg","null","",NA,NA,NA,NA,""
"image-keyboard-response",71,84365,"0.0-4.19-2.19","k95j0f80yp0wzkd",733,"76.csv","","null","resources/images/coin2.png","null","",NA,NA,NA,NA,""
"image-keyboard-response",72,84657,"0.0-4.20-0.20","k95j0f80yp0wzkd",733,"76.csv","","290","resources/trios/L1T2A3.jpg","38","restless",0.7,0.7,0.2,0.715291830632824,"false"
"image-keyboard-response",73,85067,"0.0-4.20-1.20","k95j0f80yp0wzkd",733,"76.csv","","null","resources/maskTrios/BT2B.jpg","null","",NA,NA,NA,NA,""
"image-keyboard-response",74,86275,"0.0-4.20-2.20","k95j0f80yp0wzkd",733,"76.csv","","null","resources/images/fishbone.png","null","",NA,NA,NA,NA,""
"image-keyboard-response",75,86472,"0.0-4.21-0.21","k95j0f80yp0wzkd",733,"76.csv","","195","resources/trios/L1T2A3.jpg","39","restless",0.7,0.7,0.3,0.433004995099627,"false"
"image-keyboard-response",76,86875,"0.0-4.21-1.21","k95j0f80yp0wzkd",733,"76.csv","","null","resources/maskTrios/BBA3.jpg","null","",NA,NA,NA,NA,""
"image-keyboard-response",77,88097,"0.0-4.21-2.21","k95j0f80yp0wzkd",733,"76.csv","","null","resources/images/fishbone.png","null","",NA,NA,NA,NA,""
"image-keyboard-response",78,88259,"0.0-4.22-0.22","k95j0f80yp0wzkd",733,"76.csv","","160","resources/trios/L1T2A3.jpg","37","restless",0.7,0.7,0.3,0.855605233420358,"false"
"image-keyboard-response",79,88666,"0.0-4.22-1.22","k95j0f80yp0wzkd",733,"76.csv","","null","resources/maskTrios/L1BB.jpg","null","",NA,NA,NA,NA,""
"image-keyboard-response",80,89887,"0.0-4.22-2.22","k95j0f80yp0wzkd",733,"76.csv","","null","resources/images/fishbone.png","null","",NA,NA,NA,NA,""
"image-keyboard-response",81,90119,"0.0-4.23-0.23","k95j0f80yp0wzkd",733,"76.csv","","230","resources/trios/L1T2A3.jpg","37","restless",0.7,0.6,0.3,0.110049904824718,"true"
"image-keyboard-response",82,90526,"0.0-4.23-1.23","k95j0f80yp0wzkd",733,"76.csv","","null","resources/maskTrios/L1BB.jpg","null","",NA,NA,NA,NA,""
"image-keyboard-response",83,91735,"0.0-4.23-2.23","k95j0f80yp0wzkd",733,"76.csv","","null","resources/images/coin2.png","null","",NA,NA,NA,NA,""
"image-keyboard-response",84,92007,"0.0-4.24-0.24","k95j0f80yp0wzkd",733,"76.csv","","269","resources/trios/L1T2A3.jpg","37","restless",0.7,0.6,0.3,0.46279273565271,"true"
"image-keyboard-response",85,92415,"0.0-4.24-1.24","k95j0f80yp0wzkd",733,"76.csv","","null","resources/maskTrios/L1BB.jpg","null","",NA,NA,NA,NA,""
"image-keyboard-response",86,93627,"0.0-4.24-2.24","k95j0f80yp0wzkd",733,"76.csv","","null","resources/images/coin2.png","null","",NA,NA,NA,NA,""
"image-keyboard-response",87,93855,"0.0-4.25-0.25","k95j0f80yp0wzkd",733,"76.csv","","227","resources/trios/L1T2A3.jpg","37","restless",0.7,0.6,0.3,0.550485504170365,"true"
"image-keyboard-response",88,94267,"0.0-4.25-1.25","k95j0f80yp0wzkd",733,"76.csv","","null","resources/maskTrios/L1BB.jpg","null","",NA,NA,NA,NA,""
"image-keyboard-response",89,95476,"0.0-4.25-2.25","k95j0f80yp0wzkd",733,"76.csv","","null","resources/images/coin2.png","null","",NA,NA,NA,NA,""
"image-keyboard-response",90,95677,"0.0-4.26-0.26","k95j0f80yp0wzkd",733,"76.csv","","198","resources/trios/L1T2A3.jpg","37","restless",0.7,0.6,0.3,0.168852261253972,"true"
"image-keyboard-response",91,96087,"0.0-4.26-1.26","k95j0f80yp0wzkd",733,"76.csv","","null","resources/maskTrios/L1BB.jpg","null","",NA,NA,NA,NA,""
"image-keyboard-response",92,97308,"0.0-4.26-2.26","k95j0f80yp0wzkd",733,"76.csv","","null","resources/images/coin2.png","null","",NA,NA,NA,NA,""
"image-keyboard-response",93,97560,"0.0-4.27-0.27","k95j0f80yp0wzkd",733,"76.csv","","249","resources/trios/L1T2A3.jpg","37","restless",0.7,0.6,0.3,0.403593853879034,"true"
"image-keyboard-response",94,97976,"0.0-4.27-1.27","k95j0f80yp0wzkd",733,"76.csv","","null","resources/maskTrios/L1BB.jpg","null","",NA,NA,NA,NA,""
"image-keyboard-response",95,99196,"0.0-4.27-2.27","k95j0f80yp0wzkd",733,"76.csv","","null","resources/images/coin2.png","null","",NA,NA,NA,NA,""
"image-keyboard-response",96,99281,"0.0-4.28-0.28","k95j0f80yp0wzkd",733,"76.csv","","83","resources/trios/L1T2A3.jpg","37","restless",0.7,0.5,0.3,0.73938174586969,"false"
"image-keyboard-response",97,99696,"0.0-4.28-1.28","k95j0f80yp0wzkd",733,"76.csv","","null","resources/maskTrios/L1BB.jpg","null","",NA,NA,NA,NA,""
"image-keyboard-response",98,100906,"0.0-4.28-2.28","k95j0f80yp0wzkd",733,"76.csv","","null","resources/images/fishbone.png","null","",NA,NA,NA,NA,""
"image-keyboard-response",99,101133,"0.0-4.29-0.29","k95j0f80yp0wzkd",733,"76.csv","","225","resources/trios/L1T2A3.jpg","39","restless",0.7,0.5,0.3,0.698328968595867,"false"
"image-keyboard-response",100,101546,"0.0-4.29-1.29","k95j0f80yp0wzkd",733,"76.csv","","null","resources/maskTrios/BBA3.jpg","null","",NA,NA,NA,NA,""
"image-keyboard-response",101,102756,"0.0-4.29-2.29","k95j0f80yp0wzkd",733,"76.csv","","null","resources/images/fishbone.png","null","",NA,NA,NA,NA,""
"image-keyboard-response",102,102878,"0.0-4.30-0.30","k95j0f80yp0wzkd",733,"76.csv","","121","resources/trios/L1T2A3.jpg","39","restless",0.7,0.5,0.3,0.742489381744747,"false"
"image-keyboard-response",103,103297,"0.0-4.30-1.30","k95j0f80yp0wzkd",733,"76.csv","","null","resources/maskTrios/BBA3.jpg","null","",NA,NA,NA,NA,""
"image-keyboard-response",104,104517,"0.0-4.30-2.30","k95j0f80yp0wzkd",733,"76.csv","","null","resources/images/fishbone.png","null","",NA,NA,NA,NA,""
"image-keyboard-response",105,104639,"0.0-4.31-0.31","k95j0f80yp0wzkd",733,"76.csv","","121","resources/trios/L1T2A3.jpg","38","restless",0.7,0.5,0.3,0.675800857400558,"false"
"image-keyboard-response",106,105056,"0.0-4.31-1.31","k95j0f80yp0wzkd",733,"76.csv","","null","resources/maskTrios/BT2B.jpg","null","",NA,NA,NA,NA,""
"image-keyboard-response",107,106266,"0.0-4.31-2.31","k95j0f80yp0wzkd",733,"76.csv","","null","resources/images/fishbone.png","null","",NA,NA,NA,NA,""
"image-keyboard-response",108,106510,"0.0-4.32-0.32","k95j0f80yp0wzkd",733,"76.csv","","242","resources/trios/L1T2A3.jpg","38","restless",0.7,0.5,0.3,0.33299670085603,"true"
"image-keyboard-response",109,106926,"0.0-4.32-1.32","k95j0f80yp0wzkd",733,"76.csv","","null","resources/maskTrios/BT2B.jpg","null","",NA,NA,NA,NA,""
"image-keyboard-response",110,108135,"0.0-4.32-2.32","k95j0f80yp0wzkd",733,"76.csv","","null","resources/images/coin2.png","null","",NA,NA,NA,NA,""
"image-keyboard-response",111,108319,"0.0-4.33-0.33","k95j0f80yp0wzkd",733,"76.csv","","182","resources/trios/L1T2A3.jpg","38","restless",0.7,0.5,0.3,0.898796855070099,"false"
"image-keyboard-response",112,108737,"0.0-4.33-1.33","k95j0f80yp0wzkd",733,"76.csv","","null","resources/maskTrios/BT2B.jpg","null","",NA,NA,NA,NA,""
"image-keyboard-response",113,109956,"0.0-4.33-2.33","k95j0f80yp0wzkd",733,"76.csv","","null","resources/images/fishbone.png","null","",NA,NA,NA,NA,""
"image-keyboard-response",114,110196,"0.0-4.34-0.34","k95j0f80yp0wzkd",733,"76.csv","","236","resources/trios/L1T2A3.jpg","39","restless",0.7,0.5,0.3,0.905198060507657,"false"
"image-keyboard-response",115,110616,"0.0-4.34-1.34","k95j0f80yp0wzkd",733,"76.csv","","null","resources/maskTrios/BBA3.jpg","null","",NA,NA,NA,NA,""
"image-keyboard-response",116,111826,"0.0-4.34-2.34","k95j0f80yp0wzkd",733,"76.csv","","null","resources/images/fishbone.png","null","",NA,NA,NA,NA,""
"image-keyboard-response",117,112073,"0.0-4.35-0.35","k95j0f80yp0wzkd",733,"76.csv","","244","resources/trios/L1T2A3.jpg","37","restless",0.8,0.5,0.3,0.123084031779356,"true"
"image-keyboard-response",118,112477,"0.0-4.35-1.35","k95j0f80yp0wzkd",733,"76.csv","","null","resources/maskTrios/L1BB.jpg","null","",NA,NA,NA,NA,""
"image-keyboard-response",119,113697,"0.0-4.35-2.35","k95j0f80yp0wzkd",733,"76.csv","","null","resources/images/coin2.png","null","",NA,NA,NA,NA,""
"image-keyboard-response",120,113833,"0.0-4.36-0.36","k95j0f80yp0wzkd",733,"76.csv","","135","resources/trios/L1T2A3.jpg","37","restless",0.8,0.5,0.3,0.436280214189289,"true"
"image-keyboard-response",121,114237,"0.0-4.36-1.36","k95j0f80yp0wzkd",733,"76.csv","","null","resources/maskTrios/L1BB.jpg","null","",NA,NA,NA,NA,""
"image-keyboard-response",122,115445,"0.0-4.36-2.36","k95j0f80yp0wzkd",733,"76.csv","","null","resources/images/coin2.png","null","",NA,NA,NA,NA,""
"image-keyboard-response",123,115683,"0.0-4.37-0.37","k95j0f80yp0wzkd",733,"76.csv","","237","resources/trios/L1T2A3.jpg","37","restless",0.8,0.5,0.3,0.651859263648944,"true"
"image-keyboard-response",124,116086,"0.0-4.37-1.37","k95j0f80yp0wzkd",733,"76.csv","","null","resources/maskTrios/L1BB.jpg","null","",NA,NA,NA,NA,""
"image-keyboard-response",125,117297,"0.0-4.37-2.37","k95j0f80yp0wzkd",733,"76.csv","","null","resources/images/coin2.png","null","",NA,NA,NA,NA,""
"image-keyboard-response",126,117553,"0.0-4.38-0.38","k95j0f80yp0wzkd",733,"76.csv","","255","resources/trios/L1T2A3.jpg","37","restless",0.7,0.5,0.3,0.183224167507764,"true"
"image-keyboard-response",127,117996,"0.0-4.38-1.38","k95j0f80yp0wzkd",733,"76.csv","","null","resources/maskTrios/L1BB.jpg","null","",NA,NA,NA,NA,""
"image-keyboard-response",128,119215,"0.0-4.38-2.38","k95j0f80yp0wzkd",733,"76.csv","","null","resources/images/coin2.png","null","",NA,NA,NA,NA,""
"image-keyboard-response",129,119467,"0.0-4.39-0.39","k95j0f80yp0wzkd",733,"76.csv","","249","resources/trios/L1T2A3.jpg","37","restless",0.7,0.4,0.3,0.912138251954928,"false"
"image-keyboard-response",130,119886,"0.0-4.39-1.39","k95j0f80yp0wzkd",733,"76.csv","","null","resources/maskTrios/L1BB.jpg","null","",NA,NA,NA,NA,""
"image-keyboard-response",131,121107,"0.0-4.39-2.39","k95j0f80yp0wzkd",733,"76.csv","","null","resources/images/fishbone.png","null","",NA,NA,NA,NA,""
"image-keyboard-response",132,121403,"0.0-4.40-0.40","k95j0f80yp0wzkd",733,"76.csv","","294","resources/trios/L1T2A3.jpg","39","restless",0.7,0.4,0.3,0.786855551728331,"false"
"image-keyboard-response",133,121805,"0.0-4.40-1.40","k95j0f80yp0wzkd",733,"76.csv","","null","resources/maskTrios/BBA3.jpg","null","",NA,NA,NA,NA,""
"image-keyboard-response",134,123025,"0.0-4.40-2.40","k95j0f80yp0wzkd",733,"76.csv","","null","resources/images/fishbone.png","null","",NA,NA,NA,NA,""
"image-keyboard-response",135,123395,"0.0-4.41-0.41","k95j0f80yp0wzkd",733,"76.csv","","366","resources/trios/L1T2A3.jpg","38","restless",0.7,0.4,0.4,0.621283473094118,"false"
"image-keyboard-response",136,123806,"0.0-4.41-1.41","k95j0f80yp0wzkd",733,"76.csv","","null","resources/maskTrios/BT2B.jpg","null","",NA,NA,NA,NA,""
"image-keyboard-response",137,125025,"0.0-4.41-2.41","k95j0f80yp0wzkd",733,"76.csv","","null","resources/images/fishbone.png","null","",NA,NA,NA,NA,""
"image-keyboard-response",138,125259,"0.0-4.42-0.42","k95j0f80yp0wzkd",733,"76.csv","","231","resources/trios/L1T2A3.jpg","39","restless",0.7,0.4,0.4,0.627353314414652,"false"
"image-keyboard-response",139,125666,"0.0-4.42-1.42","k95j0f80yp0wzkd",733,"76.csv","","null","resources/maskTrios/BBA3.jpg","null","",NA,NA,NA,NA,""
"image-keyboard-response",140,126886,"0.0-4.42-2.42","k95j0f80yp0wzkd",733,"76.csv","","null","resources/images/fishbone.png","null","",NA,NA,NA,NA,""
"image-keyboard-response",141,127238,"0.0-4.43-0.43","k95j0f80yp0wzkd",733,"76.csv","","349","resources/trios/L1T2A3.jpg","37","restless",0.7,0.4,0.4,0.726124110364099,"false"
"image-keyboard-response",142,127655,"0.0-4.43-1.43","k95j0f80yp0wzkd",733,"76.csv","","null","resources/maskTrios/L1BB.jpg","null","",NA,NA,NA,NA,""
"image-keyboard-response",143,128876,"0.0-4.43-2.43","k95j0f80yp0wzkd",733,"76.csv","","null","resources/images/fishbone.png","null","",NA,NA,NA,NA,""
"image-keyboard-response",144,129107,"0.0-4.44-0.44","k95j0f80yp0wzkd",733,"76.csv","","229","resources/trios/L1T2A3.jpg","38","restless",0.7,0.4,0.4,0.819721164659096,"false"
"image-keyboard-response",145,129516,"0.0-4.44-1.44","k95j0f80yp0wzkd",733,"76.csv","","null","resources/maskTrios/BT2B.jpg","null","",NA,NA,NA,NA,""
"image-keyboard-response",146,130735,"0.0-4.44-2.44","k95j0f80yp0wzkd",733,"76.csv","","null","resources/images/fishbone.png","null","",NA,NA,NA,NA,""
"image-keyboard-response",147,130982,"0.0-4.45-0.45","k95j0f80yp0wzkd",733,"76.csv","","244","resources/trios/L1T2A3.jpg","38","restless",0.7,0.4,0.4,0.919035825236193,"false"
"image-keyboard-response",148,131396,"0.0-4.45-1.45","k95j0f80yp0wzkd",733,"76.csv","","null","resources/maskTrios/BT2B.jpg","null","",NA,NA,NA,NA,""
"image-keyboard-response",149,132615,"0.0-4.45-2.45","k95j0f80yp0wzkd",733,"76.csv","","null","resources/images/fishbone.png","null","",NA,NA,NA,NA,""
"image-keyboard-response",150,132808,"0.0-4.46-0.46","k95j0f80yp0wzkd",733,"76.csv","","191","resources/trios/L1T2A3.jpg","38","restless",0.7,0.4,0.4,0.556193384558984,"false"
"image-keyboard-response",151,133226,"0.0-4.46-1.46","k95j0f80yp0wzkd",733,"76.csv","","null","resources/maskTrios/BT2B.jpg","null","",NA,NA,NA,NA,""
"image-keyboard-response",152,134447,"0.0-4.46-2.46","k95j0f80yp0wzkd",733,"76.csv","","null","resources/images/fishbone.png","null","",NA,NA,NA,NA,""
"image-keyboard-response",153,134674,"0.0-4.47-0.47","k95j0f80yp0wzkd",733,"76.csv","","226","resources/trios/L1T2A3.jpg","38","restless",0.7,0.4,0.4,0.635516559335846,"false"
"image-keyboard-response",154,135097,"0.0-4.47-1.47","k95j0f80yp0wzkd",733,"76.csv","","null","resources/maskTrios/BT2B.jpg","null","",NA,NA,NA,NA,""
"image-keyboard-response",155,136317,"0.0-4.47-2.47","k95j0f80yp0wzkd",733,"76.csv","","null","resources/images/fishbone.png","null","",NA,NA,NA,NA,""
"image-keyboard-response",156,136418,"0.0-4.48-0.48","k95j0f80yp0wzkd",733,"76.csv","","99","resources/trios/L1T2A3.jpg","39","restless",0.7,0.4,0.4,0.244172373144784,"true"
"image-keyboard-response",157,136836,"0.0-4.48-1.48","k95j0f80yp0wzkd",733,"76.csv","","null","resources/maskTrios/BBA3.jpg","null","",NA,NA,NA,NA,""
"image-keyboard-response",158,138056,"0.0-4.48-2.48","k95j0f80yp0wzkd",733,"76.csv","","null","resources/images/coin2.png","null","",NA,NA,NA,NA,""
"image-keyboard-response",159,138279,"0.0-4.49-0.49","k95j0f80yp0wzkd",733,"76.csv","","220","resources/trios/L1T2A3.jpg","39","restless",0.7,0.5,0.4,0.546029630469463,"false"
"image-keyboard-response",160,138697,"0.0-4.49-1.49","k95j0f80yp0wzkd",733,"76.csv","","null","resources/maskTrios/BBA3.jpg","null","",NA,NA,NA,NA,""
"image-keyboard-response",161,139916,"0.0-4.49-2.49","k95j0f80yp0wzkd",733,"76.csv","","null","resources/images/fishbone.png","null","",NA,NA,NA,NA,""
"image-keyboard-response",162,140105,"0.0-4.50-0.50","k95j0f80yp0wzkd",733,"76.csv","","187","resources/trios/L1T2A3.jpg","38","restless",0.7,0.4,0.4,0.170912359871118,"true"
"image-keyboard-response",163,140516,"0.0-4.50-1.50","k95j0f80yp0wzkd",733,"76.csv","","null","resources/maskTrios/BT2B.jpg","null","",NA,NA,NA,NA,""
"image-keyboard-response",164,141735,"0.0-4.50-2.50","k95j0f80yp0wzkd",733,"76.csv","","null","resources/images/coin2.png","null","",NA,NA,NA,NA,""
"image-keyboard-response",165,142057,"0.0-4.51-0.51","k95j0f80yp0wzkd",733,"76.csv","","321","resources/trios/L1T2A3.jpg","38","restless",0.7,0.4,0.4,0.0153827904113678,"true"
"image-keyboard-response",166,142466,"0.0-4.51-1.51","k95j0f80yp0wzkd",733,"76.csv","","null","resources/maskTrios/BT2B.jpg","null","",NA,NA,NA,NA,""
"image-keyboard-response",167,143686,"0.0-4.51-2.51","k95j0f80yp0wzkd",733,"76.csv","","null","resources/images/coin2.png","null","",NA,NA,NA,NA,""
"image-keyboard-response",168,143880,"0.0-4.52-0.52","k95j0f80yp0wzkd",733,"76.csv","","191","resources/trios/L1T2A3.jpg","38","restless",0.7,0.4,0.4,0.653337619429409,"false"
"image-keyboard-response",169,144286,"0.0-4.52-1.52","k95j0f80yp0wzkd",733,"76.csv","","null","resources/maskTrios/BT2B.jpg","null","",NA,NA,NA,NA,""
"image-keyboard-response",170,145506,"0.0-4.52-2.52","k95j0f80yp0wzkd",733,"76.csv","","null","resources/images/fishbone.png","null","",NA,NA,NA,NA,""
"image-keyboard-response",171,145668,"0.0-4.53-0.53","k95j0f80yp0wzkd",733,"76.csv","","160","resources/trios/L1T2A3.jpg","37","restless",0.7,0.4,0.4,0.973432792569504,"false"
"image-keyboard-response",172,146085,"0.0-4.53-1.53","k95j0f80yp0wzkd",733,"76.csv","","null","resources/maskTrios/L1BB.jpg","null","",NA,NA,NA,NA,""
"image-keyboard-response",173,147306,"0.0-4.53-2.53","k95j0f80yp0wzkd",733,"76.csv","","null","resources/images/fishbone.png","null","",NA,NA,NA,NA,""
"image-keyboard-response",174,147450,"0.0-4.54-0.54","k95j0f80yp0wzkd",733,"76.csv","","141","resources/trios/L1T2A3.jpg","38","restless",0.7,0.4,0.4,0.386505612612074,"true"
"image-keyboard-response",175,147866,"0.0-4.54-1.54","k95j0f80yp0wzkd",733,"76.csv","","null","resources/maskTrios/BT2B.jpg","null","",NA,NA,NA,NA,""
"image-keyboard-response",176,149076,"0.0-4.54-2.54","k95j0f80yp0wzkd",733,"76.csv","","null","resources/images/coin2.png","null","",NA,NA,NA,NA,""
"image-keyboard-response",177,149259,"0.0-4.55-0.55","k95j0f80yp0wzkd",733,"76.csv","","181","resources/trios/L1T2A3.jpg","38","restless",0.7,0.4,0.4,0.295618115646513,"true"
"image-keyboard-response",178,149675,"0.0-4.55-1.55","k95j0f80yp0wzkd",733,"76.csv","","null","resources/maskTrios/BT2B.jpg","null","",NA,NA,NA,NA,""
"image-keyboard-response",179,150887,"0.0-4.55-2.55","k95j0f80yp0wzkd",733,"76.csv","","null","resources/images/coin2.png","null","",NA,NA,NA,NA,""
"image-keyboard-response",180,151113,"0.0-4.56-0.56","k95j0f80yp0wzkd",733,"76.csv","","223","resources/trios/L1T2A3.jpg","38","restless",0.7,0.4,0.4,0.868517336784004,"false"
"image-keyboard-response",181,151525,"0.0-4.56-1.56","k95j0f80yp0wzkd",733,"76.csv","","null","resources/maskTrios/BT2B.jpg","null","",NA,NA,NA,NA,""
"image-keyboard-response",182,152741,"0.0-4.56-2.56","k95j0f80yp0wzkd",733,"76.csv","","null","resources/images/fishbone.png","null","",NA,NA,NA,NA,""
"image-keyboard-response",183,152951,"0.0-4.57-0.57","k95j0f80yp0wzkd",733,"76.csv","","208","resources/trios/L1T2A3.jpg","39","restless",0.7,0.4,0.4,0.0957471655776864,"true"
"image-keyboard-response",184,153355,"0.0-4.57-1.57","k95j0f80yp0wzkd",733,"76.csv","","null","resources/maskTrios/BBA3.jpg","null","",NA,NA,NA,NA,""
"image-keyboard-response",185,154576,"0.0-4.57-2.57","k95j0f80yp0wzkd",733,"76.csv","","null","resources/images/coin2.png","null","",NA,NA,NA,NA,""
"image-keyboard-response",186,154753,"0.0-4.58-0.58","k95j0f80yp0wzkd",733,"76.csv","","175","resources/trios/L1T2A3.jpg","39","restless",0.7,0.4,0.4,0.818626554225126,"false"
"image-keyboard-response",187,155157,"0.0-4.58-1.58","k95j0f80yp0wzkd",733,"76.csv","","null","resources/maskTrios/BBA3.jpg","null","",NA,NA,NA,NA,""
"image-keyboard-response",188,156376,"0.0-4.58-2.58","k95j0f80yp0wzkd",733,"76.csv","","null","resources/images/fishbone.png","null","",NA,NA,NA,NA,""
"image-keyboard-response",189,156667,"0.0-4.59-0.59","k95j0f80yp0wzkd",733,"76.csv","","289","resources/trios/L1T2A3.jpg","37","restless",0.6,0.4,0.4,0.800895497409466,"false"
"image-keyboard-response",190,157076,"0.0-4.59-1.59","k95j0f80yp0wzkd",733,"76.csv","","null","resources/maskTrios/L1BB.jpg","null","",NA,NA,NA,NA,""
"image-keyboard-response",191,158296,"0.0-4.59-2.59","k95j0f80yp0wzkd",733,"76.csv","","null","resources/images/fishbone.png","null","",NA,NA,NA,NA,""
"image-keyboard-response",192,158549,"0.0-4.60-0.60","k95j0f80yp0wzkd",733,"76.csv","","251","resources/trios/L1T2A3.jpg","37","restless",0.6,0.4,0.4,0.368048196069507,"true"
"image-keyboard-response",193,158966,"0.0-4.60-1.60","k95j0f80yp0wzkd",733,"76.csv","","null","resources/maskTrios/L1BB.jpg","null","",NA,NA,NA,NA,""
"image-keyboard-response",194,160187,"0.0-4.60-2.60","k95j0f80yp0wzkd",733,"76.csv","","null","resources/images/coin2.png","null","",NA,NA,NA,NA,""
"image-keyboard-response",195,160442,"0.0-4.61-0.61","k95j0f80yp0wzkd",733,"76.csv","","253","resources/trios/L1T2A3.jpg","37","restless",0.6,0.4,0.4,0.631071883340848,"false"
"image-keyboard-response",196,160846,"0.0-4.61-1.61","k95j0f80yp0wzkd",733,"76.csv","","null","resources/maskTrios/L1BB.jpg","null","",NA,NA,NA,NA,""
"image-keyboard-response",197,162065,"0.0-4.61-2.61","k95j0f80yp0wzkd",733,"76.csv","","null","resources/images/fishbone.png","null","",NA,NA,NA,NA,""
"image-keyboard-response",198,162280,"0.0-4.62-0.62","k95j0f80yp0wzkd",733,"76.csv","","212","resources/trios/L1T2A3.jpg","38","restless",0.6,0.4,0.3,0.351642976507832,"true"
"image-keyboard-response",199,162686,"0.0-4.62-1.62","k95j0f80yp0wzkd",733,"76.csv","","null","resources/maskTrios/BT2B.jpg","null","",NA,NA,NA,NA,""
"image-keyboard-response",200,163897,"0.0-4.62-2.62","k95j0f80yp0wzkd",733,"76.csv","","null","resources/images/coin2.png","null","",NA,NA,NA,NA,""
"image-keyboard-response",201,164229,"0.0-4.63-0.63","k95j0f80yp0wzkd",733,"76.csv","","330","resources/trios/L1T2A3.jpg","38","restless",0.5,0.4,0.3,0.170953911356346,"true"
"image-keyboard-response",202,164636,"0.0-4.63-1.63","k95j0f80yp0wzkd",733,"76.csv","","null","resources/maskTrios/BT2B.jpg","null","",NA,NA,NA,NA,""
"image-keyboard-response",203,165907,"0.0-4.63-2.63","k95j0f80yp0wzkd",733,"76.csv","","null","resources/images/coin2.png","null","",NA,NA,NA,NA,""
"image-keyboard-response",204,166258,"0.0-4.64-0.64","k95j0f80yp0wzkd",733,"76.csv","","349","resources/trios/L1T2A3.jpg","38","restless",0.5,0.4,0.3,0.0354727095287283,"true"
"image-keyboard-response",205,166678,"0.0-4.64-1.64","k95j0f80yp0wzkd",733,"76.csv","","null","resources/maskTrios/BT2B.jpg","null","",NA,NA,NA,NA,""
"image-keyboard-response",206,167938,"0.0-4.64-2.64","k95j0f80yp0wzkd",733,"76.csv","","null","resources/images/coin2.png","null","",NA,NA,NA,NA,""
"image-keyboard-response",207,168170,"0.0-4.65-0.65","k95j0f80yp0wzkd",733,"76.csv","","230","resources/trios/L1T2A3.jpg","38","restless",0.6,0.4,0.3,0.998116590894843,"false"
"image-keyboard-response",208,168586,"0.0-4.65-1.65","k95j0f80yp0wzkd",733,"76.csv","","null","resources/maskTrios/BT2B.jpg","null","",NA,NA,NA,NA,""
"image-keyboard-response",209,169806,"0.0-4.65-2.65","k95j0f80yp0wzkd",733,"76.csv","","null","resources/images/fishbone.png","null","",NA,NA,NA,NA,""
"image-keyboard-response",210,170040,"0.0-4.66-0.66","k95j0f80yp0wzkd",733,"76.csv","","233","resources/trios/L1T2A3.jpg","39","restless",0.6,0.4,0.3,0.271273079355493,"true"
"image-keyboard-response",211,170446,"0.0-4.66-1.66","k95j0f80yp0wzkd",733,"76.csv","","null","resources/maskTrios/BBA3.jpg","null","",NA,NA,NA,NA,""
"image-keyboard-response",212,171665,"0.0-4.66-2.66","k95j0f80yp0wzkd",733,"76.csv","","null","resources/images/coin2.png","null","",NA,NA,NA,NA,""
"image-keyboard-response",213,171874,"0.0-4.67-0.67","k95j0f80yp0wzkd",733,"76.csv","","205","resources/trios/L1T2A3.jpg","39","restless",0.6,0.4,0.3,0.910744840127973,"false"
"image-keyboard-response",214,172286,"0.0-4.67-1.67","k95j0f80yp0wzkd",733,"76.csv","","null","resources/maskTrios/BBA3.jpg","null","",NA,NA,NA,NA,""
"image-keyboard-response",215,173505,"0.0-4.67-2.67","k95j0f80yp0wzkd",733,"76.csv","","null","resources/images/fishbone.png","null","",NA,NA,NA,NA,""
"image-keyboard-response",216,173750,"0.0-4.68-0.68","k95j0f80yp0wzkd",733,"76.csv","","242","resources/trios/L1T2A3.jpg","37","restless",0.6,0.4,0.3,0.581593610077316,"true"
"image-keyboard-response",217,174195,"0.0-4.68-1.68","k95j0f80yp0wzkd",733,"76.csv","","null","resources/maskTrios/L1BB.jpg","null","",NA,NA,NA,NA,""
"image-keyboard-response",218,175416,"0.0-4.68-2.68","k95j0f80yp0wzkd",733,"76.csv","","null","resources/images/coin2.png","null","",NA,NA,NA,NA,""
"image-keyboard-response",219,175676,"0.0-4.69-0.69","k95j0f80yp0wzkd",733,"76.csv","","258","resources/trios/L1T2A3.jpg","37","restless",0.6,0.4,0.3,0.670211267958449,"false"
"image-keyboard-response",220,176095,"0.0-4.69-1.69","k95j0f80yp0wzkd",733,"76.csv","","null","resources/maskTrios/L1BB.jpg","null","",NA,NA,NA,NA,""
"image-keyboard-response",221,177315,"0.0-4.69-2.69","k95j0f80yp0wzkd",733,"76.csv","","null","resources/images/fishbone.png","null","",NA,NA,NA,NA,""
"image-keyboard-response",222,177649,"0.0-4.70-0.70","k95j0f80yp0wzkd",733,"76.csv","","331","resources/trios/L1T2A3.jpg","38","restless",0.5,0.4,0.3,0.668731766689078,"false"
"image-keyboard-response",223,178057,"0.0-4.70-1.70","k95j0f80yp0wzkd",733,"76.csv","","null","resources/maskTrios/BT2B.jpg","null","",NA,NA,NA,NA,""
"image-keyboard-response",224,179275,"0.0-4.70-2.70","k95j0f80yp0wzkd",733,"76.csv","","null","resources/images/fishbone.png","null","",NA,NA,NA,NA,""
"image-keyboard-response",225,179418,"0.0-4.71-0.71","k95j0f80yp0wzkd",733,"76.csv","","141","resources/trios/L1T2A3.jpg","37","restless",0.5,0.4,0.3,0.0407078929547343,"true"
"image-keyboard-response",226,179826,"0.0-4.71-1.71","k95j0f80yp0wzkd",733,"76.csv","","null","resources/maskTrios/L1BB.jpg","null","",NA,NA,NA,NA,""
"image-keyboard-response",227,181037,"0.0-4.71-2.71","k95j0f80yp0wzkd",733,"76.csv","","null","resources/images/coin2.png","null","",NA,NA,NA,NA,""
"image-keyboard-response",228,181198,"0.0-4.72-0.72","k95j0f80yp0wzkd",733,"76.csv","","160","resources/trios/L1T2A3.jpg","37","restless",0.5,0.4,0.3,0.637504073877582,"false"
"image-keyboard-response",229,181616,"0.0-4.72-1.72","k95j0f80yp0wzkd",733,"76.csv","","null","resources/maskTrios/L1BB.jpg","null","",NA,NA,NA,NA,""
"image-keyboard-response",230,182837,"0.0-4.72-2.72","k95j0f80yp0wzkd",733,"76.csv","","null","resources/images/fishbone.png","null","",NA,NA,NA,NA,""
"image-keyboard-response",231,182917,"0.0-4.73-0.73","k95j0f80yp0wzkd",733,"76.csv","","77","resources/trios/L1T2A3.jpg","39","restless",0.5,0.4,0.3,0.946391470711071,"false"
"image-keyboard-response",232,183335,"0.0-4.73-1.73","k95j0f80yp0wzkd",733,"76.csv","","null","resources/maskTrios/BBA3.jpg","null","",NA,NA,NA,NA,""
"image-keyboard-response",233,184556,"0.0-4.73-2.73","k95j0f80yp0wzkd",733,"76.csv","","null","resources/images/fishbone.png","null","",NA,NA,NA,NA,""
"image-keyboard-response",234,184573,"0.0-4.74-0.74","k95j0f80yp0wzkd",733,"76.csv","","15","resources/trios/L1T2A3.jpg","38","restless",0.5,0.4,0.4,0.699953398723845,"false"
"image-keyboard-response",235,184976,"0.0-4.74-1.74","k95j0f80yp0wzkd",733,"76.csv","","null","resources/maskTrios/BT2B.jpg","null","",NA,NA,NA,NA,""
"image-keyboard-response",236,186191,"0.0-4.74-2.74","k95j0f80yp0wzkd",733,"76.csv","","null","resources/images/fishbone.png","null","",NA,NA,NA,NA,""
"image-keyboard-response",237,186342,"0.0-4.75-0.75","k95j0f80yp0wzkd",733,"76.csv","","151","resources/trios/L1T2A3.jpg","39","restless",0.5,0.4,0.4,0.425342716497925,"false"
"image-keyboard-response",238,186756,"0.0-4.75-1.75","k95j0f80yp0wzkd",733,"76.csv","","null","resources/maskTrios/BBA3.jpg","null","",NA,NA,NA,NA,""
"image-keyboard-response",239,187976,"0.0-4.75-2.75","k95j0f80yp0wzkd",733,"76.csv","","null","resources/images/fishbone.png","null","",NA,NA,NA,NA,""
"image-keyboard-response",240,188133,"0.0-4.76-0.76","k95j0f80yp0wzkd",733,"76.csv","","154","resources/trios/L1T2A3.jpg","39","restless",0.5,0.4,0.4,0.733956332720257,"false"
"image-keyboard-response",241,188546,"0.0-4.76-1.76","k95j0f80yp0wzkd",733,"76.csv","","null","resources/maskTrios/BBA3.jpg","null","",NA,NA,NA,NA,""
"image-keyboard-response",242,189766,"0.0-4.76-2.76","k95j0f80yp0wzkd",733,"76.csv","","null","resources/images/fishbone.png","null","",NA,NA,NA,NA,""
"image-keyboard-response",243,190010,"0.0-4.77-0.77","k95j0f80yp0wzkd",733,"76.csv","","241","resources/trios/L1T2A3.jpg","38","restless",0.5,0.4,0.4,0.460459198776459,"false"
"image-keyboard-response",244,190427,"0.0-4.77-1.77","k95j0f80yp0wzkd",733,"76.csv","","null","resources/maskTrios/BT2B.jpg","null","",NA,NA,NA,NA,""
"image-keyboard-response",245,191645,"0.0-4.77-2.77","k95j0f80yp0wzkd",733,"76.csv","","null","resources/images/fishbone.png","null","",NA,NA,NA,NA,""
"image-keyboard-response",246,191897,"0.0-4.78-0.78","k95j0f80yp0wzkd",733,"76.csv","","247","resources/trios/L1T2A3.jpg","37","restless",0.5,0.4,0.4,0.830831129148903,"false"
"image-keyboard-response",247,192306,"0.0-4.78-1.78","k95j0f80yp0wzkd",733,"76.csv","","null","resources/maskTrios/L1BB.jpg","null","",NA,NA,NA,NA,""
"image-keyboard-response",248,193526,"0.0-4.78-2.78","k95j0f80yp0wzkd",733,"76.csv","","null","resources/images/fishbone.png","null","",NA,NA,NA,NA,""
"image-keyboard-response",249,193644,"0.0-4.79-0.79","k95j0f80yp0wzkd",733,"76.csv","","115","resources/trios/L1T2A3.jpg","37","restless",0.6,0.4,0.5,0.159671127182567,"true"
"image-keyboard-response",250,194046,"0.0-4.79-1.79","k95j0f80yp0wzkd",733,"76.csv","","null","resources/maskTrios/L1BB.jpg","null","",NA,NA,NA,NA,""
"image-keyboard-response",251,195366,"0.0-4.79-2.79","k95j0f80yp0wzkd",733,"76.csv","","null","resources/images/coin2.png","null","",NA,NA,NA,NA,""
"image-keyboard-response",252,195440,"0.0-4.80-0.80","k95j0f80yp0wzkd",733,"76.csv","","72","resources/trios/L1T2A3.jpg","37","restless",0.6,0.4,0.5,0.093691003112083,"true"
"image-keyboard-response",253,195845,"0.0-4.80-1.80","k95j0f80yp0wzkd",733,"76.csv","","null","resources/maskTrios/L1BB.jpg","null","",NA,NA,NA,NA,""
"image-keyboard-response",254,197057,"0.0-4.80-2.80","k95j0f80yp0wzkd",733,"76.csv","","null","resources/images/coin2.png","null","",NA,NA,NA,NA,""
"image-keyboard-response",255,197303,"0.0-4.81-0.81","k95j0f80yp0wzkd",733,"76.csv","","243","resources/trios/L1T2A3.jpg","37","restless",0.6,0.4,0.5,0.51364325609406,"true"
"image-keyboard-response",256,197718,"0.0-4.81-1.81","k95j0f80yp0wzkd",733,"76.csv","","null","resources/maskTrios/L1BB.jpg","null","",NA,NA,NA,NA,""
"image-keyboard-response",257,198926,"0.0-4.81-2.81","k95j0f80yp0wzkd",733,"76.csv","","null","resources/images/coin2.png","null","",NA,NA,NA,NA,""
"image-keyboard-response",258,199160,"0.0-4.82-0.82","k95j0f80yp0wzkd",733,"76.csv","","232","resources/trios/L1T2A3.jpg","37","restless",0.7,0.4,0.5,0.556847129605234,"true"
"image-keyboard-response",259,199567,"0.0-4.82-1.82","k95j0f80yp0wzkd",733,"76.csv","","null","resources/maskTrios/L1BB.jpg","null","",NA,NA,NA,NA,""
"image-keyboard-response",260,200786,"0.0-4.82-2.82","k95j0f80yp0wzkd",733,"76.csv","","null","resources/images/coin2.png","null","",NA,NA,NA,NA,""
"image-keyboard-response",261,201015,"0.0-4.83-0.83","k95j0f80yp0wzkd",733,"76.csv","","228","resources/trios/L1T2A3.jpg","37","restless",0.7,0.4,0.5,0.0192510844882161,"true"
"image-keyboard-response",262,201427,"0.0-4.83-1.83","k95j0f80yp0wzkd",733,"76.csv","","null","resources/maskTrios/L1BB.jpg","null","",NA,NA,NA,NA,""
"image-keyboard-response",263,202638,"0.0-4.83-2.83","k95j0f80yp0wzkd",733,"76.csv","","null","resources/images/coin2.png","null","",NA,NA,NA,NA,""
"image-keyboard-response",264,202880,"0.0-4.84-0.84","k95j0f80yp0wzkd",733,"76.csv","","239","resources/trios/L1T2A3.jpg","37","restless",0.7,0.4,0.5,0.859515195055048,"false"
"image-keyboard-response",265,203286,"0.0-4.84-1.84","k95j0f80yp0wzkd",733,"76.csv","","null","resources/maskTrios/L1BB.jpg","null","",NA,NA,NA,NA,""
"image-keyboard-response",266,204507,"0.0-4.84-2.84","k95j0f80yp0wzkd",733,"76.csv","","null","resources/images/fishbone.png","null","",NA,NA,NA,NA,""
"image-keyboard-response",267,204723,"0.0-4.85-0.85","k95j0f80yp0wzkd",733,"76.csv","","215","resources/trios/L1T2A3.jpg","39","restless",0.7,0.4,0.5,0.478128505508104,"true"
"image-keyboard-response",268,205136,"0.0-4.85-1.85","k95j0f80yp0wzkd",733,"76.csv","","null","resources/maskTrios/BBA3.jpg","null","",NA,NA,NA,NA,""
"image-keyboard-response",269,206346,"0.0-4.85-2.85","k95j0f80yp0wzkd",733,"76.csv","","null","resources/images/coin2.png","null","",NA,NA,NA,NA,""
"image-keyboard-response",270,206393,"0.0-4.86-0.86","k95j0f80yp0wzkd",733,"76.csv","","45","resources/trios/L1T2A3.jpg","39","restless",0.7,0.4,0.5,0.703017038359063,"false"
"image-keyboard-response",271,206795,"0.0-4.86-1.86","k95j0f80yp0wzkd",733,"76.csv","","null","resources/maskTrios/BBA3.jpg","null","",NA,NA,NA,NA,""
"image-keyboard-response",272,208006,"0.0-4.86-2.86","k95j0f80yp0wzkd",733,"76.csv","","null","resources/images/fishbone.png","null","",NA,NA,NA,NA,""
"image-keyboard-response",273,208119,"0.0-4.87-0.87","k95j0f80yp0wzkd",733,"76.csv","","110","resources/trios/L1T2A3.jpg","38","restless",0.7,0.4,0.5,0.785044854053864,"false"
"image-keyboard-response",274,208526,"0.0-4.87-1.87","k95j0f80yp0wzkd",733,"76.csv","","null","resources/maskTrios/BT2B.jpg","null","",NA,NA,NA,NA,""
"image-keyboard-response",275,209747,"0.0-4.87-2.87","k95j0f80yp0wzkd",733,"76.csv","","null","resources/images/fishbone.png","null","",NA,NA,NA,NA,""
"image-keyboard-response",276,209794,"0.0-4.88-0.88","k95j0f80yp0wzkd",733,"76.csv","","46","resources/trios/L1T2A3.jpg","38","restless",0.7,0.4,0.5,0.911128816378088,"false"
"image-keyboard-response",277,210206,"0.0-4.88-1.88","k95j0f80yp0wzkd",733,"76.csv","","null","resources/maskTrios/BT2B.jpg","null","",NA,NA,NA,NA,""
"image-keyboard-response",278,211417,"0.0-4.88-2.88","k95j0f80yp0wzkd",733,"76.csv","","null","resources/images/fishbone.png","null","",NA,NA,NA,NA,""
"image-keyboard-response",279,211473,"0.0-4.89-0.89","k95j0f80yp0wzkd",733,"76.csv","","55","resources/trios/L1T2A3.jpg","37","restless",0.7,0.4,0.5,0.9467560983019,"false"
"image-keyboard-response",280,211876,"0.0-4.89-1.89","k95j0f80yp0wzkd",733,"76.csv","","null","resources/maskTrios/L1BB.jpg","null","",NA,NA,NA,NA,""
"image-keyboard-response",281,213096,"0.0-4.89-2.89","k95j0f80yp0wzkd",733,"76.csv","","null","resources/images/fishbone.png","null","",NA,NA,NA,NA,""
"image-keyboard-response",282,213199,"0.0-4.90-0.90","k95j0f80yp0wzkd",733,"76.csv","","99","resources/trios/L1T2A3.jpg","39","restless",0.7,0.4,0.5,0.528456091756034,"false"
"image-keyboard-response",283,213656,"0.0-4.90-1.90","k95j0f80yp0wzkd",733,"76.csv","","null","resources/maskTrios/BBA3.jpg","null","",NA,NA,NA,NA,""
"image-keyboard-response",284,214876,"0.0-4.90-2.90","k95j0f80yp0wzkd",733,"76.csv","","null","resources/images/fishbone.png","null","",NA,NA,NA,NA,""
"image-keyboard-response",285,214943,"0.0-4.91-0.91","k95j0f80yp0wzkd",733,"76.csv","","64","resources/trios/L1T2A3.jpg","38","restless",0.7,0.4,0.5,0.973121472346137,"false"
"image-keyboard-response",286,215356,"0.0-4.91-1.91","k95j0f80yp0wzkd",733,"76.csv","","null","resources/maskTrios/BT2B.jpg","null","",NA,NA,NA,NA,""
"image-keyboard-response",287,216576,"0.0-4.91-2.91","k95j0f80yp0wzkd",733,"76.csv","","null","resources/images/fishbone.png","null","",NA,NA,NA,NA,""
"image-keyboard-response",288,216787,"0.0-4.92-0.92","k95j0f80yp0wzkd",733,"76.csv","","209","resources/trios/L1T2A3.jpg","38","restless",0.7,0.4,0.5,0.371627717855091,"true"
"image-keyboard-response",289,217196,"0.0-4.92-1.92","k95j0f80yp0wzkd",733,"76.csv","","null","resources/maskTrios/BT2B.jpg","null","",NA,NA,NA,NA,""
"image-keyboard-response",290,218407,"0.0-4.92-2.92","k95j0f80yp0wzkd",733,"76.csv","","null","resources/images/coin2.png","null","",NA,NA,NA,NA,""
"image-keyboard-response",291,218628,"0.0-4.93-0.93","k95j0f80yp0wzkd",733,"76.csv","","220","resources/trios/L1T2A3.jpg","38","restless",0.7,0.4,0.5,0.176560698046495,"true"
"image-keyboard-response",292,219036,"0.0-4.93-1.93","k95j0f80yp0wzkd",733,"76.csv","","null","resources/maskTrios/BT2B.jpg","null","",NA,NA,NA,NA,""
"image-keyboard-response",293,220255,"0.0-4.93-2.93","k95j0f80yp0wzkd",733,"76.csv","","null","resources/images/coin2.png","null","",NA,NA,NA,NA,""
"image-keyboard-response",294,220359,"0.0-4.94-0.94","k95j0f80yp0wzkd",733,"76.csv","","103","resources/trios/L1T2A3.jpg","38","restless",0.7,0.5,0.5,0.58726572889589,"false"
"image-keyboard-response",295,220766,"0.0-4.94-1.94","k95j0f80yp0wzkd",733,"76.csv","","null","resources/maskTrios/BT2B.jpg","null","",NA,NA,NA,NA,""
"image-keyboard-response",296,221987,"0.0-4.94-2.94","k95j0f80yp0wzkd",733,"76.csv","","null","resources/images/fishbone.png","null","",NA,NA,NA,NA,""
"image-keyboard-response",297,222264,"0.0-4.95-0.95","k95j0f80yp0wzkd",733,"76.csv","","274","resources/trios/L1T2A3.jpg","39","restless",0.7,0.5,0.5,0.20166033214382,"true"
"image-keyboard-response",298,222686,"0.0-4.95-1.95","k95j0f80yp0wzkd",733,"76.csv","","null","resources/maskTrios/BBA3.jpg","null","",NA,NA,NA,NA,""
"image-keyboard-response",299,223898,"0.0-4.95-2.95","k95j0f80yp0wzkd",733,"76.csv","","null","resources/images/coin2.png","null","",NA,NA,NA,NA,""
"image-keyboard-response",300,224113,"0.0-4.96-0.96","k95j0f80yp0wzkd",733,"76.csv","","213","resources/trios/L1T2A3.jpg","39","restless",0.7,0.5,0.5,0.951797647972686,"false"
"image-keyboard-response",301,224516,"0.0-4.96-1.96","k95j0f80yp0wzkd",733,"76.csv","","null","resources/maskTrios/BBA3.jpg","null","",NA,NA,NA,NA,""
"image-keyboard-response",302,225737,"0.0-4.96-2.96","k95j0f80yp0wzkd",733,"76.csv","","null","resources/images/fishbone.png","null","",NA,NA,NA,NA,""
"image-keyboard-response",303,225922,"0.0-4.97-0.97","k95j0f80yp0wzkd",733,"76.csv","","183","resources/trios/L1T2A3.jpg","37","restless",0.7,0.5,0.5,0.372563017569914,"true"
"image-keyboard-response",304,226337,"0.0-4.97-1.97","k95j0f80yp0wzkd",733,"76.csv","","null","resources/maskTrios/L1BB.jpg","null","",NA,NA,NA,NA,""
"image-keyboard-response",305,227551,"0.0-4.97-2.97","k95j0f80yp0wzkd",733,"76.csv","","null","resources/images/coin2.png","null","",NA,NA,NA,NA,""
"image-keyboard-response",306,227569,"0.0-4.98-0.98","k95j0f80yp0wzkd",733,"76.csv","","17","resources/trios/L1T2A3.jpg","37","restless",0.7,0.5,0.5,0.684987013867256,"true"
"image-keyboard-response",307,227985,"0.0-4.98-1.98","k95j0f80yp0wzkd",733,"76.csv","","null","resources/maskTrios/L1BB.jpg","null","",NA,NA,NA,NA,""
"image-keyboard-response",308,229207,"0.0-4.98-2.98","k95j0f80yp0wzkd",733,"76.csv","","null","resources/images/coin2.png","null","",NA,NA,NA,NA,""
"image-keyboard-response",309,229530,"0.0-4.99-0.99","k95j0f80yp0wzkd",733,"76.csv","","322","resources/trios/L1T2A3.jpg","37","restless",0.7,0.5,0.5,0.523283971274161,"true"
"image-keyboard-response",310,229947,"0.0-4.99-1.99","k95j0f80yp0wzkd",733,"76.csv","","null","resources/maskTrios/L1BB.jpg","null","",NA,NA,NA,NA,""
"image-keyboard-response",311,231167,"0.0-4.99-2.99","k95j0f80yp0wzkd",733,"76.csv","","null","resources/images/coin2.png","null","",NA,NA,NA,NA,""
"image-keyboard-response",312,231369,"0.0-4.100-0.100","k95j0f80yp0wzkd",733,"76.csv","","200","resources/trios/L1T2A3.jpg","37","restless",0.7,0.5,0.5,0.0454404481346553,"true"
"image-keyboard-response",313,231776,"0.0-4.100-1.100","k95j0f80yp0wzkd",733,"76.csv","","null","resources/maskTrios/L1BB.jpg","null","",NA,NA,NA,NA,""
"image-keyboard-response",314,232997,"0.0-4.100-2.100","k95j0f80yp0wzkd",733,"76.csv","","null","resources/images/coin2.png","null","",NA,NA,NA,NA,""
"image-keyboard-response",315,233245,"0.0-4.101-0.101","k95j0f80yp0wzkd",733,"76.csv","","247","resources/trios/L1T2A3.jpg","37","restless",0.7,0.5,0.5,0.0292058977146608,"true"
"image-keyboard-response",316,233656,"0.0-4.101-1.101","k95j0f80yp0wzkd",733,"76.csv","","null","resources/maskTrios/L1BB.jpg","null","",NA,NA,NA,NA,""
"image-keyboard-response",317,234876,"0.0-4.101-2.101","k95j0f80yp0wzkd",733,"76.csv","","null","resources/images/coin2.png","null","",NA,NA,NA,NA,""
"image-keyboard-response",318,235253,"0.0-4.102-0.102","k95j0f80yp0wzkd",733,"76.csv","","373","resources/trios/L1T2A3.jpg","37","restless",0.7,0.5,0.5,0.272988364519473,"true"
"image-keyboard-response",319,235666,"0.0-4.102-1.102","k95j0f80yp0wzkd",733,"76.csv","","null","resources/maskTrios/L1BB.jpg","null","",NA,NA,NA,NA,""
"image-keyboard-response",320,236886,"0.0-4.102-2.102","k95j0f80yp0wzkd",733,"76.csv","","null","resources/images/coin2.png","null","",NA,NA,NA,NA,""
"image-keyboard-response",321,237593,"0.0-4.103-0.103","k95j0f80yp0wzkd",733,"76.csv","","705","resources/trios/L1T2A3.jpg","39","restless",0.6,0.5,0.4,0.187790660158054,"true"
"image-keyboard-response",322,238006,"0.0-4.103-1.103","k95j0f80yp0wzkd",733,"76.csv","","null","resources/maskTrios/BBA3.jpg","null","",NA,NA,NA,NA,""
"image-keyboard-response",323,239226,"0.0-4.103-2.103","k95j0f80yp0wzkd",733,"76.csv","","null","resources/images/coin2.png","null","",NA,NA,NA,NA,""
"image-keyboard-response",324,239519,"0.0-4.104-0.104","k95j0f80yp0wzkd",733,"76.csv","","290","resources/trios/L1T2A3.jpg","38","restless",0.6,0.5,0.4,0.408321814814831,"true"
"image-keyboard-response",325,239927,"0.0-4.104-1.104","k95j0f80yp0wzkd",733,"76.csv","","null","resources/maskTrios/BT2B.jpg","null","",NA,NA,NA,NA,""
"image-keyboard-response",326,241148,"0.0-4.104-2.104","k95j0f80yp0wzkd",733,"76.csv","","null","resources/images/coin2.png","null","",NA,NA,NA,NA,""
"image-keyboard-response",327,241412,"0.0-4.105-0.105","k95j0f80yp0wzkd",733,"76.csv","","261","resources/trios/L1T2A3.jpg","39","restless",0.6,0.5,0.4,0.107424095443851,"true"
"image-keyboard-response",328,241826,"0.0-4.105-1.105","k95j0f80yp0wzkd",733,"76.csv","","null","resources/maskTrios/BBA3.jpg","null","",NA,NA,NA,NA,""
"image-keyboard-response",329,243047,"0.0-4.105-2.105","k95j0f80yp0wzkd",733,"76.csv","","null","resources/images/coin2.png","null","",NA,NA,NA,NA,""
"image-keyboard-response",330,243344,"0.0-4.106-0.106","k95j0f80yp0wzkd",733,"76.csv","","295","resources/trios/L1T2A3.jpg","37","restless",0.5,0.5,0.4,0.796409719964908,"false"
"image-keyboard-response",331,243766,"0.0-4.106-1.106","k95j0f80yp0wzkd",733,"76.csv","","null","resources/maskTrios/L1BB.jpg","null","",NA,NA,NA,NA,""
"image-keyboard-response",332,244978,"0.0-4.106-2.106","k95j0f80yp0wzkd",733,"76.csv","","null","resources/images/fishbone.png","null","",NA,NA,NA,NA,""
"image-keyboard-response",333,245240,"0.0-4.107-0.107","k95j0f80yp0wzkd",733,"76.csv","","261","resources/trios/L1T2A3.jpg","37","restless",0.5,0.5,0.4,0.802660508374697,"false"
"image-keyboard-response",334,245656,"0.0-4.107-1.107","k95j0f80yp0wzkd",733,"76.csv","","null","resources/maskTrios/L1BB.jpg","null","",NA,NA,NA,NA,""
"image-keyboard-response",335,246875,"0.0-4.107-2.107","k95j0f80yp0wzkd",733,"76.csv","","null","resources/images/fishbone.png","null","",NA,NA,NA,NA,""
"image-keyboard-response",336,246895,"0.0-4.108-0.108","k95j0f80yp0wzkd",733,"76.csv","","12","resources/trios/L1T2A3.jpg","37","restless",0.5,0.5,0.4,0.0881203673726683,"true"
"image-keyboard-response",337,247316,"0.0-4.108-1.108","k95j0f80yp0wzkd",733,"76.csv","","null","resources/maskTrios/L1BB.jpg","null","",NA,NA,NA,NA,""
"image-keyboard-response",338,248538,"0.0-4.108-2.108","k95j0f80yp0wzkd",733,"76.csv","","null","resources/images/coin2.png","null","",NA,NA,NA,NA,""
"image-keyboard-response",339,248889,"0.0-4.109-0.109","k95j0f80yp0wzkd",733,"76.csv","","349","resources/trios/L1T2A3.jpg","37","restless",0.5,0.5,0.4,0.593664093930533,"false"
"image-keyboard-response",340,249307,"0.0-4.109-1.109","k95j0f80yp0wzkd",733,"76.csv","","null","resources/maskTrios/L1BB.jpg","null","",NA,NA,NA,NA,""
"image-keyboard-response",341,250516,"0.0-4.109-2.109","k95j0f80yp0wzkd",733,"76.csv","","null","resources/images/fishbone.png","null","",NA,NA,NA,NA,""
"image-keyboard-response",342,250763,"0.0-4.110-0.110","k95j0f80yp0wzkd",733,"76.csv","","243","resources/trios/L1T2A3.jpg","37","restless",0.5,0.4,0.4,0.904309702886979,"false"
"image-keyboard-response",343,251165,"0.0-4.110-1.110","k95j0f80yp0wzkd",733,"76.csv","","null","resources/maskTrios/L1BB.jpg","null","",NA,NA,NA,NA,""
"image-keyboard-response",344,252386,"0.0-4.110-2.110","k95j0f80yp0wzkd",733,"76.csv","","null","resources/images/fishbone.png","null","",NA,NA,NA,NA,""
"image-keyboard-response",345,252729,"0.0-4.111-0.111","k95j0f80yp0wzkd",733,"76.csv","","342","resources/trios/L1T2A3.jpg","39","restless",0.5,0.4,0.4,0.672935348672634,"false"
"image-keyboard-response",346,253145,"0.0-4.111-1.111","k95j0f80yp0wzkd",733,"76.csv","","null","resources/maskTrios/BBA3.jpg","null","",NA,NA,NA,NA,""
"image-keyboard-response",347,254365,"0.0-4.111-2.111","k95j0f80yp0wzkd",733,"76.csv","","null","resources/images/fishbone.png","null","",NA,NA,NA,NA,""
"image-keyboard-response",348,254447,"0.0-4.112-0.112","k95j0f80yp0wzkd",733,"76.csv","","79","resources/trios/L1T2A3.jpg","38","restless",0.5,0.4,0.4,0.17231875199406,"true"
"image-keyboard-response",349,254865,"0.0-4.112-1.112","k95j0f80yp0wzkd",733,"76.csv","","null","resources/maskTrios/BT2B.jpg","null","",NA,NA,NA,NA,""
"image-keyboard-response",350,256135,"0.0-4.112-2.112","k95j0f80yp0wzkd",733,"76.csv","","null","resources/images/coin2.png","null","",NA,NA,NA,NA,""
"image-keyboard-response",351,256361,"0.0-4.113-0.113","k95j0f80yp0wzkd",733,"76.csv","","223","resources/trios/L1T2A3.jpg","38","restless",0.5,0.4,0.4,0.853478357656734,"false"
"image-keyboard-response",352,256777,"0.0-4.113-1.113","k95j0f80yp0wzkd",733,"76.csv","","null","resources/maskTrios/BT2B.jpg","null","",NA,NA,NA,NA,""
"image-keyboard-response",353,257996,"0.0-4.113-2.113","k95j0f80yp0wzkd",733,"76.csv","","null","resources/images/fishbone.png","null","",NA,NA,NA,NA,""
"image-keyboard-response",354,258170,"0.0-4.114-0.114","k95j0f80yp0wzkd",733,"76.csv","","172","resources/trios/L1T2A3.jpg","39","restless",0.5,0.5,0.4,0.547534763530447,"false"
"image-keyboard-response",355,258575,"0.0-4.114-1.114","k95j0f80yp0wzkd",733,"76.csv","","null","resources/maskTrios/BBA3.jpg","null","",NA,NA,NA,NA,""
"image-keyboard-response",356,259795,"0.0-4.114-2.114","k95j0f80yp0wzkd",733,"76.csv","","null","resources/images/fishbone.png","null","",NA,NA,NA,NA,""
"image-keyboard-response",357,259934,"0.0-4.115-0.115","k95j0f80yp0wzkd",733,"76.csv","","136","resources/trios/L1T2A3.jpg","37","restless",0.5,0.5,0.3,0.522670423733245,"false"
"image-keyboard-response",358,260356,"0.0-4.115-1.115","k95j0f80yp0wzkd",733,"76.csv","","null","resources/maskTrios/L1BB.jpg","null","",NA,NA,NA,NA,""
"image-keyboard-response",359,261566,"0.0-4.115-2.115","k95j0f80yp0wzkd",733,"76.csv","","null","resources/images/fishbone.png","null","",NA,NA,NA,NA,""
"image-keyboard-response",360,261794,"0.0-4.116-0.116","k95j0f80yp0wzkd",733,"76.csv","","227","resources/trios/L1T2A3.jpg","37","restless",0.5,0.5,0.4,0.515727903546379,"false"
"image-keyboard-response",361,262205,"0.0-4.116-1.116","k95j0f80yp0wzkd",733,"76.csv","","null","resources/maskTrios/L1BB.jpg","null","",NA,NA,NA,NA,""
"image-keyboard-response",362,263426,"0.0-4.116-2.116","k95j0f80yp0wzkd",733,"76.csv","","null","resources/images/fishbone.png","null","",NA,NA,NA,NA,""
"image-keyboard-response",363,263621,"0.0-4.117-0.117","k95j0f80yp0wzkd",733,"76.csv","","192","resources/trios/L1T2A3.jpg","37","restless",0.5,0.5,0.4,0.788883309976245,"false"
"image-keyboard-response",364,264036,"0.0-4.117-1.117","k95j0f80yp0wzkd",733,"76.csv","","null","resources/maskTrios/L1BB.jpg","null","",NA,NA,NA,NA,""
"image-keyboard-response",365,265255,"0.0-4.117-2.117","k95j0f80yp0wzkd",733,"76.csv","","null","resources/images/fishbone.png","null","",NA,NA,NA,NA,""
"image-keyboard-response",366,265379,"0.0-4.118-0.118","k95j0f80yp0wzkd",733,"76.csv","","120","resources/trios/L1T2A3.jpg","37","restless",0.5,0.5,0.4,0.325493035487557,"true"
"image-keyboard-response",367,265796,"0.0-4.118-1.118","k95j0f80yp0wzkd",733,"76.csv","","null","resources/maskTrios/L1BB.jpg","null","",NA,NA,NA,NA,""
"image-keyboard-response",368,267015,"0.0-4.118-2.118","k95j0f80yp0wzkd",733,"76.csv","","null","resources/images/coin2.png","null","",NA,NA,NA,NA,""
"image-keyboard-response",369,267222,"0.0-4.119-0.119","k95j0f80yp0wzkd",733,"76.csv","","203","resources/trios/L1T2A3.jpg","37","restless",0.5,0.5,0.4,0.416048070881523,"true"
"image-keyboard-response",370,267637,"0.0-4.119-1.119","k95j0f80yp0wzkd",733,"76.csv","","null","resources/maskTrios/L1BB.jpg","null","",NA,NA,NA,NA,""
"image-keyboard-response",371,268857,"0.0-4.119-2.119","k95j0f80yp0wzkd",733,"76.csv","","null","resources/images/coin2.png","null","",NA,NA,NA,NA,""
"image-keyboard-response",372,269135,"0.0-4.120-0.120","k95j0f80yp0wzkd",733,"76.csv","","275","resources/trios/L1T2A3.jpg","37","restless",0.5,0.5,0.5,0.872753289293963,"false"
"image-keyboard-response",373,269545,"0.0-4.120-1.120","k95j0f80yp0wzkd",733,"76.csv","","null","resources/maskTrios/L1BB.jpg","null","",NA,NA,NA,NA,""
"image-keyboard-response",374,270765,"0.0-4.120-2.120","k95j0f80yp0wzkd",733,"76.csv","","null","resources/images/fishbone.png","null","",NA,NA,NA,NA,""
"image-keyboard-response",375,271015,"0.0-4.121-0.121","k95j0f80yp0wzkd",733,"76.csv","","248","resources/trios/L1T2A3.jpg","38","restless",0.5,0.5,0.5,0.928737167926001,"false"
"image-keyboard-response",376,271426,"0.0-4.121-1.121","k95j0f80yp0wzkd",733,"76.csv","","null","resources/maskTrios/BT2B.jpg","null","",NA,NA,NA,NA,""
"image-keyboard-response",377,272646,"0.0-4.121-2.121","k95j0f80yp0wzkd",733,"76.csv","","null","resources/images/fishbone.png","null","",NA,NA,NA,NA,""
"image-keyboard-response",378,272669,"0.0-4.122-0.122","k95j0f80yp0wzkd",733,"76.csv","","20","resources/trios/L1T2A3.jpg","39","restless",0.5,0.5,0.5,0.0574753587860414,"true"
"image-keyboard-response",379,273087,"0.0-4.122-1.122","k95j0f80yp0wzkd",733,"76.csv","","null","resources/maskTrios/BBA3.jpg","null","",NA,NA,NA,NA,""
"image-keyboard-response",380,274307,"0.0-4.122-2.122","k95j0f80yp0wzkd",733,"76.csv","","null","resources/images/coin2.png","null","",NA,NA,NA,NA,""
"image-keyboard-response",381,274568,"0.0-4.123-0.123","k95j0f80yp0wzkd",733,"76.csv","","259","resources/trios/L1T2A3.jpg","39","restless",0.5,0.5,0.5,0.433406193508131,"true"
"image-keyboard-response",382,274986,"0.0-4.123-1.123","k95j0f80yp0wzkd",733,"76.csv","","null","resources/maskTrios/BBA3.jpg","null","",NA,NA,NA,NA,""
"image-keyboard-response",383,276205,"0.0-4.123-2.123","k95j0f80yp0wzkd",733,"76.csv","","null","resources/images/coin2.png","null","",NA,NA,NA,NA,""
"image-keyboard-response",384,276440,"0.0-4.124-0.124","k95j0f80yp0wzkd",733,"76.csv","","232","resources/trios/L1T2A3.jpg","39","restless",0.5,0.5,0.5,0.383195966155201,"true"
"image-keyboard-response",385,276847,"0.0-4.124-1.124","k95j0f80yp0wzkd",733,"76.csv","","null","resources/maskTrios/BBA3.jpg","null","",NA,NA,NA,NA,""
"image-keyboard-response",386,278068,"0.0-4.124-2.124","k95j0f80yp0wzkd",733,"76.csv","","null","resources/images/coin2.png","null","",NA,NA,NA,NA,""
"image-keyboard-response",387,278312,"0.0-4.125-0.125","k95j0f80yp0wzkd",733,"76.csv","","241","resources/trios/L1T2A3.jpg","39","restless",0.5,0.5,0.5,0.180456512062199,"true"
"image-keyboard-response",388,278727,"0.0-4.125-1.125","k95j0f80yp0wzkd",733,"76.csv","","null","resources/maskTrios/BBA3.jpg","null","",NA,NA,NA,NA,""
"image-keyboard-response",389,279935,"0.0-4.125-2.125","k95j0f80yp0wzkd",733,"76.csv","","null","resources/images/coin2.png","null","",NA,NA,NA,NA,""
"image-keyboard-response",390,280142,"0.0-4.126-0.126","k95j0f80yp0wzkd",733,"76.csv","","203","resources/trios/L1T2A3.jpg","39","restless",0.5,0.5,0.5,0.0124372472519317,"true"
"image-keyboard-response",391,280557,"0.0-4.126-1.126","k95j0f80yp0wzkd",733,"76.csv","","null","resources/maskTrios/BBA3.jpg","null","",NA,NA,NA,NA,""
"image-keyboard-response",392,281776,"0.0-4.126-2.126","k95j0f80yp0wzkd",733,"76.csv","","null","resources/images/coin2.png","null","",NA,NA,NA,NA,""
"image-keyboard-response",393,282058,"0.0-4.127-0.127","k95j0f80yp0wzkd",733,"76.csv","","279","resources/trios/L1T2A3.jpg","39","restless",0.5,0.5,0.5,0.711685010600696,"false"
"image-keyboard-response",394,282476,"0.0-4.127-1.127","k95j0f80yp0wzkd",733,"76.csv","","null","resources/maskTrios/BBA3.jpg","null","",NA,NA,NA,NA,""
"image-keyboard-response",395,283695,"0.0-4.127-2.127","k95j0f80yp0wzkd",733,"76.csv","","null","resources/images/fishbone.png","null","",NA,NA,NA,NA,""
"image-keyboard-response",396,283795,"0.0-4.128-0.128","k95j0f80yp0wzkd",733,"76.csv","","97","resources/trios/L1T2A3.jpg","38","restless",0.5,0.5,0.5,0.539835117918079,"false"
"image-keyboard-response",397,284216,"0.0-4.128-1.128","k95j0f80yp0wzkd",733,"76.csv","","null","resources/maskTrios/BT2B.jpg","null","",NA,NA,NA,NA,""
"image-keyboard-response",398,285425,"0.0-4.128-2.128","k95j0f80yp0wzkd",733,"76.csv","","null","resources/images/fishbone.png","null","",NA,NA,NA,NA,""
"image-keyboard-response",399,285573,"0.0-4.129-0.129","k95j0f80yp0wzkd",733,"76.csv","","145","resources/trios/L1T2A3.jpg","37","restless",0.5,0.5,0.6,0.938889281784438,"false"
"image-keyboard-response",400,285986,"0.0-4.129-1.129","k95j0f80yp0wzkd",733,"76.csv","","null","resources/maskTrios/L1BB.jpg","null","",NA,NA,NA,NA,""
"image-keyboard-response",401,287205,"0.0-4.129-2.129","k95j0f80yp0wzkd",733,"76.csv","","null","resources/images/fishbone.png","null","",NA,NA,NA,NA,""
"image-keyboard-response",402,287535,"0.0-4.130-0.130","k95j0f80yp0wzkd",733,"76.csv","","326","resources/trios/L1T2A3.jpg","37","restless",0.5,0.5,0.6,0.385831421203224,"true"
"image-keyboard-response",403,287946,"0.0-4.130-1.130","k95j0f80yp0wzkd",733,"76.csv","","null","resources/maskTrios/L1BB.jpg","null","",NA,NA,NA,NA,""
"image-keyboard-response",404,289166,"0.0-4.130-2.130","k95j0f80yp0wzkd",733,"76.csv","","null","resources/images/coin2.png","null","",NA,NA,NA,NA,""
"image-keyboard-response",405,289388,"0.0-4.131-0.131","k95j0f80yp0wzkd",733,"76.csv","","220","resources/trios/L1T2A3.jpg","37","restless",0.5,0.5,0.6,0.569601690191435,"false"
"image-keyboard-response",406,289806,"0.0-4.131-1.131","k95j0f80yp0wzkd",733,"76.csv","","null","resources/maskTrios/L1BB.jpg","null","",NA,NA,NA,NA,""
"image-keyboard-response",407,291015,"0.0-4.131-2.131","k95j0f80yp0wzkd",733,"76.csv","","null","resources/images/fishbone.png","null","",NA,NA,NA,NA,""
"image-keyboard-response",408,291237,"0.0-4.132-0.132","k95j0f80yp0wzkd",733,"76.csv","","220","resources/trios/L1T2A3.jpg","38","restless",0.5,0.5,0.6,0.535492179950885,"false"
"image-keyboard-response",409,291655,"0.0-4.132-1.132","k95j0f80yp0wzkd",733,"76.csv","","null","resources/maskTrios/BT2B.jpg","null","",NA,NA,NA,NA,""
"image-keyboard-response",410,292877,"0.0-4.132-2.132","k95j0f80yp0wzkd",733,"76.csv","","null","resources/images/fishbone.png","null","",NA,NA,NA,NA,""
"image-keyboard-response",411,293134,"0.0-4.133-0.133","k95j0f80yp0wzkd",733,"76.csv","","255","resources/trios/L1T2A3.jpg","39","restless",0.5,0.5,0.7,0.0828462663947064,"true"
"image-keyboard-response",412,293555,"0.0-4.133-1.133","k95j0f80yp0wzkd",733,"76.csv","","null","resources/maskTrios/BBA3.jpg","null","",NA,NA,NA,NA,""
"image-keyboard-response",413,294775,"0.0-4.133-2.133","k95j0f80yp0wzkd",733,"76.csv","","null","resources/images/coin2.png","null","",NA,NA,NA,NA,""
"image-keyboard-response",414,294808,"0.0-4.134-0.134","k95j0f80yp0wzkd",733,"76.csv","","32","resources/trios/L1T2A3.jpg","39","restless",0.5,0.5,0.7,0.731411236715087,"false"
"image-keyboard-response",415,295216,"0.0-4.134-1.134","k95j0f80yp0wzkd",733,"76.csv","","null","resources/maskTrios/BBA3.jpg","null","",NA,NA,NA,NA,""
"image-keyboard-response",416,296427,"0.0-4.134-2.134","k95j0f80yp0wzkd",733,"76.csv","","null","resources/images/fishbone.png","null","",NA,NA,NA,NA,""
"image-keyboard-response",417,296733,"0.0-4.135-0.135","k95j0f80yp0wzkd",733,"76.csv","","306","resources/trios/L1T2A3.jpg","39","restless",0.5,0.5,0.7,0.486321292051213,"true"
"image-keyboard-response",418,297146,"0.0-4.135-1.135","k95j0f80yp0wzkd",733,"76.csv","","null","resources/maskTrios/BBA3.jpg","null","",NA,NA,NA,NA,""
"image-keyboard-response",419,298365,"0.0-4.135-2.135","k95j0f80yp0wzkd",733,"76.csv","","null","resources/images/coin2.png","null","",NA,NA,NA,NA,""
"image-keyboard-response",420,298577,"0.0-4.136-0.136","k95j0f80yp0wzkd",733,"76.csv","","209","resources/trios/L1T2A3.jpg","39","restless",0.4,0.5,0.7,0.851988007921446,"false"
"image-keyboard-response",421,298996,"0.0-4.136-1.136","k95j0f80yp0wzkd",733,"76.csv","","null","resources/maskTrios/BBA3.jpg","null","",NA,NA,NA,NA,""
"image-keyboard-response",422,300206,"0.0-4.136-2.136","k95j0f80yp0wzkd",733,"76.csv","","null","resources/images/fishbone.png","null","",NA,NA,NA,NA,""
"image-keyboard-response",423,300298,"0.0-4.137-0.137","k95j0f80yp0wzkd",733,"76.csv","","91","resources/trios/L1T2A3.jpg","39","restless",0.4,0.5,0.7,0.69481727493946,"true"
"image-keyboard-response",424,300706,"0.0-4.137-1.137","k95j0f80yp0wzkd",733,"76.csv","","null","resources/maskTrios/BBA3.jpg","null","",NA,NA,NA,NA,""
"image-keyboard-response",425,301926,"0.0-4.137-2.137","k95j0f80yp0wzkd",733,"76.csv","","null","resources/images/coin2.png","null","",NA,NA,NA,NA,""
"image-keyboard-response",426,302165,"0.0-4.138-0.138","k95j0f80yp0wzkd",733,"76.csv","","237","resources/trios/L1T2A3.jpg","39","restless",0.4,0.5,0.7,0.993195789983483,"false"
"image-keyboard-response",427,302588,"0.0-4.138-1.138","k95j0f80yp0wzkd",733,"76.csv","","null","resources/maskTrios/BBA3.jpg","null","",NA,NA,NA,NA,""
"image-keyboard-response",428,303796,"0.0-4.138-2.138","k95j0f80yp0wzkd",733,"76.csv","","null","resources/images/fishbone.png","null","",NA,NA,NA,NA,""
"image-keyboard-response",429,303933,"0.0-4.139-0.139","k95j0f80yp0wzkd",733,"76.csv","","134","resources/trios/L1T2A3.jpg","39","restless",0.4,0.5,0.8,0.380380053758468,"true"
"image-keyboard-response",430,304337,"0.0-4.139-1.139","k95j0f80yp0wzkd",733,"76.csv","","null","resources/maskTrios/BBA3.jpg","null","",NA,NA,NA,NA,""
"image-keyboard-response",431,305546,"0.0-4.139-2.139","k95j0f80yp0wzkd",733,"76.csv","","null","resources/images/coin2.png","null","",NA,NA,NA,NA,""
"image-keyboard-response",432,305836,"0.0-4.140-0.140","k95j0f80yp0wzkd",733,"76.csv","","288","resources/trios/L1T2A3.jpg","39","restless",0.4,0.4,0.7,0.414682648188937,"true"
"image-keyboard-response",433,306245,"0.0-4.140-1.140","k95j0f80yp0wzkd",733,"76.csv","","null","resources/maskTrios/BBA3.jpg","null","",NA,NA,NA,NA,""
"image-keyboard-response",434,307465,"0.0-4.140-2.140","k95j0f80yp0wzkd",733,"76.csv","","null","resources/images/coin2.png","null","",NA,NA,NA,NA,""
"image-keyboard-response",435,307721,"0.0-4.141-0.141","k95j0f80yp0wzkd",733,"76.csv","","253","resources/trios/L1T2A3.jpg","39","restless",0.4,0.4,0.7,0.178021440859092,"true"
"image-keyboard-response",436,308125,"0.0-4.141-1.141","k95j0f80yp0wzkd",733,"76.csv","","null","resources/maskTrios/BBA3.jpg","null","",NA,NA,NA,NA,""
"image-keyboard-response",437,309347,"0.0-4.141-2.141","k95j0f80yp0wzkd",733,"76.csv","","null","resources/images/coin2.png","null","",NA,NA,NA,NA,""
"image-keyboard-response",438,309585,"0.0-4.142-0.142","k95j0f80yp0wzkd",733,"76.csv","","238","resources/trios/L1T2A3.jpg","39","restless",0.4,0.4,0.7,0.565770659606105,"true"
"image-keyboard-response",439,310006,"0.0-4.142-1.142","k95j0f80yp0wzkd",733,"76.csv","","null","resources/maskTrios/BBA3.jpg","null","",NA,NA,NA,NA,""
"image-keyboard-response",440,311225,"0.0-4.142-2.142","k95j0f80yp0wzkd",733,"76.csv","","null","resources/images/coin2.png","null","",NA,NA,NA,NA,""
"image-keyboard-response",441,311472,"0.0-4.143-0.143","k95j0f80yp0wzkd",733,"76.csv","","244","resources/trios/L1T2A3.jpg","39","restless",0.4,0.3,0.7,0.961396859271971,"false"
"image-keyboard-response",442,311887,"0.0-4.143-1.143","k95j0f80yp0wzkd",733,"76.csv","","null","resources/maskTrios/BBA3.jpg","null","",NA,NA,NA,NA,""
"image-keyboard-response",443,313097,"0.0-4.143-2.143","k95j0f80yp0wzkd",733,"76.csv","","null","resources/images/fishbone.png","null","",NA,NA,NA,NA,""
"image-keyboard-response",444,313364,"0.0-4.144-0.144","k95j0f80yp0wzkd",733,"76.csv","","264","resources/trios/L1T2A3.jpg","38","restless",0.4,0.3,0.7,0.995070077717382,"false"
"image-keyboard-response",445,313796,"0.0-4.144-1.144","k95j0f80yp0wzkd",733,"76.csv","","null","resources/maskTrios/BT2B.jpg","null","",NA,NA,NA,NA,""
"image-keyboard-response",446,315016,"0.0-4.144-2.144","k95j0f80yp0wzkd",733,"76.csv","","null","resources/images/fishbone.png","null","",NA,NA,NA,NA,""
"image-keyboard-response",447,315210,"0.0-4.145-0.145","k95j0f80yp0wzkd",733,"76.csv","","191","resources/trios/L1T2A3.jpg","38","restless",0.4,0.3,0.7,0.538583507931368,"false"
"image-keyboard-response",448,315616,"0.0-4.145-1.145","k95j0f80yp0wzkd",733,"76.csv","","null","resources/maskTrios/BT2B.jpg","null","",NA,NA,NA,NA,""
"image-keyboard-response",449,316837,"0.0-4.145-2.145","k95j0f80yp0wzkd",733,"76.csv","","null","resources/images/fishbone.png","null","",NA,NA,NA,NA,""
"image-keyboard-response",450,317079,"0.0-4.146-0.146","k95j0f80yp0wzkd",733,"76.csv","","240","resources/trios/L1T2A3.jpg","38","restless",0.4,0.3,0.7,0.737992447786893,"false"
"image-keyboard-response",451,317496,"0.0-4.146-1.146","k95j0f80yp0wzkd",733,"76.csv","","null","resources/maskTrios/BT2B.jpg","null","",NA,NA,NA,NA,""
"image-keyboard-response",452,318715,"0.0-4.146-2.146","k95j0f80yp0wzkd",733,"76.csv","","null","resources/images/fishbone.png","null","",NA,NA,NA,NA,""
"image-keyboard-response",453,318847,"0.0-4.147-0.147","k95j0f80yp0wzkd",733,"76.csv","","128","resources/trios/L1T2A3.jpg","38","restless",0.4,0.2,0.6,0.408252685503704,"false"
"image-keyboard-response",454,319256,"0.0-4.147-1.147","k95j0f80yp0wzkd",733,"76.csv","","null","resources/maskTrios/BT2B.jpg","null","",NA,NA,NA,NA,""
"image-keyboard-response",455,320476,"0.0-4.147-2.147","k95j0f80yp0wzkd",733,"76.csv","","null","resources/images/fishbone.png","null","",NA,NA,NA,NA,""
"image-keyboard-response",456,320678,"0.0-4.148-0.148","k95j0f80yp0wzkd",733,"76.csv","","198","resources/trios/L1T2A3.jpg","38","restless",0.4,0.2,0.6,0.844872568428841,"false"
"image-keyboard-response",457,321096,"0.0-4.148-1.148","k95j0f80yp0wzkd",733,"76.csv","","null","resources/maskTrios/BT2B.jpg","null","",NA,NA,NA,NA,""
"image-keyboard-response",458,322316,"0.0-4.148-2.148","k95j0f80yp0wzkd",733,"76.csv","","null","resources/images/fishbone.png","null","",NA,NA,NA,NA,""
"image-keyboard-response",459,322520,"0.0-4.149-0.149","k95j0f80yp0wzkd",733,"76.csv","","202","resources/trios/L1T2A3.jpg","38","restless",0.4,0.2,0.6,0.425324648145177,"false"
"image-keyboard-response",460,322927,"0.0-4.149-1.149","k95j0f80yp0wzkd",733,"76.csv","","null","resources/maskTrios/BT2B.jpg","null","",NA,NA,NA,NA,""
"image-keyboard-response",461,324145,"0.0-4.149-2.149","k95j0f80yp0wzkd",733,"76.csv","","null","resources/images/fishbone.png","null","",NA,NA,NA,NA,""
"image-keyboard-response",462,324388,"0.0-4.150-0.150","k95j0f80yp0wzkd",733,"76.csv","","241","resources/trios/L1T2A3.jpg","38","restless",0.4,0.1,0.6,0.098299051478293,"true"
"image-keyboard-response",463,324797,"0.0-4.150-1.150","k95j0f80yp0wzkd",733,"76.csv","","null","resources/maskTrios/BT2B.jpg","null","",NA,NA,NA,NA,""
"image-keyboard-response",464,326005,"0.0-4.150-2.150","k95j0f80yp0wzkd",733,"76.csv","","null","resources/images/coin2.png","null","",NA,NA,NA,NA,""
"image-keyboard-response",465,326263,"0.0-4.151-0.151","k95j0f80yp0wzkd",733,"76.csv","","256","resources/trios/L1T2A3.jpg","38","restless",0.4,0.1,0.6,0.197957282801872,"false"
"image-keyboard-response",466,326666,"0.0-4.151-1.151","k95j0f80yp0wzkd",733,"76.csv","","null","resources/maskTrios/BT2B.jpg","null","",NA,NA,NA,NA,""
"image-keyboard-response",467,327946,"0.0-4.151-2.151","k95j0f80yp0wzkd",733,"76.csv","","null","resources/images/fishbone.png","null","",NA,NA,NA,NA,""
"image-keyboard-response",468,328170,"0.0-4.152-0.152","k95j0f80yp0wzkd",733,"76.csv","","222","resources/trios/L1T2A3.jpg","38","restless",0.4,0.1,0.6,0.571464892036472,"false"
"image-keyboard-response",469,328581,"0.0-4.152-1.152","k95j0f80yp0wzkd",733,"76.csv","","null","resources/maskTrios/BT2B.jpg","null","",NA,NA,NA,NA,""
"image-keyboard-response",470,329796,"0.0-4.152-2.152","k95j0f80yp0wzkd",733,"76.csv","","null","resources/images/fishbone.png","null","",NA,NA,NA,NA,""
"image-keyboard-response",471,329979,"0.0-4.153-0.153","k95j0f80yp0wzkd",733,"76.csv","","180","resources/trios/L1T2A3.jpg","38","restless",0.4,0.1,0.7,0.706211739003281,"false"
"image-keyboard-response",472,330396,"0.0-4.153-1.153","k95j0f80yp0wzkd",733,"76.csv","","null","resources/maskTrios/BT2B.jpg","null","",NA,NA,NA,NA,""
"image-keyboard-response",473,331617,"0.0-4.153-2.153","k95j0f80yp0wzkd",733,"76.csv","","null","resources/images/fishbone.png","null","",NA,NA,NA,NA,""
"image-keyboard-response",474,331927,"0.0-4.154-0.154","k95j0f80yp0wzkd",733,"76.csv","","308","resources/trios/L1T2A3.jpg","37","restless",0.4,0.1,0.7,0.710824917761741,"false"
"image-keyboard-response",475,332335,"0.0-4.154-1.154","k95j0f80yp0wzkd",733,"76.csv","","null","resources/maskTrios/L1BB.jpg","null","",NA,NA,NA,NA,""
"image-keyboard-response",476,333555,"0.0-4.154-2.154","k95j0f80yp0wzkd",733,"76.csv","","null","resources/images/fishbone.png","null","",NA,NA,NA,NA,""
"image-keyboard-response",477,333644,"0.0-4.155-0.155","k95j0f80yp0wzkd",733,"76.csv","","87","resources/trios/L1T2A3.jpg","37","restless",0.4,0.1,0.7,0.502595263438247,"false"
"image-keyboard-response",478,334047,"0.0-4.155-1.155","k95j0f80yp0wzkd",733,"76.csv","","null","resources/maskTrios/L1BB.jpg","null","",NA,NA,NA,NA,""
"image-keyboard-response",479,335266,"0.0-4.155-2.155","k95j0f80yp0wzkd",733,"76.csv","","null","resources/images/fishbone.png","null","",NA,NA,NA,NA,""
"image-keyboard-response",480,335509,"0.0-4.156-0.156","k95j0f80yp0wzkd",733,"76.csv","","241","resources/trios/L1T2A3.jpg","37","restless",0.4,0.2,0.7,0.118080030044643,"true"
"image-keyboard-response",481,335926,"0.0-4.156-1.156","k95j0f80yp0wzkd",733,"76.csv","","null","resources/maskTrios/L1BB.jpg","null","",NA,NA,NA,NA,""
"image-keyboard-response",482,337146,"0.0-4.156-2.156","k95j0f80yp0wzkd",733,"76.csv","","null","resources/images/coin2.png","null","",NA,NA,NA,NA,""
"image-keyboard-response",483,337400,"0.0-4.157-0.157","k95j0f80yp0wzkd",733,"76.csv","","251","resources/trios/L1T2A3.jpg","37","restless",0.5,0.3,0.7,0.799066324889724,"false"
"image-keyboard-response",484,337807,"0.0-4.157-1.157","k95j0f80yp0wzkd",733,"76.csv","","null","resources/maskTrios/L1BB.jpg","null","",NA,NA,NA,NA,""
"image-keyboard-response",485,339016,"0.0-4.157-2.157","k95j0f80yp0wzkd",733,"76.csv","","null","resources/images/fishbone.png","null","",NA,NA,NA,NA,""
"image-keyboard-response",486,339258,"0.0-4.158-0.158","k95j0f80yp0wzkd",733,"76.csv","","240","resources/trios/L1T2A3.jpg","37","restless",0.5,0.3,0.7,0.00764965728771894,"true"
"image-keyboard-response",487,339666,"0.0-4.158-1.158","k95j0f80yp0wzkd",733,"76.csv","","null","resources/maskTrios/L1BB.jpg","null","",NA,NA,NA,NA,""
"image-keyboard-response",488,340877,"0.0-4.158-2.158","k95j0f80yp0wzkd",733,"76.csv","","null","resources/images/coin2.png","null","",NA,NA,NA,NA,""
"image-keyboard-response",489,341144,"0.0-4.159-0.159","k95j0f80yp0wzkd",733,"76.csv","","264","resources/trios/L1T2A3.jpg","37","restless",0.5,0.3,0.7,0.686442739795915,"false"
"image-keyboard-response",490,341556,"0.0-4.159-1.159","k95j0f80yp0wzkd",733,"76.csv","","null","resources/maskTrios/L1BB.jpg","null","",NA,NA,NA,NA,""
"image-keyboard-response",491,342776,"0.0-4.159-2.159","k95j0f80yp0wzkd",733,"76.csv","","null","resources/images/fishbone.png","null","",NA,NA,NA,NA,""
"image-keyboard-response",492,343029,"0.0-4.160-0.160","k95j0f80yp0wzkd",733,"76.csv","","251","resources/trios/L1T2A3.jpg","37","restless",0.5,0.3,0.6,0.78588584954672,"false"
"image-keyboard-response",493,343437,"0.0-4.160-1.160","k95j0f80yp0wzkd",733,"76.csv","","null","resources/maskTrios/L1BB.jpg","null","",NA,NA,NA,NA,""
"image-keyboard-response",494,344656,"0.0-4.160-2.160","k95j0f80yp0wzkd",733,"76.csv","","null","resources/images/fishbone.png","null","",NA,NA,NA,NA,""
"image-keyboard-response",495,344884,"0.0-4.161-0.161","k95j0f80yp0wzkd",733,"76.csv","","227","resources/trios/L1T2A3.jpg","39","restless",0.5,0.4,0.6,0.403615571203001,"true"
"image-keyboard-response",496,345296,"0.0-4.161-1.161","k95j0f80yp0wzkd",733,"76.csv","","null","resources/maskTrios/BBA3.jpg","null","",NA,NA,NA,NA,""
"image-keyboard-response",497,346505,"0.0-4.161-2.161","k95j0f80yp0wzkd",733,"76.csv","","null","resources/images/coin2.png","null","",NA,NA,NA,NA,""
"image-keyboard-response",498,346708,"0.0-4.162-0.162","k95j0f80yp0wzkd",733,"76.csv","","202","resources/trios/L1T2A3.jpg","39","restless",0.5,0.4,0.6,0.0217681618711217,"true"
"image-keyboard-response",499,347167,"0.0-4.162-1.162","k95j0f80yp0wzkd",733,"76.csv","","null","resources/maskTrios/BBA3.jpg","null","",NA,NA,NA,NA,""
"image-keyboard-response",500,348386,"0.0-4.162-2.162","k95j0f80yp0wzkd",733,"76.csv","","null","resources/images/coin2.png","null","",NA,NA,NA,NA,""
"image-keyboard-response",501,348489,"0.0-4.163-0.163","k95j0f80yp0wzkd",733,"76.csv","","101","resources/trios/L1T2A3.jpg","39","restless",0.6,0.4,0.6,0.328284896701866,"true"
"image-keyboard-response",502,348906,"0.0-4.163-1.163","k95j0f80yp0wzkd",733,"76.csv","","null","resources/maskTrios/BBA3.jpg","null","",NA,NA,NA,NA,""
"image-keyboard-response",503,350127,"0.0-4.163-2.163","k95j0f80yp0wzkd",733,"76.csv","","null","resources/images/coin2.png","null","",NA,NA,NA,NA,""
"image-keyboard-response",504,350383,"0.0-4.164-0.164","k95j0f80yp0wzkd",733,"76.csv","","253","resources/trios/L1T2A3.jpg","39","restless",0.6,0.4,0.6,0.269358227660216,"true"
"image-keyboard-response",505,350786,"0.0-4.164-1.164","k95j0f80yp0wzkd",733,"76.csv","","null","resources/maskTrios/BBA3.jpg","null","",NA,NA,NA,NA,""
"image-keyboard-response",506,352006,"0.0-4.164-2.164","k95j0f80yp0wzkd",733,"76.csv","","null","resources/images/coin2.png","null","",NA,NA,NA,NA,""
"image-keyboard-response",507,352065,"0.0-4.165-0.165","k95j0f80yp0wzkd",733,"76.csv","","57","resources/trios/L1T2A3.jpg","39","restless",0.6,0.3,0.6,0.10308133510747,"true"
"image-keyboard-response",508,352485,"0.0-4.165-1.165","k95j0f80yp0wzkd",733,"76.csv","","null","resources/maskTrios/BBA3.jpg","null","",NA,NA,NA,NA,""
"image-keyboard-response",509,353695,"0.0-4.165-2.165","k95j0f80yp0wzkd",733,"76.csv","","null","resources/images/coin2.png","null","",NA,NA,NA,NA,""
"image-keyboard-response",510,353895,"0.0-4.166-0.166","k95j0f80yp0wzkd",733,"76.csv","","196","resources/trios/L1T2A3.jpg","39","restless",0.6,0.3,0.6,0.630225248885757,"false"
"image-keyboard-response",511,354317,"0.0-4.166-1.166","k95j0f80yp0wzkd",733,"76.csv","","null","resources/maskTrios/BBA3.jpg","null","",NA,NA,NA,NA,""
"image-keyboard-response",512,355525,"0.0-4.166-2.166","k95j0f80yp0wzkd",733,"76.csv","","null","resources/images/fishbone.png","null","",NA,NA,NA,NA,""
"image-keyboard-response",513,355779,"0.0-4.167-0.167","k95j0f80yp0wzkd",733,"76.csv","","254","resources/trios/L1T2A3.jpg","37","restless",0.7,0.3,0.6,0.757577500216584,"false"
"image-keyboard-response",514,356186,"0.0-4.167-1.167","k95j0f80yp0wzkd",733,"76.csv","","null","resources/maskTrios/L1BB.jpg","null","",NA,NA,NA,NA,""
"image-keyboard-response",515,357406,"0.0-4.167-2.167","k95j0f80yp0wzkd",733,"76.csv","","null","resources/images/fishbone.png","null","",NA,NA,NA,NA,""
"image-keyboard-response",516,357531,"0.0-4.168-0.168","k95j0f80yp0wzkd",733,"76.csv","","124","resources/trios/L1T2A3.jpg","38","restless",0.7,0.3,0.6,0.68708148498834,"false"
"image-keyboard-response",517,357946,"0.0-4.168-1.168","k95j0f80yp0wzkd",733,"76.csv","","null","resources/maskTrios/BT2B.jpg","null","",NA,NA,NA,NA,""
"image-keyboard-response",518,359166,"0.0-4.168-2.168","k95j0f80yp0wzkd",733,"76.csv","","null","resources/images/fishbone.png","null","",NA,NA,NA,NA,""
"image-keyboard-response",519,359559,"0.0-4.169-0.169","k95j0f80yp0wzkd",733,"76.csv","","390","resources/trios/L1T2A3.jpg","39","restless",0.7,0.4,0.6,0.436469291832713,"true"
"image-keyboard-response",520,359967,"0.0-4.169-1.169","k95j0f80yp0wzkd",733,"76.csv","","null","resources/maskTrios/BBA3.jpg","null","",NA,NA,NA,NA,""
"image-keyboard-response",521,361176,"0.0-4.169-2.169","k95j0f80yp0wzkd",733,"76.csv","","null","resources/images/coin2.png","null","",NA,NA,NA,NA,""
"image-keyboard-response",522,361396,"0.0-4.170-0.170","k95j0f80yp0wzkd",733,"76.csv","","218","resources/trios/L1T2A3.jpg","39","restless",0.7,0.4,0.6,0.560850180138794,"true"
"image-keyboard-response",523,361815,"0.0-4.170-1.170","k95j0f80yp0wzkd",733,"76.csv","","null","resources/maskTrios/BBA3.jpg","null","",NA,NA,NA,NA,""
"image-keyboard-response",524,363037,"0.0-4.170-2.170","k95j0f80yp0wzkd",733,"76.csv","","null","resources/images/coin2.png","null","",NA,NA,NA,NA,""
"image-keyboard-response",525,363117,"0.0-4.171-0.171","k95j0f80yp0wzkd",733,"76.csv","","79","resources/trios/L1T2A3.jpg","37","restless",0.7,0.4,0.6,0.887165885318218,"false"
"image-keyboard-response",526,363536,"0.0-4.171-1.171","k95j0f80yp0wzkd",733,"76.csv","","null","resources/maskTrios/L1BB.jpg","null","",NA,NA,NA,NA,""
"image-keyboard-response",527,364743,"0.0-4.171-2.171","k95j0f80yp0wzkd",733,"76.csv","","null","resources/images/fishbone.png","null","",NA,NA,NA,NA,""
"image-keyboard-response",528,365181,"0.0-4.172-0.172","k95j0f80yp0wzkd",733,"76.csv","","436","resources/trios/L1T2A3.jpg","37","restless",0.7,0.4,0.6,0.27807237261852,"true"
"image-keyboard-response",529,365585,"0.0-4.172-1.172","k95j0f80yp0wzkd",733,"76.csv","","null","resources/maskTrios/L1BB.jpg","null","",NA,NA,NA,NA,""
"image-keyboard-response",530,366807,"0.0-4.172-2.172","k95j0f80yp0wzkd",733,"76.csv","","null","resources/images/coin2.png","null","",NA,NA,NA,NA,""
"image-keyboard-response",531,367091,"0.0-4.173-0.173","k95j0f80yp0wzkd",733,"76.csv","","282","resources/trios/L1T2A3.jpg","37","restless",0.7,0.4,0.6,0.755198146130216,"false"
"image-keyboard-response",532,367507,"0.0-4.173-1.173","k95j0f80yp0wzkd",733,"76.csv","","null","resources/maskTrios/L1BB.jpg","null","",NA,NA,NA,NA,""
"image-keyboard-response",533,368725,"0.0-4.173-2.173","k95j0f80yp0wzkd",733,"76.csv","","null","resources/images/fishbone.png","null","",NA,NA,NA,NA,""
"image-keyboard-response",534,368979,"0.0-4.174-0.174","k95j0f80yp0wzkd",733,"76.csv","","251","resources/trios/L1T2A3.jpg","39","restless",0.7,0.4,0.6,0.249872896194782,"true"
"image-keyboard-response",535,369387,"0.0-4.174-1.174","k95j0f80yp0wzkd",733,"76.csv","","null","resources/maskTrios/BBA3.jpg","null","",NA,NA,NA,NA,""
"image-keyboard-response",536,370606,"0.0-4.174-2.174","k95j0f80yp0wzkd",733,"76.csv","","null","resources/images/coin2.png","null","",NA,NA,NA,NA,""
"image-keyboard-response",537,370899,"0.0-4.175-0.175","k95j0f80yp0wzkd",733,"76.csv","","290","resources/trios/L1T2A3.jpg","39","restless",0.6,0.3,0.6,0.648936157105116,"false"
"image-keyboard-response",538,371306,"0.0-4.175-1.175","k95j0f80yp0wzkd",733,"76.csv","","null","resources/maskTrios/BBA3.jpg","null","",NA,NA,NA,NA,""
"image-keyboard-response",539,372526,"0.0-4.175-2.175","k95j0f80yp0wzkd",733,"76.csv","","null","resources/images/fishbone.png","null","",NA,NA,NA,NA,""
"image-keyboard-response",540,372661,"0.0-4.176-0.176","k95j0f80yp0wzkd",733,"76.csv","","130","resources/trios/L1T2A3.jpg","38","restless",0.6,0.3,0.6,0.473100927783412,"false"
"image-keyboard-response",541,373067,"0.0-4.176-1.176","k95j0f80yp0wzkd",733,"76.csv","","null","resources/maskTrios/BT2B.jpg","null","",NA,NA,NA,NA,""
"image-keyboard-response",542,374277,"0.0-4.176-2.176","k95j0f80yp0wzkd",733,"76.csv","","null","resources/images/fishbone.png","null","",NA,NA,NA,NA,""
"image-keyboard-response",543,374455,"0.0-4.177-0.177","k95j0f80yp0wzkd",733,"76.csv","","176","resources/trios/L1T2A3.jpg","37","restless",0.6,0.3,0.6,0.961396283032938,"false"
"image-keyboard-response",544,374876,"0.0-4.177-1.177","k95j0f80yp0wzkd",733,"76.csv","","null","resources/maskTrios/L1BB.jpg","null","",NA,NA,NA,NA,""
"image-keyboard-response",545,376097,"0.0-4.177-2.177","k95j0f80yp0wzkd",733,"76.csv","","null","resources/images/fishbone.png","null","",NA,NA,NA,NA,""
"image-keyboard-response",546,376248,"0.0-4.178-0.178","k95j0f80yp0wzkd",733,"76.csv","","148","resources/trios/L1T2A3.jpg","39","restless",0.6,0.3,0.6,0.658289758834588,"false"
"image-keyboard-response",547,376656,"0.0-4.178-1.178","k95j0f80yp0wzkd",733,"76.csv","","null","resources/maskTrios/BBA3.jpg","null","",NA,NA,NA,NA,""
"image-keyboard-response",548,377867,"0.0-4.178-2.178","k95j0f80yp0wzkd",733,"76.csv","","null","resources/images/fishbone.png","null","",NA,NA,NA,NA,""
"image-keyboard-response",549,377933,"0.0-4.179-0.179","k95j0f80yp0wzkd",733,"76.csv","","65","resources/trios/L1T2A3.jpg","38","restless",0.6,0.3,0.6,0.405751074984501,"false"
"image-keyboard-response",550,378346,"0.0-4.179-1.179","k95j0f80yp0wzkd",733,"76.csv","","null","resources/maskTrios/BT2B.jpg","null","",NA,NA,NA,NA,""
"image-keyboard-response",551,379567,"0.0-4.179-2.179","k95j0f80yp0wzkd",733,"76.csv","","null","resources/images/fishbone.png","null","",NA,NA,NA,NA,""
"image-keyboard-response",552,379587,"0.0-4.180-0.180","k95j0f80yp0wzkd",733,"76.csv","","18","resources/trios/L1T2A3.jpg","38","restless",0.6,0.3,0.6,0.382275137915385,"false"
"image-keyboard-response",553,380007,"0.0-4.180-1.180","k95j0f80yp0wzkd",733,"76.csv","","null","resources/maskTrios/BT2B.jpg","null","",NA,NA,NA,NA,""
"image-keyboard-response",554,381227,"0.0-4.180-2.180","k95j0f80yp0wzkd",733,"76.csv","","null","resources/images/fishbone.png","null","",NA,NA,NA,NA,""
"image-keyboard-response",555,381545,"0.0-4.181-0.181","k95j0f80yp0wzkd",733,"76.csv","","318","resources/trios/L1T2A3.jpg","37","restless",0.6,0.3,0.6,0.94670263258758,"false"
"image-keyboard-response",556,381967,"0.0-4.181-1.181","k95j0f80yp0wzkd",733,"76.csv","","null","resources/maskTrios/L1BB.jpg","null","",NA,NA,NA,NA,""
"image-keyboard-response",557,383186,"0.0-4.181-2.181","k95j0f80yp0wzkd",733,"76.csv","","null","resources/images/fishbone.png","null","",NA,NA,NA,NA,""
"image-keyboard-response",558,383378,"0.0-4.182-0.182","k95j0f80yp0wzkd",733,"76.csv","","191","resources/trios/L1T2A3.jpg","39","restless",0.6,0.3,0.6,0.930760310549842,"false"
"image-keyboard-response",559,383786,"0.0-4.182-1.182","k95j0f80yp0wzkd",733,"76.csv","","null","resources/maskTrios/BBA3.jpg","null","",NA,NA,NA,NA,""
"image-keyboard-response",560,385006,"0.0-4.182-2.182","k95j0f80yp0wzkd",733,"76.csv","","null","resources/images/fishbone.png","null","",NA,NA,NA,NA,""
"image-keyboard-response",561,385227,"0.0-4.183-0.183","k95j0f80yp0wzkd",733,"76.csv","","217","resources/trios/L1T2A3.jpg","37","restless",0.6,0.3,0.6,0.526359124739437,"true"
"image-keyboard-response",562,385636,"0.0-4.183-1.183","k95j0f80yp0wzkd",733,"76.csv","","null","resources/maskTrios/L1BB.jpg","null","",NA,NA,NA,NA,""
"image-keyboard-response",563,386855,"0.0-4.183-2.183","k95j0f80yp0wzkd",733,"76.csv","","null","resources/images/coin2.png","null","",NA,NA,NA,NA,""
"image-keyboard-response",564,387103,"0.0-4.184-0.184","k95j0f80yp0wzkd",733,"76.csv","","245","resources/trios/L1T2A3.jpg","37","restless",0.6,0.4,0.7,0.0641975743877019,"true"
"image-keyboard-response",565,387516,"0.0-4.184-1.184","k95j0f80yp0wzkd",733,"76.csv","","null","resources/maskTrios/L1BB.jpg","null","",NA,NA,NA,NA,""
"image-keyboard-response",566,388736,"0.0-4.184-2.184","k95j0f80yp0wzkd",733,"76.csv","","null","resources/images/coin2.png","null","",NA,NA,NA,NA,""
"image-keyboard-response",567,389041,"0.0-4.185-0.185","k95j0f80yp0wzkd",733,"76.csv","","303","resources/trios/L1T2A3.jpg","37","restless",0.6,0.4,0.7,0.0121467910262223,"true"
"image-keyboard-response",568,389456,"0.0-4.185-1.185","k95j0f80yp0wzkd",733,"76.csv","","null","resources/maskTrios/L1BB.jpg","null","",NA,NA,NA,NA,""
"image-keyboard-response",569,390675,"0.0-4.185-2.185","k95j0f80yp0wzkd",733,"76.csv","","null","resources/images/coin2.png","null","",NA,NA,NA,NA,""
"image-keyboard-response",570,390923,"0.0-4.186-0.186","k95j0f80yp0wzkd",733,"76.csv","","244","resources/trios/L1T2A3.jpg","37","restless",0.6,0.4,0.7,0.775704838443553,"false"
"image-keyboard-response",571,391336,"0.0-4.186-1.186","k95j0f80yp0wzkd",733,"76.csv","","null","resources/maskTrios/L1BB.jpg","null","",NA,NA,NA,NA,""
"image-keyboard-response",572,392556,"0.0-4.186-2.186","k95j0f80yp0wzkd",733,"76.csv","","null","resources/images/fishbone.png","null","",NA,NA,NA,NA,""
"image-keyboard-response",573,392811,"0.0-4.187-0.187","k95j0f80yp0wzkd",733,"76.csv","","254","resources/trios/L1T2A3.jpg","39","restless",0.6,0.4,0.7,0.804664850998815,"false"
"image-keyboard-response",574,393215,"0.0-4.187-1.187","k95j0f80yp0wzkd",733,"76.csv","","null","resources/maskTrios/BBA3.jpg","null","",NA,NA,NA,NA,""
"image-keyboard-response",575,394435,"0.0-4.187-2.187","k95j0f80yp0wzkd",733,"76.csv","","null","resources/images/fishbone.png","null","",NA,NA,NA,NA,""
"image-keyboard-response",576,394490,"0.0-4.188-0.188","k95j0f80yp0wzkd",733,"76.csv","","52","resources/trios/L1T2A3.jpg","38","restless",0.6,0.4,0.7,0.268282188079154,"true"
"image-keyboard-response",577,394896,"0.0-4.188-1.188","k95j0f80yp0wzkd",733,"76.csv","","null","resources/maskTrios/BT2B.jpg","null","",NA,NA,NA,NA,""
"image-keyboard-response",578,396116,"0.0-4.188-2.188","k95j0f80yp0wzkd",733,"76.csv","","null","resources/images/coin2.png","null","",NA,NA,NA,NA,""
"image-keyboard-response",579,396364,"0.0-4.189-0.189","k95j0f80yp0wzkd",733,"76.csv","","246","resources/trios/L1T2A3.jpg","38","restless",0.6,0.4,0.7,0.268543040898633,"true"
"image-keyboard-response",580,396767,"0.0-4.189-1.189","k95j0f80yp0wzkd",733,"76.csv","","null","resources/maskTrios/BT2B.jpg","null","",NA,NA,NA,NA,""
"image-keyboard-response",581,397986,"0.0-4.189-2.189","k95j0f80yp0wzkd",733,"76.csv","","null","resources/images/coin2.png","null","",NA,NA,NA,NA,""
"image-keyboard-response",582,398219,"0.0-4.190-0.190","k95j0f80yp0wzkd",733,"76.csv","","232","resources/trios/L1T2A3.jpg","38","restless",0.6,0.4,0.7,0.214219652080214,"true"
"image-keyboard-response",583,398626,"0.0-4.190-1.190","k95j0f80yp0wzkd",733,"76.csv","","null","resources/maskTrios/BT2B.jpg","null","",NA,NA,NA,NA,""
"image-keyboard-response",584,399847,"0.0-4.190-2.190","k95j0f80yp0wzkd",733,"76.csv","","null","resources/images/coin2.png","null","",NA,NA,NA,NA,""
"image-keyboard-response",585,400117,"0.0-4.191-0.191","k95j0f80yp0wzkd",733,"76.csv","","266","resources/trios/L1T2A3.jpg","38","restless",0.6,0.4,0.7,0.74979177633,"false"
"image-keyboard-response",586,400525,"0.0-4.191-1.191","k95j0f80yp0wzkd",733,"76.csv","","null","resources/maskTrios/BT2B.jpg","null","",NA,NA,NA,NA,""
"image-keyboard-response",587,401747,"0.0-4.191-2.191","k95j0f80yp0wzkd",733,"76.csv","","null","resources/images/fishbone.png","null","",NA,NA,NA,NA,""
"image-keyboard-response",588,402010,"0.0-4.192-0.192","k95j0f80yp0wzkd",733,"76.csv","","262","resources/trios/L1T2A3.jpg","37","restless",0.6,0.4,0.7,0.795872629350907,"false"
"image-keyboard-response",589,402417,"0.0-4.192-1.192","k95j0f80yp0wzkd",733,"76.csv","","null","resources/maskTrios/L1BB.jpg","null","",NA,NA,NA,NA,""
"image-keyboard-response",590,403635,"0.0-4.192-2.192","k95j0f80yp0wzkd",733,"76.csv","","null","resources/images/fishbone.png","null","",NA,NA,NA,NA,""
"image-keyboard-response",591,403861,"0.0-4.193-0.193","k95j0f80yp0wzkd",733,"76.csv","","221","resources/trios/L1T2A3.jpg","39","restless",0.6,0.4,0.7,0.482681637536256,"true"
"image-keyboard-response",592,404275,"0.0-4.193-1.193","k95j0f80yp0wzkd",733,"76.csv","","null","resources/maskTrios/BBA3.jpg","null","",NA,NA,NA,NA,""
"image-keyboard-response",593,405496,"0.0-4.193-2.193","k95j0f80yp0wzkd",733,"76.csv","","null","resources/images/coin2.png","null","",NA,NA,NA,NA,""
"image-keyboard-response",594,405757,"0.0-4.194-0.194","k95j0f80yp0wzkd",733,"76.csv","","261","resources/trios/L1T2A3.jpg","39","restless",0.6,0.4,0.7,0.110505659027609,"true"
"image-keyboard-response",595,406176,"0.0-4.194-1.194","k95j0f80yp0wzkd",733,"76.csv","","null","resources/maskTrios/BBA3.jpg","null","",NA,NA,NA,NA,""
"image-keyboard-response",596,407396,"0.0-4.194-2.194","k95j0f80yp0wzkd",733,"76.csv","","null","resources/images/coin2.png","null","",NA,NA,NA,NA,""
"image-keyboard-response",597,407482,"0.0-4.195-0.195","k95j0f80yp0wzkd",733,"76.csv","","84","resources/trios/L1T2A3.jpg","39","restless",0.6,0.5,0.7,0.957132030929269,"false"
"image-keyboard-response",598,407936,"0.0-4.195-1.195","k95j0f80yp0wzkd",733,"76.csv","","null","resources/maskTrios/BBA3.jpg","null","",NA,NA,NA,NA,""
"image-keyboard-response",599,409147,"0.0-4.195-2.195","k95j0f80yp0wzkd",733,"76.csv","","null","resources/images/fishbone.png","null","",NA,NA,NA,NA,""
"image-keyboard-response",600,409260,"0.0-4.196-0.196","k95j0f80yp0wzkd",733,"76.csv","","111","resources/trios/L1T2A3.jpg","37","restless",0.6,0.5,0.7,0.343859977687124,"true"
"image-keyboard-response",601,409666,"0.0-4.196-1.196","k95j0f80yp0wzkd",733,"76.csv","","null","resources/maskTrios/L1BB.jpg","null","",NA,NA,NA,NA,""
"image-keyboard-response",602,410887,"0.0-4.196-2.196","k95j0f80yp0wzkd",733,"76.csv","","null","resources/images/coin2.png","null","",NA,NA,NA,NA,""
"image-keyboard-response",603,411230,"0.0-4.197-0.197","k95j0f80yp0wzkd",733,"76.csv","","341","resources/trios/L1T2A3.jpg","37","restless",0.6,0.6,0.7,0.345323475823371,"true"
"image-keyboard-response",604,411687,"0.0-4.197-1.197","k95j0f80yp0wzkd",733,"76.csv","","null","resources/maskTrios/L1BB.jpg","null","",NA,NA,NA,NA,""
"image-keyboard-response",605,412971,"0.0-4.197-2.197","k95j0f80yp0wzkd",733,"76.csv","","null","resources/images/coin2.png","null","",NA,NA,NA,NA,""
"image-keyboard-response",606,413301,"0.0-4.198-0.198","k95j0f80yp0wzkd",733,"76.csv","","329","resources/trios/L1T2A3.jpg","37","restless",0.6,0.6,0.7,0.938634568364109,"false"
"image-keyboard-response",607,413727,"0.0-4.198-1.198","k95j0f80yp0wzkd",733,"76.csv","","null","resources/maskTrios/L1BB.jpg","null","",NA,NA,NA,NA,""
"image-keyboard-response",608,414936,"0.0-4.198-2.198","k95j0f80yp0wzkd",733,"76.csv","","null","resources/images/fishbone.png","null","",NA,NA,NA,NA,""
"image-keyboard-response",609,415282,"0.0-4.199-0.199","k95j0f80yp0wzkd",733,"76.csv","","344","resources/trios/L1T2A3.jpg","39","restless",0.6,0.6,0.7,0.652510055750427,"true"
"image-keyboard-response",610,415687,"0.0-4.199-1.199","k95j0f80yp0wzkd",733,"76.csv","","null","resources/maskTrios/BBA3.jpg","null","",NA,NA,NA,NA,""
"image-keyboard-response",611,416896,"0.0-4.199-2.199","k95j0f80yp0wzkd",733,"76.csv","","null","resources/images/coin2.png","null","",NA,NA,NA,NA,""
"survey-text",612,532878,"0.0-5.0","k95j0f80yp0wzkd",733,"76.csv","","115964","","","",NA,NA,NA,NA,""
