"trial_type","trial_index","time_elapsed","internal_node_id","subject","participantCode","walkNumber","success","rt","stimulus","key_press","test_part","leftProb","midProb","rightProb","generatedNum","correct"
"pavlovia",0,812,"0.0-0.0","seu4neodvh38f7y",767,"194.csv","","","","","",NA,NA,NA,NA,""
"fullscreen",1,22572,"0.0-1.0","seu4neodvh38f7y",767,"194.csv","true","","","","",NA,NA,NA,NA,""
"survey-html-form",2,30919,"0.0-2.0","seu4neodvh38f7y",767,"194.csv","","8343.39999999106","","","",NA,NA,NA,NA,""
"image-keyboard-response",3,38746,"0.0-3.0-0.0","seu4neodvh38f7y",767,"194.csv","","7823","resources/images/parrot_nobg.png","13","",NA,NA,NA,NA,""
"image-keyboard-response",4,41748,"0.0-3.0-1.0","seu4neodvh38f7y",767,"194.csv","","null","resources/image_sets/111.png","null","",NA,NA,NA,NA,""
"image-keyboard-response",5,47182,"0.0-3.0-2.0","seu4neodvh38f7y",767,"194.csv","","5432.4000000059605","resources/image_sets/left_highlight.png","37","",NA,NA,NA,NA,""
"image-keyboard-response",6,50472,"0.0-3.0-3.0","seu4neodvh38f7y",767,"194.csv","","3288.5","resources/image_sets/mid_highlight.png","38","",NA,NA,NA,NA,""
"image-keyboard-response",7,51811,"0.0-3.0-4.0","seu4neodvh38f7y",767,"194.csv","","1337.6000000089407","resources/image_sets/right_highlight.png","39","",NA,NA,NA,NA,""
"image-keyboard-response",8,55416,"0.0-3.0-5.0","seu4neodvh38f7y",767,"194.csv","","3603.2999999970198","resources/image_sets/111.png","13","",NA,NA,NA,NA,""
"image-keyboard-response",9,57335,"0.0-3.0-6.0","seu4neodvh38f7y",767,"194.csv","","1918","resources/images/coin2.png","13","",NA,NA,NA,NA,""
"image-keyboard-response",10,58404,"0.0-3.0-7.0","seu4neodvh38f7y",767,"194.csv","","1068","resources/images/fishbone.png","13","",NA,NA,NA,NA,""
"html-keyboard-response",11,62092,"0.0-3.0-8.0","seu4neodvh38f7y",767,"194.csv","","3687.4000000059605","<p>You can track your coin total on the top right of your screen. </p><p>At the end of your journey you will be directed to a survey, so please click on the link before exiting the task</p><p>Press Enter to begin</p>","13","",NA,NA,NA,NA,""
"image-keyboard-response",12,66550,"0.0-4.0-0.0","seu4neodvh38f7y",767,"194.csv","","4456","resources/trios/L1T2A3.jpg","38","restless",0.3,0.9,0.7,0.532048493388392,"true"
"image-keyboard-response",13,66957,"0.0-4.0-1.0","seu4neodvh38f7y",767,"194.csv","","null","resources/maskTrios/BT2B.jpg","null","",NA,NA,NA,NA,""
"image-keyboard-response",14,68164,"0.0-4.0-2.0","seu4neodvh38f7y",767,"194.csv","","null","resources/images/coin2.png","null","",NA,NA,NA,NA,""
"image-keyboard-response",15,72507,"0.0-4.1-0.1","seu4neodvh38f7y",767,"194.csv","","4339.79999999702","resources/trios/L1T2A3.jpg","38","restless",0.4,0.9,0.7,0.100301874279362,"true"
"image-keyboard-response",16,72910,"0.0-4.1-1.1","seu4neodvh38f7y",767,"194.csv","","null","resources/maskTrios/BT2B.jpg","null","",NA,NA,NA,NA,""
"image-keyboard-response",17,74114,"0.0-4.1-2.1","seu4neodvh38f7y",767,"194.csv","","null","resources/images/coin2.png","null","",NA,NA,NA,NA,""
"image-keyboard-response",18,76077,"0.0-4.2-0.2","seu4neodvh38f7y",767,"194.csv","","1960.2000000029802","resources/trios/L1T2A3.jpg","38","restless",0.3,0.9,0.7,0.540191122701958,"true"
"image-keyboard-response",19,76479,"0.0-4.2-1.2","seu4neodvh38f7y",767,"194.csv","","null","resources/maskTrios/BT2B.jpg","null","",NA,NA,NA,NA,""
"image-keyboard-response",20,77684,"0.0-4.2-2.2","seu4neodvh38f7y",767,"194.csv","","null","resources/images/coin2.png","null","",NA,NA,NA,NA,""
"image-keyboard-response",21,78784,"0.0-4.3-0.3","seu4neodvh38f7y",767,"194.csv","","1097.0999999940395","resources/trios/L1T2A3.jpg","38","restless",0.3,0.9,0.7,0.0735944374437809,"true"
"image-keyboard-response",22,79187,"0.0-4.3-1.3","seu4neodvh38f7y",767,"194.csv","","null","resources/maskTrios/BT2B.jpg","null","",NA,NA,NA,NA,""
"image-keyboard-response",23,80391,"0.0-4.3-2.3","seu4neodvh38f7y",767,"194.csv","","null","resources/images/coin2.png","null","",NA,NA,NA,NA,""
"image-keyboard-response",24,81143,"0.0-4.4-0.4","seu4neodvh38f7y",767,"194.csv","","750.3000000119209","resources/trios/L1T2A3.jpg","38","restless",0.3,0.9,0.7,0.756943045548085,"true"
"image-keyboard-response",25,81554,"0.0-4.4-1.4","seu4neodvh38f7y",767,"194.csv","","null","resources/maskTrios/BT2B.jpg","null","",NA,NA,NA,NA,""
"image-keyboard-response",26,82758,"0.0-4.4-2.4","seu4neodvh38f7y",767,"194.csv","","null","resources/images/coin2.png","null","",NA,NA,NA,NA,""
"image-keyboard-response",27,83469,"0.0-4.5-0.5","seu4neodvh38f7y",767,"194.csv","","708.7000000029802","resources/trios/L1T2A3.jpg","38","restless",0.3,0.9,0.7,0.590264404768857,"true"
"image-keyboard-response",28,83873,"0.0-4.5-1.5","seu4neodvh38f7y",767,"194.csv","","null","resources/maskTrios/BT2B.jpg","null","",NA,NA,NA,NA,""
"image-keyboard-response",29,85077,"0.0-4.5-2.5","seu4neodvh38f7y",767,"194.csv","","null","resources/images/coin2.png","null","",NA,NA,NA,NA,""
"image-keyboard-response",30,85502,"0.0-4.6-0.6","seu4neodvh38f7y",767,"194.csv","","422.5","resources/trios/L1T2A3.jpg","38","restless",0.3,0.9,0.7,0.127273387661516,"true"
"image-keyboard-response",31,85905,"0.0-4.6-1.6","seu4neodvh38f7y",767,"194.csv","","null","resources/maskTrios/BT2B.jpg","null","",NA,NA,NA,NA,""
"image-keyboard-response",32,87109,"0.0-4.6-2.6","seu4neodvh38f7y",767,"194.csv","","null","resources/images/coin2.png","null","",NA,NA,NA,NA,""
"image-keyboard-response",33,87657,"0.0-4.7-0.7","seu4neodvh38f7y",767,"194.csv","","546.4000000059605","resources/trios/L1T2A3.jpg","38","restless",0.4,0.9,0.7,0.0410390839524328,"true"
"image-keyboard-response",34,88060,"0.0-4.7-1.7","seu4neodvh38f7y",767,"194.csv","","null","resources/maskTrios/BT2B.jpg","null","",NA,NA,NA,NA,""
"image-keyboard-response",35,89263,"0.0-4.7-2.7","seu4neodvh38f7y",767,"194.csv","","null","resources/images/coin2.png","null","",NA,NA,NA,NA,""
"image-keyboard-response",36,89673,"0.0-4.8-0.8","seu4neodvh38f7y",767,"194.csv","","408.79999999701977","resources/trios/L1T2A3.jpg","38","restless",0.4,0.8,0.7,0.1908457921426,"true"
"image-keyboard-response",37,90077,"0.0-4.8-1.8","seu4neodvh38f7y",767,"194.csv","","null","resources/maskTrios/BT2B.jpg","null","",NA,NA,NA,NA,""
"image-keyboard-response",38,91280,"0.0-4.8-2.8","seu4neodvh38f7y",767,"194.csv","","null","resources/images/coin2.png","null","",NA,NA,NA,NA,""
"image-keyboard-response",39,91615,"0.0-4.9-0.9","seu4neodvh38f7y",767,"194.csv","","332.70000000298023","resources/trios/L1T2A3.jpg","38","restless",0.4,0.8,0.7,0.0569863790066429,"true"
"image-keyboard-response",40,92019,"0.0-4.9-1.9","seu4neodvh38f7y",767,"194.csv","","null","resources/maskTrios/BT2B.jpg","null","",NA,NA,NA,NA,""
"image-keyboard-response",41,93222,"0.0-4.9-2.9","seu4neodvh38f7y",767,"194.csv","","null","resources/images/coin2.png","null","",NA,NA,NA,NA,""
"image-keyboard-response",42,93567,"0.0-4.10-0.10","seu4neodvh38f7y",767,"194.csv","","343.70000000298023","resources/trios/L1T2A3.jpg","38","restless",0.4,0.8,0.7,0.580755022097275,"true"
"image-keyboard-response",43,93970,"0.0-4.10-1.10","seu4neodvh38f7y",767,"194.csv","","null","resources/maskTrios/BT2B.jpg","null","",NA,NA,NA,NA,""
"image-keyboard-response",44,95173,"0.0-4.10-2.10","seu4neodvh38f7y",767,"194.csv","","null","resources/images/coin2.png","null","",NA,NA,NA,NA,""
"image-keyboard-response",45,95680,"0.0-4.11-0.11","seu4neodvh38f7y",767,"194.csv","","505.90000000596046","resources/trios/L1T2A3.jpg","38","restless",0.4,0.8,0.7,0.534738199889306,"true"
"image-keyboard-response",46,96083,"0.0-4.11-1.11","seu4neodvh38f7y",767,"194.csv","","null","resources/maskTrios/BT2B.jpg","null","",NA,NA,NA,NA,""
"image-keyboard-response",47,97286,"0.0-4.11-2.11","seu4neodvh38f7y",767,"194.csv","","null","resources/images/coin2.png","null","",NA,NA,NA,NA,""
"image-keyboard-response",48,97670,"0.0-4.12-0.12","seu4neodvh38f7y",767,"194.csv","","381.19999998807907","resources/trios/L1T2A3.jpg","38","restless",0.4,0.8,0.7,0.196222098163182,"true"
"image-keyboard-response",49,98073,"0.0-4.12-1.12","seu4neodvh38f7y",767,"194.csv","","null","resources/maskTrios/BT2B.jpg","null","",NA,NA,NA,NA,""
"image-keyboard-response",50,99277,"0.0-4.12-2.12","seu4neodvh38f7y",767,"194.csv","","null","resources/images/coin2.png","null","",NA,NA,NA,NA,""
"image-keyboard-response",51,99604,"0.0-4.13-0.13","seu4neodvh38f7y",767,"194.csv","","325.90000000596046","resources/trios/L1T2A3.jpg","38","restless",0.4,0.8,0.7,0.387320657140271,"true"
"image-keyboard-response",52,100008,"0.0-4.13-1.13","seu4neodvh38f7y",767,"194.csv","","null","resources/maskTrios/BT2B.jpg","null","",NA,NA,NA,NA,""
"image-keyboard-response",53,101211,"0.0-4.13-2.13","seu4neodvh38f7y",767,"194.csv","","null","resources/images/coin2.png","null","",NA,NA,NA,NA,""
"image-keyboard-response",54,101684,"0.0-4.14-0.14","seu4neodvh38f7y",767,"194.csv","","470.90000000596046","resources/trios/L1T2A3.jpg","38","restless",0.4,0.8,0.7,0.635232149984247,"true"
"image-keyboard-response",55,102087,"0.0-4.14-1.14","seu4neodvh38f7y",767,"194.csv","","null","resources/maskTrios/BT2B.jpg","null","",NA,NA,NA,NA,""
"image-keyboard-response",56,103289,"0.0-4.14-2.14","seu4neodvh38f7y",767,"194.csv","","null","resources/images/coin2.png","null","",NA,NA,NA,NA,""
"image-keyboard-response",57,103697,"0.0-4.15-0.15","seu4neodvh38f7y",767,"194.csv","","405.5","resources/trios/L1T2A3.jpg","38","restless",0.4,0.8,0.7,0.359876613853493,"true"
"image-keyboard-response",58,104101,"0.0-4.15-1.15","seu4neodvh38f7y",767,"194.csv","","null","resources/maskTrios/BT2B.jpg","null","",NA,NA,NA,NA,""
"image-keyboard-response",59,105304,"0.0-4.15-2.15","seu4neodvh38f7y",767,"194.csv","","null","resources/images/coin2.png","null","",NA,NA,NA,NA,""
"image-keyboard-response",60,106043,"0.0-4.16-0.16","seu4neodvh38f7y",767,"194.csv","","736.9000000059605","resources/trios/L1T2A3.jpg","38","restless",0.4,0.8,0.7,0.738028667245541,"true"
"image-keyboard-response",61,106446,"0.0-4.16-1.16","seu4neodvh38f7y",767,"194.csv","","null","resources/maskTrios/BT2B.jpg","null","",NA,NA,NA,NA,""
"image-keyboard-response",62,107660,"0.0-4.16-2.16","seu4neodvh38f7y",767,"194.csv","","null","resources/images/coin2.png","null","",NA,NA,NA,NA,""
"image-keyboard-response",63,108044,"0.0-4.17-0.17","seu4neodvh38f7y",767,"194.csv","","382.20000000298023","resources/trios/L1T2A3.jpg","38","restless",0.3,0.8,0.7,0.659373704105728,"true"
"image-keyboard-response",64,108447,"0.0-4.17-1.17","seu4neodvh38f7y",767,"194.csv","","null","resources/maskTrios/BT2B.jpg","null","",NA,NA,NA,NA,""
"image-keyboard-response",65,109650,"0.0-4.17-2.17","seu4neodvh38f7y",767,"194.csv","","null","resources/images/coin2.png","null","",NA,NA,NA,NA,""
"image-keyboard-response",66,110071,"0.0-4.18-0.18","seu4neodvh38f7y",767,"194.csv","","419.29999999701977","resources/trios/L1T2A3.jpg","38","restless",0.3,0.8,0.7,0.993844051672725,"false"
"image-keyboard-response",67,110474,"0.0-4.18-1.18","seu4neodvh38f7y",767,"194.csv","","null","resources/maskTrios/BT2B.jpg","null","",NA,NA,NA,NA,""
"image-keyboard-response",68,111676,"0.0-4.18-2.18","seu4neodvh38f7y",767,"194.csv","","null","resources/images/fishbone.png","null","",NA,NA,NA,NA,""
"image-keyboard-response",69,113252,"0.0-4.19-0.19","seu4neodvh38f7y",767,"194.csv","","1574.1000000089407","resources/trios/L1T2A3.jpg","38","restless",0.3,0.8,0.7,0.102878441920554,"true"
"image-keyboard-response",70,113655,"0.0-4.19-1.19","seu4neodvh38f7y",767,"194.csv","","null","resources/maskTrios/BT2B.jpg","null","",NA,NA,NA,NA,""
"image-keyboard-response",71,114859,"0.0-4.19-2.19","seu4neodvh38f7y",767,"194.csv","","null","resources/images/coin2.png","null","",NA,NA,NA,NA,""
"image-keyboard-response",72,115193,"0.0-4.20-0.20","seu4neodvh38f7y",767,"194.csv","","332.79999999701977","resources/trios/L1T2A3.jpg","38","restless",0.3,0.7,0.7,0.756419177288246,"false"
"image-keyboard-response",73,115595,"0.0-4.20-1.20","seu4neodvh38f7y",767,"194.csv","","null","resources/maskTrios/BT2B.jpg","null","",NA,NA,NA,NA,""
"image-keyboard-response",74,116797,"0.0-4.20-2.20","seu4neodvh38f7y",767,"194.csv","","null","resources/images/fishbone.png","null","",NA,NA,NA,NA,""
"image-keyboard-response",75,117177,"0.0-4.21-0.21","seu4neodvh38f7y",767,"194.csv","","379.20000000298023","resources/trios/L1T2A3.jpg","37","restless",0.3,0.7,0.7,0.532227723804037,"false"
"image-keyboard-response",76,117579,"0.0-4.21-1.21","seu4neodvh38f7y",767,"194.csv","","null","resources/maskTrios/L1BB.jpg","null","",NA,NA,NA,NA,""
"image-keyboard-response",77,118781,"0.0-4.21-2.21","seu4neodvh38f7y",767,"194.csv","","null","resources/images/fishbone.png","null","",NA,NA,NA,NA,""
"image-keyboard-response",78,119019,"0.0-4.22-0.22","seu4neodvh38f7y",767,"194.csv","","235.69999998807907","resources/trios/L1T2A3.jpg","38","restless",0.3,0.7,0.7,0.646786402197478,"true"
"image-keyboard-response",79,119422,"0.0-4.22-1.22","seu4neodvh38f7y",767,"194.csv","","null","resources/maskTrios/BT2B.jpg","null","",NA,NA,NA,NA,""
"image-keyboard-response",80,120625,"0.0-4.22-2.22","seu4neodvh38f7y",767,"194.csv","","null","resources/images/coin2.png","null","",NA,NA,NA,NA,""
"image-keyboard-response",81,121329,"0.0-4.23-0.23","seu4neodvh38f7y",767,"194.csv","","701.8999999910593","resources/trios/L1T2A3.jpg","38","restless",0.3,0.7,0.7,0.158775348925649,"true"
"image-keyboard-response",82,121732,"0.0-4.23-1.23","seu4neodvh38f7y",767,"194.csv","","null","resources/maskTrios/BT2B.jpg","null","",NA,NA,NA,NA,""
"image-keyboard-response",83,122935,"0.0-4.23-2.23","seu4neodvh38f7y",767,"194.csv","","null","resources/images/coin2.png","null","",NA,NA,NA,NA,""
"image-keyboard-response",84,123209,"0.0-4.24-0.24","seu4neodvh38f7y",767,"194.csv","","272.19999998807907","resources/trios/L1T2A3.jpg","38","restless",0.3,0.7,0.7,0.183626750824393,"true"
"image-keyboard-response",85,123623,"0.0-4.24-1.24","seu4neodvh38f7y",767,"194.csv","","null","resources/maskTrios/BT2B.jpg","null","",NA,NA,NA,NA,""
"image-keyboard-response",86,124825,"0.0-4.24-2.24","seu4neodvh38f7y",767,"194.csv","","null","resources/images/coin2.png","null","",NA,NA,NA,NA,""
"image-keyboard-response",87,125139,"0.0-4.25-0.25","seu4neodvh38f7y",767,"194.csv","","311.29999999701977","resources/trios/L1T2A3.jpg","38","restless",0.4,0.7,0.7,0.275183604098666,"true"
"image-keyboard-response",88,125543,"0.0-4.25-1.25","seu4neodvh38f7y",767,"194.csv","","null","resources/maskTrios/BT2B.jpg","null","",NA,NA,NA,NA,""
"image-keyboard-response",89,126745,"0.0-4.25-2.25","seu4neodvh38f7y",767,"194.csv","","null","resources/images/coin2.png","null","",NA,NA,NA,NA,""
"image-keyboard-response",90,126955,"0.0-4.26-0.26","seu4neodvh38f7y",767,"194.csv","","208.1000000089407","resources/trios/L1T2A3.jpg","38","restless",0.4,0.7,0.7,0.969203751110659,"false"
"image-keyboard-response",91,127359,"0.0-4.26-1.26","seu4neodvh38f7y",767,"194.csv","","null","resources/maskTrios/BT2B.jpg","null","",NA,NA,NA,NA,""
"image-keyboard-response",92,128561,"0.0-4.26-2.26","seu4neodvh38f7y",767,"194.csv","","null","resources/images/fishbone.png","null","",NA,NA,NA,NA,""
"image-keyboard-response",93,128840,"0.0-4.27-0.27","seu4neodvh38f7y",767,"194.csv","","276.40000000596046","resources/trios/L1T2A3.jpg","38","restless",0.4,0.7,0.7,0.358251653793418,"true"
"image-keyboard-response",94,129243,"0.0-4.27-1.27","seu4neodvh38f7y",767,"194.csv","","null","resources/maskTrios/BT2B.jpg","null","",NA,NA,NA,NA,""
"image-keyboard-response",95,130446,"0.0-4.27-2.27","seu4neodvh38f7y",767,"194.csv","","null","resources/images/coin2.png","null","",NA,NA,NA,NA,""
"image-keyboard-response",96,130618,"0.0-4.28-0.28","seu4neodvh38f7y",767,"194.csv","","169.79999999701977","resources/trios/L1T2A3.jpg","38","restless",0.4,0.7,0.8,0.15454705658819,"true"
"image-keyboard-response",97,131022,"0.0-4.28-1.28","seu4neodvh38f7y",767,"194.csv","","null","resources/maskTrios/BT2B.jpg","null","",NA,NA,NA,NA,""
"image-keyboard-response",98,132224,"0.0-4.28-2.28","seu4neodvh38f7y",767,"194.csv","","null","resources/images/coin2.png","null","",NA,NA,NA,NA,""
"image-keyboard-response",99,132510,"0.0-4.29-0.29","seu4neodvh38f7y",767,"194.csv","","282.8999999910593","resources/trios/L1T2A3.jpg","38","restless",0.4,0.7,0.8,0.167751738514612,"true"
"image-keyboard-response",100,132912,"0.0-4.29-1.29","seu4neodvh38f7y",767,"194.csv","","null","resources/maskTrios/BT2B.jpg","null","",NA,NA,NA,NA,""
"image-keyboard-response",101,134115,"0.0-4.29-2.29","seu4neodvh38f7y",767,"194.csv","","null","resources/images/coin2.png","null","",NA,NA,NA,NA,""
"image-keyboard-response",102,134396,"0.0-4.30-0.30","seu4neodvh38f7y",767,"194.csv","","278.70000000298023","resources/trios/L1T2A3.jpg","38","restless",0.4,0.6,0.9,0.191523706964351,"true"
"image-keyboard-response",103,134805,"0.0-4.30-1.30","seu4neodvh38f7y",767,"194.csv","","null","resources/maskTrios/BT2B.jpg","null","",NA,NA,NA,NA,""
"image-keyboard-response",104,136008,"0.0-4.30-2.30","seu4neodvh38f7y",767,"194.csv","","null","resources/images/coin2.png","null","",NA,NA,NA,NA,""
"image-keyboard-response",105,136203,"0.0-4.31-0.31","seu4neodvh38f7y",767,"194.csv","","192.30000001192093","resources/trios/L1T2A3.jpg","38","restless",0.4,0.6,0.9,0.72547951350266,"false"
"image-keyboard-response",106,136605,"0.0-4.31-1.31","seu4neodvh38f7y",767,"194.csv","","null","resources/maskTrios/BT2B.jpg","null","",NA,NA,NA,NA,""
"image-keyboard-response",107,137807,"0.0-4.31-2.31","seu4neodvh38f7y",767,"194.csv","","null","resources/images/fishbone.png","null","",NA,NA,NA,NA,""
"image-keyboard-response",108,138208,"0.0-4.32-0.32","seu4neodvh38f7y",767,"194.csv","","398.40000000596046","resources/trios/L1T2A3.jpg","38","restless",0.4,0.6,0.9,0.549051828820426,"true"
"image-keyboard-response",109,138610,"0.0-4.32-1.32","seu4neodvh38f7y",767,"194.csv","","null","resources/maskTrios/BT2B.jpg","null","",NA,NA,NA,NA,""
"image-keyboard-response",110,139813,"0.0-4.32-2.32","seu4neodvh38f7y",767,"194.csv","","null","resources/images/coin2.png","null","",NA,NA,NA,NA,""
"image-keyboard-response",111,140181,"0.0-4.33-0.33","seu4neodvh38f7y",767,"194.csv","","366","resources/trios/L1T2A3.jpg","38","restless",0.4,0.6,0.9,0.580594839217743,"true"
"image-keyboard-response",112,140584,"0.0-4.33-1.33","seu4neodvh38f7y",767,"194.csv","","null","resources/maskTrios/BT2B.jpg","null","",NA,NA,NA,NA,""
"image-keyboard-response",113,141787,"0.0-4.33-2.33","seu4neodvh38f7y",767,"194.csv","","null","resources/images/coin2.png","null","",NA,NA,NA,NA,""
"image-keyboard-response",114,142128,"0.0-4.34-0.34","seu4neodvh38f7y",767,"194.csv","","339.09999999403954","resources/trios/L1T2A3.jpg","38","restless",0.4,0.6,0.8,0.54207929086602,"true"
"image-keyboard-response",115,142530,"0.0-4.34-1.34","seu4neodvh38f7y",767,"194.csv","","null","resources/maskTrios/BT2B.jpg","null","",NA,NA,NA,NA,""
"image-keyboard-response",116,143737,"0.0-4.34-2.34","seu4neodvh38f7y",767,"194.csv","","null","resources/images/coin2.png","null","",NA,NA,NA,NA,""
"image-keyboard-response",117,144062,"0.0-4.35-0.35","seu4neodvh38f7y",767,"194.csv","","323.3999999910593","resources/trios/L1T2A3.jpg","38","restless",0.4,0.6,0.8,0.864338124668845,"false"
"image-keyboard-response",118,144466,"0.0-4.35-1.35","seu4neodvh38f7y",767,"194.csv","","null","resources/maskTrios/BT2B.jpg","null","",NA,NA,NA,NA,""
"image-keyboard-response",119,145668,"0.0-4.35-2.35","seu4neodvh38f7y",767,"194.csv","","null","resources/images/fishbone.png","null","",NA,NA,NA,NA,""
"image-keyboard-response",120,146475,"0.0-4.36-0.36","seu4neodvh38f7y",767,"194.csv","","804.9000000059605","resources/trios/L1T2A3.jpg","38","restless",0.4,0.6,0.8,0.178840652536083,"true"
"image-keyboard-response",121,146889,"0.0-4.36-1.36","seu4neodvh38f7y",767,"194.csv","","null","resources/maskTrios/BT2B.jpg","null","",NA,NA,NA,NA,""
"image-keyboard-response",122,148092,"0.0-4.36-2.36","seu4neodvh38f7y",767,"194.csv","","null","resources/images/coin2.png","null","",NA,NA,NA,NA,""
"image-keyboard-response",123,148392,"0.0-4.37-0.37","seu4neodvh38f7y",767,"194.csv","","299.09999999403954","resources/trios/L1T2A3.jpg","38","restless",0.4,0.6,0.8,0.555238472709885,"true"
"image-keyboard-response",124,148795,"0.0-4.37-1.37","seu4neodvh38f7y",767,"194.csv","","null","resources/maskTrios/BT2B.jpg","null","",NA,NA,NA,NA,""
"image-keyboard-response",125,149998,"0.0-4.37-2.37","seu4neodvh38f7y",767,"194.csv","","null","resources/images/coin2.png","null","",NA,NA,NA,NA,""
"image-keyboard-response",126,150481,"0.0-4.38-0.38","seu4neodvh38f7y",767,"194.csv","","479.79999999701977","resources/trios/L1T2A3.jpg","38","restless",0.4,0.6,0.7,0.973193600669987,"false"
"image-keyboard-response",127,150884,"0.0-4.38-1.38","seu4neodvh38f7y",767,"194.csv","","null","resources/maskTrios/BT2B.jpg","null","",NA,NA,NA,NA,""
"image-keyboard-response",128,152086,"0.0-4.38-2.38","seu4neodvh38f7y",767,"194.csv","","null","resources/images/fishbone.png","null","",NA,NA,NA,NA,""
"image-keyboard-response",129,152442,"0.0-4.39-0.39","seu4neodvh38f7y",767,"194.csv","","353.79999999701977","resources/trios/L1T2A3.jpg","38","restless",0.4,0.6,0.7,0.491200512082052,"true"
"image-keyboard-response",130,152845,"0.0-4.39-1.39","seu4neodvh38f7y",767,"194.csv","","null","resources/maskTrios/BT2B.jpg","null","",NA,NA,NA,NA,""
"image-keyboard-response",131,154049,"0.0-4.39-2.39","seu4neodvh38f7y",767,"194.csv","","null","resources/images/coin2.png","null","",NA,NA,NA,NA,""
"image-keyboard-response",132,154390,"0.0-4.40-0.40","seu4neodvh38f7y",767,"194.csv","","338.79999999701977","resources/trios/L1T2A3.jpg","38","restless",0.4,0.6,0.7,0.516616845085136,"true"
"image-keyboard-response",133,154794,"0.0-4.40-1.40","seu4neodvh38f7y",767,"194.csv","","null","resources/maskTrios/BT2B.jpg","null","",NA,NA,NA,NA,""
"image-keyboard-response",134,155996,"0.0-4.40-2.40","seu4neodvh38f7y",767,"194.csv","","null","resources/images/coin2.png","null","",NA,NA,NA,NA,""
"image-keyboard-response",135,156302,"0.0-4.41-0.41","seu4neodvh38f7y",767,"194.csv","","303","resources/trios/L1T2A3.jpg","38","restless",0.4,0.5,0.7,0.884626507083996,"false"
"image-keyboard-response",136,156705,"0.0-4.41-1.41","seu4neodvh38f7y",767,"194.csv","","null","resources/maskTrios/BT2B.jpg","null","",NA,NA,NA,NA,""
"image-keyboard-response",137,157920,"0.0-4.41-2.41","seu4neodvh38f7y",767,"194.csv","","null","resources/images/fishbone.png","null","",NA,NA,NA,NA,""
"image-keyboard-response",138,158198,"0.0-4.42-0.42","seu4neodvh38f7y",767,"194.csv","","275.79999999701977","resources/trios/L1T2A3.jpg","38","restless",0.4,0.5,0.7,0.534975373788571,"false"
"image-keyboard-response",139,158602,"0.0-4.42-1.42","seu4neodvh38f7y",767,"194.csv","","null","resources/maskTrios/BT2B.jpg","null","",NA,NA,NA,NA,""
"image-keyboard-response",140,159805,"0.0-4.42-2.42","seu4neodvh38f7y",767,"194.csv","","null","resources/images/fishbone.png","null","",NA,NA,NA,NA,""
"image-keyboard-response",141,160142,"0.0-4.43-0.43","seu4neodvh38f7y",767,"194.csv","","335.59999999403954","resources/trios/L1T2A3.jpg","38","restless",0.4,0.5,0.7,0.0398970240630838,"true"
"image-keyboard-response",142,160544,"0.0-4.43-1.43","seu4neodvh38f7y",767,"194.csv","","null","resources/maskTrios/BT2B.jpg","null","",NA,NA,NA,NA,""
"image-keyboard-response",143,161747,"0.0-4.43-2.43","seu4neodvh38f7y",767,"194.csv","","null","resources/images/coin2.png","null","",NA,NA,NA,NA,""
"image-keyboard-response",144,162014,"0.0-4.44-0.44","seu4neodvh38f7y",767,"194.csv","","264.70000000298023","resources/trios/L1T2A3.jpg","38","restless",0.4,0.5,0.7,0.974431203934985,"false"
"image-keyboard-response",145,162417,"0.0-4.44-1.44","seu4neodvh38f7y",767,"194.csv","","null","resources/maskTrios/BT2B.jpg","null","",NA,NA,NA,NA,""
"image-keyboard-response",146,163619,"0.0-4.44-2.44","seu4neodvh38f7y",767,"194.csv","","null","resources/images/fishbone.png","null","",NA,NA,NA,NA,""
"image-keyboard-response",147,163821,"0.0-4.45-0.45","seu4neodvh38f7y",767,"194.csv","","199.59999999403954","resources/trios/L1T2A3.jpg","38","restless",0.4,0.5,0.7,0.883361211194079,"false"
"image-keyboard-response",148,164224,"0.0-4.45-1.45","seu4neodvh38f7y",767,"194.csv","","null","resources/maskTrios/BT2B.jpg","null","",NA,NA,NA,NA,""
"image-keyboard-response",149,165427,"0.0-4.45-2.45","seu4neodvh38f7y",767,"194.csv","","null","resources/images/fishbone.png","null","",NA,NA,NA,NA,""
"image-keyboard-response",150,165658,"0.0-4.46-0.46","seu4neodvh38f7y",767,"194.csv","","228.5","resources/trios/L1T2A3.jpg","38","restless",0.4,0.5,0.7,0.548337879825826,"false"
"image-keyboard-response",151,166060,"0.0-4.46-1.46","seu4neodvh38f7y",767,"194.csv","","null","resources/maskTrios/BT2B.jpg","null","",NA,NA,NA,NA,""
"image-keyboard-response",152,167263,"0.0-4.46-2.46","seu4neodvh38f7y",767,"194.csv","","null","resources/images/fishbone.png","null","",NA,NA,NA,NA,""
"image-keyboard-response",153,167326,"0.0-4.47-0.47","seu4neodvh38f7y",767,"194.csv","","60.5","resources/trios/L1T2A3.jpg","39","restless",0.4,0.5,0.7,0.614301649505995,"true"
"image-keyboard-response",154,167728,"0.0-4.47-1.47","seu4neodvh38f7y",767,"194.csv","","null","resources/maskTrios/BBA3.jpg","null","",NA,NA,NA,NA,""
"image-keyboard-response",155,168930,"0.0-4.47-2.47","seu4neodvh38f7y",767,"194.csv","","null","resources/images/coin2.png","null","",NA,NA,NA,NA,""
"image-keyboard-response",156,169526,"0.0-4.48-0.48","seu4neodvh38f7y",767,"194.csv","","593.9000000059605","resources/trios/L1T2A3.jpg","39","restless",0.5,0.5,0.7,0.356827763738003,"true"
"image-keyboard-response",157,169935,"0.0-4.48-1.48","seu4neodvh38f7y",767,"194.csv","","null","resources/maskTrios/BBA3.jpg","null","",NA,NA,NA,NA,""
"image-keyboard-response",158,171138,"0.0-4.48-2.48","seu4neodvh38f7y",767,"194.csv","","null","resources/images/coin2.png","null","",NA,NA,NA,NA,""
"image-keyboard-response",159,171384,"0.0-4.49-0.49","seu4neodvh38f7y",767,"194.csv","","244","resources/trios/L1T2A3.jpg","39","restless",0.5,0.5,0.7,0.0769335490893976,"true"
"image-keyboard-response",160,171787,"0.0-4.49-1.49","seu4neodvh38f7y",767,"194.csv","","null","resources/maskTrios/BBA3.jpg","null","",NA,NA,NA,NA,""
"image-keyboard-response",161,172994,"0.0-4.49-2.49","seu4neodvh38f7y",767,"194.csv","","null","resources/images/coin2.png","null","",NA,NA,NA,NA,""
"image-keyboard-response",162,173223,"0.0-4.50-0.50","seu4neodvh38f7y",767,"194.csv","","227.09999999403954","resources/trios/L1T2A3.jpg","39","restless",0.4,0.5,0.7,0.157608928226614,"true"
"image-keyboard-response",163,173626,"0.0-4.50-1.50","seu4neodvh38f7y",767,"194.csv","","null","resources/maskTrios/BBA3.jpg","null","",NA,NA,NA,NA,""
"image-keyboard-response",164,174829,"0.0-4.50-2.50","seu4neodvh38f7y",767,"194.csv","","null","resources/images/coin2.png","null","",NA,NA,NA,NA,""
"image-keyboard-response",165,175099,"0.0-4.51-0.51","seu4neodvh38f7y",767,"194.csv","","268","resources/trios/L1T2A3.jpg","39","restless",0.4,0.4,0.7,0.127291140969586,"true"
"image-keyboard-response",166,175501,"0.0-4.51-1.51","seu4neodvh38f7y",767,"194.csv","","null","resources/maskTrios/BBA3.jpg","null","",NA,NA,NA,NA,""
"image-keyboard-response",167,176704,"0.0-4.51-2.51","seu4neodvh38f7y",767,"194.csv","","null","resources/images/coin2.png","null","",NA,NA,NA,NA,""
"image-keyboard-response",168,176961,"0.0-4.52-0.52","seu4neodvh38f7y",767,"194.csv","","255.19999998807907","resources/trios/L1T2A3.jpg","39","restless",0.5,0.4,0.7,0.425637227920242,"true"
"image-keyboard-response",169,177364,"0.0-4.52-1.52","seu4neodvh38f7y",767,"194.csv","","null","resources/maskTrios/BBA3.jpg","null","",NA,NA,NA,NA,""
"image-keyboard-response",170,178567,"0.0-4.52-2.52","seu4neodvh38f7y",767,"194.csv","","null","resources/images/coin2.png","null","",NA,NA,NA,NA,""
"image-keyboard-response",171,178832,"0.0-4.53-0.53","seu4neodvh38f7y",767,"194.csv","","263.5","resources/trios/L1T2A3.jpg","39","restless",0.5,0.4,0.7,0.666168331375655,"true"
"image-keyboard-response",172,179237,"0.0-4.53-1.53","seu4neodvh38f7y",767,"194.csv","","null","resources/maskTrios/BBA3.jpg","null","",NA,NA,NA,NA,""
"image-keyboard-response",173,180440,"0.0-4.53-2.53","seu4neodvh38f7y",767,"194.csv","","null","resources/images/coin2.png","null","",NA,NA,NA,NA,""
"image-keyboard-response",174,180689,"0.0-4.54-0.54","seu4neodvh38f7y",767,"194.csv","","248.29999999701977","resources/trios/L1T2A3.jpg","39","restless",0.5,0.4,0.6,0.0974452915868145,"true"
"image-keyboard-response",175,181093,"0.0-4.54-1.54","seu4neodvh38f7y",767,"194.csv","","null","resources/maskTrios/BBA3.jpg","null","",NA,NA,NA,NA,""
"image-keyboard-response",176,182296,"0.0-4.54-2.54","seu4neodvh38f7y",767,"194.csv","","null","resources/images/coin2.png","null","",NA,NA,NA,NA,""
"image-keyboard-response",177,182325,"0.0-4.55-0.55","seu4neodvh38f7y",767,"194.csv","","26.299999997019768","resources/trios/L1T2A3.jpg","39","restless",0.5,0.4,0.6,0.279463617608148,"true"
"image-keyboard-response",178,182729,"0.0-4.55-1.55","seu4neodvh38f7y",767,"194.csv","","null","resources/maskTrios/BBA3.jpg","null","",NA,NA,NA,NA,""
"image-keyboard-response",179,183931,"0.0-4.55-2.55","seu4neodvh38f7y",767,"194.csv","","null","resources/images/coin2.png","null","",NA,NA,NA,NA,""
"image-keyboard-response",180,184061,"0.0-4.56-0.56","seu4neodvh38f7y",767,"194.csv","","128.3999999910593","resources/trios/L1T2A3.jpg","39","restless",0.4,0.3,0.6,0.00992097730262476,"true"
"image-keyboard-response",181,184465,"0.0-4.56-1.56","seu4neodvh38f7y",767,"194.csv","","null","resources/maskTrios/BBA3.jpg","null","",NA,NA,NA,NA,""
"image-keyboard-response",182,185669,"0.0-4.56-2.56","seu4neodvh38f7y",767,"194.csv","","null","resources/images/coin2.png","null","",NA,NA,NA,NA,""
"image-keyboard-response",183,186040,"0.0-4.57-0.57","seu4neodvh38f7y",767,"194.csv","","369.70000000298023","resources/trios/L1T2A3.jpg","39","restless",0.4,0.3,0.6,0.201184230613717,"true"
"image-keyboard-response",184,186444,"0.0-4.57-1.57","seu4neodvh38f7y",767,"194.csv","","null","resources/maskTrios/BBA3.jpg","null","",NA,NA,NA,NA,""
"image-keyboard-response",185,187647,"0.0-4.57-2.57","seu4neodvh38f7y",767,"194.csv","","null","resources/images/coin2.png","null","",NA,NA,NA,NA,""
"image-keyboard-response",186,187919,"0.0-4.58-0.58","seu4neodvh38f7y",767,"194.csv","","270.09999999403954","resources/trios/L1T2A3.jpg","39","restless",0.4,0.3,0.6,0.372560680370037,"true"
"image-keyboard-response",187,188323,"0.0-4.58-1.58","seu4neodvh38f7y",767,"194.csv","","null","resources/maskTrios/BBA3.jpg","null","",NA,NA,NA,NA,""
"image-keyboard-response",188,189526,"0.0-4.58-2.58","seu4neodvh38f7y",767,"194.csv","","null","resources/images/coin2.png","null","",NA,NA,NA,NA,""
"image-keyboard-response",189,189800,"0.0-4.59-0.59","seu4neodvh38f7y",767,"194.csv","","271.59999999403954","resources/trios/L1T2A3.jpg","39","restless",0.4,0.3,0.6,0.334529214703292,"true"
"image-keyboard-response",190,190203,"0.0-4.59-1.59","seu4neodvh38f7y",767,"194.csv","","null","resources/maskTrios/BBA3.jpg","null","",NA,NA,NA,NA,""
"image-keyboard-response",191,191406,"0.0-4.59-2.59","seu4neodvh38f7y",767,"194.csv","","null","resources/images/coin2.png","null","",NA,NA,NA,NA,""
"image-keyboard-response",192,191878,"0.0-4.60-0.60","seu4neodvh38f7y",767,"194.csv","","470.70000000298023","resources/trios/L1T2A3.jpg","39","restless",0.5,0.3,0.6,0.880983992595988,"false"
"image-keyboard-response",193,192281,"0.0-4.60-1.60","seu4neodvh38f7y",767,"194.csv","","null","resources/maskTrios/BBA3.jpg","null","",NA,NA,NA,NA,""
"image-keyboard-response",194,193484,"0.0-4.60-2.60","seu4neodvh38f7y",767,"194.csv","","null","resources/images/fishbone.png","null","",NA,NA,NA,NA,""
"image-keyboard-response",195,193709,"0.0-4.61-0.61","seu4neodvh38f7y",767,"194.csv","","221.79999999701977","resources/trios/L1T2A3.jpg","39","restless",0.5,0.3,0.6,0.744435096347754,"false"
"image-keyboard-response",196,194111,"0.0-4.61-1.61","seu4neodvh38f7y",767,"194.csv","","null","resources/maskTrios/BBA3.jpg","null","",NA,NA,NA,NA,""
"image-keyboard-response",197,195313,"0.0-4.61-2.61","seu4neodvh38f7y",767,"194.csv","","null","resources/images/fishbone.png","null","",NA,NA,NA,NA,""
"image-keyboard-response",198,195544,"0.0-4.62-0.62","seu4neodvh38f7y",767,"194.csv","","228.79999999701977","resources/trios/L1T2A3.jpg","39","restless",0.5,0.3,0.6,0.851273279040744,"false"
"image-keyboard-response",199,195947,"0.0-4.62-1.62","seu4neodvh38f7y",767,"194.csv","","null","resources/maskTrios/BBA3.jpg","null","",NA,NA,NA,NA,""
"image-keyboard-response",200,197154,"0.0-4.62-2.62","seu4neodvh38f7y",767,"194.csv","","null","resources/images/fishbone.png","null","",NA,NA,NA,NA,""
"image-keyboard-response",201,197243,"0.0-4.63-0.63","seu4neodvh38f7y",767,"194.csv","","87.5","resources/trios/L1T2A3.jpg","39","restless",0.5,0.3,0.6,0.248173751152446,"true"
"image-keyboard-response",202,197647,"0.0-4.63-1.63","seu4neodvh38f7y",767,"194.csv","","null","resources/maskTrios/BBA3.jpg","null","",NA,NA,NA,NA,""
"image-keyboard-response",203,198849,"0.0-4.63-2.63","seu4neodvh38f7y",767,"194.csv","","null","resources/images/coin2.png","null","",NA,NA,NA,NA,""
"image-keyboard-response",204,199293,"0.0-4.64-0.64","seu4neodvh38f7y",767,"194.csv","","441.70000000298023","resources/trios/L1T2A3.jpg","39","restless",0.5,0.3,0.6,0.852420878982585,"false"
"image-keyboard-response",205,199696,"0.0-4.64-1.64","seu4neodvh38f7y",767,"194.csv","","null","resources/maskTrios/BBA3.jpg","null","",NA,NA,NA,NA,""
"image-keyboard-response",206,200898,"0.0-4.64-2.64","seu4neodvh38f7y",767,"194.csv","","null","resources/images/fishbone.png","null","",NA,NA,NA,NA,""
"image-keyboard-response",207,201167,"0.0-4.65-0.65","seu4neodvh38f7y",767,"194.csv","","266.29999999701977","resources/trios/L1T2A3.jpg","37","restless",0.5,0.3,0.6,0.369522583628345,"true"
"image-keyboard-response",208,201569,"0.0-4.65-1.65","seu4neodvh38f7y",767,"194.csv","","null","resources/maskTrios/L1BB.jpg","null","",NA,NA,NA,NA,""
"image-keyboard-response",209,202771,"0.0-4.65-2.65","seu4neodvh38f7y",767,"194.csv","","null","resources/images/coin2.png","null","",NA,NA,NA,NA,""
"image-keyboard-response",210,203057,"0.0-4.66-0.66","seu4neodvh38f7y",767,"194.csv","","283.70000000298023","resources/trios/L1T2A3.jpg","37","restless",0.5,0.3,0.6,0.267553498369715,"true"
"image-keyboard-response",211,203461,"0.0-4.66-1.66","seu4neodvh38f7y",767,"194.csv","","null","resources/maskTrios/L1BB.jpg","null","",NA,NA,NA,NA,""
"image-keyboard-response",212,204663,"0.0-4.66-2.66","seu4neodvh38f7y",767,"194.csv","","null","resources/images/coin2.png","null","",NA,NA,NA,NA,""
"image-keyboard-response",213,207736,"0.0-4.67-0.67","seu4neodvh38f7y",767,"194.csv","","3070.5999999940395","resources/trios/L1T2A3.jpg","37","restless",0.5,0.3,0.6,0.768363804543334,"false"
"image-keyboard-response",214,208139,"0.0-4.67-1.67","seu4neodvh38f7y",767,"194.csv","","null","resources/maskTrios/L1BB.jpg","null","",NA,NA,NA,NA,""
"image-keyboard-response",215,209341,"0.0-4.67-2.67","seu4neodvh38f7y",767,"194.csv","","null","resources/images/fishbone.png","null","",NA,NA,NA,NA,""
"image-keyboard-response",216,210182,"0.0-4.68-0.68","seu4neodvh38f7y",767,"194.csv","","838.6999999880791","resources/trios/L1T2A3.jpg","37","restless",0.5,0.3,0.5,0.881331315851146,"false"
"image-keyboard-response",217,210585,"0.0-4.68-1.68","seu4neodvh38f7y",767,"194.csv","","null","resources/maskTrios/L1BB.jpg","null","",NA,NA,NA,NA,""
"image-keyboard-response",218,211787,"0.0-4.68-2.68","seu4neodvh38f7y",767,"194.csv","","null","resources/images/fishbone.png","null","",NA,NA,NA,NA,""
"image-keyboard-response",219,211941,"0.0-4.69-0.69","seu4neodvh38f7y",767,"194.csv","","151.90000000596046","resources/trios/L1T2A3.jpg","38","restless",0.5,0.3,0.4,0.382819207019311,"false"
"image-keyboard-response",220,212345,"0.0-4.69-1.69","seu4neodvh38f7y",767,"194.csv","","null","resources/maskTrios/BT2B.jpg","null","",NA,NA,NA,NA,""
"image-keyboard-response",221,213548,"0.0-4.69-2.69","seu4neodvh38f7y",767,"194.csv","","null","resources/images/fishbone.png","null","",NA,NA,NA,NA,""
"image-keyboard-response",222,213600,"0.0-4.70-0.70","seu4neodvh38f7y",767,"194.csv","","49.8999999910593","resources/trios/L1T2A3.jpg","39","restless",0.5,0.3,0.4,0.201224893588124,"true"
"image-keyboard-response",223,214002,"0.0-4.70-1.70","seu4neodvh38f7y",767,"194.csv","","null","resources/maskTrios/BBA3.jpg","null","",NA,NA,NA,NA,""
"image-keyboard-response",224,215205,"0.0-4.70-2.70","seu4neodvh38f7y",767,"194.csv","","null","resources/images/coin2.png","null","",NA,NA,NA,NA,""
"image-keyboard-response",225,215468,"0.0-4.71-0.71","seu4neodvh38f7y",767,"194.csv","","260.29999999701977","resources/trios/L1T2A3.jpg","39","restless",0.5,0.3,0.4,0.0473688316213352,"true"
"image-keyboard-response",226,215883,"0.0-4.71-1.71","seu4neodvh38f7y",767,"194.csv","","null","resources/maskTrios/BBA3.jpg","null","",NA,NA,NA,NA,""
"image-keyboard-response",227,217086,"0.0-4.71-2.71","seu4neodvh38f7y",767,"194.csv","","null","resources/images/coin2.png","null","",NA,NA,NA,NA,""
"image-keyboard-response",228,217366,"0.0-4.72-0.72","seu4neodvh38f7y",767,"194.csv","","277.79999999701977","resources/trios/L1T2A3.jpg","39","restless",0.5,0.3,0.4,0.328306092299688,"true"
"image-keyboard-response",229,217768,"0.0-4.72-1.72","seu4neodvh38f7y",767,"194.csv","","null","resources/maskTrios/BBA3.jpg","null","",NA,NA,NA,NA,""
"image-keyboard-response",230,218971,"0.0-4.72-2.72","seu4neodvh38f7y",767,"194.csv","","null","resources/images/coin2.png","null","",NA,NA,NA,NA,""
"image-keyboard-response",231,219212,"0.0-4.73-0.73","seu4neodvh38f7y",767,"194.csv","","239","resources/trios/L1T2A3.jpg","39","restless",0.5,0.4,0.4,0.258061603809311,"true"
"image-keyboard-response",232,219616,"0.0-4.73-1.73","seu4neodvh38f7y",767,"194.csv","","null","resources/maskTrios/BBA3.jpg","null","",NA,NA,NA,NA,""
"image-keyboard-response",233,220819,"0.0-4.73-2.73","seu4neodvh38f7y",767,"194.csv","","null","resources/images/coin2.png","null","",NA,NA,NA,NA,""
"image-keyboard-response",234,221051,"0.0-4.74-0.74","seu4neodvh38f7y",767,"194.csv","","230.29999999701977","resources/trios/L1T2A3.jpg","39","restless",0.5,0.4,0.4,0.466504531271362,"false"
"image-keyboard-response",235,221454,"0.0-4.74-1.74","seu4neodvh38f7y",767,"194.csv","","null","resources/maskTrios/BBA3.jpg","null","",NA,NA,NA,NA,""
"image-keyboard-response",236,222657,"0.0-4.74-2.74","seu4neodvh38f7y",767,"194.csv","","null","resources/images/fishbone.png","null","",NA,NA,NA,NA,""
"image-keyboard-response",237,222906,"0.0-4.75-0.75","seu4neodvh38f7y",767,"194.csv","","247.19999998807907","resources/trios/L1T2A3.jpg","37","restless",0.5,0.4,0.4,0.322049516760319,"true"
"image-keyboard-response",238,223308,"0.0-4.75-1.75","seu4neodvh38f7y",767,"194.csv","","null","resources/maskTrios/L1BB.jpg","null","",NA,NA,NA,NA,""
"image-keyboard-response",239,224511,"0.0-4.75-2.75","seu4neodvh38f7y",767,"194.csv","","null","resources/images/coin2.png","null","",NA,NA,NA,NA,""
"image-keyboard-response",240,224787,"0.0-4.76-0.76","seu4neodvh38f7y",767,"194.csv","","273.79999999701977","resources/trios/L1T2A3.jpg","37","restless",0.5,0.4,0.4,0.574229985946064,"false"
"image-keyboard-response",241,225190,"0.0-4.76-1.76","seu4neodvh38f7y",767,"194.csv","","null","resources/maskTrios/L1BB.jpg","null","",NA,NA,NA,NA,""
"image-keyboard-response",242,226393,"0.0-4.76-2.76","seu4neodvh38f7y",767,"194.csv","","null","resources/images/fishbone.png","null","",NA,NA,NA,NA,""
"image-keyboard-response",243,226655,"0.0-4.77-0.77","seu4neodvh38f7y",767,"194.csv","","260.5","resources/trios/L1T2A3.jpg","38","restless",0.5,0.3,0.4,0.290078710329238,"true"
"image-keyboard-response",244,227059,"0.0-4.77-1.77","seu4neodvh38f7y",767,"194.csv","","null","resources/maskTrios/BT2B.jpg","null","",NA,NA,NA,NA,""
"image-keyboard-response",245,228262,"0.0-4.77-2.77","seu4neodvh38f7y",767,"194.csv","","null","resources/images/coin2.png","null","",NA,NA,NA,NA,""
"image-keyboard-response",246,228520,"0.0-4.78-0.78","seu4neodvh38f7y",767,"194.csv","","256.09999999403954","resources/trios/L1T2A3.jpg","38","restless",0.5,0.3,0.4,0.257468979630162,"true"
"image-keyboard-response",247,228923,"0.0-4.78-1.78","seu4neodvh38f7y",767,"194.csv","","null","resources/maskTrios/BT2B.jpg","null","",NA,NA,NA,NA,""
"image-keyboard-response",248,230126,"0.0-4.78-2.78","seu4neodvh38f7y",767,"194.csv","","null","resources/images/coin2.png","null","",NA,NA,NA,NA,""
"image-keyboard-response",249,230409,"0.0-4.79-0.79","seu4neodvh38f7y",767,"194.csv","","281.3999999910593","resources/trios/L1T2A3.jpg","38","restless",0.5,0.3,0.4,0.101787247857431,"true"
"image-keyboard-response",250,230813,"0.0-4.79-1.79","seu4neodvh38f7y",767,"194.csv","","null","resources/maskTrios/BT2B.jpg","null","",NA,NA,NA,NA,""
"image-keyboard-response",251,232015,"0.0-4.79-2.79","seu4neodvh38f7y",767,"194.csv","","null","resources/images/coin2.png","null","",NA,NA,NA,NA,""
"image-keyboard-response",252,232283,"0.0-4.80-0.80","seu4neodvh38f7y",767,"194.csv","","265.79999999701977","resources/trios/L1T2A3.jpg","38","restless",0.5,0.3,0.3,0.354955963219012,"false"
"image-keyboard-response",253,232686,"0.0-4.80-1.80","seu4neodvh38f7y",767,"194.csv","","null","resources/maskTrios/BT2B.jpg","null","",NA,NA,NA,NA,""
"image-keyboard-response",254,233888,"0.0-4.80-2.80","seu4neodvh38f7y",767,"194.csv","","null","resources/images/fishbone.png","null","",NA,NA,NA,NA,""
"image-keyboard-response",255,234168,"0.0-4.81-0.81","seu4neodvh38f7y",767,"194.csv","","277.8999999910593","resources/trios/L1T2A3.jpg","39","restless",0.5,0.3,0.3,0.865032788397681,"false"
"image-keyboard-response",256,234572,"0.0-4.81-1.81","seu4neodvh38f7y",767,"194.csv","","null","resources/maskTrios/BBA3.jpg","null","",NA,NA,NA,NA,""
"image-keyboard-response",257,235775,"0.0-4.81-2.81","seu4neodvh38f7y",767,"194.csv","","null","resources/images/fishbone.png","null","",NA,NA,NA,NA,""
"image-keyboard-response",258,236547,"0.0-4.82-0.82","seu4neodvh38f7y",767,"194.csv","","770.1000000089407","resources/trios/L1T2A3.jpg","37","restless",0.5,0.3,0.3,0.0713801119179862,"true"
"image-keyboard-response",259,236949,"0.0-4.82-1.82","seu4neodvh38f7y",767,"194.csv","","null","resources/maskTrios/L1BB.jpg","null","",NA,NA,NA,NA,""
"image-keyboard-response",260,238150,"0.0-4.82-2.82","seu4neodvh38f7y",767,"194.csv","","null","resources/images/coin2.png","null","",NA,NA,NA,NA,""
"image-keyboard-response",261,238419,"0.0-4.83-0.83","seu4neodvh38f7y",767,"194.csv","","266.5","resources/trios/L1T2A3.jpg","37","restless",0.5,0.3,0.4,0.561132885945179,"false"
"image-keyboard-response",262,238822,"0.0-4.83-1.83","seu4neodvh38f7y",767,"194.csv","","null","resources/maskTrios/L1BB.jpg","null","",NA,NA,NA,NA,""
"image-keyboard-response",263,240024,"0.0-4.83-2.83","seu4neodvh38f7y",767,"194.csv","","null","resources/images/fishbone.png","null","",NA,NA,NA,NA,""
"image-keyboard-response",264,240239,"0.0-4.84-0.84","seu4neodvh38f7y",767,"194.csv","","212.70000000298023","resources/trios/L1T2A3.jpg","38","restless",0.5,0.3,0.4,0.409880243765616,"false"
"image-keyboard-response",265,240642,"0.0-4.84-1.84","seu4neodvh38f7y",767,"194.csv","","null","resources/maskTrios/BT2B.jpg","null","",NA,NA,NA,NA,""
"image-keyboard-response",266,241844,"0.0-4.84-2.84","seu4neodvh38f7y",767,"194.csv","","null","resources/images/fishbone.png","null","",NA,NA,NA,NA,""
"image-keyboard-response",267,242102,"0.0-4.85-0.85","seu4neodvh38f7y",767,"194.csv","","255.09999999403954","resources/trios/L1T2A3.jpg","39","restless",0.5,0.3,0.4,0.584842663389624,"false"
"image-keyboard-response",268,242505,"0.0-4.85-1.85","seu4neodvh38f7y",767,"194.csv","","null","resources/maskTrios/BBA3.jpg","null","",NA,NA,NA,NA,""
"image-keyboard-response",269,243707,"0.0-4.85-2.85","seu4neodvh38f7y",767,"194.csv","","null","resources/images/fishbone.png","null","",NA,NA,NA,NA,""
"image-keyboard-response",270,243947,"0.0-4.86-0.86","seu4neodvh38f7y",767,"194.csv","","238.69999998807907","resources/trios/L1T2A3.jpg","37","restless",0.4,0.3,0.5,0.160161822995397,"true"
"image-keyboard-response",271,244349,"0.0-4.86-1.86","seu4neodvh38f7y",767,"194.csv","","null","resources/maskTrios/L1BB.jpg","null","",NA,NA,NA,NA,""
"image-keyboard-response",272,245551,"0.0-4.86-2.86","seu4neodvh38f7y",767,"194.csv","","null","resources/images/coin2.png","null","",NA,NA,NA,NA,""
"image-keyboard-response",273,245621,"0.0-4.87-0.87","seu4neodvh38f7y",767,"194.csv","","69.1000000089407","resources/trios/L1T2A3.jpg","38","restless",0.4,0.3,0.6,0.882078048472927,"false"
"image-keyboard-response",274,246023,"0.0-4.87-1.87","seu4neodvh38f7y",767,"194.csv","","null","resources/maskTrios/BT2B.jpg","null","",NA,NA,NA,NA,""
"image-keyboard-response",275,247225,"0.0-4.87-2.87","seu4neodvh38f7y",767,"194.csv","","null","resources/images/fishbone.png","null","",NA,NA,NA,NA,""
"image-keyboard-response",276,247401,"0.0-4.88-0.88","seu4neodvh38f7y",767,"194.csv","","175.29999999701977","resources/trios/L1T2A3.jpg","37","restless",0.4,0.3,0.6,0.422699760605728,"false"
"image-keyboard-response",277,247802,"0.0-4.88-1.88","seu4neodvh38f7y",767,"194.csv","","null","resources/maskTrios/L1BB.jpg","null","",NA,NA,NA,NA,""
"image-keyboard-response",278,249018,"0.0-4.88-2.88","seu4neodvh38f7y",767,"194.csv","","null","resources/images/fishbone.png","null","",NA,NA,NA,NA,""
"image-keyboard-response",279,249130,"0.0-4.89-0.89","seu4neodvh38f7y",767,"194.csv","","110.5","resources/trios/L1T2A3.jpg","39","restless",0.4,0.4,0.6,0.518468822415352,"true"
"image-keyboard-response",280,249534,"0.0-4.89-1.89","seu4neodvh38f7y",767,"194.csv","","null","resources/maskTrios/BBA3.jpg","null","",NA,NA,NA,NA,""
"image-keyboard-response",281,250747,"0.0-4.89-2.89","seu4neodvh38f7y",767,"194.csv","","null","resources/images/coin2.png","null","",NA,NA,NA,NA,""
"image-keyboard-response",282,251014,"0.0-4.90-0.90","seu4neodvh38f7y",767,"194.csv","","266.59999999403954","resources/trios/L1T2A3.jpg","39","restless",0.4,0.3,0.6,0.641412445387528,"false"
"image-keyboard-response",283,251417,"0.0-4.90-1.90","seu4neodvh38f7y",767,"194.csv","","null","resources/maskTrios/BBA3.jpg","null","",NA,NA,NA,NA,""
"image-keyboard-response",284,252620,"0.0-4.90-2.90","seu4neodvh38f7y",767,"194.csv","","null","resources/images/fishbone.png","null","",NA,NA,NA,NA,""
"image-keyboard-response",285,252890,"0.0-4.91-0.91","seu4neodvh38f7y",767,"194.csv","","268.1000000089407","resources/trios/L1T2A3.jpg","37","restless",0.4,0.3,0.5,0.446899158441085,"false"
"image-keyboard-response",286,253293,"0.0-4.91-1.91","seu4neodvh38f7y",767,"194.csv","","null","resources/maskTrios/L1BB.jpg","null","",NA,NA,NA,NA,""
"image-keyboard-response",287,254495,"0.0-4.91-2.91","seu4neodvh38f7y",767,"194.csv","","null","resources/images/fishbone.png","null","",NA,NA,NA,NA,""
"image-keyboard-response",288,254697,"0.0-4.92-0.92","seu4neodvh38f7y",767,"194.csv","","200.1000000089407","resources/trios/L1T2A3.jpg","38","restless",0.5,0.3,0.5,0.43823932502617,"false"
"image-keyboard-response",289,255100,"0.0-4.92-1.92","seu4neodvh38f7y",767,"194.csv","","null","resources/maskTrios/BT2B.jpg","null","",NA,NA,NA,NA,""
"image-keyboard-response",290,256303,"0.0-4.92-2.92","seu4neodvh38f7y",767,"194.csv","","null","resources/images/fishbone.png","null","",NA,NA,NA,NA,""
"image-keyboard-response",291,256574,"0.0-4.93-0.93","seu4neodvh38f7y",767,"194.csv","","268.79999999701977","resources/trios/L1T2A3.jpg","37","restless",0.6,0.3,0.5,0.350124070663341,"true"
"image-keyboard-response",292,256977,"0.0-4.93-1.93","seu4neodvh38f7y",767,"194.csv","","null","resources/maskTrios/L1BB.jpg","null","",NA,NA,NA,NA,""
"image-keyboard-response",293,258180,"0.0-4.93-2.93","seu4neodvh38f7y",767,"194.csv","","null","resources/images/coin2.png","null","",NA,NA,NA,NA,""
"image-keyboard-response",294,258346,"0.0-4.94-0.94","seu4neodvh38f7y",767,"194.csv","","164.29999999701977","resources/trios/L1T2A3.jpg","37","restless",0.6,0.3,0.5,0.160033237409481,"true"
"image-keyboard-response",295,258749,"0.0-4.94-1.94","seu4neodvh38f7y",767,"194.csv","","null","resources/maskTrios/L1BB.jpg","null","",NA,NA,NA,NA,""
"image-keyboard-response",296,259953,"0.0-4.94-2.94","seu4neodvh38f7y",767,"194.csv","","null","resources/images/coin2.png","null","",NA,NA,NA,NA,""
"image-keyboard-response",297,260200,"0.0-4.95-0.95","seu4neodvh38f7y",767,"194.csv","","245.30000001192093","resources/trios/L1T2A3.jpg","37","restless",0.6,0.2,0.5,0.691412657401592,"false"
"image-keyboard-response",298,260608,"0.0-4.95-1.95","seu4neodvh38f7y",767,"194.csv","","null","resources/maskTrios/L1BB.jpg","null","",NA,NA,NA,NA,""
"image-keyboard-response",299,261822,"0.0-4.95-2.95","seu4neodvh38f7y",767,"194.csv","","null","resources/images/fishbone.png","null","",NA,NA,NA,NA,""
"image-keyboard-response",300,262817,"0.0-4.96-0.96","seu4neodvh38f7y",767,"194.csv","","992.8999999910593","resources/trios/L1T2A3.jpg","39","restless",0.6,0.2,0.5,0.596996621767103,"false"
"image-keyboard-response",301,263220,"0.0-4.96-1.96","seu4neodvh38f7y",767,"194.csv","","null","resources/maskTrios/BBA3.jpg","null","",NA,NA,NA,NA,""
"image-keyboard-response",302,264422,"0.0-4.96-2.96","seu4neodvh38f7y",767,"194.csv","","null","resources/images/fishbone.png","null","",NA,NA,NA,NA,""
"image-keyboard-response",303,264496,"0.0-4.97-0.97","seu4neodvh38f7y",767,"194.csv","","71.70000000298023","resources/trios/L1T2A3.jpg","37","restless",0.6,0.2,0.5,0.651858169688057,"false"
"image-keyboard-response",304,264905,"0.0-4.97-1.97","seu4neodvh38f7y",767,"194.csv","","null","resources/maskTrios/L1BB.jpg","null","",NA,NA,NA,NA,""
"image-keyboard-response",305,266108,"0.0-4.97-2.97","seu4neodvh38f7y",767,"194.csv","","null","resources/images/fishbone.png","null","",NA,NA,NA,NA,""
"image-keyboard-response",306,266129,"0.0-4.98-0.98","seu4neodvh38f7y",767,"194.csv","","19.299999997019768","resources/trios/L1T2A3.jpg","39","restless",0.6,0.2,0.5,0.706505242712741,"false"
"image-keyboard-response",307,266532,"0.0-4.98-1.98","seu4neodvh38f7y",767,"194.csv","","null","resources/maskTrios/BBA3.jpg","null","",NA,NA,NA,NA,""
"image-keyboard-response",308,267734,"0.0-4.98-2.98","seu4neodvh38f7y",767,"194.csv","","null","resources/images/fishbone.png","null","",NA,NA,NA,NA,""
"image-keyboard-response",309,267968,"0.0-4.99-0.99","seu4neodvh38f7y",767,"194.csv","","231.20000000298023","resources/trios/L1T2A3.jpg","38","restless",0.6,0.2,0.5,0.302241567460639,"false"
"image-keyboard-response",310,268371,"0.0-4.99-1.99","seu4neodvh38f7y",767,"194.csv","","null","resources/maskTrios/BT2B.jpg","null","",NA,NA,NA,NA,""
"image-keyboard-response",311,269573,"0.0-4.99-2.99","seu4neodvh38f7y",767,"194.csv","","null","resources/images/fishbone.png","null","",NA,NA,NA,NA,""
"image-keyboard-response",312,269745,"0.0-4.100-0.100","seu4neodvh38f7y",767,"194.csv","","169.1000000089407","resources/trios/L1T2A3.jpg","37","restless",0.6,0.2,0.5,0.325069757147922,"true"
"image-keyboard-response",313,270148,"0.0-4.100-1.100","seu4neodvh38f7y",767,"194.csv","","null","resources/maskTrios/L1BB.jpg","null","",NA,NA,NA,NA,""
"image-keyboard-response",314,271351,"0.0-4.100-2.100","seu4neodvh38f7y",767,"194.csv","","null","resources/images/coin2.png","null","",NA,NA,NA,NA,""
"image-keyboard-response",315,271584,"0.0-4.101-0.101","seu4neodvh38f7y",767,"194.csv","","230.5","resources/trios/L1T2A3.jpg","37","restless",0.6,0.2,0.5,0.377314551481164,"true"
"image-keyboard-response",316,271987,"0.0-4.101-1.101","seu4neodvh38f7y",767,"194.csv","","null","resources/maskTrios/L1BB.jpg","null","",NA,NA,NA,NA,""
"image-keyboard-response",317,273190,"0.0-4.101-2.101","seu4neodvh38f7y",767,"194.csv","","null","resources/images/coin2.png","null","",NA,NA,NA,NA,""
"image-keyboard-response",318,273466,"0.0-4.102-0.102","seu4neodvh38f7y",767,"194.csv","","273.79999999701977","resources/trios/L1T2A3.jpg","37","restless",0.6,0.2,0.4,0.370537215158286,"true"
"image-keyboard-response",319,273874,"0.0-4.102-1.102","seu4neodvh38f7y",767,"194.csv","","null","resources/maskTrios/L1BB.jpg","null","",NA,NA,NA,NA,""
"image-keyboard-response",320,275087,"0.0-4.102-2.102","seu4neodvh38f7y",767,"194.csv","","null","resources/images/coin2.png","null","",NA,NA,NA,NA,""
"image-keyboard-response",321,275366,"0.0-4.103-0.103","seu4neodvh38f7y",767,"194.csv","","276.69999998807907","resources/trios/L1T2A3.jpg","37","restless",0.6,0.2,0.4,0.660392385357296,"false"
"image-keyboard-response",322,275769,"0.0-4.103-1.103","seu4neodvh38f7y",767,"194.csv","","null","resources/maskTrios/L1BB.jpg","null","",NA,NA,NA,NA,""
"image-keyboard-response",323,276972,"0.0-4.103-2.103","seu4neodvh38f7y",767,"194.csv","","null","resources/images/fishbone.png","null","",NA,NA,NA,NA,""
"image-keyboard-response",324,277231,"0.0-4.104-0.104","seu4neodvh38f7y",767,"194.csv","","256.20000000298023","resources/trios/L1T2A3.jpg","38","restless",0.6,0.2,0.4,0.0212731039181777,"true"
"image-keyboard-response",325,277644,"0.0-4.104-1.104","seu4neodvh38f7y",767,"194.csv","","null","resources/maskTrios/BT2B.jpg","null","",NA,NA,NA,NA,""
"image-keyboard-response",326,278846,"0.0-4.104-2.104","seu4neodvh38f7y",767,"194.csv","","null","resources/images/coin2.png","null","",NA,NA,NA,NA,""
"image-keyboard-response",327,279024,"0.0-4.105-0.105","seu4neodvh38f7y",767,"194.csv","","175.59999999403954","resources/trios/L1T2A3.jpg","38","restless",0.6,0.2,0.4,0.723549051292726,"false"
"image-keyboard-response",328,279427,"0.0-4.105-1.105","seu4neodvh38f7y",767,"194.csv","","null","resources/maskTrios/BT2B.jpg","null","",NA,NA,NA,NA,""
"image-keyboard-response",329,280629,"0.0-4.105-2.105","seu4neodvh38f7y",767,"194.csv","","null","resources/images/fishbone.png","null","",NA,NA,NA,NA,""
"image-keyboard-response",330,280885,"0.0-4.106-0.106","seu4neodvh38f7y",767,"194.csv","","254.29999999701977","resources/trios/L1T2A3.jpg","37","restless",0.6,0.2,0.4,0.981172846260794,"false"
"image-keyboard-response",331,281288,"0.0-4.106-1.106","seu4neodvh38f7y",767,"194.csv","","null","resources/maskTrios/L1BB.jpg","null","",NA,NA,NA,NA,""
"image-keyboard-response",332,282491,"0.0-4.106-2.106","seu4neodvh38f7y",767,"194.csv","","null","resources/images/fishbone.png","null","",NA,NA,NA,NA,""
"image-keyboard-response",333,282698,"0.0-4.107-0.107","seu4neodvh38f7y",767,"194.csv","","206","resources/trios/L1T2A3.jpg","39","restless",0.6,0.2,0.4,0.361105030082652,"true"
"image-keyboard-response",334,283102,"0.0-4.107-1.107","seu4neodvh38f7y",767,"194.csv","","null","resources/maskTrios/BBA3.jpg","null","",NA,NA,NA,NA,""
"image-keyboard-response",335,284305,"0.0-4.107-2.107","seu4neodvh38f7y",767,"194.csv","","null","resources/images/coin2.png","null","",NA,NA,NA,NA,""
"image-keyboard-response",336,284882,"0.0-4.108-0.108","seu4neodvh38f7y",767,"194.csv","","575.0999999940395","resources/trios/L1T2A3.jpg","39","restless",0.6,0.3,0.4,0.606175929117413,"false"
"image-keyboard-response",337,285285,"0.0-4.108-1.108","seu4neodvh38f7y",767,"194.csv","","null","resources/maskTrios/BBA3.jpg","null","",NA,NA,NA,NA,""
"image-keyboard-response",338,286486,"0.0-4.108-2.108","seu4neodvh38f7y",767,"194.csv","","null","resources/images/fishbone.png","null","",NA,NA,NA,NA,""
"image-keyboard-response",339,286629,"0.0-4.109-0.109","seu4neodvh38f7y",767,"194.csv","","140.09999999403954","resources/trios/L1T2A3.jpg","38","restless",0.6,0.3,0.4,0.0432101115685417,"true"
"image-keyboard-response",340,287032,"0.0-4.109-1.109","seu4neodvh38f7y",767,"194.csv","","null","resources/maskTrios/BT2B.jpg","null","",NA,NA,NA,NA,""
"image-keyboard-response",341,288235,"0.0-4.109-2.109","seu4neodvh38f7y",767,"194.csv","","null","resources/images/coin2.png","null","",NA,NA,NA,NA,""
"image-keyboard-response",342,288433,"0.0-4.110-0.110","seu4neodvh38f7y",767,"194.csv","","196.1000000089407","resources/trios/L1T2A3.jpg","38","restless",0.6,0.3,0.4,0.518603629461362,"false"
"image-keyboard-response",343,288835,"0.0-4.110-1.110","seu4neodvh38f7y",767,"194.csv","","null","resources/maskTrios/BT2B.jpg","null","",NA,NA,NA,NA,""
"image-keyboard-response",344,290043,"0.0-4.110-2.110","seu4neodvh38f7y",767,"194.csv","","null","resources/images/fishbone.png","null","",NA,NA,NA,NA,""
"image-keyboard-response",345,290284,"0.0-4.111-0.111","seu4neodvh38f7y",767,"194.csv","","239.59999999403954","resources/trios/L1T2A3.jpg","37","restless",0.6,0.3,0.4,0.176619070772409,"true"
"image-keyboard-response",346,290686,"0.0-4.111-1.111","seu4neodvh38f7y",767,"194.csv","","null","resources/maskTrios/L1BB.jpg","null","",NA,NA,NA,NA,""
"image-keyboard-response",347,291888,"0.0-4.111-2.111","seu4neodvh38f7y",767,"194.csv","","null","resources/images/coin2.png","null","",NA,NA,NA,NA,""
"image-keyboard-response",348,292121,"0.0-4.112-0.112","seu4neodvh38f7y",767,"194.csv","","231.90000000596046","resources/trios/L1T2A3.jpg","37","restless",0.6,0.3,0.4,0.695079361865646,"false"
"image-keyboard-response",349,292524,"0.0-4.112-1.112","seu4neodvh38f7y",767,"194.csv","","null","resources/maskTrios/L1BB.jpg","null","",NA,NA,NA,NA,""
"image-keyboard-response",350,293727,"0.0-4.112-2.112","seu4neodvh38f7y",767,"194.csv","","null","resources/images/fishbone.png","null","",NA,NA,NA,NA,""
"image-keyboard-response",351,293791,"0.0-4.113-0.113","seu4neodvh38f7y",767,"194.csv","","62","resources/trios/L1T2A3.jpg","38","restless",0.6,0.3,0.4,0.03611880159811,"true"
"image-keyboard-response",352,294192,"0.0-4.113-1.113","seu4neodvh38f7y",767,"194.csv","","null","resources/maskTrios/BT2B.jpg","null","",NA,NA,NA,NA,""
"image-keyboard-response",353,295408,"0.0-4.113-2.113","seu4neodvh38f7y",767,"194.csv","","null","resources/images/coin2.png","null","",NA,NA,NA,NA,""
"image-keyboard-response",354,295646,"0.0-4.114-0.114","seu4neodvh38f7y",767,"194.csv","","236.3999999910593","resources/trios/L1T2A3.jpg","38","restless",0.6,0.3,0.4,0.313271801633295,"false"
"image-keyboard-response",355,296050,"0.0-4.114-1.114","seu4neodvh38f7y",767,"194.csv","","null","resources/maskTrios/BT2B.jpg","null","",NA,NA,NA,NA,""
"image-keyboard-response",356,297252,"0.0-4.114-2.114","seu4neodvh38f7y",767,"194.csv","","null","resources/images/fishbone.png","null","",NA,NA,NA,NA,""
"image-keyboard-response",357,297480,"0.0-4.115-0.115","seu4neodvh38f7y",767,"194.csv","","226.09999999403954","resources/trios/L1T2A3.jpg","37","restless",0.5,0.3,0.4,0.207946580671394,"true"
"image-keyboard-response",358,297883,"0.0-4.115-1.115","seu4neodvh38f7y",767,"194.csv","","null","resources/maskTrios/L1BB.jpg","null","",NA,NA,NA,NA,""
"image-keyboard-response",359,299086,"0.0-4.115-2.115","seu4neodvh38f7y",767,"194.csv","","null","resources/images/coin2.png","null","",NA,NA,NA,NA,""
"image-keyboard-response",360,299352,"0.0-4.116-0.116","seu4neodvh38f7y",767,"194.csv","","264.79999999701977","resources/trios/L1T2A3.jpg","37","restless",0.5,0.3,0.4,0.426570225749298,"true"
"image-keyboard-response",361,299756,"0.0-4.116-1.116","seu4neodvh38f7y",767,"194.csv","","null","resources/maskTrios/L1BB.jpg","null","",NA,NA,NA,NA,""
"image-keyboard-response",362,300959,"0.0-4.116-2.116","seu4neodvh38f7y",767,"194.csv","","null","resources/images/coin2.png","null","",NA,NA,NA,NA,""
"image-keyboard-response",363,301278,"0.0-4.117-0.117","seu4neodvh38f7y",767,"194.csv","","317.1000000089407","resources/trios/L1T2A3.jpg","37","restless",0.5,0.3,0.3,0.454927881045737,"true"
"image-keyboard-response",364,301680,"0.0-4.117-1.117","seu4neodvh38f7y",767,"194.csv","","null","resources/maskTrios/L1BB.jpg","null","",NA,NA,NA,NA,""
"image-keyboard-response",365,302883,"0.0-4.117-2.117","seu4neodvh38f7y",767,"194.csv","","null","resources/images/coin2.png","null","",NA,NA,NA,NA,""
"image-keyboard-response",366,303131,"0.0-4.118-0.118","seu4neodvh38f7y",767,"194.csv","","246.1000000089407","resources/trios/L1T2A3.jpg","37","restless",0.4,0.3,0.3,0.795132338245717,"false"
"image-keyboard-response",367,303535,"0.0-4.118-1.118","seu4neodvh38f7y",767,"194.csv","","null","resources/maskTrios/L1BB.jpg","null","",NA,NA,NA,NA,""
"image-keyboard-response",368,304738,"0.0-4.118-2.118","seu4neodvh38f7y",767,"194.csv","","null","resources/images/fishbone.png","null","",NA,NA,NA,NA,""
"image-keyboard-response",369,304921,"0.0-4.119-0.119","seu4neodvh38f7y",767,"194.csv","","181.40000000596046","resources/trios/L1T2A3.jpg","38","restless",0.4,0.3,0.3,0.048017834730929,"true"
"image-keyboard-response",370,305325,"0.0-4.119-1.119","seu4neodvh38f7y",767,"194.csv","","null","resources/maskTrios/BT2B.jpg","null","",NA,NA,NA,NA,""
"image-keyboard-response",371,306528,"0.0-4.119-2.119","seu4neodvh38f7y",767,"194.csv","","null","resources/images/coin2.png","null","",NA,NA,NA,NA,""
"image-keyboard-response",372,306741,"0.0-4.120-0.120","seu4neodvh38f7y",767,"194.csv","","211.09999999403954","resources/trios/L1T2A3.jpg","38","restless",0.4,0.3,0.3,0.253782978915353,"true"
"image-keyboard-response",373,307144,"0.0-4.120-1.120","seu4neodvh38f7y",767,"194.csv","","null","resources/maskTrios/BT2B.jpg","null","",NA,NA,NA,NA,""
"image-keyboard-response",374,308348,"0.0-4.120-2.120","seu4neodvh38f7y",767,"194.csv","","null","resources/images/coin2.png","null","",NA,NA,NA,NA,""
"image-keyboard-response",375,308596,"0.0-4.121-0.121","seu4neodvh38f7y",767,"194.csv","","246.3999999910593","resources/trios/L1T2A3.jpg","38","restless",0.4,0.4,0.3,0.976640969387529,"false"
"image-keyboard-response",376,308999,"0.0-4.121-1.121","seu4neodvh38f7y",767,"194.csv","","null","resources/maskTrios/BT2B.jpg","null","",NA,NA,NA,NA,""
"image-keyboard-response",377,310202,"0.0-4.121-2.121","seu4neodvh38f7y",767,"194.csv","","null","resources/images/fishbone.png","null","",NA,NA,NA,NA,""
"image-keyboard-response",378,310443,"0.0-4.122-0.122","seu4neodvh38f7y",767,"194.csv","","238.59999999403954","resources/trios/L1T2A3.jpg","37","restless",0.4,0.4,0.3,0.903721800804987,"false"
"image-keyboard-response",379,310845,"0.0-4.122-1.122","seu4neodvh38f7y",767,"194.csv","","null","resources/maskTrios/L1BB.jpg","null","",NA,NA,NA,NA,""
"image-keyboard-response",380,312047,"0.0-4.122-2.122","seu4neodvh38f7y",767,"194.csv","","null","resources/images/fishbone.png","null","",NA,NA,NA,NA,""
"image-keyboard-response",381,312354,"0.0-4.123-0.123","seu4neodvh38f7y",767,"194.csv","","304.79999999701977","resources/trios/L1T2A3.jpg","38","restless",0.4,0.4,0.2,0.613203176490077,"false"
"image-keyboard-response",382,312757,"0.0-4.123-1.123","seu4neodvh38f7y",767,"194.csv","","null","resources/maskTrios/BT2B.jpg","null","",NA,NA,NA,NA,""
"image-keyboard-response",383,313959,"0.0-4.123-2.123","seu4neodvh38f7y",767,"194.csv","","null","resources/images/fishbone.png","null","",NA,NA,NA,NA,""
"image-keyboard-response",384,314212,"0.0-4.124-0.124","seu4neodvh38f7y",767,"194.csv","","250.8999999910593","resources/trios/L1T2A3.jpg","37","restless",0.4,0.4,0.2,0.626898762137073,"false"
"image-keyboard-response",385,314614,"0.0-4.124-1.124","seu4neodvh38f7y",767,"194.csv","","null","resources/maskTrios/L1BB.jpg","null","",NA,NA,NA,NA,""
"image-keyboard-response",386,315817,"0.0-4.124-2.124","seu4neodvh38f7y",767,"194.csv","","null","resources/images/fishbone.png","null","",NA,NA,NA,NA,""
"image-keyboard-response",387,316042,"0.0-4.125-0.125","seu4neodvh38f7y",767,"194.csv","","222.20000000298023","resources/trios/L1T2A3.jpg","39","restless",0.4,0.4,0.2,0.231111614416505,"false"
"image-keyboard-response",388,316446,"0.0-4.125-1.125","seu4neodvh38f7y",767,"194.csv","","null","resources/maskTrios/BBA3.jpg","null","",NA,NA,NA,NA,""
"image-keyboard-response",389,317648,"0.0-4.125-2.125","seu4neodvh38f7y",767,"194.csv","","null","resources/images/fishbone.png","null","",NA,NA,NA,NA,""
"image-keyboard-response",390,317975,"0.0-4.126-0.126","seu4neodvh38f7y",767,"194.csv","","325.09999999403954","resources/trios/L1T2A3.jpg","38","restless",0.4,0.4,0.2,0.895627321331985,"false"
"image-keyboard-response",391,318379,"0.0-4.126-1.126","seu4neodvh38f7y",767,"194.csv","","null","resources/maskTrios/BT2B.jpg","null","",NA,NA,NA,NA,""
"image-keyboard-response",392,319581,"0.0-4.126-2.126","seu4neodvh38f7y",767,"194.csv","","null","resources/images/fishbone.png","null","",NA,NA,NA,NA,""
"image-keyboard-response",393,319847,"0.0-4.127-0.127","seu4neodvh38f7y",767,"194.csv","","264.40000000596046","resources/trios/L1T2A3.jpg","37","restless",0.4,0.4,0.2,0.993799968063122,"false"
"image-keyboard-response",394,320250,"0.0-4.127-1.127","seu4neodvh38f7y",767,"194.csv","","null","resources/maskTrios/L1BB.jpg","null","",NA,NA,NA,NA,""
"image-keyboard-response",395,321458,"0.0-4.127-2.127","seu4neodvh38f7y",767,"194.csv","","null","resources/images/fishbone.png","null","",NA,NA,NA,NA,""
"image-keyboard-response",396,321743,"0.0-4.128-0.128","seu4neodvh38f7y",767,"194.csv","","283.19999998807907","resources/trios/L1T2A3.jpg","38","restless",0.3,0.4,0.2,0.619635335650883,"false"
"image-keyboard-response",397,322147,"0.0-4.128-1.128","seu4neodvh38f7y",767,"194.csv","","null","resources/maskTrios/BT2B.jpg","null","",NA,NA,NA,NA,""
"image-keyboard-response",398,323350,"0.0-4.128-2.128","seu4neodvh38f7y",767,"194.csv","","null","resources/images/fishbone.png","null","",NA,NA,NA,NA,""
"image-keyboard-response",399,323583,"0.0-4.129-0.129","seu4neodvh38f7y",767,"194.csv","","231.29999999701977","resources/trios/L1T2A3.jpg","39","restless",0.3,0.4,0.2,0.157473226375414,"true"
"image-keyboard-response",400,323986,"0.0-4.129-1.129","seu4neodvh38f7y",767,"194.csv","","null","resources/maskTrios/BBA3.jpg","null","",NA,NA,NA,NA,""
"image-keyboard-response",401,325189,"0.0-4.129-2.129","seu4neodvh38f7y",767,"194.csv","","null","resources/images/coin2.png","null","",NA,NA,NA,NA,""
"image-keyboard-response",402,325292,"0.0-4.130-0.130","seu4neodvh38f7y",767,"194.csv","","101","resources/trios/L1T2A3.jpg","39","restless",0.3,0.4,0.2,0.87562490988159,"false"
"image-keyboard-response",403,325693,"0.0-4.130-1.130","seu4neodvh38f7y",767,"194.csv","","null","resources/maskTrios/BBA3.jpg","null","",NA,NA,NA,NA,""
"image-keyboard-response",404,326896,"0.0-4.130-2.130","seu4neodvh38f7y",767,"194.csv","","null","resources/images/fishbone.png","null","",NA,NA,NA,NA,""
"image-keyboard-response",405,327138,"0.0-4.131-0.131","seu4neodvh38f7y",767,"194.csv","","239.19999998807907","resources/trios/L1T2A3.jpg","39","restless",0.4,0.4,0.2,0.414933218783569,"false"
"image-keyboard-response",406,327540,"0.0-4.131-1.131","seu4neodvh38f7y",767,"194.csv","","null","resources/maskTrios/BBA3.jpg","null","",NA,NA,NA,NA,""
"image-keyboard-response",407,328743,"0.0-4.131-2.131","seu4neodvh38f7y",767,"194.csv","","null","resources/images/fishbone.png","null","",NA,NA,NA,NA,""
"image-keyboard-response",408,328941,"0.0-4.132-0.132","seu4neodvh38f7y",767,"194.csv","","196.20000000298023","resources/trios/L1T2A3.jpg","39","restless",0.5,0.4,0.2,0.681189265559944,"false"
"image-keyboard-response",409,329345,"0.0-4.132-1.132","seu4neodvh38f7y",767,"194.csv","","null","resources/maskTrios/BBA3.jpg","null","",NA,NA,NA,NA,""
"image-keyboard-response",410,330548,"0.0-4.132-2.132","seu4neodvh38f7y",767,"194.csv","","null","resources/images/fishbone.png","null","",NA,NA,NA,NA,""
"image-keyboard-response",411,330780,"0.0-4.133-0.133","seu4neodvh38f7y",767,"194.csv","","229.59999999403954","resources/trios/L1T2A3.jpg","39","restless",0.5,0.4,0.2,0.978419941462305,"false"
"image-keyboard-response",412,331183,"0.0-4.133-1.133","seu4neodvh38f7y",767,"194.csv","","null","resources/maskTrios/BBA3.jpg","null","",NA,NA,NA,NA,""
"image-keyboard-response",413,332385,"0.0-4.133-2.133","seu4neodvh38f7y",767,"194.csv","","null","resources/images/fishbone.png","null","",NA,NA,NA,NA,""
"image-keyboard-response",414,332519,"0.0-4.134-0.134","seu4neodvh38f7y",767,"194.csv","","132.20000000298023","resources/trios/L1T2A3.jpg","38","restless",0.5,0.4,0.2,0.236878107675607,"true"
"image-keyboard-response",415,332922,"0.0-4.134-1.134","seu4neodvh38f7y",767,"194.csv","","null","resources/maskTrios/BT2B.jpg","null","",NA,NA,NA,NA,""
"image-keyboard-response",416,334125,"0.0-4.134-2.134","seu4neodvh38f7y",767,"194.csv","","null","resources/images/coin2.png","null","",NA,NA,NA,NA,""
"image-keyboard-response",417,334668,"0.0-4.135-0.135","seu4neodvh38f7y",767,"194.csv","","540.0999999940395","resources/trios/L1T2A3.jpg","38","restless",0.5,0.4,0.2,0.923338269542724,"false"
"image-keyboard-response",418,335070,"0.0-4.135-1.135","seu4neodvh38f7y",767,"194.csv","","null","resources/maskTrios/BT2B.jpg","null","",NA,NA,NA,NA,""
"image-keyboard-response",419,336272,"0.0-4.135-2.135","seu4neodvh38f7y",767,"194.csv","","null","resources/images/fishbone.png","null","",NA,NA,NA,NA,""
"image-keyboard-response",420,336552,"0.0-4.136-0.136","seu4neodvh38f7y",767,"194.csv","","277.40000000596046","resources/trios/L1T2A3.jpg","38","restless",0.5,0.4,0.2,0.294294149705321,"true"
"image-keyboard-response",421,336955,"0.0-4.136-1.136","seu4neodvh38f7y",767,"194.csv","","null","resources/maskTrios/BT2B.jpg","null","",NA,NA,NA,NA,""
"image-keyboard-response",422,338158,"0.0-4.136-2.136","seu4neodvh38f7y",767,"194.csv","","null","resources/images/coin2.png","null","",NA,NA,NA,NA,""
"image-keyboard-response",423,338458,"0.0-4.137-0.137","seu4neodvh38f7y",767,"194.csv","","297.8999999910593","resources/trios/L1T2A3.jpg","38","restless",0.5,0.4,0.2,0.10251604046438,"true"
"image-keyboard-response",424,338861,"0.0-4.137-1.137","seu4neodvh38f7y",767,"194.csv","","null","resources/maskTrios/BT2B.jpg","null","",NA,NA,NA,NA,""
"image-keyboard-response",425,340064,"0.0-4.137-2.137","seu4neodvh38f7y",767,"194.csv","","null","resources/images/coin2.png","null","",NA,NA,NA,NA,""
"image-keyboard-response",426,340329,"0.0-4.138-0.138","seu4neodvh38f7y",767,"194.csv","","264","resources/trios/L1T2A3.jpg","38","restless",0.5,0.4,0.2,0.349997458292802,"true"
"image-keyboard-response",427,340732,"0.0-4.138-1.138","seu4neodvh38f7y",767,"194.csv","","null","resources/maskTrios/BT2B.jpg","null","",NA,NA,NA,NA,""
"image-keyboard-response",428,341934,"0.0-4.138-2.138","seu4neodvh38f7y",767,"194.csv","","null","resources/images/coin2.png","null","",NA,NA,NA,NA,""
"image-keyboard-response",429,342198,"0.0-4.139-0.139","seu4neodvh38f7y",767,"194.csv","","261.8999999910593","resources/trios/L1T2A3.jpg","38","restless",0.5,0.5,0.2,0.589477008399818,"false"
"image-keyboard-response",430,342601,"0.0-4.139-1.139","seu4neodvh38f7y",767,"194.csv","","null","resources/maskTrios/BT2B.jpg","null","",NA,NA,NA,NA,""
"image-keyboard-response",431,343803,"0.0-4.139-2.139","seu4neodvh38f7y",767,"194.csv","","null","resources/images/fishbone.png","null","",NA,NA,NA,NA,""
"image-keyboard-response",432,343810,"0.0-4.140-0.140","seu4neodvh38f7y",767,"194.csv","","4.9000000059604645","resources/trios/L1T2A3.jpg","38","restless",0.5,0.5,0.2,0.0418051699805597,"true"
"image-keyboard-response",433,344213,"0.0-4.140-1.140","seu4neodvh38f7y",767,"194.csv","","null","resources/maskTrios/BT2B.jpg","null","",NA,NA,NA,NA,""
"image-keyboard-response",434,345421,"0.0-4.140-2.140","seu4neodvh38f7y",767,"194.csv","","null","resources/images/coin2.png","null","",NA,NA,NA,NA,""
"image-keyboard-response",435,345636,"0.0-4.141-0.141","seu4neodvh38f7y",767,"194.csv","","213.09999999403954","resources/trios/L1T2A3.jpg","38","restless",0.5,0.5,0.2,0.543078574110347,"false"
"image-keyboard-response",436,346039,"0.0-4.141-1.141","seu4neodvh38f7y",767,"194.csv","","null","resources/maskTrios/BT2B.jpg","null","",NA,NA,NA,NA,""
"image-keyboard-response",437,347242,"0.0-4.141-2.141","seu4neodvh38f7y",767,"194.csv","","null","resources/images/fishbone.png","null","",NA,NA,NA,NA,""
"image-keyboard-response",438,347464,"0.0-4.142-0.142","seu4neodvh38f7y",767,"194.csv","","219.29999999701977","resources/trios/L1T2A3.jpg","38","restless",0.5,0.6,0.2,0.14160526469816,"true"
"image-keyboard-response",439,347867,"0.0-4.142-1.142","seu4neodvh38f7y",767,"194.csv","","null","resources/maskTrios/BT2B.jpg","null","",NA,NA,NA,NA,""
"image-keyboard-response",440,349069,"0.0-4.142-2.142","seu4neodvh38f7y",767,"194.csv","","null","resources/images/coin2.png","null","",NA,NA,NA,NA,""
"image-keyboard-response",441,349333,"0.0-4.143-0.143","seu4neodvh38f7y",767,"194.csv","","263.3999999910593","resources/trios/L1T2A3.jpg","38","restless",0.5,0.6,0.2,0.826765758712717,"false"
"image-keyboard-response",442,349739,"0.0-4.143-1.143","seu4neodvh38f7y",767,"194.csv","","null","resources/maskTrios/BT2B.jpg","null","",NA,NA,NA,NA,""
"image-keyboard-response",443,350941,"0.0-4.143-2.143","seu4neodvh38f7y",767,"194.csv","","null","resources/images/fishbone.png","null","",NA,NA,NA,NA,""
"image-keyboard-response",444,351183,"0.0-4.144-0.144","seu4neodvh38f7y",767,"194.csv","","239.29999999701977","resources/trios/L1T2A3.jpg","38","restless",0.5,0.6,0.2,0.672269345979013,"false"
"image-keyboard-response",445,351586,"0.0-4.144-1.144","seu4neodvh38f7y",767,"194.csv","","null","resources/maskTrios/BT2B.jpg","null","",NA,NA,NA,NA,""
"image-keyboard-response",446,352788,"0.0-4.144-2.144","seu4neodvh38f7y",767,"194.csv","","null","resources/images/fishbone.png","null","",NA,NA,NA,NA,""
"image-keyboard-response",447,352957,"0.0-4.145-0.145","seu4neodvh38f7y",767,"194.csv","","167","resources/trios/L1T2A3.jpg","38","restless",0.4,0.6,0.2,0.51785909645738,"true"
"image-keyboard-response",448,353361,"0.0-4.145-1.145","seu4neodvh38f7y",767,"194.csv","","null","resources/maskTrios/BT2B.jpg","null","",NA,NA,NA,NA,""
"image-keyboard-response",449,354563,"0.0-4.145-2.145","seu4neodvh38f7y",767,"194.csv","","null","resources/images/coin2.png","null","",NA,NA,NA,NA,""
"image-keyboard-response",450,354973,"0.0-4.146-0.146","seu4neodvh38f7y",767,"194.csv","","407","resources/trios/L1T2A3.jpg","38","restless",0.4,0.6,0.2,0.659756899278243,"false"
"image-keyboard-response",451,355377,"0.0-4.146-1.146","seu4neodvh38f7y",767,"194.csv","","null","resources/maskTrios/BT2B.jpg","null","",NA,NA,NA,NA,""
"image-keyboard-response",452,356580,"0.0-4.146-2.146","seu4neodvh38f7y",767,"194.csv","","null","resources/images/fishbone.png","null","",NA,NA,NA,NA,""
"image-keyboard-response",453,356845,"0.0-4.147-0.147","seu4neodvh38f7y",767,"194.csv","","262.5","resources/trios/L1T2A3.jpg","38","restless",0.4,0.6,0.2,0.60850253760991,"false"
"image-keyboard-response",454,357253,"0.0-4.147-1.147","seu4neodvh38f7y",767,"194.csv","","null","resources/maskTrios/BT2B.jpg","null","",NA,NA,NA,NA,""
"image-keyboard-response",455,358456,"0.0-4.147-2.147","seu4neodvh38f7y",767,"194.csv","","null","resources/images/fishbone.png","null","",NA,NA,NA,NA,""
"image-keyboard-response",456,358665,"0.0-4.148-0.148","seu4neodvh38f7y",767,"194.csv","","208.29999999701977","resources/trios/L1T2A3.jpg","38","restless",0.5,0.6,0.1,0.979972375385417,"false"
"image-keyboard-response",457,359068,"0.0-4.148-1.148","seu4neodvh38f7y",767,"194.csv","","null","resources/maskTrios/BT2B.jpg","null","",NA,NA,NA,NA,""
"image-keyboard-response",458,360271,"0.0-4.148-2.148","seu4neodvh38f7y",767,"194.csv","","null","resources/images/fishbone.png","null","",NA,NA,NA,NA,""
"image-keyboard-response",459,360513,"0.0-4.149-0.149","seu4neodvh38f7y",767,"194.csv","","238.8999999910593","resources/trios/L1T2A3.jpg","38","restless",0.5,0.6,0.1,0.529570040931955,"true"
"image-keyboard-response",460,360917,"0.0-4.149-1.149","seu4neodvh38f7y",767,"194.csv","","null","resources/maskTrios/BT2B.jpg","null","",NA,NA,NA,NA,""
"image-keyboard-response",461,362120,"0.0-4.149-2.149","seu4neodvh38f7y",767,"194.csv","","null","resources/images/coin2.png","null","",NA,NA,NA,NA,""
"image-keyboard-response",462,362152,"0.0-4.150-0.150","seu4neodvh38f7y",767,"194.csv","","29.799999997019768","resources/trios/L1T2A3.jpg","38","restless",0.5,0.6,0.1,0.79324294753452,"false"
"image-keyboard-response",463,362554,"0.0-4.150-1.150","seu4neodvh38f7y",767,"194.csv","","null","resources/maskTrios/BT2B.jpg","null","",NA,NA,NA,NA,""
"image-keyboard-response",464,363757,"0.0-4.150-2.150","seu4neodvh38f7y",767,"194.csv","","null","resources/images/fishbone.png","null","",NA,NA,NA,NA,""
"image-keyboard-response",465,364002,"0.0-4.151-0.151","seu4neodvh38f7y",767,"194.csv","","243","resources/trios/L1T2A3.jpg","37","restless",0.5,0.6,0.1,0.842365934010024,"false"
"image-keyboard-response",466,364416,"0.0-4.151-1.151","seu4neodvh38f7y",767,"194.csv","","null","resources/maskTrios/L1BB.jpg","null","",NA,NA,NA,NA,""
"image-keyboard-response",467,365618,"0.0-4.151-2.151","seu4neodvh38f7y",767,"194.csv","","null","resources/images/fishbone.png","null","",NA,NA,NA,NA,""
"image-keyboard-response",468,365625,"0.0-4.152-0.152","seu4neodvh38f7y",767,"194.csv","","4.5","resources/trios/L1T2A3.jpg","38","restless",0.5,0.6,0.1,0.681307832682397,"false"
"image-keyboard-response",469,366029,"0.0-4.152-1.152","seu4neodvh38f7y",767,"194.csv","","null","resources/maskTrios/BT2B.jpg","null","",NA,NA,NA,NA,""
"image-keyboard-response",470,367231,"0.0-4.152-2.152","seu4neodvh38f7y",767,"194.csv","","null","resources/images/fishbone.png","null","",NA,NA,NA,NA,""
"image-keyboard-response",471,367515,"0.0-4.153-0.153","seu4neodvh38f7y",767,"194.csv","","282","resources/trios/L1T2A3.jpg","37","restless",0.5,0.6,0.1,0.972184020605971,"false"
"image-keyboard-response",472,367918,"0.0-4.153-1.153","seu4neodvh38f7y",767,"194.csv","","null","resources/maskTrios/L1BB.jpg","null","",NA,NA,NA,NA,""
"image-keyboard-response",473,369120,"0.0-4.153-2.153","seu4neodvh38f7y",767,"194.csv","","null","resources/images/fishbone.png","null","",NA,NA,NA,NA,""
"image-keyboard-response",474,369346,"0.0-4.154-0.154","seu4neodvh38f7y",767,"194.csv","","223.5","resources/trios/L1T2A3.jpg","38","restless",0.5,0.6,0.1,0.403115709475691,"true"
"image-keyboard-response",475,369749,"0.0-4.154-1.154","seu4neodvh38f7y",767,"194.csv","","null","resources/maskTrios/BT2B.jpg","null","",NA,NA,NA,NA,""
"image-keyboard-response",476,370952,"0.0-4.154-2.154","seu4neodvh38f7y",767,"194.csv","","null","resources/images/coin2.png","null","",NA,NA,NA,NA,""
"image-keyboard-response",477,371078,"0.0-4.155-0.155","seu4neodvh38f7y",767,"194.csv","","124.20000000298023","resources/trios/L1T2A3.jpg","38","restless",0.5,0.6,0.1,0.0277102801862146,"true"
"image-keyboard-response",478,371481,"0.0-4.155-1.155","seu4neodvh38f7y",767,"194.csv","","null","resources/maskTrios/BT2B.jpg","null","",NA,NA,NA,NA,""
"image-keyboard-response",479,372684,"0.0-4.155-2.155","seu4neodvh38f7y",767,"194.csv","","null","resources/images/coin2.png","null","",NA,NA,NA,NA,""
"image-keyboard-response",480,372927,"0.0-4.156-0.156","seu4neodvh38f7y",767,"194.csv","","240.80000001192093","resources/trios/L1T2A3.jpg","38","restless",0.5,0.6,0.1,0.496465212933834,"true"
"image-keyboard-response",481,373330,"0.0-4.156-1.156","seu4neodvh38f7y",767,"194.csv","","null","resources/maskTrios/BT2B.jpg","null","",NA,NA,NA,NA,""
"image-keyboard-response",482,374533,"0.0-4.156-2.156","seu4neodvh38f7y",767,"194.csv","","null","resources/images/coin2.png","null","",NA,NA,NA,NA,""
"image-keyboard-response",483,374838,"0.0-4.157-0.157","seu4neodvh38f7y",767,"194.csv","","302.90000000596046","resources/trios/L1T2A3.jpg","38","restless",0.5,0.6,0.1,0.192426044483539,"true"
"image-keyboard-response",484,375241,"0.0-4.157-1.157","seu4neodvh38f7y",767,"194.csv","","null","resources/maskTrios/BT2B.jpg","null","",NA,NA,NA,NA,""
"image-keyboard-response",485,376443,"0.0-4.157-2.157","seu4neodvh38f7y",767,"194.csv","","null","resources/images/coin2.png","null","",NA,NA,NA,NA,""
"image-keyboard-response",486,376675,"0.0-4.158-0.158","seu4neodvh38f7y",767,"194.csv","","229.30000001192093","resources/trios/L1T2A3.jpg","38","restless",0.5,0.6,0.1,0.833188121074296,"false"
"image-keyboard-response",487,377078,"0.0-4.158-1.158","seu4neodvh38f7y",767,"194.csv","","null","resources/maskTrios/BT2B.jpg","null","",NA,NA,NA,NA,""
"image-keyboard-response",488,378283,"0.0-4.158-2.158","seu4neodvh38f7y",767,"194.csv","","null","resources/images/fishbone.png","null","",NA,NA,NA,NA,""
"image-keyboard-response",489,378517,"0.0-4.159-0.159","seu4neodvh38f7y",767,"194.csv","","231","resources/trios/L1T2A3.jpg","37","restless",0.5,0.6,0.1,0.958344726630317,"false"
"image-keyboard-response",490,378920,"0.0-4.159-1.159","seu4neodvh38f7y",767,"194.csv","","null","resources/maskTrios/L1BB.jpg","null","",NA,NA,NA,NA,""
"image-keyboard-response",491,380122,"0.0-4.159-2.159","seu4neodvh38f7y",767,"194.csv","","null","resources/images/fishbone.png","null","",NA,NA,NA,NA,""
"image-keyboard-response",492,380261,"0.0-4.160-0.160","seu4neodvh38f7y",767,"194.csv","","137.09999999403954","resources/trios/L1T2A3.jpg","38","restless",0.4,0.6,0.2,0.201576138977735,"true"
"image-keyboard-response",493,380664,"0.0-4.160-1.160","seu4neodvh38f7y",767,"194.csv","","null","resources/maskTrios/BT2B.jpg","null","",NA,NA,NA,NA,""
"image-keyboard-response",494,381866,"0.0-4.160-2.160","seu4neodvh38f7y",767,"194.csv","","null","resources/images/coin2.png","null","",NA,NA,NA,NA,""
"image-keyboard-response",495,382229,"0.0-4.161-0.161","seu4neodvh38f7y",767,"194.csv","","360.90000000596046","resources/trios/L1T2A3.jpg","38","restless",0.4,0.6,0.2,0.645784431558504,"false"
"image-keyboard-response",496,382633,"0.0-4.161-1.161","seu4neodvh38f7y",767,"194.csv","","null","resources/maskTrios/BT2B.jpg","null","",NA,NA,NA,NA,""
"image-keyboard-response",497,383836,"0.0-4.161-2.161","seu4neodvh38f7y",767,"194.csv","","null","resources/images/fishbone.png","null","",NA,NA,NA,NA,""
"image-keyboard-response",498,384031,"0.0-4.162-0.162","seu4neodvh38f7y",767,"194.csv","","192.8999999910593","resources/trios/L1T2A3.jpg","38","restless",0.4,0.6,0.2,0.810078967245566,"false"
"image-keyboard-response",499,384435,"0.0-4.162-1.162","seu4neodvh38f7y",767,"194.csv","","null","resources/maskTrios/BT2B.jpg","null","",NA,NA,NA,NA,""
"image-keyboard-response",500,385642,"0.0-4.162-2.162","seu4neodvh38f7y",767,"194.csv","","null","resources/images/fishbone.png","null","",NA,NA,NA,NA,""
"image-keyboard-response",501,385876,"0.0-4.163-0.163","seu4neodvh38f7y",767,"194.csv","","231.70000000298023","resources/trios/L1T2A3.jpg","39","restless",0.5,0.6,0.2,0.150103286059374,"true"
"image-keyboard-response",502,386280,"0.0-4.163-1.163","seu4neodvh38f7y",767,"194.csv","","null","resources/maskTrios/BBA3.jpg","null","",NA,NA,NA,NA,""
"image-keyboard-response",503,387482,"0.0-4.163-2.163","seu4neodvh38f7y",767,"194.csv","","null","resources/images/coin2.png","null","",NA,NA,NA,NA,""
"image-keyboard-response",504,387989,"0.0-4.164-0.164","seu4neodvh38f7y",767,"194.csv","","505.40000000596046","resources/trios/L1T2A3.jpg","39","restless",0.5,0.6,0.2,0.64887410595939,"false"
"image-keyboard-response",505,388392,"0.0-4.164-1.164","seu4neodvh38f7y",767,"194.csv","","null","resources/maskTrios/BBA3.jpg","null","",NA,NA,NA,NA,""
"image-keyboard-response",506,389605,"0.0-4.164-2.164","seu4neodvh38f7y",767,"194.csv","","null","resources/images/fishbone.png","null","",NA,NA,NA,NA,""
"image-keyboard-response",507,389635,"0.0-4.165-0.165","seu4neodvh38f7y",767,"194.csv","","27.600000008940697","resources/trios/L1T2A3.jpg","38","restless",0.5,0.6,0.2,0.471843802762428,"true"
"image-keyboard-response",508,390039,"0.0-4.165-1.165","seu4neodvh38f7y",767,"194.csv","","null","resources/maskTrios/BT2B.jpg","null","",NA,NA,NA,NA,""
"image-keyboard-response",509,391242,"0.0-4.165-2.165","seu4neodvh38f7y",767,"194.csv","","null","resources/images/coin2.png","null","",NA,NA,NA,NA,""
"image-keyboard-response",510,391447,"0.0-4.166-0.166","seu4neodvh38f7y",767,"194.csv","","203.20000000298023","resources/trios/L1T2A3.jpg","38","restless",0.6,0.6,0.2,0.265264627108099,"true"
"image-keyboard-response",511,391861,"0.0-4.166-1.166","seu4neodvh38f7y",767,"194.csv","","null","resources/maskTrios/BT2B.jpg","null","",NA,NA,NA,NA,""
"image-keyboard-response",512,393063,"0.0-4.166-2.166","seu4neodvh38f7y",767,"194.csv","","null","resources/images/coin2.png","null","",NA,NA,NA,NA,""
"image-keyboard-response",513,393385,"0.0-4.167-0.167","seu4neodvh38f7y",767,"194.csv","","320.1000000089407","resources/trios/L1T2A3.jpg","38","restless",0.6,0.6,0.1,0.501650132403393,"true"
"image-keyboard-response",514,393790,"0.0-4.167-1.167","seu4neodvh38f7y",767,"194.csv","","null","resources/maskTrios/BT2B.jpg","null","",NA,NA,NA,NA,""
"image-keyboard-response",515,394993,"0.0-4.167-2.167","seu4neodvh38f7y",767,"194.csv","","null","resources/images/coin2.png","null","",NA,NA,NA,NA,""
"image-keyboard-response",516,395284,"0.0-4.168-0.168","seu4neodvh38f7y",767,"194.csv","","288.29999999701977","resources/trios/L1T2A3.jpg","38","restless",0.6,0.6,0.1,0.861478559669633,"false"
"image-keyboard-response",517,395687,"0.0-4.168-1.168","seu4neodvh38f7y",767,"194.csv","","null","resources/maskTrios/BT2B.jpg","null","",NA,NA,NA,NA,""
"image-keyboard-response",518,396889,"0.0-4.168-2.168","seu4neodvh38f7y",767,"194.csv","","null","resources/images/fishbone.png","null","",NA,NA,NA,NA,""
"image-keyboard-response",519,397073,"0.0-4.169-0.169","seu4neodvh38f7y",767,"194.csv","","181.3999999910593","resources/trios/L1T2A3.jpg","37","restless",0.6,0.6,0.1,0.561478961822081,"true"
"image-keyboard-response",520,397474,"0.0-4.169-1.169","seu4neodvh38f7y",767,"194.csv","","null","resources/maskTrios/L1BB.jpg","null","",NA,NA,NA,NA,""
"image-keyboard-response",521,398677,"0.0-4.169-2.169","seu4neodvh38f7y",767,"194.csv","","null","resources/images/coin2.png","null","",NA,NA,NA,NA,""
"image-keyboard-response",522,399003,"0.0-4.170-0.170","seu4neodvh38f7y",767,"194.csv","","323.29999999701977","resources/trios/L1T2A3.jpg","37","restless",0.6,0.6,0.2,0.172025333253414,"true"
"image-keyboard-response",523,399406,"0.0-4.170-1.170","seu4neodvh38f7y",767,"194.csv","","null","resources/maskTrios/L1BB.jpg","null","",NA,NA,NA,NA,""
"image-keyboard-response",524,400609,"0.0-4.170-2.170","seu4neodvh38f7y",767,"194.csv","","null","resources/images/coin2.png","null","",NA,NA,NA,NA,""
"image-keyboard-response",525,400969,"0.0-4.171-0.171","seu4neodvh38f7y",767,"194.csv","","358.19999998807907","resources/trios/L1T2A3.jpg","37","restless",0.6,0.6,0.2,0.678627144935124,"false"
"image-keyboard-response",526,401373,"0.0-4.171-1.171","seu4neodvh38f7y",767,"194.csv","","null","resources/maskTrios/L1BB.jpg","null","",NA,NA,NA,NA,""
"image-keyboard-response",527,402575,"0.0-4.171-2.171","seu4neodvh38f7y",767,"194.csv","","null","resources/images/fishbone.png","null","",NA,NA,NA,NA,""
"image-keyboard-response",528,402637,"0.0-4.172-0.172","seu4neodvh38f7y",767,"194.csv","","59.6000000089407","resources/trios/L1T2A3.jpg","38","restless",0.6,0.6,0.2,0.0460310740312448,"true"
"image-keyboard-response",529,403040,"0.0-4.172-1.172","seu4neodvh38f7y",767,"194.csv","","null","resources/maskTrios/BT2B.jpg","null","",NA,NA,NA,NA,""
"image-keyboard-response",530,404243,"0.0-4.172-2.172","seu4neodvh38f7y",767,"194.csv","","null","resources/images/coin2.png","null","",NA,NA,NA,NA,""
"image-keyboard-response",531,404512,"0.0-4.173-0.173","seu4neodvh38f7y",767,"194.csv","","266.1000000089407","resources/trios/L1T2A3.jpg","38","restless",0.6,0.6,0.2,0.546613431740685,"true"
"image-keyboard-response",532,404916,"0.0-4.173-1.173","seu4neodvh38f7y",767,"194.csv","","null","resources/maskTrios/BT2B.jpg","null","",NA,NA,NA,NA,""
"image-keyboard-response",533,406118,"0.0-4.173-2.173","seu4neodvh38f7y",767,"194.csv","","null","resources/images/coin2.png","null","",NA,NA,NA,NA,""
"image-keyboard-response",534,406356,"0.0-4.174-0.174","seu4neodvh38f7y",767,"194.csv","","235.70000000298023","resources/trios/L1T2A3.jpg","38","restless",0.6,0.6,0.3,0.00488785155038718,"true"
"image-keyboard-response",535,406759,"0.0-4.174-1.174","seu4neodvh38f7y",767,"194.csv","","null","resources/maskTrios/BT2B.jpg","null","",NA,NA,NA,NA,""
"image-keyboard-response",536,407963,"0.0-4.174-2.174","seu4neodvh38f7y",767,"194.csv","","null","resources/images/coin2.png","null","",NA,NA,NA,NA,""
"image-keyboard-response",537,408122,"0.0-4.175-0.175","seu4neodvh38f7y",767,"194.csv","","157.79999999701977","resources/trios/L1T2A3.jpg","38","restless",0.6,0.6,0.4,0.928301778270697,"false"
"image-keyboard-response",538,408525,"0.0-4.175-1.175","seu4neodvh38f7y",767,"194.csv","","null","resources/maskTrios/BT2B.jpg","null","",NA,NA,NA,NA,""
"image-keyboard-response",539,409731,"0.0-4.175-2.175","seu4neodvh38f7y",767,"194.csv","","null","resources/images/fishbone.png","null","",NA,NA,NA,NA,""
"image-keyboard-response",540,409910,"0.0-4.176-0.176","seu4neodvh38f7y",767,"194.csv","","175.90000000596046","resources/trios/L1T2A3.jpg","38","restless",0.6,0.6,0.4,0.472952826329389,"true"
"image-keyboard-response",541,410312,"0.0-4.176-1.176","seu4neodvh38f7y",767,"194.csv","","null","resources/maskTrios/BT2B.jpg","null","",NA,NA,NA,NA,""
"image-keyboard-response",542,411514,"0.0-4.176-2.176","seu4neodvh38f7y",767,"194.csv","","null","resources/images/coin2.png","null","",NA,NA,NA,NA,""
"image-keyboard-response",543,411719,"0.0-4.177-0.177","seu4neodvh38f7y",767,"194.csv","","203.29999999701977","resources/trios/L1T2A3.jpg","38","restless",0.6,0.7,0.4,0.405028484327969,"true"
"image-keyboard-response",544,412121,"0.0-4.177-1.177","seu4neodvh38f7y",767,"194.csv","","null","resources/maskTrios/BT2B.jpg","null","",NA,NA,NA,NA,""
"image-keyboard-response",545,413323,"0.0-4.177-2.177","seu4neodvh38f7y",767,"194.csv","","null","resources/images/coin2.png","null","",NA,NA,NA,NA,""
"image-keyboard-response",546,413542,"0.0-4.178-0.178","seu4neodvh38f7y",767,"194.csv","","216.69999998807907","resources/trios/L1T2A3.jpg","38","restless",0.6,0.7,0.4,0.520060118081206,"true"
"image-keyboard-response",547,413945,"0.0-4.178-1.178","seu4neodvh38f7y",767,"194.csv","","null","resources/maskTrios/BT2B.jpg","null","",NA,NA,NA,NA,""
"image-keyboard-response",548,415147,"0.0-4.178-2.178","seu4neodvh38f7y",767,"194.csv","","null","resources/images/coin2.png","null","",NA,NA,NA,NA,""
"image-keyboard-response",549,415472,"0.0-4.179-0.179","seu4neodvh38f7y",767,"194.csv","","324.29999999701977","resources/trios/L1T2A3.jpg","38","restless",0.5,0.8,0.4,0.307366333710802,"true"
"image-keyboard-response",550,415876,"0.0-4.179-1.179","seu4neodvh38f7y",767,"194.csv","","null","resources/maskTrios/BT2B.jpg","null","",NA,NA,NA,NA,""
"image-keyboard-response",551,417079,"0.0-4.179-2.179","seu4neodvh38f7y",767,"194.csv","","null","resources/images/coin2.png","null","",NA,NA,NA,NA,""
"image-keyboard-response",552,417520,"0.0-4.180-0.180","seu4neodvh38f7y",767,"194.csv","","439.40000000596046","resources/trios/L1T2A3.jpg","38","restless",0.5,0.8,0.4,0.0762329442271874,"true"
"image-keyboard-response",553,417923,"0.0-4.180-1.180","seu4neodvh38f7y",767,"194.csv","","null","resources/maskTrios/BT2B.jpg","null","",NA,NA,NA,NA,""
"image-keyboard-response",554,419126,"0.0-4.180-2.180","seu4neodvh38f7y",767,"194.csv","","null","resources/images/coin2.png","null","",NA,NA,NA,NA,""
"image-keyboard-response",555,419416,"0.0-4.181-0.181","seu4neodvh38f7y",767,"194.csv","","286.90000000596046","resources/trios/L1T2A3.jpg","38","restless",0.5,0.8,0.4,0.471817606535413,"true"
"image-keyboard-response",556,419822,"0.0-4.181-1.181","seu4neodvh38f7y",767,"194.csv","","null","resources/maskTrios/BT2B.jpg","null","",NA,NA,NA,NA,""
"image-keyboard-response",557,421024,"0.0-4.181-2.181","seu4neodvh38f7y",767,"194.csv","","null","resources/images/coin2.png","null","",NA,NA,NA,NA,""
"image-keyboard-response",558,421271,"0.0-4.182-0.182","seu4neodvh38f7y",767,"194.csv","","244.29999999701977","resources/trios/L1T2A3.jpg","38","restless",0.5,0.8,0.4,0.7284694865598,"true"
"image-keyboard-response",559,421675,"0.0-4.182-1.182","seu4neodvh38f7y",767,"194.csv","","null","resources/maskTrios/BT2B.jpg","null","",NA,NA,NA,NA,""
"image-keyboard-response",560,422876,"0.0-4.182-2.182","seu4neodvh38f7y",767,"194.csv","","null","resources/images/coin2.png","null","",NA,NA,NA,NA,""
"image-keyboard-response",561,422976,"0.0-4.183-0.183","seu4neodvh38f7y",767,"194.csv","","98.40000000596046","resources/trios/L1T2A3.jpg","38","restless",0.5,0.8,0.5,0.483236079905661,"true"
"image-keyboard-response",562,423377,"0.0-4.183-1.183","seu4neodvh38f7y",767,"194.csv","","null","resources/maskTrios/BT2B.jpg","null","",NA,NA,NA,NA,""
"image-keyboard-response",563,424579,"0.0-4.183-2.183","seu4neodvh38f7y",767,"194.csv","","null","resources/images/coin2.png","null","",NA,NA,NA,NA,""
"image-keyboard-response",564,424813,"0.0-4.184-0.184","seu4neodvh38f7y",767,"194.csv","","232.5","resources/trios/L1T2A3.jpg","38","restless",0.5,0.8,0.5,0.42816453229469,"true"
"image-keyboard-response",565,425214,"0.0-4.184-1.184","seu4neodvh38f7y",767,"194.csv","","null","resources/maskTrios/BT2B.jpg","null","",NA,NA,NA,NA,""
"image-keyboard-response",566,426415,"0.0-4.184-2.184","seu4neodvh38f7y",767,"194.csv","","null","resources/images/coin2.png","null","",NA,NA,NA,NA,""
"image-keyboard-response",567,426871,"0.0-4.185-0.185","seu4neodvh38f7y",767,"194.csv","","453.59999999403954","resources/trios/L1T2A3.jpg","38","restless",0.5,0.8,0.5,0.491586049563037,"true"
"image-keyboard-response",568,427275,"0.0-4.185-1.185","seu4neodvh38f7y",767,"194.csv","","null","resources/maskTrios/BT2B.jpg","null","",NA,NA,NA,NA,""
"image-keyboard-response",569,428477,"0.0-4.185-2.185","seu4neodvh38f7y",767,"194.csv","","null","resources/images/coin2.png","null","",NA,NA,NA,NA,""
"image-keyboard-response",570,428614,"0.0-4.186-0.186","seu4neodvh38f7y",767,"194.csv","","134.40000000596046","resources/trios/L1T2A3.jpg","38","restless",0.6,0.7,0.5,0.596446686194864,"true"
"image-keyboard-response",571,429017,"0.0-4.186-1.186","seu4neodvh38f7y",767,"194.csv","","null","resources/maskTrios/BT2B.jpg","null","",NA,NA,NA,NA,""
"image-keyboard-response",572,430219,"0.0-4.186-2.186","seu4neodvh38f7y",767,"194.csv","","null","resources/images/coin2.png","null","",NA,NA,NA,NA,""
"image-keyboard-response",573,430548,"0.0-4.187-0.187","seu4neodvh38f7y",767,"194.csv","","327.30000001192093","resources/trios/L1T2A3.jpg","38","restless",0.6,0.7,0.5,0.0836725898688973,"true"
"image-keyboard-response",574,430951,"0.0-4.187-1.187","seu4neodvh38f7y",767,"194.csv","","null","resources/maskTrios/BT2B.jpg","null","",NA,NA,NA,NA,""
"image-keyboard-response",575,432154,"0.0-4.187-2.187","seu4neodvh38f7y",767,"194.csv","","null","resources/images/coin2.png","null","",NA,NA,NA,NA,""
"image-keyboard-response",576,432426,"0.0-4.188-0.188","seu4neodvh38f7y",767,"194.csv","","270","resources/trios/L1T2A3.jpg","38","restless",0.7,0.7,0.5,0.109381504980033,"true"
"image-keyboard-response",577,432830,"0.0-4.188-1.188","seu4neodvh38f7y",767,"194.csv","","null","resources/maskTrios/BT2B.jpg","null","",NA,NA,NA,NA,""
"image-keyboard-response",578,434033,"0.0-4.188-2.188","seu4neodvh38f7y",767,"194.csv","","null","resources/images/coin2.png","null","",NA,NA,NA,NA,""
"image-keyboard-response",579,434294,"0.0-4.189-0.189","seu4neodvh38f7y",767,"194.csv","","259.19999998807907","resources/trios/L1T2A3.jpg","38","restless",0.7,0.7,0.5,0.549346255900358,"true"
"image-keyboard-response",580,434697,"0.0-4.189-1.189","seu4neodvh38f7y",767,"194.csv","","null","resources/maskTrios/BT2B.jpg","null","",NA,NA,NA,NA,""
"image-keyboard-response",581,435900,"0.0-4.189-2.189","seu4neodvh38f7y",767,"194.csv","","null","resources/images/coin2.png","null","",NA,NA,NA,NA,""
"image-keyboard-response",582,436125,"0.0-4.190-0.190","seu4neodvh38f7y",767,"194.csv","","222.3999999910593","resources/trios/L1T2A3.jpg","38","restless",0.7,0.7,0.5,0.223246601170255,"true"
"image-keyboard-response",583,436527,"0.0-4.190-1.190","seu4neodvh38f7y",767,"194.csv","","null","resources/maskTrios/BT2B.jpg","null","",NA,NA,NA,NA,""
"image-keyboard-response",584,437736,"0.0-4.190-2.190","seu4neodvh38f7y",767,"194.csv","","null","resources/images/coin2.png","null","",NA,NA,NA,NA,""
"image-keyboard-response",585,437990,"0.0-4.191-0.191","seu4neodvh38f7y",767,"194.csv","","251.90000000596046","resources/trios/L1T2A3.jpg","38","restless",0.7,0.7,0.5,0.860909912001573,"false"
"image-keyboard-response",586,438393,"0.0-4.191-1.191","seu4neodvh38f7y",767,"194.csv","","null","resources/maskTrios/BT2B.jpg","null","",NA,NA,NA,NA,""
"image-keyboard-response",587,439595,"0.0-4.191-2.191","seu4neodvh38f7y",767,"194.csv","","null","resources/images/fishbone.png","null","",NA,NA,NA,NA,""
"image-keyboard-response",588,439751,"0.0-4.192-0.192","seu4neodvh38f7y",767,"194.csv","","153","resources/trios/L1T2A3.jpg","38","restless",0.7,0.7,0.5,0.938699553434379,"false"
"image-keyboard-response",589,440154,"0.0-4.192-1.192","seu4neodvh38f7y",767,"194.csv","","null","resources/maskTrios/BT2B.jpg","null","",NA,NA,NA,NA,""
"image-keyboard-response",590,441362,"0.0-4.192-2.192","seu4neodvh38f7y",767,"194.csv","","null","resources/images/fishbone.png","null","",NA,NA,NA,NA,""
"image-keyboard-response",591,441479,"0.0-4.193-0.193","seu4neodvh38f7y",767,"194.csv","","114","resources/trios/L1T2A3.jpg","37","restless",0.7,0.7,0.5,0.221942239855871,"true"
"image-keyboard-response",592,441882,"0.0-4.193-1.193","seu4neodvh38f7y",767,"194.csv","","null","resources/maskTrios/L1BB.jpg","null","",NA,NA,NA,NA,""
"image-keyboard-response",593,443090,"0.0-4.193-2.193","seu4neodvh38f7y",767,"194.csv","","null","resources/images/coin2.png","null","",NA,NA,NA,NA,""
"image-keyboard-response",594,443175,"0.0-4.194-0.194","seu4neodvh38f7y",767,"194.csv","","81.79999999701977","resources/trios/L1T2A3.jpg","38","restless",0.7,0.7,0.5,0.449504772394596,"true"
"image-keyboard-response",595,443577,"0.0-4.194-1.194","seu4neodvh38f7y",767,"194.csv","","null","resources/maskTrios/BT2B.jpg","null","",NA,NA,NA,NA,""
"image-keyboard-response",596,444781,"0.0-4.194-2.194","seu4neodvh38f7y",767,"194.csv","","null","resources/images/coin2.png","null","",NA,NA,NA,NA,""
"image-keyboard-response",597,445111,"0.0-4.195-0.195","seu4neodvh38f7y",767,"194.csv","","327.80000001192093","resources/trios/L1T2A3.jpg","38","restless",0.7,0.7,0.5,0.799231939730871,"false"
"image-keyboard-response",598,445515,"0.0-4.195-1.195","seu4neodvh38f7y",767,"194.csv","","null","resources/maskTrios/BT2B.jpg","null","",NA,NA,NA,NA,""
"image-keyboard-response",599,446717,"0.0-4.195-2.195","seu4neodvh38f7y",767,"194.csv","","null","resources/images/fishbone.png","null","",NA,NA,NA,NA,""
"image-keyboard-response",600,446994,"0.0-4.196-0.196","seu4neodvh38f7y",767,"194.csv","","274.59999999403954","resources/trios/L1T2A3.jpg","37","restless",0.7,0.7,0.5,0.388361480286662,"true"
"image-keyboard-response",601,447410,"0.0-4.196-1.196","seu4neodvh38f7y",767,"194.csv","","null","resources/maskTrios/L1BB.jpg","null","",NA,NA,NA,NA,""
"image-keyboard-response",602,448613,"0.0-4.196-2.196","seu4neodvh38f7y",767,"194.csv","","null","resources/images/coin2.png","null","",NA,NA,NA,NA,""
"image-keyboard-response",603,448891,"0.0-4.197-0.197","seu4neodvh38f7y",767,"194.csv","","275.59999999403954","resources/trios/L1T2A3.jpg","38","restless",0.7,0.7,0.5,0.090344945758035,"true"
"image-keyboard-response",604,449293,"0.0-4.197-1.197","seu4neodvh38f7y",767,"194.csv","","null","resources/maskTrios/BT2B.jpg","null","",NA,NA,NA,NA,""
"image-keyboard-response",605,450496,"0.0-4.197-2.197","seu4neodvh38f7y",767,"194.csv","","null","resources/images/coin2.png","null","",NA,NA,NA,NA,""
"image-keyboard-response",606,450981,"0.0-4.198-0.198","seu4neodvh38f7y",767,"194.csv","","482.80000001192093","resources/trios/L1T2A3.jpg","37","restless",0.7,0.7,0.5,0.4063097945549,"true"
"image-keyboard-response",607,451384,"0.0-4.198-1.198","seu4neodvh38f7y",767,"194.csv","","null","resources/maskTrios/L1BB.jpg","null","",NA,NA,NA,NA,""
