"trial_type","trial_index","time_elapsed","internal_node_id","subject","participantCode","walkNumber","success","rt","stimulus","key_press","test_part","leftProb","midProb","rightProb","generatedNum","correct"
"pavlovia",0,930,"0.0-0.0","wfmtul7qoeoykes",620,"176.csv","","","","","",NA,NA,NA,NA,""
"fullscreen",1,4850,"0.0-1.0","wfmtul7qoeoykes",620,"176.csv","true","","","","",NA,NA,NA,NA,""
"survey-html-form",2,12451,"0.0-2.0","wfmtul7qoeoykes",620,"176.csv","","7601.200000047684","","","",NA,NA,NA,NA,""
"image-keyboard-response",3,30428,"0.0-3.0-0.0","wfmtul7qoeoykes",620,"176.csv","","17976.10000014305","resources/images/parrot_nobg.png","13","",NA,NA,NA,NA,""
"image-keyboard-response",4,33433,"0.0-3.0-1.0","wfmtul7qoeoykes",620,"176.csv","","null","resources/image_sets/111.png","null","",NA,NA,NA,NA,""
"image-keyboard-response",5,41026,"0.0-3.0-2.0","wfmtul7qoeoykes",620,"176.csv","","7592.099999904633","resources/image_sets/left_highlight.png","37","",NA,NA,NA,NA,""
"image-keyboard-response",6,43452,"0.0-3.0-3.0","wfmtul7qoeoykes",620,"176.csv","","2425.5","resources/image_sets/mid_highlight.png","38","",NA,NA,NA,NA,""
"image-keyboard-response",7,44884,"0.0-3.0-4.0","wfmtul7qoeoykes",620,"176.csv","","1431.7000000476837","resources/image_sets/right_highlight.png","39","",NA,NA,NA,NA,""
"image-keyboard-response",8,46715,"0.0-3.0-5.0","wfmtul7qoeoykes",620,"176.csv","","1830.7999999523163","resources/image_sets/111.png","13","",NA,NA,NA,NA,""
"image-keyboard-response",9,50337,"0.0-3.0-6.0","wfmtul7qoeoykes",620,"176.csv","","3621.899999856949","resources/images/coin2.png","13","",NA,NA,NA,NA,""
"image-keyboard-response",10,52649,"0.0-3.0-7.0","wfmtul7qoeoykes",620,"176.csv","","2311","resources/images/fishbone.png","13","",NA,NA,NA,NA,""
"html-keyboard-response",11,59127,"0.0-3.0-8.0","wfmtul7qoeoykes",620,"176.csv","","6477.700000047684","<p>You can track your coin total on the top right of your screen. </p><p>At the end of your journey you will be directed to a survey, so please click on the link before exiting the task</p><p>Press Enter to begin</p>","13","",NA,NA,NA,NA,""
"image-keyboard-response",12,61351,"0.0-4.0-0.0","wfmtul7qoeoykes",620,"176.csv","","2223.4000000953674","resources/trios/L1T4A2.jpg","37","restless",0.3,0.9,0.7,0.573591811274409,"false"
"image-keyboard-response",13,61751,"0.0-4.0-1.0","wfmtul7qoeoykes",620,"176.csv","","null","resources/maskTrios/L1BB.jpg","null","",NA,NA,NA,NA,""
"image-keyboard-response",14,62952,"0.0-4.0-2.0","wfmtul7qoeoykes",620,"176.csv","","null","resources/images/fishbone.png","null","",NA,NA,NA,NA,""
"image-keyboard-response",15,64247,"0.0-4.1-0.1","wfmtul7qoeoykes",620,"176.csv","","1293.7999999523163","resources/trios/L1T4A2.jpg","38","restless",0.3,0.9,0.7,0.0126536901060854,"true"
"image-keyboard-response",16,64649,"0.0-4.1-1.1","wfmtul7qoeoykes",620,"176.csv","","null","resources/maskTrios/BT4B.jpg","null","",NA,NA,NA,NA,""
"image-keyboard-response",17,65850,"0.0-4.1-2.1","wfmtul7qoeoykes",620,"176.csv","","null","resources/images/coin2.png","null","",NA,NA,NA,NA,""
"image-keyboard-response",18,66626,"0.0-4.2-0.2","wfmtul7qoeoykes",620,"176.csv","","775.0999999046326","resources/trios/L1T4A2.jpg","38","restless",0.3,0.9,0.8,0.101543504761322,"true"
"image-keyboard-response",19,67028,"0.0-4.2-1.2","wfmtul7qoeoykes",620,"176.csv","","null","resources/maskTrios/BT4B.jpg","null","",NA,NA,NA,NA,""
"image-keyboard-response",20,68229,"0.0-4.2-2.2","wfmtul7qoeoykes",620,"176.csv","","null","resources/images/coin2.png","null","",NA,NA,NA,NA,""
"image-keyboard-response",21,68697,"0.0-4.3-0.3","wfmtul7qoeoykes",620,"176.csv","","467.59999990463257","resources/trios/L1T4A2.jpg","38","restless",0.2,0.9,0.8,0.140754770367206,"true"
"image-keyboard-response",22,69097,"0.0-4.3-1.3","wfmtul7qoeoykes",620,"176.csv","","null","resources/maskTrios/BT4B.jpg","null","",NA,NA,NA,NA,""
"image-keyboard-response",23,70299,"0.0-4.3-2.3","wfmtul7qoeoykes",620,"176.csv","","null","resources/images/coin2.png","null","",NA,NA,NA,NA,""
"image-keyboard-response",24,71272,"0.0-4.4-0.4","wfmtul7qoeoykes",620,"176.csv","","972.4000000953674","resources/trios/L1T4A2.jpg","38","restless",0.3,0.9,0.9,0.956513967228888,"false"
"image-keyboard-response",25,71673,"0.0-4.4-1.4","wfmtul7qoeoykes",620,"176.csv","","null","resources/maskTrios/BT4B.jpg","null","",NA,NA,NA,NA,""
"image-keyboard-response",26,72873,"0.0-4.4-2.4","wfmtul7qoeoykes",620,"176.csv","","null","resources/images/fishbone.png","null","",NA,NA,NA,NA,""
"image-keyboard-response",27,73289,"0.0-4.5-0.5","wfmtul7qoeoykes",620,"176.csv","","415","resources/trios/L1T4A2.jpg","39","restless",0.3,0.9,0.9,0.644899227110004,"true"
"image-keyboard-response",28,73690,"0.0-4.5-1.5","wfmtul7qoeoykes",620,"176.csv","","null","resources/maskTrios/BBA2.jpg","null","",NA,NA,NA,NA,""
"image-keyboard-response",29,74892,"0.0-4.5-2.5","wfmtul7qoeoykes",620,"176.csv","","null","resources/images/coin2.png","null","",NA,NA,NA,NA,""
"image-keyboard-response",30,75257,"0.0-4.6-0.6","wfmtul7qoeoykes",620,"176.csv","","365.2000000476837","resources/trios/L1T4A2.jpg","39","restless",0.3,0.9,0.9,0.719091527611266,"true"
"image-keyboard-response",31,75658,"0.0-4.6-1.6","wfmtul7qoeoykes",620,"176.csv","","null","resources/maskTrios/BBA2.jpg","null","",NA,NA,NA,NA,""
"image-keyboard-response",32,76859,"0.0-4.6-2.6","wfmtul7qoeoykes",620,"176.csv","","null","resources/images/coin2.png","null","",NA,NA,NA,NA,""
"image-keyboard-response",33,77315,"0.0-4.7-0.7","wfmtul7qoeoykes",620,"176.csv","","455.80000019073486","resources/trios/L1T4A2.jpg","39","restless",0.3,0.9,0.9,0.809567439502823,"true"
"image-keyboard-response",34,77717,"0.0-4.7-1.7","wfmtul7qoeoykes",620,"176.csv","","null","resources/maskTrios/BBA2.jpg","null","",NA,NA,NA,NA,""
"image-keyboard-response",35,78919,"0.0-4.7-2.7","wfmtul7qoeoykes",620,"176.csv","","null","resources/images/coin2.png","null","",NA,NA,NA,NA,""
"image-keyboard-response",36,79390,"0.0-4.8-0.8","wfmtul7qoeoykes",620,"176.csv","","470.7000000476837","resources/trios/L1T4A2.jpg","39","restless",0.3,0.9,0.9,0.660744827700948,"true"
"image-keyboard-response",37,79791,"0.0-4.8-1.8","wfmtul7qoeoykes",620,"176.csv","","null","resources/maskTrios/BBA2.jpg","null","",NA,NA,NA,NA,""
"image-keyboard-response",38,80993,"0.0-4.8-2.8","wfmtul7qoeoykes",620,"176.csv","","null","resources/images/coin2.png","null","",NA,NA,NA,NA,""
"image-keyboard-response",39,81684,"0.0-4.9-0.9","wfmtul7qoeoykes",620,"176.csv","","691","resources/trios/L1T4A2.jpg","39","restless",0.3,0.8,0.9,0.0839340431037725,"true"
"image-keyboard-response",40,82087,"0.0-4.9-1.9","wfmtul7qoeoykes",620,"176.csv","","null","resources/maskTrios/BBA2.jpg","null","",NA,NA,NA,NA,""
"image-keyboard-response",41,83288,"0.0-4.9-2.9","wfmtul7qoeoykes",620,"176.csv","","null","resources/images/coin2.png","null","",NA,NA,NA,NA,""
"image-keyboard-response",42,83671,"0.0-4.10-0.10","wfmtul7qoeoykes",620,"176.csv","","383.2000000476837","resources/trios/L1T4A2.jpg","39","restless",0.3,0.7,0.9,0.262110876641605,"true"
"image-keyboard-response",43,84072,"0.0-4.10-1.10","wfmtul7qoeoykes",620,"176.csv","","null","resources/maskTrios/BBA2.jpg","null","",NA,NA,NA,NA,""
"image-keyboard-response",44,85273,"0.0-4.10-2.10","wfmtul7qoeoykes",620,"176.csv","","null","resources/images/coin2.png","null","",NA,NA,NA,NA,""
"image-keyboard-response",45,85627,"0.0-4.11-0.11","wfmtul7qoeoykes",620,"176.csv","","353.89999985694885","resources/trios/L1T4A2.jpg","39","restless",0.3,0.7,0.9,0.0926200990944412,"true"
"image-keyboard-response",46,86029,"0.0-4.11-1.11","wfmtul7qoeoykes",620,"176.csv","","null","resources/maskTrios/BBA2.jpg","null","",NA,NA,NA,NA,""
"image-keyboard-response",47,87230,"0.0-4.11-2.11","wfmtul7qoeoykes",620,"176.csv","","null","resources/images/coin2.png","null","",NA,NA,NA,NA,""
"image-keyboard-response",48,87612,"0.0-4.12-0.12","wfmtul7qoeoykes",620,"176.csv","","381.40000009536743","resources/trios/L1T4A2.jpg","39","restless",0.2,0.7,0.8,0.398508162135127,"true"
"image-keyboard-response",49,88012,"0.0-4.12-1.12","wfmtul7qoeoykes",620,"176.csv","","null","resources/maskTrios/BBA2.jpg","null","",NA,NA,NA,NA,""
"image-keyboard-response",50,89214,"0.0-4.12-2.12","wfmtul7qoeoykes",620,"176.csv","","null","resources/images/coin2.png","null","",NA,NA,NA,NA,""
"image-keyboard-response",51,89610,"0.0-4.13-0.13","wfmtul7qoeoykes",620,"176.csv","","396.2999999523163","resources/trios/L1T4A2.jpg","39","restless",0.2,0.7,0.8,0.56307457497477,"true"
"image-keyboard-response",52,90011,"0.0-4.13-1.13","wfmtul7qoeoykes",620,"176.csv","","null","resources/maskTrios/BBA2.jpg","null","",NA,NA,NA,NA,""
"image-keyboard-response",53,91211,"0.0-4.13-2.13","wfmtul7qoeoykes",620,"176.csv","","null","resources/images/coin2.png","null","",NA,NA,NA,NA,""
"image-keyboard-response",54,91509,"0.0-4.14-0.14","wfmtul7qoeoykes",620,"176.csv","","297.09999990463257","resources/trios/L1T4A2.jpg","39","restless",0.2,0.6,0.8,0.421287965185789,"true"
"image-keyboard-response",55,91910,"0.0-4.14-1.14","wfmtul7qoeoykes",620,"176.csv","","null","resources/maskTrios/BBA2.jpg","null","",NA,NA,NA,NA,""
"image-keyboard-response",56,93111,"0.0-4.14-2.14","wfmtul7qoeoykes",620,"176.csv","","null","resources/images/coin2.png","null","",NA,NA,NA,NA,""
"image-keyboard-response",57,93404,"0.0-4.15-0.15","wfmtul7qoeoykes",620,"176.csv","","292.60000014305115","resources/trios/L1T4A2.jpg","39","restless",0.2,0.6,0.8,0.715961551581468,"true"
"image-keyboard-response",58,93806,"0.0-4.15-1.15","wfmtul7qoeoykes",620,"176.csv","","null","resources/maskTrios/BBA2.jpg","null","",NA,NA,NA,NA,""
"image-keyboard-response",59,95006,"0.0-4.15-2.15","wfmtul7qoeoykes",620,"176.csv","","null","resources/images/coin2.png","null","",NA,NA,NA,NA,""
"image-keyboard-response",60,95297,"0.0-4.16-0.16","wfmtul7qoeoykes",620,"176.csv","","290.19999980926514","resources/trios/L1T4A2.jpg","39","restless",0.2,0.5,0.8,0.863342160705549,"false"
"image-keyboard-response",61,95697,"0.0-4.16-1.16","wfmtul7qoeoykes",620,"176.csv","","null","resources/maskTrios/BBA2.jpg","null","",NA,NA,NA,NA,""
"image-keyboard-response",62,96899,"0.0-4.16-2.16","wfmtul7qoeoykes",620,"176.csv","","null","resources/images/fishbone.png","null","",NA,NA,NA,NA,""
"image-keyboard-response",63,97113,"0.0-4.17-0.17","wfmtul7qoeoykes",620,"176.csv","","214","resources/trios/L1T4A2.jpg","38","restless",0.2,0.5,0.8,0.752021093357693,"false"
"image-keyboard-response",64,97514,"0.0-4.17-1.17","wfmtul7qoeoykes",620,"176.csv","","null","resources/maskTrios/BT4B.jpg","null","",NA,NA,NA,NA,""
"image-keyboard-response",65,98716,"0.0-4.17-2.17","wfmtul7qoeoykes",620,"176.csv","","null","resources/images/fishbone.png","null","",NA,NA,NA,NA,""
"image-keyboard-response",66,99466,"0.0-4.18-0.18","wfmtul7qoeoykes",620,"176.csv","","749.7000000476837","resources/trios/L1T4A2.jpg","37","restless",0.2,0.5,0.8,0.264975397985385,"false"
"image-keyboard-response",67,99867,"0.0-4.18-1.18","wfmtul7qoeoykes",620,"176.csv","","null","resources/maskTrios/L1BB.jpg","null","",NA,NA,NA,NA,""
"image-keyboard-response",68,101069,"0.0-4.18-2.18","wfmtul7qoeoykes",620,"176.csv","","null","resources/images/fishbone.png","null","",NA,NA,NA,NA,""
"image-keyboard-response",69,101312,"0.0-4.19-0.19","wfmtul7qoeoykes",620,"176.csv","","242.79999995231628","resources/trios/L1T4A2.jpg","39","restless",0.3,0.5,0.8,0.716067443541143,"true"
"image-keyboard-response",70,101714,"0.0-4.19-1.19","wfmtul7qoeoykes",620,"176.csv","","null","resources/maskTrios/BBA2.jpg","null","",NA,NA,NA,NA,""
"image-keyboard-response",71,102914,"0.0-4.19-2.19","wfmtul7qoeoykes",620,"176.csv","","null","resources/images/coin2.png","null","",NA,NA,NA,NA,""
"image-keyboard-response",72,103147,"0.0-4.20-0.20","wfmtul7qoeoykes",620,"176.csv","","232.70000004768372","resources/trios/L1T4A2.jpg","39","restless",0.3,0.5,0.8,0.0307022798637333,"true"
"image-keyboard-response",73,103548,"0.0-4.20-1.20","wfmtul7qoeoykes",620,"176.csv","","null","resources/maskTrios/BBA2.jpg","null","",NA,NA,NA,NA,""
"image-keyboard-response",74,104749,"0.0-4.20-2.20","wfmtul7qoeoykes",620,"176.csv","","null","resources/images/coin2.png","null","",NA,NA,NA,NA,""
"image-keyboard-response",75,104977,"0.0-4.21-0.21","wfmtul7qoeoykes",620,"176.csv","","228.09999990463257","resources/trios/L1T4A2.jpg","39","restless",0.3,0.5,0.8,0.27778470203986,"true"
"image-keyboard-response",76,105378,"0.0-4.21-1.21","wfmtul7qoeoykes",620,"176.csv","","null","resources/maskTrios/BBA2.jpg","null","",NA,NA,NA,NA,""
"image-keyboard-response",77,106579,"0.0-4.21-2.21","wfmtul7qoeoykes",620,"176.csv","","null","resources/images/coin2.png","null","",NA,NA,NA,NA,""
"image-keyboard-response",78,106831,"0.0-4.22-0.22","wfmtul7qoeoykes",620,"176.csv","","251.30000019073486","resources/trios/L1T4A2.jpg","39","restless",0.3,0.5,0.8,0.16018315866322,"true"
"image-keyboard-response",79,107234,"0.0-4.22-1.22","wfmtul7qoeoykes",620,"176.csv","","null","resources/maskTrios/BBA2.jpg","null","",NA,NA,NA,NA,""
"image-keyboard-response",80,108435,"0.0-4.22-2.22","wfmtul7qoeoykes",620,"176.csv","","null","resources/images/coin2.png","null","",NA,NA,NA,NA,""
"image-keyboard-response",81,108663,"0.0-4.23-0.23","wfmtul7qoeoykes",620,"176.csv","","227.70000004768372","resources/trios/L1T4A2.jpg","39","restless",0.3,0.4,0.9,0.875016751094345,"true"
"image-keyboard-response",82,109064,"0.0-4.23-1.23","wfmtul7qoeoykes",620,"176.csv","","null","resources/maskTrios/BBA2.jpg","null","",NA,NA,NA,NA,""
"image-keyboard-response",83,110264,"0.0-4.23-2.23","wfmtul7qoeoykes",620,"176.csv","","null","resources/images/coin2.png","null","",NA,NA,NA,NA,""
"image-keyboard-response",84,110476,"0.0-4.24-0.24","wfmtul7qoeoykes",620,"176.csv","","211.70000004768372","resources/trios/L1T4A2.jpg","39","restless",0.3,0.4,0.9,0.846080145557202,"true"
"image-keyboard-response",85,110878,"0.0-4.24-1.24","wfmtul7qoeoykes",620,"176.csv","","null","resources/maskTrios/BBA2.jpg","null","",NA,NA,NA,NA,""
"image-keyboard-response",86,112079,"0.0-4.24-2.24","wfmtul7qoeoykes",620,"176.csv","","null","resources/images/coin2.png","null","",NA,NA,NA,NA,""
"image-keyboard-response",87,112261,"0.0-4.25-0.25","wfmtul7qoeoykes",620,"176.csv","","181.09999990463257","resources/trios/L1T4A2.jpg","39","restless",0.3,0.3,0.9,0.974449369801993,"false"
"image-keyboard-response",88,112661,"0.0-4.25-1.25","wfmtul7qoeoykes",620,"176.csv","","null","resources/maskTrios/BBA2.jpg","null","",NA,NA,NA,NA,""
"image-keyboard-response",89,113862,"0.0-4.25-2.25","wfmtul7qoeoykes",620,"176.csv","","null","resources/images/fishbone.png","null","",NA,NA,NA,NA,""
"image-keyboard-response",90,114106,"0.0-4.26-0.26","wfmtul7qoeoykes",620,"176.csv","","244.10000014305115","resources/trios/L1T4A2.jpg","39","restless",0.3,0.3,0.8,0.89416249955618,"false"
"image-keyboard-response",91,114507,"0.0-4.26-1.26","wfmtul7qoeoykes",620,"176.csv","","null","resources/maskTrios/BBA2.jpg","null","",NA,NA,NA,NA,""
"image-keyboard-response",92,115708,"0.0-4.26-2.26","wfmtul7qoeoykes",620,"176.csv","","null","resources/images/fishbone.png","null","",NA,NA,NA,NA,""
"image-keyboard-response",93,115932,"0.0-4.27-0.27","wfmtul7qoeoykes",620,"176.csv","","223.79999995231628","resources/trios/L1T4A2.jpg","37","restless",0.2,0.4,0.8,0.208143892020193,"false"
"image-keyboard-response",94,116334,"0.0-4.27-1.27","wfmtul7qoeoykes",620,"176.csv","","null","resources/maskTrios/L1BB.jpg","null","",NA,NA,NA,NA,""
"image-keyboard-response",95,117535,"0.0-4.27-2.27","wfmtul7qoeoykes",620,"176.csv","","null","resources/images/fishbone.png","null","",NA,NA,NA,NA,""
"image-keyboard-response",96,117745,"0.0-4.28-0.28","wfmtul7qoeoykes",620,"176.csv","","210.39999985694885","resources/trios/L1T4A2.jpg","38","restless",0.2,0.4,0.8,0.919295173033008,"false"
"image-keyboard-response",97,118147,"0.0-4.28-1.28","wfmtul7qoeoykes",620,"176.csv","","null","resources/maskTrios/BT4B.jpg","null","",NA,NA,NA,NA,""
"image-keyboard-response",98,119347,"0.0-4.28-2.28","wfmtul7qoeoykes",620,"176.csv","","null","resources/images/fishbone.png","null","",NA,NA,NA,NA,""
"image-keyboard-response",99,119472,"0.0-4.29-0.29","wfmtul7qoeoykes",620,"176.csv","","124.79999995231628","resources/trios/L1T4A2.jpg","39","restless",0.2,0.4,0.8,0.820416554582073,"false"
"image-keyboard-response",100,119874,"0.0-4.29-1.29","wfmtul7qoeoykes",620,"176.csv","","null","resources/maskTrios/BBA2.jpg","null","",NA,NA,NA,NA,""
"image-keyboard-response",101,121075,"0.0-4.29-2.29","wfmtul7qoeoykes",620,"176.csv","","null","resources/images/fishbone.png","null","",NA,NA,NA,NA,""
"image-keyboard-response",102,121258,"0.0-4.30-0.30","wfmtul7qoeoykes",620,"176.csv","","183.09999990463257","resources/trios/L1T4A2.jpg","38","restless",0.2,0.4,0.8,0.0551470878033902,"true"
"image-keyboard-response",103,121660,"0.0-4.30-1.30","wfmtul7qoeoykes",620,"176.csv","","null","resources/maskTrios/BT4B.jpg","null","",NA,NA,NA,NA,""
"image-keyboard-response",104,122860,"0.0-4.30-2.30","wfmtul7qoeoykes",620,"176.csv","","null","resources/images/coin2.png","null","",NA,NA,NA,NA,""
"image-keyboard-response",105,123042,"0.0-4.31-0.31","wfmtul7qoeoykes",620,"176.csv","","181.5","resources/trios/L1T4A2.jpg","38","restless",0.2,0.4,0.8,0.674377058312018,"false"
"image-keyboard-response",106,123443,"0.0-4.31-1.31","wfmtul7qoeoykes",620,"176.csv","","null","resources/maskTrios/BT4B.jpg","null","",NA,NA,NA,NA,""
"image-keyboard-response",107,124645,"0.0-4.31-2.31","wfmtul7qoeoykes",620,"176.csv","","null","resources/images/fishbone.png","null","",NA,NA,NA,NA,""
"image-keyboard-response",108,124818,"0.0-4.32-0.32","wfmtul7qoeoykes",620,"176.csv","","172.79999995231628","resources/trios/L1T4A2.jpg","38","restless",0.2,0.4,0.9,0.69533782577999,"false"
"image-keyboard-response",109,125219,"0.0-4.32-1.32","wfmtul7qoeoykes",620,"176.csv","","null","resources/maskTrios/BT4B.jpg","null","",NA,NA,NA,NA,""
"image-keyboard-response",110,126420,"0.0-4.32-2.32","wfmtul7qoeoykes",620,"176.csv","","null","resources/images/fishbone.png","null","",NA,NA,NA,NA,""
"image-keyboard-response",111,126635,"0.0-4.33-0.33","wfmtul7qoeoykes",620,"176.csv","","214.79999995231628","resources/trios/L1T4A2.jpg","39","restless",0.2,0.4,0.9,0.24954427025381,"true"
"image-keyboard-response",112,127037,"0.0-4.33-1.33","wfmtul7qoeoykes",620,"176.csv","","null","resources/maskTrios/BBA2.jpg","null","",NA,NA,NA,NA,""
"image-keyboard-response",113,128239,"0.0-4.33-2.33","wfmtul7qoeoykes",620,"176.csv","","null","resources/images/coin2.png","null","",NA,NA,NA,NA,""
"image-keyboard-response",114,128422,"0.0-4.34-0.34","wfmtul7qoeoykes",620,"176.csv","","182.69999980926514","resources/trios/L1T4A2.jpg","39","restless",0.3,0.4,0.9,0.377929443285186,"true"
"image-keyboard-response",115,128822,"0.0-4.34-1.34","wfmtul7qoeoykes",620,"176.csv","","null","resources/maskTrios/BBA2.jpg","null","",NA,NA,NA,NA,""
"image-keyboard-response",116,130022,"0.0-4.34-2.34","wfmtul7qoeoykes",620,"176.csv","","null","resources/images/coin2.png","null","",NA,NA,NA,NA,""
"image-keyboard-response",117,130215,"0.0-4.35-0.35","wfmtul7qoeoykes",620,"176.csv","","191.90000009536743","resources/trios/L1T4A2.jpg","39","restless",0.2,0.4,0.9,0.296477552936975,"true"
"image-keyboard-response",118,130616,"0.0-4.35-1.35","wfmtul7qoeoykes",620,"176.csv","","null","resources/maskTrios/BBA2.jpg","null","",NA,NA,NA,NA,""
"image-keyboard-response",119,131816,"0.0-4.35-2.35","wfmtul7qoeoykes",620,"176.csv","","null","resources/images/coin2.png","null","",NA,NA,NA,NA,""
"image-keyboard-response",120,132036,"0.0-4.36-0.36","wfmtul7qoeoykes",620,"176.csv","","218.70000004768372","resources/trios/L1T4A2.jpg","39","restless",0.3,0.4,0.9,0.151082707631953,"true"
"image-keyboard-response",121,132437,"0.0-4.36-1.36","wfmtul7qoeoykes",620,"176.csv","","null","resources/maskTrios/BBA2.jpg","null","",NA,NA,NA,NA,""
"image-keyboard-response",122,133639,"0.0-4.36-2.36","wfmtul7qoeoykes",620,"176.csv","","null","resources/images/coin2.png","null","",NA,NA,NA,NA,""
"image-keyboard-response",123,133831,"0.0-4.37-0.37","wfmtul7qoeoykes",620,"176.csv","","191.40000009536743","resources/trios/L1T4A2.jpg","39","restless",0.3,0.4,0.9,0.391547562159442,"true"
"image-keyboard-response",124,134231,"0.0-4.37-1.37","wfmtul7qoeoykes",620,"176.csv","","null","resources/maskTrios/BBA2.jpg","null","",NA,NA,NA,NA,""
"image-keyboard-response",125,135432,"0.0-4.37-2.37","wfmtul7qoeoykes",620,"176.csv","","null","resources/images/coin2.png","null","",NA,NA,NA,NA,""
"image-keyboard-response",126,135554,"0.0-4.38-0.38","wfmtul7qoeoykes",620,"176.csv","","121.10000014305115","resources/trios/L1T4A2.jpg","39","restless",0.3,0.4,0.9,0.232918559639545,"true"
"image-keyboard-response",127,135955,"0.0-4.38-1.38","wfmtul7qoeoykes",620,"176.csv","","null","resources/maskTrios/BBA2.jpg","null","",NA,NA,NA,NA,""
"image-keyboard-response",128,137156,"0.0-4.38-2.38","wfmtul7qoeoykes",620,"176.csv","","null","resources/images/coin2.png","null","",NA,NA,NA,NA,""
"image-keyboard-response",129,137260,"0.0-4.39-0.39","wfmtul7qoeoykes",620,"176.csv","","103","resources/trios/L1T4A2.jpg","39","restless",0.2,0.4,0.9,0.627173133102064,"true"
"image-keyboard-response",130,137660,"0.0-4.39-1.39","wfmtul7qoeoykes",620,"176.csv","","null","resources/maskTrios/BBA2.jpg","null","",NA,NA,NA,NA,""
"image-keyboard-response",131,138862,"0.0-4.39-2.39","wfmtul7qoeoykes",620,"176.csv","","null","resources/images/coin2.png","null","",NA,NA,NA,NA,""
"image-keyboard-response",132,138922,"0.0-4.40-0.40","wfmtul7qoeoykes",620,"176.csv","","59.299999952316284","resources/trios/L1T4A2.jpg","39","restless",0.2,0.4,0.9,0.178332243391891,"true"
"image-keyboard-response",133,139322,"0.0-4.40-1.40","wfmtul7qoeoykes",620,"176.csv","","null","resources/maskTrios/BBA2.jpg","null","",NA,NA,NA,NA,""
"image-keyboard-response",134,140523,"0.0-4.40-2.40","wfmtul7qoeoykes",620,"176.csv","","null","resources/images/coin2.png","null","",NA,NA,NA,NA,""
"image-keyboard-response",135,140596,"0.0-4.41-0.41","wfmtul7qoeoykes",620,"176.csv","","72.39999985694885","resources/trios/L1T4A2.jpg","39","restless",0.2,0.4,0.9,0.443758623178101,"true"
"image-keyboard-response",136,140998,"0.0-4.41-1.41","wfmtul7qoeoykes",620,"176.csv","","null","resources/maskTrios/BBA2.jpg","null","",NA,NA,NA,NA,""
"image-keyboard-response",137,142198,"0.0-4.41-2.41","wfmtul7qoeoykes",620,"176.csv","","null","resources/images/coin2.png","null","",NA,NA,NA,NA,""
"image-keyboard-response",138,142282,"0.0-4.42-0.42","wfmtul7qoeoykes",620,"176.csv","","83.19999980926514","resources/trios/L1T4A2.jpg","39","restless",0.2,0.4,0.9,0.5196258656525,"true"
"image-keyboard-response",139,142682,"0.0-4.42-1.42","wfmtul7qoeoykes",620,"176.csv","","null","resources/maskTrios/BBA2.jpg","null","",NA,NA,NA,NA,""
"image-keyboard-response",140,143883,"0.0-4.42-2.42","wfmtul7qoeoykes",620,"176.csv","","null","resources/images/coin2.png","null","",NA,NA,NA,NA,""
"image-keyboard-response",141,144089,"0.0-4.43-0.43","wfmtul7qoeoykes",620,"176.csv","","205.30000019073486","resources/trios/L1T4A2.jpg","39","restless",0.2,0.4,0.9,0.0886196134221526,"true"
"image-keyboard-response",142,144490,"0.0-4.43-1.43","wfmtul7qoeoykes",620,"176.csv","","null","resources/maskTrios/BBA2.jpg","null","",NA,NA,NA,NA,""
"image-keyboard-response",143,145690,"0.0-4.43-2.43","wfmtul7qoeoykes",620,"176.csv","","null","resources/images/coin2.png","null","",NA,NA,NA,NA,""
"image-keyboard-response",144,145778,"0.0-4.44-0.44","wfmtul7qoeoykes",620,"176.csv","","87.20000004768372","resources/trios/L1T4A2.jpg","39","restless",0.2,0.4,0.9,0.251451260203406,"true"
"image-keyboard-response",145,146179,"0.0-4.44-1.44","wfmtul7qoeoykes",620,"176.csv","","null","resources/maskTrios/BBA2.jpg","null","",NA,NA,NA,NA,""
"image-keyboard-response",146,147380,"0.0-4.44-2.44","wfmtul7qoeoykes",620,"176.csv","","null","resources/images/coin2.png","null","",NA,NA,NA,NA,""
"image-keyboard-response",147,147387,"0.0-4.45-0.45","wfmtul7qoeoykes",620,"176.csv","","7.1000001430511475","resources/trios/L1T4A2.jpg","39","restless",0.3,0.4,0.9,0.714772548934056,"true"
"image-keyboard-response",148,147789,"0.0-4.45-1.45","wfmtul7qoeoykes",620,"176.csv","","null","resources/maskTrios/BBA2.jpg","null","",NA,NA,NA,NA,""
"image-keyboard-response",149,148990,"0.0-4.45-2.45","wfmtul7qoeoykes",620,"176.csv","","null","resources/images/coin2.png","null","",NA,NA,NA,NA,""
"image-keyboard-response",150,149063,"0.0-4.46-0.46","wfmtul7qoeoykes",620,"176.csv","","72.79999995231628","resources/trios/L1T4A2.jpg","39","restless",0.3,0.4,0.9,0.192490789905114,"true"
"image-keyboard-response",151,149463,"0.0-4.46-1.46","wfmtul7qoeoykes",620,"176.csv","","null","resources/maskTrios/BBA2.jpg","null","",NA,NA,NA,NA,""
"image-keyboard-response",152,150665,"0.0-4.46-2.46","wfmtul7qoeoykes",620,"176.csv","","null","resources/images/coin2.png","null","",NA,NA,NA,NA,""
"image-keyboard-response",153,150816,"0.0-4.47-0.47","wfmtul7qoeoykes",620,"176.csv","","151.40000009536743","resources/trios/L1T4A2.jpg","39","restless",0.3,0.4,0.9,0.727407745606504,"true"
"image-keyboard-response",154,151218,"0.0-4.47-1.47","wfmtul7qoeoykes",620,"176.csv","","null","resources/maskTrios/BBA2.jpg","null","",NA,NA,NA,NA,""
"image-keyboard-response",155,152418,"0.0-4.47-2.47","wfmtul7qoeoykes",620,"176.csv","","null","resources/images/coin2.png","null","",NA,NA,NA,NA,""
"image-keyboard-response",156,152644,"0.0-4.48-0.48","wfmtul7qoeoykes",620,"176.csv","","225.70000004768372","resources/trios/L1T4A2.jpg","39","restless",0.4,0.4,0.9,0.536993772373167,"true"
"image-keyboard-response",157,153045,"0.0-4.48-1.48","wfmtul7qoeoykes",620,"176.csv","","null","resources/maskTrios/BBA2.jpg","null","",NA,NA,NA,NA,""
"image-keyboard-response",158,154247,"0.0-4.48-2.48","wfmtul7qoeoykes",620,"176.csv","","null","resources/images/coin2.png","null","",NA,NA,NA,NA,""
"image-keyboard-response",159,154484,"0.0-4.49-0.49","wfmtul7qoeoykes",620,"176.csv","","237.09999990463257","resources/trios/L1T4A2.jpg","39","restless",0.4,0.4,0.9,0.0455100238742554,"true"
"image-keyboard-response",160,154885,"0.0-4.49-1.49","wfmtul7qoeoykes",620,"176.csv","","null","resources/maskTrios/BBA2.jpg","null","",NA,NA,NA,NA,""
"image-keyboard-response",161,156086,"0.0-4.49-2.49","wfmtul7qoeoykes",620,"176.csv","","null","resources/images/coin2.png","null","",NA,NA,NA,NA,""
"image-keyboard-response",162,156322,"0.0-4.50-0.50","wfmtul7qoeoykes",620,"176.csv","","236.30000019073486","resources/trios/L1T4A2.jpg","39","restless",0.4,0.5,0.9,0.389037815649431,"true"
"image-keyboard-response",163,156723,"0.0-4.50-1.50","wfmtul7qoeoykes",620,"176.csv","","null","resources/maskTrios/BBA2.jpg","null","",NA,NA,NA,NA,""
"image-keyboard-response",164,157924,"0.0-4.50-2.50","wfmtul7qoeoykes",620,"176.csv","","null","resources/images/coin2.png","null","",NA,NA,NA,NA,""
"image-keyboard-response",165,158151,"0.0-4.51-0.51","wfmtul7qoeoykes",620,"176.csv","","226.70000004768372","resources/trios/L1T4A2.jpg","39","restless",0.4,0.5,0.9,0.450825652301287,"true"
"image-keyboard-response",166,158552,"0.0-4.51-1.51","wfmtul7qoeoykes",620,"176.csv","","null","resources/maskTrios/BBA2.jpg","null","",NA,NA,NA,NA,""
"image-keyboard-response",167,159752,"0.0-4.51-2.51","wfmtul7qoeoykes",620,"176.csv","","null","resources/images/coin2.png","null","",NA,NA,NA,NA,""
"image-keyboard-response",168,159927,"0.0-4.52-0.52","wfmtul7qoeoykes",620,"176.csv","","173.90000009536743","resources/trios/L1T4A2.jpg","39","restless",0.4,0.5,0.9,0.996728686893201,"false"
"image-keyboard-response",169,160327,"0.0-4.52-1.52","wfmtul7qoeoykes",620,"176.csv","","null","resources/maskTrios/BBA2.jpg","null","",NA,NA,NA,NA,""
"image-keyboard-response",170,161527,"0.0-4.52-2.52","wfmtul7qoeoykes",620,"176.csv","","null","resources/images/fishbone.png","null","",NA,NA,NA,NA,""
"image-keyboard-response",171,161733,"0.0-4.53-0.53","wfmtul7qoeoykes",620,"176.csv","","205.39999985694885","resources/trios/L1T4A2.jpg","39","restless",0.4,0.5,0.9,0.23599972493558,"true"
"image-keyboard-response",172,162134,"0.0-4.53-1.53","wfmtul7qoeoykes",620,"176.csv","","null","resources/maskTrios/BBA2.jpg","null","",NA,NA,NA,NA,""
"image-keyboard-response",173,163335,"0.0-4.53-2.53","wfmtul7qoeoykes",620,"176.csv","","null","resources/images/coin2.png","null","",NA,NA,NA,NA,""
"image-keyboard-response",174,163584,"0.0-4.54-0.54","wfmtul7qoeoykes",620,"176.csv","","248.79999995231628","resources/trios/L1T4A2.jpg","39","restless",0.4,0.5,0.9,0.75851762838888,"true"
"image-keyboard-response",175,163986,"0.0-4.54-1.54","wfmtul7qoeoykes",620,"176.csv","","null","resources/maskTrios/BBA2.jpg","null","",NA,NA,NA,NA,""
"image-keyboard-response",176,165188,"0.0-4.54-2.54","wfmtul7qoeoykes",620,"176.csv","","null","resources/images/coin2.png","null","",NA,NA,NA,NA,""
"image-keyboard-response",177,165364,"0.0-4.55-0.55","wfmtul7qoeoykes",620,"176.csv","","175.89999985694885","resources/trios/L1T4A2.jpg","39","restless",0.4,0.5,0.9,0.479443664830878,"true"
"image-keyboard-response",178,165765,"0.0-4.55-1.55","wfmtul7qoeoykes",620,"176.csv","","null","resources/maskTrios/BBA2.jpg","null","",NA,NA,NA,NA,""
"image-keyboard-response",179,166966,"0.0-4.55-2.55","wfmtul7qoeoykes",620,"176.csv","","null","resources/images/coin2.png","null","",NA,NA,NA,NA,""
"image-keyboard-response",180,167152,"0.0-4.56-0.56","wfmtul7qoeoykes",620,"176.csv","","184.89999985694885","resources/trios/L1T4A2.jpg","39","restless",0.4,0.5,0.9,0.315697636511527,"true"
"image-keyboard-response",181,167552,"0.0-4.56-1.56","wfmtul7qoeoykes",620,"176.csv","","null","resources/maskTrios/BBA2.jpg","null","",NA,NA,NA,NA,""
"image-keyboard-response",182,168753,"0.0-4.56-2.56","wfmtul7qoeoykes",620,"176.csv","","null","resources/images/coin2.png","null","",NA,NA,NA,NA,""
"image-keyboard-response",183,168875,"0.0-4.57-0.57","wfmtul7qoeoykes",620,"176.csv","","121.5","resources/trios/L1T4A2.jpg","39","restless",0.4,0.5,0.9,0.672050791417458,"true"
"image-keyboard-response",184,169275,"0.0-4.57-1.57","wfmtul7qoeoykes",620,"176.csv","","null","resources/maskTrios/BBA2.jpg","null","",NA,NA,NA,NA,""
"image-keyboard-response",185,170476,"0.0-4.57-2.57","wfmtul7qoeoykes",620,"176.csv","","null","resources/images/coin2.png","null","",NA,NA,NA,NA,""
"image-keyboard-response",186,170671,"0.0-4.58-0.58","wfmtul7qoeoykes",620,"176.csv","","194.69999980926514","resources/trios/L1T4A2.jpg","39","restless",0.4,0.5,0.8,0.484446791726661,"true"
"image-keyboard-response",187,171080,"0.0-4.58-1.58","wfmtul7qoeoykes",620,"176.csv","","null","resources/maskTrios/BBA2.jpg","null","",NA,NA,NA,NA,""
"image-keyboard-response",188,172281,"0.0-4.58-2.58","wfmtul7qoeoykes",620,"176.csv","","null","resources/images/coin2.png","null","",NA,NA,NA,NA,""
"image-keyboard-response",189,172426,"0.0-4.59-0.59","wfmtul7qoeoykes",620,"176.csv","","144.79999995231628","resources/trios/L1T4A2.jpg","39","restless",0.4,0.5,0.8,0.808913148334332,"false"
"image-keyboard-response",190,172833,"0.0-4.59-1.59","wfmtul7qoeoykes",620,"176.csv","","null","resources/maskTrios/BBA2.jpg","null","",NA,NA,NA,NA,""
"image-keyboard-response",191,174036,"0.0-4.59-2.59","wfmtul7qoeoykes",620,"176.csv","","null","resources/images/fishbone.png","null","",NA,NA,NA,NA,""
"image-keyboard-response",192,174053,"0.0-4.60-0.60","wfmtul7qoeoykes",620,"176.csv","","17","resources/trios/L1T4A2.jpg","39","restless",0.4,0.6,0.9,0.613860838730121,"true"
"image-keyboard-response",193,174454,"0.0-4.60-1.60","wfmtul7qoeoykes",620,"176.csv","","null","resources/maskTrios/BBA2.jpg","null","",NA,NA,NA,NA,""
"image-keyboard-response",194,175655,"0.0-4.60-2.60","wfmtul7qoeoykes",620,"176.csv","","null","resources/images/coin2.png","null","",NA,NA,NA,NA,""
"image-keyboard-response",195,175890,"0.0-4.61-0.61","wfmtul7qoeoykes",620,"176.csv","","235.20000004768372","resources/trios/L1T4A2.jpg","39","restless",0.4,0.6,0.9,0.769181099686631,"true"
"image-keyboard-response",196,176291,"0.0-4.61-1.61","wfmtul7qoeoykes",620,"176.csv","","null","resources/maskTrios/BBA2.jpg","null","",NA,NA,NA,NA,""
"image-keyboard-response",197,177493,"0.0-4.61-2.61","wfmtul7qoeoykes",620,"176.csv","","null","resources/images/coin2.png","null","",NA,NA,NA,NA,""
"image-keyboard-response",198,177692,"0.0-4.62-0.62","wfmtul7qoeoykes",620,"176.csv","","199","resources/trios/L1T4A2.jpg","39","restless",0.4,0.6,0.9,0.17974411531162,"true"
"image-keyboard-response",199,178093,"0.0-4.62-1.62","wfmtul7qoeoykes",620,"176.csv","","null","resources/maskTrios/BBA2.jpg","null","",NA,NA,NA,NA,""
"image-keyboard-response",200,179294,"0.0-4.62-2.62","wfmtul7qoeoykes",620,"176.csv","","null","resources/images/coin2.png","null","",NA,NA,NA,NA,""
"image-keyboard-response",201,179431,"0.0-4.63-0.63","wfmtul7qoeoykes",620,"176.csv","","137","resources/trios/L1T4A2.jpg","39","restless",0.4,0.6,0.9,0.928575394671264,"false"
"image-keyboard-response",202,179832,"0.0-4.63-1.63","wfmtul7qoeoykes",620,"176.csv","","null","resources/maskTrios/BBA2.jpg","null","",NA,NA,NA,NA,""
"image-keyboard-response",203,181033,"0.0-4.63-2.63","wfmtul7qoeoykes",620,"176.csv","","null","resources/images/fishbone.png","null","",NA,NA,NA,NA,""
"image-keyboard-response",204,181089,"0.0-4.64-0.64","wfmtul7qoeoykes",620,"176.csv","","56.200000047683716","resources/trios/L1T4A2.jpg","39","restless",0.4,0.6,0.9,0.503135297020487,"true"
"image-keyboard-response",205,181490,"0.0-4.64-1.64","wfmtul7qoeoykes",620,"176.csv","","null","resources/maskTrios/BBA2.jpg","null","",NA,NA,NA,NA,""
"image-keyboard-response",206,182691,"0.0-4.64-2.64","wfmtul7qoeoykes",620,"176.csv","","null","resources/images/coin2.png","null","",NA,NA,NA,NA,""
"image-keyboard-response",207,182887,"0.0-4.65-0.65","wfmtul7qoeoykes",620,"176.csv","","196","resources/trios/L1T4A2.jpg","39","restless",0.4,0.6,0.9,0.825759138389852,"true"
"image-keyboard-response",208,183287,"0.0-4.65-1.65","wfmtul7qoeoykes",620,"176.csv","","null","resources/maskTrios/BBA2.jpg","null","",NA,NA,NA,NA,""
"image-keyboard-response",209,184489,"0.0-4.65-2.65","wfmtul7qoeoykes",620,"176.csv","","null","resources/images/coin2.png","null","",NA,NA,NA,NA,""
"image-keyboard-response",210,184682,"0.0-4.66-0.66","wfmtul7qoeoykes",620,"176.csv","","192.60000014305115","resources/trios/L1T4A2.jpg","39","restless",0.4,0.6,0.9,0.0578452621735059,"true"
"image-keyboard-response",211,185084,"0.0-4.66-1.66","wfmtul7qoeoykes",620,"176.csv","","null","resources/maskTrios/BBA2.jpg","null","",NA,NA,NA,NA,""
"image-keyboard-response",212,186284,"0.0-4.66-2.66","wfmtul7qoeoykes",620,"176.csv","","null","resources/images/coin2.png","null","",NA,NA,NA,NA,""
"image-keyboard-response",213,186497,"0.0-4.67-0.67","wfmtul7qoeoykes",620,"176.csv","","211.79999995231628","resources/trios/L1T4A2.jpg","39","restless",0.4,0.6,0.9,0.146415456729335,"true"
"image-keyboard-response",214,186897,"0.0-4.67-1.67","wfmtul7qoeoykes",620,"176.csv","","null","resources/maskTrios/BBA2.jpg","null","",NA,NA,NA,NA,""
"image-keyboard-response",215,188098,"0.0-4.67-2.67","wfmtul7qoeoykes",620,"176.csv","","null","resources/images/coin2.png","null","",NA,NA,NA,NA,""
"image-keyboard-response",216,188235,"0.0-4.68-0.68","wfmtul7qoeoykes",620,"176.csv","","136.60000014305115","resources/trios/L1T4A2.jpg","39","restless",0.4,0.6,0.9,0.918673033933679,"false"
"image-keyboard-response",217,188635,"0.0-4.68-1.68","wfmtul7qoeoykes",620,"176.csv","","null","resources/maskTrios/BBA2.jpg","null","",NA,NA,NA,NA,""
"image-keyboard-response",218,189836,"0.0-4.68-2.68","wfmtul7qoeoykes",620,"176.csv","","null","resources/images/fishbone.png","null","",NA,NA,NA,NA,""
"image-keyboard-response",219,189882,"0.0-4.69-0.69","wfmtul7qoeoykes",620,"176.csv","","45.299999952316284","resources/trios/L1T4A2.jpg","39","restless",0.4,0.6,0.9,0.393889256976038,"true"
"image-keyboard-response",220,190282,"0.0-4.69-1.69","wfmtul7qoeoykes",620,"176.csv","","null","resources/maskTrios/BBA2.jpg","null","",NA,NA,NA,NA,""
"image-keyboard-response",221,191483,"0.0-4.69-2.69","wfmtul7qoeoykes",620,"176.csv","","null","resources/images/coin2.png","null","",NA,NA,NA,NA,""
"image-keyboard-response",222,191674,"0.0-4.70-0.70","wfmtul7qoeoykes",620,"176.csv","","190.5","resources/trios/L1T4A2.jpg","39","restless",0.4,0.6,0.9,0.177330821115295,"true"
"image-keyboard-response",223,192074,"0.0-4.70-1.70","wfmtul7qoeoykes",620,"176.csv","","null","resources/maskTrios/BBA2.jpg","null","",NA,NA,NA,NA,""
"image-keyboard-response",224,193275,"0.0-4.70-2.70","wfmtul7qoeoykes",620,"176.csv","","null","resources/images/coin2.png","null","",NA,NA,NA,NA,""
"image-keyboard-response",225,193398,"0.0-4.71-0.71","wfmtul7qoeoykes",620,"176.csv","","122.29999995231628","resources/trios/L1T4A2.jpg","39","restless",0.4,0.5,0.9,0.947272736622396,"false"
"image-keyboard-response",226,193800,"0.0-4.71-1.71","wfmtul7qoeoykes",620,"176.csv","","null","resources/maskTrios/BBA2.jpg","null","",NA,NA,NA,NA,""
"image-keyboard-response",227,195001,"0.0-4.71-2.71","wfmtul7qoeoykes",620,"176.csv","","null","resources/images/fishbone.png","null","",NA,NA,NA,NA,""
"image-keyboard-response",228,195019,"0.0-4.72-0.72","wfmtul7qoeoykes",620,"176.csv","","17.90000009536743","resources/trios/L1T4A2.jpg","39","restless",0.4,0.6,0.9,0.238771885187651,"true"
"image-keyboard-response",229,195420,"0.0-4.72-1.72","wfmtul7qoeoykes",620,"176.csv","","null","resources/maskTrios/BBA2.jpg","null","",NA,NA,NA,NA,""
"image-keyboard-response",230,196621,"0.0-4.72-2.72","wfmtul7qoeoykes",620,"176.csv","","null","resources/images/coin2.png","null","",NA,NA,NA,NA,""
"image-keyboard-response",231,196762,"0.0-4.73-0.73","wfmtul7qoeoykes",620,"176.csv","","140.60000014305115","resources/trios/L1T4A2.jpg","39","restless",0.4,0.6,0.9,0.687595336929048,"true"
"image-keyboard-response",232,197163,"0.0-4.73-1.73","wfmtul7qoeoykes",620,"176.csv","","null","resources/maskTrios/BBA2.jpg","null","",NA,NA,NA,NA,""
"image-keyboard-response",233,198364,"0.0-4.73-2.73","wfmtul7qoeoykes",620,"176.csv","","null","resources/images/coin2.png","null","",NA,NA,NA,NA,""
"image-keyboard-response",234,198478,"0.0-4.74-0.74","wfmtul7qoeoykes",620,"176.csv","","113.70000004768372","resources/trios/L1T4A2.jpg","39","restless",0.4,0.6,0.9,0.625647491821861,"true"
"image-keyboard-response",235,198879,"0.0-4.74-1.74","wfmtul7qoeoykes",620,"176.csv","","null","resources/maskTrios/BBA2.jpg","null","",NA,NA,NA,NA,""
"image-keyboard-response",236,200079,"0.0-4.74-2.74","wfmtul7qoeoykes",620,"176.csv","","null","resources/images/coin2.png","null","",NA,NA,NA,NA,""
"image-keyboard-response",237,200191,"0.0-4.75-0.75","wfmtul7qoeoykes",620,"176.csv","","111.90000009536743","resources/trios/L1T4A2.jpg","39","restless",0.3,0.6,0.9,0.804991503034517,"true"
"image-keyboard-response",238,200592,"0.0-4.75-1.75","wfmtul7qoeoykes",620,"176.csv","","null","resources/maskTrios/BBA2.jpg","null","",NA,NA,NA,NA,""
"image-keyboard-response",239,201793,"0.0-4.75-2.75","wfmtul7qoeoykes",620,"176.csv","","null","resources/images/coin2.png","null","",NA,NA,NA,NA,""
"image-keyboard-response",240,201981,"0.0-4.76-0.76","wfmtul7qoeoykes",620,"176.csv","","188","resources/trios/L1T4A2.jpg","39","restless",0.3,0.6,0.8,0.414574134627333,"true"
"image-keyboard-response",241,202382,"0.0-4.76-1.76","wfmtul7qoeoykes",620,"176.csv","","null","resources/maskTrios/BBA2.jpg","null","",NA,NA,NA,NA,""
"image-keyboard-response",242,203583,"0.0-4.76-2.76","wfmtul7qoeoykes",620,"176.csv","","null","resources/images/coin2.png","null","",NA,NA,NA,NA,""
"image-keyboard-response",243,203764,"0.0-4.77-0.77","wfmtul7qoeoykes",620,"176.csv","","181.09999990463257","resources/trios/L1T4A2.jpg","39","restless",0.3,0.6,0.8,0.881670111883567,"false"
"image-keyboard-response",244,204166,"0.0-4.77-1.77","wfmtul7qoeoykes",620,"176.csv","","null","resources/maskTrios/BBA2.jpg","null","",NA,NA,NA,NA,""
"image-keyboard-response",245,205367,"0.0-4.77-2.77","wfmtul7qoeoykes",620,"176.csv","","null","resources/images/fishbone.png","null","",NA,NA,NA,NA,""
"image-keyboard-response",246,205547,"0.0-4.78-0.78","wfmtul7qoeoykes",620,"176.csv","","180","resources/trios/L1T4A2.jpg","39","restless",0.3,0.6,0.8,0.716167025812661,"true"
"image-keyboard-response",247,205948,"0.0-4.78-1.78","wfmtul7qoeoykes",620,"176.csv","","null","resources/maskTrios/BBA2.jpg","null","",NA,NA,NA,NA,""
"image-keyboard-response",248,207149,"0.0-4.78-2.78","wfmtul7qoeoykes",620,"176.csv","","null","resources/images/coin2.png","null","",NA,NA,NA,NA,""
"image-keyboard-response",249,207320,"0.0-4.79-0.79","wfmtul7qoeoykes",620,"176.csv","","171.20000004768372","resources/trios/L1T4A2.jpg","39","restless",0.3,0.6,0.8,0.285800499977474,"true"
"image-keyboard-response",250,207721,"0.0-4.79-1.79","wfmtul7qoeoykes",620,"176.csv","","null","resources/maskTrios/BBA2.jpg","null","",NA,NA,NA,NA,""
"image-keyboard-response",251,208922,"0.0-4.79-2.79","wfmtul7qoeoykes",620,"176.csv","","null","resources/images/coin2.png","null","",NA,NA,NA,NA,""
"image-keyboard-response",252,209126,"0.0-4.80-0.80","wfmtul7qoeoykes",620,"176.csv","","204.09999990463257","resources/trios/L1T4A2.jpg","39","restless",0.4,0.6,0.9,0.942138056364197,"false"
"image-keyboard-response",253,209528,"0.0-4.80-1.80","wfmtul7qoeoykes",620,"176.csv","","null","resources/maskTrios/BBA2.jpg","null","",NA,NA,NA,NA,""
"image-keyboard-response",254,210729,"0.0-4.80-2.80","wfmtul7qoeoykes",620,"176.csv","","null","resources/images/fishbone.png","null","",NA,NA,NA,NA,""
"image-keyboard-response",255,210779,"0.0-4.81-0.81","wfmtul7qoeoykes",620,"176.csv","","49","resources/trios/L1T4A2.jpg","39","restless",0.4,0.6,0.9,0.65835919028022,"true"
"image-keyboard-response",256,211179,"0.0-4.81-1.81","wfmtul7qoeoykes",620,"176.csv","","null","resources/maskTrios/BBA2.jpg","null","",NA,NA,NA,NA,""
"image-keyboard-response",257,212381,"0.0-4.81-2.81","wfmtul7qoeoykes",620,"176.csv","","null","resources/images/coin2.png","null","",NA,NA,NA,NA,""
"image-keyboard-response",258,212537,"0.0-4.82-0.82","wfmtul7qoeoykes",620,"176.csv","","155.29999995231628","resources/trios/L1T4A2.jpg","39","restless",0.4,0.6,0.9,0.331208633952023,"true"
"image-keyboard-response",259,212938,"0.0-4.82-1.82","wfmtul7qoeoykes",620,"176.csv","","null","resources/maskTrios/BBA2.jpg","null","",NA,NA,NA,NA,""
"image-keyboard-response",260,214139,"0.0-4.82-2.82","wfmtul7qoeoykes",620,"176.csv","","null","resources/images/coin2.png","null","",NA,NA,NA,NA,""
"image-keyboard-response",261,214363,"0.0-4.83-0.83","wfmtul7qoeoykes",620,"176.csv","","223.30000019073486","resources/trios/L1T4A2.jpg","39","restless",0.5,0.6,0.9,0.272157401014622,"true"
"image-keyboard-response",262,214764,"0.0-4.83-1.83","wfmtul7qoeoykes",620,"176.csv","","null","resources/maskTrios/BBA2.jpg","null","",NA,NA,NA,NA,""
"image-keyboard-response",263,215964,"0.0-4.83-2.83","wfmtul7qoeoykes",620,"176.csv","","null","resources/images/coin2.png","null","",NA,NA,NA,NA,""
"image-keyboard-response",264,216178,"0.0-4.84-0.84","wfmtul7qoeoykes",620,"176.csv","","213","resources/trios/L1T4A2.jpg","39","restless",0.5,0.6,0.9,0.660069015803568,"true"
"image-keyboard-response",265,216579,"0.0-4.84-1.84","wfmtul7qoeoykes",620,"176.csv","","null","resources/maskTrios/BBA2.jpg","null","",NA,NA,NA,NA,""
"image-keyboard-response",266,217780,"0.0-4.84-2.84","wfmtul7qoeoykes",620,"176.csv","","null","resources/images/coin2.png","null","",NA,NA,NA,NA,""
"image-keyboard-response",267,217980,"0.0-4.85-0.85","wfmtul7qoeoykes",620,"176.csv","","199.90000009536743","resources/trios/L1T4A2.jpg","39","restless",0.5,0.6,0.9,0.338815295817963,"true"
"image-keyboard-response",268,218381,"0.0-4.85-1.85","wfmtul7qoeoykes",620,"176.csv","","null","resources/maskTrios/BBA2.jpg","null","",NA,NA,NA,NA,""
"image-keyboard-response",269,219582,"0.0-4.85-2.85","wfmtul7qoeoykes",620,"176.csv","","null","resources/images/coin2.png","null","",NA,NA,NA,NA,""
"image-keyboard-response",270,219786,"0.0-4.86-0.86","wfmtul7qoeoykes",620,"176.csv","","203.70000004768372","resources/trios/L1T4A2.jpg","39","restless",0.5,0.7,0.9,0.534618145058321,"true"
"image-keyboard-response",271,220187,"0.0-4.86-1.86","wfmtul7qoeoykes",620,"176.csv","","null","resources/maskTrios/BBA2.jpg","null","",NA,NA,NA,NA,""
"image-keyboard-response",272,221387,"0.0-4.86-2.86","wfmtul7qoeoykes",620,"176.csv","","null","resources/images/coin2.png","null","",NA,NA,NA,NA,""
"image-keyboard-response",273,221588,"0.0-4.87-0.87","wfmtul7qoeoykes",620,"176.csv","","200.19999980926514","resources/trios/L1T4A2.jpg","39","restless",0.5,0.7,0.9,0.875168017686462,"true"
"image-keyboard-response",274,221989,"0.0-4.87-1.87","wfmtul7qoeoykes",620,"176.csv","","null","resources/maskTrios/BBA2.jpg","null","",NA,NA,NA,NA,""
"image-keyboard-response",275,223190,"0.0-4.87-2.87","wfmtul7qoeoykes",620,"176.csv","","null","resources/images/coin2.png","null","",NA,NA,NA,NA,""
"image-keyboard-response",276,223372,"0.0-4.88-0.88","wfmtul7qoeoykes",620,"176.csv","","181.19999980926514","resources/trios/L1T4A2.jpg","39","restless",0.6,0.7,0.9,0.533189570796052,"true"
"image-keyboard-response",277,223774,"0.0-4.88-1.88","wfmtul7qoeoykes",620,"176.csv","","null","resources/maskTrios/BBA2.jpg","null","",NA,NA,NA,NA,""
"image-keyboard-response",278,224976,"0.0-4.88-2.88","wfmtul7qoeoykes",620,"176.csv","","null","resources/images/coin2.png","null","",NA,NA,NA,NA,""
"image-keyboard-response",279,225118,"0.0-4.89-0.89","wfmtul7qoeoykes",620,"176.csv","","142.20000004768372","resources/trios/L1T4A2.jpg","39","restless",0.6,0.7,0.9,0.78498606178406,"true"
"image-keyboard-response",280,225520,"0.0-4.89-1.89","wfmtul7qoeoykes",620,"176.csv","","null","resources/maskTrios/BBA2.jpg","null","",NA,NA,NA,NA,""
"image-keyboard-response",281,226721,"0.0-4.89-2.89","wfmtul7qoeoykes",620,"176.csv","","null","resources/images/coin2.png","null","",NA,NA,NA,NA,""
"image-keyboard-response",282,226915,"0.0-4.90-0.90","wfmtul7qoeoykes",620,"176.csv","","194.09999990463257","resources/trios/L1T4A2.jpg","39","restless",0.6,0.7,0.9,0.261022860401648,"true"
"image-keyboard-response",283,227317,"0.0-4.90-1.90","wfmtul7qoeoykes",620,"176.csv","","null","resources/maskTrios/BBA2.jpg","null","",NA,NA,NA,NA,""
"image-keyboard-response",284,228518,"0.0-4.90-2.90","wfmtul7qoeoykes",620,"176.csv","","null","resources/images/coin2.png","null","",NA,NA,NA,NA,""
"image-keyboard-response",285,228708,"0.0-4.91-0.91","wfmtul7qoeoykes",620,"176.csv","","190.20000004768372","resources/trios/L1T4A2.jpg","39","restless",0.6,0.7,0.9,0.867767074438269,"true"
"image-keyboard-response",286,229110,"0.0-4.91-1.91","wfmtul7qoeoykes",620,"176.csv","","null","resources/maskTrios/BBA2.jpg","null","",NA,NA,NA,NA,""
"image-keyboard-response",287,230310,"0.0-4.91-2.91","wfmtul7qoeoykes",620,"176.csv","","null","resources/images/coin2.png","null","",NA,NA,NA,NA,""
"image-keyboard-response",288,230504,"0.0-4.92-0.92","wfmtul7qoeoykes",620,"176.csv","","193.59999990463257","resources/trios/L1T4A2.jpg","39","restless",0.5,0.7,0.9,0.866873643844101,"true"
"image-keyboard-response",289,230905,"0.0-4.92-1.92","wfmtul7qoeoykes",620,"176.csv","","null","resources/maskTrios/BBA2.jpg","null","",NA,NA,NA,NA,""
"image-keyboard-response",290,232107,"0.0-4.92-2.92","wfmtul7qoeoykes",620,"176.csv","","null","resources/images/coin2.png","null","",NA,NA,NA,NA,""
"image-keyboard-response",291,232326,"0.0-4.93-0.93","wfmtul7qoeoykes",620,"176.csv","","218.5","resources/trios/L1T4A2.jpg","39","restless",0.4,0.7,0.8,0.0880692889057542,"true"
"image-keyboard-response",292,232727,"0.0-4.93-1.93","wfmtul7qoeoykes",620,"176.csv","","null","resources/maskTrios/BBA2.jpg","null","",NA,NA,NA,NA,""
"image-keyboard-response",293,233934,"0.0-4.93-2.93","wfmtul7qoeoykes",620,"176.csv","","null","resources/images/coin2.png","null","",NA,NA,NA,NA,""
"image-keyboard-response",294,234146,"0.0-4.94-0.94","wfmtul7qoeoykes",620,"176.csv","","211.39999985694885","resources/trios/L1T4A2.jpg","39","restless",0.4,0.7,0.7,0.417331627150593,"true"
"image-keyboard-response",295,234547,"0.0-4.94-1.94","wfmtul7qoeoykes",620,"176.csv","","null","resources/maskTrios/BBA2.jpg","null","",NA,NA,NA,NA,""
"image-keyboard-response",296,235748,"0.0-4.94-2.94","wfmtul7qoeoykes",620,"176.csv","","null","resources/images/coin2.png","null","",NA,NA,NA,NA,""
"image-keyboard-response",297,235917,"0.0-4.95-0.95","wfmtul7qoeoykes",620,"176.csv","","168.70000004768372","resources/trios/L1T4A2.jpg","39","restless",0.4,0.7,0.7,0.605762588188995,"true"
"image-keyboard-response",298,236317,"0.0-4.95-1.95","wfmtul7qoeoykes",620,"176.csv","","null","resources/maskTrios/BBA2.jpg","null","",NA,NA,NA,NA,""
"image-keyboard-response",299,237519,"0.0-4.95-2.95","wfmtul7qoeoykes",620,"176.csv","","null","resources/images/coin2.png","null","",NA,NA,NA,NA,""
"image-keyboard-response",300,237777,"0.0-4.96-0.96","wfmtul7qoeoykes",620,"176.csv","","257.40000009536743","resources/trios/L1T4A2.jpg","39","restless",0.4,0.7,0.7,0.514444529232876,"true"
"image-keyboard-response",301,238179,"0.0-4.96-1.96","wfmtul7qoeoykes",620,"176.csv","","null","resources/maskTrios/BBA2.jpg","null","",NA,NA,NA,NA,""
"image-keyboard-response",302,239380,"0.0-4.96-2.96","wfmtul7qoeoykes",620,"176.csv","","null","resources/images/coin2.png","null","",NA,NA,NA,NA,""
"image-keyboard-response",303,239623,"0.0-4.97-0.97","wfmtul7qoeoykes",620,"176.csv","","242.29999995231628","resources/trios/L1T4A2.jpg","39","restless",0.4,0.6,0.7,0.0681014893882246,"true"
"image-keyboard-response",304,240024,"0.0-4.97-1.97","wfmtul7qoeoykes",620,"176.csv","","null","resources/maskTrios/BBA2.jpg","null","",NA,NA,NA,NA,""
"image-keyboard-response",305,241224,"0.0-4.97-2.97","wfmtul7qoeoykes",620,"176.csv","","null","resources/images/coin2.png","null","",NA,NA,NA,NA,""
"image-keyboard-response",306,241449,"0.0-4.98-0.98","wfmtul7qoeoykes",620,"176.csv","","223.89999985694885","resources/trios/L1T4A2.jpg","39","restless",0.4,0.6,0.7,0.802227048650169,"false"
"image-keyboard-response",307,241850,"0.0-4.98-1.98","wfmtul7qoeoykes",620,"176.csv","","null","resources/maskTrios/BBA2.jpg","null","",NA,NA,NA,NA,""
"image-keyboard-response",308,243052,"0.0-4.98-2.98","wfmtul7qoeoykes",620,"176.csv","","null","resources/images/fishbone.png","null","",NA,NA,NA,NA,""
"image-keyboard-response",309,243452,"0.0-4.99-0.99","wfmtul7qoeoykes",620,"176.csv","","399.60000014305115","resources/trios/L1T4A2.jpg","39","restless",0.4,0.6,0.7,0.972054576125824,"false"
"image-keyboard-response",310,243853,"0.0-4.99-1.99","wfmtul7qoeoykes",620,"176.csv","","null","resources/maskTrios/BBA2.jpg","null","",NA,NA,NA,NA,""
"image-keyboard-response",311,245053,"0.0-4.99-2.99","wfmtul7qoeoykes",620,"176.csv","","null","resources/images/fishbone.png","null","",NA,NA,NA,NA,""
"image-keyboard-response",312,245286,"0.0-4.100-0.100","wfmtul7qoeoykes",620,"176.csv","","231.90000009536743","resources/trios/L1T4A2.jpg","39","restless",0.3,0.6,0.6,0.545979889639781,"true"
"image-keyboard-response",313,245687,"0.0-4.100-1.100","wfmtul7qoeoykes",620,"176.csv","","null","resources/maskTrios/BBA2.jpg","null","",NA,NA,NA,NA,""
"image-keyboard-response",314,246888,"0.0-4.100-2.100","wfmtul7qoeoykes",620,"176.csv","","null","resources/images/coin2.png","null","",NA,NA,NA,NA,""
"image-keyboard-response",315,246919,"0.0-4.101-0.101","wfmtul7qoeoykes",620,"176.csv","","30.899999856948853","resources/trios/L1T4A2.jpg","39","restless",0.3,0.6,0.6,0.484727402936968,"true"
"image-keyboard-response",316,247320,"0.0-4.101-1.101","wfmtul7qoeoykes",620,"176.csv","","null","resources/maskTrios/BBA2.jpg","null","",NA,NA,NA,NA,""
"image-keyboard-response",317,248520,"0.0-4.101-2.101","wfmtul7qoeoykes",620,"176.csv","","null","resources/images/coin2.png","null","",NA,NA,NA,NA,""
"image-keyboard-response",318,248699,"0.0-4.102-0.102","wfmtul7qoeoykes",620,"176.csv","","178","resources/trios/L1T4A2.jpg","39","restless",0.4,0.6,0.6,0.173985260317658,"true"
"image-keyboard-response",319,249100,"0.0-4.102-1.102","wfmtul7qoeoykes",620,"176.csv","","null","resources/maskTrios/BBA2.jpg","null","",NA,NA,NA,NA,""
"image-keyboard-response",320,250302,"0.0-4.102-2.102","wfmtul7qoeoykes",620,"176.csv","","null","resources/images/coin2.png","null","",NA,NA,NA,NA,""
"image-keyboard-response",321,250462,"0.0-4.103-0.103","wfmtul7qoeoykes",620,"176.csv","","159.90000009536743","resources/trios/L1T4A2.jpg","39","restless",0.4,0.6,0.7,0.787125792367006,"false"
"image-keyboard-response",322,250863,"0.0-4.103-1.103","wfmtul7qoeoykes",620,"176.csv","","null","resources/maskTrios/BBA2.jpg","null","",NA,NA,NA,NA,""
"image-keyboard-response",323,252064,"0.0-4.103-2.103","wfmtul7qoeoykes",620,"176.csv","","null","resources/images/fishbone.png","null","",NA,NA,NA,NA,""
"image-keyboard-response",324,252245,"0.0-4.104-0.104","wfmtul7qoeoykes",620,"176.csv","","181.20000004768372","resources/trios/L1T4A2.jpg","39","restless",0.4,0.6,0.7,0.586642113631846,"true"
"image-keyboard-response",325,252647,"0.0-4.104-1.104","wfmtul7qoeoykes",620,"176.csv","","null","resources/maskTrios/BBA2.jpg","null","",NA,NA,NA,NA,""
"image-keyboard-response",326,253848,"0.0-4.104-2.104","wfmtul7qoeoykes",620,"176.csv","","null","resources/images/coin2.png","null","",NA,NA,NA,NA,""
"image-keyboard-response",327,254001,"0.0-4.105-0.105","wfmtul7qoeoykes",620,"176.csv","","152.60000014305115","resources/trios/L1T4A2.jpg","39","restless",0.5,0.6,0.7,0.664572039115438,"true"
"image-keyboard-response",328,254402,"0.0-4.105-1.105","wfmtul7qoeoykes",620,"176.csv","","null","resources/maskTrios/BBA2.jpg","null","",NA,NA,NA,NA,""
"image-keyboard-response",329,255603,"0.0-4.105-2.105","wfmtul7qoeoykes",620,"176.csv","","null","resources/images/coin2.png","null","",NA,NA,NA,NA,""
"image-keyboard-response",330,255796,"0.0-4.106-0.106","wfmtul7qoeoykes",620,"176.csv","","193.09999990463257","resources/trios/L1T4A2.jpg","39","restless",0.5,0.6,0.7,0.718045230281088,"false"
"image-keyboard-response",331,256197,"0.0-4.106-1.106","wfmtul7qoeoykes",620,"176.csv","","null","resources/maskTrios/BBA2.jpg","null","",NA,NA,NA,NA,""
"image-keyboard-response",332,257398,"0.0-4.106-2.106","wfmtul7qoeoykes",620,"176.csv","","null","resources/images/fishbone.png","null","",NA,NA,NA,NA,""
"image-keyboard-response",333,257537,"0.0-4.107-0.107","wfmtul7qoeoykes",620,"176.csv","","139","resources/trios/L1T4A2.jpg","39","restless",0.5,0.5,0.7,0.914435939342224,"false"
"image-keyboard-response",334,257940,"0.0-4.107-1.107","wfmtul7qoeoykes",620,"176.csv","","null","resources/maskTrios/BBA2.jpg","null","",NA,NA,NA,NA,""
"image-keyboard-response",335,259141,"0.0-4.107-2.107","wfmtul7qoeoykes",620,"176.csv","","null","resources/images/fishbone.png","null","",NA,NA,NA,NA,""
"image-keyboard-response",336,259298,"0.0-4.108-0.108","wfmtul7qoeoykes",620,"176.csv","","157.10000014305115","resources/trios/L1T4A2.jpg","39","restless",0.5,0.5,0.7,0.944991866339929,"false"
"image-keyboard-response",337,259701,"0.0-4.108-1.108","wfmtul7qoeoykes",620,"176.csv","","null","resources/maskTrios/BBA2.jpg","null","",NA,NA,NA,NA,""
"image-keyboard-response",338,260901,"0.0-4.108-2.108","wfmtul7qoeoykes",620,"176.csv","","null","resources/images/fishbone.png","null","",NA,NA,NA,NA,""
"image-keyboard-response",339,261145,"0.0-4.109-0.109","wfmtul7qoeoykes",620,"176.csv","","243.40000009536743","resources/trios/L1T4A2.jpg","39","restless",0.5,0.5,0.6,0.273926546516152,"true"
"image-keyboard-response",340,261548,"0.0-4.109-1.109","wfmtul7qoeoykes",620,"176.csv","","null","resources/maskTrios/BBA2.jpg","null","",NA,NA,NA,NA,""
"image-keyboard-response",341,262749,"0.0-4.109-2.109","wfmtul7qoeoykes",620,"176.csv","","null","resources/images/coin2.png","null","",NA,NA,NA,NA,""
"image-keyboard-response",342,262941,"0.0-4.110-0.110","wfmtul7qoeoykes",620,"176.csv","","191.79999995231628","resources/trios/L1T4A2.jpg","39","restless",0.6,0.4,0.6,0.922004586067255,"false"
"image-keyboard-response",343,263342,"0.0-4.110-1.110","wfmtul7qoeoykes",620,"176.csv","","null","resources/maskTrios/BBA2.jpg","null","",NA,NA,NA,NA,""
"image-keyboard-response",344,264543,"0.0-4.110-2.110","wfmtul7qoeoykes",620,"176.csv","","null","resources/images/fishbone.png","null","",NA,NA,NA,NA,""
"image-keyboard-response",345,264737,"0.0-4.111-0.111","wfmtul7qoeoykes",620,"176.csv","","193","resources/trios/L1T4A2.jpg","39","restless",0.6,0.5,0.6,0.520648198735858,"true"
"image-keyboard-response",346,265137,"0.0-4.111-1.111","wfmtul7qoeoykes",620,"176.csv","","null","resources/maskTrios/BBA2.jpg","null","",NA,NA,NA,NA,""
"image-keyboard-response",347,266338,"0.0-4.111-2.111","wfmtul7qoeoykes",620,"176.csv","","null","resources/images/coin2.png","null","",NA,NA,NA,NA,""
"image-keyboard-response",348,266574,"0.0-4.112-0.112","wfmtul7qoeoykes",620,"176.csv","","235","resources/trios/L1T4A2.jpg","39","restless",0.6,0.5,0.6,0.876763618427304,"false"
"image-keyboard-response",349,266975,"0.0-4.112-1.112","wfmtul7qoeoykes",620,"176.csv","","null","resources/maskTrios/BBA2.jpg","null","",NA,NA,NA,NA,""
"image-keyboard-response",350,268175,"0.0-4.112-2.112","wfmtul7qoeoykes",620,"176.csv","","null","resources/images/fishbone.png","null","",NA,NA,NA,NA,""
"image-keyboard-response",351,268390,"0.0-4.113-0.113","wfmtul7qoeoykes",620,"176.csv","","214.29999995231628","resources/trios/L1T4A2.jpg","39","restless",0.7,0.5,0.6,0.550688405407267,"true"
"image-keyboard-response",352,268791,"0.0-4.113-1.113","wfmtul7qoeoykes",620,"176.csv","","null","resources/maskTrios/BBA2.jpg","null","",NA,NA,NA,NA,""
"image-keyboard-response",353,269992,"0.0-4.113-2.113","wfmtul7qoeoykes",620,"176.csv","","null","resources/images/coin2.png","null","",NA,NA,NA,NA,""
"image-keyboard-response",354,270154,"0.0-4.114-0.114","wfmtul7qoeoykes",620,"176.csv","","161.09999990463257","resources/trios/L1T4A2.jpg","39","restless",0.7,0.5,0.6,0.0820057792256554,"true"
"image-keyboard-response",355,270554,"0.0-4.114-1.114","wfmtul7qoeoykes",620,"176.csv","","null","resources/maskTrios/BBA2.jpg","null","",NA,NA,NA,NA,""
"image-keyboard-response",356,271755,"0.0-4.114-2.114","wfmtul7qoeoykes",620,"176.csv","","null","resources/images/coin2.png","null","",NA,NA,NA,NA,""
"image-keyboard-response",357,271948,"0.0-4.115-0.115","wfmtul7qoeoykes",620,"176.csv","","192","resources/trios/L1T4A2.jpg","39","restless",0.7,0.4,0.5,0.656707202138785,"false"
"image-keyboard-response",358,272348,"0.0-4.115-1.115","wfmtul7qoeoykes",620,"176.csv","","null","resources/maskTrios/BBA2.jpg","null","",NA,NA,NA,NA,""
"image-keyboard-response",359,273549,"0.0-4.115-2.115","wfmtul7qoeoykes",620,"176.csv","","null","resources/images/fishbone.png","null","",NA,NA,NA,NA,""
"image-keyboard-response",360,273935,"0.0-4.116-0.116","wfmtul7qoeoykes",620,"176.csv","","386","resources/trios/L1T4A2.jpg","38","restless",0.6,0.4,0.5,0.0479575339553682,"true"
"image-keyboard-response",361,274336,"0.0-4.116-1.116","wfmtul7qoeoykes",620,"176.csv","","null","resources/maskTrios/BT4B.jpg","null","",NA,NA,NA,NA,""
"image-keyboard-response",362,275537,"0.0-4.116-2.116","wfmtul7qoeoykes",620,"176.csv","","null","resources/images/coin2.png","null","",NA,NA,NA,NA,""
"image-keyboard-response",363,275748,"0.0-4.117-0.117","wfmtul7qoeoykes",620,"176.csv","","210.5","resources/trios/L1T4A2.jpg","38","restless",0.6,0.4,0.5,0.804733015128074,"false"
"image-keyboard-response",364,276149,"0.0-4.117-1.117","wfmtul7qoeoykes",620,"176.csv","","null","resources/maskTrios/BT4B.jpg","null","",NA,NA,NA,NA,""
"image-keyboard-response",365,277350,"0.0-4.117-2.117","wfmtul7qoeoykes",620,"176.csv","","null","resources/images/fishbone.png","null","",NA,NA,NA,NA,""
"image-keyboard-response",366,277733,"0.0-4.118-0.118","wfmtul7qoeoykes",620,"176.csv","","383.19999980926514","resources/trios/L1T4A2.jpg","38","restless",0.6,0.5,0.5,0.331848504346902,"true"
"image-keyboard-response",367,278134,"0.0-4.118-1.118","wfmtul7qoeoykes",620,"176.csv","","null","resources/maskTrios/BT4B.jpg","null","",NA,NA,NA,NA,""
"image-keyboard-response",368,279335,"0.0-4.118-2.118","wfmtul7qoeoykes",620,"176.csv","","null","resources/images/coin2.png","null","",NA,NA,NA,NA,""
"image-keyboard-response",369,279556,"0.0-4.119-0.119","wfmtul7qoeoykes",620,"176.csv","","220.40000009536743","resources/trios/L1T4A2.jpg","38","restless",0.6,0.5,0.5,0.063401429106698,"true"
"image-keyboard-response",370,279957,"0.0-4.119-1.119","wfmtul7qoeoykes",620,"176.csv","","null","resources/maskTrios/BT4B.jpg","null","",NA,NA,NA,NA,""
"image-keyboard-response",371,281168,"0.0-4.119-2.119","wfmtul7qoeoykes",620,"176.csv","","null","resources/images/coin2.png","null","",NA,NA,NA,NA,""
"image-keyboard-response",372,281401,"0.0-4.120-0.120","wfmtul7qoeoykes",620,"176.csv","","232.39999985694885","resources/trios/L1T4A2.jpg","38","restless",0.6,0.5,0.5,0.797932503265075,"false"
"image-keyboard-response",373,281803,"0.0-4.120-1.120","wfmtul7qoeoykes",620,"176.csv","","null","resources/maskTrios/BT4B.jpg","null","",NA,NA,NA,NA,""
"image-keyboard-response",374,283004,"0.0-4.120-2.120","wfmtul7qoeoykes",620,"176.csv","","null","resources/images/fishbone.png","null","",NA,NA,NA,NA,""
"image-keyboard-response",375,283099,"0.0-4.121-0.121","wfmtul7qoeoykes",620,"176.csv","","95.09999990463257","resources/trios/L1T4A2.jpg","39","restless",0.6,0.5,0.5,0.866965957216869,"false"
"image-keyboard-response",376,283500,"0.0-4.121-1.121","wfmtul7qoeoykes",620,"176.csv","","null","resources/maskTrios/BBA2.jpg","null","",NA,NA,NA,NA,""
"image-keyboard-response",377,284702,"0.0-4.121-2.121","wfmtul7qoeoykes",620,"176.csv","","null","resources/images/fishbone.png","null","",NA,NA,NA,NA,""
"image-keyboard-response",378,284801,"0.0-4.122-0.122","wfmtul7qoeoykes",620,"176.csv","","99.29999995231628","resources/trios/L1T4A2.jpg","39","restless",0.6,0.5,0.5,0.604050313435359,"false"
"image-keyboard-response",379,285203,"0.0-4.122-1.122","wfmtul7qoeoykes",620,"176.csv","","null","resources/maskTrios/BBA2.jpg","null","",NA,NA,NA,NA,""
"image-keyboard-response",380,286404,"0.0-4.122-2.122","wfmtul7qoeoykes",620,"176.csv","","null","resources/images/fishbone.png","null","",NA,NA,NA,NA,""
"image-keyboard-response",381,286555,"0.0-4.123-0.123","wfmtul7qoeoykes",620,"176.csv","","151.09999990463257","resources/trios/L1T4A2.jpg","39","restless",0.6,0.5,0.5,0.34021255373108,"true"
"image-keyboard-response",382,286957,"0.0-4.123-1.123","wfmtul7qoeoykes",620,"176.csv","","null","resources/maskTrios/BBA2.jpg","null","",NA,NA,NA,NA,""
"image-keyboard-response",383,288158,"0.0-4.123-2.123","wfmtul7qoeoykes",620,"176.csv","","null","resources/images/coin2.png","null","",NA,NA,NA,NA,""
"image-keyboard-response",384,288402,"0.0-4.124-0.124","wfmtul7qoeoykes",620,"176.csv","","243.40000009536743","resources/trios/L1T4A2.jpg","39","restless",0.6,0.5,0.5,0.517860156279682,"false"
"image-keyboard-response",385,288803,"0.0-4.124-1.124","wfmtul7qoeoykes",620,"176.csv","","null","resources/maskTrios/BBA2.jpg","null","",NA,NA,NA,NA,""
"image-keyboard-response",386,290003,"0.0-4.124-2.124","wfmtul7qoeoykes",620,"176.csv","","null","resources/images/fishbone.png","null","",NA,NA,NA,NA,""
"image-keyboard-response",387,290083,"0.0-4.125-0.125","wfmtul7qoeoykes",620,"176.csv","","79.09999990463257","resources/trios/L1T4A2.jpg","39","restless",0.6,0.5,0.5,0.0598023184129506,"true"
"image-keyboard-response",388,290484,"0.0-4.125-1.125","wfmtul7qoeoykes",620,"176.csv","","null","resources/maskTrios/BBA2.jpg","null","",NA,NA,NA,NA,""
"image-keyboard-response",389,291684,"0.0-4.125-2.125","wfmtul7qoeoykes",620,"176.csv","","null","resources/images/coin2.png","null","",NA,NA,NA,NA,""
"image-keyboard-response",390,291801,"0.0-4.126-0.126","wfmtul7qoeoykes",620,"176.csv","","115.79999995231628","resources/trios/L1T4A2.jpg","39","restless",0.7,0.5,0.4,0.246848463764433,"true"
"image-keyboard-response",391,292201,"0.0-4.126-1.126","wfmtul7qoeoykes",620,"176.csv","","null","resources/maskTrios/BBA2.jpg","null","",NA,NA,NA,NA,""
"image-keyboard-response",392,293402,"0.0-4.126-2.126","wfmtul7qoeoykes",620,"176.csv","","null","resources/images/coin2.png","null","",NA,NA,NA,NA,""
"image-keyboard-response",393,293528,"0.0-4.127-0.127","wfmtul7qoeoykes",620,"176.csv","","125","resources/trios/L1T4A2.jpg","39","restless",0.8,0.5,0.4,0.480909085135845,"false"
"image-keyboard-response",394,293935,"0.0-4.127-1.127","wfmtul7qoeoykes",620,"176.csv","","null","resources/maskTrios/BBA2.jpg","null","",NA,NA,NA,NA,""
"image-keyboard-response",395,295136,"0.0-4.127-2.127","wfmtul7qoeoykes",620,"176.csv","","null","resources/images/fishbone.png","null","",NA,NA,NA,NA,""
"image-keyboard-response",396,295281,"0.0-4.128-0.128","wfmtul7qoeoykes",620,"176.csv","","144.20000004768372","resources/trios/L1T4A2.jpg","39","restless",0.8,0.5,0.4,0.130143141504848,"true"
"image-keyboard-response",397,295682,"0.0-4.128-1.128","wfmtul7qoeoykes",620,"176.csv","","null","resources/maskTrios/BBA2.jpg","null","",NA,NA,NA,NA,""
"image-keyboard-response",398,296882,"0.0-4.128-2.128","wfmtul7qoeoykes",620,"176.csv","","null","resources/images/coin2.png","null","",NA,NA,NA,NA,""
"image-keyboard-response",399,297040,"0.0-4.129-0.129","wfmtul7qoeoykes",620,"176.csv","","157","resources/trios/L1T4A2.jpg","39","restless",0.8,0.5,0.4,0.181430578070932,"true"
"image-keyboard-response",400,297440,"0.0-4.129-1.129","wfmtul7qoeoykes",620,"176.csv","","null","resources/maskTrios/BBA2.jpg","null","",NA,NA,NA,NA,""
"image-keyboard-response",401,298641,"0.0-4.129-2.129","wfmtul7qoeoykes",620,"176.csv","","null","resources/images/coin2.png","null","",NA,NA,NA,NA,""
"image-keyboard-response",402,298838,"0.0-4.130-0.130","wfmtul7qoeoykes",620,"176.csv","","196.60000014305115","resources/trios/L1T4A2.jpg","39","restless",0.8,0.5,0.3,0.407814145750467,"false"
"image-keyboard-response",403,299238,"0.0-4.130-1.130","wfmtul7qoeoykes",620,"176.csv","","null","resources/maskTrios/BBA2.jpg","null","",NA,NA,NA,NA,""
"image-keyboard-response",404,300440,"0.0-4.130-2.130","wfmtul7qoeoykes",620,"176.csv","","null","resources/images/fishbone.png","null","",NA,NA,NA,NA,""
"image-keyboard-response",405,300637,"0.0-4.131-0.131","wfmtul7qoeoykes",620,"176.csv","","196.59999990463257","resources/trios/L1T4A2.jpg","39","restless",0.8,0.4,0.3,0.623598995310863,"false"
"image-keyboard-response",406,301038,"0.0-4.131-1.131","wfmtul7qoeoykes",620,"176.csv","","null","resources/maskTrios/BBA2.jpg","null","",NA,NA,NA,NA,""
"image-keyboard-response",407,302239,"0.0-4.131-2.131","wfmtul7qoeoykes",620,"176.csv","","null","resources/images/fishbone.png","null","",NA,NA,NA,NA,""
"image-keyboard-response",408,302425,"0.0-4.132-0.132","wfmtul7qoeoykes",620,"176.csv","","186.20000004768372","resources/trios/L1T4A2.jpg","39","restless",0.8,0.4,0.3,0.611165548459085,"false"
"image-keyboard-response",409,302826,"0.0-4.132-1.132","wfmtul7qoeoykes",620,"176.csv","","null","resources/maskTrios/BBA2.jpg","null","",NA,NA,NA,NA,""
"image-keyboard-response",410,304028,"0.0-4.132-2.132","wfmtul7qoeoykes",620,"176.csv","","null","resources/images/fishbone.png","null","",NA,NA,NA,NA,""
"image-keyboard-response",411,304126,"0.0-4.133-0.133","wfmtul7qoeoykes",620,"176.csv","","98.10000014305115","resources/trios/L1T4A2.jpg","39","restless",0.8,0.4,0.3,0.722627490739461,"false"
"image-keyboard-response",412,304527,"0.0-4.133-1.133","wfmtul7qoeoykes",620,"176.csv","","null","resources/maskTrios/BBA2.jpg","null","",NA,NA,NA,NA,""
"image-keyboard-response",413,305728,"0.0-4.133-2.133","wfmtul7qoeoykes",620,"176.csv","","null","resources/images/fishbone.png","null","",NA,NA,NA,NA,""
"image-keyboard-response",414,305809,"0.0-4.134-0.134","wfmtul7qoeoykes",620,"176.csv","","81","resources/trios/L1T4A2.jpg","38","restless",0.8,0.4,0.3,0.28993216024261,"true"
"image-keyboard-response",415,306210,"0.0-4.134-1.134","wfmtul7qoeoykes",620,"176.csv","","null","resources/maskTrios/BT4B.jpg","null","",NA,NA,NA,NA,""
"image-keyboard-response",416,307411,"0.0-4.134-2.134","wfmtul7qoeoykes",620,"176.csv","","null","resources/images/coin2.png","null","",NA,NA,NA,NA,""
"image-keyboard-response",417,307697,"0.0-4.135-0.135","wfmtul7qoeoykes",620,"176.csv","","285.7000000476837","resources/trios/L1T4A2.jpg","38","restless",0.8,0.4,0.3,0.741215780002534,"false"
"image-keyboard-response",418,308102,"0.0-4.135-1.135","wfmtul7qoeoykes",620,"176.csv","","null","resources/maskTrios/BT4B.jpg","null","",NA,NA,NA,NA,""
"image-keyboard-response",419,309303,"0.0-4.135-2.135","wfmtul7qoeoykes",620,"176.csv","","null","resources/images/fishbone.png","null","",NA,NA,NA,NA,""
"image-keyboard-response",420,309497,"0.0-4.136-0.136","wfmtul7qoeoykes",620,"176.csv","","194","resources/trios/L1T4A2.jpg","38","restless",0.8,0.4,0.3,0.966907966305886,"false"
"image-keyboard-response",421,309899,"0.0-4.136-1.136","wfmtul7qoeoykes",620,"176.csv","","null","resources/maskTrios/BT4B.jpg","null","",NA,NA,NA,NA,""
"image-keyboard-response",422,311102,"0.0-4.136-2.136","wfmtul7qoeoykes",620,"176.csv","","null","resources/images/fishbone.png","null","",NA,NA,NA,NA,""
"image-keyboard-response",423,311216,"0.0-4.137-0.137","wfmtul7qoeoykes",620,"176.csv","","113.29999995231628","resources/trios/L1T4A2.jpg","38","restless",0.8,0.4,0.4,0.998861808483074,"false"
"image-keyboard-response",424,311617,"0.0-4.137-1.137","wfmtul7qoeoykes",620,"176.csv","","null","resources/maskTrios/BT4B.jpg","null","",NA,NA,NA,NA,""
"image-keyboard-response",425,312818,"0.0-4.137-2.137","wfmtul7qoeoykes",620,"176.csv","","null","resources/images/fishbone.png","null","",NA,NA,NA,NA,""
"image-keyboard-response",426,312941,"0.0-4.138-0.138","wfmtul7qoeoykes",620,"176.csv","","122.59999990463257","resources/trios/L1T4A2.jpg","37","restless",0.8,0.4,0.4,0.0981687857570499,"true"
"image-keyboard-response",427,313343,"0.0-4.138-1.138","wfmtul7qoeoykes",620,"176.csv","","null","resources/maskTrios/L1BB.jpg","null","",NA,NA,NA,NA,""
"image-keyboard-response",428,314544,"0.0-4.138-2.138","wfmtul7qoeoykes",620,"176.csv","","null","resources/images/coin2.png","null","",NA,NA,NA,NA,""
"image-keyboard-response",429,314720,"0.0-4.139-0.139","wfmtul7qoeoykes",620,"176.csv","","176","resources/trios/L1T4A2.jpg","37","restless",0.8,0.4,0.4,0.425972903694367,"true"
"image-keyboard-response",430,315122,"0.0-4.139-1.139","wfmtul7qoeoykes",620,"176.csv","","null","resources/maskTrios/L1BB.jpg","null","",NA,NA,NA,NA,""
"image-keyboard-response",431,316322,"0.0-4.139-2.139","wfmtul7qoeoykes",620,"176.csv","","null","resources/images/coin2.png","null","",NA,NA,NA,NA,""
"image-keyboard-response",432,316514,"0.0-4.140-0.140","wfmtul7qoeoykes",620,"176.csv","","191.20000004768372","resources/trios/L1T4A2.jpg","37","restless",0.9,0.4,0.4,0.243280128449963,"true"
"image-keyboard-response",433,316915,"0.0-4.140-1.140","wfmtul7qoeoykes",620,"176.csv","","null","resources/maskTrios/L1BB.jpg","null","",NA,NA,NA,NA,""
"image-keyboard-response",434,318116,"0.0-4.140-2.140","wfmtul7qoeoykes",620,"176.csv","","null","resources/images/coin2.png","null","",NA,NA,NA,NA,""
"image-keyboard-response",435,318349,"0.0-4.141-0.141","wfmtul7qoeoykes",620,"176.csv","","232.29999995231628","resources/trios/L1T4A2.jpg","37","restless",0.9,0.4,0.4,0.937963739183355,"false"
"image-keyboard-response",436,318750,"0.0-4.141-1.141","wfmtul7qoeoykes",620,"176.csv","","null","resources/maskTrios/L1BB.jpg","null","",NA,NA,NA,NA,""
"image-keyboard-response",437,319951,"0.0-4.141-2.141","wfmtul7qoeoykes",620,"176.csv","","null","resources/images/fishbone.png","null","",NA,NA,NA,NA,""
"image-keyboard-response",438,320774,"0.0-4.142-0.142","wfmtul7qoeoykes",620,"176.csv","","822.7000000476837","resources/trios/L1T4A2.jpg","37","restless",0.9,0.4,0.4,0.259268454258638,"true"
"image-keyboard-response",439,321175,"0.0-4.142-1.142","wfmtul7qoeoykes",620,"176.csv","","null","resources/maskTrios/L1BB.jpg","null","",NA,NA,NA,NA,""
"image-keyboard-response",440,322377,"0.0-4.142-2.142","wfmtul7qoeoykes",620,"176.csv","","null","resources/images/coin2.png","null","",NA,NA,NA,NA,""
"image-keyboard-response",441,322558,"0.0-4.143-0.143","wfmtul7qoeoykes",620,"176.csv","","180.70000004768372","resources/trios/L1T4A2.jpg","39","restless",0.9,0.4,0.4,0.842263801499837,"false"
"image-keyboard-response",442,322959,"0.0-4.143-1.143","wfmtul7qoeoykes",620,"176.csv","","null","resources/maskTrios/BBA2.jpg","null","",NA,NA,NA,NA,""
"image-keyboard-response",443,324160,"0.0-4.143-2.143","wfmtul7qoeoykes",620,"176.csv","","null","resources/images/fishbone.png","null","",NA,NA,NA,NA,""
"image-keyboard-response",444,324366,"0.0-4.144-0.144","wfmtul7qoeoykes",620,"176.csv","","205.39999985694885","resources/trios/L1T4A2.jpg","37","restless",0.9,0.4,0.4,0.477897133620125,"true"
"image-keyboard-response",445,324767,"0.0-4.144-1.144","wfmtul7qoeoykes",620,"176.csv","","null","resources/maskTrios/L1BB.jpg","null","",NA,NA,NA,NA,""
"image-keyboard-response",446,325968,"0.0-4.144-2.144","wfmtul7qoeoykes",620,"176.csv","","null","resources/images/coin2.png","null","",NA,NA,NA,NA,""
"image-keyboard-response",447,326146,"0.0-4.145-0.145","wfmtul7qoeoykes",620,"176.csv","","177.70000004768372","resources/trios/L1T4A2.jpg","38","restless",0.9,0.4,0.4,0.941609369605488,"false"
"image-keyboard-response",448,326547,"0.0-4.145-1.145","wfmtul7qoeoykes",620,"176.csv","","null","resources/maskTrios/BT4B.jpg","null","",NA,NA,NA,NA,""
"image-keyboard-response",449,327748,"0.0-4.145-2.145","wfmtul7qoeoykes",620,"176.csv","","null","resources/images/fishbone.png","null","",NA,NA,NA,NA,""
"image-keyboard-response",450,327895,"0.0-4.146-0.146","wfmtul7qoeoykes",620,"176.csv","","146.59999990463257","resources/trios/L1T4A2.jpg","37","restless",0.8,0.4,0.4,0.0639611997321372,"true"
"image-keyboard-response",451,328295,"0.0-4.146-1.146","wfmtul7qoeoykes",620,"176.csv","","null","resources/maskTrios/L1BB.jpg","null","",NA,NA,NA,NA,""
"image-keyboard-response",452,329498,"0.0-4.146-2.146","wfmtul7qoeoykes",620,"176.csv","","null","resources/images/coin2.png","null","",NA,NA,NA,NA,""
"image-keyboard-response",453,329669,"0.0-4.147-0.147","wfmtul7qoeoykes",620,"176.csv","","171.29999995231628","resources/trios/L1T4A2.jpg","37","restless",0.8,0.4,0.4,0.33086750434865,"true"
"image-keyboard-response",454,330071,"0.0-4.147-1.147","wfmtul7qoeoykes",620,"176.csv","","null","resources/maskTrios/L1BB.jpg","null","",NA,NA,NA,NA,""
"image-keyboard-response",455,331272,"0.0-4.147-2.147","wfmtul7qoeoykes",620,"176.csv","","null","resources/images/coin2.png","null","",NA,NA,NA,NA,""
"image-keyboard-response",456,331448,"0.0-4.148-0.148","wfmtul7qoeoykes",620,"176.csv","","175.59999990463257","resources/trios/L1T4A2.jpg","37","restless",0.8,0.4,0.4,0.0385424181542804,"true"
"image-keyboard-response",457,331849,"0.0-4.148-1.148","wfmtul7qoeoykes",620,"176.csv","","null","resources/maskTrios/L1BB.jpg","null","",NA,NA,NA,NA,""
"image-keyboard-response",458,333049,"0.0-4.148-2.148","wfmtul7qoeoykes",620,"176.csv","","null","resources/images/coin2.png","null","",NA,NA,NA,NA,""
"image-keyboard-response",459,333251,"0.0-4.149-0.149","wfmtul7qoeoykes",620,"176.csv","","201.60000014305115","resources/trios/L1T4A2.jpg","37","restless",0.8,0.4,0.4,0.392578306321358,"true"
"image-keyboard-response",460,333652,"0.0-4.149-1.149","wfmtul7qoeoykes",620,"176.csv","","null","resources/maskTrios/L1BB.jpg","null","",NA,NA,NA,NA,""
"image-keyboard-response",461,334854,"0.0-4.149-2.149","wfmtul7qoeoykes",620,"176.csv","","null","resources/images/coin2.png","null","",NA,NA,NA,NA,""
"image-keyboard-response",462,335039,"0.0-4.150-0.150","wfmtul7qoeoykes",620,"176.csv","","184","resources/trios/L1T4A2.jpg","37","restless",0.8,0.4,0.4,0.613955941993242,"true"
"image-keyboard-response",463,335440,"0.0-4.150-1.150","wfmtul7qoeoykes",620,"176.csv","","null","resources/maskTrios/L1BB.jpg","null","",NA,NA,NA,NA,""
"image-keyboard-response",464,336640,"0.0-4.150-2.150","wfmtul7qoeoykes",620,"176.csv","","null","resources/images/coin2.png","null","",NA,NA,NA,NA,""
"image-keyboard-response",465,337008,"0.0-4.151-0.151","wfmtul7qoeoykes",620,"176.csv","","367.39999985694885","resources/trios/L1T4A2.jpg","37","restless",0.8,0.4,0.4,0.84716118820891,"false"
"image-keyboard-response",466,337409,"0.0-4.151-1.151","wfmtul7qoeoykes",620,"176.csv","","null","resources/maskTrios/L1BB.jpg","null","",NA,NA,NA,NA,""
"image-keyboard-response",467,338610,"0.0-4.151-2.151","wfmtul7qoeoykes",620,"176.csv","","null","resources/images/fishbone.png","null","",NA,NA,NA,NA,""
"image-keyboard-response",468,338971,"0.0-4.152-0.152","wfmtul7qoeoykes",620,"176.csv","","360.90000009536743","resources/trios/L1T4A2.jpg","38","restless",0.8,0.4,0.4,0.943718719482053,"false"
"image-keyboard-response",469,339373,"0.0-4.152-1.152","wfmtul7qoeoykes",620,"176.csv","","null","resources/maskTrios/BT4B.jpg","null","",NA,NA,NA,NA,""
"image-keyboard-response",470,340574,"0.0-4.152-2.152","wfmtul7qoeoykes",620,"176.csv","","null","resources/images/fishbone.png","null","",NA,NA,NA,NA,""
"image-keyboard-response",471,340751,"0.0-4.153-0.153","wfmtul7qoeoykes",620,"176.csv","","176.59999990463257","resources/trios/L1T4A2.jpg","37","restless",0.8,0.4,0.4,0.800264610291535,"false"
"image-keyboard-response",472,341152,"0.0-4.153-1.153","wfmtul7qoeoykes",620,"176.csv","","null","resources/maskTrios/L1BB.jpg","null","",NA,NA,NA,NA,""
"image-keyboard-response",473,342352,"0.0-4.153-2.153","wfmtul7qoeoykes",620,"176.csv","","null","resources/images/fishbone.png","null","",NA,NA,NA,NA,""
"image-keyboard-response",474,342617,"0.0-4.154-0.154","wfmtul7qoeoykes",620,"176.csv","","264","resources/trios/L1T4A2.jpg","39","restless",0.9,0.4,0.4,0.389831725056558,"true"
"image-keyboard-response",475,343018,"0.0-4.154-1.154","wfmtul7qoeoykes",620,"176.csv","","null","resources/maskTrios/BBA2.jpg","null","",NA,NA,NA,NA,""
"image-keyboard-response",476,344218,"0.0-4.154-2.154","wfmtul7qoeoykes",620,"176.csv","","null","resources/images/coin2.png","null","",NA,NA,NA,NA,""
"image-keyboard-response",477,344405,"0.0-4.155-0.155","wfmtul7qoeoykes",620,"176.csv","","186","resources/trios/L1T4A2.jpg","39","restless",0.8,0.4,0.4,0.986253161919817,"false"
"image-keyboard-response",478,344807,"0.0-4.155-1.155","wfmtul7qoeoykes",620,"176.csv","","null","resources/maskTrios/BBA2.jpg","null","",NA,NA,NA,NA,""
"image-keyboard-response",479,346008,"0.0-4.155-2.155","wfmtul7qoeoykes",620,"176.csv","","null","resources/images/fishbone.png","null","",NA,NA,NA,NA,""
"image-keyboard-response",480,346224,"0.0-4.156-0.156","wfmtul7qoeoykes",620,"176.csv","","215.40000009536743","resources/trios/L1T4A2.jpg","39","restless",0.8,0.4,0.4,0.32553204511312,"true"
"image-keyboard-response",481,346624,"0.0-4.156-1.156","wfmtul7qoeoykes",620,"176.csv","","null","resources/maskTrios/BBA2.jpg","null","",NA,NA,NA,NA,""
"image-keyboard-response",482,347825,"0.0-4.156-2.156","wfmtul7qoeoykes",620,"176.csv","","null","resources/images/coin2.png","null","",NA,NA,NA,NA,""
"image-keyboard-response",483,348036,"0.0-4.157-0.157","wfmtul7qoeoykes",620,"176.csv","","210.80000019073486","resources/trios/L1T4A2.jpg","39","restless",0.8,0.4,0.4,0.227731451319171,"true"
"image-keyboard-response",484,348438,"0.0-4.157-1.157","wfmtul7qoeoykes",620,"176.csv","","null","resources/maskTrios/BBA2.jpg","null","",NA,NA,NA,NA,""
"image-keyboard-response",485,349639,"0.0-4.157-2.157","wfmtul7qoeoykes",620,"176.csv","","null","resources/images/coin2.png","null","",NA,NA,NA,NA,""
"image-keyboard-response",486,349855,"0.0-4.158-0.158","wfmtul7qoeoykes",620,"176.csv","","215.70000004768372","resources/trios/L1T4A2.jpg","39","restless",0.7,0.4,0.4,0.14804939299149,"true"
"image-keyboard-response",487,350256,"0.0-4.158-1.158","wfmtul7qoeoykes",620,"176.csv","","null","resources/maskTrios/BBA2.jpg","null","",NA,NA,NA,NA,""
"image-keyboard-response",488,351457,"0.0-4.158-2.158","wfmtul7qoeoykes",620,"176.csv","","null","resources/images/coin2.png","null","",NA,NA,NA,NA,""
"image-keyboard-response",489,351651,"0.0-4.159-0.159","wfmtul7qoeoykes",620,"176.csv","","193.90000009536743","resources/trios/L1T4A2.jpg","39","restless",0.7,0.4,0.4,0.45593063238434,"false"
"image-keyboard-response",490,352052,"0.0-4.159-1.159","wfmtul7qoeoykes",620,"176.csv","","null","resources/maskTrios/BBA2.jpg","null","",NA,NA,NA,NA,""
"image-keyboard-response",491,353253,"0.0-4.159-2.159","wfmtul7qoeoykes",620,"176.csv","","null","resources/images/fishbone.png","null","",NA,NA,NA,NA,""
"image-keyboard-response",492,353452,"0.0-4.160-0.160","wfmtul7qoeoykes",620,"176.csv","","199","resources/trios/L1T4A2.jpg","37","restless",0.8,0.4,0.4,0.38572422190237,"true"
"image-keyboard-response",493,353853,"0.0-4.160-1.160","wfmtul7qoeoykes",620,"176.csv","","null","resources/maskTrios/L1BB.jpg","null","",NA,NA,NA,NA,""
"image-keyboard-response",494,355054,"0.0-4.160-2.160","wfmtul7qoeoykes",620,"176.csv","","null","resources/images/coin2.png","null","",NA,NA,NA,NA,""
"image-keyboard-response",495,355251,"0.0-4.161-0.161","wfmtul7qoeoykes",620,"176.csv","","196.90000009536743","resources/trios/L1T4A2.jpg","37","restless",0.8,0.4,0.4,0.174483387023714,"true"
"image-keyboard-response",496,355652,"0.0-4.161-1.161","wfmtul7qoeoykes",620,"176.csv","","null","resources/maskTrios/L1BB.jpg","null","",NA,NA,NA,NA,""
"image-keyboard-response",497,356854,"0.0-4.161-2.161","wfmtul7qoeoykes",620,"176.csv","","null","resources/images/coin2.png","null","",NA,NA,NA,NA,""
"image-keyboard-response",498,357084,"0.0-4.162-0.162","wfmtul7qoeoykes",620,"176.csv","","229.5","resources/trios/L1T4A2.jpg","37","restless",0.9,0.4,0.4,0.0177834196570759,"true"
"image-keyboard-response",499,357484,"0.0-4.162-1.162","wfmtul7qoeoykes",620,"176.csv","","null","resources/maskTrios/L1BB.jpg","null","",NA,NA,NA,NA,""
"image-keyboard-response",500,358685,"0.0-4.162-2.162","wfmtul7qoeoykes",620,"176.csv","","null","resources/images/coin2.png","null","",NA,NA,NA,NA,""
"image-keyboard-response",501,358882,"0.0-4.163-0.163","wfmtul7qoeoykes",620,"176.csv","","196.89999985694885","resources/trios/L1T4A2.jpg","37","restless",0.9,0.5,0.3,0.376345521682355,"true"
"image-keyboard-response",502,359282,"0.0-4.163-1.163","wfmtul7qoeoykes",620,"176.csv","","null","resources/maskTrios/L1BB.jpg","null","",NA,NA,NA,NA,""
"image-keyboard-response",503,360484,"0.0-4.163-2.163","wfmtul7qoeoykes",620,"176.csv","","null","resources/images/coin2.png","null","",NA,NA,NA,NA,""
"image-keyboard-response",504,360676,"0.0-4.164-0.164","wfmtul7qoeoykes",620,"176.csv","","192.20000004768372","resources/trios/L1T4A2.jpg","37","restless",0.9,0.5,0.3,0.588801206652585,"true"
"image-keyboard-response",505,361077,"0.0-4.164-1.164","wfmtul7qoeoykes",620,"176.csv","","null","resources/maskTrios/L1BB.jpg","null","",NA,NA,NA,NA,""
"image-keyboard-response",506,362278,"0.0-4.164-2.164","wfmtul7qoeoykes",620,"176.csv","","null","resources/images/coin2.png","null","",NA,NA,NA,NA,""
"image-keyboard-response",507,362404,"0.0-4.165-0.165","wfmtul7qoeoykes",620,"176.csv","","125.70000004768372","resources/trios/L1T4A2.jpg","37","restless",0.9,0.5,0.3,0.423846085787363,"true"
"image-keyboard-response",508,362805,"0.0-4.165-1.165","wfmtul7qoeoykes",620,"176.csv","","null","resources/maskTrios/L1BB.jpg","null","",NA,NA,NA,NA,""
"image-keyboard-response",509,364007,"0.0-4.165-2.165","wfmtul7qoeoykes",620,"176.csv","","null","resources/images/coin2.png","null","",NA,NA,NA,NA,""
"image-keyboard-response",510,364432,"0.0-4.166-0.166","wfmtul7qoeoykes",620,"176.csv","","425","resources/trios/L1T4A2.jpg","37","restless",0.8,0.5,0.3,0.621102920536696,"true"
"image-keyboard-response",511,364833,"0.0-4.166-1.166","wfmtul7qoeoykes",620,"176.csv","","null","resources/maskTrios/L1BB.jpg","null","",NA,NA,NA,NA,""
"image-keyboard-response",512,366034,"0.0-4.166-2.166","wfmtul7qoeoykes",620,"176.csv","","null","resources/images/coin2.png","null","",NA,NA,NA,NA,""
"image-keyboard-response",513,366225,"0.0-4.167-0.167","wfmtul7qoeoykes",620,"176.csv","","190.39999985694885","resources/trios/L1T4A2.jpg","37","restless",0.8,0.5,0.3,0.908170964144798,"false"
"image-keyboard-response",514,366626,"0.0-4.167-1.167","wfmtul7qoeoykes",620,"176.csv","","null","resources/maskTrios/L1BB.jpg","null","",NA,NA,NA,NA,""
"image-keyboard-response",515,367828,"0.0-4.167-2.167","wfmtul7qoeoykes",620,"176.csv","","null","resources/images/fishbone.png","null","",NA,NA,NA,NA,""
"image-keyboard-response",516,368004,"0.0-4.168-0.168","wfmtul7qoeoykes",620,"176.csv","","176.19999980926514","resources/trios/L1T4A2.jpg","37","restless",0.7,0.5,0.2,0.606056614206268,"true"
"image-keyboard-response",517,368405,"0.0-4.168-1.168","wfmtul7qoeoykes",620,"176.csv","","null","resources/maskTrios/L1BB.jpg","null","",NA,NA,NA,NA,""
"image-keyboard-response",518,369606,"0.0-4.168-2.168","wfmtul7qoeoykes",620,"176.csv","","null","resources/images/coin2.png","null","",NA,NA,NA,NA,""
"image-keyboard-response",519,369809,"0.0-4.169-0.169","wfmtul7qoeoykes",620,"176.csv","","201.90000009536743","resources/trios/L1T4A2.jpg","37","restless",0.7,0.5,0.3,0.90344914426071,"false"
"image-keyboard-response",520,370210,"0.0-4.169-1.169","wfmtul7qoeoykes",620,"176.csv","","null","resources/maskTrios/L1BB.jpg","null","",NA,NA,NA,NA,""
"image-keyboard-response",521,371410,"0.0-4.169-2.169","wfmtul7qoeoykes",620,"176.csv","","null","resources/images/fishbone.png","null","",NA,NA,NA,NA,""
"image-keyboard-response",522,371537,"0.0-4.170-0.170","wfmtul7qoeoykes",620,"176.csv","","125.89999985694885","resources/trios/L1T4A2.jpg","37","restless",0.7,0.5,0.3,0.505009228764089,"true"
"image-keyboard-response",523,371938,"0.0-4.170-1.170","wfmtul7qoeoykes",620,"176.csv","","null","resources/maskTrios/L1BB.jpg","null","",NA,NA,NA,NA,""
"image-keyboard-response",524,373139,"0.0-4.170-2.170","wfmtul7qoeoykes",620,"176.csv","","null","resources/images/coin2.png","null","",NA,NA,NA,NA,""
"image-keyboard-response",525,373335,"0.0-4.171-0.171","wfmtul7qoeoykes",620,"176.csv","","195.90000009536743","resources/trios/L1T4A2.jpg","37","restless",0.7,0.5,0.3,0.30159101763945,"true"
"image-keyboard-response",526,373735,"0.0-4.171-1.171","wfmtul7qoeoykes",620,"176.csv","","null","resources/maskTrios/L1BB.jpg","null","",NA,NA,NA,NA,""
"image-keyboard-response",527,374936,"0.0-4.171-2.171","wfmtul7qoeoykes",620,"176.csv","","null","resources/images/coin2.png","null","",NA,NA,NA,NA,""
"image-keyboard-response",528,375139,"0.0-4.172-0.172","wfmtul7qoeoykes",620,"176.csv","","202.10000014305115","resources/trios/L1T4A2.jpg","37","restless",0.7,0.5,0.3,0.719958519353106,"false"
"image-keyboard-response",529,375540,"0.0-4.172-1.172","wfmtul7qoeoykes",620,"176.csv","","null","resources/maskTrios/L1BB.jpg","null","",NA,NA,NA,NA,""
"image-keyboard-response",530,376741,"0.0-4.172-2.172","wfmtul7qoeoykes",620,"176.csv","","null","resources/images/fishbone.png","null","",NA,NA,NA,NA,""
"image-keyboard-response",531,376824,"0.0-4.173-0.173","wfmtul7qoeoykes",620,"176.csv","","82.70000004768372","resources/trios/L1T4A2.jpg","37","restless",0.7,0.5,0.3,0.365800856989074,"true"
"image-keyboard-response",532,377226,"0.0-4.173-1.173","wfmtul7qoeoykes",620,"176.csv","","null","resources/maskTrios/L1BB.jpg","null","",NA,NA,NA,NA,""
"image-keyboard-response",533,378427,"0.0-4.173-2.173","wfmtul7qoeoykes",620,"176.csv","","null","resources/images/coin2.png","null","",NA,NA,NA,NA,""
"image-keyboard-response",534,378576,"0.0-4.174-0.174","wfmtul7qoeoykes",620,"176.csv","","148.89999985694885","resources/trios/L1T4A2.jpg","37","restless",0.7,0.5,0.3,0.318047484772447,"true"
"image-keyboard-response",535,378978,"0.0-4.174-1.174","wfmtul7qoeoykes",620,"176.csv","","null","resources/maskTrios/L1BB.jpg","null","",NA,NA,NA,NA,""
"image-keyboard-response",536,380179,"0.0-4.174-2.174","wfmtul7qoeoykes",620,"176.csv","","null","resources/images/coin2.png","null","",NA,NA,NA,NA,""
"image-keyboard-response",537,380365,"0.0-4.175-0.175","wfmtul7qoeoykes",620,"176.csv","","186.09999990463257","resources/trios/L1T4A2.jpg","37","restless",0.7,0.6,0.3,0.907528806563105,"false"
"image-keyboard-response",538,380767,"0.0-4.175-1.175","wfmtul7qoeoykes",620,"176.csv","","null","resources/maskTrios/L1BB.jpg","null","",NA,NA,NA,NA,""
"image-keyboard-response",539,381968,"0.0-4.175-2.175","wfmtul7qoeoykes",620,"176.csv","","null","resources/images/fishbone.png","null","",NA,NA,NA,NA,""
"image-keyboard-response",540,382140,"0.0-4.176-0.176","wfmtul7qoeoykes",620,"176.csv","","171.40000009536743","resources/trios/L1T4A2.jpg","37","restless",0.7,0.5,0.3,0.682858381879208,"true"
"image-keyboard-response",541,382541,"0.0-4.176-1.176","wfmtul7qoeoykes",620,"176.csv","","null","resources/maskTrios/L1BB.jpg","null","",NA,NA,NA,NA,""
"image-keyboard-response",542,383742,"0.0-4.176-2.176","wfmtul7qoeoykes",620,"176.csv","","null","resources/images/coin2.png","null","",NA,NA,NA,NA,""
"image-keyboard-response",543,383930,"0.0-4.177-0.177","wfmtul7qoeoykes",620,"176.csv","","188","resources/trios/L1T4A2.jpg","37","restless",0.7,0.5,0.3,0.345228214752035,"true"
"image-keyboard-response",544,384331,"0.0-4.177-1.177","wfmtul7qoeoykes",620,"176.csv","","null","resources/maskTrios/L1BB.jpg","null","",NA,NA,NA,NA,""
"image-keyboard-response",545,385532,"0.0-4.177-2.177","wfmtul7qoeoykes",620,"176.csv","","null","resources/images/coin2.png","null","",NA,NA,NA,NA,""
"image-keyboard-response",546,385732,"0.0-4.178-0.178","wfmtul7qoeoykes",620,"176.csv","","200.19999980926514","resources/trios/L1T4A2.jpg","37","restless",0.7,0.5,0.3,0.321821553665375,"true"
"image-keyboard-response",547,386133,"0.0-4.178-1.178","wfmtul7qoeoykes",620,"176.csv","","null","resources/maskTrios/L1BB.jpg","null","",NA,NA,NA,NA,""
"image-keyboard-response",548,387336,"0.0-4.178-2.178","wfmtul7qoeoykes",620,"176.csv","","null","resources/images/coin2.png","null","",NA,NA,NA,NA,""
"image-keyboard-response",549,387608,"0.0-4.179-0.179","wfmtul7qoeoykes",620,"176.csv","","271.40000009536743","resources/trios/L1T4A2.jpg","37","restless",0.7,0.5,0.3,0.338571348735289,"true"
"image-keyboard-response",550,388009,"0.0-4.179-1.179","wfmtul7qoeoykes",620,"176.csv","","null","resources/maskTrios/L1BB.jpg","null","",NA,NA,NA,NA,""
"image-keyboard-response",551,389211,"0.0-4.179-2.179","wfmtul7qoeoykes",620,"176.csv","","null","resources/images/coin2.png","null","",NA,NA,NA,NA,""
"image-keyboard-response",552,389449,"0.0-4.180-0.180","wfmtul7qoeoykes",620,"176.csv","","238","resources/trios/L1T4A2.jpg","37","restless",0.7,0.5,0.3,0.00556352737266574,"true"
"image-keyboard-response",553,389850,"0.0-4.180-1.180","wfmtul7qoeoykes",620,"176.csv","","null","resources/maskTrios/L1BB.jpg","null","",NA,NA,NA,NA,""
"image-keyboard-response",554,391051,"0.0-4.180-2.180","wfmtul7qoeoykes",620,"176.csv","","null","resources/images/coin2.png","null","",NA,NA,NA,NA,""
"image-keyboard-response",555,391364,"0.0-4.181-0.181","wfmtul7qoeoykes",620,"176.csv","","313.2999999523163","resources/trios/L1T4A2.jpg","37","restless",0.7,0.5,0.3,0.116424995252131,"true"
"image-keyboard-response",556,391765,"0.0-4.181-1.181","wfmtul7qoeoykes",620,"176.csv","","null","resources/maskTrios/L1BB.jpg","null","",NA,NA,NA,NA,""
"image-keyboard-response",557,392967,"0.0-4.181-2.181","wfmtul7qoeoykes",620,"176.csv","","null","resources/images/coin2.png","null","",NA,NA,NA,NA,""
"image-keyboard-response",558,393162,"0.0-4.182-0.182","wfmtul7qoeoykes",620,"176.csv","","194.5","resources/trios/L1T4A2.jpg","37","restless",0.7,0.4,0.3,0.236325290916515,"true"
"image-keyboard-response",559,393564,"0.0-4.182-1.182","wfmtul7qoeoykes",620,"176.csv","","null","resources/maskTrios/L1BB.jpg","null","",NA,NA,NA,NA,""
"image-keyboard-response",560,394765,"0.0-4.182-2.182","wfmtul7qoeoykes",620,"176.csv","","null","resources/images/coin2.png","null","",NA,NA,NA,NA,""
"image-keyboard-response",561,394980,"0.0-4.183-0.183","wfmtul7qoeoykes",620,"176.csv","","213.79999995231628","resources/trios/L1T4A2.jpg","37","restless",0.6,0.4,0.3,0.720094521022825,"false"
"image-keyboard-response",562,395380,"0.0-4.183-1.183","wfmtul7qoeoykes",620,"176.csv","","null","resources/maskTrios/L1BB.jpg","null","",NA,NA,NA,NA,""
"image-keyboard-response",563,396581,"0.0-4.183-2.183","wfmtul7qoeoykes",620,"176.csv","","null","resources/images/fishbone.png","null","",NA,NA,NA,NA,""
"image-keyboard-response",564,396744,"0.0-4.184-0.184","wfmtul7qoeoykes",620,"176.csv","","161.79999995231628","resources/trios/L1T4A2.jpg","37","restless",0.6,0.4,0.3,0.93657042072649,"false"
"image-keyboard-response",565,397145,"0.0-4.184-1.184","wfmtul7qoeoykes",620,"176.csv","","null","resources/maskTrios/L1BB.jpg","null","",NA,NA,NA,NA,""
"image-keyboard-response",566,398345,"0.0-4.184-2.184","wfmtul7qoeoykes",620,"176.csv","","null","resources/images/fishbone.png","null","",NA,NA,NA,NA,""
"image-keyboard-response",567,398525,"0.0-4.185-0.185","wfmtul7qoeoykes",620,"176.csv","","179.20000004768372","resources/trios/L1T4A2.jpg","38","restless",0.6,0.4,0.4,0.905079793286138,"false"
"image-keyboard-response",568,398926,"0.0-4.185-1.185","wfmtul7qoeoykes",620,"176.csv","","null","resources/maskTrios/BT4B.jpg","null","",NA,NA,NA,NA,""
"image-keyboard-response",569,400128,"0.0-4.185-2.185","wfmtul7qoeoykes",620,"176.csv","","null","resources/images/fishbone.png","null","",NA,NA,NA,NA,""
"image-keyboard-response",570,400318,"0.0-4.186-0.186","wfmtul7qoeoykes",620,"176.csv","","189.70000004768372","resources/trios/L1T4A2.jpg","37","restless",0.7,0.4,0.4,0.419542851421155,"true"
"image-keyboard-response",571,400718,"0.0-4.186-1.186","wfmtul7qoeoykes",620,"176.csv","","null","resources/maskTrios/L1BB.jpg","null","",NA,NA,NA,NA,""
"image-keyboard-response",572,401919,"0.0-4.186-2.186","wfmtul7qoeoykes",620,"176.csv","","null","resources/images/coin2.png","null","",NA,NA,NA,NA,""
"image-keyboard-response",573,402117,"0.0-4.187-0.187","wfmtul7qoeoykes",620,"176.csv","","197.20000004768372","resources/trios/L1T4A2.jpg","37","restless",0.7,0.4,0.4,0.818316878921011,"false"
"image-keyboard-response",574,402519,"0.0-4.187-1.187","wfmtul7qoeoykes",620,"176.csv","","null","resources/maskTrios/L1BB.jpg","null","",NA,NA,NA,NA,""
"image-keyboard-response",575,403720,"0.0-4.187-2.187","wfmtul7qoeoykes",620,"176.csv","","null","resources/images/fishbone.png","null","",NA,NA,NA,NA,""
"image-keyboard-response",576,403928,"0.0-4.188-0.188","wfmtul7qoeoykes",620,"176.csv","","207.5","resources/trios/L1T4A2.jpg","37","restless",0.7,0.4,0.4,0.0755800359750896,"true"
"image-keyboard-response",577,404329,"0.0-4.188-1.188","wfmtul7qoeoykes",620,"176.csv","","null","resources/maskTrios/L1BB.jpg","null","",NA,NA,NA,NA,""
"image-keyboard-response",578,405530,"0.0-4.188-2.188","wfmtul7qoeoykes",620,"176.csv","","null","resources/images/coin2.png","null","",NA,NA,NA,NA,""
"image-keyboard-response",579,405740,"0.0-4.189-0.189","wfmtul7qoeoykes",620,"176.csv","","209.19999980926514","resources/trios/L1T4A2.jpg","37","restless",0.7,0.3,0.4,0.563782095261273,"true"
"image-keyboard-response",580,406141,"0.0-4.189-1.189","wfmtul7qoeoykes",620,"176.csv","","null","resources/maskTrios/L1BB.jpg","null","",NA,NA,NA,NA,""
"image-keyboard-response",581,407342,"0.0-4.189-2.189","wfmtul7qoeoykes",620,"176.csv","","null","resources/images/coin2.png","null","",NA,NA,NA,NA,""
"image-keyboard-response",582,407588,"0.0-4.190-0.190","wfmtul7qoeoykes",620,"176.csv","","245.70000004768372","resources/trios/L1T4A2.jpg","37","restless",0.7,0.3,0.3,0.841919274697253,"false"
"image-keyboard-response",583,407989,"0.0-4.190-1.190","wfmtul7qoeoykes",620,"176.csv","","null","resources/maskTrios/L1BB.jpg","null","",NA,NA,NA,NA,""
"image-keyboard-response",584,409190,"0.0-4.190-2.190","wfmtul7qoeoykes",620,"176.csv","","null","resources/images/fishbone.png","null","",NA,NA,NA,NA,""
"image-keyboard-response",585,409368,"0.0-4.191-0.191","wfmtul7qoeoykes",620,"176.csv","","177","resources/trios/L1T4A2.jpg","37","restless",0.7,0.3,0.3,0.0722443111237097,"true"
"image-keyboard-response",586,409768,"0.0-4.191-1.191","wfmtul7qoeoykes",620,"176.csv","","null","resources/maskTrios/L1BB.jpg","null","",NA,NA,NA,NA,""
"image-keyboard-response",587,410969,"0.0-4.191-2.191","wfmtul7qoeoykes",620,"176.csv","","null","resources/images/coin2.png","null","",NA,NA,NA,NA,""
"image-keyboard-response",588,411367,"0.0-4.192-0.192","wfmtul7qoeoykes",620,"176.csv","","397.10000014305115","resources/trios/L1T4A2.jpg","37","restless",0.7,0.2,0.3,0.96999785256636,"false"
"image-keyboard-response",589,411769,"0.0-4.192-1.192","wfmtul7qoeoykes",620,"176.csv","","null","resources/maskTrios/L1BB.jpg","null","",NA,NA,NA,NA,""
"image-keyboard-response",590,412969,"0.0-4.192-2.192","wfmtul7qoeoykes",620,"176.csv","","null","resources/images/fishbone.png","null","",NA,NA,NA,NA,""
"image-keyboard-response",591,413436,"0.0-4.193-0.193","wfmtul7qoeoykes",620,"176.csv","","466.40000009536743","resources/trios/L1T4A2.jpg","37","restless",0.6,0.2,0.3,0.411772470818123,"true"
"image-keyboard-response",592,413837,"0.0-4.193-1.193","wfmtul7qoeoykes",620,"176.csv","","null","resources/maskTrios/L1BB.jpg","null","",NA,NA,NA,NA,""
"image-keyboard-response",593,415038,"0.0-4.193-2.193","wfmtul7qoeoykes",620,"176.csv","","null","resources/images/coin2.png","null","",NA,NA,NA,NA,""
"image-keyboard-response",594,415486,"0.0-4.194-0.194","wfmtul7qoeoykes",620,"176.csv","","447.7999999523163","resources/trios/L1T4A2.jpg","37","restless",0.6,0.2,0.3,0.309771874585106,"true"
"image-keyboard-response",595,415888,"0.0-4.194-1.194","wfmtul7qoeoykes",620,"176.csv","","null","resources/maskTrios/L1BB.jpg","null","",NA,NA,NA,NA,""
"image-keyboard-response",596,417089,"0.0-4.194-2.194","wfmtul7qoeoykes",620,"176.csv","","null","resources/images/coin2.png","null","",NA,NA,NA,NA,""
"image-keyboard-response",597,417356,"0.0-4.195-0.195","wfmtul7qoeoykes",620,"176.csv","","266.7999999523163","resources/trios/L1T4A2.jpg","37","restless",0.6,0.2,0.3,0.0636831457057339,"true"
"image-keyboard-response",598,417758,"0.0-4.195-1.195","wfmtul7qoeoykes",620,"176.csv","","null","resources/maskTrios/L1BB.jpg","null","",NA,NA,NA,NA,""
"image-keyboard-response",599,418959,"0.0-4.195-2.195","wfmtul7qoeoykes",620,"176.csv","","null","resources/images/coin2.png","null","",NA,NA,NA,NA,""
"image-keyboard-response",600,419288,"0.0-4.196-0.196","wfmtul7qoeoykes",620,"176.csv","","328.59999990463257","resources/trios/L1T4A2.jpg","37","restless",0.6,0.2,0.3,0.326843145705614,"true"
"image-keyboard-response",601,419690,"0.0-4.196-1.196","wfmtul7qoeoykes",620,"176.csv","","null","resources/maskTrios/L1BB.jpg","null","",NA,NA,NA,NA,""
"image-keyboard-response",602,420890,"0.0-4.196-2.196","wfmtul7qoeoykes",620,"176.csv","","null","resources/images/coin2.png","null","",NA,NA,NA,NA,""
"image-keyboard-response",603,421151,"0.0-4.197-0.197","wfmtul7qoeoykes",620,"176.csv","","260","resources/trios/L1T4A2.jpg","37","restless",0.6,0.2,0.3,0.6250708681181,"false"
"image-keyboard-response",604,421551,"0.0-4.197-1.197","wfmtul7qoeoykes",620,"176.csv","","null","resources/maskTrios/L1BB.jpg","null","",NA,NA,NA,NA,""
"image-keyboard-response",605,422753,"0.0-4.197-2.197","wfmtul7qoeoykes",620,"176.csv","","null","resources/images/fishbone.png","null","",NA,NA,NA,NA,""
"image-keyboard-response",606,422945,"0.0-4.198-0.198","wfmtul7qoeoykes",620,"176.csv","","191.60000014305115","resources/trios/L1T4A2.jpg","37","restless",0.6,0.3,0.3,0.771973034388315,"false"
"image-keyboard-response",607,423347,"0.0-4.198-1.198","wfmtul7qoeoykes",620,"176.csv","","null","resources/maskTrios/L1BB.jpg","null","",NA,NA,NA,NA,""
"image-keyboard-response",608,424549,"0.0-4.198-2.198","wfmtul7qoeoykes",620,"176.csv","","null","resources/images/fishbone.png","null","",NA,NA,NA,NA,""
