"trial_type","trial_index","time_elapsed","internal_node_id","subject","participantCode","walkNumber","success","rt","stimulus","key_press","test_part","leftProb","midProb","rightProb","generatedNum","correct"
"pavlovia",0,1019,"0.0-0.0","7a9uocgpopmt0qe",742,"48.csv","","","","","",NA,NA,NA,NA,""
"fullscreen",1,8265,"0.0-1.0","7a9uocgpopmt0qe",742,"48.csv","true","","","","",NA,NA,NA,NA,""
"html-keyboard-response",2,29659,"0.0-2.0-0.0","7a9uocgpopmt0qe",742,"48.csv","","21391.600000023842","<p><font size='6'>Arrrgh!</p></font><p>Can you be the best pirate? Try to find lots of gold! But beware, some islands have more gold than others, and over time, the island with the most gold may change. Can YOU figure it out? </p><font size='6'>GOOD LUCK, CAPTAIN!!!</font><p>Press any key to begin</p>","32","",NA,NA,NA,NA,""
"image-keyboard-response",3,32663,"0.0-2.0-1.0","7a9uocgpopmt0qe",742,"48.csv","","null","resources/image_sets/111.png","null","",NA,NA,NA,NA,""
"image-keyboard-response",4,49220,"0.0-2.0-2.0","7a9uocgpopmt0qe",742,"48.csv","","16554.69999998808","resources/image_sets/left_highlight.png","37","",NA,NA,NA,NA,""
"image-keyboard-response",5,52555,"0.0-2.0-3.0","7a9uocgpopmt0qe",742,"48.csv","","3332.199999988079","resources/image_sets/mid_highlight.png","38","",NA,NA,NA,NA,""
"image-keyboard-response",6,55159,"0.0-2.0-4.0","7a9uocgpopmt0qe",742,"48.csv","","2603","resources/image_sets/right_highlight.png","39","",NA,NA,NA,NA,""
"image-keyboard-response",7,57472,"0.0-2.0-5.0","7a9uocgpopmt0qe",742,"48.csv","","2311.600000023842","resources/image_sets/111.png","13","",NA,NA,NA,NA,""
"image-keyboard-response",8,60119,"0.0-2.0-6.0","7a9uocgpopmt0qe",742,"48.csv","","2645.699999988079","resources/images/coin2.png","13","",NA,NA,NA,NA,""
"image-keyboard-response",9,62368,"0.0-2.0-7.0","7a9uocgpopmt0qe",742,"48.csv","","2247.699999988079","resources/images/fishbone.png","13","",NA,NA,NA,NA,""
"html-keyboard-response",10,71820,"0.0-2.0-8.0","7a9uocgpopmt0qe",742,"48.csv","","9450.699999988079","<p>Your first journey will be a long one, but you will get a well deserved break at the end</p><p>After the break you will have four more journeys, but each will be much shorter than the first, and you will have breaks in between each</p><p>Press Enter to begin</p>","13","",NA,NA,NA,NA,""
"image-keyboard-response",11,77664,"0.0-3.0-0.0","7a9uocgpopmt0qe",742,"48.csv","","5842.5","resources/trios/L2T2A3.jpg","38","restless",0.3,0.9,0.7,0.755502870665039,"true"
"image-keyboard-response",12,78070,"0.0-3.0-1.0","7a9uocgpopmt0qe",742,"48.csv","","null","resources/maskTrios/BT2B.jpg","null","",NA,NA,NA,NA,""
"image-keyboard-response",13,79275,"0.0-3.0-2.0","7a9uocgpopmt0qe",742,"48.csv","","null","resources/images/coin2.png","null","",NA,NA,NA,NA,""
"image-keyboard-response",14,84051,"0.0-3.1-0.1","7a9uocgpopmt0qe",742,"48.csv","","4774.299999952316","resources/trios/L2T2A3.jpg","38","restless",0.3,0.9,0.7,0.113546881741886,"true"
"image-keyboard-response",15,84453,"0.0-3.1-1.1","7a9uocgpopmt0qe",742,"48.csv","","null","resources/maskTrios/BT2B.jpg","null","",NA,NA,NA,NA,""
"image-keyboard-response",16,85659,"0.0-3.1-2.1","7a9uocgpopmt0qe",742,"48.csv","","null","resources/images/coin2.png","null","",NA,NA,NA,NA,""
"image-keyboard-response",17,91270,"0.0-3.2-0.2","7a9uocgpopmt0qe",742,"48.csv","","5608.100000023842","resources/trios/L2T2A3.jpg","38","restless",0.3,0.9,0.7,0.82658103881546,"true"
"image-keyboard-response",18,91676,"0.0-3.2-1.2","7a9uocgpopmt0qe",742,"48.csv","","null","resources/maskTrios/BT2B.jpg","null","",NA,NA,NA,NA,""
"image-keyboard-response",19,92879,"0.0-3.2-2.2","7a9uocgpopmt0qe",742,"48.csv","","null","resources/images/coin2.png","null","",NA,NA,NA,NA,""
"image-keyboard-response",20,96639,"0.0-3.3-0.3","7a9uocgpopmt0qe",742,"48.csv","","3758.5","resources/trios/L2T2A1.jpg","38","restless",0.3,0.9,0.7,0.0242828584567298,"true"
"image-keyboard-response",21,97046,"0.0-3.3-1.3","7a9uocgpopmt0qe",742,"48.csv","","null","resources/maskTrios/BT2B.jpg","null","",NA,NA,NA,NA,""
"image-keyboard-response",22,98252,"0.0-3.3-2.3","7a9uocgpopmt0qe",742,"48.csv","","null","resources/images/coin2.png","null","",NA,NA,NA,NA,""
"image-keyboard-response",23,102513,"0.0-3.4-0.4","7a9uocgpopmt0qe",742,"48.csv","","4259.400000035763","resources/trios/L2T4A3.jpg","37","restless",0.3,0.9,0.7,0.315483522329955,"false"
"image-keyboard-response",24,102918,"0.0-3.4-1.4","7a9uocgpopmt0qe",742,"48.csv","","null","resources/maskTrios/L2BB.jpg","null","",NA,NA,NA,NA,""
"image-keyboard-response",25,104122,"0.0-3.4-2.4","7a9uocgpopmt0qe",742,"48.csv","","null","resources/images/fishbone.png","null","",NA,NA,NA,NA,""
"image-keyboard-response",26,107079,"0.0-3.5-0.5","7a9uocgpopmt0qe",742,"48.csv","","2954.900000035763","resources/trios/L1T2A1.jpg","38","restless",0.3,0.9,0.7,0.548616644473277,"true"
"image-keyboard-response",27,107481,"0.0-3.5-1.5","7a9uocgpopmt0qe",742,"48.csv","","null","resources/maskTrios/BT2B.jpg","null","",NA,NA,NA,NA,""
"image-keyboard-response",28,108687,"0.0-3.5-2.5","7a9uocgpopmt0qe",742,"48.csv","","null","resources/images/coin2.png","null","",NA,NA,NA,NA,""
"image-keyboard-response",29,109252,"0.0-3.6-0.6","7a9uocgpopmt0qe",742,"48.csv","","563.3000000119209","resources/trios/L1T4A1.jpg","38","restless",0.3,0.9,0.7,0.917914760915967,"false"
"image-keyboard-response",30,109658,"0.0-3.6-1.6","7a9uocgpopmt0qe",742,"48.csv","","null","resources/maskTrios/BT4B.jpg","null","",NA,NA,NA,NA,""
"image-keyboard-response",31,110864,"0.0-3.6-2.6","7a9uocgpopmt0qe",742,"48.csv","","null","resources/images/fishbone.png","null","",NA,NA,NA,NA,""
"image-keyboard-response",32,112302,"0.0-3.7-0.7","7a9uocgpopmt0qe",742,"48.csv","","1435.8999999761581","resources/trios/L2T4A3.jpg","37","restless",0.3,0.9,0.7,0.635536978863826,"false"
"image-keyboard-response",33,112708,"0.0-3.7-1.7","7a9uocgpopmt0qe",742,"48.csv","","null","resources/maskTrios/L2BB.jpg","null","",NA,NA,NA,NA,""
"image-keyboard-response",34,113915,"0.0-3.7-2.7","7a9uocgpopmt0qe",742,"48.csv","","null","resources/images/fishbone.png","null","",NA,NA,NA,NA,""
"image-keyboard-response",35,116119,"0.0-3.8-0.8","7a9uocgpopmt0qe",742,"48.csv","","2202.399999976158","resources/trios/L1T2A3.jpg","37","restless",0.3,0.9,0.7,0.995948716161912,"false"
"image-keyboard-response",36,116522,"0.0-3.8-1.8","7a9uocgpopmt0qe",742,"48.csv","","null","resources/maskTrios/L1BB.jpg","null","",NA,NA,NA,NA,""
"image-keyboard-response",37,117727,"0.0-3.8-2.8","7a9uocgpopmt0qe",742,"48.csv","","null","resources/images/fishbone.png","null","",NA,NA,NA,NA,""
"image-keyboard-response",38,118253,"0.0-3.9-0.9","7a9uocgpopmt0qe",742,"48.csv","","524.3999999761581","resources/trios/L2T2A1.jpg","38","restless",0.3,0.9,0.7,0.458430197802244,"true"
"image-keyboard-response",39,118659,"0.0-3.9-1.9","7a9uocgpopmt0qe",742,"48.csv","","null","resources/maskTrios/BT2B.jpg","null","",NA,NA,NA,NA,""
"image-keyboard-response",40,119866,"0.0-3.9-2.9","7a9uocgpopmt0qe",742,"48.csv","","null","resources/images/coin2.png","null","",NA,NA,NA,NA,""
"image-keyboard-response",41,120516,"0.0-3.10-0.10","7a9uocgpopmt0qe",742,"48.csv","","648.5","resources/trios/L2T2A1.jpg","38","restless",0.3,0.9,0.7,0.321335257597362,"true"
"image-keyboard-response",42,120918,"0.0-3.10-1.10","7a9uocgpopmt0qe",742,"48.csv","","null","resources/maskTrios/BT2B.jpg","null","",NA,NA,NA,NA,""
"image-keyboard-response",43,122120,"0.0-3.10-2.10","7a9uocgpopmt0qe",742,"48.csv","","null","resources/images/coin2.png","null","",NA,NA,NA,NA,""
"image-keyboard-response",44,127495,"0.0-3.11-0.11","7a9uocgpopmt0qe",742,"48.csv","","5372.900000035763","resources/trios/L2T4A1.jpg","39","restless",0.3,0.9,0.7,0.804596360976128,"false"
"image-keyboard-response",45,127900,"0.0-3.11-1.11","7a9uocgpopmt0qe",742,"48.csv","","null","resources/maskTrios/BBA1.jpg","null","",NA,NA,NA,NA,""
"image-keyboard-response",46,129107,"0.0-3.11-2.11","7a9uocgpopmt0qe",742,"48.csv","","null","resources/images/fishbone.png","null","",NA,NA,NA,NA,""
"image-keyboard-response",47,131155,"0.0-3.12-0.12","7a9uocgpopmt0qe",742,"48.csv","","2046.300000011921","resources/trios/L2T2A3.jpg","38","restless",0.3,0.9,0.7,0.482244391483127,"true"
"image-keyboard-response",48,131559,"0.0-3.12-1.12","7a9uocgpopmt0qe",742,"48.csv","","null","resources/maskTrios/BT2B.jpg","null","",NA,NA,NA,NA,""
"image-keyboard-response",49,132763,"0.0-3.12-2.12","7a9uocgpopmt0qe",742,"48.csv","","null","resources/images/coin2.png","null","",NA,NA,NA,NA,""
"image-keyboard-response",50,134034,"0.0-3.13-0.13","7a9uocgpopmt0qe",742,"48.csv","","1268.800000011921","resources/trios/L1T2A3.jpg","38","restless",0.3,0.9,0.6,0.393802290107605,"true"
"image-keyboard-response",51,134437,"0.0-3.13-1.13","7a9uocgpopmt0qe",742,"48.csv","","null","resources/maskTrios/BT2B.jpg","null","",NA,NA,NA,NA,""
"image-keyboard-response",52,135642,"0.0-3.13-2.13","7a9uocgpopmt0qe",742,"48.csv","","null","resources/images/coin2.png","null","",NA,NA,NA,NA,""
"image-keyboard-response",53,136158,"0.0-3.14-0.14","7a9uocgpopmt0qe",742,"48.csv","","514.1999999880791","resources/trios/L1T2A1.jpg","38","restless",0.3,0.9,0.6,0.367814077965686,"true"
"image-keyboard-response",54,136564,"0.0-3.14-1.14","7a9uocgpopmt0qe",742,"48.csv","","null","resources/maskTrios/BT2B.jpg","null","",NA,NA,NA,NA,""
"image-keyboard-response",55,137766,"0.0-3.14-2.14","7a9uocgpopmt0qe",742,"48.csv","","null","resources/images/coin2.png","null","",NA,NA,NA,NA,""
"image-keyboard-response",56,139512,"0.0-3.15-0.15","7a9uocgpopmt0qe",742,"48.csv","","1744.4000000357628","resources/trios/L2T4A3.jpg","38","restless",0.2,0.9,0.6,0.0412145323606281,"true"
"image-keyboard-response",57,139918,"0.0-3.15-1.15","7a9uocgpopmt0qe",742,"48.csv","","null","resources/maskTrios/BT4B.jpg","null","",NA,NA,NA,NA,""
"image-keyboard-response",58,141123,"0.0-3.15-2.15","7a9uocgpopmt0qe",742,"48.csv","","null","resources/images/coin2.png","null","",NA,NA,NA,NA,""
"image-keyboard-response",59,141827,"0.0-3.16-0.16","7a9uocgpopmt0qe",742,"48.csv","","701.8000000119209","resources/trios/L2T2A1.jpg","38","restless",0.2,0.9,0.6,0.429049713163402,"true"
"image-keyboard-response",60,142231,"0.0-3.16-1.16","7a9uocgpopmt0qe",742,"48.csv","","null","resources/maskTrios/BT2B.jpg","null","",NA,NA,NA,NA,""
"image-keyboard-response",61,143439,"0.0-3.16-2.16","7a9uocgpopmt0qe",742,"48.csv","","null","resources/images/coin2.png","null","",NA,NA,NA,NA,""
"image-keyboard-response",62,144005,"0.0-3.17-0.17","7a9uocgpopmt0qe",742,"48.csv","","564.8999999761581","resources/trios/L2T2A1.jpg","38","restless",0.1,0.9,0.5,0.235524532400474,"true"
"image-keyboard-response",63,144410,"0.0-3.17-1.17","7a9uocgpopmt0qe",742,"48.csv","","null","resources/maskTrios/BT2B.jpg","null","",NA,NA,NA,NA,""
"image-keyboard-response",64,145617,"0.0-3.17-2.17","7a9uocgpopmt0qe",742,"48.csv","","null","resources/images/coin2.png","null","",NA,NA,NA,NA,""
"image-keyboard-response",65,146332,"0.0-3.18-0.18","7a9uocgpopmt0qe",742,"48.csv","","714","resources/trios/L2T4A3.jpg","38","restless",0.1,0.8,0.5,0.697739278104476,"true"
"image-keyboard-response",66,146739,"0.0-3.18-1.18","7a9uocgpopmt0qe",742,"48.csv","","null","resources/maskTrios/BT4B.jpg","null","",NA,NA,NA,NA,""
"image-keyboard-response",67,147946,"0.0-3.18-2.18","7a9uocgpopmt0qe",742,"48.csv","","null","resources/images/coin2.png","null","",NA,NA,NA,NA,""
"image-keyboard-response",68,148764,"0.0-3.19-0.19","7a9uocgpopmt0qe",742,"48.csv","","816.5999999642372","resources/trios/L1T4A1.jpg","38","restless",0.2,0.8,0.5,0.063940141025957,"true"
"image-keyboard-response",69,149171,"0.0-3.19-1.19","7a9uocgpopmt0qe",742,"48.csv","","null","resources/maskTrios/BT4B.jpg","null","",NA,NA,NA,NA,""
"image-keyboard-response",70,150377,"0.0-3.19-2.19","7a9uocgpopmt0qe",742,"48.csv","","null","resources/images/coin2.png","null","",NA,NA,NA,NA,""
"image-keyboard-response",71,151148,"0.0-3.20-0.20","7a9uocgpopmt0qe",742,"48.csv","","769.1000000238419","resources/trios/L1T4A3.jpg","38","restless",0.2,0.8,0.5,0.737570525636536,"true"
"image-keyboard-response",72,151550,"0.0-3.20-1.20","7a9uocgpopmt0qe",742,"48.csv","","null","resources/maskTrios/BT4B.jpg","null","",NA,NA,NA,NA,""
"image-keyboard-response",73,152753,"0.0-3.20-2.20","7a9uocgpopmt0qe",742,"48.csv","","null","resources/images/coin2.png","null","",NA,NA,NA,NA,""
"image-keyboard-response",74,154413,"0.0-3.21-0.21","7a9uocgpopmt0qe",742,"48.csv","","1658.699999988079","resources/trios/L1T4A3.jpg","38","restless",0.2,0.8,0.4,0.336582976329807,"true"
"image-keyboard-response",75,154820,"0.0-3.21-1.21","7a9uocgpopmt0qe",742,"48.csv","","null","resources/maskTrios/BT4B.jpg","null","",NA,NA,NA,NA,""
"image-keyboard-response",76,156026,"0.0-3.21-2.21","7a9uocgpopmt0qe",742,"48.csv","","null","resources/images/coin2.png","null","",NA,NA,NA,NA,""
"image-keyboard-response",77,156613,"0.0-3.22-0.22","7a9uocgpopmt0qe",742,"48.csv","","585.5","resources/trios/L2T4A3.jpg","38","restless",0.2,0.8,0.4,0.186050619038279,"true"
"image-keyboard-response",78,157018,"0.0-3.22-1.22","7a9uocgpopmt0qe",742,"48.csv","","null","resources/maskTrios/BT4B.jpg","null","",NA,NA,NA,NA,""
"image-keyboard-response",79,158224,"0.0-3.22-2.22","7a9uocgpopmt0qe",742,"48.csv","","null","resources/images/coin2.png","null","",NA,NA,NA,NA,""
"image-keyboard-response",80,158864,"0.0-3.23-0.23","7a9uocgpopmt0qe",742,"48.csv","","637.8000000119209","resources/trios/L1T2A1.jpg","38","restless",0.2,0.8,0.5,0.58884889924816,"true"
"image-keyboard-response",81,159267,"0.0-3.23-1.23","7a9uocgpopmt0qe",742,"48.csv","","null","resources/maskTrios/BT2B.jpg","null","",NA,NA,NA,NA,""
"image-keyboard-response",82,160474,"0.0-3.23-2.23","7a9uocgpopmt0qe",742,"48.csv","","null","resources/images/coin2.png","null","",NA,NA,NA,NA,""
"image-keyboard-response",83,161013,"0.0-3.24-0.24","7a9uocgpopmt0qe",742,"48.csv","","537.3000000119209","resources/trios/L2T2A1.jpg","38","restless",0.2,0.8,0.5,0.725139333183938,"true"
"image-keyboard-response",84,161416,"0.0-3.24-1.24","7a9uocgpopmt0qe",742,"48.csv","","null","resources/maskTrios/BT2B.jpg","null","",NA,NA,NA,NA,""
"image-keyboard-response",85,162622,"0.0-3.24-2.24","7a9uocgpopmt0qe",742,"48.csv","","null","resources/images/coin2.png","null","",NA,NA,NA,NA,""
"image-keyboard-response",86,163684,"0.0-3.25-0.25","7a9uocgpopmt0qe",742,"48.csv","","1060.199999988079","resources/trios/L2T4A3.jpg","38","restless",0.2,0.8,0.5,0.338002344337626,"true"
"image-keyboard-response",87,164090,"0.0-3.25-1.25","7a9uocgpopmt0qe",742,"48.csv","","null","resources/maskTrios/BT4B.jpg","null","",NA,NA,NA,NA,""
"image-keyboard-response",88,165297,"0.0-3.25-2.25","7a9uocgpopmt0qe",742,"48.csv","","null","resources/images/coin2.png","null","",NA,NA,NA,NA,""
"image-keyboard-response",89,168214,"0.0-3.26-0.26","7a9uocgpopmt0qe",742,"48.csv","","2916","resources/trios/L2T4A3.jpg","38","restless",0.2,0.8,0.4,0.0535430327066897,"true"
"image-keyboard-response",90,168618,"0.0-3.26-1.26","7a9uocgpopmt0qe",742,"48.csv","","null","resources/maskTrios/BT4B.jpg","null","",NA,NA,NA,NA,""
"image-keyboard-response",91,169825,"0.0-3.26-2.26","7a9uocgpopmt0qe",742,"48.csv","","null","resources/images/coin2.png","null","",NA,NA,NA,NA,""
"image-keyboard-response",92,170494,"0.0-3.27-0.27","7a9uocgpopmt0qe",742,"48.csv","","668.4000000357628","resources/trios/L2T2A3.jpg","38","restless",0.2,0.8,0.4,0.491205200740598,"true"
"image-keyboard-response",93,170900,"0.0-3.27-1.27","7a9uocgpopmt0qe",742,"48.csv","","null","resources/maskTrios/BT2B.jpg","null","",NA,NA,NA,NA,""
"image-keyboard-response",94,172102,"0.0-3.27-2.27","7a9uocgpopmt0qe",742,"48.csv","","null","resources/images/coin2.png","null","",NA,NA,NA,NA,""
"image-keyboard-response",95,173227,"0.0-3.28-0.28","7a9uocgpopmt0qe",742,"48.csv","","1123.1000000238419","resources/trios/L2T4A3.jpg","38","restless",0.2,0.8,0.4,0.600191856723028,"true"
"image-keyboard-response",96,173633,"0.0-3.28-1.28","7a9uocgpopmt0qe",742,"48.csv","","null","resources/maskTrios/BT4B.jpg","null","",NA,NA,NA,NA,""
"image-keyboard-response",97,174837,"0.0-3.28-2.28","7a9uocgpopmt0qe",742,"48.csv","","null","resources/images/coin2.png","null","",NA,NA,NA,NA,""
"image-keyboard-response",98,175506,"0.0-3.29-0.29","7a9uocgpopmt0qe",742,"48.csv","","667.1000000238419","resources/trios/L1T4A3.jpg","38","restless",0.2,0.8,0.4,0.848955524051179,"false"
"image-keyboard-response",99,175910,"0.0-3.29-1.29","7a9uocgpopmt0qe",742,"48.csv","","null","resources/maskTrios/BT4B.jpg","null","",NA,NA,NA,NA,""
"image-keyboard-response",100,177113,"0.0-3.29-2.29","7a9uocgpopmt0qe",742,"48.csv","","null","resources/images/fishbone.png","null","",NA,NA,NA,NA,""
"image-keyboard-response",101,179942,"0.0-3.30-0.30","7a9uocgpopmt0qe",742,"48.csv","","2827.899999976158","resources/trios/L1T2A3.jpg","38","restless",0.2,0.8,0.4,0.972906492937466,"false"
"image-keyboard-response",102,180349,"0.0-3.30-1.30","7a9uocgpopmt0qe",742,"48.csv","","null","resources/maskTrios/BT2B.jpg","null","",NA,NA,NA,NA,""
"image-keyboard-response",103,181552,"0.0-3.30-2.30","7a9uocgpopmt0qe",742,"48.csv","","null","resources/images/fishbone.png","null","",NA,NA,NA,NA,""
"image-keyboard-response",104,182951,"0.0-3.31-0.31","7a9uocgpopmt0qe",742,"48.csv","","1397.300000011921","resources/trios/L1T4A3.jpg","37","restless",0.2,0.7,0.4,0.420300229184221,"false"
"image-keyboard-response",105,183354,"0.0-3.31-1.31","7a9uocgpopmt0qe",742,"48.csv","","null","resources/maskTrios/L1BB.jpg","null","",NA,NA,NA,NA,""
"image-keyboard-response",106,184560,"0.0-3.31-2.31","7a9uocgpopmt0qe",742,"48.csv","","null","resources/images/fishbone.png","null","",NA,NA,NA,NA,""
"image-keyboard-response",107,185120,"0.0-3.32-0.32","7a9uocgpopmt0qe",742,"48.csv","","558.3000000119209","resources/trios/L1T2A1.jpg","38","restless",0.2,0.8,0.4,0.621246322973863,"true"
"image-keyboard-response",108,185526,"0.0-3.32-1.32","7a9uocgpopmt0qe",742,"48.csv","","null","resources/maskTrios/BT2B.jpg","null","",NA,NA,NA,NA,""
"image-keyboard-response",109,186728,"0.0-3.32-2.32","7a9uocgpopmt0qe",742,"48.csv","","null","resources/images/coin2.png","null","",NA,NA,NA,NA,""
"image-keyboard-response",110,187435,"0.0-3.33-0.33","7a9uocgpopmt0qe",742,"48.csv","","705.8999999761581","resources/trios/L2T4A1.jpg","38","restless",0.2,0.8,0.4,0.389476301335399,"true"
"image-keyboard-response",111,187842,"0.0-3.33-1.33","7a9uocgpopmt0qe",742,"48.csv","","null","resources/maskTrios/BT4B.jpg","null","",NA,NA,NA,NA,""
"image-keyboard-response",112,189048,"0.0-3.33-2.33","7a9uocgpopmt0qe",742,"48.csv","","null","resources/images/coin2.png","null","",NA,NA,NA,NA,""
"image-keyboard-response",113,189629,"0.0-3.34-0.34","7a9uocgpopmt0qe",742,"48.csv","","579.3000000119209","resources/trios/L2T2A1.jpg","38","restless",0.2,0.8,0.3,0.067717285894924,"true"
"image-keyboard-response",114,190032,"0.0-3.34-1.34","7a9uocgpopmt0qe",742,"48.csv","","null","resources/maskTrios/BT2B.jpg","null","",NA,NA,NA,NA,""
"image-keyboard-response",115,191235,"0.0-3.34-2.34","7a9uocgpopmt0qe",742,"48.csv","","null","resources/images/coin2.png","null","",NA,NA,NA,NA,""
"image-keyboard-response",116,192015,"0.0-3.35-0.35","7a9uocgpopmt0qe",742,"48.csv","","778.3000000119209","resources/trios/L2T4A1.jpg","38","restless",0.2,0.7,0.3,0.0614517843243751,"true"
"image-keyboard-response",117,192421,"0.0-3.35-1.35","7a9uocgpopmt0qe",742,"48.csv","","null","resources/maskTrios/BT4B.jpg","null","",NA,NA,NA,NA,""
"image-keyboard-response",118,193624,"0.0-3.35-2.35","7a9uocgpopmt0qe",742,"48.csv","","null","resources/images/coin2.png","null","",NA,NA,NA,NA,""
"image-keyboard-response",119,194531,"0.0-3.36-0.36","7a9uocgpopmt0qe",742,"48.csv","","904.6999999880791","resources/trios/L2T4A3.jpg","38","restless",0.3,0.7,0.3,0.805665972724836,"false"
"image-keyboard-response",120,194933,"0.0-3.36-1.36","7a9uocgpopmt0qe",742,"48.csv","","null","resources/maskTrios/BT4B.jpg","null","",NA,NA,NA,NA,""
"image-keyboard-response",121,196139,"0.0-3.36-2.36","7a9uocgpopmt0qe",742,"48.csv","","null","resources/images/fishbone.png","null","",NA,NA,NA,NA,""
"image-keyboard-response",122,198050,"0.0-3.37-0.37","7a9uocgpopmt0qe",742,"48.csv","","1908.800000011921","resources/trios/L1T4A1.jpg","37","restless",0.3,0.7,0.3,0.0796970947516682,"true"
"image-keyboard-response",123,198454,"0.0-3.37-1.37","7a9uocgpopmt0qe",742,"48.csv","","null","resources/maskTrios/L1BB.jpg","null","",NA,NA,NA,NA,""
"image-keyboard-response",124,199655,"0.0-3.37-2.37","7a9uocgpopmt0qe",742,"48.csv","","null","resources/images/coin2.png","null","",NA,NA,NA,NA,""
"image-keyboard-response",125,200302,"0.0-3.38-0.38","7a9uocgpopmt0qe",742,"48.csv","","645","resources/trios/L2T2A1.jpg","38","restless",0.3,0.7,0.3,0.0501859945748939,"true"
"image-keyboard-response",126,200705,"0.0-3.38-1.38","7a9uocgpopmt0qe",742,"48.csv","","null","resources/maskTrios/BT2B.jpg","null","",NA,NA,NA,NA,""
"image-keyboard-response",127,201910,"0.0-3.38-2.38","7a9uocgpopmt0qe",742,"48.csv","","null","resources/images/coin2.png","null","",NA,NA,NA,NA,""
"image-keyboard-response",128,204730,"0.0-3.39-0.39","7a9uocgpopmt0qe",742,"48.csv","","2818.699999988079","resources/trios/L2T2A3.jpg","38","restless",0.3,0.7,0.3,0.0922201316610054,"true"
"image-keyboard-response",129,205134,"0.0-3.39-1.39","7a9uocgpopmt0qe",742,"48.csv","","null","resources/maskTrios/BT2B.jpg","null","",NA,NA,NA,NA,""
"image-keyboard-response",130,206338,"0.0-3.39-2.39","7a9uocgpopmt0qe",742,"48.csv","","null","resources/images/coin2.png","null","",NA,NA,NA,NA,""
"image-keyboard-response",131,207488,"0.0-3.40-0.40","7a9uocgpopmt0qe",742,"48.csv","","1148","resources/trios/L2T2A1.jpg","38","restless",0.3,0.7,0.3,0.361378297395893,"true"
"image-keyboard-response",132,207894,"0.0-3.40-1.40","7a9uocgpopmt0qe",742,"48.csv","","null","resources/maskTrios/BT2B.jpg","null","",NA,NA,NA,NA,""
"image-keyboard-response",133,209101,"0.0-3.40-2.40","7a9uocgpopmt0qe",742,"48.csv","","null","resources/images/coin2.png","null","",NA,NA,NA,NA,""
"image-keyboard-response",134,210935,"0.0-3.41-0.41","7a9uocgpopmt0qe",742,"48.csv","","1832.5","resources/trios/L1T4A3.jpg","38","restless",0.2,0.7,0.3,0.595236600281051,"true"
"image-keyboard-response",135,211339,"0.0-3.41-1.41","7a9uocgpopmt0qe",742,"48.csv","","null","resources/maskTrios/BT4B.jpg","null","",NA,NA,NA,NA,""
"image-keyboard-response",136,212546,"0.0-3.41-2.41","7a9uocgpopmt0qe",742,"48.csv","","null","resources/images/coin2.png","null","",NA,NA,NA,NA,""
"image-keyboard-response",137,213513,"0.0-3.42-0.42","7a9uocgpopmt0qe",742,"48.csv","","966.1000000238419","resources/trios/L2T4A3.jpg","37","restless",0.2,0.7,0.3,0.0629290714189954,"true"
"image-keyboard-response",138,213920,"0.0-3.42-1.42","7a9uocgpopmt0qe",742,"48.csv","","null","resources/maskTrios/L2BB.jpg","null","",NA,NA,NA,NA,""
"image-keyboard-response",139,215124,"0.0-3.42-2.42","7a9uocgpopmt0qe",742,"48.csv","","null","resources/images/coin2.png","null","",NA,NA,NA,NA,""
"image-keyboard-response",140,215895,"0.0-3.43-0.43","7a9uocgpopmt0qe",742,"48.csv","","768.8999999761581","resources/trios/L2T2A1.jpg","38","restless",0.3,0.7,0.3,0.780836273314315,"false"
"image-keyboard-response",141,216302,"0.0-3.43-1.43","7a9uocgpopmt0qe",742,"48.csv","","null","resources/maskTrios/BT2B.jpg","null","",NA,NA,NA,NA,""
"image-keyboard-response",142,217508,"0.0-3.43-2.43","7a9uocgpopmt0qe",742,"48.csv","","null","resources/images/fishbone.png","null","",NA,NA,NA,NA,""
"image-keyboard-response",143,218846,"0.0-3.44-0.44","7a9uocgpopmt0qe",742,"48.csv","","1335.5999999642372","resources/trios/L2T2A3.jpg","37","restless",0.3,0.7,0.3,0.649045572611948,"false"
"image-keyboard-response",144,219252,"0.0-3.44-1.44","7a9uocgpopmt0qe",742,"48.csv","","null","resources/maskTrios/L2BB.jpg","null","",NA,NA,NA,NA,""
"image-keyboard-response",145,220456,"0.0-3.44-2.44","7a9uocgpopmt0qe",742,"48.csv","","null","resources/images/fishbone.png","null","",NA,NA,NA,NA,""
"image-keyboard-response",146,221892,"0.0-3.45-0.45","7a9uocgpopmt0qe",742,"48.csv","","1434.3999999761581","resources/trios/L2T2A3.jpg","38","restless",0.4,0.7,0.3,0.388014594968691,"true"
"image-keyboard-response",147,222298,"0.0-3.45-1.45","7a9uocgpopmt0qe",742,"48.csv","","null","resources/maskTrios/BT2B.jpg","null","",NA,NA,NA,NA,""
"image-keyboard-response",148,223505,"0.0-3.45-2.45","7a9uocgpopmt0qe",742,"48.csv","","null","resources/images/coin2.png","null","",NA,NA,NA,NA,""
"image-keyboard-response",149,224388,"0.0-3.46-0.46","7a9uocgpopmt0qe",742,"48.csv","","881.3000000119209","resources/trios/L1T2A3.jpg","38","restless",0.4,0.7,0.3,0.549762832832671,"true"
"image-keyboard-response",150,224794,"0.0-3.46-1.46","7a9uocgpopmt0qe",742,"48.csv","","null","resources/maskTrios/BT2B.jpg","null","",NA,NA,NA,NA,""
"image-keyboard-response",151,226001,"0.0-3.46-2.46","7a9uocgpopmt0qe",742,"48.csv","","null","resources/images/coin2.png","null","",NA,NA,NA,NA,""
"image-keyboard-response",152,228258,"0.0-3.47-0.47","7a9uocgpopmt0qe",742,"48.csv","","2255.599999964237","resources/trios/L1T4A1.jpg","38","restless",0.4,0.7,0.3,0.513725220344257,"true"
"image-keyboard-response",153,228660,"0.0-3.47-1.47","7a9uocgpopmt0qe",742,"48.csv","","null","resources/maskTrios/BT4B.jpg","null","",NA,NA,NA,NA,""
"image-keyboard-response",154,229866,"0.0-3.47-2.47","7a9uocgpopmt0qe",742,"48.csv","","null","resources/images/coin2.png","null","",NA,NA,NA,NA,""
"image-keyboard-response",155,230306,"0.0-3.48-0.48","7a9uocgpopmt0qe",742,"48.csv","","437.5","resources/trios/L2T4A3.jpg","37","restless",0.4,0.7,0.3,0.891966656398348,"false"
"image-keyboard-response",156,230712,"0.0-3.48-1.48","7a9uocgpopmt0qe",742,"48.csv","","null","resources/maskTrios/L2BB.jpg","null","",NA,NA,NA,NA,""
"image-keyboard-response",157,231918,"0.0-3.48-2.48","7a9uocgpopmt0qe",742,"48.csv","","null","resources/images/fishbone.png","null","",NA,NA,NA,NA,""
"image-keyboard-response",158,232343,"0.0-3.49-0.49","7a9uocgpopmt0qe",742,"48.csv","","422.60000002384186","resources/trios/L2T4A1.jpg","38","restless",0.4,0.7,0.3,0.255715162360801,"true"
"image-keyboard-response",159,232749,"0.0-3.49-1.49","7a9uocgpopmt0qe",742,"48.csv","","null","resources/maskTrios/BT4B.jpg","null","",NA,NA,NA,NA,""
"image-keyboard-response",160,233954,"0.0-3.49-2.49","7a9uocgpopmt0qe",742,"48.csv","","null","resources/images/coin2.png","null","",NA,NA,NA,NA,""
"image-keyboard-response",161,234346,"0.0-3.50-0.50","7a9uocgpopmt0qe",742,"48.csv","","389.5999999642372","resources/trios/L2T2A3.jpg","38","restless",0.5,0.7,0.3,0.270028062843279,"true"
"image-keyboard-response",162,234753,"0.0-3.50-1.50","7a9uocgpopmt0qe",742,"48.csv","","null","resources/maskTrios/BT2B.jpg","null","",NA,NA,NA,NA,""
"image-keyboard-response",163,235955,"0.0-3.50-2.50","7a9uocgpopmt0qe",742,"48.csv","","null","resources/images/coin2.png","null","",NA,NA,NA,NA,""
"image-keyboard-response",164,236554,"0.0-3.51-0.51","7a9uocgpopmt0qe",742,"48.csv","","597.8999999761581","resources/trios/L2T4A3.jpg","38","restless",0.5,0.7,0.3,0.646395589825022,"true"
"image-keyboard-response",165,236960,"0.0-3.51-1.51","7a9uocgpopmt0qe",742,"48.csv","","null","resources/maskTrios/BT4B.jpg","null","",NA,NA,NA,NA,""
"image-keyboard-response",166,238164,"0.0-3.51-2.51","7a9uocgpopmt0qe",742,"48.csv","","null","resources/images/coin2.png","null","",NA,NA,NA,NA,""
"image-keyboard-response",167,238745,"0.0-3.52-0.52","7a9uocgpopmt0qe",742,"48.csv","","579.8000000119209","resources/trios/L1T4A1.jpg","38","restless",0.5,0.7,0.4,0.28979056466361,"true"
"image-keyboard-response",168,239152,"0.0-3.52-1.52","7a9uocgpopmt0qe",742,"48.csv","","null","resources/maskTrios/BT4B.jpg","null","",NA,NA,NA,NA,""
"image-keyboard-response",169,240358,"0.0-3.52-2.52","7a9uocgpopmt0qe",742,"48.csv","","null","resources/images/coin2.png","null","",NA,NA,NA,NA,""
"image-keyboard-response",170,241492,"0.0-3.53-0.53","7a9uocgpopmt0qe",742,"48.csv","","1131.7000000476837","resources/trios/L1T4A3.jpg","38","restless",0.5,0.7,0.4,0.266855389250487,"true"
"image-keyboard-response",171,241897,"0.0-3.53-1.53","7a9uocgpopmt0qe",742,"48.csv","","null","resources/maskTrios/BT4B.jpg","null","",NA,NA,NA,NA,""
"image-keyboard-response",172,243103,"0.0-3.53-2.53","7a9uocgpopmt0qe",742,"48.csv","","null","resources/images/coin2.png","null","",NA,NA,NA,NA,""
"image-keyboard-response",173,244052,"0.0-3.54-0.54","7a9uocgpopmt0qe",742,"48.csv","","946.8000000119209","resources/trios/L1T4A3.jpg","38","restless",0.5,0.7,0.5,0.734904602562502,"false"
"image-keyboard-response",174,244454,"0.0-3.54-1.54","7a9uocgpopmt0qe",742,"48.csv","","null","resources/maskTrios/BT4B.jpg","null","",NA,NA,NA,NA,""
"image-keyboard-response",175,245659,"0.0-3.54-2.54","7a9uocgpopmt0qe",742,"48.csv","","null","resources/images/fishbone.png","null","",NA,NA,NA,NA,""
"image-keyboard-response",176,246187,"0.0-3.55-0.55","7a9uocgpopmt0qe",742,"48.csv","","527.0999999642372","resources/trios/L1T2A3.jpg","38","restless",0.5,0.7,0.6,0.612252852327295,"true"
"image-keyboard-response",177,246591,"0.0-3.55-1.55","7a9uocgpopmt0qe",742,"48.csv","","null","resources/maskTrios/BT2B.jpg","null","",NA,NA,NA,NA,""
"image-keyboard-response",178,247798,"0.0-3.55-2.55","7a9uocgpopmt0qe",742,"48.csv","","null","resources/images/coin2.png","null","",NA,NA,NA,NA,""
"image-keyboard-response",179,248345,"0.0-3.56-0.56","7a9uocgpopmt0qe",742,"48.csv","","545.8999999761581","resources/trios/L1T4A3.jpg","38","restless",0.5,0.7,0.6,0.713170815723928,"false"
"image-keyboard-response",180,248752,"0.0-3.56-1.56","7a9uocgpopmt0qe",742,"48.csv","","null","resources/maskTrios/BT4B.jpg","null","",NA,NA,NA,NA,""
"image-keyboard-response",181,249958,"0.0-3.56-2.56","7a9uocgpopmt0qe",742,"48.csv","","null","resources/images/fishbone.png","null","",NA,NA,NA,NA,""
"image-keyboard-response",182,252677,"0.0-3.57-0.57","7a9uocgpopmt0qe",742,"48.csv","","2716.7999999523163","resources/trios/L2T2A3.jpg","38","restless",0.5,0.7,0.6,0.600707133372742,"true"
"image-keyboard-response",183,253082,"0.0-3.57-1.57","7a9uocgpopmt0qe",742,"48.csv","","null","resources/maskTrios/BT2B.jpg","null","",NA,NA,NA,NA,""
"image-keyboard-response",184,254288,"0.0-3.57-2.57","7a9uocgpopmt0qe",742,"48.csv","","null","resources/images/coin2.png","null","",NA,NA,NA,NA,""
"image-keyboard-response",185,255228,"0.0-3.58-0.58","7a9uocgpopmt0qe",742,"48.csv","","938.2999999523163","resources/trios/L1T2A1.jpg","38","restless",0.5,0.7,0.6,0.913388654451088,"false"
"image-keyboard-response",186,255630,"0.0-3.58-1.58","7a9uocgpopmt0qe",742,"48.csv","","null","resources/maskTrios/BT2B.jpg","null","",NA,NA,NA,NA,""
"image-keyboard-response",187,256837,"0.0-3.58-2.58","7a9uocgpopmt0qe",742,"48.csv","","null","resources/images/fishbone.png","null","",NA,NA,NA,NA,""
"image-keyboard-response",188,257591,"0.0-3.59-0.59","7a9uocgpopmt0qe",742,"48.csv","","752.7000000476837","resources/trios/L2T4A1.jpg","37","restless",0.5,0.7,0.6,0.83474681855006,"false"
"image-keyboard-response",189,257998,"0.0-3.59-1.59","7a9uocgpopmt0qe",742,"48.csv","","null","resources/maskTrios/L2BB.jpg","null","",NA,NA,NA,NA,""
"image-keyboard-response",190,259204,"0.0-3.59-2.59","7a9uocgpopmt0qe",742,"48.csv","","null","resources/images/fishbone.png","null","",NA,NA,NA,NA,""
"image-keyboard-response",191,259760,"0.0-3.60-0.60","7a9uocgpopmt0qe",742,"48.csv","","555.1999999880791","resources/trios/L1T2A1.jpg","38","restless",0.5,0.7,0.6,0.470231962633249,"true"
"image-keyboard-response",192,260164,"0.0-3.60-1.60","7a9uocgpopmt0qe",742,"48.csv","","null","resources/maskTrios/BT2B.jpg","null","",NA,NA,NA,NA,""
"image-keyboard-response",193,261370,"0.0-3.60-2.60","7a9uocgpopmt0qe",742,"48.csv","","null","resources/images/coin2.png","null","",NA,NA,NA,NA,""
"image-keyboard-response",194,264119,"0.0-3.61-0.61","7a9uocgpopmt0qe",742,"48.csv","","2747.300000011921","resources/trios/L1T2A3.jpg","38","restless",0.5,0.6,0.6,0.806455939013226,"false"
"image-keyboard-response",195,264526,"0.0-3.61-1.61","7a9uocgpopmt0qe",742,"48.csv","","null","resources/maskTrios/BT2B.jpg","null","",NA,NA,NA,NA,""
"image-keyboard-response",196,265730,"0.0-3.61-2.61","7a9uocgpopmt0qe",742,"48.csv","","null","resources/images/fishbone.png","null","",NA,NA,NA,NA,""
"image-keyboard-response",197,266093,"0.0-3.62-0.62","7a9uocgpopmt0qe",742,"48.csv","","361.5999999642372","resources/trios/L1T4A1.jpg","38","restless",0.5,0.6,0.6,0.00987943427303106,"true"
"image-keyboard-response",198,266500,"0.0-3.62-1.62","7a9uocgpopmt0qe",742,"48.csv","","null","resources/maskTrios/BT4B.jpg","null","",NA,NA,NA,NA,""
"image-keyboard-response",199,267705,"0.0-3.62-2.62","7a9uocgpopmt0qe",742,"48.csv","","null","resources/images/coin2.png","null","",NA,NA,NA,NA,""
"image-keyboard-response",200,268186,"0.0-3.63-0.63","7a9uocgpopmt0qe",742,"48.csv","","478.69999998807907","resources/trios/L1T2A1.jpg","38","restless",0.5,0.5,0.6,0.816111790921729,"false"
"image-keyboard-response",201,268591,"0.0-3.63-1.63","7a9uocgpopmt0qe",742,"48.csv","","null","resources/maskTrios/BT2B.jpg","null","",NA,NA,NA,NA,""
"image-keyboard-response",202,269798,"0.0-3.63-2.63","7a9uocgpopmt0qe",742,"48.csv","","null","resources/images/fishbone.png","null","",NA,NA,NA,NA,""
"image-keyboard-response",203,270523,"0.0-3.64-0.64","7a9uocgpopmt0qe",742,"48.csv","","723.3000000119209","resources/trios/L2T4A3.jpg","38","restless",0.5,0.5,0.6,0.265518582524379,"true"
"image-keyboard-response",204,270929,"0.0-3.64-1.64","7a9uocgpopmt0qe",742,"48.csv","","null","resources/maskTrios/BT4B.jpg","null","",NA,NA,NA,NA,""
"image-keyboard-response",205,272132,"0.0-3.64-2.64","7a9uocgpopmt0qe",742,"48.csv","","null","resources/images/coin2.png","null","",NA,NA,NA,NA,""
"image-keyboard-response",206,274010,"0.0-3.65-0.65","7a9uocgpopmt0qe",742,"48.csv","","1876.0999999642372","resources/trios/L1T2A1.jpg","38","restless",0.5,0.5,0.6,0.285886551020465,"true"
"image-keyboard-response",207,274413,"0.0-3.65-1.65","7a9uocgpopmt0qe",742,"48.csv","","null","resources/maskTrios/BT2B.jpg","null","",NA,NA,NA,NA,""
"image-keyboard-response",208,275620,"0.0-3.65-2.65","7a9uocgpopmt0qe",742,"48.csv","","null","resources/images/coin2.png","null","",NA,NA,NA,NA,""
"image-keyboard-response",209,277267,"0.0-3.66-0.66","7a9uocgpopmt0qe",742,"48.csv","","1644.800000011921","resources/trios/L1T2A3.jpg","37","restless",0.5,0.5,0.6,0.427018902572237,"true"
"image-keyboard-response",210,277673,"0.0-3.66-1.66","7a9uocgpopmt0qe",742,"48.csv","","null","resources/maskTrios/L1BB.jpg","null","",NA,NA,NA,NA,""
"image-keyboard-response",211,278880,"0.0-3.66-2.66","7a9uocgpopmt0qe",742,"48.csv","","null","resources/images/coin2.png","null","",NA,NA,NA,NA,""
"image-keyboard-response",212,279875,"0.0-3.67-0.67","7a9uocgpopmt0qe",742,"48.csv","","993.3999999761581","resources/trios/L1T4A1.jpg","38","restless",0.5,0.5,0.6,0.213189857817864,"true"
"image-keyboard-response",213,280277,"0.0-3.67-1.67","7a9uocgpopmt0qe",742,"48.csv","","null","resources/maskTrios/BT4B.jpg","null","",NA,NA,NA,NA,""
"image-keyboard-response",214,281480,"0.0-3.67-2.67","7a9uocgpopmt0qe",742,"48.csv","","null","resources/images/coin2.png","null","",NA,NA,NA,NA,""
"image-keyboard-response",215,283276,"0.0-3.68-0.68","7a9uocgpopmt0qe",742,"48.csv","","1795.199999988079","resources/trios/L1T2A3.jpg","37","restless",0.5,0.4,0.6,0.29286115039486,"true"
"image-keyboard-response",216,283680,"0.0-3.68-1.68","7a9uocgpopmt0qe",742,"48.csv","","null","resources/maskTrios/L1BB.jpg","null","",NA,NA,NA,NA,""
"image-keyboard-response",217,284887,"0.0-3.68-2.68","7a9uocgpopmt0qe",742,"48.csv","","null","resources/images/coin2.png","null","",NA,NA,NA,NA,""
"image-keyboard-response",218,285629,"0.0-3.69-0.69","7a9uocgpopmt0qe",742,"48.csv","","740.6000000238419","resources/trios/L2T4A1.jpg","38","restless",0.5,0.4,0.6,0.301396717258613,"true"
"image-keyboard-response",219,286034,"0.0-3.69-1.69","7a9uocgpopmt0qe",742,"48.csv","","null","resources/maskTrios/BT4B.jpg","null","",NA,NA,NA,NA,""
"image-keyboard-response",220,287239,"0.0-3.69-2.69","7a9uocgpopmt0qe",742,"48.csv","","null","resources/images/coin2.png","null","",NA,NA,NA,NA,""
"image-keyboard-response",221,287738,"0.0-3.70-0.70","7a9uocgpopmt0qe",742,"48.csv","","497.2000000476837","resources/trios/L1T2A3.jpg","37","restless",0.5,0.4,0.6,0.430793069681425,"true"
"image-keyboard-response",222,288141,"0.0-3.70-1.70","7a9uocgpopmt0qe",742,"48.csv","","null","resources/maskTrios/L1BB.jpg","null","",NA,NA,NA,NA,""
"image-keyboard-response",223,289347,"0.0-3.70-2.70","7a9uocgpopmt0qe",742,"48.csv","","null","resources/images/coin2.png","null","",NA,NA,NA,NA,""
"image-keyboard-response",224,293694,"0.0-3.71-0.71","7a9uocgpopmt0qe",742,"48.csv","","4345.300000011921","resources/trios/L2T4A3.jpg","37","restless",0.5,0.4,0.6,0.214727830393508,"true"
"image-keyboard-response",225,294100,"0.0-3.71-1.71","7a9uocgpopmt0qe",742,"48.csv","","null","resources/maskTrios/L2BB.jpg","null","",NA,NA,NA,NA,""
"image-keyboard-response",226,295306,"0.0-3.71-2.71","7a9uocgpopmt0qe",742,"48.csv","","null","resources/images/coin2.png","null","",NA,NA,NA,NA,""
"image-keyboard-response",227,296027,"0.0-3.72-0.72","7a9uocgpopmt0qe",742,"48.csv","","719","resources/trios/L1T2A3.jpg","37","restless",0.5,0.4,0.6,0.260198889119498,"true"
"image-keyboard-response",228,296431,"0.0-3.72-1.72","7a9uocgpopmt0qe",742,"48.csv","","null","resources/maskTrios/L1BB.jpg","null","",NA,NA,NA,NA,""
"image-keyboard-response",229,297637,"0.0-3.72-2.72","7a9uocgpopmt0qe",742,"48.csv","","null","resources/images/coin2.png","null","",NA,NA,NA,NA,""
"image-keyboard-response",230,298251,"0.0-3.73-0.73","7a9uocgpopmt0qe",742,"48.csv","","611.6999999880791","resources/trios/L1T2A3.jpg","37","restless",0.5,0.4,0.6,0.684766053797656,"false"
"image-keyboard-response",231,298657,"0.0-3.73-1.73","7a9uocgpopmt0qe",742,"48.csv","","null","resources/maskTrios/L1BB.jpg","null","",NA,NA,NA,NA,""
"image-keyboard-response",232,299862,"0.0-3.73-2.73","7a9uocgpopmt0qe",742,"48.csv","","null","resources/images/fishbone.png","null","",NA,NA,NA,NA,""
"image-keyboard-response",233,301159,"0.0-3.74-0.74","7a9uocgpopmt0qe",742,"48.csv","","1295.699999988079","resources/trios/L1T4A3.jpg","37","restless",0.5,0.4,0.6,0.437501025132985,"true"
"image-keyboard-response",234,301563,"0.0-3.74-1.74","7a9uocgpopmt0qe",742,"48.csv","","null","resources/maskTrios/L1BB.jpg","null","",NA,NA,NA,NA,""
"image-keyboard-response",235,302769,"0.0-3.74-2.74","7a9uocgpopmt0qe",742,"48.csv","","null","resources/images/coin2.png","null","",NA,NA,NA,NA,""
"image-keyboard-response",236,303628,"0.0-3.75-0.75","7a9uocgpopmt0qe",742,"48.csv","","856.6000000238419","resources/trios/L2T2A3.jpg","37","restless",0.6,0.4,0.6,0.776708499594636,"false"
"image-keyboard-response",237,304034,"0.0-3.75-1.75","7a9uocgpopmt0qe",742,"48.csv","","null","resources/maskTrios/L2BB.jpg","null","",NA,NA,NA,NA,""
"image-keyboard-response",238,305239,"0.0-3.75-2.75","7a9uocgpopmt0qe",742,"48.csv","","null","resources/images/fishbone.png","null","",NA,NA,NA,NA,""
"image-keyboard-response",239,306946,"0.0-3.76-0.76","7a9uocgpopmt0qe",742,"48.csv","","1705.5","resources/trios/L2T2A3.jpg","38","restless",0.5,0.4,0.6,0.207868984224078,"true"
"image-keyboard-response",240,307352,"0.0-3.76-1.76","7a9uocgpopmt0qe",742,"48.csv","","null","resources/maskTrios/BT2B.jpg","null","",NA,NA,NA,NA,""
"image-keyboard-response",241,308556,"0.0-3.76-2.76","7a9uocgpopmt0qe",742,"48.csv","","null","resources/images/coin2.png","null","",NA,NA,NA,NA,""
"image-keyboard-response",242,309512,"0.0-3.77-0.77","7a9uocgpopmt0qe",742,"48.csv","","954.3000000119209","resources/trios/L2T2A1.jpg","38","restless",0.5,0.3,0.6,0.0784617131508516,"true"
"image-keyboard-response",243,309919,"0.0-3.77-1.77","7a9uocgpopmt0qe",742,"48.csv","","null","resources/maskTrios/BT2B.jpg","null","",NA,NA,NA,NA,""
"image-keyboard-response",244,311122,"0.0-3.77-2.77","7a9uocgpopmt0qe",742,"48.csv","","null","resources/images/coin2.png","null","",NA,NA,NA,NA,""
"image-keyboard-response",245,312776,"0.0-3.78-0.78","7a9uocgpopmt0qe",742,"48.csv","","1651.5999999642372","resources/trios/L1T4A1.jpg","38","restless",0.5,0.3,0.6,0.304508105658975,"false"
"image-keyboard-response",246,313181,"0.0-3.78-1.78","7a9uocgpopmt0qe",742,"48.csv","","null","resources/maskTrios/BT4B.jpg","null","",NA,NA,NA,NA,""
"image-keyboard-response",247,314387,"0.0-3.78-2.78","7a9uocgpopmt0qe",742,"48.csv","","null","resources/images/fishbone.png","null","",NA,NA,NA,NA,""
"image-keyboard-response",248,315615,"0.0-3.79-0.79","7a9uocgpopmt0qe",742,"48.csv","","1226","resources/trios/L1T4A1.jpg","38","restless",0.5,0.3,0.6,0.777328128178499,"false"
"image-keyboard-response",249,316021,"0.0-3.79-1.79","7a9uocgpopmt0qe",742,"48.csv","","null","resources/maskTrios/BT4B.jpg","null","",NA,NA,NA,NA,""
"image-keyboard-response",250,317228,"0.0-3.79-2.79","7a9uocgpopmt0qe",742,"48.csv","","null","resources/images/fishbone.png","null","",NA,NA,NA,NA,""
"image-keyboard-response",251,318864,"0.0-3.80-0.80","7a9uocgpopmt0qe",742,"48.csv","","1634.800000011921","resources/trios/L2T2A3.jpg","37","restless",0.5,0.3,0.6,0.626204241897687,"false"
"image-keyboard-response",252,319270,"0.0-3.80-1.80","7a9uocgpopmt0qe",742,"48.csv","","null","resources/maskTrios/L2BB.jpg","null","",NA,NA,NA,NA,""
"image-keyboard-response",253,320477,"0.0-3.80-2.80","7a9uocgpopmt0qe",742,"48.csv","","null","resources/images/fishbone.png","null","",NA,NA,NA,NA,""
"image-keyboard-response",254,320997,"0.0-3.81-0.81","7a9uocgpopmt0qe",742,"48.csv","","518.1999999880791","resources/trios/L2T2A3.jpg","38","restless",0.4,0.3,0.6,0.38856927658654,"false"
"image-keyboard-response",255,321403,"0.0-3.81-1.81","7a9uocgpopmt0qe",742,"48.csv","","null","resources/maskTrios/BT2B.jpg","null","",NA,NA,NA,NA,""
"image-keyboard-response",256,322610,"0.0-3.81-2.81","7a9uocgpopmt0qe",742,"48.csv","","null","resources/images/fishbone.png","null","",NA,NA,NA,NA,""
"image-keyboard-response",257,323241,"0.0-3.82-0.82","7a9uocgpopmt0qe",742,"48.csv","","630","resources/trios/L2T2A1.jpg","38","restless",0.4,0.3,0.6,0.244311682595133,"true"
"image-keyboard-response",258,323643,"0.0-3.82-1.82","7a9uocgpopmt0qe",742,"48.csv","","null","resources/maskTrios/BT2B.jpg","null","",NA,NA,NA,NA,""
"image-keyboard-response",259,324849,"0.0-3.82-2.82","7a9uocgpopmt0qe",742,"48.csv","","null","resources/images/coin2.png","null","",NA,NA,NA,NA,""
"image-keyboard-response",260,325465,"0.0-3.83-0.83","7a9uocgpopmt0qe",742,"48.csv","","613.9000000357628","resources/trios/L1T4A1.jpg","38","restless",0.4,0.3,0.6,0.952263912051148,"false"
"image-keyboard-response",261,325872,"0.0-3.83-1.83","7a9uocgpopmt0qe",742,"48.csv","","null","resources/maskTrios/BT4B.jpg","null","",NA,NA,NA,NA,""
"image-keyboard-response",262,327076,"0.0-3.83-2.83","7a9uocgpopmt0qe",742,"48.csv","","null","resources/images/fishbone.png","null","",NA,NA,NA,NA,""
"image-keyboard-response",263,328924,"0.0-3.84-0.84","7a9uocgpopmt0qe",742,"48.csv","","1846.5999999642372","resources/trios/L2T4A1.jpg","37","restless",0.4,0.3,0.7,0.499389373818121,"false"
"image-keyboard-response",264,329331,"0.0-3.84-1.84","7a9uocgpopmt0qe",742,"48.csv","","null","resources/maskTrios/L2BB.jpg","null","",NA,NA,NA,NA,""
"image-keyboard-response",265,330536,"0.0-3.84-2.84","7a9uocgpopmt0qe",742,"48.csv","","null","resources/images/fishbone.png","null","",NA,NA,NA,NA,""
"image-keyboard-response",266,333300,"0.0-3.85-0.85","7a9uocgpopmt0qe",742,"48.csv","","2762.5","resources/trios/L2T4A1.jpg","38","restless",0.4,0.3,0.7,0.123720238632698,"true"
"image-keyboard-response",267,333707,"0.0-3.85-1.85","7a9uocgpopmt0qe",742,"48.csv","","null","resources/maskTrios/BT4B.jpg","null","",NA,NA,NA,NA,""
"image-keyboard-response",268,334913,"0.0-3.85-2.85","7a9uocgpopmt0qe",742,"48.csv","","null","resources/images/coin2.png","null","",NA,NA,NA,NA,""
"image-keyboard-response",269,335379,"0.0-3.86-0.86","7a9uocgpopmt0qe",742,"48.csv","","464.60000002384186","resources/trios/L2T2A1.jpg","38","restless",0.4,0.3,0.7,0.779990606487603,"false"
"image-keyboard-response",270,335783,"0.0-3.86-1.86","7a9uocgpopmt0qe",742,"48.csv","","null","resources/maskTrios/BT2B.jpg","null","",NA,NA,NA,NA,""
"image-keyboard-response",271,336986,"0.0-3.86-2.86","7a9uocgpopmt0qe",742,"48.csv","","null","resources/images/fishbone.png","null","",NA,NA,NA,NA,""
"image-keyboard-response",272,337492,"0.0-3.87-0.87","7a9uocgpopmt0qe",742,"48.csv","","504.7000000476837","resources/trios/L2T2A1.jpg","38","restless",0.4,0.3,0.7,0.494500880501713,"false"
"image-keyboard-response",273,337899,"0.0-3.87-1.87","7a9uocgpopmt0qe",742,"48.csv","","null","resources/maskTrios/BT2B.jpg","null","",NA,NA,NA,NA,""
"image-keyboard-response",274,339105,"0.0-3.87-2.87","7a9uocgpopmt0qe",742,"48.csv","","null","resources/images/fishbone.png","null","",NA,NA,NA,NA,""
"image-keyboard-response",275,339435,"0.0-3.88-0.88","7a9uocgpopmt0qe",742,"48.csv","","326.89999997615814","resources/trios/L1T4A1.jpg","38","restless",0.5,0.3,0.7,0.714602435583273,"false"
"image-keyboard-response",276,339837,"0.0-3.88-1.88","7a9uocgpopmt0qe",742,"48.csv","","null","resources/maskTrios/BT4B.jpg","null","",NA,NA,NA,NA,""
"image-keyboard-response",277,341039,"0.0-3.88-2.88","7a9uocgpopmt0qe",742,"48.csv","","null","resources/images/fishbone.png","null","",NA,NA,NA,NA,""
"image-keyboard-response",278,341627,"0.0-3.89-0.89","7a9uocgpopmt0qe",742,"48.csv","","586.6000000238419","resources/trios/L1T4A3.jpg","37","restless",0.5,0.2,0.7,0.139997942920322,"true"
"image-keyboard-response",279,342031,"0.0-3.89-1.89","7a9uocgpopmt0qe",742,"48.csv","","null","resources/maskTrios/L1BB.jpg","null","",NA,NA,NA,NA,""
"image-keyboard-response",280,343237,"0.0-3.89-2.89","7a9uocgpopmt0qe",742,"48.csv","","null","resources/images/coin2.png","null","",NA,NA,NA,NA,""
"image-keyboard-response",281,343528,"0.0-3.90-0.90","7a9uocgpopmt0qe",742,"48.csv","","289.30000001192093","resources/trios/L2T4A1.jpg","37","restless",0.5,0.2,0.7,0.00740323145043109,"true"
"image-keyboard-response",282,343931,"0.0-3.90-1.90","7a9uocgpopmt0qe",742,"48.csv","","null","resources/maskTrios/L2BB.jpg","null","",NA,NA,NA,NA,""
"image-keyboard-response",283,345138,"0.0-3.90-2.90","7a9uocgpopmt0qe",742,"48.csv","","null","resources/images/coin2.png","null","",NA,NA,NA,NA,""
"image-keyboard-response",284,345473,"0.0-3.91-0.91","7a9uocgpopmt0qe",742,"48.csv","","333.80000001192093","resources/trios/L2T4A1.jpg","37","restless",0.5,0.2,0.7,0.419170926098003,"true"
"image-keyboard-response",285,345877,"0.0-3.91-1.91","7a9uocgpopmt0qe",742,"48.csv","","null","resources/maskTrios/L2BB.jpg","null","",NA,NA,NA,NA,""
"image-keyboard-response",286,347083,"0.0-3.91-2.91","7a9uocgpopmt0qe",742,"48.csv","","null","resources/images/coin2.png","null","",NA,NA,NA,NA,""
"image-keyboard-response",287,347402,"0.0-3.92-0.92","7a9uocgpopmt0qe",742,"48.csv","","317.5","resources/trios/L2T2A1.jpg","37","restless",0.5,0.3,0.7,0.0644689511069865,"true"
"image-keyboard-response",288,347808,"0.0-3.92-1.92","7a9uocgpopmt0qe",742,"48.csv","","null","resources/maskTrios/L2BB.jpg","null","",NA,NA,NA,NA,""
"image-keyboard-response",289,349015,"0.0-3.92-2.92","7a9uocgpopmt0qe",742,"48.csv","","null","resources/images/coin2.png","null","",NA,NA,NA,NA,""
"image-keyboard-response",290,349268,"0.0-3.93-0.93","7a9uocgpopmt0qe",742,"48.csv","","251.39999997615814","resources/trios/L2T2A3.jpg","37","restless",0.5,0.3,0.7,0.636158605252773,"false"
"image-keyboard-response",291,349669,"0.0-3.93-1.93","7a9uocgpopmt0qe",742,"48.csv","","null","resources/maskTrios/L2BB.jpg","null","",NA,NA,NA,NA,""
"image-keyboard-response",292,350872,"0.0-3.93-2.93","7a9uocgpopmt0qe",742,"48.csv","","null","resources/images/fishbone.png","null","",NA,NA,NA,NA,""
"image-keyboard-response",293,351198,"0.0-3.94-0.94","7a9uocgpopmt0qe",742,"48.csv","","323.80000001192093","resources/trios/L2T2A3.jpg","37","restless",0.5,0.3,0.7,0.320423660934969,"true"
"image-keyboard-response",294,351602,"0.0-3.94-1.94","7a9uocgpopmt0qe",742,"48.csv","","null","resources/maskTrios/L2BB.jpg","null","",NA,NA,NA,NA,""
"image-keyboard-response",295,352808,"0.0-3.94-2.94","7a9uocgpopmt0qe",742,"48.csv","","null","resources/images/coin2.png","null","",NA,NA,NA,NA,""
"image-keyboard-response",296,353426,"0.0-3.95-0.95","7a9uocgpopmt0qe",742,"48.csv","","616.5","resources/trios/L1T4A3.jpg","37","restless",0.5,0.3,0.7,0.016013030282676,"true"
"image-keyboard-response",297,353830,"0.0-3.95-1.95","7a9uocgpopmt0qe",742,"48.csv","","null","resources/maskTrios/L1BB.jpg","null","",NA,NA,NA,NA,""
"image-keyboard-response",298,355035,"0.0-3.95-2.95","7a9uocgpopmt0qe",742,"48.csv","","null","resources/images/coin2.png","null","",NA,NA,NA,NA,""
"image-keyboard-response",299,355445,"0.0-3.96-0.96","7a9uocgpopmt0qe",742,"48.csv","","408","resources/trios/L1T2A1.jpg","37","restless",0.5,0.3,0.8,0.136175156190412,"true"
"image-keyboard-response",300,355850,"0.0-3.96-1.96","7a9uocgpopmt0qe",742,"48.csv","","null","resources/maskTrios/L1BB.jpg","null","",NA,NA,NA,NA,""
"image-keyboard-response",301,357055,"0.0-3.96-2.96","7a9uocgpopmt0qe",742,"48.csv","","null","resources/images/coin2.png","null","",NA,NA,NA,NA,""
"image-keyboard-response",302,357693,"0.0-3.97-0.97","7a9uocgpopmt0qe",742,"48.csv","","636.4000000357628","resources/trios/L2T2A3.jpg","37","restless",0.5,0.3,0.8,0.901268639407037,"false"
"image-keyboard-response",303,358098,"0.0-3.97-1.97","7a9uocgpopmt0qe",742,"48.csv","","null","resources/maskTrios/L2BB.jpg","null","",NA,NA,NA,NA,""
"image-keyboard-response",304,359301,"0.0-3.97-2.97","7a9uocgpopmt0qe",742,"48.csv","","null","resources/images/fishbone.png","null","",NA,NA,NA,NA,""
"image-keyboard-response",305,360215,"0.0-3.98-0.98","7a9uocgpopmt0qe",742,"48.csv","","912.1000000238419","resources/trios/L2T2A3.jpg","37","restless",0.5,0.3,0.8,0.257662074293168,"true"
"image-keyboard-response",306,360622,"0.0-3.98-1.98","7a9uocgpopmt0qe",742,"48.csv","","null","resources/maskTrios/L2BB.jpg","null","",NA,NA,NA,NA,""
"image-keyboard-response",307,361828,"0.0-3.98-2.98","7a9uocgpopmt0qe",742,"48.csv","","null","resources/images/coin2.png","null","",NA,NA,NA,NA,""
"image-keyboard-response",308,362556,"0.0-3.99-0.99","7a9uocgpopmt0qe",742,"48.csv","","726.4000000357628","resources/trios/L1T4A1.jpg","37","restless",0.4,0.3,0.8,0.524373131947601,"false"
"image-keyboard-response",309,362958,"0.0-3.99-1.99","7a9uocgpopmt0qe",742,"48.csv","","null","resources/maskTrios/L1BB.jpg","null","",NA,NA,NA,NA,""
"image-keyboard-response",310,364164,"0.0-3.99-2.99","7a9uocgpopmt0qe",742,"48.csv","","null","resources/images/fishbone.png","null","",NA,NA,NA,NA,""
"image-keyboard-response",311,365452,"0.0-3.100-0.100","7a9uocgpopmt0qe",742,"48.csv","","1285.4000000357628","resources/trios/L1T2A3.jpg","37","restless",0.4,0.3,0.8,0.613398205286728,"false"
"image-keyboard-response",312,365856,"0.0-3.100-1.100","7a9uocgpopmt0qe",742,"48.csv","","null","resources/maskTrios/L1BB.jpg","null","",NA,NA,NA,NA,""
"image-keyboard-response",313,367062,"0.0-3.100-2.100","7a9uocgpopmt0qe",742,"48.csv","","null","resources/images/fishbone.png","null","",NA,NA,NA,NA,""
"image-keyboard-response",314,367394,"0.0-3.101-0.101","7a9uocgpopmt0qe",742,"48.csv","","329.80000001192093","resources/trios/L1T4A3.jpg","38","restless",0.4,0.2,0.8,0.319128931922841,"false"
"image-keyboard-response",315,367800,"0.0-3.101-1.101","7a9uocgpopmt0qe",742,"48.csv","","null","resources/maskTrios/BT4B.jpg","null","",NA,NA,NA,NA,""
"image-keyboard-response",316,369003,"0.0-3.101-2.101","7a9uocgpopmt0qe",742,"48.csv","","null","resources/images/fishbone.png","null","",NA,NA,NA,NA,""
"image-keyboard-response",317,369357,"0.0-3.102-0.102","7a9uocgpopmt0qe",742,"48.csv","","351.69999998807907","resources/trios/L2T2A1.jpg","37","restless",0.4,0.2,0.8,0.0756696460395003,"true"
"image-keyboard-response",318,369758,"0.0-3.102-1.102","7a9uocgpopmt0qe",742,"48.csv","","null","resources/maskTrios/L2BB.jpg","null","",NA,NA,NA,NA,""
"image-keyboard-response",319,370965,"0.0-3.102-2.102","7a9uocgpopmt0qe",742,"48.csv","","null","resources/images/coin2.png","null","",NA,NA,NA,NA,""
"image-keyboard-response",320,371564,"0.0-3.103-0.103","7a9uocgpopmt0qe",742,"48.csv","","598","resources/trios/L1T4A1.jpg","37","restless",0.4,0.2,0.8,0.966901254575163,"false"
"image-keyboard-response",321,371971,"0.0-3.103-1.103","7a9uocgpopmt0qe",742,"48.csv","","null","resources/maskTrios/L1BB.jpg","null","",NA,NA,NA,NA,""
"image-keyboard-response",322,373177,"0.0-3.103-2.103","7a9uocgpopmt0qe",742,"48.csv","","null","resources/images/fishbone.png","null","",NA,NA,NA,NA,""
"image-keyboard-response",323,375022,"0.0-3.104-0.104","7a9uocgpopmt0qe",742,"48.csv","","1843.199999988079","resources/trios/L1T2A1.jpg","38","restless",0.4,0.2,0.9,0.283188884297589,"false"
"image-keyboard-response",324,375429,"0.0-3.104-1.104","7a9uocgpopmt0qe",742,"48.csv","","null","resources/maskTrios/BT2B.jpg","null","",NA,NA,NA,NA,""
"image-keyboard-response",325,376631,"0.0-3.104-2.104","7a9uocgpopmt0qe",742,"48.csv","","null","resources/images/fishbone.png","null","",NA,NA,NA,NA,""
"image-keyboard-response",326,376949,"0.0-3.105-0.105","7a9uocgpopmt0qe",742,"48.csv","","317.30000001192093","resources/trios/L1T2A3.jpg","38","restless",0.5,0.2,0.9,0.235631644023031,"false"
"image-keyboard-response",327,377356,"0.0-3.105-1.105","7a9uocgpopmt0qe",742,"48.csv","","null","resources/maskTrios/BT2B.jpg","null","",NA,NA,NA,NA,""
"image-keyboard-response",328,378558,"0.0-3.105-2.105","7a9uocgpopmt0qe",742,"48.csv","","null","resources/images/fishbone.png","null","",NA,NA,NA,NA,""
"image-keyboard-response",329,378827,"0.0-3.106-0.106","7a9uocgpopmt0qe",742,"48.csv","","267","resources/trios/L2T2A3.jpg","38","restless",0.4,0.1,0.9,0.518630406265101,"false"
"image-keyboard-response",330,379231,"0.0-3.106-1.106","7a9uocgpopmt0qe",742,"48.csv","","null","resources/maskTrios/BT2B.jpg","null","",NA,NA,NA,NA,""
"image-keyboard-response",331,380435,"0.0-3.106-2.106","7a9uocgpopmt0qe",742,"48.csv","","null","resources/images/fishbone.png","null","",NA,NA,NA,NA,""
"image-keyboard-response",332,380722,"0.0-3.107-0.107","7a9uocgpopmt0qe",742,"48.csv","","284.9000000357628","resources/trios/L1T4A3.jpg","37","restless",0.4,0.1,0.8,0.129029268219173,"true"
"image-keyboard-response",333,381127,"0.0-3.107-1.107","7a9uocgpopmt0qe",742,"48.csv","","null","resources/maskTrios/L1BB.jpg","null","",NA,NA,NA,NA,""
"image-keyboard-response",334,382332,"0.0-3.107-2.107","7a9uocgpopmt0qe",742,"48.csv","","null","resources/images/coin2.png","null","",NA,NA,NA,NA,""
"image-keyboard-response",335,382617,"0.0-3.108-0.108","7a9uocgpopmt0qe",742,"48.csv","","282.60000002384186","resources/trios/L2T4A1.jpg","37","restless",0.4,0.1,0.7,0.298278994786046,"true"
"image-keyboard-response",336,383023,"0.0-3.108-1.108","7a9uocgpopmt0qe",742,"48.csv","","null","resources/maskTrios/L2BB.jpg","null","",NA,NA,NA,NA,""
"image-keyboard-response",337,384227,"0.0-3.108-2.108","7a9uocgpopmt0qe",742,"48.csv","","null","resources/images/coin2.png","null","",NA,NA,NA,NA,""
"image-keyboard-response",338,384576,"0.0-3.109-0.109","7a9uocgpopmt0qe",742,"48.csv","","347.2999999523163","resources/trios/L1T2A1.jpg","37","restless",0.4,0.1,0.6,0.160603209008347,"true"
"image-keyboard-response",339,384979,"0.0-3.109-1.109","7a9uocgpopmt0qe",742,"48.csv","","null","resources/maskTrios/L1BB.jpg","null","",NA,NA,NA,NA,""
"image-keyboard-response",340,386181,"0.0-3.109-2.109","7a9uocgpopmt0qe",742,"48.csv","","null","resources/images/coin2.png","null","",NA,NA,NA,NA,""
"image-keyboard-response",341,386888,"0.0-3.110-0.110","7a9uocgpopmt0qe",742,"48.csv","","705.3999999761581","resources/trios/L2T2A1.jpg","38","restless",0.4,0.2,0.6,0.20664378376601,"false"
"image-keyboard-response",342,387295,"0.0-3.110-1.110","7a9uocgpopmt0qe",742,"48.csv","","null","resources/maskTrios/BT2B.jpg","null","",NA,NA,NA,NA,""
"image-keyboard-response",343,388498,"0.0-3.110-2.110","7a9uocgpopmt0qe",742,"48.csv","","null","resources/images/fishbone.png","null","",NA,NA,NA,NA,""
"image-keyboard-response",344,388849,"0.0-3.111-0.111","7a9uocgpopmt0qe",742,"48.csv","","349.89999997615814","resources/trios/L2T4A1.jpg","37","restless",0.4,0.3,0.6,0.510199578907391,"false"
"image-keyboard-response",345,389252,"0.0-3.111-1.111","7a9uocgpopmt0qe",742,"48.csv","","null","resources/maskTrios/L2BB.jpg","null","",NA,NA,NA,NA,""
"image-keyboard-response",346,390455,"0.0-3.111-2.111","7a9uocgpopmt0qe",742,"48.csv","","null","resources/images/fishbone.png","null","",NA,NA,NA,NA,""
"image-keyboard-response",347,390486,"0.0-3.112-0.112","7a9uocgpopmt0qe",742,"48.csv","","29.69999998807907","resources/trios/L1T4A1.jpg","37","restless",0.4,0.2,0.6,0.441840002614891,"false"
"image-keyboard-response",348,390892,"0.0-3.112-1.112","7a9uocgpopmt0qe",742,"48.csv","","null","resources/maskTrios/L1BB.jpg","null","",NA,NA,NA,NA,""
"image-keyboard-response",349,392097,"0.0-3.112-2.112","7a9uocgpopmt0qe",742,"48.csv","","null","resources/images/fishbone.png","null","",NA,NA,NA,NA,""
"image-keyboard-response",350,392354,"0.0-3.113-0.113","7a9uocgpopmt0qe",742,"48.csv","","255.30000001192093","resources/trios/L2T2A1.jpg","37","restless",0.4,0.2,0.6,0.178774581111765,"true"
"image-keyboard-response",351,392758,"0.0-3.113-1.113","7a9uocgpopmt0qe",742,"48.csv","","null","resources/maskTrios/L2BB.jpg","null","",NA,NA,NA,NA,""
"image-keyboard-response",352,393962,"0.0-3.113-2.113","7a9uocgpopmt0qe",742,"48.csv","","null","resources/images/coin2.png","null","",NA,NA,NA,NA,""
"image-keyboard-response",353,394280,"0.0-3.114-0.114","7a9uocgpopmt0qe",742,"48.csv","","316","resources/trios/L2T4A1.jpg","37","restless",0.4,0.2,0.6,0.261523910209967,"true"
"image-keyboard-response",354,394682,"0.0-3.114-1.114","7a9uocgpopmt0qe",742,"48.csv","","null","resources/maskTrios/L2BB.jpg","null","",NA,NA,NA,NA,""
"image-keyboard-response",355,395889,"0.0-3.114-2.114","7a9uocgpopmt0qe",742,"48.csv","","null","resources/images/coin2.png","null","",NA,NA,NA,NA,""
"image-keyboard-response",356,396272,"0.0-3.115-0.115","7a9uocgpopmt0qe",742,"48.csv","","381.69999998807907","resources/trios/L1T4A3.jpg","37","restless",0.4,0.2,0.6,0.338750400345415,"true"
"image-keyboard-response",357,396679,"0.0-3.115-1.115","7a9uocgpopmt0qe",742,"48.csv","","null","resources/maskTrios/L1BB.jpg","null","",NA,NA,NA,NA,""
"image-keyboard-response",358,397882,"0.0-3.115-2.115","7a9uocgpopmt0qe",742,"48.csv","","null","resources/images/coin2.png","null","",NA,NA,NA,NA,""
"image-keyboard-response",359,398125,"0.0-3.116-0.116","7a9uocgpopmt0qe",742,"48.csv","","241","resources/trios/L1T4A1.jpg","37","restless",0.4,0.2,0.6,0.0194917766814795,"true"
"image-keyboard-response",360,398531,"0.0-3.116-1.116","7a9uocgpopmt0qe",742,"48.csv","","null","resources/maskTrios/L1BB.jpg","null","",NA,NA,NA,NA,""
"image-keyboard-response",361,399736,"0.0-3.116-2.116","7a9uocgpopmt0qe",742,"48.csv","","null","resources/images/coin2.png","null","",NA,NA,NA,NA,""
"image-keyboard-response",362,400036,"0.0-3.117-0.117","7a9uocgpopmt0qe",742,"48.csv","","298","resources/trios/L1T4A1.jpg","37","restless",0.4,0.2,0.6,0.391427995053156,"true"
"image-keyboard-response",363,400442,"0.0-3.117-1.117","7a9uocgpopmt0qe",742,"48.csv","","null","resources/maskTrios/L1BB.jpg","null","",NA,NA,NA,NA,""
"image-keyboard-response",364,401646,"0.0-3.117-2.117","7a9uocgpopmt0qe",742,"48.csv","","null","resources/images/coin2.png","null","",NA,NA,NA,NA,""
"image-keyboard-response",365,401947,"0.0-3.118-0.118","7a9uocgpopmt0qe",742,"48.csv","","300","resources/trios/L1T2A3.jpg","37","restless",0.4,0.2,0.6,0.230443163493898,"true"
"image-keyboard-response",366,402350,"0.0-3.118-1.118","7a9uocgpopmt0qe",742,"48.csv","","null","resources/maskTrios/L1BB.jpg","null","",NA,NA,NA,NA,""
"image-keyboard-response",367,403556,"0.0-3.118-2.118","7a9uocgpopmt0qe",742,"48.csv","","null","resources/images/coin2.png","null","",NA,NA,NA,NA,""
"image-keyboard-response",368,404622,"0.0-3.119-0.119","7a9uocgpopmt0qe",742,"48.csv","","1064.1000000238419","resources/trios/L2T4A3.jpg","38","restless",0.4,0.2,0.6,0.757630724040741,"false"
"image-keyboard-response",369,405025,"0.0-3.119-1.119","7a9uocgpopmt0qe",742,"48.csv","","null","resources/maskTrios/BT4B.jpg","null","",NA,NA,NA,NA,""
"image-keyboard-response",370,406227,"0.0-3.119-2.119","7a9uocgpopmt0qe",742,"48.csv","","null","resources/images/fishbone.png","null","",NA,NA,NA,NA,""
"image-keyboard-response",371,407346,"0.0-3.120-0.120","7a9uocgpopmt0qe",742,"48.csv","","1117.699999988079","resources/trios/L2T4A1.jpg","37","restless",0.4,0.2,0.6,0.946174723536546,"false"
"image-keyboard-response",372,407753,"0.0-3.120-1.120","7a9uocgpopmt0qe",742,"48.csv","","null","resources/maskTrios/L2BB.jpg","null","",NA,NA,NA,NA,""
"image-keyboard-response",373,408959,"0.0-3.120-2.120","7a9uocgpopmt0qe",742,"48.csv","","null","resources/images/fishbone.png","null","",NA,NA,NA,NA,""
"image-keyboard-response",374,409421,"0.0-3.121-0.121","7a9uocgpopmt0qe",742,"48.csv","","459.89999997615814","resources/trios/L2T4A1.jpg","37","restless",0.4,0.2,0.7,0.0296000314112075,"true"
"image-keyboard-response",375,409827,"0.0-3.121-1.121","7a9uocgpopmt0qe",742,"48.csv","","null","resources/maskTrios/L2BB.jpg","null","",NA,NA,NA,NA,""
"image-keyboard-response",376,411033,"0.0-3.121-2.121","7a9uocgpopmt0qe",742,"48.csv","","null","resources/images/coin2.png","null","",NA,NA,NA,NA,""
"image-keyboard-response",377,412362,"0.0-3.122-0.122","7a9uocgpopmt0qe",742,"48.csv","","1326.8999999761581","resources/trios/L1T4A3.jpg","37","restless",0.4,0.2,0.7,0.713172906651439,"false"
"image-keyboard-response",378,412765,"0.0-3.122-1.122","7a9uocgpopmt0qe",742,"48.csv","","null","resources/maskTrios/L1BB.jpg","null","",NA,NA,NA,NA,""
"image-keyboard-response",379,413972,"0.0-3.122-2.122","7a9uocgpopmt0qe",742,"48.csv","","null","resources/images/fishbone.png","null","",NA,NA,NA,NA,""
"image-keyboard-response",380,415380,"0.0-3.123-0.123","7a9uocgpopmt0qe",742,"48.csv","","1406.5","resources/trios/L1T4A1.jpg","38","restless",0.4,0.3,0.7,0.637521909437796,"false"
"image-keyboard-response",381,415785,"0.0-3.123-1.123","7a9uocgpopmt0qe",742,"48.csv","","null","resources/maskTrios/BT4B.jpg","null","",NA,NA,NA,NA,""
"image-keyboard-response",382,416991,"0.0-3.123-2.123","7a9uocgpopmt0qe",742,"48.csv","","null","resources/images/fishbone.png","null","",NA,NA,NA,NA,""
"image-keyboard-response",383,417399,"0.0-3.124-0.124","7a9uocgpopmt0qe",742,"48.csv","","406.5","resources/trios/L2T4A3.jpg","38","restless",0.4,0.3,0.7,0.174226805197702,"true"
"image-keyboard-response",384,417806,"0.0-3.124-1.124","7a9uocgpopmt0qe",742,"48.csv","","null","resources/maskTrios/BT4B.jpg","null","",NA,NA,NA,NA,""
"image-keyboard-response",385,419012,"0.0-3.124-2.124","7a9uocgpopmt0qe",742,"48.csv","","null","resources/images/coin2.png","null","",NA,NA,NA,NA,""
"image-keyboard-response",386,419575,"0.0-3.125-0.125","7a9uocgpopmt0qe",742,"48.csv","","561.6000000238419","resources/trios/L1T2A3.jpg","38","restless",0.4,0.3,0.7,0.846758833555985,"false"
"image-keyboard-response",387,419981,"0.0-3.125-1.125","7a9uocgpopmt0qe",742,"48.csv","","null","resources/maskTrios/BT2B.jpg","null","",NA,NA,NA,NA,""
"image-keyboard-response",388,421182,"0.0-3.125-2.125","7a9uocgpopmt0qe",742,"48.csv","","null","resources/images/fishbone.png","null","",NA,NA,NA,NA,""
"image-keyboard-response",389,421485,"0.0-3.126-0.126","7a9uocgpopmt0qe",742,"48.csv","","301.4000000357628","resources/trios/L1T4A1.jpg","38","restless",0.4,0.3,0.7,0.725492241389693,"false"
"image-keyboard-response",390,421892,"0.0-3.126-1.126","7a9uocgpopmt0qe",742,"48.csv","","null","resources/maskTrios/BT4B.jpg","null","",NA,NA,NA,NA,""
"image-keyboard-response",391,423093,"0.0-3.126-2.126","7a9uocgpopmt0qe",742,"48.csv","","null","resources/images/fishbone.png","null","",NA,NA,NA,NA,""
"image-keyboard-response",392,424506,"0.0-3.127-0.127","7a9uocgpopmt0qe",742,"48.csv","","1410.699999988079","resources/trios/L2T4A1.jpg","37","restless",0.3,0.3,0.7,0.00904635495895767,"true"
"image-keyboard-response",393,424911,"0.0-3.127-1.127","7a9uocgpopmt0qe",742,"48.csv","","null","resources/maskTrios/L2BB.jpg","null","",NA,NA,NA,NA,""
"image-keyboard-response",394,426118,"0.0-3.127-2.127","7a9uocgpopmt0qe",742,"48.csv","","null","resources/images/coin2.png","null","",NA,NA,NA,NA,""
"image-keyboard-response",395,426578,"0.0-3.128-0.128","7a9uocgpopmt0qe",742,"48.csv","","458.5","resources/trios/L2T2A1.jpg","37","restless",0.3,0.3,0.7,0.212506722646438,"true"
"image-keyboard-response",396,426983,"0.0-3.128-1.128","7a9uocgpopmt0qe",742,"48.csv","","null","resources/maskTrios/L2BB.jpg","null","",NA,NA,NA,NA,""
"image-keyboard-response",397,428190,"0.0-3.128-2.128","7a9uocgpopmt0qe",742,"48.csv","","null","resources/images/coin2.png","null","",NA,NA,NA,NA,""
"image-keyboard-response",398,429040,"0.0-3.129-0.129","7a9uocgpopmt0qe",742,"48.csv","","848.5","resources/trios/L2T2A1.jpg","37","restless",0.3,0.3,0.6,0.635447882483164,"false"
"image-keyboard-response",399,429446,"0.0-3.129-1.129","7a9uocgpopmt0qe",742,"48.csv","","null","resources/maskTrios/L2BB.jpg","null","",NA,NA,NA,NA,""
"image-keyboard-response",400,430653,"0.0-3.129-2.129","7a9uocgpopmt0qe",742,"48.csv","","null","resources/images/fishbone.png","null","",NA,NA,NA,NA,""
"image-keyboard-response",401,430956,"0.0-3.130-0.130","7a9uocgpopmt0qe",742,"48.csv","","301.9000000357628","resources/trios/L2T4A1.jpg","37","restless",0.3,0.3,0.6,0.497765317721519,"false"
"image-keyboard-response",402,431359,"0.0-3.130-1.130","7a9uocgpopmt0qe",742,"48.csv","","null","resources/maskTrios/L2BB.jpg","null","",NA,NA,NA,NA,""
"image-keyboard-response",403,432565,"0.0-3.130-2.130","7a9uocgpopmt0qe",742,"48.csv","","null","resources/images/fishbone.png","null","",NA,NA,NA,NA,""
"image-keyboard-response",404,433414,"0.0-3.131-0.131","7a9uocgpopmt0qe",742,"48.csv","","847.3000000119209","resources/trios/L1T2A1.jpg","38","restless",0.3,0.3,0.6,0.307248605509687,"false"
"image-keyboard-response",405,433821,"0.0-3.131-1.131","7a9uocgpopmt0qe",742,"48.csv","","null","resources/maskTrios/BT2B.jpg","null","",NA,NA,NA,NA,""
"image-keyboard-response",406,435025,"0.0-3.131-2.131","7a9uocgpopmt0qe",742,"48.csv","","null","resources/images/fishbone.png","null","",NA,NA,NA,NA,""
"image-keyboard-response",407,435712,"0.0-3.132-0.132","7a9uocgpopmt0qe",742,"48.csv","","685.6999999880791","resources/trios/L1T2A1.jpg","38","restless",0.3,0.3,0.6,0.876833980505978,"false"
"image-keyboard-response",408,436119,"0.0-3.132-1.132","7a9uocgpopmt0qe",742,"48.csv","","null","resources/maskTrios/BT2B.jpg","null","",NA,NA,NA,NA,""
"image-keyboard-response",409,437325,"0.0-3.132-2.132","7a9uocgpopmt0qe",742,"48.csv","","null","resources/images/fishbone.png","null","",NA,NA,NA,NA,""
"image-keyboard-response",410,437737,"0.0-3.133-0.133","7a9uocgpopmt0qe",742,"48.csv","","410.19999998807907","resources/trios/L1T2A3.jpg","37","restless",0.4,0.3,0.6,0.184862108752153,"true"
"image-keyboard-response",411,438140,"0.0-3.133-1.133","7a9uocgpopmt0qe",742,"48.csv","","null","resources/maskTrios/L1BB.jpg","null","",NA,NA,NA,NA,""
"image-keyboard-response",412,439347,"0.0-3.133-2.133","7a9uocgpopmt0qe",742,"48.csv","","null","resources/images/coin2.png","null","",NA,NA,NA,NA,""
"image-keyboard-response",413,439779,"0.0-3.134-0.134","7a9uocgpopmt0qe",742,"48.csv","","430","resources/trios/L1T4A3.jpg","37","restless",0.4,0.3,0.6,0.998233855777589,"false"
"image-keyboard-response",414,440181,"0.0-3.134-1.134","7a9uocgpopmt0qe",742,"48.csv","","null","resources/maskTrios/L1BB.jpg","null","",NA,NA,NA,NA,""
"image-keyboard-response",415,441387,"0.0-3.134-2.134","7a9uocgpopmt0qe",742,"48.csv","","null","resources/images/fishbone.png","null","",NA,NA,NA,NA,""
"image-keyboard-response",416,444166,"0.0-3.135-0.135","7a9uocgpopmt0qe",742,"48.csv","","2776.599999964237","resources/trios/L1T4A3.jpg","38","restless",0.5,0.3,0.6,0.683782230998194,"false"
"image-keyboard-response",417,444572,"0.0-3.135-1.135","7a9uocgpopmt0qe",742,"48.csv","","null","resources/maskTrios/BT4B.jpg","null","",NA,NA,NA,NA,""
"image-keyboard-response",418,445779,"0.0-3.135-2.135","7a9uocgpopmt0qe",742,"48.csv","","null","resources/images/fishbone.png","null","",NA,NA,NA,NA,""
"image-keyboard-response",419,446127,"0.0-3.136-0.136","7a9uocgpopmt0qe",742,"48.csv","","346.5","resources/trios/L2T2A1.jpg","38","restless",0.5,0.3,0.5,0.862478475757718,"false"
"image-keyboard-response",420,446533,"0.0-3.136-1.136","7a9uocgpopmt0qe",742,"48.csv","","null","resources/maskTrios/BT2B.jpg","null","",NA,NA,NA,NA,""
"image-keyboard-response",421,447738,"0.0-3.136-2.136","7a9uocgpopmt0qe",742,"48.csv","","null","resources/images/fishbone.png","null","",NA,NA,NA,NA,""
"image-keyboard-response",422,451087,"0.0-3.137-0.137","7a9uocgpopmt0qe",742,"48.csv","","3347.100000023842","resources/trios/L2T4A3.jpg","38","restless",0.5,0.3,0.5,0.994565835940894,"false"
"image-keyboard-response",423,451492,"0.0-3.137-1.137","7a9uocgpopmt0qe",742,"48.csv","","null","resources/maskTrios/BT4B.jpg","null","",NA,NA,NA,NA,""
"image-keyboard-response",424,452699,"0.0-3.137-2.137","7a9uocgpopmt0qe",742,"48.csv","","null","resources/images/fishbone.png","null","",NA,NA,NA,NA,""
"image-keyboard-response",425,453651,"0.0-3.138-0.138","7a9uocgpopmt0qe",742,"48.csv","","950.3999999761581","resources/trios/L2T4A1.jpg","37","restless",0.5,0.3,0.5,0.258405489569045,"true"
"image-keyboard-response",426,454055,"0.0-3.138-1.138","7a9uocgpopmt0qe",742,"48.csv","","null","resources/maskTrios/L2BB.jpg","null","",NA,NA,NA,NA,""
"image-keyboard-response",427,455258,"0.0-3.138-2.138","7a9uocgpopmt0qe",742,"48.csv","","null","resources/images/coin2.png","null","",NA,NA,NA,NA,""
"image-keyboard-response",428,455831,"0.0-3.139-0.139","7a9uocgpopmt0qe",742,"48.csv","","571.1999999880791","resources/trios/L2T4A3.jpg","37","restless",0.5,0.3,0.5,0.411159629108192,"true"
"image-keyboard-response",429,456233,"0.0-3.139-1.139","7a9uocgpopmt0qe",742,"48.csv","","null","resources/maskTrios/L2BB.jpg","null","",NA,NA,NA,NA,""
"image-keyboard-response",430,457440,"0.0-3.139-2.139","7a9uocgpopmt0qe",742,"48.csv","","null","resources/images/coin2.png","null","",NA,NA,NA,NA,""
"image-keyboard-response",431,459863,"0.0-3.140-0.140","7a9uocgpopmt0qe",742,"48.csv","","2421.399999976158","resources/trios/L2T2A3.jpg","38","restless",0.6,0.3,0.5,0.92769946001277,"false"
"image-keyboard-response",432,460269,"0.0-3.140-1.140","7a9uocgpopmt0qe",742,"48.csv","","null","resources/maskTrios/BT2B.jpg","null","",NA,NA,NA,NA,""
"image-keyboard-response",433,461471,"0.0-3.140-2.140","7a9uocgpopmt0qe",742,"48.csv","","null","resources/images/fishbone.png","null","",NA,NA,NA,NA,""
"image-keyboard-response",434,463028,"0.0-3.141-0.141","7a9uocgpopmt0qe",742,"48.csv","","1554.8999999761581","resources/trios/L1T2A3.jpg","38","restless",0.7,0.3,0.5,0.382549235120992,"false"
"image-keyboard-response",435,463433,"0.0-3.141-1.141","7a9uocgpopmt0qe",742,"48.csv","","null","resources/maskTrios/BT2B.jpg","null","",NA,NA,NA,NA,""
"image-keyboard-response",436,464638,"0.0-3.141-2.141","7a9uocgpopmt0qe",742,"48.csv","","null","resources/images/fishbone.png","null","",NA,NA,NA,NA,""
"image-keyboard-response",437,465203,"0.0-3.142-0.142","7a9uocgpopmt0qe",742,"48.csv","","563.3000000119209","resources/trios/L2T2A1.jpg","38","restless",0.7,0.4,0.4,0.846761592250348,"false"
"image-keyboard-response",438,465609,"0.0-3.142-1.142","7a9uocgpopmt0qe",742,"48.csv","","null","resources/maskTrios/BT2B.jpg","null","",NA,NA,NA,NA,""
"image-keyboard-response",439,466814,"0.0-3.142-2.142","7a9uocgpopmt0qe",742,"48.csv","","null","resources/images/fishbone.png","null","",NA,NA,NA,NA,""
"image-keyboard-response",440,468277,"0.0-3.143-0.143","7a9uocgpopmt0qe",742,"48.csv","","1461.199999988079","resources/trios/L2T4A3.jpg","38","restless",0.7,0.4,0.4,0.727501234579007,"false"
"image-keyboard-response",441,468683,"0.0-3.143-1.143","7a9uocgpopmt0qe",742,"48.csv","","null","resources/maskTrios/BT4B.jpg","null","",NA,NA,NA,NA,""
"image-keyboard-response",442,469888,"0.0-3.143-2.143","7a9uocgpopmt0qe",742,"48.csv","","null","resources/images/fishbone.png","null","",NA,NA,NA,NA,""
"image-keyboard-response",443,470973,"0.0-3.144-0.144","7a9uocgpopmt0qe",742,"48.csv","","1082.7000000476837","resources/trios/L1T4A3.jpg","38","restless",0.6,0.4,0.3,0.120237107636575,"true"
"image-keyboard-response",444,471375,"0.0-3.144-1.144","7a9uocgpopmt0qe",742,"48.csv","","null","resources/maskTrios/BT4B.jpg","null","",NA,NA,NA,NA,""
"image-keyboard-response",445,472582,"0.0-3.144-2.144","7a9uocgpopmt0qe",742,"48.csv","","null","resources/images/coin2.png","null","",NA,NA,NA,NA,""
"image-keyboard-response",446,473849,"0.0-3.145-0.145","7a9uocgpopmt0qe",742,"48.csv","","1265.5","resources/trios/L2T4A3.jpg","37","restless",0.6,0.4,0.3,0.823682796144157,"false"
"image-keyboard-response",447,474254,"0.0-3.145-1.145","7a9uocgpopmt0qe",742,"48.csv","","null","resources/maskTrios/L2BB.jpg","null","",NA,NA,NA,NA,""
"image-keyboard-response",448,475457,"0.0-3.145-2.145","7a9uocgpopmt0qe",742,"48.csv","","null","resources/images/fishbone.png","null","",NA,NA,NA,NA,""
"image-keyboard-response",449,476195,"0.0-3.146-0.146","7a9uocgpopmt0qe",742,"48.csv","","736.4000000357628","resources/trios/L2T4A1.jpg","38","restless",0.6,0.4,0.3,0.0208713110193952,"true"
"image-keyboard-response",450,476598,"0.0-3.146-1.146","7a9uocgpopmt0qe",742,"48.csv","","null","resources/maskTrios/BT4B.jpg","null","",NA,NA,NA,NA,""
"image-keyboard-response",451,477804,"0.0-3.146-2.146","7a9uocgpopmt0qe",742,"48.csv","","null","resources/images/coin2.png","null","",NA,NA,NA,NA,""
"image-keyboard-response",452,479570,"0.0-3.147-0.147","7a9uocgpopmt0qe",742,"48.csv","","1764","resources/trios/L1T4A3.jpg","38","restless",0.6,0.4,0.2,0.161670857628286,"true"
"image-keyboard-response",453,479977,"0.0-3.147-1.147","7a9uocgpopmt0qe",742,"48.csv","","null","resources/maskTrios/BT4B.jpg","null","",NA,NA,NA,NA,""
"image-keyboard-response",454,481182,"0.0-3.147-2.147","7a9uocgpopmt0qe",742,"48.csv","","null","resources/images/coin2.png","null","",NA,NA,NA,NA,""
"image-keyboard-response",455,481695,"0.0-3.148-0.148","7a9uocgpopmt0qe",742,"48.csv","","512","resources/trios/L2T4A1.jpg","38","restless",0.6,0.4,0.2,0.371423769743793,"true"
"image-keyboard-response",456,482098,"0.0-3.148-1.148","7a9uocgpopmt0qe",742,"48.csv","","null","resources/maskTrios/BT4B.jpg","null","",NA,NA,NA,NA,""
"image-keyboard-response",457,483305,"0.0-3.148-2.148","7a9uocgpopmt0qe",742,"48.csv","","null","resources/images/coin2.png","null","",NA,NA,NA,NA,""
"image-keyboard-response",458,484475,"0.0-3.149-0.149","7a9uocgpopmt0qe",742,"48.csv","","1168.1000000238419","resources/trios/L1T4A1.jpg","38","restless",0.6,0.4,0.2,0.575626462096302,"false"
"image-keyboard-response",459,484881,"0.0-3.149-1.149","7a9uocgpopmt0qe",742,"48.csv","","null","resources/maskTrios/BT4B.jpg","null","",NA,NA,NA,NA,""
"image-keyboard-response",460,486087,"0.0-3.149-2.149","7a9uocgpopmt0qe",742,"48.csv","","null","resources/images/fishbone.png","null","",NA,NA,NA,NA,""
"image-keyboard-response",461,486525,"0.0-3.150-0.150","7a9uocgpopmt0qe",742,"48.csv","","435.7000000476837","resources/trios/L2T2A1.jpg","37","restless",0.6,0.4,0.2,0.89973590296332,"false"
"image-keyboard-response",462,486931,"0.0-3.150-1.150","7a9uocgpopmt0qe",742,"48.csv","","null","resources/maskTrios/L2BB.jpg","null","",NA,NA,NA,NA,""
"image-keyboard-response",463,488138,"0.0-3.150-2.150","7a9uocgpopmt0qe",742,"48.csv","","null","resources/images/fishbone.png","null","",NA,NA,NA,NA,""
"image-keyboard-response",464,488736,"0.0-3.151-0.151","7a9uocgpopmt0qe",742,"48.csv","","596.6000000238419","resources/trios/L1T4A3.jpg","38","restless",0.6,0.4,0.2,0.5765643287191,"false"
"image-keyboard-response",465,489142,"0.0-3.151-1.151","7a9uocgpopmt0qe",742,"48.csv","","null","resources/maskTrios/BT4B.jpg","null","",NA,NA,NA,NA,""
"image-keyboard-response",466,490348,"0.0-3.151-2.151","7a9uocgpopmt0qe",742,"48.csv","","null","resources/images/fishbone.png","null","",NA,NA,NA,NA,""
"image-keyboard-response",467,490660,"0.0-3.152-0.152","7a9uocgpopmt0qe",742,"48.csv","","310.80000001192093","resources/trios/L2T4A3.jpg","38","restless",0.6,0.4,0.2,0.304289471386928,"true"
"image-keyboard-response",468,491066,"0.0-3.152-1.152","7a9uocgpopmt0qe",742,"48.csv","","null","resources/maskTrios/BT4B.jpg","null","",NA,NA,NA,NA,""
"image-keyboard-response",469,492269,"0.0-3.152-2.152","7a9uocgpopmt0qe",742,"48.csv","","null","resources/images/coin2.png","null","",NA,NA,NA,NA,""
"image-keyboard-response",470,493350,"0.0-3.153-0.153","7a9uocgpopmt0qe",742,"48.csv","","1078.699999988079","resources/trios/L1T2A1.jpg","38","restless",0.6,0.4,0.2,0.994315815536029,"false"
"image-keyboard-response",471,493757,"0.0-3.153-1.153","7a9uocgpopmt0qe",742,"48.csv","","null","resources/maskTrios/BT2B.jpg","null","",NA,NA,NA,NA,""
"image-keyboard-response",472,494963,"0.0-3.153-2.153","7a9uocgpopmt0qe",742,"48.csv","","null","resources/images/fishbone.png","null","",NA,NA,NA,NA,""
"image-keyboard-response",473,495566,"0.0-3.154-0.154","7a9uocgpopmt0qe",742,"48.csv","","600.8000000119209","resources/trios/L2T2A3.jpg","38","restless",0.6,0.5,0.2,0.703545663808061,"false"
"image-keyboard-response",474,495971,"0.0-3.154-1.154","7a9uocgpopmt0qe",742,"48.csv","","null","resources/maskTrios/BT2B.jpg","null","",NA,NA,NA,NA,""
"image-keyboard-response",475,497174,"0.0-3.154-2.154","7a9uocgpopmt0qe",742,"48.csv","","null","resources/images/fishbone.png","null","",NA,NA,NA,NA,""
"image-keyboard-response",476,499014,"0.0-3.155-0.155","7a9uocgpopmt0qe",742,"48.csv","","1838.7999999523163","resources/trios/L2T2A1.jpg","37","restless",0.6,0.5,0.2,0.451486997982849,"true"
"image-keyboard-response",477,499418,"0.0-3.155-1.155","7a9uocgpopmt0qe",742,"48.csv","","null","resources/maskTrios/L2BB.jpg","null","",NA,NA,NA,NA,""
"image-keyboard-response",478,500625,"0.0-3.155-2.155","7a9uocgpopmt0qe",742,"48.csv","","null","resources/images/coin2.png","null","",NA,NA,NA,NA,""
"image-keyboard-response",479,502370,"0.0-3.156-0.156","7a9uocgpopmt0qe",742,"48.csv","","1742.6000000238419","resources/trios/L1T4A1.jpg","37","restless",0.6,0.6,0.3,0.77159867982764,"false"
"image-keyboard-response",480,502776,"0.0-3.156-1.156","7a9uocgpopmt0qe",742,"48.csv","","null","resources/maskTrios/L1BB.jpg","null","",NA,NA,NA,NA,""
"image-keyboard-response",481,503979,"0.0-3.156-2.156","7a9uocgpopmt0qe",742,"48.csv","","null","resources/images/fishbone.png","null","",NA,NA,NA,NA,""
"image-keyboard-response",482,505360,"0.0-3.157-0.157","7a9uocgpopmt0qe",742,"48.csv","","1379.199999988079","resources/trios/L2T4A3.jpg","37","restless",0.6,0.6,0.3,0.865555377237084,"false"
"image-keyboard-response",483,505763,"0.0-3.157-1.157","7a9uocgpopmt0qe",742,"48.csv","","null","resources/maskTrios/L2BB.jpg","null","",NA,NA,NA,NA,""
"image-keyboard-response",484,506968,"0.0-3.157-2.157","7a9uocgpopmt0qe",742,"48.csv","","null","resources/images/fishbone.png","null","",NA,NA,NA,NA,""
"image-keyboard-response",485,508827,"0.0-3.158-0.158","7a9uocgpopmt0qe",742,"48.csv","","1857.699999988079","resources/trios/L1T2A1.jpg","37","restless",0.6,0.6,0.3,0.964353209465419,"false"
"image-keyboard-response",486,509230,"0.0-3.158-1.158","7a9uocgpopmt0qe",742,"48.csv","","null","resources/maskTrios/L1BB.jpg","null","",NA,NA,NA,NA,""
"image-keyboard-response",487,510436,"0.0-3.158-2.158","7a9uocgpopmt0qe",742,"48.csv","","null","resources/images/fishbone.png","null","",NA,NA,NA,NA,""
"image-keyboard-response",488,511063,"0.0-3.159-0.159","7a9uocgpopmt0qe",742,"48.csv","","625.3999999761581","resources/trios/L1T4A3.jpg","38","restless",0.6,0.6,0.3,0.510041491426331,"true"
"image-keyboard-response",489,511465,"0.0-3.159-1.159","7a9uocgpopmt0qe",742,"48.csv","","null","resources/maskTrios/BT4B.jpg","null","",NA,NA,NA,NA,""
"image-keyboard-response",490,512672,"0.0-3.159-2.159","7a9uocgpopmt0qe",742,"48.csv","","null","resources/images/coin2.png","null","",NA,NA,NA,NA,""
"image-keyboard-response",491,513401,"0.0-3.160-0.160","7a9uocgpopmt0qe",742,"48.csv","","728","resources/trios/L2T4A1.jpg","38","restless",0.6,0.6,0.3,0.547516933300027,"true"
"image-keyboard-response",492,513808,"0.0-3.160-1.160","7a9uocgpopmt0qe",742,"48.csv","","null","resources/maskTrios/BT4B.jpg","null","",NA,NA,NA,NA,""
"image-keyboard-response",493,515015,"0.0-3.160-2.160","7a9uocgpopmt0qe",742,"48.csv","","null","resources/images/coin2.png","null","",NA,NA,NA,NA,""
"image-keyboard-response",494,522285,"0.0-3.161-0.161","7a9uocgpopmt0qe",742,"48.csv","","7269.199999988079","resources/trios/L2T2A1.jpg","38","restless",0.6,0.6,0.3,0.740758487908681,"false"
"image-keyboard-response",495,522691,"0.0-3.161-1.161","7a9uocgpopmt0qe",742,"48.csv","","null","resources/maskTrios/BT2B.jpg","null","",NA,NA,NA,NA,""
"image-keyboard-response",496,523897,"0.0-3.161-2.161","7a9uocgpopmt0qe",742,"48.csv","","null","resources/images/fishbone.png","null","",NA,NA,NA,NA,""
"image-keyboard-response",497,525114,"0.0-3.162-0.162","7a9uocgpopmt0qe",742,"48.csv","","1214.699999988079","resources/trios/L1T4A3.jpg","38","restless",0.6,0.6,0.3,0.319227657529476,"true"
"image-keyboard-response",498,525517,"0.0-3.162-1.162","7a9uocgpopmt0qe",742,"48.csv","","null","resources/maskTrios/BT4B.jpg","null","",NA,NA,NA,NA,""
"image-keyboard-response",499,526722,"0.0-3.162-2.162","7a9uocgpopmt0qe",742,"48.csv","","null","resources/images/coin2.png","null","",NA,NA,NA,NA,""
"image-keyboard-response",500,527356,"0.0-3.163-0.163","7a9uocgpopmt0qe",742,"48.csv","","632.5","resources/trios/L2T4A3.jpg","38","restless",0.5,0.6,0.3,0.591793775993217,"true"
"image-keyboard-response",501,527763,"0.0-3.163-1.163","7a9uocgpopmt0qe",742,"48.csv","","null","resources/maskTrios/BT4B.jpg","null","",NA,NA,NA,NA,""
"image-keyboard-response",502,528969,"0.0-3.163-2.163","7a9uocgpopmt0qe",742,"48.csv","","null","resources/images/coin2.png","null","",NA,NA,NA,NA,""
"image-keyboard-response",503,529543,"0.0-3.164-0.164","7a9uocgpopmt0qe",742,"48.csv","","571.6999999880791","resources/trios/L2T4A3.jpg","38","restless",0.5,0.6,0.3,0.441595940323308,"true"
"image-keyboard-response",504,529945,"0.0-3.164-1.164","7a9uocgpopmt0qe",742,"48.csv","","null","resources/maskTrios/BT4B.jpg","null","",NA,NA,NA,NA,""
"image-keyboard-response",505,531148,"0.0-3.164-2.164","7a9uocgpopmt0qe",742,"48.csv","","null","resources/images/coin2.png","null","",NA,NA,NA,NA,""
"image-keyboard-response",506,532134,"0.0-3.165-0.165","7a9uocgpopmt0qe",742,"48.csv","","984.1999999880791","resources/trios/L2T2A3.jpg","37","restless",0.5,0.6,0.3,0.875909696716486,"false"
"image-keyboard-response",507,532541,"0.0-3.165-1.165","7a9uocgpopmt0qe",742,"48.csv","","null","resources/maskTrios/L2BB.jpg","null","",NA,NA,NA,NA,""
"image-keyboard-response",508,533747,"0.0-3.165-2.165","7a9uocgpopmt0qe",742,"48.csv","","null","resources/images/fishbone.png","null","",NA,NA,NA,NA,""
"image-keyboard-response",509,534379,"0.0-3.166-0.166","7a9uocgpopmt0qe",742,"48.csv","","629.8999999761581","resources/trios/L2T4A3.jpg","38","restless",0.6,0.6,0.3,0.888702726143643,"false"
"image-keyboard-response",510,534782,"0.0-3.166-1.166","7a9uocgpopmt0qe",742,"48.csv","","null","resources/maskTrios/BT4B.jpg","null","",NA,NA,NA,NA,""
"image-keyboard-response",511,535986,"0.0-3.166-2.166","7a9uocgpopmt0qe",742,"48.csv","","null","resources/images/fishbone.png","null","",NA,NA,NA,NA,""
"image-keyboard-response",512,538605,"0.0-3.167-0.167","7a9uocgpopmt0qe",742,"48.csv","","2617.300000011921","resources/trios/L1T4A1.jpg","38","restless",0.6,0.6,0.3,0.943187880488711,"false"
"image-keyboard-response",513,539009,"0.0-3.167-1.167","7a9uocgpopmt0qe",742,"48.csv","","null","resources/maskTrios/BT4B.jpg","null","",NA,NA,NA,NA,""
"image-keyboard-response",514,540216,"0.0-3.167-2.167","7a9uocgpopmt0qe",742,"48.csv","","null","resources/images/fishbone.png","null","",NA,NA,NA,NA,""
"image-keyboard-response",515,542404,"0.0-3.168-0.168","7a9uocgpopmt0qe",742,"48.csv","","2186.699999988079","resources/trios/L2T2A3.jpg","38","restless",0.6,0.6,0.3,0.894303991549369,"false"
"image-keyboard-response",516,542806,"0.0-3.168-1.168","7a9uocgpopmt0qe",742,"48.csv","","null","resources/maskTrios/BT2B.jpg","null","",NA,NA,NA,NA,""
"image-keyboard-response",517,544013,"0.0-3.168-2.168","7a9uocgpopmt0qe",742,"48.csv","","null","resources/images/fishbone.png","null","",NA,NA,NA,NA,""
"image-keyboard-response",518,544741,"0.0-3.169-0.169","7a9uocgpopmt0qe",742,"48.csv","","726.3000000119209","resources/trios/L2T4A1.jpg","38","restless",0.7,0.6,0.3,0.51022285813788,"true"
"image-keyboard-response",519,545148,"0.0-3.169-1.169","7a9uocgpopmt0qe",742,"48.csv","","null","resources/maskTrios/BT4B.jpg","null","",NA,NA,NA,NA,""
"image-keyboard-response",520,546354,"0.0-3.169-2.169","7a9uocgpopmt0qe",742,"48.csv","","null","resources/images/coin2.png","null","",NA,NA,NA,NA,""
"image-keyboard-response",521,547299,"0.0-3.170-0.170","7a9uocgpopmt0qe",742,"48.csv","","942.5","resources/trios/L1T4A1.jpg","38","restless",0.7,0.6,0.3,0.991034153534275,"false"
"image-keyboard-response",522,547705,"0.0-3.170-1.170","7a9uocgpopmt0qe",742,"48.csv","","null","resources/maskTrios/BT4B.jpg","null","",NA,NA,NA,NA,""
"image-keyboard-response",523,548910,"0.0-3.170-2.170","7a9uocgpopmt0qe",742,"48.csv","","null","resources/images/fishbone.png","null","",NA,NA,NA,NA,""
"image-keyboard-response",524,550970,"0.0-3.171-0.171","7a9uocgpopmt0qe",742,"48.csv","","2057.5","resources/trios/L2T2A1.jpg","37","restless",0.7,0.6,0.3,0.0584503722838499,"true"
"image-keyboard-response",525,551376,"0.0-3.171-1.171","7a9uocgpopmt0qe",742,"48.csv","","null","resources/maskTrios/L2BB.jpg","null","",NA,NA,NA,NA,""
"image-keyboard-response",526,552578,"0.0-3.171-2.171","7a9uocgpopmt0qe",742,"48.csv","","null","resources/images/coin2.png","null","",NA,NA,NA,NA,""
"image-keyboard-response",527,556019,"0.0-3.172-0.172","7a9uocgpopmt0qe",742,"48.csv","","3439.099999964237","resources/trios/L1T2A1.jpg","38","restless",0.7,0.6,0.3,0.0388077674146809,"true"
"image-keyboard-response",528,556422,"0.0-3.172-1.172","7a9uocgpopmt0qe",742,"48.csv","","null","resources/maskTrios/BT2B.jpg","null","",NA,NA,NA,NA,""
"image-keyboard-response",529,557629,"0.0-3.172-2.172","7a9uocgpopmt0qe",742,"48.csv","","null","resources/images/coin2.png","null","",NA,NA,NA,NA,""
"image-keyboard-response",530,558335,"0.0-3.173-0.173","7a9uocgpopmt0qe",742,"48.csv","","704","resources/trios/L1T4A3.jpg","38","restless",0.7,0.6,0.3,0.587935906330685,"true"
"image-keyboard-response",531,558739,"0.0-3.173-1.173","7a9uocgpopmt0qe",742,"48.csv","","null","resources/maskTrios/BT4B.jpg","null","",NA,NA,NA,NA,""
"image-keyboard-response",532,559946,"0.0-3.173-2.173","7a9uocgpopmt0qe",742,"48.csv","","null","resources/images/coin2.png","null","",NA,NA,NA,NA,""
"image-keyboard-response",533,560836,"0.0-3.174-0.174","7a9uocgpopmt0qe",742,"48.csv","","888.3999999761581","resources/trios/L2T2A1.jpg","37","restless",0.7,0.6,0.3,0.924579360830746,"false"
"image-keyboard-response",534,561243,"0.0-3.174-1.174","7a9uocgpopmt0qe",742,"48.csv","","null","resources/maskTrios/L2BB.jpg","null","",NA,NA,NA,NA,""
"image-keyboard-response",535,562446,"0.0-3.174-2.174","7a9uocgpopmt0qe",742,"48.csv","","null","resources/images/fishbone.png","null","",NA,NA,NA,NA,""
"image-keyboard-response",536,563512,"0.0-3.175-0.175","7a9uocgpopmt0qe",742,"48.csv","","1063.9000000357628","resources/trios/L1T2A1.jpg","38","restless",0.7,0.6,0.3,0.795940164331137,"false"
"image-keyboard-response",537,563919,"0.0-3.175-1.175","7a9uocgpopmt0qe",742,"48.csv","","null","resources/maskTrios/BT2B.jpg","null","",NA,NA,NA,NA,""
"image-keyboard-response",538,565121,"0.0-3.175-2.175","7a9uocgpopmt0qe",742,"48.csv","","null","resources/images/fishbone.png","null","",NA,NA,NA,NA,""
"image-keyboard-response",539,565837,"0.0-3.176-0.176","7a9uocgpopmt0qe",742,"48.csv","","714.1000000238419","resources/trios/L1T4A1.jpg","38","restless",0.7,0.6,0.3,0.376737215314237,"true"
"image-keyboard-response",540,566239,"0.0-3.176-1.176","7a9uocgpopmt0qe",742,"48.csv","","null","resources/maskTrios/BT4B.jpg","null","",NA,NA,NA,NA,""
"image-keyboard-response",541,567445,"0.0-3.176-2.176","7a9uocgpopmt0qe",742,"48.csv","","null","resources/images/coin2.png","null","",NA,NA,NA,NA,""
"image-keyboard-response",542,568278,"0.0-3.177-0.177","7a9uocgpopmt0qe",742,"48.csv","","831.1000000238419","resources/trios/L2T4A1.jpg","38","restless",0.7,0.6,0.4,0.327189549153682,"true"
"image-keyboard-response",543,568682,"0.0-3.177-1.177","7a9uocgpopmt0qe",742,"48.csv","","null","resources/maskTrios/BT4B.jpg","null","",NA,NA,NA,NA,""
"image-keyboard-response",544,569889,"0.0-3.177-2.177","7a9uocgpopmt0qe",742,"48.csv","","null","resources/images/coin2.png","null","",NA,NA,NA,NA,""
"image-keyboard-response",545,572429,"0.0-3.178-0.178","7a9uocgpopmt0qe",742,"48.csv","","2538.699999988079","resources/trios/L2T4A1.jpg","38","restless",0.7,0.6,0.5,0.327718965950718,"true"
"image-keyboard-response",546,572836,"0.0-3.178-1.178","7a9uocgpopmt0qe",742,"48.csv","","null","resources/maskTrios/BT4B.jpg","null","",NA,NA,NA,NA,""
"image-keyboard-response",547,574041,"0.0-3.178-2.178","7a9uocgpopmt0qe",742,"48.csv","","null","resources/images/coin2.png","null","",NA,NA,NA,NA,""
"image-keyboard-response",548,575306,"0.0-3.179-0.179","7a9uocgpopmt0qe",742,"48.csv","","1262.5999999642372","resources/trios/L2T4A3.jpg","37","restless",0.7,0.6,0.6,0.727973838957707,"false"
"image-keyboard-response",549,575712,"0.0-3.179-1.179","7a9uocgpopmt0qe",742,"48.csv","","null","resources/maskTrios/L2BB.jpg","null","",NA,NA,NA,NA,""
"image-keyboard-response",550,576916,"0.0-3.179-2.179","7a9uocgpopmt0qe",742,"48.csv","","null","resources/images/fishbone.png","null","",NA,NA,NA,NA,""
"image-keyboard-response",551,577806,"0.0-3.180-0.180","7a9uocgpopmt0qe",742,"48.csv","","888.4000000357628","resources/trios/L2T2A1.jpg","38","restless",0.8,0.6,0.6,0.734624001869212,"false"
"image-keyboard-response",552,578212,"0.0-3.180-1.180","7a9uocgpopmt0qe",742,"48.csv","","null","resources/maskTrios/BT2B.jpg","null","",NA,NA,NA,NA,""
"image-keyboard-response",553,579414,"0.0-3.180-2.180","7a9uocgpopmt0qe",742,"48.csv","","null","resources/images/fishbone.png","null","",NA,NA,NA,NA,""
"image-keyboard-response",554,580425,"0.0-3.181-0.181","7a9uocgpopmt0qe",742,"48.csv","","1009.4000000357628","resources/trios/L1T4A1.jpg","38","restless",0.8,0.6,0.6,0.832422027257992,"false"
"image-keyboard-response",555,580829,"0.0-3.181-1.181","7a9uocgpopmt0qe",742,"48.csv","","null","resources/maskTrios/BT4B.jpg","null","",NA,NA,NA,NA,""
"image-keyboard-response",556,582034,"0.0-3.181-2.181","7a9uocgpopmt0qe",742,"48.csv","","null","resources/images/fishbone.png","null","",NA,NA,NA,NA,""
"image-keyboard-response",557,582506,"0.0-3.182-0.182","7a9uocgpopmt0qe",742,"48.csv","","470","resources/trios/L2T4A3.jpg","38","restless",0.8,0.6,0.6,0.0352169333568084,"true"
"image-keyboard-response",558,582911,"0.0-3.182-1.182","7a9uocgpopmt0qe",742,"48.csv","","null","resources/maskTrios/BT4B.jpg","null","",NA,NA,NA,NA,""
"image-keyboard-response",559,584118,"0.0-3.182-2.182","7a9uocgpopmt0qe",742,"48.csv","","null","resources/images/coin2.png","null","",NA,NA,NA,NA,""
"image-keyboard-response",560,584932,"0.0-3.183-0.183","7a9uocgpopmt0qe",742,"48.csv","","812.5","resources/trios/L2T4A1.jpg","38","restless",0.8,0.6,0.6,0.491933417197097,"true"
"image-keyboard-response",561,585337,"0.0-3.183-1.183","7a9uocgpopmt0qe",742,"48.csv","","null","resources/maskTrios/BT4B.jpg","null","",NA,NA,NA,NA,""
"image-keyboard-response",562,586544,"0.0-3.183-2.183","7a9uocgpopmt0qe",742,"48.csv","","null","resources/images/coin2.png","null","",NA,NA,NA,NA,""
"image-keyboard-response",563,587307,"0.0-3.184-0.184","7a9uocgpopmt0qe",742,"48.csv","","760.8999999761581","resources/trios/L2T4A3.jpg","38","restless",0.8,0.6,0.6,0.0422551190594562,"true"
"image-keyboard-response",564,587713,"0.0-3.184-1.184","7a9uocgpopmt0qe",742,"48.csv","","null","resources/maskTrios/BT4B.jpg","null","",NA,NA,NA,NA,""
"image-keyboard-response",565,588918,"0.0-3.184-2.184","7a9uocgpopmt0qe",742,"48.csv","","null","resources/images/coin2.png","null","",NA,NA,NA,NA,""
"image-keyboard-response",566,589617,"0.0-3.185-0.185","7a9uocgpopmt0qe",742,"48.csv","","696.3999999761581","resources/trios/L1T2A1.jpg","38","restless",0.8,0.6,0.5,0.914942246634474,"false"
"image-keyboard-response",567,590020,"0.0-3.185-1.185","7a9uocgpopmt0qe",742,"48.csv","","null","resources/maskTrios/BT2B.jpg","null","",NA,NA,NA,NA,""
"image-keyboard-response",568,591227,"0.0-3.185-2.185","7a9uocgpopmt0qe",742,"48.csv","","null","resources/images/fishbone.png","null","",NA,NA,NA,NA,""
"image-keyboard-response",569,593954,"0.0-3.186-0.186","7a9uocgpopmt0qe",742,"48.csv","","2725.300000011921","resources/trios/L1T4A1.jpg","38","restless",0.8,0.6,0.5,0.705731658040215,"false"
"image-keyboard-response",570,594360,"0.0-3.186-1.186","7a9uocgpopmt0qe",742,"48.csv","","null","resources/maskTrios/BT4B.jpg","null","",NA,NA,NA,NA,""
"image-keyboard-response",571,595563,"0.0-3.186-2.186","7a9uocgpopmt0qe",742,"48.csv","","null","resources/images/fishbone.png","null","",NA,NA,NA,NA,""
"image-keyboard-response",572,596194,"0.0-3.187-0.187","7a9uocgpopmt0qe",742,"48.csv","","629.5","resources/trios/L2T2A1.jpg","38","restless",0.8,0.7,0.5,0.62121064354515,"true"
"image-keyboard-response",573,596599,"0.0-3.187-1.187","7a9uocgpopmt0qe",742,"48.csv","","null","resources/maskTrios/BT2B.jpg","null","",NA,NA,NA,NA,""
"image-keyboard-response",574,597806,"0.0-3.187-2.187","7a9uocgpopmt0qe",742,"48.csv","","null","resources/images/coin2.png","null","",NA,NA,NA,NA,""
"image-keyboard-response",575,607118,"0.0-3.188-0.188","7a9uocgpopmt0qe",742,"48.csv","","9310.300000011921","resources/trios/L2T2A3.jpg","38","restless",0.8,0.7,0.5,0.709556537992331,"false"
"image-keyboard-response",576,607524,"0.0-3.188-1.188","7a9uocgpopmt0qe",742,"48.csv","","null","resources/maskTrios/BT2B.jpg","null","",NA,NA,NA,NA,""
"image-keyboard-response",577,608728,"0.0-3.188-2.188","7a9uocgpopmt0qe",742,"48.csv","","null","resources/images/fishbone.png","null","",NA,NA,NA,NA,""
"image-keyboard-response",578,610377,"0.0-3.189-0.189","7a9uocgpopmt0qe",742,"48.csv","","1648","resources/trios/L1T4A1.jpg","38","restless",0.8,0.7,0.5,0.212950344537661,"true"
"image-keyboard-response",579,610784,"0.0-3.189-1.189","7a9uocgpopmt0qe",742,"48.csv","","null","resources/maskTrios/BT4B.jpg","null","",NA,NA,NA,NA,""
"image-keyboard-response",580,611988,"0.0-3.189-2.189","7a9uocgpopmt0qe",742,"48.csv","","null","resources/images/coin2.png","null","",NA,NA,NA,NA,""
"image-keyboard-response",581,612718,"0.0-3.190-0.190","7a9uocgpopmt0qe",742,"48.csv","","728.1999999880791","resources/trios/L1T4A1.jpg","38","restless",0.8,0.7,0.6,0.984272449955303,"false"
"image-keyboard-response",582,613121,"0.0-3.190-1.190","7a9uocgpopmt0qe",742,"48.csv","","null","resources/maskTrios/BT4B.jpg","null","",NA,NA,NA,NA,""
"image-keyboard-response",583,614327,"0.0-3.190-2.190","7a9uocgpopmt0qe",742,"48.csv","","null","resources/images/fishbone.png","null","",NA,NA,NA,NA,""
"image-keyboard-response",584,619514,"0.0-3.191-0.191","7a9uocgpopmt0qe",742,"48.csv","","5185.099999964237","resources/trios/L1T2A1.jpg","38","restless",0.8,0.7,0.6,0.0997016257305181,"true"
"image-keyboard-response",585,619920,"0.0-3.191-1.191","7a9uocgpopmt0qe",742,"48.csv","","null","resources/maskTrios/BT2B.jpg","null","",NA,NA,NA,NA,""
"image-keyboard-response",586,621126,"0.0-3.191-2.191","7a9uocgpopmt0qe",742,"48.csv","","null","resources/images/coin2.png","null","",NA,NA,NA,NA,""
"image-keyboard-response",587,622126,"0.0-3.192-0.192","7a9uocgpopmt0qe",742,"48.csv","","997.5999999642372","resources/trios/L2T2A1.jpg","37","restless",0.9,0.7,0.6,0.71020555747713,"true"
"image-keyboard-response",588,622528,"0.0-3.192-1.192","7a9uocgpopmt0qe",742,"48.csv","","null","resources/maskTrios/L2BB.jpg","null","",NA,NA,NA,NA,""
"image-keyboard-response",589,623734,"0.0-3.192-2.192","7a9uocgpopmt0qe",742,"48.csv","","null","resources/images/coin2.png","null","",NA,NA,NA,NA,""
"image-keyboard-response",590,624834,"0.0-3.193-0.193","7a9uocgpopmt0qe",742,"48.csv","","1098.3999999761581","resources/trios/L1T2A3.jpg","38","restless",0.9,0.7,0.7,0.84412830083981,"false"
"image-keyboard-response",591,625237,"0.0-3.193-1.193","7a9uocgpopmt0qe",742,"48.csv","","null","resources/maskTrios/BT2B.jpg","null","",NA,NA,NA,NA,""
"image-keyboard-response",592,626443,"0.0-3.193-2.193","7a9uocgpopmt0qe",742,"48.csv","","null","resources/images/fishbone.png","null","",NA,NA,NA,NA,""
"image-keyboard-response",593,628445,"0.0-3.194-0.194","7a9uocgpopmt0qe",742,"48.csv","","2000.0999999642372","resources/trios/L2T4A3.jpg","38","restless",0.9,0.7,0.7,0.0287792766187898,"true"
"image-keyboard-response",594,628852,"0.0-3.194-1.194","7a9uocgpopmt0qe",742,"48.csv","","null","resources/maskTrios/BT4B.jpg","null","",NA,NA,NA,NA,""
"image-keyboard-response",595,630055,"0.0-3.194-2.194","7a9uocgpopmt0qe",742,"48.csv","","null","resources/images/coin2.png","null","",NA,NA,NA,NA,""
"image-keyboard-response",596,631258,"0.0-3.195-0.195","7a9uocgpopmt0qe",742,"48.csv","","1201.6000000238419","resources/trios/L1T2A1.jpg","37","restless",0.9,0.7,0.7,0.51798793412331,"true"
"image-keyboard-response",597,631665,"0.0-3.195-1.195","7a9uocgpopmt0qe",742,"48.csv","","null","resources/maskTrios/L1BB.jpg","null","",NA,NA,NA,NA,""
"image-keyboard-response",598,632871,"0.0-3.195-2.195","7a9uocgpopmt0qe",742,"48.csv","","null","resources/images/coin2.png","null","",NA,NA,NA,NA,""
"image-keyboard-response",599,634115,"0.0-3.196-0.196","7a9uocgpopmt0qe",742,"48.csv","","1241.800000011921","resources/trios/L1T4A1.jpg","38","restless",0.9,0.7,0.7,0.800280476419265,"false"
"image-keyboard-response",600,634522,"0.0-3.196-1.196","7a9uocgpopmt0qe",742,"48.csv","","null","resources/maskTrios/BT4B.jpg","null","",NA,NA,NA,NA,""
"image-keyboard-response",601,635728,"0.0-3.196-2.196","7a9uocgpopmt0qe",742,"48.csv","","null","resources/images/fishbone.png","null","",NA,NA,NA,NA,""
"image-keyboard-response",602,636807,"0.0-3.197-0.197","7a9uocgpopmt0qe",742,"48.csv","","1077.699999988079","resources/trios/L1T4A1.jpg","37","restless",0.9,0.7,0.7,0.861384563206964,"true"
"image-keyboard-response",603,637214,"0.0-3.197-1.197","7a9uocgpopmt0qe",742,"48.csv","","null","resources/maskTrios/L1BB.jpg","null","",NA,NA,NA,NA,""
"image-keyboard-response",604,638421,"0.0-3.197-2.197","7a9uocgpopmt0qe",742,"48.csv","","null","resources/images/coin2.png","null","",NA,NA,NA,NA,""
"image-keyboard-response",605,639401,"0.0-3.198-0.198","7a9uocgpopmt0qe",742,"48.csv","","978.6000000238419","resources/trios/L2T2A3.jpg","37","restless",0.9,0.7,0.7,0.825178333909643,"true"
"image-keyboard-response",606,639808,"0.0-3.198-1.198","7a9uocgpopmt0qe",742,"48.csv","","null","resources/maskTrios/L2BB.jpg","null","",NA,NA,NA,NA,""
"image-keyboard-response",607,641015,"0.0-3.198-2.198","7a9uocgpopmt0qe",742,"48.csv","","null","resources/images/coin2.png","null","",NA,NA,NA,NA,""
"image-keyboard-response",608,641598,"0.0-3.199-0.199","7a9uocgpopmt0qe",742,"48.csv","","580.5999999642372","resources/trios/L1T2A1.jpg","37","restless",0.8,0.7,0.7,0.159022668946935,"true"
"image-keyboard-response",609,642000,"0.0-3.199-1.199","7a9uocgpopmt0qe",742,"48.csv","","null","resources/maskTrios/L1BB.jpg","null","",NA,NA,NA,NA,""
