"trial_type","trial_index","time_elapsed","internal_node_id","subject","participantCode","walkNumber","success","rt","stimulus","key_press","test_part","leftProb","midProb","rightProb","generatedNum","correct"
"pavlovia",0,1052,"0.0-0.0","soquxg8t4a9rxk5",882,"199.csv","","","","","",NA,NA,NA,NA,""
"fullscreen",1,7176,"0.0-1.0","soquxg8t4a9rxk5",882,"199.csv","true","","","","",NA,NA,NA,NA,""
"html-keyboard-response",2,19725,"0.0-2.0-0.0","soquxg8t4a9rxk5",882,"199.csv","","12548.300000190735","<p><font size='6'>Arrrgh!</p></font><p>Can you be the best pirate? Try to find lots of gold! But beware, some islands have more gold than others, and over time, the island with the most gold may change. Can YOU figure it out? </p><font size='6'>GOOD LUCK, CAPTAIN!!!</font><p>Press any key to begin</p>","32","",NA,NA,NA,NA,""
"image-keyboard-response",3,22743,"0.0-2.0-1.0","soquxg8t4a9rxk5",882,"199.csv","","null","resources/image_sets/111.png","null","",NA,NA,NA,NA,""
"image-keyboard-response",4,33365,"0.0-2.0-2.0","soquxg8t4a9rxk5",882,"199.csv","","10619.400000095367","resources/image_sets/left_highlight.png","37","",NA,NA,NA,NA,""
"image-keyboard-response",5,39371,"0.0-2.0-3.0","soquxg8t4a9rxk5",882,"199.csv","","6004.299999952316","resources/image_sets/mid_highlight.png","38","",NA,NA,NA,NA,""
"image-keyboard-response",6,46964,"0.0-2.0-4.0","soquxg8t4a9rxk5",882,"199.csv","","7591.5","resources/image_sets/right_highlight.png","39","",NA,NA,NA,NA,""
"image-keyboard-response",7,53524,"0.0-2.0-5.0","soquxg8t4a9rxk5",882,"199.csv","","6558","resources/image_sets/111.png","13","",NA,NA,NA,NA,""
"image-keyboard-response",8,57649,"0.0-2.0-6.0","soquxg8t4a9rxk5",882,"199.csv","","4127.600000143051","resources/images/coin2.png","13","",NA,NA,NA,NA,""
"image-keyboard-response",9,59754,"0.0-2.0-7.0","soquxg8t4a9rxk5",882,"199.csv","","2104.300000190735","resources/images/fishbone.png","13","",NA,NA,NA,NA,""
"html-keyboard-response",10,65444,"0.0-2.0-8.0","soquxg8t4a9rxk5",882,"199.csv","","5688.900000095367","<p>Your first journey will be a long one, but you will get a well deserved break at the end</p><p>After the break you will have four more journeys, but each will be much shorter than the first, and you will have breaks in between each</p><p>Press Enter to begin</p>","13","",NA,NA,NA,NA,""
"image-keyboard-response",11,67388,"0.0-3.0-0.0","soquxg8t4a9rxk5",882,"199.csv","","1942.2999999523163","resources/trios/L1T4A1.jpg","38","restless",0.3,0.9,0.7,0.763731877792881,"true"
"image-keyboard-response",12,67816,"0.0-3.0-1.0","soquxg8t4a9rxk5",882,"199.csv","","null","resources/maskTrios/BT4B.jpg","null","",NA,NA,NA,NA,""
"image-keyboard-response",13,69028,"0.0-3.0-2.0","soquxg8t4a9rxk5",882,"199.csv","","null","resources/images/coin2.png","null","",NA,NA,NA,NA,""
"image-keyboard-response",14,69802,"0.0-3.1-0.1","soquxg8t4a9rxk5",882,"199.csv","","773.3999998569489","resources/trios/L1T4A1.jpg","38","restless",0.3,0.9,0.7,0.051373802268577,"true"
"image-keyboard-response",15,70216,"0.0-3.1-1.1","soquxg8t4a9rxk5",882,"199.csv","","null","resources/maskTrios/BT4B.jpg","null","",NA,NA,NA,NA,""
"image-keyboard-response",16,71438,"0.0-3.1-2.1","soquxg8t4a9rxk5",882,"199.csv","","null","resources/images/coin2.png","null","",NA,NA,NA,NA,""
"image-keyboard-response",17,73457,"0.0-3.2-0.2","soquxg8t4a9rxk5",882,"199.csv","","2017.2000000476837","resources/trios/L1T2A1.jpg","38","restless",0.3,0.9,0.7,0.0805555822427395,"true"
"image-keyboard-response",18,73863,"0.0-3.2-1.2","soquxg8t4a9rxk5",882,"199.csv","","null","resources/maskTrios/BT2B.jpg","null","",NA,NA,NA,NA,""
"image-keyboard-response",19,75082,"0.0-3.2-2.2","soquxg8t4a9rxk5",882,"199.csv","","null","resources/images/coin2.png","null","",NA,NA,NA,NA,""
"image-keyboard-response",20,76932,"0.0-3.3-0.3","soquxg8t4a9rxk5",882,"199.csv","","1849.6000001430511","resources/trios/L1T2A1.jpg","38","restless",0.3,0.9,0.8,0.112201229078437,"true"
"image-keyboard-response",21,77344,"0.0-3.3-1.3","soquxg8t4a9rxk5",882,"199.csv","","null","resources/maskTrios/BT2B.jpg","null","",NA,NA,NA,NA,""
"image-keyboard-response",22,78557,"0.0-3.3-2.3","soquxg8t4a9rxk5",882,"199.csv","","null","resources/images/coin2.png","null","",NA,NA,NA,NA,""
"image-keyboard-response",23,79404,"0.0-3.4-0.4","soquxg8t4a9rxk5",882,"199.csv","","845.7000000476837","resources/trios/L1T4A2.jpg","38","restless",0.3,0.9,0.8,0.436306617126816,"true"
"image-keyboard-response",24,79810,"0.0-3.4-1.4","soquxg8t4a9rxk5",882,"199.csv","","null","resources/maskTrios/BT4B.jpg","null","",NA,NA,NA,NA,""
"image-keyboard-response",25,81021,"0.0-3.4-2.4","soquxg8t4a9rxk5",882,"199.csv","","null","resources/images/coin2.png","null","",NA,NA,NA,NA,""
"image-keyboard-response",26,82172,"0.0-3.5-0.5","soquxg8t4a9rxk5",882,"199.csv","","1148.2000000476837","resources/trios/L4T2A1.jpg","38","restless",0.3,0.9,0.8,0.459803900913768,"true"
"image-keyboard-response",27,82583,"0.0-3.5-1.5","soquxg8t4a9rxk5",882,"199.csv","","null","resources/maskTrios/BT2B.jpg","null","",NA,NA,NA,NA,""
"image-keyboard-response",28,83805,"0.0-3.5-2.5","soquxg8t4a9rxk5",882,"199.csv","","null","resources/images/coin2.png","null","",NA,NA,NA,NA,""
"image-keyboard-response",29,84540,"0.0-3.6-0.6","soquxg8t4a9rxk5",882,"199.csv","","733.4000000953674","resources/trios/L1T2A1.jpg","38","restless",0.3,0.9,0.8,0.12121836038343,"true"
"image-keyboard-response",30,84960,"0.0-3.6-1.6","soquxg8t4a9rxk5",882,"199.csv","","null","resources/maskTrios/BT2B.jpg","null","",NA,NA,NA,NA,""
"image-keyboard-response",31,86171,"0.0-3.6-2.6","soquxg8t4a9rxk5",882,"199.csv","","null","resources/images/coin2.png","null","",NA,NA,NA,NA,""
"image-keyboard-response",32,86793,"0.0-3.7-0.7","soquxg8t4a9rxk5",882,"199.csv","","620.6999998092651","resources/trios/L1T4A1.jpg","38","restless",0.3,0.8,0.8,0.529330007348119,"true"
"image-keyboard-response",33,87205,"0.0-3.7-1.7","soquxg8t4a9rxk5",882,"199.csv","","null","resources/maskTrios/BT4B.jpg","null","",NA,NA,NA,NA,""
"image-keyboard-response",34,88417,"0.0-3.7-2.7","soquxg8t4a9rxk5",882,"199.csv","","null","resources/images/coin2.png","null","",NA,NA,NA,NA,""
"image-keyboard-response",35,89028,"0.0-3.8-0.8","soquxg8t4a9rxk5",882,"199.csv","","609.5","resources/trios/L4T2A2.jpg","38","restless",0.3,0.8,0.8,0.305253905526512,"true"
"image-keyboard-response",36,89440,"0.0-3.8-1.8","soquxg8t4a9rxk5",882,"199.csv","","null","resources/maskTrios/BT2B.jpg","null","",NA,NA,NA,NA,""
"image-keyboard-response",37,90649,"0.0-3.8-2.8","soquxg8t4a9rxk5",882,"199.csv","","null","resources/images/coin2.png","null","",NA,NA,NA,NA,""
"image-keyboard-response",38,91344,"0.0-3.9-0.9","soquxg8t4a9rxk5",882,"199.csv","","693.5","resources/trios/L4T4A1.jpg","38","restless",0.3,0.8,0.8,0.653225674034671,"true"
"image-keyboard-response",39,91751,"0.0-3.9-1.9","soquxg8t4a9rxk5",882,"199.csv","","null","resources/maskTrios/BT4B.jpg","null","",NA,NA,NA,NA,""
"image-keyboard-response",40,92967,"0.0-3.9-2.9","soquxg8t4a9rxk5",882,"199.csv","","null","resources/images/coin2.png","null","",NA,NA,NA,NA,""
"image-keyboard-response",41,93687,"0.0-3.10-0.10","soquxg8t4a9rxk5",882,"199.csv","","717","resources/trios/L4T2A1.jpg","38","restless",0.2,0.8,0.8,0.384841369752964,"true"
"image-keyboard-response",42,94103,"0.0-3.10-1.10","soquxg8t4a9rxk5",882,"199.csv","","null","resources/maskTrios/BT2B.jpg","null","",NA,NA,NA,NA,""
"image-keyboard-response",43,95316,"0.0-3.10-2.10","soquxg8t4a9rxk5",882,"199.csv","","null","resources/images/coin2.png","null","",NA,NA,NA,NA,""
"image-keyboard-response",44,96065,"0.0-3.11-0.11","soquxg8t4a9rxk5",882,"199.csv","","748.0999999046326","resources/trios/L1T2A2.jpg","38","restless",0.2,0.8,0.8,0.267653609374079,"true"
"image-keyboard-response",45,96484,"0.0-3.11-1.11","soquxg8t4a9rxk5",882,"199.csv","","null","resources/maskTrios/BT2B.jpg","null","",NA,NA,NA,NA,""
"image-keyboard-response",46,97698,"0.0-3.11-2.11","soquxg8t4a9rxk5",882,"199.csv","","null","resources/images/coin2.png","null","",NA,NA,NA,NA,""
"image-keyboard-response",47,98547,"0.0-3.12-0.12","soquxg8t4a9rxk5",882,"199.csv","","848","resources/trios/L1T4A1.jpg","38","restless",0.2,0.8,0.8,0.713700483107011,"true"
"image-keyboard-response",48,98952,"0.0-3.12-1.12","soquxg8t4a9rxk5",882,"199.csv","","null","resources/maskTrios/BT4B.jpg","null","",NA,NA,NA,NA,""
"image-keyboard-response",49,100163,"0.0-3.12-2.12","soquxg8t4a9rxk5",882,"199.csv","","null","resources/images/coin2.png","null","",NA,NA,NA,NA,""
"image-keyboard-response",50,100719,"0.0-3.13-0.13","soquxg8t4a9rxk5",882,"199.csv","","555.5","resources/trios/L1T4A2.jpg","38","restless",0.2,0.8,0.8,0.661811515353802,"true"
"image-keyboard-response",51,101133,"0.0-3.13-1.13","soquxg8t4a9rxk5",882,"199.csv","","null","resources/maskTrios/BT4B.jpg","null","",NA,NA,NA,NA,""
"image-keyboard-response",52,102355,"0.0-3.13-2.13","soquxg8t4a9rxk5",882,"199.csv","","null","resources/images/coin2.png","null","",NA,NA,NA,NA,""
"image-keyboard-response",53,102895,"0.0-3.14-0.14","soquxg8t4a9rxk5",882,"199.csv","","538.2000000476837","resources/trios/L4T2A2.jpg","38","restless",0.2,0.8,0.8,0.615937438852405,"true"
"image-keyboard-response",54,103316,"0.0-3.14-1.14","soquxg8t4a9rxk5",882,"199.csv","","null","resources/maskTrios/BT2B.jpg","null","",NA,NA,NA,NA,""
"image-keyboard-response",55,104529,"0.0-3.14-2.14","soquxg8t4a9rxk5",882,"199.csv","","null","resources/images/coin2.png","null","",NA,NA,NA,NA,""
"image-keyboard-response",56,104903,"0.0-3.15-0.15","soquxg8t4a9rxk5",882,"199.csv","","371.5","resources/trios/L4T4A1.jpg","38","restless",0.1,0.8,0.8,0.388038168904078,"true"
"image-keyboard-response",57,105314,"0.0-3.15-1.15","soquxg8t4a9rxk5",882,"199.csv","","null","resources/maskTrios/BT4B.jpg","null","",NA,NA,NA,NA,""
"image-keyboard-response",58,106528,"0.0-3.15-2.15","soquxg8t4a9rxk5",882,"199.csv","","null","resources/images/coin2.png","null","",NA,NA,NA,NA,""
"image-keyboard-response",59,107048,"0.0-3.16-0.16","soquxg8t4a9rxk5",882,"199.csv","","518.0999999046326","resources/trios/L1T2A1.jpg","38","restless",0.1,0.8,0.8,0.00275401727265145,"true"
"image-keyboard-response",60,107463,"0.0-3.16-1.16","soquxg8t4a9rxk5",882,"199.csv","","null","resources/maskTrios/BT2B.jpg","null","",NA,NA,NA,NA,""
"image-keyboard-response",61,108676,"0.0-3.16-2.16","soquxg8t4a9rxk5",882,"199.csv","","null","resources/images/coin2.png","null","",NA,NA,NA,NA,""
"image-keyboard-response",62,109351,"0.0-3.17-0.17","soquxg8t4a9rxk5",882,"199.csv","","673.5","resources/trios/L1T2A1.jpg","38","restless",0.1,0.8,0.7,0.0262715986903559,"true"
"image-keyboard-response",63,109761,"0.0-3.17-1.17","soquxg8t4a9rxk5",882,"199.csv","","null","resources/maskTrios/BT2B.jpg","null","",NA,NA,NA,NA,""
"image-keyboard-response",64,110978,"0.0-3.17-2.17","soquxg8t4a9rxk5",882,"199.csv","","null","resources/images/coin2.png","null","",NA,NA,NA,NA,""
"image-keyboard-response",65,111966,"0.0-3.18-0.18","soquxg8t4a9rxk5",882,"199.csv","","986.6000001430511","resources/trios/L4T2A1.jpg","38","restless",0.1,0.8,0.7,0.800644095593244,"false"
"image-keyboard-response",66,112383,"0.0-3.18-1.18","soquxg8t4a9rxk5",882,"199.csv","","null","resources/maskTrios/BT2B.jpg","null","",NA,NA,NA,NA,""
"image-keyboard-response",67,113604,"0.0-3.18-2.18","soquxg8t4a9rxk5",882,"199.csv","","null","resources/images/fishbone.png","null","",NA,NA,NA,NA,""
"image-keyboard-response",68,114791,"0.0-3.19-0.19","soquxg8t4a9rxk5",882,"199.csv","","1186.7999999523163","resources/trios/L1T4A2.jpg","38","restless",0.1,0.7,0.7,0.19049676123696,"true"
"image-keyboard-response",69,115202,"0.0-3.19-1.19","soquxg8t4a9rxk5",882,"199.csv","","null","resources/maskTrios/BT4B.jpg","null","",NA,NA,NA,NA,""
"image-keyboard-response",70,116412,"0.0-3.19-2.19","soquxg8t4a9rxk5",882,"199.csv","","null","resources/images/coin2.png","null","",NA,NA,NA,NA,""
"image-keyboard-response",71,117293,"0.0-3.20-0.20","soquxg8t4a9rxk5",882,"199.csv","","879.7999999523163","resources/trios/L4T2A2.jpg","38","restless",0.1,0.7,0.7,0.197198411822977,"true"
"image-keyboard-response",72,117698,"0.0-3.20-1.20","soquxg8t4a9rxk5",882,"199.csv","","null","resources/maskTrios/BT2B.jpg","null","",NA,NA,NA,NA,""
"image-keyboard-response",73,118915,"0.0-3.20-2.20","soquxg8t4a9rxk5",882,"199.csv","","null","resources/images/coin2.png","null","",NA,NA,NA,NA,""
"image-keyboard-response",74,120197,"0.0-3.21-0.21","soquxg8t4a9rxk5",882,"199.csv","","1280.6000001430511","resources/trios/L4T2A1.jpg","38","restless",0.1,0.7,0.7,0.600238933657465,"true"
"image-keyboard-response",75,120607,"0.0-3.21-1.21","soquxg8t4a9rxk5",882,"199.csv","","null","resources/maskTrios/BT2B.jpg","null","",NA,NA,NA,NA,""
"image-keyboard-response",76,121825,"0.0-3.21-2.21","soquxg8t4a9rxk5",882,"199.csv","","null","resources/images/coin2.png","null","",NA,NA,NA,NA,""
"image-keyboard-response",77,122263,"0.0-3.22-0.22","soquxg8t4a9rxk5",882,"199.csv","","436.39999985694885","resources/trios/L1T2A1.jpg","38","restless",0.1,0.7,0.7,0.579863573946126,"true"
"image-keyboard-response",78,122677,"0.0-3.22-1.22","soquxg8t4a9rxk5",882,"199.csv","","null","resources/maskTrios/BT2B.jpg","null","",NA,NA,NA,NA,""
"image-keyboard-response",79,123895,"0.0-3.22-2.22","soquxg8t4a9rxk5",882,"199.csv","","null","resources/images/coin2.png","null","",NA,NA,NA,NA,""
"image-keyboard-response",80,124327,"0.0-3.23-0.23","soquxg8t4a9rxk5",882,"199.csv","","431.10000014305115","resources/trios/L1T4A1.jpg","38","restless",0.1,0.7,0.7,0.995898844327606,"false"
"image-keyboard-response",81,124742,"0.0-3.23-1.23","soquxg8t4a9rxk5",882,"199.csv","","null","resources/maskTrios/BT4B.jpg","null","",NA,NA,NA,NA,""
"image-keyboard-response",82,125950,"0.0-3.23-2.23","soquxg8t4a9rxk5",882,"199.csv","","null","resources/images/fishbone.png","null","",NA,NA,NA,NA,""
"image-keyboard-response",83,126568,"0.0-3.24-0.24","soquxg8t4a9rxk5",882,"199.csv","","615.9000000953674","resources/trios/L1T2A2.jpg","38","restless",0.2,0.7,0.7,0.486741256297494,"true"
"image-keyboard-response",84,126992,"0.0-3.24-1.24","soquxg8t4a9rxk5",882,"199.csv","","null","resources/maskTrios/BT2B.jpg","null","",NA,NA,NA,NA,""
"image-keyboard-response",85,128206,"0.0-3.24-2.24","soquxg8t4a9rxk5",882,"199.csv","","null","resources/images/coin2.png","null","",NA,NA,NA,NA,""
"image-keyboard-response",86,128540,"0.0-3.25-0.25","soquxg8t4a9rxk5",882,"199.csv","","333","resources/trios/L4T2A2.jpg","38","restless",0.2,0.6,0.7,0.802009123060761,"false"
"image-keyboard-response",87,128959,"0.0-3.25-1.25","soquxg8t4a9rxk5",882,"199.csv","","null","resources/maskTrios/BT2B.jpg","null","",NA,NA,NA,NA,""
"image-keyboard-response",88,130178,"0.0-3.25-2.25","soquxg8t4a9rxk5",882,"199.csv","","null","resources/images/fishbone.png","null","",NA,NA,NA,NA,""
"image-keyboard-response",89,131362,"0.0-3.26-0.26","soquxg8t4a9rxk5",882,"199.csv","","1182.9000000953674","resources/trios/L1T4A1.jpg","38","restless",0.2,0.6,0.8,0.340842365850789,"true"
"image-keyboard-response",90,131774,"0.0-3.26-1.26","soquxg8t4a9rxk5",882,"199.csv","","null","resources/maskTrios/BT4B.jpg","null","",NA,NA,NA,NA,""
"image-keyboard-response",91,132982,"0.0-3.26-2.26","soquxg8t4a9rxk5",882,"199.csv","","null","resources/images/coin2.png","null","",NA,NA,NA,NA,""
"image-keyboard-response",92,133730,"0.0-3.27-0.27","soquxg8t4a9rxk5",882,"199.csv","","745.0999999046326","resources/trios/L1T2A2.jpg","39","restless",0.2,0.6,0.8,0.115165272631389,"true"
"image-keyboard-response",93,134142,"0.0-3.27-1.27","soquxg8t4a9rxk5",882,"199.csv","","null","resources/maskTrios/BBA2.jpg","null","",NA,NA,NA,NA,""
"image-keyboard-response",94,135354,"0.0-3.27-2.27","soquxg8t4a9rxk5",882,"199.csv","","null","resources/images/coin2.png","null","",NA,NA,NA,NA,""
"image-keyboard-response",95,135742,"0.0-3.28-0.28","soquxg8t4a9rxk5",882,"199.csv","","386.40000009536743","resources/trios/L4T4A2.jpg","38","restless",0.2,0.6,0.8,0.715883787255571,"false"
"image-keyboard-response",96,136155,"0.0-3.28-1.28","soquxg8t4a9rxk5",882,"199.csv","","null","resources/maskTrios/BT4B.jpg","null","",NA,NA,NA,NA,""
"image-keyboard-response",97,137362,"0.0-3.28-2.28","soquxg8t4a9rxk5",882,"199.csv","","null","resources/images/fishbone.png","null","",NA,NA,NA,NA,""
"image-keyboard-response",98,138098,"0.0-3.29-0.29","soquxg8t4a9rxk5",882,"199.csv","","733.4000000953674","resources/trios/L4T4A1.jpg","39","restless",0.2,0.5,0.8,0.706493607557297,"true"
"image-keyboard-response",99,138512,"0.0-3.29-1.29","soquxg8t4a9rxk5",882,"199.csv","","null","resources/maskTrios/BBA1.jpg","null","",NA,NA,NA,NA,""
"image-keyboard-response",100,139725,"0.0-3.29-2.29","soquxg8t4a9rxk5",882,"199.csv","","null","resources/images/coin2.png","null","",NA,NA,NA,NA,""
"image-keyboard-response",101,140329,"0.0-3.30-0.30","soquxg8t4a9rxk5",882,"199.csv","","602.9000000953674","resources/trios/L4T2A2.jpg","39","restless",0.2,0.5,0.8,0.960641722702879,"false"
"image-keyboard-response",102,140746,"0.0-3.30-1.30","soquxg8t4a9rxk5",882,"199.csv","","null","resources/maskTrios/BBA2.jpg","null","",NA,NA,NA,NA,""
"image-keyboard-response",103,141968,"0.0-3.30-2.30","soquxg8t4a9rxk5",882,"199.csv","","null","resources/images/fishbone.png","null","",NA,NA,NA,NA,""
"image-keyboard-response",104,142881,"0.0-3.31-0.31","soquxg8t4a9rxk5",882,"199.csv","","910.5999999046326","resources/trios/L4T4A1.jpg","39","restless",0.2,0.4,0.8,0.0496422080817776,"true"
"image-keyboard-response",105,143302,"0.0-3.31-1.31","soquxg8t4a9rxk5",882,"199.csv","","null","resources/maskTrios/BBA1.jpg","null","",NA,NA,NA,NA,""
"image-keyboard-response",106,144508,"0.0-3.31-2.31","soquxg8t4a9rxk5",882,"199.csv","","null","resources/images/coin2.png","null","",NA,NA,NA,NA,""
"image-keyboard-response",107,144960,"0.0-3.32-0.32","soquxg8t4a9rxk5",882,"199.csv","","448.2999999523163","resources/trios/L1T2A2.jpg","38","restless",0.2,0.4,0.8,0.381323154163673,"true"
"image-keyboard-response",108,145372,"0.0-3.32-1.32","soquxg8t4a9rxk5",882,"199.csv","","null","resources/maskTrios/BT2B.jpg","null","",NA,NA,NA,NA,""
"image-keyboard-response",109,146589,"0.0-3.32-2.32","soquxg8t4a9rxk5",882,"199.csv","","null","resources/images/coin2.png","null","",NA,NA,NA,NA,""
"image-keyboard-response",110,146985,"0.0-3.33-0.33","soquxg8t4a9rxk5",882,"199.csv","","394.90000009536743","resources/trios/L4T2A1.jpg","39","restless",0.2,0.4,0.8,0.0680380898101784,"true"
"image-keyboard-response",111,147400,"0.0-3.33-1.33","soquxg8t4a9rxk5",882,"199.csv","","null","resources/maskTrios/BBA1.jpg","null","",NA,NA,NA,NA,""
"image-keyboard-response",112,148609,"0.0-3.33-2.33","soquxg8t4a9rxk5",882,"199.csv","","null","resources/images/coin2.png","null","",NA,NA,NA,NA,""
"image-keyboard-response",113,149416,"0.0-3.34-0.34","soquxg8t4a9rxk5",882,"199.csv","","804.8999998569489","resources/trios/L1T2A2.jpg","38","restless",0.2,0.4,0.8,0.673739045488205,"false"
"image-keyboard-response",114,149836,"0.0-3.34-1.34","soquxg8t4a9rxk5",882,"199.csv","","null","resources/maskTrios/BT2B.jpg","null","",NA,NA,NA,NA,""
"image-keyboard-response",115,151043,"0.0-3.34-2.34","soquxg8t4a9rxk5",882,"199.csv","","null","resources/images/fishbone.png","null","",NA,NA,NA,NA,""
"image-keyboard-response",116,151674,"0.0-3.35-0.35","soquxg8t4a9rxk5",882,"199.csv","","629","resources/trios/L4T4A2.jpg","37","restless",0.2,0.4,0.9,0.383070710668257,"false"
"image-keyboard-response",117,152083,"0.0-3.35-1.35","soquxg8t4a9rxk5",882,"199.csv","","null","resources/maskTrios/L4BB.jpg","null","",NA,NA,NA,NA,""
"image-keyboard-response",118,153297,"0.0-3.35-2.35","soquxg8t4a9rxk5",882,"199.csv","","null","resources/images/fishbone.png","null","",NA,NA,NA,NA,""
"image-keyboard-response",119,153823,"0.0-3.36-0.36","soquxg8t4a9rxk5",882,"199.csv","","523.8999998569489","resources/trios/L1T2A2.jpg","39","restless",0.2,0.4,0.9,0.966358372439819,"false"
"image-keyboard-response",120,154233,"0.0-3.36-1.36","soquxg8t4a9rxk5",882,"199.csv","","null","resources/maskTrios/BBA2.jpg","null","",NA,NA,NA,NA,""
"image-keyboard-response",121,155444,"0.0-3.36-2.36","soquxg8t4a9rxk5",882,"199.csv","","null","resources/images/fishbone.png","null","",NA,NA,NA,NA,""
"image-keyboard-response",122,155845,"0.0-3.37-0.37","soquxg8t4a9rxk5",882,"199.csv","","398.10000014305115","resources/trios/L1T4A1.jpg","38","restless",0.2,0.4,0.9,0.574399715293947,"false"
"image-keyboard-response",123,156263,"0.0-3.37-1.37","soquxg8t4a9rxk5",882,"199.csv","","null","resources/maskTrios/BT4B.jpg","null","",NA,NA,NA,NA,""
"image-keyboard-response",124,157477,"0.0-3.37-2.37","soquxg8t4a9rxk5",882,"199.csv","","null","resources/images/fishbone.png","null","",NA,NA,NA,NA,""
"image-keyboard-response",125,158282,"0.0-3.38-0.38","soquxg8t4a9rxk5",882,"199.csv","","803.7999999523163","resources/trios/L4T2A2.jpg","38","restless",0.2,0.4,0.9,0.77597830562048,"false"
"image-keyboard-response",126,158704,"0.0-3.38-1.38","soquxg8t4a9rxk5",882,"199.csv","","null","resources/maskTrios/BT2B.jpg","null","",NA,NA,NA,NA,""
"image-keyboard-response",127,159925,"0.0-3.38-2.38","soquxg8t4a9rxk5",882,"199.csv","","null","resources/images/fishbone.png","null","",NA,NA,NA,NA,""
"image-keyboard-response",128,160363,"0.0-3.39-0.39","soquxg8t4a9rxk5",882,"199.csv","","437.10000014305115","resources/trios/L1T4A2.jpg","39","restless",0.2,0.4,0.9,0.0263736929949296,"true"
"image-keyboard-response",129,160779,"0.0-3.39-1.39","soquxg8t4a9rxk5",882,"199.csv","","null","resources/maskTrios/BBA2.jpg","null","",NA,NA,NA,NA,""
"image-keyboard-response",130,161991,"0.0-3.39-2.39","soquxg8t4a9rxk5",882,"199.csv","","null","resources/images/coin2.png","null","",NA,NA,NA,NA,""
"image-keyboard-response",131,162715,"0.0-3.40-0.40","soquxg8t4a9rxk5",882,"199.csv","","721.7999999523163","resources/trios/L4T2A1.jpg","38","restless",0.2,0.4,0.9,0.345841992620454,"true"
"image-keyboard-response",132,163128,"0.0-3.40-1.40","soquxg8t4a9rxk5",882,"199.csv","","null","resources/maskTrios/BT2B.jpg","null","",NA,NA,NA,NA,""
"image-keyboard-response",133,164345,"0.0-3.40-2.40","soquxg8t4a9rxk5",882,"199.csv","","null","resources/images/coin2.png","null","",NA,NA,NA,NA,""
"image-keyboard-response",134,164789,"0.0-3.41-0.41","soquxg8t4a9rxk5",882,"199.csv","","443.89999985694885","resources/trios/L1T4A2.jpg","39","restless",0.2,0.4,0.8,0.353160175545669,"true"
"image-keyboard-response",135,165202,"0.0-3.41-1.41","soquxg8t4a9rxk5",882,"199.csv","","null","resources/maskTrios/BBA2.jpg","null","",NA,NA,NA,NA,""
"image-keyboard-response",136,166410,"0.0-3.41-2.41","soquxg8t4a9rxk5",882,"199.csv","","null","resources/images/coin2.png","null","",NA,NA,NA,NA,""
"image-keyboard-response",137,166812,"0.0-3.42-0.42","soquxg8t4a9rxk5",882,"199.csv","","399.7999999523163","resources/trios/L4T4A1.jpg","38","restless",0.2,0.4,0.8,0.584945218723717,"false"
"image-keyboard-response",138,167226,"0.0-3.42-1.42","soquxg8t4a9rxk5",882,"199.csv","","null","resources/maskTrios/BT4B.jpg","null","",NA,NA,NA,NA,""
"image-keyboard-response",139,168440,"0.0-3.42-2.42","soquxg8t4a9rxk5",882,"199.csv","","null","resources/images/fishbone.png","null","",NA,NA,NA,NA,""
"image-keyboard-response",140,169098,"0.0-3.43-0.43","soquxg8t4a9rxk5",882,"199.csv","","657.7000000476837","resources/trios/L1T4A1.jpg","38","restless",0.2,0.4,0.8,0.896388178434771,"false"
"image-keyboard-response",141,169506,"0.0-3.43-1.43","soquxg8t4a9rxk5",882,"199.csv","","null","resources/maskTrios/BT4B.jpg","null","",NA,NA,NA,NA,""
"image-keyboard-response",142,170726,"0.0-3.43-2.43","soquxg8t4a9rxk5",882,"199.csv","","null","resources/images/fishbone.png","null","",NA,NA,NA,NA,""
"image-keyboard-response",143,171027,"0.0-3.44-0.44","soquxg8t4a9rxk5",882,"199.csv","","299.09999990463257","resources/trios/L4T2A1.jpg","39","restless",0.2,0.4,0.8,0.990040867744814,"false"
"image-keyboard-response",144,171440,"0.0-3.44-1.44","soquxg8t4a9rxk5",882,"199.csv","","null","resources/maskTrios/BBA1.jpg","null","",NA,NA,NA,NA,""
"image-keyboard-response",145,172654,"0.0-3.44-2.44","soquxg8t4a9rxk5",882,"199.csv","","null","resources/images/fishbone.png","null","",NA,NA,NA,NA,""
"image-keyboard-response",146,173148,"0.0-3.45-0.45","soquxg8t4a9rxk5",882,"199.csv","","491.7000000476837","resources/trios/L1T4A2.jpg","39","restless",0.2,0.4,0.8,0.578495402700169,"true"
"image-keyboard-response",147,173567,"0.0-3.45-1.45","soquxg8t4a9rxk5",882,"199.csv","","null","resources/maskTrios/BBA2.jpg","null","",NA,NA,NA,NA,""
"image-keyboard-response",148,174772,"0.0-3.45-2.45","soquxg8t4a9rxk5",882,"199.csv","","null","resources/images/coin2.png","null","",NA,NA,NA,NA,""
"image-keyboard-response",149,175305,"0.0-3.46-0.46","soquxg8t4a9rxk5",882,"199.csv","","531.7000000476837","resources/trios/L4T4A2.jpg","38","restless",0.2,0.4,0.8,0.971996629467403,"false"
"image-keyboard-response",150,175715,"0.0-3.46-1.46","soquxg8t4a9rxk5",882,"199.csv","","null","resources/maskTrios/BT4B.jpg","null","",NA,NA,NA,NA,""
"image-keyboard-response",151,176936,"0.0-3.46-2.46","soquxg8t4a9rxk5",882,"199.csv","","null","resources/images/fishbone.png","null","",NA,NA,NA,NA,""
"image-keyboard-response",152,177778,"0.0-3.47-0.47","soquxg8t4a9rxk5",882,"199.csv","","852","resources/trios/L1T2A1.jpg","39","restless",0.2,0.4,0.8,0.960682172591486,"false"
"image-keyboard-response",153,178194,"0.0-3.47-1.47","soquxg8t4a9rxk5",882,"199.csv","","null","resources/maskTrios/BBA1.jpg","null","",NA,NA,NA,NA,""
"image-keyboard-response",154,179411,"0.0-3.47-2.47","soquxg8t4a9rxk5",882,"199.csv","","null","resources/images/fishbone.png","null","",NA,NA,NA,NA,""
"image-keyboard-response",155,179833,"0.0-3.48-0.48","soquxg8t4a9rxk5",882,"199.csv","","420.09999990463257","resources/trios/L1T4A1.jpg","39","restless",0.2,0.4,0.8,0.469099162510294,"true"
"image-keyboard-response",156,180246,"0.0-3.48-1.48","soquxg8t4a9rxk5",882,"199.csv","","null","resources/maskTrios/BBA1.jpg","null","",NA,NA,NA,NA,""
"image-keyboard-response",157,181456,"0.0-3.48-2.48","soquxg8t4a9rxk5",882,"199.csv","","null","resources/images/coin2.png","null","",NA,NA,NA,NA,""
"image-keyboard-response",158,181803,"0.0-3.49-0.49","soquxg8t4a9rxk5",882,"199.csv","","346.7999999523163","resources/trios/L1T2A2.jpg","37","restless",0.1,0.4,0.8,0.821312629127674,"false"
"image-keyboard-response",159,182211,"0.0-3.49-1.49","soquxg8t4a9rxk5",882,"199.csv","","null","resources/maskTrios/L1BB.jpg","null","",NA,NA,NA,NA,""
"image-keyboard-response",160,183427,"0.0-3.49-2.49","soquxg8t4a9rxk5",882,"199.csv","","null","resources/images/fishbone.png","null","",NA,NA,NA,NA,""
"image-keyboard-response",161,183834,"0.0-3.50-0.50","soquxg8t4a9rxk5",882,"199.csv","","405.89999985694885","resources/trios/L1T2A2.jpg","38","restless",0.1,0.5,0.8,0.223784313300735,"true"
"image-keyboard-response",162,184244,"0.0-3.50-1.50","soquxg8t4a9rxk5",882,"199.csv","","null","resources/maskTrios/BT2B.jpg","null","",NA,NA,NA,NA,""
"image-keyboard-response",163,185451,"0.0-3.50-2.50","soquxg8t4a9rxk5",882,"199.csv","","null","resources/images/coin2.png","null","",NA,NA,NA,NA,""
"image-keyboard-response",164,185992,"0.0-3.51-0.51","soquxg8t4a9rxk5",882,"199.csv","","539.7999999523163","resources/trios/L1T2A2.jpg","39","restless",0.1,0.5,0.8,0.4084216684513,"true"
"image-keyboard-response",165,186414,"0.0-3.51-1.51","soquxg8t4a9rxk5",882,"199.csv","","null","resources/maskTrios/BBA2.jpg","null","",NA,NA,NA,NA,""
"image-keyboard-response",166,187635,"0.0-3.51-2.51","soquxg8t4a9rxk5",882,"199.csv","","null","resources/images/coin2.png","null","",NA,NA,NA,NA,""
"image-keyboard-response",167,190070,"0.0-3.52-0.52","soquxg8t4a9rxk5",882,"199.csv","","2432.2000000476837","resources/trios/L4T2A1.jpg","38","restless",0.1,0.5,0.8,0.787005651657213,"false"
"image-keyboard-response",168,190480,"0.0-3.52-1.52","soquxg8t4a9rxk5",882,"199.csv","","null","resources/maskTrios/BT2B.jpg","null","",NA,NA,NA,NA,""
"image-keyboard-response",169,191688,"0.0-3.52-2.52","soquxg8t4a9rxk5",882,"199.csv","","null","resources/images/fishbone.png","null","",NA,NA,NA,NA,""
"image-keyboard-response",170,192072,"0.0-3.53-0.53","soquxg8t4a9rxk5",882,"199.csv","","381.09999990463257","resources/trios/L1T4A2.jpg","39","restless",0.1,0.5,0.8,0.987143805467007,"false"
"image-keyboard-response",171,192481,"0.0-3.53-1.53","soquxg8t4a9rxk5",882,"199.csv","","null","resources/maskTrios/BBA2.jpg","null","",NA,NA,NA,NA,""
"image-keyboard-response",172,193703,"0.0-3.53-2.53","soquxg8t4a9rxk5",882,"199.csv","","null","resources/images/fishbone.png","null","",NA,NA,NA,NA,""
"image-keyboard-response",173,194069,"0.0-3.54-0.54","soquxg8t4a9rxk5",882,"199.csv","","364.2000000476837","resources/trios/L1T2A2.jpg","39","restless",0.1,0.5,0.8,0.292576038427545,"true"
"image-keyboard-response",174,194488,"0.0-3.54-1.54","soquxg8t4a9rxk5",882,"199.csv","","null","resources/maskTrios/BBA2.jpg","null","",NA,NA,NA,NA,""
"image-keyboard-response",175,195703,"0.0-3.54-2.54","soquxg8t4a9rxk5",882,"199.csv","","null","resources/images/coin2.png","null","",NA,NA,NA,NA,""
"image-keyboard-response",176,196155,"0.0-3.55-0.55","soquxg8t4a9rxk5",882,"199.csv","","449.60000014305115","resources/trios/L4T4A1.jpg","38","restless",0.1,0.5,0.8,0.701077114993209,"false"
"image-keyboard-response",177,196568,"0.0-3.55-1.55","soquxg8t4a9rxk5",882,"199.csv","","null","resources/maskTrios/BT4B.jpg","null","",NA,NA,NA,NA,""
"image-keyboard-response",178,197786,"0.0-3.55-2.55","soquxg8t4a9rxk5",882,"199.csv","","null","resources/images/fishbone.png","null","",NA,NA,NA,NA,""
"image-keyboard-response",179,198143,"0.0-3.56-0.56","soquxg8t4a9rxk5",882,"199.csv","","356.2000000476837","resources/trios/L4T4A1.jpg","38","restless",0.1,0.5,0.7,0.279127838950388,"true"
"image-keyboard-response",180,198556,"0.0-3.56-1.56","soquxg8t4a9rxk5",882,"199.csv","","null","resources/maskTrios/BT4B.jpg","null","",NA,NA,NA,NA,""
"image-keyboard-response",181,199772,"0.0-3.56-2.56","soquxg8t4a9rxk5",882,"199.csv","","null","resources/images/coin2.png","null","",NA,NA,NA,NA,""
"image-keyboard-response",182,200120,"0.0-3.57-0.57","soquxg8t4a9rxk5",882,"199.csv","","346.90000009536743","resources/trios/L1T4A2.jpg","39","restless",0.2,0.5,0.7,0.87534963466707,"false"
"image-keyboard-response",183,200535,"0.0-3.57-1.57","soquxg8t4a9rxk5",882,"199.csv","","null","resources/maskTrios/BBA2.jpg","null","",NA,NA,NA,NA,""
"image-keyboard-response",184,201750,"0.0-3.57-2.57","soquxg8t4a9rxk5",882,"199.csv","","null","resources/images/fishbone.png","null","",NA,NA,NA,NA,""
"image-keyboard-response",185,202417,"0.0-3.58-0.58","soquxg8t4a9rxk5",882,"199.csv","","666.5","resources/trios/L4T2A2.jpg","37","restless",0.3,0.5,0.7,0.94683641361259,"false"
"image-keyboard-response",186,202834,"0.0-3.58-1.58","soquxg8t4a9rxk5",882,"199.csv","","null","resources/maskTrios/L4BB.jpg","null","",NA,NA,NA,NA,""
"image-keyboard-response",187,204047,"0.0-3.58-2.58","soquxg8t4a9rxk5",882,"199.csv","","null","resources/images/fishbone.png","null","",NA,NA,NA,NA,""
"image-keyboard-response",188,204405,"0.0-3.59-0.59","soquxg8t4a9rxk5",882,"199.csv","","356.5","resources/trios/L4T2A1.jpg","38","restless",0.3,0.5,0.6,0.145580221336491,"true"
"image-keyboard-response",189,204818,"0.0-3.59-1.59","soquxg8t4a9rxk5",882,"199.csv","","null","resources/maskTrios/BT2B.jpg","null","",NA,NA,NA,NA,""
"image-keyboard-response",190,206034,"0.0-3.59-2.59","soquxg8t4a9rxk5",882,"199.csv","","null","resources/images/coin2.png","null","",NA,NA,NA,NA,""
"image-keyboard-response",191,206438,"0.0-3.60-0.60","soquxg8t4a9rxk5",882,"199.csv","","401.80000019073486","resources/trios/L1T2A1.jpg","39","restless",0.3,0.5,0.6,0.280769510355732,"true"
"image-keyboard-response",192,206850,"0.0-3.60-1.60","soquxg8t4a9rxk5",882,"199.csv","","null","resources/maskTrios/BBA1.jpg","null","",NA,NA,NA,NA,""
"image-keyboard-response",193,208058,"0.0-3.60-2.60","soquxg8t4a9rxk5",882,"199.csv","","null","resources/images/coin2.png","null","",NA,NA,NA,NA,""
"image-keyboard-response",194,208425,"0.0-3.61-0.61","soquxg8t4a9rxk5",882,"199.csv","","364.7000000476837","resources/trios/L4T4A2.jpg","38","restless",0.3,0.5,0.6,0.00326044539264125,"true"
"image-keyboard-response",195,208834,"0.0-3.61-1.61","soquxg8t4a9rxk5",882,"199.csv","","null","resources/maskTrios/BT4B.jpg","null","",NA,NA,NA,NA,""
"image-keyboard-response",196,210039,"0.0-3.61-2.61","soquxg8t4a9rxk5",882,"199.csv","","null","resources/images/coin2.png","null","",NA,NA,NA,NA,""
"image-keyboard-response",197,210351,"0.0-3.62-0.62","soquxg8t4a9rxk5",882,"199.csv","","311.5","resources/trios/L4T2A1.jpg","37","restless",0.3,0.4,0.5,0.535599261267553,"false"
"image-keyboard-response",198,210761,"0.0-3.62-1.62","soquxg8t4a9rxk5",882,"199.csv","","null","resources/maskTrios/L4BB.jpg","null","",NA,NA,NA,NA,""
"image-keyboard-response",199,211982,"0.0-3.62-2.62","soquxg8t4a9rxk5",882,"199.csv","","null","resources/images/fishbone.png","null","",NA,NA,NA,NA,""
"image-keyboard-response",200,212372,"0.0-3.63-0.63","soquxg8t4a9rxk5",882,"199.csv","","387.2999999523163","resources/trios/L1T4A2.jpg","38","restless",0.3,0.3,0.5,0.277495335776649,"true"
"image-keyboard-response",201,212782,"0.0-3.63-1.63","soquxg8t4a9rxk5",882,"199.csv","","null","resources/maskTrios/BT4B.jpg","null","",NA,NA,NA,NA,""
"image-keyboard-response",202,213994,"0.0-3.63-2.63","soquxg8t4a9rxk5",882,"199.csv","","null","resources/images/coin2.png","null","",NA,NA,NA,NA,""
"image-keyboard-response",203,214284,"0.0-3.64-0.64","soquxg8t4a9rxk5",882,"199.csv","","289.40000009536743","resources/trios/L4T2A1.jpg","39","restless",0.3,0.3,0.4,0.687962685386782,"false"
"image-keyboard-response",204,214698,"0.0-3.64-1.64","soquxg8t4a9rxk5",882,"199.csv","","null","resources/maskTrios/BBA1.jpg","null","",NA,NA,NA,NA,""
"image-keyboard-response",205,215910,"0.0-3.64-2.64","soquxg8t4a9rxk5",882,"199.csv","","null","resources/images/fishbone.png","null","",NA,NA,NA,NA,""
"image-keyboard-response",206,216396,"0.0-3.65-0.65","soquxg8t4a9rxk5",882,"199.csv","","484","resources/trios/L1T2A1.jpg","38","restless",0.3,0.3,0.4,0.0120962356040939,"true"
"image-keyboard-response",207,216812,"0.0-3.65-1.65","soquxg8t4a9rxk5",882,"199.csv","","null","resources/maskTrios/BT2B.jpg","null","",NA,NA,NA,NA,""
"image-keyboard-response",208,218020,"0.0-3.65-2.65","soquxg8t4a9rxk5",882,"199.csv","","null","resources/images/coin2.png","null","",NA,NA,NA,NA,""
"image-keyboard-response",209,218386,"0.0-3.66-0.66","soquxg8t4a9rxk5",882,"199.csv","","364","resources/trios/L1T2A2.jpg","39","restless",0.2,0.3,0.3,0.0961780651438033,"true"
"image-keyboard-response",210,218795,"0.0-3.66-1.66","soquxg8t4a9rxk5",882,"199.csv","","null","resources/maskTrios/BBA2.jpg","null","",NA,NA,NA,NA,""
"image-keyboard-response",211,220008,"0.0-3.66-2.66","soquxg8t4a9rxk5",882,"199.csv","","null","resources/images/coin2.png","null","",NA,NA,NA,NA,""
"image-keyboard-response",212,220293,"0.0-3.67-0.67","soquxg8t4a9rxk5",882,"199.csv","","283.5","resources/trios/L1T4A2.jpg","38","restless",0.2,0.3,0.3,0.0681203935408741,"true"
"image-keyboard-response",213,220713,"0.0-3.67-1.67","soquxg8t4a9rxk5",882,"199.csv","","null","resources/maskTrios/BT4B.jpg","null","",NA,NA,NA,NA,""
"image-keyboard-response",214,221920,"0.0-3.67-2.67","soquxg8t4a9rxk5",882,"199.csv","","null","resources/images/coin2.png","null","",NA,NA,NA,NA,""
"image-keyboard-response",215,222257,"0.0-3.68-0.68","soquxg8t4a9rxk5",882,"199.csv","","336","resources/trios/L4T2A1.jpg","39","restless",0.2,0.4,0.3,0.502241396835778,"false"
"image-keyboard-response",216,222677,"0.0-3.68-1.68","soquxg8t4a9rxk5",882,"199.csv","","null","resources/maskTrios/BBA1.jpg","null","",NA,NA,NA,NA,""
"image-keyboard-response",217,223890,"0.0-3.68-2.68","soquxg8t4a9rxk5",882,"199.csv","","null","resources/images/fishbone.png","null","",NA,NA,NA,NA,""
"image-keyboard-response",218,224210,"0.0-3.69-0.69","soquxg8t4a9rxk5",882,"199.csv","","317.7000000476837","resources/trios/L1T2A2.jpg","38","restless",0.2,0.4,0.3,0.0750382585523255,"true"
"image-keyboard-response",219,224626,"0.0-3.69-1.69","soquxg8t4a9rxk5",882,"199.csv","","null","resources/maskTrios/BT2B.jpg","null","",NA,NA,NA,NA,""
"image-keyboard-response",220,225841,"0.0-3.69-2.69","soquxg8t4a9rxk5",882,"199.csv","","null","resources/images/coin2.png","null","",NA,NA,NA,NA,""
"image-keyboard-response",221,226119,"0.0-3.70-0.70","soquxg8t4a9rxk5",882,"199.csv","","276.7999999523163","resources/trios/L1T4A2.jpg","39","restless",0.2,0.4,0.2,0.117337733759373,"true"
"image-keyboard-response",222,226542,"0.0-3.70-1.70","soquxg8t4a9rxk5",882,"199.csv","","null","resources/maskTrios/BBA2.jpg","null","",NA,NA,NA,NA,""
"image-keyboard-response",223,227758,"0.0-3.70-2.70","soquxg8t4a9rxk5",882,"199.csv","","null","resources/images/coin2.png","null","",NA,NA,NA,NA,""
"image-keyboard-response",224,229019,"0.0-3.71-0.71","soquxg8t4a9rxk5",882,"199.csv","","1259.2000000476837","resources/trios/L4T2A1.jpg","38","restless",0.2,0.4,0.2,0.443977088248492,"false"
"image-keyboard-response",225,229426,"0.0-3.71-1.71","soquxg8t4a9rxk5",882,"199.csv","","null","resources/maskTrios/BT2B.jpg","null","",NA,NA,NA,NA,""
"image-keyboard-response",226,230637,"0.0-3.71-2.71","soquxg8t4a9rxk5",882,"199.csv","","null","resources/images/fishbone.png","null","",NA,NA,NA,NA,""
"image-keyboard-response",227,230949,"0.0-3.72-0.72","soquxg8t4a9rxk5",882,"199.csv","","310","resources/trios/L1T4A2.jpg","38","restless",0.2,0.4,0.2,0.0447986376186671,"true"
"image-keyboard-response",228,231358,"0.0-3.72-1.72","soquxg8t4a9rxk5",882,"199.csv","","null","resources/maskTrios/BT4B.jpg","null","",NA,NA,NA,NA,""
"image-keyboard-response",229,232569,"0.0-3.72-2.72","soquxg8t4a9rxk5",882,"199.csv","","null","resources/images/coin2.png","null","",NA,NA,NA,NA,""
"image-keyboard-response",230,232874,"0.0-3.73-0.73","soquxg8t4a9rxk5",882,"199.csv","","303.2000000476837","resources/trios/L4T4A1.jpg","39","restless",0.2,0.4,0.2,0.534251736913786,"false"
"image-keyboard-response",231,233289,"0.0-3.73-1.73","soquxg8t4a9rxk5",882,"199.csv","","null","resources/maskTrios/BBA1.jpg","null","",NA,NA,NA,NA,""
"image-keyboard-response",232,234512,"0.0-3.73-2.73","soquxg8t4a9rxk5",882,"199.csv","","null","resources/images/fishbone.png","null","",NA,NA,NA,NA,""
"image-keyboard-response",233,235008,"0.0-3.74-0.74","soquxg8t4a9rxk5",882,"199.csv","","495","resources/trios/L4T4A1.jpg","38","restless",0.2,0.4,0.2,0.753231723608224,"false"
"image-keyboard-response",234,235425,"0.0-3.74-1.74","soquxg8t4a9rxk5",882,"199.csv","","null","resources/maskTrios/BT4B.jpg","null","",NA,NA,NA,NA,""
"image-keyboard-response",235,236645,"0.0-3.74-2.74","soquxg8t4a9rxk5",882,"199.csv","","null","resources/images/fishbone.png","null","",NA,NA,NA,NA,""
"image-keyboard-response",236,237196,"0.0-3.75-0.75","soquxg8t4a9rxk5",882,"199.csv","","550.2000000476837","resources/trios/L1T4A2.jpg","38","restless",0.2,0.4,0.2,0.0735384939862582,"true"
"image-keyboard-response",237,237607,"0.0-3.75-1.75","soquxg8t4a9rxk5",882,"199.csv","","null","resources/maskTrios/BT4B.jpg","null","",NA,NA,NA,NA,""
"image-keyboard-response",238,238828,"0.0-3.75-2.75","soquxg8t4a9rxk5",882,"199.csv","","null","resources/images/coin2.png","null","",NA,NA,NA,NA,""
"image-keyboard-response",239,239401,"0.0-3.76-0.76","soquxg8t4a9rxk5",882,"199.csv","","570.7999999523163","resources/trios/L4T4A1.jpg","37","restless",0.2,0.4,0.2,0.146819814231209,"true"
"image-keyboard-response",240,239807,"0.0-3.76-1.76","soquxg8t4a9rxk5",882,"199.csv","","null","resources/maskTrios/L4BB.jpg","null","",NA,NA,NA,NA,""
"image-keyboard-response",241,241021,"0.0-3.76-2.76","soquxg8t4a9rxk5",882,"199.csv","","null","resources/images/coin2.png","null","",NA,NA,NA,NA,""
"image-keyboard-response",242,241396,"0.0-3.77-0.77","soquxg8t4a9rxk5",882,"199.csv","","373.90000009536743","resources/trios/L4T2A2.jpg","38","restless",0.2,0.4,0.2,0.243931837031643,"true"
"image-keyboard-response",243,241813,"0.0-3.77-1.77","soquxg8t4a9rxk5",882,"199.csv","","null","resources/maskTrios/BT2B.jpg","null","",NA,NA,NA,NA,""
"image-keyboard-response",244,243028,"0.0-3.77-2.77","soquxg8t4a9rxk5",882,"199.csv","","null","resources/images/coin2.png","null","",NA,NA,NA,NA,""
"image-keyboard-response",245,243301,"0.0-3.78-0.78","soquxg8t4a9rxk5",882,"199.csv","","271.40000009536743","resources/trios/L4T4A1.jpg","39","restless",0.2,0.4,0.2,0.565081391574121,"false"
"image-keyboard-response",246,243715,"0.0-3.78-1.78","soquxg8t4a9rxk5",882,"199.csv","","null","resources/maskTrios/BBA1.jpg","null","",NA,NA,NA,NA,""
"image-keyboard-response",247,244926,"0.0-3.78-2.78","soquxg8t4a9rxk5",882,"199.csv","","null","resources/images/fishbone.png","null","",NA,NA,NA,NA,""
"image-keyboard-response",248,245209,"0.0-3.79-0.79","soquxg8t4a9rxk5",882,"199.csv","","280.7000000476837","resources/trios/L1T2A2.jpg","38","restless",0.2,0.4,0.3,0.425029981756099,"false"
"image-keyboard-response",249,245629,"0.0-3.79-1.79","soquxg8t4a9rxk5",882,"199.csv","","null","resources/maskTrios/BT2B.jpg","null","",NA,NA,NA,NA,""
"image-keyboard-response",250,246844,"0.0-3.79-2.79","soquxg8t4a9rxk5",882,"199.csv","","null","resources/images/fishbone.png","null","",NA,NA,NA,NA,""
"image-keyboard-response",251,247053,"0.0-3.80-0.80","soquxg8t4a9rxk5",882,"199.csv","","208.79999995231628","resources/trios/L1T2A1.jpg","38","restless",0.2,0.3,0.3,0.279560817750386,"true"
"image-keyboard-response",252,247461,"0.0-3.80-1.80","soquxg8t4a9rxk5",882,"199.csv","","null","resources/maskTrios/BT2B.jpg","null","",NA,NA,NA,NA,""
"image-keyboard-response",253,248667,"0.0-3.80-2.80","soquxg8t4a9rxk5",882,"199.csv","","null","resources/images/coin2.png","null","",NA,NA,NA,NA,""
"image-keyboard-response",254,249012,"0.0-3.81-0.81","soquxg8t4a9rxk5",882,"199.csv","","342.90000009536743","resources/trios/L4T2A2.jpg","37","restless",0.2,0.3,0.3,0.789391887180884,"false"
"image-keyboard-response",255,249427,"0.0-3.81-1.81","soquxg8t4a9rxk5",882,"199.csv","","null","resources/maskTrios/L4BB.jpg","null","",NA,NA,NA,NA,""
"image-keyboard-response",256,250640,"0.0-3.81-2.81","soquxg8t4a9rxk5",882,"199.csv","","null","resources/images/fishbone.png","null","",NA,NA,NA,NA,""
"image-keyboard-response",257,250938,"0.0-3.82-0.82","soquxg8t4a9rxk5",882,"199.csv","","297.2000000476837","resources/trios/L4T2A2.jpg","38","restless",0.2,0.3,0.3,0.685158120727249,"false"
"image-keyboard-response",258,251361,"0.0-3.82-1.82","soquxg8t4a9rxk5",882,"199.csv","","null","resources/maskTrios/BT2B.jpg","null","",NA,NA,NA,NA,""
"image-keyboard-response",259,252564,"0.0-3.82-2.82","soquxg8t4a9rxk5",882,"199.csv","","null","resources/images/fishbone.png","null","",NA,NA,NA,NA,""
"image-keyboard-response",260,253525,"0.0-3.83-0.83","soquxg8t4a9rxk5",882,"199.csv","","959.0999999046326","resources/trios/L4T2A2.jpg","39","restless",0.2,0.3,0.3,0.574705681810722,"false"
"image-keyboard-response",261,253943,"0.0-3.83-1.83","soquxg8t4a9rxk5",882,"199.csv","","null","resources/maskTrios/BBA2.jpg","null","",NA,NA,NA,NA,""
"image-keyboard-response",262,255156,"0.0-3.83-2.83","soquxg8t4a9rxk5",882,"199.csv","","null","resources/images/fishbone.png","null","",NA,NA,NA,NA,""
"image-keyboard-response",263,255680,"0.0-3.84-0.84","soquxg8t4a9rxk5",882,"199.csv","","521.3999998569489","resources/trios/L1T2A1.jpg","38","restless",0.2,0.2,0.3,0.721589473413778,"false"
"image-keyboard-response",264,256093,"0.0-3.84-1.84","soquxg8t4a9rxk5",882,"199.csv","","null","resources/maskTrios/BT2B.jpg","null","",NA,NA,NA,NA,""
"image-keyboard-response",265,257305,"0.0-3.84-2.84","soquxg8t4a9rxk5",882,"199.csv","","null","resources/images/fishbone.png","null","",NA,NA,NA,NA,""
"image-keyboard-response",266,257576,"0.0-3.85-0.85","soquxg8t4a9rxk5",882,"199.csv","","268.39999985694885","resources/trios/L4T2A1.jpg","37","restless",0.2,0.3,0.3,0.586413683562314,"false"
"image-keyboard-response",267,257992,"0.0-3.85-1.85","soquxg8t4a9rxk5",882,"199.csv","","null","resources/maskTrios/L4BB.jpg","null","",NA,NA,NA,NA,""
"image-keyboard-response",268,259203,"0.0-3.85-2.85","soquxg8t4a9rxk5",882,"199.csv","","null","resources/images/fishbone.png","null","",NA,NA,NA,NA,""
"image-keyboard-response",269,259567,"0.0-3.86-0.86","soquxg8t4a9rxk5",882,"199.csv","","363.40000009536743","resources/trios/L4T4A1.jpg","39","restless",0.2,0.3,0.3,0.510224580695079,"false"
"image-keyboard-response",270,259974,"0.0-3.86-1.86","soquxg8t4a9rxk5",882,"199.csv","","null","resources/maskTrios/BBA1.jpg","null","",NA,NA,NA,NA,""
"image-keyboard-response",271,261184,"0.0-3.86-2.86","soquxg8t4a9rxk5",882,"199.csv","","null","resources/images/fishbone.png","null","",NA,NA,NA,NA,""
"image-keyboard-response",272,261459,"0.0-3.87-0.87","soquxg8t4a9rxk5",882,"199.csv","","274.2999999523163","resources/trios/L4T4A2.jpg","38","restless",0.2,0.3,0.3,0.321898591049772,"false"
"image-keyboard-response",273,261871,"0.0-3.87-1.87","soquxg8t4a9rxk5",882,"199.csv","","null","resources/maskTrios/BT4B.jpg","null","",NA,NA,NA,NA,""
"image-keyboard-response",274,263086,"0.0-3.87-2.87","soquxg8t4a9rxk5",882,"199.csv","","null","resources/images/fishbone.png","null","",NA,NA,NA,NA,""
"image-keyboard-response",275,263313,"0.0-3.88-0.88","soquxg8t4a9rxk5",882,"199.csv","","224.69999980926514","resources/trios/L4T4A2.jpg","38","restless",0.2,0.3,0.4,0.861702833905902,"false"
"image-keyboard-response",276,263723,"0.0-3.88-1.88","soquxg8t4a9rxk5",882,"199.csv","","null","resources/maskTrios/BT4B.jpg","null","",NA,NA,NA,NA,""
"image-keyboard-response",277,264934,"0.0-3.88-2.88","soquxg8t4a9rxk5",882,"199.csv","","null","resources/images/fishbone.png","null","",NA,NA,NA,NA,""
"image-keyboard-response",278,265125,"0.0-3.89-0.89","soquxg8t4a9rxk5",882,"199.csv","","189.29999995231628","resources/trios/L1T4A1.jpg","38","restless",0.2,0.3,0.5,0.603719371458627,"false"
"image-keyboard-response",279,265539,"0.0-3.89-1.89","soquxg8t4a9rxk5",882,"199.csv","","null","resources/maskTrios/BT4B.jpg","null","",NA,NA,NA,NA,""
"image-keyboard-response",280,266762,"0.0-3.89-2.89","soquxg8t4a9rxk5",882,"199.csv","","null","resources/images/fishbone.png","null","",NA,NA,NA,NA,""
"image-keyboard-response",281,267166,"0.0-3.90-0.90","soquxg8t4a9rxk5",882,"199.csv","","402.80000019073486","resources/trios/L1T2A1.jpg","39","restless",0.2,0.3,0.5,0.479730100355737,"true"
"image-keyboard-response",282,267577,"0.0-3.90-1.90","soquxg8t4a9rxk5",882,"199.csv","","null","resources/maskTrios/BBA1.jpg","null","",NA,NA,NA,NA,""
"image-keyboard-response",283,268789,"0.0-3.90-2.90","soquxg8t4a9rxk5",882,"199.csv","","null","resources/images/coin2.png","null","",NA,NA,NA,NA,""
"image-keyboard-response",284,269852,"0.0-3.91-0.91","soquxg8t4a9rxk5",882,"199.csv","","1061.2000000476837","resources/trios/L4T4A1.jpg","39","restless",0.3,0.3,0.5,0.796793381104052,"false"
"image-keyboard-response",285,270269,"0.0-3.91-1.91","soquxg8t4a9rxk5",882,"199.csv","","null","resources/maskTrios/BBA1.jpg","null","",NA,NA,NA,NA,""
"image-keyboard-response",286,271478,"0.0-3.91-2.91","soquxg8t4a9rxk5",882,"199.csv","","null","resources/images/fishbone.png","null","",NA,NA,NA,NA,""
"image-keyboard-response",287,271941,"0.0-3.92-0.92","soquxg8t4a9rxk5",882,"199.csv","","461.2999999523163","resources/trios/L4T2A2.jpg","39","restless",0.3,0.3,0.5,0.175482091242101,"true"
"image-keyboard-response",288,272351,"0.0-3.92-1.92","soquxg8t4a9rxk5",882,"199.csv","","null","resources/maskTrios/BBA2.jpg","null","",NA,NA,NA,NA,""
"image-keyboard-response",289,273565,"0.0-3.92-2.92","soquxg8t4a9rxk5",882,"199.csv","","null","resources/images/coin2.png","null","",NA,NA,NA,NA,""
"image-keyboard-response",290,274400,"0.0-3.93-0.93","soquxg8t4a9rxk5",882,"199.csv","","833.2999999523163","resources/trios/L1T4A1.jpg","39","restless",0.3,0.3,0.5,0.858049701931731,"false"
"image-keyboard-response",291,274817,"0.0-3.93-1.93","soquxg8t4a9rxk5",882,"199.csv","","null","resources/maskTrios/BBA1.jpg","null","",NA,NA,NA,NA,""
"image-keyboard-response",292,276031,"0.0-3.93-2.93","soquxg8t4a9rxk5",882,"199.csv","","null","resources/images/fishbone.png","null","",NA,NA,NA,NA,""
"image-keyboard-response",293,276848,"0.0-3.94-0.94","soquxg8t4a9rxk5",882,"199.csv","","815.2999999523163","resources/trios/L4T2A2.jpg","37","restless",0.3,0.3,0.5,0.813764879137323,"false"
"image-keyboard-response",294,277265,"0.0-3.94-1.94","soquxg8t4a9rxk5",882,"199.csv","","null","resources/maskTrios/L4BB.jpg","null","",NA,NA,NA,NA,""
"image-keyboard-response",295,278479,"0.0-3.94-2.94","soquxg8t4a9rxk5",882,"199.csv","","null","resources/images/fishbone.png","null","",NA,NA,NA,NA,""
"image-keyboard-response",296,279123,"0.0-3.95-0.95","soquxg8t4a9rxk5",882,"199.csv","","641.3000001907349","resources/trios/L4T4A2.jpg","38","restless",0.3,0.3,0.5,0.0935657135997447,"true"
"image-keyboard-response",297,279534,"0.0-3.95-1.95","soquxg8t4a9rxk5",882,"199.csv","","null","resources/maskTrios/BT4B.jpg","null","",NA,NA,NA,NA,""
"image-keyboard-response",298,280740,"0.0-3.95-2.95","soquxg8t4a9rxk5",882,"199.csv","","null","resources/images/coin2.png","null","",NA,NA,NA,NA,""
"image-keyboard-response",299,285527,"0.0-3.96-0.96","soquxg8t4a9rxk5",882,"199.csv","","4784.600000143051","resources/trios/L4T2A1.jpg","39","restless",0.3,0.4,0.5,0.326736554622165,"true"
"image-keyboard-response",300,285931,"0.0-3.96-1.96","soquxg8t4a9rxk5",882,"199.csv","","null","resources/maskTrios/BBA1.jpg","null","",NA,NA,NA,NA,""
"image-keyboard-response",301,287142,"0.0-3.96-2.96","soquxg8t4a9rxk5",882,"199.csv","","null","resources/images/coin2.png","null","",NA,NA,NA,NA,""
"image-keyboard-response",302,288943,"0.0-3.97-0.97","soquxg8t4a9rxk5",882,"199.csv","","1799.1000001430511","resources/trios/L4T2A1.jpg","39","restless",0.3,0.4,0.5,0.880210047511626,"false"
"image-keyboard-response",303,289361,"0.0-3.97-1.97","soquxg8t4a9rxk5",882,"199.csv","","null","resources/maskTrios/BBA1.jpg","null","",NA,NA,NA,NA,""
"image-keyboard-response",304,290572,"0.0-3.97-2.97","soquxg8t4a9rxk5",882,"199.csv","","null","resources/images/fishbone.png","null","",NA,NA,NA,NA,""
"image-keyboard-response",305,291008,"0.0-3.98-0.98","soquxg8t4a9rxk5",882,"199.csv","","434.40000009536743","resources/trios/L1T4A1.jpg","38","restless",0.3,0.4,0.5,0.729870462614163,"false"
"image-keyboard-response",306,291412,"0.0-3.98-1.98","soquxg8t4a9rxk5",882,"199.csv","","null","resources/maskTrios/BT4B.jpg","null","",NA,NA,NA,NA,""
"image-keyboard-response",307,292626,"0.0-3.98-2.98","soquxg8t4a9rxk5",882,"199.csv","","null","resources/images/fishbone.png","null","",NA,NA,NA,NA,""
"image-keyboard-response",308,293426,"0.0-3.99-0.99","soquxg8t4a9rxk5",882,"199.csv","","797.7000000476837","resources/trios/L1T4A1.jpg","37","restless",0.4,0.4,0.5,0.578112640447326,"false"
"image-keyboard-response",309,293842,"0.0-3.99-1.99","soquxg8t4a9rxk5",882,"199.csv","","null","resources/maskTrios/L1BB.jpg","null","",NA,NA,NA,NA,""
"image-keyboard-response",310,295055,"0.0-3.99-2.99","soquxg8t4a9rxk5",882,"199.csv","","null","resources/images/fishbone.png","null","",NA,NA,NA,NA,""
"image-keyboard-response",311,296897,"0.0-3.100-0.100","soquxg8t4a9rxk5",882,"199.csv","","1839.7000000476837","resources/trios/L1T4A1.jpg","39","restless",0.4,0.5,0.5,0.0538271654286893,"true"
"image-keyboard-response",312,297304,"0.0-3.100-1.100","soquxg8t4a9rxk5",882,"199.csv","","null","resources/maskTrios/BBA1.jpg","null","",NA,NA,NA,NA,""
"image-keyboard-response",313,298527,"0.0-3.100-2.100","soquxg8t4a9rxk5",882,"199.csv","","null","resources/images/coin2.png","null","",NA,NA,NA,NA,""
"image-keyboard-response",314,299964,"0.0-3.101-0.101","soquxg8t4a9rxk5",882,"199.csv","","1449.5","resources/trios/L1T2A1.jpg","38","restless",0.4,0.4,0.5,0.116110711243132,"true"
"image-keyboard-response",315,300376,"0.0-3.101-1.101","soquxg8t4a9rxk5",882,"199.csv","","null","resources/maskTrios/BT2B.jpg","null","",NA,NA,NA,NA,""
"image-keyboard-response",316,301583,"0.0-3.101-2.101","soquxg8t4a9rxk5",882,"199.csv","","null","resources/images/coin2.png","null","",NA,NA,NA,NA,""
"image-keyboard-response",317,304275,"0.0-3.102-0.102","soquxg8t4a9rxk5",882,"199.csv","","2689.899999856949","resources/trios/L4T2A2.jpg","39","restless",0.4,0.4,0.5,0.802714983793294,"false"
"image-keyboard-response",318,304691,"0.0-3.102-1.102","soquxg8t4a9rxk5",882,"199.csv","","null","resources/maskTrios/BBA2.jpg","null","",NA,NA,NA,NA,""
"image-keyboard-response",319,305903,"0.0-3.102-2.102","soquxg8t4a9rxk5",882,"199.csv","","null","resources/images/fishbone.png","null","",NA,NA,NA,NA,""
"image-keyboard-response",320,306318,"0.0-3.103-0.103","soquxg8t4a9rxk5",882,"199.csv","","412.40000009536743","resources/trios/L4T4A2.jpg","38","restless",0.4,0.4,0.5,0.197089813537596,"true"
"image-keyboard-response",321,306724,"0.0-3.103-1.103","soquxg8t4a9rxk5",882,"199.csv","","null","resources/maskTrios/BT4B.jpg","null","",NA,NA,NA,NA,""
"image-keyboard-response",322,307935,"0.0-3.103-2.103","soquxg8t4a9rxk5",882,"199.csv","","null","resources/images/coin2.png","null","",NA,NA,NA,NA,""
"image-keyboard-response",323,308444,"0.0-3.104-0.104","soquxg8t4a9rxk5",882,"199.csv","","507.90000009536743","resources/trios/L1T2A1.jpg","39","restless",0.4,0.4,0.5,0.952181215877619,"false"
"image-keyboard-response",324,308866,"0.0-3.104-1.104","soquxg8t4a9rxk5",882,"199.csv","","null","resources/maskTrios/BBA1.jpg","null","",NA,NA,NA,NA,""
"image-keyboard-response",325,310078,"0.0-3.104-2.104","soquxg8t4a9rxk5",882,"199.csv","","null","resources/images/fishbone.png","null","",NA,NA,NA,NA,""
"image-keyboard-response",326,311385,"0.0-3.105-0.105","soquxg8t4a9rxk5",882,"199.csv","","1306.2000000476837","resources/trios/L1T4A1.jpg","38","restless",0.4,0.4,0.5,0.122337400990219,"true"
"image-keyboard-response",327,311804,"0.0-3.105-1.105","soquxg8t4a9rxk5",882,"199.csv","","null","resources/maskTrios/BT4B.jpg","null","",NA,NA,NA,NA,""
"image-keyboard-response",328,313023,"0.0-3.105-2.105","soquxg8t4a9rxk5",882,"199.csv","","null","resources/images/coin2.png","null","",NA,NA,NA,NA,""
"image-keyboard-response",329,314015,"0.0-3.106-0.106","soquxg8t4a9rxk5",882,"199.csv","","991.7000000476837","resources/trios/L1T4A1.jpg","37","restless",0.5,0.4,0.5,0.945560407807604,"false"
"image-keyboard-response",330,314420,"0.0-3.106-1.106","soquxg8t4a9rxk5",882,"199.csv","","null","resources/maskTrios/L1BB.jpg","null","",NA,NA,NA,NA,""
"image-keyboard-response",331,315634,"0.0-3.106-2.106","soquxg8t4a9rxk5",882,"199.csv","","null","resources/images/fishbone.png","null","",NA,NA,NA,NA,""
"image-keyboard-response",332,317643,"0.0-3.107-0.107","soquxg8t4a9rxk5",882,"199.csv","","2006.5999999046326","resources/trios/L1T2A1.jpg","38","restless",0.6,0.4,0.5,0.741429969945642,"false"
"image-keyboard-response",333,318054,"0.0-3.107-1.107","soquxg8t4a9rxk5",882,"199.csv","","null","resources/maskTrios/BT2B.jpg","null","",NA,NA,NA,NA,""
"image-keyboard-response",334,319265,"0.0-3.107-2.107","soquxg8t4a9rxk5",882,"199.csv","","null","resources/images/fishbone.png","null","",NA,NA,NA,NA,""
"image-keyboard-response",335,319879,"0.0-3.108-0.108","soquxg8t4a9rxk5",882,"199.csv","","612.8999998569489","resources/trios/L4T4A1.jpg","39","restless",0.6,0.4,0.5,0.163556978590041,"true"
"image-keyboard-response",336,320286,"0.0-3.108-1.108","soquxg8t4a9rxk5",882,"199.csv","","null","resources/maskTrios/BBA1.jpg","null","",NA,NA,NA,NA,""
"image-keyboard-response",337,321498,"0.0-3.108-2.108","soquxg8t4a9rxk5",882,"199.csv","","null","resources/images/coin2.png","null","",NA,NA,NA,NA,""
"image-keyboard-response",338,324361,"0.0-3.109-0.109","soquxg8t4a9rxk5",882,"199.csv","","2861.2999999523163","resources/trios/L4T4A2.jpg","38","restless",0.6,0.4,0.5,0.934248569844514,"false"
"image-keyboard-response",339,324767,"0.0-3.109-1.109","soquxg8t4a9rxk5",882,"199.csv","","null","resources/maskTrios/BT4B.jpg","null","",NA,NA,NA,NA,""
"image-keyboard-response",340,325980,"0.0-3.109-2.109","soquxg8t4a9rxk5",882,"199.csv","","null","resources/images/fishbone.png","null","",NA,NA,NA,NA,""
"image-keyboard-response",341,326539,"0.0-3.110-0.110","soquxg8t4a9rxk5",882,"199.csv","","556.8999998569489","resources/trios/L4T4A1.jpg","37","restless",0.6,0.4,0.5,0.915014257078653,"false"
"image-keyboard-response",342,326951,"0.0-3.110-1.110","soquxg8t4a9rxk5",882,"199.csv","","null","resources/maskTrios/L4BB.jpg","null","",NA,NA,NA,NA,""
"image-keyboard-response",343,328162,"0.0-3.110-2.110","soquxg8t4a9rxk5",882,"199.csv","","null","resources/images/fishbone.png","null","",NA,NA,NA,NA,""
"image-keyboard-response",344,328668,"0.0-3.111-0.111","soquxg8t4a9rxk5",882,"199.csv","","503.7999999523163","resources/trios/L4T4A1.jpg","39","restless",0.6,0.4,0.5,0.617861928816356,"false"
"image-keyboard-response",345,329080,"0.0-3.111-1.111","soquxg8t4a9rxk5",882,"199.csv","","null","resources/maskTrios/BBA1.jpg","null","",NA,NA,NA,NA,""
"image-keyboard-response",346,330290,"0.0-3.111-2.111","soquxg8t4a9rxk5",882,"199.csv","","null","resources/images/fishbone.png","null","",NA,NA,NA,NA,""
"image-keyboard-response",347,331090,"0.0-3.112-0.112","soquxg8t4a9rxk5",882,"199.csv","","798.6000001430511","resources/trios/L4T4A2.jpg","38","restless",0.6,0.4,0.5,0.294639120260609,"true"
"image-keyboard-response",348,331492,"0.0-3.112-1.112","soquxg8t4a9rxk5",882,"199.csv","","null","resources/maskTrios/BT4B.jpg","null","",NA,NA,NA,NA,""
"image-keyboard-response",349,332709,"0.0-3.112-2.112","soquxg8t4a9rxk5",882,"199.csv","","null","resources/images/coin2.png","null","",NA,NA,NA,NA,""
"image-keyboard-response",350,333737,"0.0-3.113-0.113","soquxg8t4a9rxk5",882,"199.csv","","1025.7999999523163","resources/trios/L4T4A1.jpg","38","restless",0.6,0.4,0.5,0.881182464501209,"false"
"image-keyboard-response",351,334147,"0.0-3.113-1.113","soquxg8t4a9rxk5",882,"199.csv","","null","resources/maskTrios/BT4B.jpg","null","",NA,NA,NA,NA,""
"image-keyboard-response",352,335361,"0.0-3.113-2.113","soquxg8t4a9rxk5",882,"199.csv","","null","resources/images/fishbone.png","null","",NA,NA,NA,NA,""
"image-keyboard-response",353,336529,"0.0-3.114-0.114","soquxg8t4a9rxk5",882,"199.csv","","1165.8000001907349","resources/trios/L1T4A1.jpg","39","restless",0.6,0.4,0.5,0.842777054332988,"false"
"image-keyboard-response",354,336937,"0.0-3.114-1.114","soquxg8t4a9rxk5",882,"199.csv","","null","resources/maskTrios/BBA1.jpg","null","",NA,NA,NA,NA,""
"image-keyboard-response",355,338142,"0.0-3.114-2.114","soquxg8t4a9rxk5",882,"199.csv","","null","resources/images/fishbone.png","null","",NA,NA,NA,NA,""
"image-keyboard-response",356,340157,"0.0-3.115-0.115","soquxg8t4a9rxk5",882,"199.csv","","2012.3999998569489","resources/trios/L4T4A1.jpg","37","restless",0.6,0.4,0.5,0.533160880705253,"true"
"image-keyboard-response",357,340564,"0.0-3.115-1.115","soquxg8t4a9rxk5",882,"199.csv","","null","resources/maskTrios/L4BB.jpg","null","",NA,NA,NA,NA,""
"image-keyboard-response",358,341774,"0.0-3.115-2.115","soquxg8t4a9rxk5",882,"199.csv","","null","resources/images/coin2.png","null","",NA,NA,NA,NA,""
"image-keyboard-response",359,343498,"0.0-3.116-0.116","soquxg8t4a9rxk5",882,"199.csv","","1722.7000000476837","resources/trios/L4T4A1.jpg","37","restless",0.6,0.4,0.5,0.830282907148909,"false"
"image-keyboard-response",360,343912,"0.0-3.116-1.116","soquxg8t4a9rxk5",882,"199.csv","","null","resources/maskTrios/L4BB.jpg","null","",NA,NA,NA,NA,""
"image-keyboard-response",361,345129,"0.0-3.116-2.116","soquxg8t4a9rxk5",882,"199.csv","","null","resources/images/fishbone.png","null","",NA,NA,NA,NA,""
"image-keyboard-response",362,345434,"0.0-3.117-0.117","soquxg8t4a9rxk5",882,"199.csv","","303","resources/trios/L1T4A1.jpg","38","restless",0.6,0.4,0.5,0.88670019210944,"false"
"image-keyboard-response",363,345841,"0.0-3.117-1.117","soquxg8t4a9rxk5",882,"199.csv","","null","resources/maskTrios/BT4B.jpg","null","",NA,NA,NA,NA,""
"image-keyboard-response",364,347054,"0.0-3.117-2.117","soquxg8t4a9rxk5",882,"199.csv","","null","resources/images/fishbone.png","null","",NA,NA,NA,NA,""
"image-keyboard-response",365,347316,"0.0-3.118-0.118","soquxg8t4a9rxk5",882,"199.csv","","261.5","resources/trios/L4T4A1.jpg","39","restless",0.7,0.4,0.4,0.538637937742337,"false"
"image-keyboard-response",366,347740,"0.0-3.118-1.118","soquxg8t4a9rxk5",882,"199.csv","","null","resources/maskTrios/BBA1.jpg","null","",NA,NA,NA,NA,""
"image-keyboard-response",367,348950,"0.0-3.118-2.118","soquxg8t4a9rxk5",882,"199.csv","","null","resources/images/fishbone.png","null","",NA,NA,NA,NA,""
"image-keyboard-response",368,349336,"0.0-3.119-0.119","soquxg8t4a9rxk5",882,"199.csv","","384.5","resources/trios/L4T4A2.jpg","37","restless",0.7,0.4,0.4,0.343211063871849,"true"
"image-keyboard-response",369,349745,"0.0-3.119-1.119","soquxg8t4a9rxk5",882,"199.csv","","null","resources/maskTrios/L4BB.jpg","null","",NA,NA,NA,NA,""
"image-keyboard-response",370,350970,"0.0-3.119-2.119","soquxg8t4a9rxk5",882,"199.csv","","null","resources/images/coin2.png","null","",NA,NA,NA,NA,""
"image-keyboard-response",371,351248,"0.0-3.120-0.120","soquxg8t4a9rxk5",882,"199.csv","","275.40000009536743","resources/trios/L4T4A1.jpg","37","restless",0.7,0.4,0.4,0.300062535137959,"true"
"image-keyboard-response",372,351656,"0.0-3.120-1.120","soquxg8t4a9rxk5",882,"199.csv","","null","resources/maskTrios/L4BB.jpg","null","",NA,NA,NA,NA,""
"image-keyboard-response",373,352870,"0.0-3.120-2.120","soquxg8t4a9rxk5",882,"199.csv","","null","resources/images/coin2.png","null","",NA,NA,NA,NA,""
"image-keyboard-response",374,353152,"0.0-3.121-0.121","soquxg8t4a9rxk5",882,"199.csv","","281.09999990463257","resources/trios/L4T4A1.jpg","37","restless",0.7,0.5,0.4,0.941995297957292,"false"
"image-keyboard-response",375,353571,"0.0-3.121-1.121","soquxg8t4a9rxk5",882,"199.csv","","null","resources/maskTrios/L4BB.jpg","null","",NA,NA,NA,NA,""
"image-keyboard-response",376,354787,"0.0-3.121-2.121","soquxg8t4a9rxk5",882,"199.csv","","null","resources/images/fishbone.png","null","",NA,NA,NA,NA,""
"image-keyboard-response",377,355554,"0.0-3.122-0.122","soquxg8t4a9rxk5",882,"199.csv","","765.2999999523163","resources/trios/L4T2A1.jpg","38","restless",0.6,0.5,0.4,0.974804609853235,"false"
"image-keyboard-response",378,355957,"0.0-3.122-1.122","soquxg8t4a9rxk5",882,"199.csv","","null","resources/maskTrios/BT2B.jpg","null","",NA,NA,NA,NA,""
"image-keyboard-response",379,357173,"0.0-3.122-2.122","soquxg8t4a9rxk5",882,"199.csv","","null","resources/images/fishbone.png","null","",NA,NA,NA,NA,""
"image-keyboard-response",380,357385,"0.0-3.123-0.123","soquxg8t4a9rxk5",882,"199.csv","","211","resources/trios/L4T4A2.jpg","37","restless",0.6,0.5,0.4,0.958849768915887,"false"
"image-keyboard-response",381,357797,"0.0-3.123-1.123","soquxg8t4a9rxk5",882,"199.csv","","null","resources/maskTrios/L4BB.jpg","null","",NA,NA,NA,NA,""
"image-keyboard-response",382,359017,"0.0-3.123-2.123","soquxg8t4a9rxk5",882,"199.csv","","null","resources/images/fishbone.png","null","",NA,NA,NA,NA,""
"image-keyboard-response",383,359375,"0.0-3.124-0.124","soquxg8t4a9rxk5",882,"199.csv","","357.39999985694885","resources/trios/L4T2A2.jpg","37","restless",0.6,0.5,0.4,0.451289058500377,"true"
"image-keyboard-response",384,359787,"0.0-3.124-1.124","soquxg8t4a9rxk5",882,"199.csv","","null","resources/maskTrios/L4BB.jpg","null","",NA,NA,NA,NA,""
"image-keyboard-response",385,361017,"0.0-3.124-2.124","soquxg8t4a9rxk5",882,"199.csv","","null","resources/images/coin2.png","null","",NA,NA,NA,NA,""
"image-keyboard-response",386,361657,"0.0-3.125-0.125","soquxg8t4a9rxk5",882,"199.csv","","639.2000000476837","resources/trios/L4T2A1.jpg","38","restless",0.6,0.5,0.4,0.303060243522508,"true"
"image-keyboard-response",387,362067,"0.0-3.125-1.125","soquxg8t4a9rxk5",882,"199.csv","","null","resources/maskTrios/BT2B.jpg","null","",NA,NA,NA,NA,""
"image-keyboard-response",388,363290,"0.0-3.125-2.125","soquxg8t4a9rxk5",882,"199.csv","","null","resources/images/coin2.png","null","",NA,NA,NA,NA,""
"image-keyboard-response",389,363644,"0.0-3.126-0.126","soquxg8t4a9rxk5",882,"199.csv","","353.39999985694885","resources/trios/L4T2A2.jpg","39","restless",0.6,0.5,0.4,0.495444025909974,"false"
"image-keyboard-response",390,364061,"0.0-3.126-1.126","soquxg8t4a9rxk5",882,"199.csv","","null","resources/maskTrios/BBA2.jpg","null","",NA,NA,NA,NA,""
"image-keyboard-response",391,365275,"0.0-3.126-2.126","soquxg8t4a9rxk5",882,"199.csv","","null","resources/images/fishbone.png","null","",NA,NA,NA,NA,""
"image-keyboard-response",392,365718,"0.0-3.127-0.127","soquxg8t4a9rxk5",882,"199.csv","","440.90000009536743","resources/trios/L4T2A2.jpg","38","restless",0.7,0.5,0.4,0.284533583706289,"true"
"image-keyboard-response",393,366132,"0.0-3.127-1.127","soquxg8t4a9rxk5",882,"199.csv","","null","resources/maskTrios/BT2B.jpg","null","",NA,NA,NA,NA,""
"image-keyboard-response",394,367351,"0.0-3.127-2.127","soquxg8t4a9rxk5",882,"199.csv","","null","resources/images/coin2.png","null","",NA,NA,NA,NA,""
"image-keyboard-response",395,367658,"0.0-3.128-0.128","soquxg8t4a9rxk5",882,"199.csv","","304.90000009536743","resources/trios/L4T4A2.jpg","37","restless",0.7,0.5,0.4,0.63878216063711,"true"
"image-keyboard-response",396,368080,"0.0-3.128-1.128","soquxg8t4a9rxk5",882,"199.csv","","null","resources/maskTrios/L4BB.jpg","null","",NA,NA,NA,NA,""
"image-keyboard-response",397,369293,"0.0-3.128-2.128","soquxg8t4a9rxk5",882,"199.csv","","null","resources/images/coin2.png","null","",NA,NA,NA,NA,""
"image-keyboard-response",398,369596,"0.0-3.129-0.129","soquxg8t4a9rxk5",882,"199.csv","","301.10000014305115","resources/trios/L1T4A1.jpg","38","restless",0.7,0.5,0.4,0.548254293528585,"false"
"image-keyboard-response",399,370014,"0.0-3.129-1.129","soquxg8t4a9rxk5",882,"199.csv","","null","resources/maskTrios/BT4B.jpg","null","",NA,NA,NA,NA,""
"image-keyboard-response",400,371228,"0.0-3.129-2.129","soquxg8t4a9rxk5",882,"199.csv","","null","resources/images/fishbone.png","null","",NA,NA,NA,NA,""
"image-keyboard-response",401,371662,"0.0-3.130-0.130","soquxg8t4a9rxk5",882,"199.csv","","431.7000000476837","resources/trios/L1T4A1.jpg","37","restless",0.7,0.5,0.4,0.780611186573306,"false"
"image-keyboard-response",402,372084,"0.0-3.130-1.130","soquxg8t4a9rxk5",882,"199.csv","","null","resources/maskTrios/L1BB.jpg","null","",NA,NA,NA,NA,""
"image-keyboard-response",403,373294,"0.0-3.130-2.130","soquxg8t4a9rxk5",882,"199.csv","","null","resources/images/fishbone.png","null","",NA,NA,NA,NA,""
"image-keyboard-response",404,374495,"0.0-3.131-0.131","soquxg8t4a9rxk5",882,"199.csv","","1199.9000000953674","resources/trios/L1T4A2.jpg","37","restless",0.8,0.4,0.5,0.247095785603654,"true"
"image-keyboard-response",405,374911,"0.0-3.131-1.131","soquxg8t4a9rxk5",882,"199.csv","","null","resources/maskTrios/L1BB.jpg","null","",NA,NA,NA,NA,""
"image-keyboard-response",406,376125,"0.0-3.131-2.131","soquxg8t4a9rxk5",882,"199.csv","","null","resources/images/coin2.png","null","",NA,NA,NA,NA,""
"image-keyboard-response",407,376818,"0.0-3.132-0.132","soquxg8t4a9rxk5",882,"199.csv","","690.8999998569489","resources/trios/L1T2A2.jpg","38","restless",0.8,0.3,0.5,0.93599245100609,"false"
"image-keyboard-response",408,377227,"0.0-3.132-1.132","soquxg8t4a9rxk5",882,"199.csv","","null","resources/maskTrios/BT2B.jpg","null","",NA,NA,NA,NA,""
"image-keyboard-response",409,378447,"0.0-3.132-2.132","soquxg8t4a9rxk5",882,"199.csv","","null","resources/images/fishbone.png","null","",NA,NA,NA,NA,""
"image-keyboard-response",410,378756,"0.0-3.133-0.133","soquxg8t4a9rxk5",882,"199.csv","","307.2999999523163","resources/trios/L4T4A2.jpg","37","restless",0.8,0.3,0.5,0.214451196430121,"true"
"image-keyboard-response",411,379176,"0.0-3.133-1.133","soquxg8t4a9rxk5",882,"199.csv","","null","resources/maskTrios/L4BB.jpg","null","",NA,NA,NA,NA,""
"image-keyboard-response",412,380389,"0.0-3.133-2.133","soquxg8t4a9rxk5",882,"199.csv","","null","resources/images/coin2.png","null","",NA,NA,NA,NA,""
"image-keyboard-response",413,381675,"0.0-3.134-0.134","soquxg8t4a9rxk5",882,"199.csv","","1284.4000000953674","resources/trios/L4T2A1.jpg","37","restless",0.8,0.3,0.4,0.475727911766514,"true"
"image-keyboard-response",414,382091,"0.0-3.134-1.134","soquxg8t4a9rxk5",882,"199.csv","","null","resources/maskTrios/L4BB.jpg","null","",NA,NA,NA,NA,""
"image-keyboard-response",415,383314,"0.0-3.134-2.134","soquxg8t4a9rxk5",882,"199.csv","","null","resources/images/coin2.png","null","",NA,NA,NA,NA,""
"image-keyboard-response",416,384810,"0.0-3.135-0.135","soquxg8t4a9rxk5",882,"199.csv","","1495.1999998092651","resources/trios/L1T4A1.jpg","39","restless",0.8,0.3,0.4,0.892520652034432,"false"
"image-keyboard-response",417,385223,"0.0-3.135-1.135","soquxg8t4a9rxk5",882,"199.csv","","null","resources/maskTrios/BBA1.jpg","null","",NA,NA,NA,NA,""
"image-keyboard-response",418,386437,"0.0-3.135-2.135","soquxg8t4a9rxk5",882,"199.csv","","null","resources/images/fishbone.png","null","",NA,NA,NA,NA,""
"image-keyboard-response",419,387531,"0.0-3.136-0.136","soquxg8t4a9rxk5",882,"199.csv","","1093.7000000476837","resources/trios/L4T2A2.jpg","37","restless",0.8,0.3,0.4,0.486848002328484,"true"
"image-keyboard-response",420,387940,"0.0-3.136-1.136","soquxg8t4a9rxk5",882,"199.csv","","null","resources/maskTrios/L4BB.jpg","null","",NA,NA,NA,NA,""
"image-keyboard-response",421,389155,"0.0-3.136-2.136","soquxg8t4a9rxk5",882,"199.csv","","null","resources/images/coin2.png","null","",NA,NA,NA,NA,""
"image-keyboard-response",422,390957,"0.0-3.137-0.137","soquxg8t4a9rxk5",882,"199.csv","","1800.2000000476837","resources/trios/L4T2A1.jpg","38","restless",0.8,0.3,0.4,0.989357132335596,"false"
"image-keyboard-response",423,391370,"0.0-3.137-1.137","soquxg8t4a9rxk5",882,"199.csv","","null","resources/maskTrios/BT2B.jpg","null","",NA,NA,NA,NA,""
"image-keyboard-response",424,392587,"0.0-3.137-2.137","soquxg8t4a9rxk5",882,"199.csv","","null","resources/images/fishbone.png","null","",NA,NA,NA,NA,""
"image-keyboard-response",425,394186,"0.0-3.138-0.138","soquxg8t4a9rxk5",882,"199.csv","","1598","resources/trios/L1T4A1.jpg","37","restless",0.7,0.3,0.4,0.961891463557105,"false"
"image-keyboard-response",426,394603,"0.0-3.138-1.138","soquxg8t4a9rxk5",882,"199.csv","","null","resources/maskTrios/L1BB.jpg","null","",NA,NA,NA,NA,""
"image-keyboard-response",427,395823,"0.0-3.138-2.138","soquxg8t4a9rxk5",882,"199.csv","","null","resources/images/fishbone.png","null","",NA,NA,NA,NA,""
"image-keyboard-response",428,397057,"0.0-3.139-0.139","soquxg8t4a9rxk5",882,"199.csv","","1232.5999999046326","resources/trios/L1T4A2.jpg","38","restless",0.7,0.3,0.4,0.817870185663238,"false"
"image-keyboard-response",429,397470,"0.0-3.139-1.139","soquxg8t4a9rxk5",882,"199.csv","","null","resources/maskTrios/BT4B.jpg","null","",NA,NA,NA,NA,""
"image-keyboard-response",430,398676,"0.0-3.139-2.139","soquxg8t4a9rxk5",882,"199.csv","","null","resources/images/fishbone.png","null","",NA,NA,NA,NA,""
"image-keyboard-response",431,399249,"0.0-3.140-0.140","soquxg8t4a9rxk5",882,"199.csv","","572.4000000953674","resources/trios/L1T4A1.jpg","39","restless",0.7,0.3,0.4,0.777666737308484,"false"
"image-keyboard-response",432,399668,"0.0-3.140-1.140","soquxg8t4a9rxk5",882,"199.csv","","null","resources/maskTrios/BBA1.jpg","null","",NA,NA,NA,NA,""
"image-keyboard-response",433,400882,"0.0-3.140-2.140","soquxg8t4a9rxk5",882,"199.csv","","null","resources/images/fishbone.png","null","",NA,NA,NA,NA,""
"image-keyboard-response",434,401195,"0.0-3.141-0.141","soquxg8t4a9rxk5",882,"199.csv","","311.39999985694885","resources/trios/L4T2A2.jpg","37","restless",0.7,0.3,0.4,0.833460759864675,"false"
"image-keyboard-response",435,401617,"0.0-3.141-1.141","soquxg8t4a9rxk5",882,"199.csv","","null","resources/maskTrios/L4BB.jpg","null","",NA,NA,NA,NA,""
"image-keyboard-response",436,402841,"0.0-3.141-2.141","soquxg8t4a9rxk5",882,"199.csv","","null","resources/images/fishbone.png","null","",NA,NA,NA,NA,""
"image-keyboard-response",437,402884,"0.0-3.142-0.142","soquxg8t4a9rxk5",882,"199.csv","","41","resources/trios/L1T4A1.jpg","38","restless",0.8,0.3,0.4,0.0643424585967052,"true"
"image-keyboard-response",438,403300,"0.0-3.142-1.142","soquxg8t4a9rxk5",882,"199.csv","","null","resources/maskTrios/BT4B.jpg","null","",NA,NA,NA,NA,""
"image-keyboard-response",439,404513,"0.0-3.142-2.142","soquxg8t4a9rxk5",882,"199.csv","","null","resources/images/coin2.png","null","",NA,NA,NA,NA,""
"image-keyboard-response",440,404806,"0.0-3.143-0.143","soquxg8t4a9rxk5",882,"199.csv","","291","resources/trios/L4T2A2.jpg","38","restless",0.8,0.3,0.4,0.10788793830612,"true"
"image-keyboard-response",441,405219,"0.0-3.143-1.143","soquxg8t4a9rxk5",882,"199.csv","","null","resources/maskTrios/BT2B.jpg","null","",NA,NA,NA,NA,""
"image-keyboard-response",442,406428,"0.0-3.143-2.143","soquxg8t4a9rxk5",882,"199.csv","","null","resources/images/coin2.png","null","",NA,NA,NA,NA,""
"image-keyboard-response",443,406717,"0.0-3.144-0.144","soquxg8t4a9rxk5",882,"199.csv","","288.2000000476837","resources/trios/L4T4A1.jpg","38","restless",0.8,0.3,0.4,0.75434520604212,"false"
"image-keyboard-response",444,407130,"0.0-3.144-1.144","soquxg8t4a9rxk5",882,"199.csv","","null","resources/maskTrios/BT4B.jpg","null","",NA,NA,NA,NA,""
"image-keyboard-response",445,408344,"0.0-3.144-2.144","soquxg8t4a9rxk5",882,"199.csv","","null","resources/images/fishbone.png","null","",NA,NA,NA,NA,""
"image-keyboard-response",446,408749,"0.0-3.145-0.145","soquxg8t4a9rxk5",882,"199.csv","","404","resources/trios/L4T4A2.jpg","38","restless",0.8,0.2,0.4,0.872887476179879,"false"
"image-keyboard-response",447,409164,"0.0-3.145-1.145","soquxg8t4a9rxk5",882,"199.csv","","null","resources/maskTrios/BT4B.jpg","null","",NA,NA,NA,NA,""
"image-keyboard-response",448,410384,"0.0-3.145-2.145","soquxg8t4a9rxk5",882,"199.csv","","null","resources/images/fishbone.png","null","",NA,NA,NA,NA,""
"image-keyboard-response",449,411616,"0.0-3.146-0.146","soquxg8t4a9rxk5",882,"199.csv","","1229.7000000476837","resources/trios/L1T4A2.jpg","38","restless",0.8,0.2,0.4,0.933415581142684,"false"
"image-keyboard-response",450,412030,"0.0-3.146-1.146","soquxg8t4a9rxk5",882,"199.csv","","null","resources/maskTrios/BT4B.jpg","null","",NA,NA,NA,NA,""
"image-keyboard-response",451,413243,"0.0-3.146-2.146","soquxg8t4a9rxk5",882,"199.csv","","null","resources/images/fishbone.png","null","",NA,NA,NA,NA,""
"image-keyboard-response",452,413546,"0.0-3.147-0.147","soquxg8t4a9rxk5",882,"199.csv","","301.19999980926514","resources/trios/L4T2A1.jpg","38","restless",0.8,0.2,0.4,0.732944118860686,"false"
"image-keyboard-response",453,413962,"0.0-3.147-1.147","soquxg8t4a9rxk5",882,"199.csv","","null","resources/maskTrios/BT2B.jpg","null","",NA,NA,NA,NA,""
"image-keyboard-response",454,415179,"0.0-3.147-2.147","soquxg8t4a9rxk5",882,"199.csv","","null","resources/images/fishbone.png","null","",NA,NA,NA,NA,""
"image-keyboard-response",455,415851,"0.0-3.148-0.148","soquxg8t4a9rxk5",882,"199.csv","","670.7999999523163","resources/trios/L1T4A1.jpg","39","restless",0.8,0.2,0.4,0.999694965603599,"false"
"image-keyboard-response",456,416266,"0.0-3.148-1.148","soquxg8t4a9rxk5",882,"199.csv","","null","resources/maskTrios/BBA1.jpg","null","",NA,NA,NA,NA,""
"image-keyboard-response",457,417475,"0.0-3.148-2.148","soquxg8t4a9rxk5",882,"199.csv","","null","resources/images/fishbone.png","null","",NA,NA,NA,NA,""
"image-keyboard-response",458,417913,"0.0-3.149-0.149","soquxg8t4a9rxk5",882,"199.csv","","435.40000009536743","resources/trios/L1T4A1.jpg","38","restless",0.8,0.3,0.4,0.278447720911915,"true"
"image-keyboard-response",459,418337,"0.0-3.149-1.149","soquxg8t4a9rxk5",882,"199.csv","","null","resources/maskTrios/BT4B.jpg","null","",NA,NA,NA,NA,""
"image-keyboard-response",460,419540,"0.0-3.149-2.149","soquxg8t4a9rxk5",882,"199.csv","","null","resources/images/coin2.png","null","",NA,NA,NA,NA,""
"image-keyboard-response",461,419840,"0.0-3.150-0.150","soquxg8t4a9rxk5",882,"199.csv","","298.7999999523163","resources/trios/L4T4A1.jpg","38","restless",0.8,0.3,0.4,0.686852820218234,"false"
"image-keyboard-response",462,420255,"0.0-3.150-1.150","soquxg8t4a9rxk5",882,"199.csv","","null","resources/maskTrios/BT4B.jpg","null","",NA,NA,NA,NA,""
"image-keyboard-response",463,421469,"0.0-3.150-2.150","soquxg8t4a9rxk5",882,"199.csv","","null","resources/images/fishbone.png","null","",NA,NA,NA,NA,""
"image-keyboard-response",464,421825,"0.0-3.151-0.151","soquxg8t4a9rxk5",882,"199.csv","","353.39999985694885","resources/trios/L4T4A1.jpg","37","restless",0.8,0.3,0.4,0.961500005539823,"false"
"image-keyboard-response",465,422227,"0.0-3.151-1.151","soquxg8t4a9rxk5",882,"199.csv","","null","resources/maskTrios/L4BB.jpg","null","",NA,NA,NA,NA,""
"image-keyboard-response",466,423439,"0.0-3.151-2.151","soquxg8t4a9rxk5",882,"199.csv","","null","resources/images/fishbone.png","null","",NA,NA,NA,NA,""
"image-keyboard-response",467,423867,"0.0-3.152-0.152","soquxg8t4a9rxk5",882,"199.csv","","425","resources/trios/L1T4A1.jpg","38","restless",0.8,0.3,0.4,0.611953860461523,"false"
"image-keyboard-response",468,424275,"0.0-3.152-1.152","soquxg8t4a9rxk5",882,"199.csv","","null","resources/maskTrios/BT4B.jpg","null","",NA,NA,NA,NA,""
"image-keyboard-response",469,425498,"0.0-3.152-2.152","soquxg8t4a9rxk5",882,"199.csv","","null","resources/images/fishbone.png","null","",NA,NA,NA,NA,""
"image-keyboard-response",470,425993,"0.0-3.153-0.153","soquxg8t4a9rxk5",882,"199.csv","","493.40000009536743","resources/trios/L1T2A2.jpg","38","restless",0.9,0.3,0.4,0.556970370447146,"false"
"image-keyboard-response",471,426409,"0.0-3.153-1.153","soquxg8t4a9rxk5",882,"199.csv","","null","resources/maskTrios/BT2B.jpg","null","",NA,NA,NA,NA,""
"image-keyboard-response",472,427624,"0.0-3.153-2.153","soquxg8t4a9rxk5",882,"199.csv","","null","resources/images/fishbone.png","null","",NA,NA,NA,NA,""
"image-keyboard-response",473,427968,"0.0-3.154-0.154","soquxg8t4a9rxk5",882,"199.csv","","343.7000000476837","resources/trios/L1T4A1.jpg","38","restless",0.9,0.3,0.4,0.831165810335042,"false"
"image-keyboard-response",474,428389,"0.0-3.154-1.154","soquxg8t4a9rxk5",882,"199.csv","","null","resources/maskTrios/BT4B.jpg","null","",NA,NA,NA,NA,""
"image-keyboard-response",475,429595,"0.0-3.154-2.154","soquxg8t4a9rxk5",882,"199.csv","","null","resources/images/fishbone.png","null","",NA,NA,NA,NA,""
"image-keyboard-response",476,430901,"0.0-3.155-0.155","soquxg8t4a9rxk5",882,"199.csv","","1304.7000000476837","resources/trios/L1T4A2.jpg","38","restless",0.9,0.3,0.4,0.545141106132901,"false"
"image-keyboard-response",477,431307,"0.0-3.155-1.155","soquxg8t4a9rxk5",882,"199.csv","","null","resources/maskTrios/BT4B.jpg","null","",NA,NA,NA,NA,""
"image-keyboard-response",478,432515,"0.0-3.155-2.155","soquxg8t4a9rxk5",882,"199.csv","","null","resources/images/fishbone.png","null","",NA,NA,NA,NA,""
"image-keyboard-response",479,432846,"0.0-3.156-0.156","soquxg8t4a9rxk5",882,"199.csv","","328.40000009536743","resources/trios/L1T4A2.jpg","38","restless",0.9,0.3,0.4,0.881169695069943,"false"
"image-keyboard-response",480,433256,"0.0-3.156-1.156","soquxg8t4a9rxk5",882,"199.csv","","null","resources/maskTrios/BT4B.jpg","null","",NA,NA,NA,NA,""
"image-keyboard-response",481,434473,"0.0-3.156-2.156","soquxg8t4a9rxk5",882,"199.csv","","null","resources/images/fishbone.png","null","",NA,NA,NA,NA,""
"image-keyboard-response",482,434829,"0.0-3.157-0.157","soquxg8t4a9rxk5",882,"199.csv","","355.5","resources/trios/L1T2A1.jpg","38","restless",0.9,0.3,0.4,0.369982787495887,"false"
"image-keyboard-response",483,435241,"0.0-3.157-1.157","soquxg8t4a9rxk5",882,"199.csv","","null","resources/maskTrios/BT2B.jpg","null","",NA,NA,NA,NA,""
"image-keyboard-response",484,436449,"0.0-3.157-2.157","soquxg8t4a9rxk5",882,"199.csv","","null","resources/images/fishbone.png","null","",NA,NA,NA,NA,""
"image-keyboard-response",485,436784,"0.0-3.158-0.158","soquxg8t4a9rxk5",882,"199.csv","","334.2000000476837","resources/trios/L4T4A2.jpg","38","restless",0.9,0.3,0.4,0.790198715791985,"false"
"image-keyboard-response",486,437202,"0.0-3.158-1.158","soquxg8t4a9rxk5",882,"199.csv","","null","resources/maskTrios/BT4B.jpg","null","",NA,NA,NA,NA,""
"image-keyboard-response",487,438416,"0.0-3.158-2.158","soquxg8t4a9rxk5",882,"199.csv","","null","resources/images/fishbone.png","null","",NA,NA,NA,NA,""
"image-keyboard-response",488,439375,"0.0-3.159-0.159","soquxg8t4a9rxk5",882,"199.csv","","957.7000000476837","resources/trios/L1T2A1.jpg","37","restless",0.9,0.3,0.4,0.617583333562565,"true"
"image-keyboard-response",489,439787,"0.0-3.159-1.159","soquxg8t4a9rxk5",882,"199.csv","","null","resources/maskTrios/L1BB.jpg","null","",NA,NA,NA,NA,""
"image-keyboard-response",490,440998,"0.0-3.159-2.159","soquxg8t4a9rxk5",882,"199.csv","","null","resources/images/coin2.png","null","",NA,NA,NA,NA,""
"image-keyboard-response",491,442027,"0.0-3.160-0.160","soquxg8t4a9rxk5",882,"199.csv","","1027.3999998569489","resources/trios/L4T4A2.jpg","39","restless",0.9,0.3,0.4,0.68138252533647,"false"
"image-keyboard-response",492,442435,"0.0-3.160-1.160","soquxg8t4a9rxk5",882,"199.csv","","null","resources/maskTrios/BBA2.jpg","null","",NA,NA,NA,NA,""
"image-keyboard-response",493,443646,"0.0-3.160-2.160","soquxg8t4a9rxk5",882,"199.csv","","null","resources/images/fishbone.png","null","",NA,NA,NA,NA,""
"image-keyboard-response",494,443923,"0.0-3.161-0.161","soquxg8t4a9rxk5",882,"199.csv","","274.90000009536743","resources/trios/L4T2A2.jpg","38","restless",0.9,0.3,0.4,0.850628364288273,"false"
"image-keyboard-response",495,444334,"0.0-3.161-1.161","soquxg8t4a9rxk5",882,"199.csv","","null","resources/maskTrios/BT2B.jpg","null","",NA,NA,NA,NA,""
"image-keyboard-response",496,445540,"0.0-3.161-2.161","soquxg8t4a9rxk5",882,"199.csv","","null","resources/images/fishbone.png","null","",NA,NA,NA,NA,""
"image-keyboard-response",497,445985,"0.0-3.162-0.162","soquxg8t4a9rxk5",882,"199.csv","","444.2000000476837","resources/trios/L4T4A2.jpg","37","restless",0.9,0.3,0.4,0.452994993626031,"true"
"image-keyboard-response",498,446402,"0.0-3.162-1.162","soquxg8t4a9rxk5",882,"199.csv","","null","resources/maskTrios/L4BB.jpg","null","",NA,NA,NA,NA,""
"image-keyboard-response",499,447612,"0.0-3.162-2.162","soquxg8t4a9rxk5",882,"199.csv","","null","resources/images/coin2.png","null","",NA,NA,NA,NA,""
"image-keyboard-response",500,448206,"0.0-3.163-0.163","soquxg8t4a9rxk5",882,"199.csv","","592.8999998569489","resources/trios/L4T4A2.jpg","38","restless",0.9,0.3,0.4,0.671258701318333,"false"
"image-keyboard-response",501,448616,"0.0-3.163-1.163","soquxg8t4a9rxk5",882,"199.csv","","null","resources/maskTrios/BT4B.jpg","null","",NA,NA,NA,NA,""
"image-keyboard-response",502,449835,"0.0-3.163-2.163","soquxg8t4a9rxk5",882,"199.csv","","null","resources/images/fishbone.png","null","",NA,NA,NA,NA,""
"image-keyboard-response",503,450131,"0.0-3.164-0.164","soquxg8t4a9rxk5",882,"199.csv","","294.90000009536743","resources/trios/L4T4A1.jpg","37","restless",0.8,0.3,0.4,0.329322104471673,"true"
"image-keyboard-response",504,450547,"0.0-3.164-1.164","soquxg8t4a9rxk5",882,"199.csv","","null","resources/maskTrios/L4BB.jpg","null","",NA,NA,NA,NA,""
"image-keyboard-response",505,451761,"0.0-3.164-2.164","soquxg8t4a9rxk5",882,"199.csv","","null","resources/images/coin2.png","null","",NA,NA,NA,NA,""
"image-keyboard-response",506,452267,"0.0-3.165-0.165","soquxg8t4a9rxk5",882,"199.csv","","503.10000014305115","resources/trios/L4T2A1.jpg","37","restless",0.8,0.3,0.3,0.598589468806355,"true"
"image-keyboard-response",507,452689,"0.0-3.165-1.165","soquxg8t4a9rxk5",882,"199.csv","","null","resources/maskTrios/L4BB.jpg","null","",NA,NA,NA,NA,""
"image-keyboard-response",508,453910,"0.0-3.165-2.165","soquxg8t4a9rxk5",882,"199.csv","","null","resources/images/coin2.png","null","",NA,NA,NA,NA,""
"image-keyboard-response",509,454139,"0.0-3.166-0.166","soquxg8t4a9rxk5",882,"199.csv","","228.70000004768372","resources/trios/L1T2A2.jpg","37","restless",0.8,0.3,0.3,0.425592896470404,"true"
"image-keyboard-response",510,454562,"0.0-3.166-1.166","soquxg8t4a9rxk5",882,"199.csv","","null","resources/maskTrios/L1BB.jpg","null","",NA,NA,NA,NA,""
"image-keyboard-response",511,455778,"0.0-3.166-2.166","soquxg8t4a9rxk5",882,"199.csv","","null","resources/images/coin2.png","null","",NA,NA,NA,NA,""
"image-keyboard-response",512,456020,"0.0-3.167-0.167","soquxg8t4a9rxk5",882,"199.csv","","239.29999995231628","resources/trios/L4T2A2.jpg","37","restless",0.8,0.4,0.3,0.652884638696476,"true"
"image-keyboard-response",513,456440,"0.0-3.167-1.167","soquxg8t4a9rxk5",882,"199.csv","","null","resources/maskTrios/L4BB.jpg","null","",NA,NA,NA,NA,""
"image-keyboard-response",514,457642,"0.0-3.167-2.167","soquxg8t4a9rxk5",882,"199.csv","","null","resources/images/coin2.png","null","",NA,NA,NA,NA,""
"image-keyboard-response",515,457950,"0.0-3.168-0.168","soquxg8t4a9rxk5",882,"199.csv","","307.2000000476837","resources/trios/L4T4A2.jpg","37","restless",0.8,0.4,0.3,0.599311584641897,"true"
"image-keyboard-response",516,458367,"0.0-3.168-1.168","soquxg8t4a9rxk5",882,"199.csv","","null","resources/maskTrios/L4BB.jpg","null","",NA,NA,NA,NA,""
"image-keyboard-response",517,459583,"0.0-3.168-2.168","soquxg8t4a9rxk5",882,"199.csv","","null","resources/images/coin2.png","null","",NA,NA,NA,NA,""
"image-keyboard-response",518,459887,"0.0-3.169-0.169","soquxg8t4a9rxk5",882,"199.csv","","300.40000009536743","resources/trios/L1T2A1.jpg","37","restless",0.8,0.4,0.3,0.48094747416429,"true"
"image-keyboard-response",519,460294,"0.0-3.169-1.169","soquxg8t4a9rxk5",882,"199.csv","","null","resources/maskTrios/L1BB.jpg","null","",NA,NA,NA,NA,""
"image-keyboard-response",520,461510,"0.0-3.169-2.169","soquxg8t4a9rxk5",882,"199.csv","","null","resources/images/coin2.png","null","",NA,NA,NA,NA,""
"image-keyboard-response",521,461788,"0.0-3.170-0.170","soquxg8t4a9rxk5",882,"199.csv","","274.90000009536743","resources/trios/L1T2A1.jpg","37","restless",0.7,0.4,0.2,0.677849399371469,"true"
"image-keyboard-response",522,462209,"0.0-3.170-1.170","soquxg8t4a9rxk5",882,"199.csv","","null","resources/maskTrios/L1BB.jpg","null","",NA,NA,NA,NA,""
"image-keyboard-response",523,463423,"0.0-3.170-2.170","soquxg8t4a9rxk5",882,"199.csv","","null","resources/images/coin2.png","null","",NA,NA,NA,NA,""
"image-keyboard-response",524,463738,"0.0-3.171-0.171","soquxg8t4a9rxk5",882,"199.csv","","312.7000000476837","resources/trios/L4T4A2.jpg","37","restless",0.7,0.4,0.2,0.14695255344982,"true"
"image-keyboard-response",525,464158,"0.0-3.171-1.171","soquxg8t4a9rxk5",882,"199.csv","","null","resources/maskTrios/L4BB.jpg","null","",NA,NA,NA,NA,""
"image-keyboard-response",526,465367,"0.0-3.171-2.171","soquxg8t4a9rxk5",882,"199.csv","","null","resources/images/coin2.png","null","",NA,NA,NA,NA,""
"image-keyboard-response",527,465651,"0.0-3.172-0.172","soquxg8t4a9rxk5",882,"199.csv","","283.40000009536743","resources/trios/L1T4A1.jpg","37","restless",0.7,0.5,0.2,0.239242839710123,"true"
"image-keyboard-response",528,466059,"0.0-3.172-1.172","soquxg8t4a9rxk5",882,"199.csv","","null","resources/maskTrios/L1BB.jpg","null","",NA,NA,NA,NA,""
"image-keyboard-response",529,467273,"0.0-3.172-2.172","soquxg8t4a9rxk5",882,"199.csv","","null","resources/images/coin2.png","null","",NA,NA,NA,NA,""
"image-keyboard-response",530,467524,"0.0-3.173-0.173","soquxg8t4a9rxk5",882,"199.csv","","250.69999980926514","resources/trios/L1T2A2.jpg","37","restless",0.7,0.5,0.2,0.842246289060092,"false"
"image-keyboard-response",531,467940,"0.0-3.173-1.173","soquxg8t4a9rxk5",882,"199.csv","","null","resources/maskTrios/L1BB.jpg","null","",NA,NA,NA,NA,""
"image-keyboard-response",532,469153,"0.0-3.173-2.173","soquxg8t4a9rxk5",882,"199.csv","","null","resources/images/fishbone.png","null","",NA,NA,NA,NA,""
"image-keyboard-response",533,469452,"0.0-3.174-0.174","soquxg8t4a9rxk5",882,"199.csv","","296.5","resources/trios/L4T4A1.jpg","38","restless",0.7,0.5,0.2,0.463229338801805,"true"
"image-keyboard-response",534,469868,"0.0-3.174-1.174","soquxg8t4a9rxk5",882,"199.csv","","null","resources/maskTrios/BT4B.jpg","null","",NA,NA,NA,NA,""
"image-keyboard-response",535,471083,"0.0-3.174-2.174","soquxg8t4a9rxk5",882,"199.csv","","null","resources/images/coin2.png","null","",NA,NA,NA,NA,""
"image-keyboard-response",536,471309,"0.0-3.175-0.175","soquxg8t4a9rxk5",882,"199.csv","","224.79999995231628","resources/trios/L1T2A1.jpg","38","restless",0.7,0.5,0.2,0.608644704329105,"false"
"image-keyboard-response",537,471722,"0.0-3.175-1.175","soquxg8t4a9rxk5",882,"199.csv","","null","resources/maskTrios/BT2B.jpg","null","",NA,NA,NA,NA,""
"image-keyboard-response",538,472942,"0.0-3.175-2.175","soquxg8t4a9rxk5",882,"199.csv","","null","resources/images/fishbone.png","null","",NA,NA,NA,NA,""
"image-keyboard-response",539,473260,"0.0-3.176-0.176","soquxg8t4a9rxk5",882,"199.csv","","316.5","resources/trios/L1T4A1.jpg","39","restless",0.7,0.5,0.2,0.913683547099343,"false"
"image-keyboard-response",540,473672,"0.0-3.176-1.176","soquxg8t4a9rxk5",882,"199.csv","","null","resources/maskTrios/BBA1.jpg","null","",NA,NA,NA,NA,""
"image-keyboard-response",541,474884,"0.0-3.176-2.176","soquxg8t4a9rxk5",882,"199.csv","","null","resources/images/fishbone.png","null","",NA,NA,NA,NA,""
"image-keyboard-response",542,475174,"0.0-3.177-0.177","soquxg8t4a9rxk5",882,"199.csv","","289.2999999523163","resources/trios/L1T4A1.jpg","37","restless",0.7,0.5,0.2,0.57551158826417,"true"
"image-keyboard-response",543,475600,"0.0-3.177-1.177","soquxg8t4a9rxk5",882,"199.csv","","null","resources/maskTrios/L1BB.jpg","null","",NA,NA,NA,NA,""
"image-keyboard-response",544,476817,"0.0-3.177-2.177","soquxg8t4a9rxk5",882,"199.csv","","null","resources/images/coin2.png","null","",NA,NA,NA,NA,""
"image-keyboard-response",545,477092,"0.0-3.178-0.178","soquxg8t4a9rxk5",882,"199.csv","","268.2999999523163","resources/trios/L1T2A2.jpg","37","restless",0.7,0.5,0.2,0.239446013353707,"true"
"image-keyboard-response",546,477501,"0.0-3.178-1.178","soquxg8t4a9rxk5",882,"199.csv","","null","resources/maskTrios/L1BB.jpg","null","",NA,NA,NA,NA,""
"image-keyboard-response",547,478711,"0.0-3.178-2.178","soquxg8t4a9rxk5",882,"199.csv","","null","resources/images/coin2.png","null","",NA,NA,NA,NA,""
"image-keyboard-response",548,478931,"0.0-3.179-0.179","soquxg8t4a9rxk5",882,"199.csv","","217.79999995231628","resources/trios/L4T4A2.jpg","37","restless",0.7,0.5,0.2,0.965181007925004,"false"
"image-keyboard-response",549,479353,"0.0-3.179-1.179","soquxg8t4a9rxk5",882,"199.csv","","null","resources/maskTrios/L4BB.jpg","null","",NA,NA,NA,NA,""
"image-keyboard-response",550,480569,"0.0-3.179-2.179","soquxg8t4a9rxk5",882,"199.csv","","null","resources/images/fishbone.png","null","",NA,NA,NA,NA,""
"image-keyboard-response",551,480903,"0.0-3.180-0.180","soquxg8t4a9rxk5",882,"199.csv","","331.39999985694885","resources/trios/L4T4A2.jpg","37","restless",0.7,0.5,0.3,0.675414289590455,"true"
"image-keyboard-response",552,481319,"0.0-3.180-1.180","soquxg8t4a9rxk5",882,"199.csv","","null","resources/maskTrios/L4BB.jpg","null","",NA,NA,NA,NA,""
"image-keyboard-response",553,482525,"0.0-3.180-2.180","soquxg8t4a9rxk5",882,"199.csv","","null","resources/images/coin2.png","null","",NA,NA,NA,NA,""
"image-keyboard-response",554,482868,"0.0-3.181-0.181","soquxg8t4a9rxk5",882,"199.csv","","340.09999990463257","resources/trios/L1T2A2.jpg","37","restless",0.8,0.5,0.3,0.393157576085362,"true"
"image-keyboard-response",555,483288,"0.0-3.181-1.181","soquxg8t4a9rxk5",882,"199.csv","","null","resources/maskTrios/L1BB.jpg","null","",NA,NA,NA,NA,""
"image-keyboard-response",556,484491,"0.0-3.181-2.181","soquxg8t4a9rxk5",882,"199.csv","","null","resources/images/coin2.png","null","",NA,NA,NA,NA,""
"image-keyboard-response",557,484669,"0.0-3.182-0.182","soquxg8t4a9rxk5",882,"199.csv","","176.89999985694885","resources/trios/L4T4A2.jpg","37","restless",0.8,0.5,0.3,0.18078441463352,"true"
"image-keyboard-response",558,485082,"0.0-3.182-1.182","soquxg8t4a9rxk5",882,"199.csv","","null","resources/maskTrios/L4BB.jpg","null","",NA,NA,NA,NA,""
"image-keyboard-response",559,486297,"0.0-3.182-2.182","soquxg8t4a9rxk5",882,"199.csv","","null","resources/images/coin2.png","null","",NA,NA,NA,NA,""
"image-keyboard-response",560,487265,"0.0-3.183-0.183","soquxg8t4a9rxk5",882,"199.csv","","965.5999999046326","resources/trios/L4T4A1.jpg","37","restless",0.8,0.5,0.4,0.479336704145979,"true"
"image-keyboard-response",561,487679,"0.0-3.183-1.183","soquxg8t4a9rxk5",882,"199.csv","","null","resources/maskTrios/L4BB.jpg","null","",NA,NA,NA,NA,""
"image-keyboard-response",562,488895,"0.0-3.183-2.183","soquxg8t4a9rxk5",882,"199.csv","","null","resources/images/coin2.png","null","",NA,NA,NA,NA,""
"image-keyboard-response",563,489258,"0.0-3.184-0.184","soquxg8t4a9rxk5",882,"199.csv","","361.7000000476837","resources/trios/L4T4A2.jpg","37","restless",0.8,0.5,0.4,0.502672329658152,"true"
"image-keyboard-response",564,489673,"0.0-3.184-1.184","soquxg8t4a9rxk5",882,"199.csv","","null","resources/maskTrios/L4BB.jpg","null","",NA,NA,NA,NA,""
"image-keyboard-response",565,490881,"0.0-3.184-2.184","soquxg8t4a9rxk5",882,"199.csv","","null","resources/images/coin2.png","null","",NA,NA,NA,NA,""
"image-keyboard-response",566,491255,"0.0-3.185-0.185","soquxg8t4a9rxk5",882,"199.csv","","371.59999990463257","resources/trios/L4T2A2.jpg","37","restless",0.8,0.5,0.4,0.494499852856646,"true"
"image-keyboard-response",567,491665,"0.0-3.185-1.185","soquxg8t4a9rxk5",882,"199.csv","","null","resources/maskTrios/L4BB.jpg","null","",NA,NA,NA,NA,""
"image-keyboard-response",568,492876,"0.0-3.185-2.185","soquxg8t4a9rxk5",882,"199.csv","","null","resources/images/coin2.png","null","",NA,NA,NA,NA,""
"image-keyboard-response",569,493168,"0.0-3.186-0.186","soquxg8t4a9rxk5",882,"199.csv","","290.40000009536743","resources/trios/L4T4A1.jpg","37","restless",0.8,0.5,0.4,0.48666023380338,"true"
"image-keyboard-response",570,493581,"0.0-3.186-1.186","soquxg8t4a9rxk5",882,"199.csv","","null","resources/maskTrios/L4BB.jpg","null","",NA,NA,NA,NA,""
"image-keyboard-response",571,494793,"0.0-3.186-2.186","soquxg8t4a9rxk5",882,"199.csv","","null","resources/images/coin2.png","null","",NA,NA,NA,NA,""
"image-keyboard-response",572,495027,"0.0-3.187-0.187","soquxg8t4a9rxk5",882,"199.csv","","231.60000014305115","resources/trios/L1T4A1.jpg","37","restless",0.8,0.5,0.4,0.35229508306971,"true"
"image-keyboard-response",573,495446,"0.0-3.187-1.187","soquxg8t4a9rxk5",882,"199.csv","","null","resources/maskTrios/L1BB.jpg","null","",NA,NA,NA,NA,""
"image-keyboard-response",574,496665,"0.0-3.187-2.187","soquxg8t4a9rxk5",882,"199.csv","","null","resources/images/coin2.png","null","",NA,NA,NA,NA,""
"image-keyboard-response",575,496895,"0.0-3.188-0.188","soquxg8t4a9rxk5",882,"199.csv","","229","resources/trios/L4T4A1.jpg","37","restless",0.8,0.5,0.4,0.662743453531599,"true"
"image-keyboard-response",576,497310,"0.0-3.188-1.188","soquxg8t4a9rxk5",882,"199.csv","","null","resources/maskTrios/L4BB.jpg","null","",NA,NA,NA,NA,""
"image-keyboard-response",577,498525,"0.0-3.188-2.188","soquxg8t4a9rxk5",882,"199.csv","","null","resources/images/coin2.png","null","",NA,NA,NA,NA,""
"image-keyboard-response",578,498772,"0.0-3.189-0.189","soquxg8t4a9rxk5",882,"199.csv","","245.19999980926514","resources/trios/L4T2A1.jpg","37","restless",0.8,0.5,0.4,0.299810454241884,"true"
"image-keyboard-response",579,499179,"0.0-3.189-1.189","soquxg8t4a9rxk5",882,"199.csv","","null","resources/maskTrios/L4BB.jpg","null","",NA,NA,NA,NA,""
"image-keyboard-response",580,500401,"0.0-3.189-2.189","soquxg8t4a9rxk5",882,"199.csv","","null","resources/images/coin2.png","null","",NA,NA,NA,NA,""
"image-keyboard-response",581,500662,"0.0-3.190-0.190","soquxg8t4a9rxk5",882,"199.csv","","258.59999990463257","resources/trios/L4T2A2.jpg","37","restless",0.8,0.5,0.4,0.658234760309788,"true"
"image-keyboard-response",582,501075,"0.0-3.190-1.190","soquxg8t4a9rxk5",882,"199.csv","","null","resources/maskTrios/L4BB.jpg","null","",NA,NA,NA,NA,""
"image-keyboard-response",583,502291,"0.0-3.190-2.190","soquxg8t4a9rxk5",882,"199.csv","","null","resources/images/coin2.png","null","",NA,NA,NA,NA,""
"image-keyboard-response",584,502476,"0.0-3.191-0.191","soquxg8t4a9rxk5",882,"199.csv","","181","resources/trios/L1T2A1.jpg","37","restless",0.8,0.5,0.4,0.834969204337859,"false"
"image-keyboard-response",585,502892,"0.0-3.191-1.191","soquxg8t4a9rxk5",882,"199.csv","","null","resources/maskTrios/L1BB.jpg","null","",NA,NA,NA,NA,""
"image-keyboard-response",586,504106,"0.0-3.191-2.191","soquxg8t4a9rxk5",882,"199.csv","","null","resources/images/fishbone.png","null","",NA,NA,NA,NA,""
"image-keyboard-response",587,504380,"0.0-3.192-0.192","soquxg8t4a9rxk5",882,"199.csv","","271.2999999523163","resources/trios/L4T4A2.jpg","37","restless",0.8,0.5,0.4,0.893155450186167,"false"
"image-keyboard-response",588,504791,"0.0-3.192-1.192","soquxg8t4a9rxk5",882,"199.csv","","null","resources/maskTrios/L4BB.jpg","null","",NA,NA,NA,NA,""
"image-keyboard-response",589,506007,"0.0-3.192-2.192","soquxg8t4a9rxk5",882,"199.csv","","null","resources/images/fishbone.png","null","",NA,NA,NA,NA,""
"image-keyboard-response",590,506358,"0.0-3.193-0.193","soquxg8t4a9rxk5",882,"199.csv","","349.2000000476837","resources/trios/L1T2A1.jpg","37","restless",0.8,0.5,0.4,0.871147641825301,"false"
"image-keyboard-response",591,506773,"0.0-3.193-1.193","soquxg8t4a9rxk5",882,"199.csv","","null","resources/maskTrios/L1BB.jpg","null","",NA,NA,NA,NA,""
"image-keyboard-response",592,507985,"0.0-3.193-2.193","soquxg8t4a9rxk5",882,"199.csv","","null","resources/images/fishbone.png","null","",NA,NA,NA,NA,""
"image-keyboard-response",593,508273,"0.0-3.194-0.194","soquxg8t4a9rxk5",882,"199.csv","","287.19999980926514","resources/trios/L4T4A1.jpg","37","restless",0.8,0.5,0.4,0.00563719369849247,"true"
"image-keyboard-response",594,508687,"0.0-3.194-1.194","soquxg8t4a9rxk5",882,"199.csv","","null","resources/maskTrios/L4BB.jpg","null","",NA,NA,NA,NA,""
"image-keyboard-response",595,509897,"0.0-3.194-2.194","soquxg8t4a9rxk5",882,"199.csv","","null","resources/images/coin2.png","null","",NA,NA,NA,NA,""
"image-keyboard-response",596,510206,"0.0-3.195-0.195","soquxg8t4a9rxk5",882,"199.csv","","307.2999999523163","resources/trios/L1T4A2.jpg","37","restless",0.7,0.5,0.4,0.0753916819448806,"true"
"image-keyboard-response",597,510623,"0.0-3.195-1.195","soquxg8t4a9rxk5",882,"199.csv","","null","resources/maskTrios/L1BB.jpg","null","",NA,NA,NA,NA,""
"image-keyboard-response",598,511836,"0.0-3.195-2.195","soquxg8t4a9rxk5",882,"199.csv","","null","resources/images/coin2.png","null","",NA,NA,NA,NA,""
"image-keyboard-response",599,512119,"0.0-3.196-0.196","soquxg8t4a9rxk5",882,"199.csv","","280.2000000476837","resources/trios/L1T2A1.jpg","37","restless",0.7,0.6,0.4,0.724645330390994,"false"
"image-keyboard-response",600,512523,"0.0-3.196-1.196","soquxg8t4a9rxk5",882,"199.csv","","null","resources/maskTrios/L1BB.jpg","null","",NA,NA,NA,NA,""
"image-keyboard-response",601,513745,"0.0-3.196-2.196","soquxg8t4a9rxk5",882,"199.csv","","null","resources/images/fishbone.png","null","",NA,NA,NA,NA,""
"image-keyboard-response",602,514150,"0.0-3.197-0.197","soquxg8t4a9rxk5",882,"199.csv","","403.2999999523163","resources/trios/L1T2A1.jpg","37","restless",0.7,0.6,0.4,0.553924681448432,"true"
"image-keyboard-response",603,514562,"0.0-3.197-1.197","soquxg8t4a9rxk5",882,"199.csv","","null","resources/maskTrios/L1BB.jpg","null","",NA,NA,NA,NA,""
"image-keyboard-response",604,515784,"0.0-3.197-2.197","soquxg8t4a9rxk5",882,"199.csv","","null","resources/images/coin2.png","null","",NA,NA,NA,NA,""
"image-keyboard-response",605,516039,"0.0-3.198-0.198","soquxg8t4a9rxk5",882,"199.csv","","252.10000014305115","resources/trios/L1T2A1.jpg","37","restless",0.7,0.6,0.5,0.652619848452892,"true"
