"trial_type","trial_index","time_elapsed","internal_node_id","subject","participantCode","walkNumber","success","rt","stimulus","key_press","test_part","leftProb","midProb","rightProb","generatedNum","correct"
"pavlovia",0,1048,"0.0-0.0","4yeju24jhrb68t2",728,"165.csv","","","","","",NA,NA,NA,NA,""
"fullscreen",1,374303,"0.0-1.0","4yeju24jhrb68t2",728,"165.csv","true","","","","",NA,NA,NA,NA,""
"html-keyboard-response",2,382337,"0.0-2.0-0.0","4yeju24jhrb68t2",728,"165.csv","","8031.9000000059605","<p><font size='6'>Arrrgh!</p></font><p>Can you be the best pirate? Try to find lots of gold! But beware, some islands have more gold than others, and over time, the island with the most gold may change. Can YOU figure it out? </p><font size='6'>GOOD LUCK, CAPTAIN!!!</font><p>Press any key to begin</p>","32","",NA,NA,NA,NA,""
"image-keyboard-response",3,385341,"0.0-2.0-1.0","4yeju24jhrb68t2",728,"165.csv","","null","resources/image_sets/111.png","null","",NA,NA,NA,NA,""
"image-keyboard-response",4,393010,"0.0-2.0-2.0","4yeju24jhrb68t2",728,"165.csv","","7664.9000000059605","resources/image_sets/left_highlight.png","37","",NA,NA,NA,NA,""
"image-keyboard-response",5,394811,"0.0-2.0-3.0","4yeju24jhrb68t2",728,"165.csv","","1800","resources/image_sets/mid_highlight.png","38","",NA,NA,NA,NA,""
"image-keyboard-response",6,396045,"0.0-2.0-4.0","4yeju24jhrb68t2",728,"165.csv","","1231.7999999821186","resources/image_sets/right_highlight.png","39","",NA,NA,NA,NA,""
"image-keyboard-response",7,398283,"0.0-2.0-5.0","4yeju24jhrb68t2",728,"165.csv","","2236.5","resources/image_sets/111.png","13","",NA,NA,NA,NA,""
"image-keyboard-response",8,399915,"0.0-2.0-6.0","4yeju24jhrb68t2",728,"165.csv","","1630","resources/images/coin2.png","13","",NA,NA,NA,NA,""
"image-keyboard-response",9,401284,"0.0-2.0-7.0","4yeju24jhrb68t2",728,"165.csv","","1366.7999999821186","resources/images/fishbone.png","13","",NA,NA,NA,NA,""
"html-keyboard-response",10,402446,"0.0-2.0-8.0","4yeju24jhrb68t2",728,"165.csv","","1160.6000000238419","<p>Your first journey will be a long one, but you will get a well deserved break at the end</p><p>After the break you will have four more journeys, but each will be much shorter than the first, and you will have breaks in between each</p><p>Press Enter to begin</p>","13","",NA,NA,NA,NA,""
"image-keyboard-response",11,404263,"0.0-3.0-0.0","4yeju24jhrb68t2",728,"165.csv","","1813.7000000178814","resources/trios/L4T2A2.jpg","39","restless",0.7,0.3,0.9,0.824098350076971,"true"
"image-keyboard-response",12,404679,"0.0-3.0-1.0","4yeju24jhrb68t2",728,"165.csv","","null","resources/maskTrios/BBA2.jpg","null","",NA,NA,NA,NA,""
"image-keyboard-response",13,405895,"0.0-3.0-2.0","4yeju24jhrb68t2",728,"165.csv","","null","resources/images/coin2.png","null","",NA,NA,NA,NA,""
"image-keyboard-response",14,408304,"0.0-3.1-0.1","4yeju24jhrb68t2",728,"165.csv","","2406.199999988079","resources/trios/L4T4A2.jpg","38","restless",0.7,0.3,0.9,0.233232577599771,"true"
"image-keyboard-response",15,408715,"0.0-3.1-1.1","4yeju24jhrb68t2",728,"165.csv","","null","resources/maskTrios/BT4B.jpg","null","",NA,NA,NA,NA,""
"image-keyboard-response",16,409928,"0.0-3.1-2.1","4yeju24jhrb68t2",728,"165.csv","","null","resources/images/coin2.png","null","",NA,NA,NA,NA,""
"image-keyboard-response",17,410709,"0.0-3.2-0.2","4yeju24jhrb68t2",728,"165.csv","","779","resources/trios/L2T4A1.jpg","37","restless",0.7,0.3,0.9,0.57832471157268,"true"
"image-keyboard-response",18,411119,"0.0-3.2-1.2","4yeju24jhrb68t2",728,"165.csv","","null","resources/maskTrios/L2BB.jpg","null","",NA,NA,NA,NA,""
"image-keyboard-response",19,412328,"0.0-3.2-2.2","4yeju24jhrb68t2",728,"165.csv","","null","resources/images/coin2.png","null","",NA,NA,NA,NA,""
"image-keyboard-response",20,414578,"0.0-3.3-0.3","4yeju24jhrb68t2",728,"165.csv","","2248.2999999821186","resources/trios/L2T2A2.jpg","39","restless",0.7,0.4,0.9,0.23630966394406,"true"
"image-keyboard-response",21,414989,"0.0-3.3-1.3","4yeju24jhrb68t2",728,"165.csv","","null","resources/maskTrios/BBA2.jpg","null","",NA,NA,NA,NA,""
"image-keyboard-response",22,416196,"0.0-3.3-2.3","4yeju24jhrb68t2",728,"165.csv","","null","resources/images/coin2.png","null","",NA,NA,NA,NA,""
"image-keyboard-response",23,417343,"0.0-3.4-0.4","4yeju24jhrb68t2",728,"165.csv","","1145.5999999940395","resources/trios/L2T2A1.jpg","39","restless",0.7,0.4,0.9,0.169756488149386,"true"
"image-keyboard-response",24,417752,"0.0-3.4-1.4","4yeju24jhrb68t2",728,"165.csv","","null","resources/maskTrios/BBA1.jpg","null","",NA,NA,NA,NA,""
"image-keyboard-response",25,418956,"0.0-3.4-2.4","4yeju24jhrb68t2",728,"165.csv","","null","resources/images/coin2.png","null","",NA,NA,NA,NA,""
"image-keyboard-response",26,419694,"0.0-3.5-0.5","4yeju24jhrb68t2",728,"165.csv","","736.2999999821186","resources/trios/L4T4A2.jpg","37","restless",0.7,0.4,0.9,0.056796479464126,"true"
"image-keyboard-response",27,420104,"0.0-3.5-1.5","4yeju24jhrb68t2",728,"165.csv","","null","resources/maskTrios/L4BB.jpg","null","",NA,NA,NA,NA,""
"image-keyboard-response",28,421312,"0.0-3.5-2.5","4yeju24jhrb68t2",728,"165.csv","","null","resources/images/coin2.png","null","",NA,NA,NA,NA,""
"image-keyboard-response",29,422635,"0.0-3.6-0.6","4yeju24jhrb68t2",728,"165.csv","","1321.7999999821186","resources/trios/L4T4A2.jpg","38","restless",0.7,0.4,0.9,0.133826541523006,"true"
"image-keyboard-response",30,423048,"0.0-3.6-1.6","4yeju24jhrb68t2",728,"165.csv","","null","resources/maskTrios/BT4B.jpg","null","",NA,NA,NA,NA,""
"image-keyboard-response",31,424256,"0.0-3.6-2.6","4yeju24jhrb68t2",728,"165.csv","","null","resources/images/coin2.png","null","",NA,NA,NA,NA,""
"image-keyboard-response",32,427230,"0.0-3.7-0.7","4yeju24jhrb68t2",728,"165.csv","","2971.7000000178814","resources/trios/L4T2A1.jpg","37","restless",0.7,0.4,0.9,0.0532097824328897,"true"
"image-keyboard-response",33,427636,"0.0-3.7-1.7","4yeju24jhrb68t2",728,"165.csv","","null","resources/maskTrios/L4BB.jpg","null","",NA,NA,NA,NA,""
"image-keyboard-response",34,428848,"0.0-3.7-2.7","4yeju24jhrb68t2",728,"165.csv","","null","resources/images/coin2.png","null","",NA,NA,NA,NA,""
"image-keyboard-response",35,429708,"0.0-3.8-0.8","4yeju24jhrb68t2",728,"165.csv","","857.8999999761581","resources/trios/L2T2A1.jpg","37","restless",0.7,0.4,0.9,0.31823944640338,"true"
"image-keyboard-response",36,430118,"0.0-3.8-1.8","4yeju24jhrb68t2",728,"165.csv","","null","resources/maskTrios/L2BB.jpg","null","",NA,NA,NA,NA,""
"image-keyboard-response",37,431328,"0.0-3.8-2.8","4yeju24jhrb68t2",728,"165.csv","","null","resources/images/coin2.png","null","",NA,NA,NA,NA,""
"image-keyboard-response",38,433233,"0.0-3.9-0.9","4yeju24jhrb68t2",728,"165.csv","","1903","resources/trios/L2T2A1.jpg","39","restless",0.7,0.4,0.9,0.993012912141537,"false"
"image-keyboard-response",39,433638,"0.0-3.9-1.9","4yeju24jhrb68t2",728,"165.csv","","null","resources/maskTrios/BBA1.jpg","null","",NA,NA,NA,NA,""
"image-keyboard-response",40,434848,"0.0-3.9-2.9","4yeju24jhrb68t2",728,"165.csv","","null","resources/images/fishbone.png","null","",NA,NA,NA,NA,""
"image-keyboard-response",41,435671,"0.0-3.10-0.10","4yeju24jhrb68t2",728,"165.csv","","821.5999999940395","resources/trios/L4T4A2.jpg","37","restless",0.7,0.4,0.9,0.840301801431349,"false"
"image-keyboard-response",42,436080,"0.0-3.10-1.10","4yeju24jhrb68t2",728,"165.csv","","null","resources/maskTrios/L4BB.jpg","null","",NA,NA,NA,NA,""
"image-keyboard-response",43,437288,"0.0-3.10-2.10","4yeju24jhrb68t2",728,"165.csv","","null","resources/images/fishbone.png","null","",NA,NA,NA,NA,""
"image-keyboard-response",44,437758,"0.0-3.11-0.11","4yeju24jhrb68t2",728,"165.csv","","468.19999998807907","resources/trios/L4T2A2.jpg","38","restless",0.7,0.4,0.9,0.764632825002012,"false"
"image-keyboard-response",45,438168,"0.0-3.11-1.11","4yeju24jhrb68t2",728,"165.csv","","null","resources/maskTrios/BT2B.jpg","null","",NA,NA,NA,NA,""
"image-keyboard-response",46,439376,"0.0-3.11-2.11","4yeju24jhrb68t2",728,"165.csv","","null","resources/images/fishbone.png","null","",NA,NA,NA,NA,""
"image-keyboard-response",47,439657,"0.0-3.12-0.12","4yeju24jhrb68t2",728,"165.csv","","278.5","resources/trios/L2T2A1.jpg","38","restless",0.7,0.4,0.9,0.648100595442505,"false"
"image-keyboard-response",48,440064,"0.0-3.12-1.12","4yeju24jhrb68t2",728,"165.csv","","null","resources/maskTrios/BT2B.jpg","null","",NA,NA,NA,NA,""
"image-keyboard-response",49,441272,"0.0-3.12-2.12","4yeju24jhrb68t2",728,"165.csv","","null","resources/images/fishbone.png","null","",NA,NA,NA,NA,""
"image-keyboard-response",50,442371,"0.0-3.13-0.13","4yeju24jhrb68t2",728,"165.csv","","1096.7999999821186","resources/trios/L4T2A2.jpg","39","restless",0.7,0.4,0.9,0.425220232378461,"true"
"image-keyboard-response",51,442784,"0.0-3.13-1.13","4yeju24jhrb68t2",728,"165.csv","","null","resources/maskTrios/BBA2.jpg","null","",NA,NA,NA,NA,""
"image-keyboard-response",52,443992,"0.0-3.13-2.13","4yeju24jhrb68t2",728,"165.csv","","null","resources/images/coin2.png","null","",NA,NA,NA,NA,""
"image-keyboard-response",53,445033,"0.0-3.14-0.14","4yeju24jhrb68t2",728,"165.csv","","1039.2999999821186","resources/trios/L4T2A2.jpg","37","restless",0.7,0.4,0.9,0.0943817427773657,"true"
"image-keyboard-response",54,445440,"0.0-3.14-1.14","4yeju24jhrb68t2",728,"165.csv","","null","resources/maskTrios/L4BB.jpg","null","",NA,NA,NA,NA,""
"image-keyboard-response",55,446648,"0.0-3.14-2.14","4yeju24jhrb68t2",728,"165.csv","","null","resources/images/coin2.png","null","",NA,NA,NA,NA,""
"image-keyboard-response",56,447800,"0.0-3.15-0.15","4yeju24jhrb68t2",728,"165.csv","","1149.9000000059605","resources/trios/L2T4A1.jpg","38","restless",0.7,0.4,0.9,0.62827935992236,"false"
"image-keyboard-response",57,448208,"0.0-3.15-1.15","4yeju24jhrb68t2",728,"165.csv","","null","resources/maskTrios/BT4B.jpg","null","",NA,NA,NA,NA,""
"image-keyboard-response",58,449416,"0.0-3.15-2.15","4yeju24jhrb68t2",728,"165.csv","","null","resources/images/fishbone.png","null","",NA,NA,NA,NA,""
"image-keyboard-response",59,449887,"0.0-3.16-0.16","4yeju24jhrb68t2",728,"165.csv","","469.19999998807907","resources/trios/L4T2A2.jpg","37","restless",0.7,0.3,0.9,0.655362849423032,"true"
"image-keyboard-response",60,450296,"0.0-3.16-1.16","4yeju24jhrb68t2",728,"165.csv","","null","resources/maskTrios/L4BB.jpg","null","",NA,NA,NA,NA,""
"image-keyboard-response",61,451503,"0.0-3.16-2.16","4yeju24jhrb68t2",728,"165.csv","","null","resources/images/coin2.png","null","",NA,NA,NA,NA,""
"image-keyboard-response",62,452415,"0.0-3.17-0.17","4yeju24jhrb68t2",728,"165.csv","","910.5999999940395","resources/trios/L2T4A2.jpg","37","restless",0.7,0.3,0.9,0.489005457863357,"true"
"image-keyboard-response",63,452824,"0.0-3.17-1.17","4yeju24jhrb68t2",728,"165.csv","","null","resources/maskTrios/L2BB.jpg","null","",NA,NA,NA,NA,""
"image-keyboard-response",64,454028,"0.0-3.17-2.17","4yeju24jhrb68t2",728,"165.csv","","null","resources/images/coin2.png","null","",NA,NA,NA,NA,""
"image-keyboard-response",65,454227,"0.0-3.18-0.18","4yeju24jhrb68t2",728,"165.csv","","196.7999999821186","resources/trios/L2T4A1.jpg","37","restless",0.6,0.3,0.9,0.358287066401181,"true"
"image-keyboard-response",66,454638,"0.0-3.18-1.18","4yeju24jhrb68t2",728,"165.csv","","null","resources/maskTrios/L2BB.jpg","null","",NA,NA,NA,NA,""
"image-keyboard-response",67,455848,"0.0-3.18-2.18","4yeju24jhrb68t2",728,"165.csv","","null","resources/images/coin2.png","null","",NA,NA,NA,NA,""
"image-keyboard-response",68,456057,"0.0-3.19-0.19","4yeju24jhrb68t2",728,"165.csv","","207.5","resources/trios/L2T2A1.jpg","39","restless",0.6,0.3,0.9,0.948562503216938,"false"
"image-keyboard-response",69,456472,"0.0-3.19-1.19","4yeju24jhrb68t2",728,"165.csv","","null","resources/maskTrios/BBA1.jpg","null","",NA,NA,NA,NA,""
"image-keyboard-response",70,457680,"0.0-3.19-2.19","4yeju24jhrb68t2",728,"165.csv","","null","resources/images/fishbone.png","null","",NA,NA,NA,NA,""
"image-keyboard-response",71,457950,"0.0-3.20-0.20","4yeju24jhrb68t2",728,"165.csv","","268.2999999821186","resources/trios/L4T4A2.jpg","37","restless",0.6,0.3,0.9,0.72772071684814,"false"
"image-keyboard-response",72,458360,"0.0-3.20-1.20","4yeju24jhrb68t2",728,"165.csv","","null","resources/maskTrios/L4BB.jpg","null","",NA,NA,NA,NA,""
"image-keyboard-response",73,459568,"0.0-3.20-2.20","4yeju24jhrb68t2",728,"165.csv","","null","resources/images/fishbone.png","null","",NA,NA,NA,NA,""
"image-keyboard-response",74,459576,"0.0-3.21-0.21","4yeju24jhrb68t2",728,"165.csv","","6.399999976158142","resources/trios/L2T4A1.jpg","38","restless",0.6,0.3,0.9,0.526630135089736,"false"
"image-keyboard-response",75,459979,"0.0-3.21-1.21","4yeju24jhrb68t2",728,"165.csv","","null","resources/maskTrios/BT4B.jpg","null","",NA,NA,NA,NA,""
"image-keyboard-response",76,461192,"0.0-3.21-2.21","4yeju24jhrb68t2",728,"165.csv","","null","resources/images/fishbone.png","null","",NA,NA,NA,NA,""
"image-keyboard-response",77,461373,"0.0-3.22-0.22","4yeju24jhrb68t2",728,"165.csv","","178.90000000596046","resources/trios/L2T2A1.jpg","38","restless",0.6,0.3,0.9,0.686039517158425,"false"
"image-keyboard-response",78,461784,"0.0-3.22-1.22","4yeju24jhrb68t2",728,"165.csv","","null","resources/maskTrios/BT2B.jpg","null","",NA,NA,NA,NA,""
"image-keyboard-response",79,462988,"0.0-3.22-2.22","4yeju24jhrb68t2",728,"165.csv","","null","resources/images/fishbone.png","null","",NA,NA,NA,NA,""
"image-keyboard-response",80,463118,"0.0-3.23-0.23","4yeju24jhrb68t2",728,"165.csv","","128.5","resources/trios/L2T2A2.jpg","38","restless",0.6,0.4,0.9,0.577193464460904,"false"
"image-keyboard-response",81,463527,"0.0-3.23-1.23","4yeju24jhrb68t2",728,"165.csv","","null","resources/maskTrios/BT2B.jpg","null","",NA,NA,NA,NA,""
"image-keyboard-response",82,464733,"0.0-3.23-2.23","4yeju24jhrb68t2",728,"165.csv","","null","resources/images/fishbone.png","null","",NA,NA,NA,NA,""
"image-keyboard-response",83,465001,"0.0-3.24-0.24","4yeju24jhrb68t2",728,"165.csv","","266.19999998807907","resources/trios/L4T4A1.jpg","38","restless",0.6,0.4,0.9,0.185295922145534,"true"
"image-keyboard-response",84,465408,"0.0-3.24-1.24","4yeju24jhrb68t2",728,"165.csv","","null","resources/maskTrios/BT4B.jpg","null","",NA,NA,NA,NA,""
"image-keyboard-response",85,466616,"0.0-3.24-2.24","4yeju24jhrb68t2",728,"165.csv","","null","resources/images/coin2.png","null","",NA,NA,NA,NA,""
"image-keyboard-response",86,466920,"0.0-3.25-0.25","4yeju24jhrb68t2",728,"165.csv","","302.60000002384186","resources/trios/L2T2A1.jpg","38","restless",0.6,0.4,0.8,0.147462922324669,"true"
"image-keyboard-response",87,467328,"0.0-3.25-1.25","4yeju24jhrb68t2",728,"165.csv","","null","resources/maskTrios/BT2B.jpg","null","",NA,NA,NA,NA,""
"image-keyboard-response",88,468536,"0.0-3.25-2.25","4yeju24jhrb68t2",728,"165.csv","","null","resources/images/coin2.png","null","",NA,NA,NA,NA,""
"image-keyboard-response",89,468857,"0.0-3.26-0.26","4yeju24jhrb68t2",728,"165.csv","","319.2000000178814","resources/trios/L2T4A2.jpg","38","restless",0.6,0.4,0.8,0.767782230911741,"false"
"image-keyboard-response",90,469264,"0.0-3.26-1.26","4yeju24jhrb68t2",728,"165.csv","","null","resources/maskTrios/BT4B.jpg","null","",NA,NA,NA,NA,""
"image-keyboard-response",91,470472,"0.0-3.26-2.26","4yeju24jhrb68t2",728,"165.csv","","null","resources/images/fishbone.png","null","",NA,NA,NA,NA,""
"image-keyboard-response",92,471109,"0.0-3.27-0.27","4yeju24jhrb68t2",728,"165.csv","","635.5999999940395","resources/trios/L4T2A1.jpg","39","restless",0.6,0.4,0.7,0.607408931884003,"true"
"image-keyboard-response",93,471520,"0.0-3.27-1.27","4yeju24jhrb68t2",728,"165.csv","","null","resources/maskTrios/BBA1.jpg","null","",NA,NA,NA,NA,""
"image-keyboard-response",94,472726,"0.0-3.27-2.27","4yeju24jhrb68t2",728,"165.csv","","null","resources/images/coin2.png","null","",NA,NA,NA,NA,""
"image-keyboard-response",95,472801,"0.0-3.28-0.28","4yeju24jhrb68t2",728,"165.csv","","73.69999998807907","resources/trios/L4T4A2.jpg","37","restless",0.6,0.4,0.7,0.19726288102382,"true"
"image-keyboard-response",96,473204,"0.0-3.28-1.28","4yeju24jhrb68t2",728,"165.csv","","null","resources/maskTrios/L4BB.jpg","null","",NA,NA,NA,NA,""
"image-keyboard-response",97,474416,"0.0-3.28-2.28","4yeju24jhrb68t2",728,"165.csv","","null","resources/images/coin2.png","null","",NA,NA,NA,NA,""
"image-keyboard-response",98,474558,"0.0-3.29-0.29","4yeju24jhrb68t2",728,"165.csv","","140.09999999403954","resources/trios/L4T4A1.jpg","37","restless",0.6,0.4,0.7,0.907096345909931,"false"
"image-keyboard-response",99,474964,"0.0-3.29-1.29","4yeju24jhrb68t2",728,"165.csv","","null","resources/maskTrios/L4BB.jpg","null","",NA,NA,NA,NA,""
"image-keyboard-response",100,476176,"0.0-3.29-2.29","4yeju24jhrb68t2",728,"165.csv","","null","resources/images/fishbone.png","null","",NA,NA,NA,NA,""
"image-keyboard-response",101,476207,"0.0-3.30-0.30","4yeju24jhrb68t2",728,"165.csv","","29.5","resources/trios/L2T2A1.jpg","38","restless",0.5,0.4,0.7,0.390420933722276,"true"
"image-keyboard-response",102,476612,"0.0-3.30-1.30","4yeju24jhrb68t2",728,"165.csv","","null","resources/maskTrios/BT2B.jpg","null","",NA,NA,NA,NA,""
"image-keyboard-response",103,477815,"0.0-3.30-2.30","4yeju24jhrb68t2",728,"165.csv","","null","resources/images/coin2.png","null","",NA,NA,NA,NA,""
"image-keyboard-response",104,477871,"0.0-3.31-0.31","4yeju24jhrb68t2",728,"165.csv","","54.60000002384186","resources/trios/L2T2A2.jpg","38","restless",0.5,0.4,0.7,0.48910254982484,"false"
"image-keyboard-response",105,478276,"0.0-3.31-1.31","4yeju24jhrb68t2",728,"165.csv","","null","resources/maskTrios/BT2B.jpg","null","",NA,NA,NA,NA,""
"image-keyboard-response",106,479487,"0.0-3.31-2.31","4yeju24jhrb68t2",728,"165.csv","","null","resources/images/fishbone.png","null","",NA,NA,NA,NA,""
"image-keyboard-response",107,479528,"0.0-3.32-0.32","4yeju24jhrb68t2",728,"165.csv","","39","resources/trios/L4T4A1.jpg","37","restless",0.5,0.4,0.7,0.342453042539715,"true"
"image-keyboard-response",108,479936,"0.0-3.32-1.32","4yeju24jhrb68t2",728,"165.csv","","null","resources/maskTrios/L4BB.jpg","null","",NA,NA,NA,NA,""
"image-keyboard-response",109,481144,"0.0-3.32-2.32","4yeju24jhrb68t2",728,"165.csv","","null","resources/images/coin2.png","null","",NA,NA,NA,NA,""
"image-keyboard-response",110,481248,"0.0-3.33-0.33","4yeju24jhrb68t2",728,"165.csv","","101.5","resources/trios/L2T4A1.jpg","39","restless",0.5,0.4,0.6,0.103033389966636,"true"
"image-keyboard-response",111,481652,"0.0-3.33-1.33","4yeju24jhrb68t2",728,"165.csv","","null","resources/maskTrios/BBA1.jpg","null","",NA,NA,NA,NA,""
"image-keyboard-response",112,482862,"0.0-3.33-2.33","4yeju24jhrb68t2",728,"165.csv","","null","resources/images/coin2.png","null","",NA,NA,NA,NA,""
"image-keyboard-response",113,482871,"0.0-3.34-0.34","4yeju24jhrb68t2",728,"165.csv","","6.9000000059604645","resources/trios/L2T4A1.jpg","38","restless",0.5,0.4,0.6,0.00341045203445978,"true"
"image-keyboard-response",114,483276,"0.0-3.34-1.34","4yeju24jhrb68t2",728,"165.csv","","null","resources/maskTrios/BT4B.jpg","null","",NA,NA,NA,NA,""
"image-keyboard-response",115,484488,"0.0-3.34-2.34","4yeju24jhrb68t2",728,"165.csv","","null","resources/images/coin2.png","null","",NA,NA,NA,NA,""
"image-keyboard-response",116,484780,"0.0-3.35-0.35","4yeju24jhrb68t2",728,"165.csv","","290","resources/trios/L2T2A1.jpg","37","restless",0.5,0.4,0.6,0.718607557558294,"false"
"image-keyboard-response",117,485192,"0.0-3.35-1.35","4yeju24jhrb68t2",728,"165.csv","","null","resources/maskTrios/L2BB.jpg","null","",NA,NA,NA,NA,""
"image-keyboard-response",118,486396,"0.0-3.35-2.35","4yeju24jhrb68t2",728,"165.csv","","null","resources/images/fishbone.png","null","",NA,NA,NA,NA,""
"image-keyboard-response",119,486839,"0.0-3.36-0.36","4yeju24jhrb68t2",728,"165.csv","","440.80000001192093","resources/trios/L4T4A2.jpg","38","restless",0.4,0.4,0.6,0.649834433296666,"false"
"image-keyboard-response",120,487243,"0.0-3.36-1.36","4yeju24jhrb68t2",728,"165.csv","","null","resources/maskTrios/BT4B.jpg","null","",NA,NA,NA,NA,""
"image-keyboard-response",121,488456,"0.0-3.36-2.36","4yeju24jhrb68t2",728,"165.csv","","null","resources/images/fishbone.png","null","",NA,NA,NA,NA,""
"image-keyboard-response",122,488512,"0.0-3.37-0.37","4yeju24jhrb68t2",728,"165.csv","","54.5","resources/trios/L2T4A1.jpg","38","restless",0.4,0.4,0.6,0.620730853233288,"false"
"image-keyboard-response",123,488916,"0.0-3.37-1.37","4yeju24jhrb68t2",728,"165.csv","","null","resources/maskTrios/BT4B.jpg","null","",NA,NA,NA,NA,""
"image-keyboard-response",124,490124,"0.0-3.37-2.37","4yeju24jhrb68t2",728,"165.csv","","null","resources/images/fishbone.png","null","",NA,NA,NA,NA,""
"image-keyboard-response",125,490672,"0.0-3.38-0.38","4yeju24jhrb68t2",728,"165.csv","","545.7999999821186","resources/trios/L4T2A2.jpg","38","restless",0.4,0.4,0.6,0.296073534843233,"true"
"image-keyboard-response",126,491076,"0.0-3.38-1.38","4yeju24jhrb68t2",728,"165.csv","","null","resources/maskTrios/BT2B.jpg","null","",NA,NA,NA,NA,""
"image-keyboard-response",127,492288,"0.0-3.38-2.38","4yeju24jhrb68t2",728,"165.csv","","null","resources/images/coin2.png","null","",NA,NA,NA,NA,""
"image-keyboard-response",128,492465,"0.0-3.39-0.39","4yeju24jhrb68t2",728,"165.csv","","175.7000000178814","resources/trios/L2T2A2.jpg","37","restless",0.4,0.4,0.6,0.014184805245669,"true"
"image-keyboard-response",129,492880,"0.0-3.39-1.39","4yeju24jhrb68t2",728,"165.csv","","null","resources/maskTrios/L2BB.jpg","null","",NA,NA,NA,NA,""
"image-keyboard-response",130,494088,"0.0-3.39-2.39","4yeju24jhrb68t2",728,"165.csv","","null","resources/images/coin2.png","null","",NA,NA,NA,NA,""
"image-keyboard-response",131,494155,"0.0-3.40-0.40","4yeju24jhrb68t2",728,"165.csv","","65.09999999403954","resources/trios/L4T4A2.jpg","37","restless",0.4,0.4,0.6,0.288538461268994,"true"
"image-keyboard-response",132,494568,"0.0-3.40-1.40","4yeju24jhrb68t2",728,"165.csv","","null","resources/maskTrios/L4BB.jpg","null","",NA,NA,NA,NA,""
"image-keyboard-response",133,495773,"0.0-3.40-2.40","4yeju24jhrb68t2",728,"165.csv","","null","resources/images/coin2.png","null","",NA,NA,NA,NA,""
"image-keyboard-response",134,496035,"0.0-3.41-0.41","4yeju24jhrb68t2",728,"165.csv","","260.2999999821186","resources/trios/L2T2A2.jpg","38","restless",0.4,0.4,0.6,0.0689125982757497,"true"
"image-keyboard-response",135,496448,"0.0-3.41-1.41","4yeju24jhrb68t2",728,"165.csv","","null","resources/maskTrios/BT2B.jpg","null","",NA,NA,NA,NA,""
"image-keyboard-response",136,497656,"0.0-3.41-2.41","4yeju24jhrb68t2",728,"165.csv","","null","resources/images/coin2.png","null","",NA,NA,NA,NA,""
"image-keyboard-response",137,497781,"0.0-3.42-0.42","4yeju24jhrb68t2",728,"165.csv","","122.09999999403954","resources/trios/L2T2A2.jpg","38","restless",0.4,0.4,0.6,0.326546640204987,"true"
"image-keyboard-response",138,498192,"0.0-3.42-1.42","4yeju24jhrb68t2",728,"165.csv","","null","resources/maskTrios/BT2B.jpg","null","",NA,NA,NA,NA,""
"image-keyboard-response",139,499396,"0.0-3.42-2.42","4yeju24jhrb68t2",728,"165.csv","","null","resources/images/coin2.png","null","",NA,NA,NA,NA,""
"image-keyboard-response",140,499538,"0.0-3.43-0.43","4yeju24jhrb68t2",728,"165.csv","","140.2000000178814","resources/trios/L4T2A2.jpg","38","restless",0.4,0.4,0.6,0.367745053545545,"true"
"image-keyboard-response",141,499952,"0.0-3.43-1.43","4yeju24jhrb68t2",728,"165.csv","","null","resources/maskTrios/BT2B.jpg","null","",NA,NA,NA,NA,""
"image-keyboard-response",142,501158,"0.0-3.43-2.43","4yeju24jhrb68t2",728,"165.csv","","null","resources/images/coin2.png","null","",NA,NA,NA,NA,""
"image-keyboard-response",143,501257,"0.0-3.44-0.44","4yeju24jhrb68t2",728,"165.csv","","96.7000000178814","resources/trios/L2T2A1.jpg","39","restless",0.4,0.4,0.6,0.743982946039992,"false"
"image-keyboard-response",144,501664,"0.0-3.44-1.44","4yeju24jhrb68t2",728,"165.csv","","null","resources/maskTrios/BBA1.jpg","null","",NA,NA,NA,NA,""
"image-keyboard-response",145,502871,"0.0-3.44-2.44","4yeju24jhrb68t2",728,"165.csv","","null","resources/images/fishbone.png","null","",NA,NA,NA,NA,""
"image-keyboard-response",146,502920,"0.0-3.45-0.45","4yeju24jhrb68t2",728,"165.csv","","46.89999997615814","resources/trios/L4T2A2.jpg","38","restless",0.3,0.4,0.6,0.464979033334145,"false"
"image-keyboard-response",147,503324,"0.0-3.45-1.45","4yeju24jhrb68t2",728,"165.csv","","null","resources/maskTrios/BT2B.jpg","null","",NA,NA,NA,NA,""
"image-keyboard-response",148,504528,"0.0-3.45-2.45","4yeju24jhrb68t2",728,"165.csv","","null","resources/images/fishbone.png","null","",NA,NA,NA,NA,""
"image-keyboard-response",149,504565,"0.0-3.46-0.46","4yeju24jhrb68t2",728,"165.csv","","34.5","resources/trios/L4T4A2.jpg","39","restless",0.3,0.4,0.6,0.531016782314446,"true"
"image-keyboard-response",150,504972,"0.0-3.46-1.46","4yeju24jhrb68t2",728,"165.csv","","null","resources/maskTrios/BBA2.jpg","null","",NA,NA,NA,NA,""
"image-keyboard-response",151,506184,"0.0-3.46-2.46","4yeju24jhrb68t2",728,"165.csv","","null","resources/images/coin2.png","null","",NA,NA,NA,NA,""
"image-keyboard-response",152,506287,"0.0-3.47-0.47","4yeju24jhrb68t2",728,"165.csv","","101.09999999403954","resources/trios/L4T4A1.jpg","39","restless",0.3,0.4,0.7,0.962235461357838,"false"
"image-keyboard-response",153,506693,"0.0-3.47-1.47","4yeju24jhrb68t2",728,"165.csv","","null","resources/maskTrios/BBA1.jpg","null","",NA,NA,NA,NA,""
"image-keyboard-response",154,507896,"0.0-3.47-2.47","4yeju24jhrb68t2",728,"165.csv","","null","resources/images/fishbone.png","null","",NA,NA,NA,NA,""
"image-keyboard-response",155,507939,"0.0-3.48-0.48","4yeju24jhrb68t2",728,"165.csv","","41.099999994039536","resources/trios/L4T2A2.jpg","38","restless",0.3,0.4,0.7,0.0309143030752863,"true"
"image-keyboard-response",156,508352,"0.0-3.48-1.48","4yeju24jhrb68t2",728,"165.csv","","null","resources/maskTrios/BT2B.jpg","null","",NA,NA,NA,NA,""
"image-keyboard-response",157,509556,"0.0-3.48-2.48","4yeju24jhrb68t2",728,"165.csv","","null","resources/images/coin2.png","null","",NA,NA,NA,NA,""
"image-keyboard-response",158,509683,"0.0-3.49-0.49","4yeju24jhrb68t2",728,"165.csv","","124.5","resources/trios/L2T4A2.jpg","38","restless",0.3,0.4,0.7,0.73566978188721,"false"
"image-keyboard-response",159,510092,"0.0-3.49-1.49","4yeju24jhrb68t2",728,"165.csv","","null","resources/maskTrios/BT4B.jpg","null","",NA,NA,NA,NA,""
"image-keyboard-response",160,511304,"0.0-3.49-2.49","4yeju24jhrb68t2",728,"165.csv","","null","resources/images/fishbone.png","null","",NA,NA,NA,NA,""
"image-keyboard-response",161,511540,"0.0-3.50-0.50","4yeju24jhrb68t2",728,"165.csv","","233.7000000178814","resources/trios/L4T2A2.jpg","39","restless",0.3,0.4,0.7,0.74468625507048,"false"
"image-keyboard-response",162,511952,"0.0-3.50-1.50","4yeju24jhrb68t2",728,"165.csv","","null","resources/maskTrios/BBA2.jpg","null","",NA,NA,NA,NA,""
"image-keyboard-response",163,513160,"0.0-3.50-2.50","4yeju24jhrb68t2",728,"165.csv","","null","resources/images/fishbone.png","null","",NA,NA,NA,NA,""
"image-keyboard-response",164,513316,"0.0-3.51-0.51","4yeju24jhrb68t2",728,"165.csv","","153.60000002384186","resources/trios/L2T4A1.jpg","38","restless",0.3,0.4,0.8,0.803126283376976,"false"
"image-keyboard-response",165,513728,"0.0-3.51-1.51","4yeju24jhrb68t2",728,"165.csv","","null","resources/maskTrios/BT4B.jpg","null","",NA,NA,NA,NA,""
"image-keyboard-response",166,514936,"0.0-3.51-2.51","4yeju24jhrb68t2",728,"165.csv","","null","resources/images/fishbone.png","null","",NA,NA,NA,NA,""
"image-keyboard-response",167,515001,"0.0-3.52-0.52","4yeju24jhrb68t2",728,"165.csv","","62.69999998807907","resources/trios/L4T2A1.jpg","38","restless",0.3,0.4,0.8,0.903683640255735,"false"
"image-keyboard-response",168,515404,"0.0-3.52-1.52","4yeju24jhrb68t2",728,"165.csv","","null","resources/maskTrios/BT2B.jpg","null","",NA,NA,NA,NA,""
"image-keyboard-response",169,516616,"0.0-3.52-2.52","4yeju24jhrb68t2",728,"165.csv","","null","resources/images/fishbone.png","null","",NA,NA,NA,NA,""
"image-keyboard-response",170,518497,"0.0-3.53-0.53","4yeju24jhrb68t2",728,"165.csv","","1878.300000011921","resources/trios/L4T2A2.jpg","37","restless",0.3,0.4,0.8,0.395896027869118,"false"
"image-keyboard-response",171,518904,"0.0-3.53-1.53","4yeju24jhrb68t2",728,"165.csv","","null","resources/maskTrios/L4BB.jpg","null","",NA,NA,NA,NA,""
"image-keyboard-response",172,520112,"0.0-3.53-2.53","4yeju24jhrb68t2",728,"165.csv","","null","resources/images/fishbone.png","null","",NA,NA,NA,NA,""
"image-keyboard-response",173,522355,"0.0-3.54-0.54","4yeju24jhrb68t2",728,"165.csv","","2240.800000011921","resources/trios/L4T4A1.jpg","38","restless",0.3,0.5,0.8,0.88941382030689,"false"
"image-keyboard-response",174,522768,"0.0-3.54-1.54","4yeju24jhrb68t2",728,"165.csv","","null","resources/maskTrios/BT4B.jpg","null","",NA,NA,NA,NA,""
"image-keyboard-response",175,523976,"0.0-3.54-2.54","4yeju24jhrb68t2",728,"165.csv","","null","resources/images/fishbone.png","null","",NA,NA,NA,NA,""
"image-keyboard-response",176,524067,"0.0-3.55-0.55","4yeju24jhrb68t2",728,"165.csv","","89.19999998807907","resources/trios/L2T2A2.jpg","39","restless",0.3,0.5,0.8,0.843558281169948,"false"
"image-keyboard-response",177,524475,"0.0-3.55-1.55","4yeju24jhrb68t2",728,"165.csv","","null","resources/maskTrios/BBA2.jpg","null","",NA,NA,NA,NA,""
"image-keyboard-response",178,525688,"0.0-3.55-2.55","4yeju24jhrb68t2",728,"165.csv","","null","resources/images/fishbone.png","null","",NA,NA,NA,NA,""
"image-keyboard-response",179,525932,"0.0-3.56-0.56","4yeju24jhrb68t2",728,"165.csv","","241.59999999403954","resources/trios/L4T2A1.jpg","39","restless",0.3,0.5,0.8,0.306384520459319,"true"
"image-keyboard-response",180,526344,"0.0-3.56-1.56","4yeju24jhrb68t2",728,"165.csv","","null","resources/maskTrios/BBA1.jpg","null","",NA,NA,NA,NA,""
"image-keyboard-response",181,527552,"0.0-3.56-2.56","4yeju24jhrb68t2",728,"165.csv","","null","resources/images/coin2.png","null","",NA,NA,NA,NA,""
"image-keyboard-response",182,527672,"0.0-3.57-0.57","4yeju24jhrb68t2",728,"165.csv","","117.2000000178814","resources/trios/L2T4A2.jpg","39","restless",0.3,0.5,0.8,0.403251519177615,"true"
"image-keyboard-response",183,528076,"0.0-3.57-1.57","4yeju24jhrb68t2",728,"165.csv","","null","resources/maskTrios/BBA2.jpg","null","",NA,NA,NA,NA,""
"image-keyboard-response",184,529285,"0.0-3.57-2.57","4yeju24jhrb68t2",728,"165.csv","","null","resources/images/coin2.png","null","",NA,NA,NA,NA,""
"image-keyboard-response",185,529336,"0.0-3.58-0.58","4yeju24jhrb68t2",728,"165.csv","","49.5","resources/trios/L4T2A2.jpg","38","restless",0.3,0.5,0.8,0.960960104191327,"false"
"image-keyboard-response",186,529744,"0.0-3.58-1.58","4yeju24jhrb68t2",728,"165.csv","","null","resources/maskTrios/BT2B.jpg","null","",NA,NA,NA,NA,""
"image-keyboard-response",187,530952,"0.0-3.58-2.58","4yeju24jhrb68t2",728,"165.csv","","null","resources/images/fishbone.png","null","",NA,NA,NA,NA,""
"image-keyboard-response",188,531047,"0.0-3.59-0.59","4yeju24jhrb68t2",728,"165.csv","","93.59999999403954","resources/trios/L4T4A2.jpg","37","restless",0.3,0.5,0.8,0.411312193124596,"false"
"image-keyboard-response",189,531456,"0.0-3.59-1.59","4yeju24jhrb68t2",728,"165.csv","","null","resources/maskTrios/L4BB.jpg","null","",NA,NA,NA,NA,""
"image-keyboard-response",190,532664,"0.0-3.59-2.59","4yeju24jhrb68t2",728,"165.csv","","null","resources/images/fishbone.png","null","",NA,NA,NA,NA,""
"image-keyboard-response",191,532767,"0.0-3.60-0.60","4yeju24jhrb68t2",728,"165.csv","","100.90000000596046","resources/trios/L4T2A1.jpg","38","restless",0.3,0.5,0.8,0.0348080800361006,"true"
"image-keyboard-response",192,533176,"0.0-3.60-1.60","4yeju24jhrb68t2",728,"165.csv","","null","resources/maskTrios/BT2B.jpg","null","",NA,NA,NA,NA,""
"image-keyboard-response",193,534384,"0.0-3.60-2.60","4yeju24jhrb68t2",728,"165.csv","","null","resources/images/coin2.png","null","",NA,NA,NA,NA,""
"image-keyboard-response",194,534388,"0.0-3.61-0.61","4yeju24jhrb68t2",728,"165.csv","","1.699999988079071","resources/trios/L2T2A1.jpg","39","restless",0.3,0.5,0.8,0.507532020985685,"true"
"image-keyboard-response",195,534798,"0.0-3.61-1.61","4yeju24jhrb68t2",728,"165.csv","","null","resources/maskTrios/BBA1.jpg","null","",NA,NA,NA,NA,""
"image-keyboard-response",196,536004,"0.0-3.61-2.61","4yeju24jhrb68t2",728,"165.csv","","null","resources/images/coin2.png","null","",NA,NA,NA,NA,""
"image-keyboard-response",197,536024,"0.0-3.62-0.62","4yeju24jhrb68t2",728,"165.csv","","17.5","resources/trios/L2T2A1.jpg","37","restless",0.3,0.5,0.8,0.830508574853147,"false"
"image-keyboard-response",198,536430,"0.0-3.62-1.62","4yeju24jhrb68t2",728,"165.csv","","null","resources/maskTrios/L2BB.jpg","null","",NA,NA,NA,NA,""
"image-keyboard-response",199,537638,"0.0-3.62-2.62","4yeju24jhrb68t2",728,"165.csv","","null","resources/images/fishbone.png","null","",NA,NA,NA,NA,""
"image-keyboard-response",200,537799,"0.0-3.63-0.63","4yeju24jhrb68t2",728,"165.csv","","159.7000000178814","resources/trios/L4T2A2.jpg","38","restless",0.3,0.5,0.8,0.433273879317045,"true"
"image-keyboard-response",201,538208,"0.0-3.63-1.63","4yeju24jhrb68t2",728,"165.csv","","null","resources/maskTrios/BT2B.jpg","null","",NA,NA,NA,NA,""
"image-keyboard-response",202,539416,"0.0-3.63-2.63","4yeju24jhrb68t2",728,"165.csv","","null","resources/images/coin2.png","null","",NA,NA,NA,NA,""
"image-keyboard-response",203,539507,"0.0-3.64-0.64","4yeju24jhrb68t2",728,"165.csv","","88.90000000596046","resources/trios/L2T2A1.jpg","38","restless",0.3,0.5,0.8,0.826109059427431,"false"
"image-keyboard-response",204,539920,"0.0-3.64-1.64","4yeju24jhrb68t2",728,"165.csv","","null","resources/maskTrios/BT2B.jpg","null","",NA,NA,NA,NA,""
"image-keyboard-response",205,541128,"0.0-3.64-2.64","4yeju24jhrb68t2",728,"165.csv","","null","resources/images/fishbone.png","null","",NA,NA,NA,NA,""
"image-keyboard-response",206,541629,"0.0-3.65-0.65","4yeju24jhrb68t2",728,"165.csv","","499","resources/trios/L2T2A2.jpg","38","restless",0.3,0.5,0.8,0.990583375240336,"false"
"image-keyboard-response",207,542036,"0.0-3.65-1.65","4yeju24jhrb68t2",728,"165.csv","","null","resources/maskTrios/BT2B.jpg","null","",NA,NA,NA,NA,""
"image-keyboard-response",208,543248,"0.0-3.65-2.65","4yeju24jhrb68t2",728,"165.csv","","null","resources/images/fishbone.png","null","",NA,NA,NA,NA,""
"image-keyboard-response",209,543316,"0.0-3.66-0.66","4yeju24jhrb68t2",728,"165.csv","","65.40000000596046","resources/trios/L4T2A2.jpg","37","restless",0.3,0.5,0.8,0.717521821877903,"false"
"image-keyboard-response",210,543728,"0.0-3.66-1.66","4yeju24jhrb68t2",728,"165.csv","","null","resources/maskTrios/L4BB.jpg","null","",NA,NA,NA,NA,""
"image-keyboard-response",211,544933,"0.0-3.66-2.66","4yeju24jhrb68t2",728,"165.csv","","null","resources/images/fishbone.png","null","",NA,NA,NA,NA,""
"image-keyboard-response",212,545031,"0.0-3.67-0.67","4yeju24jhrb68t2",728,"165.csv","","95.80000001192093","resources/trios/L2T4A2.jpg","37","restless",0.3,0.5,0.8,0.885225488588012,"false"
"image-keyboard-response",213,545437,"0.0-3.67-1.67","4yeju24jhrb68t2",728,"165.csv","","null","resources/maskTrios/L2BB.jpg","null","",NA,NA,NA,NA,""
"image-keyboard-response",214,546640,"0.0-3.67-2.67","4yeju24jhrb68t2",728,"165.csv","","null","resources/images/fishbone.png","null","",NA,NA,NA,NA,""
"image-keyboard-response",215,546642,"0.0-3.68-0.68","4yeju24jhrb68t2",728,"165.csv","","0.09999999403953552","resources/trios/L4T4A1.jpg","38","restless",0.3,0.5,0.8,0.242023426437039,"true"
"image-keyboard-response",216,547056,"0.0-3.68-1.68","4yeju24jhrb68t2",728,"165.csv","","null","resources/maskTrios/BT4B.jpg","null","",NA,NA,NA,NA,""
"image-keyboard-response",217,548264,"0.0-3.68-2.68","4yeju24jhrb68t2",728,"165.csv","","null","resources/images/coin2.png","null","",NA,NA,NA,NA,""
"image-keyboard-response",218,548379,"0.0-3.69-0.69","4yeju24jhrb68t2",728,"165.csv","","113.10000002384186","resources/trios/L2T4A2.jpg","38","restless",0.3,0.5,0.7,0.212561937129726,"true"
"image-keyboard-response",219,548792,"0.0-3.69-1.69","4yeju24jhrb68t2",728,"165.csv","","null","resources/maskTrios/BT4B.jpg","null","",NA,NA,NA,NA,""
"image-keyboard-response",220,550000,"0.0-3.69-2.69","4yeju24jhrb68t2",728,"165.csv","","null","resources/images/coin2.png","null","",NA,NA,NA,NA,""
"image-keyboard-response",221,550057,"0.0-3.70-0.70","4yeju24jhrb68t2",728,"165.csv","","55.30000001192093","resources/trios/L4T4A2.jpg","39","restless",0.3,0.5,0.7,0.61329721658254,"true"
"image-keyboard-response",222,550460,"0.0-3.70-1.70","4yeju24jhrb68t2",728,"165.csv","","null","resources/maskTrios/BBA2.jpg","null","",NA,NA,NA,NA,""
"image-keyboard-response",223,551672,"0.0-3.70-2.70","4yeju24jhrb68t2",728,"165.csv","","null","resources/images/coin2.png","null","",NA,NA,NA,NA,""
"image-keyboard-response",224,551794,"0.0-3.71-0.71","4yeju24jhrb68t2",728,"165.csv","","119.5","resources/trios/L2T2A2.jpg","39","restless",0.3,0.6,0.7,0.846379381479865,"false"
"image-keyboard-response",225,552206,"0.0-3.71-1.71","4yeju24jhrb68t2",728,"165.csv","","null","resources/maskTrios/BBA2.jpg","null","",NA,NA,NA,NA,""
"image-keyboard-response",226,553416,"0.0-3.71-2.71","4yeju24jhrb68t2",728,"165.csv","","null","resources/images/fishbone.png","null","",NA,NA,NA,NA,""
"image-keyboard-response",227,553417,"0.0-3.72-0.72","4yeju24jhrb68t2",728,"165.csv","","0","resources/trios/L2T4A2.jpg","38","restless",0.3,0.6,0.7,0.888948905960327,"false"
"image-keyboard-response",228,553822,"0.0-3.72-1.72","4yeju24jhrb68t2",728,"165.csv","","null","resources/maskTrios/BT4B.jpg","null","",NA,NA,NA,NA,""
"image-keyboard-response",229,555030,"0.0-3.72-2.72","4yeju24jhrb68t2",728,"165.csv","","null","resources/images/fishbone.png","null","",NA,NA,NA,NA,""
"image-keyboard-response",230,555280,"0.0-3.73-0.73","4yeju24jhrb68t2",728,"165.csv","","248.09999999403954","resources/trios/L4T2A2.jpg","39","restless",0.4,0.6,0.8,0.0936975476932842,"true"
"image-keyboard-response",231,555688,"0.0-3.73-1.73","4yeju24jhrb68t2",728,"165.csv","","null","resources/maskTrios/BBA2.jpg","null","",NA,NA,NA,NA,""
"image-keyboard-response",232,556896,"0.0-3.73-2.73","4yeju24jhrb68t2",728,"165.csv","","null","resources/images/coin2.png","null","",NA,NA,NA,NA,""
"image-keyboard-response",233,557117,"0.0-3.74-0.74","4yeju24jhrb68t2",728,"165.csv","","219","resources/trios/L2T2A1.jpg","37","restless",0.4,0.6,0.8,0.46368108562742,"false"
"image-keyboard-response",234,557528,"0.0-3.74-1.74","4yeju24jhrb68t2",728,"165.csv","","null","resources/maskTrios/L2BB.jpg","null","",NA,NA,NA,NA,""
"image-keyboard-response",235,558732,"0.0-3.74-2.74","4yeju24jhrb68t2",728,"165.csv","","null","resources/images/fishbone.png","null","",NA,NA,NA,NA,""
"image-keyboard-response",236,558792,"0.0-3.75-0.75","4yeju24jhrb68t2",728,"165.csv","","58.5","resources/trios/L2T2A1.jpg","37","restless",0.4,0.5,0.8,0.330940080692087,"true"
"image-keyboard-response",237,559197,"0.0-3.75-1.75","4yeju24jhrb68t2",728,"165.csv","","null","resources/maskTrios/L2BB.jpg","null","",NA,NA,NA,NA,""
"image-keyboard-response",238,560408,"0.0-3.75-2.75","4yeju24jhrb68t2",728,"165.csv","","null","resources/images/coin2.png","null","",NA,NA,NA,NA,""
"image-keyboard-response",239,560412,"0.0-3.76-0.76","4yeju24jhrb68t2",728,"165.csv","","2.5","resources/trios/L4T4A1.jpg","37","restless",0.4,0.5,0.8,0.770123827754153,"false"
"image-keyboard-response",240,560824,"0.0-3.76-1.76","4yeju24jhrb68t2",728,"165.csv","","null","resources/maskTrios/L4BB.jpg","null","",NA,NA,NA,NA,""
"image-keyboard-response",241,562029,"0.0-3.76-2.76","4yeju24jhrb68t2",728,"165.csv","","null","resources/images/fishbone.png","null","",NA,NA,NA,NA,""
"image-keyboard-response",242,562063,"0.0-3.77-0.77","4yeju24jhrb68t2",728,"165.csv","","32.900000005960464","resources/trios/L4T2A1.jpg","39","restless",0.4,0.5,0.8,0.841192273089309,"false"
"image-keyboard-response",243,562472,"0.0-3.77-1.77","4yeju24jhrb68t2",728,"165.csv","","null","resources/maskTrios/BBA1.jpg","null","",NA,NA,NA,NA,""
"image-keyboard-response",244,563680,"0.0-3.77-2.77","4yeju24jhrb68t2",728,"165.csv","","null","resources/images/fishbone.png","null","",NA,NA,NA,NA,""
"image-keyboard-response",245,563972,"0.0-3.78-0.78","4yeju24jhrb68t2",728,"165.csv","","290.5","resources/trios/L2T2A1.jpg","38","restless",0.4,0.5,0.7,0.265926623482622,"true"
"image-keyboard-response",246,564384,"0.0-3.78-1.78","4yeju24jhrb68t2",728,"165.csv","","null","resources/maskTrios/BT2B.jpg","null","",NA,NA,NA,NA,""
"image-keyboard-response",247,565592,"0.0-3.78-2.78","4yeju24jhrb68t2",728,"165.csv","","null","resources/images/coin2.png","null","",NA,NA,NA,NA,""
"image-keyboard-response",248,565861,"0.0-3.79-0.79","4yeju24jhrb68t2",728,"165.csv","","267.19999998807907","resources/trios/L4T2A1.jpg","38","restless",0.4,0.5,0.7,0.198890838212658,"true"
"image-keyboard-response",249,566268,"0.0-3.79-1.79","4yeju24jhrb68t2",728,"165.csv","","null","resources/maskTrios/BT2B.jpg","null","",NA,NA,NA,NA,""
"image-keyboard-response",250,567479,"0.0-3.79-2.79","4yeju24jhrb68t2",728,"165.csv","","null","resources/images/coin2.png","null","",NA,NA,NA,NA,""
"image-keyboard-response",251,567539,"0.0-3.80-0.80","4yeju24jhrb68t2",728,"165.csv","","58.099999994039536","resources/trios/L2T4A2.jpg","37","restless",0.4,0.5,0.7,0.385342668291463,"true"
"image-keyboard-response",252,567948,"0.0-3.80-1.80","4yeju24jhrb68t2",728,"165.csv","","null","resources/maskTrios/L2BB.jpg","null","",NA,NA,NA,NA,""
"image-keyboard-response",253,569157,"0.0-3.80-2.80","4yeju24jhrb68t2",728,"165.csv","","null","resources/images/coin2.png","null","",NA,NA,NA,NA,""
"image-keyboard-response",254,569234,"0.0-3.81-0.81","4yeju24jhrb68t2",728,"165.csv","","75.5","resources/trios/L2T2A2.jpg","37","restless",0.4,0.5,0.7,0.857149030891857,"false"
"image-keyboard-response",255,569640,"0.0-3.81-1.81","4yeju24jhrb68t2",728,"165.csv","","null","resources/maskTrios/L2BB.jpg","null","",NA,NA,NA,NA,""
"image-keyboard-response",256,570844,"0.0-3.81-2.81","4yeju24jhrb68t2",728,"165.csv","","null","resources/images/fishbone.png","null","",NA,NA,NA,NA,""
"image-keyboard-response",257,571195,"0.0-3.82-0.82","4yeju24jhrb68t2",728,"165.csv","","348.30000001192093","resources/trios/L4T2A2.jpg","38","restless",0.4,0.5,0.7,0.946388142966366,"false"
"image-keyboard-response",258,571607,"0.0-3.82-1.82","4yeju24jhrb68t2",728,"165.csv","","null","resources/maskTrios/BT2B.jpg","null","",NA,NA,NA,NA,""
"image-keyboard-response",259,572812,"0.0-3.82-2.82","4yeju24jhrb68t2",728,"165.csv","","null","resources/images/fishbone.png","null","",NA,NA,NA,NA,""
"image-keyboard-response",260,573757,"0.0-3.83-0.83","4yeju24jhrb68t2",728,"165.csv","","942.5","resources/trios/L2T4A1.jpg","39","restless",0.4,0.5,0.7,0.202604558797442,"true"
"image-keyboard-response",261,574168,"0.0-3.83-1.83","4yeju24jhrb68t2",728,"165.csv","","null","resources/maskTrios/BBA1.jpg","null","",NA,NA,NA,NA,""
"image-keyboard-response",262,575372,"0.0-3.83-2.83","4yeju24jhrb68t2",728,"165.csv","","null","resources/images/coin2.png","null","",NA,NA,NA,NA,""
"image-keyboard-response",263,579868,"0.0-3.84-0.84","4yeju24jhrb68t2",728,"165.csv","","4493.600000023842","resources/trios/L4T4A1.jpg","39","restless",0.4,0.5,0.6,0.741644906232894,"false"
"image-keyboard-response",264,580280,"0.0-3.84-1.84","4yeju24jhrb68t2",728,"165.csv","","null","resources/maskTrios/BBA1.jpg","null","",NA,NA,NA,NA,""
"image-keyboard-response",265,581488,"0.0-3.84-2.84","4yeju24jhrb68t2",728,"165.csv","","null","resources/images/fishbone.png","null","",NA,NA,NA,NA,""
"image-keyboard-response",266,581813,"0.0-3.85-0.85","4yeju24jhrb68t2",728,"165.csv","","323.5","resources/trios/L4T2A2.jpg","38","restless",0.4,0.5,0.6,0.922210854564802,"false"
"image-keyboard-response",267,582222,"0.0-3.85-1.85","4yeju24jhrb68t2",728,"165.csv","","null","resources/maskTrios/BT2B.jpg","null","",NA,NA,NA,NA,""
"image-keyboard-response",268,583428,"0.0-3.85-2.85","4yeju24jhrb68t2",728,"165.csv","","null","resources/images/fishbone.png","null","",NA,NA,NA,NA,""
"image-keyboard-response",269,583687,"0.0-3.86-0.86","4yeju24jhrb68t2",728,"165.csv","","257.09999999403954","resources/trios/L2T4A1.jpg","38","restless",0.4,0.4,0.6,0.525027223780926,"false"
"image-keyboard-response",270,584096,"0.0-3.86-1.86","4yeju24jhrb68t2",728,"165.csv","","null","resources/maskTrios/BT4B.jpg","null","",NA,NA,NA,NA,""
"image-keyboard-response",271,585300,"0.0-3.86-2.86","4yeju24jhrb68t2",728,"165.csv","","null","resources/images/fishbone.png","null","",NA,NA,NA,NA,""
"image-keyboard-response",272,602692,"0.0-3.87-0.87","4yeju24jhrb68t2",728,"165.csv","","17390.09999999404","resources/trios/L4T2A1.jpg","38","restless",0.4,0.4,0.6,0.774388720687065,"false"
"image-keyboard-response",273,603096,"0.0-3.87-1.87","4yeju24jhrb68t2",728,"165.csv","","null","resources/maskTrios/BT2B.jpg","null","",NA,NA,NA,NA,""
"image-keyboard-response",274,604300,"0.0-3.87-2.87","4yeju24jhrb68t2",728,"165.csv","","null","resources/images/fishbone.png","null","",NA,NA,NA,NA,""
"image-keyboard-response",275,604347,"0.0-3.88-0.88","4yeju24jhrb68t2",728,"165.csv","","45.39999997615814","resources/trios/L2T2A2.jpg","38","restless",0.4,0.4,0.6,0.955224597877965,"false"
"image-keyboard-response",276,604758,"0.0-3.88-1.88","4yeju24jhrb68t2",728,"165.csv","","null","resources/maskTrios/BT2B.jpg","null","",NA,NA,NA,NA,""
"image-keyboard-response",277,605962,"0.0-3.88-2.88","4yeju24jhrb68t2",728,"165.csv","","null","resources/images/fishbone.png","null","",NA,NA,NA,NA,""
"image-keyboard-response",278,605988,"0.0-3.89-0.89","4yeju24jhrb68t2",728,"165.csv","","23.700000017881393","resources/trios/L4T4A2.jpg","38","restless",0.4,0.4,0.6,0.291385286503958,"true"
"image-keyboard-response",279,606397,"0.0-3.89-1.89","4yeju24jhrb68t2",728,"165.csv","","null","resources/maskTrios/BT4B.jpg","null","",NA,NA,NA,NA,""
"image-keyboard-response",280,607608,"0.0-3.89-2.89","4yeju24jhrb68t2",728,"165.csv","","null","resources/images/coin2.png","null","",NA,NA,NA,NA,""
"image-keyboard-response",281,607691,"0.0-3.90-0.90","4yeju24jhrb68t2",728,"165.csv","","80.90000000596046","resources/trios/L2T2A2.jpg","38","restless",0.4,0.4,0.6,0.251749708961088,"true"
"image-keyboard-response",282,608104,"0.0-3.90-1.90","4yeju24jhrb68t2",728,"165.csv","","null","resources/maskTrios/BT2B.jpg","null","",NA,NA,NA,NA,""
"image-keyboard-response",283,609312,"0.0-3.90-2.90","4yeju24jhrb68t2",728,"165.csv","","null","resources/images/coin2.png","null","",NA,NA,NA,NA,""
"image-keyboard-response",284,609825,"0.0-3.91-0.91","4yeju24jhrb68t2",728,"165.csv","","510.90000000596046","resources/trios/L4T4A2.jpg","38","restless",0.4,0.3,0.5,0.102195514984455,"true"
"image-keyboard-response",285,610229,"0.0-3.91-1.91","4yeju24jhrb68t2",728,"165.csv","","null","resources/maskTrios/BT4B.jpg","null","",NA,NA,NA,NA,""
"image-keyboard-response",286,611440,"0.0-3.91-2.91","4yeju24jhrb68t2",728,"165.csv","","null","resources/images/coin2.png","null","",NA,NA,NA,NA,""
"image-keyboard-response",287,611604,"0.0-3.92-0.92","4yeju24jhrb68t2",728,"165.csv","","161.7000000178814","resources/trios/L4T4A2.jpg","37","restless",0.5,0.3,0.5,0.638722645075971,"false"
"image-keyboard-response",288,612016,"0.0-3.92-1.92","4yeju24jhrb68t2",728,"165.csv","","null","resources/maskTrios/L4BB.jpg","null","",NA,NA,NA,NA,""
"image-keyboard-response",289,613224,"0.0-3.92-2.92","4yeju24jhrb68t2",728,"165.csv","","null","resources/images/fishbone.png","null","",NA,NA,NA,NA,""
"image-keyboard-response",290,613356,"0.0-3.93-0.93","4yeju24jhrb68t2",728,"165.csv","","129.7000000178814","resources/trios/L4T4A2.jpg","38","restless",0.5,0.3,0.5,0.0615395199933666,"true"
"image-keyboard-response",291,613765,"0.0-3.93-1.93","4yeju24jhrb68t2",728,"165.csv","","null","resources/maskTrios/BT4B.jpg","null","",NA,NA,NA,NA,""
"image-keyboard-response",292,614969,"0.0-3.93-2.93","4yeju24jhrb68t2",728,"165.csv","","null","resources/images/coin2.png","null","",NA,NA,NA,NA,""
"image-keyboard-response",293,615136,"0.0-3.94-0.94","4yeju24jhrb68t2",728,"165.csv","","165","resources/trios/L4T2A1.jpg","38","restless",0.5,0.2,0.5,0.321022555923991,"false"
"image-keyboard-response",294,615544,"0.0-3.94-1.94","4yeju24jhrb68t2",728,"165.csv","","null","resources/maskTrios/BT2B.jpg","null","",NA,NA,NA,NA,""
"image-keyboard-response",295,616752,"0.0-3.94-2.94","4yeju24jhrb68t2",728,"165.csv","","null","resources/images/fishbone.png","null","",NA,NA,NA,NA,""
"image-keyboard-response",296,616762,"0.0-3.95-0.95","4yeju24jhrb68t2",728,"165.csv","","8","resources/trios/L4T4A1.jpg","38","restless",0.6,0.2,0.5,0.661342811949882,"false"
"image-keyboard-response",297,617168,"0.0-3.95-1.95","4yeju24jhrb68t2",728,"165.csv","","null","resources/maskTrios/BT4B.jpg","null","",NA,NA,NA,NA,""
"image-keyboard-response",298,618376,"0.0-3.95-2.95","4yeju24jhrb68t2",728,"165.csv","","null","resources/images/fishbone.png","null","",NA,NA,NA,NA,""
"image-keyboard-response",299,618419,"0.0-3.96-0.96","4yeju24jhrb68t2",728,"165.csv","","40.80000001192093","resources/trios/L4T2A2.jpg","38","restless",0.6,0.2,0.5,0.971615941771488,"false"
"image-keyboard-response",300,618832,"0.0-3.96-1.96","4yeju24jhrb68t2",728,"165.csv","","null","resources/maskTrios/BT2B.jpg","null","",NA,NA,NA,NA,""
"image-keyboard-response",301,620040,"0.0-3.96-2.96","4yeju24jhrb68t2",728,"165.csv","","null","resources/images/fishbone.png","null","",NA,NA,NA,NA,""
"image-keyboard-response",302,631494,"0.0-3.97-0.97","4yeju24jhrb68t2",728,"165.csv","","11453","resources/trios/L4T4A1.jpg","39","restless",0.6,0.2,0.4,0.0827612409466225,"true"
"image-keyboard-response",303,631904,"0.0-3.97-1.97","4yeju24jhrb68t2",728,"165.csv","","null","resources/maskTrios/BBA1.jpg","null","",NA,NA,NA,NA,""
"image-keyboard-response",304,633112,"0.0-3.97-2.97","4yeju24jhrb68t2",728,"165.csv","","null","resources/images/coin2.png","null","",NA,NA,NA,NA,""
"image-keyboard-response",305,633194,"0.0-3.98-0.98","4yeju24jhrb68t2",728,"165.csv","","80.5","resources/trios/L2T2A1.jpg","37","restless",0.6,0.2,0.4,0.617038511631469,"false"
"image-keyboard-response",306,633599,"0.0-3.98-1.98","4yeju24jhrb68t2",728,"165.csv","","null","resources/maskTrios/L2BB.jpg","null","",NA,NA,NA,NA,""
"image-keyboard-response",307,634807,"0.0-3.98-2.98","4yeju24jhrb68t2",728,"165.csv","","null","resources/images/fishbone.png","null","",NA,NA,NA,NA,""
"image-keyboard-response",308,634837,"0.0-3.99-0.99","4yeju24jhrb68t2",728,"165.csv","","28.599999994039536","resources/trios/L4T2A2.jpg","37","restless",0.5,0.2,0.4,0.407003269953312,"true"
"image-keyboard-response",309,635247,"0.0-3.99-1.99","4yeju24jhrb68t2",728,"165.csv","","null","resources/maskTrios/L4BB.jpg","null","",NA,NA,NA,NA,""
"image-keyboard-response",310,636456,"0.0-3.99-2.99","4yeju24jhrb68t2",728,"165.csv","","null","resources/images/coin2.png","null","",NA,NA,NA,NA,""
"image-keyboard-response",311,636639,"0.0-3.100-0.100","4yeju24jhrb68t2",728,"165.csv","","181.2000000178814","resources/trios/L2T4A1.jpg","38","restless",0.5,0.2,0.4,0.75954823074555,"false"
"image-keyboard-response",312,637042,"0.0-3.100-1.100","4yeju24jhrb68t2",728,"165.csv","","null","resources/maskTrios/BT4B.jpg","null","",NA,NA,NA,NA,""
"image-keyboard-response",313,638245,"0.0-3.100-2.100","4yeju24jhrb68t2",728,"165.csv","","null","resources/images/fishbone.png","null","",NA,NA,NA,NA,""
"image-keyboard-response",314,638247,"0.0-3.101-0.101","4yeju24jhrb68t2",728,"165.csv","","0.09999999403953552","resources/trios/L2T4A2.jpg","37","restless",0.4,0.2,0.4,0.59381623410998,"false"
"image-keyboard-response",315,638653,"0.0-3.101-1.101","4yeju24jhrb68t2",728,"165.csv","","null","resources/maskTrios/L2BB.jpg","null","",NA,NA,NA,NA,""
"image-keyboard-response",316,639864,"0.0-3.101-2.101","4yeju24jhrb68t2",728,"165.csv","","null","resources/images/fishbone.png","null","",NA,NA,NA,NA,""
"image-keyboard-response",317,640042,"0.0-3.102-0.102","4yeju24jhrb68t2",728,"165.csv","","175.80000001192093","resources/trios/L4T2A1.jpg","37","restless",0.4,0.3,0.4,0.819809363632263,"false"
"image-keyboard-response",318,640447,"0.0-3.102-1.102","4yeju24jhrb68t2",728,"165.csv","","null","resources/maskTrios/L4BB.jpg","null","",NA,NA,NA,NA,""
"image-keyboard-response",319,641654,"0.0-3.102-2.102","4yeju24jhrb68t2",728,"165.csv","","null","resources/images/fishbone.png","null","",NA,NA,NA,NA,""
"image-keyboard-response",320,642002,"0.0-3.103-0.103","4yeju24jhrb68t2",728,"165.csv","","346.90000000596046","resources/trios/L2T4A2.jpg","39","restless",0.4,0.3,0.4,0.915221559021535,"false"
"image-keyboard-response",321,642416,"0.0-3.103-1.103","4yeju24jhrb68t2",728,"165.csv","","null","resources/maskTrios/BBA2.jpg","null","",NA,NA,NA,NA,""
"image-keyboard-response",322,643620,"0.0-3.103-2.103","4yeju24jhrb68t2",728,"165.csv","","null","resources/images/fishbone.png","null","",NA,NA,NA,NA,""
"image-keyboard-response",323,643993,"0.0-3.104-0.104","4yeju24jhrb68t2",728,"165.csv","","371.09999999403954","resources/trios/L4T2A1.jpg","38","restless",0.5,0.3,0.4,0.776829966150489,"false"
"image-keyboard-response",324,644400,"0.0-3.104-1.104","4yeju24jhrb68t2",728,"165.csv","","null","resources/maskTrios/BT2B.jpg","null","",NA,NA,NA,NA,""
"image-keyboard-response",325,645604,"0.0-3.104-2.104","4yeju24jhrb68t2",728,"165.csv","","null","resources/images/fishbone.png","null","",NA,NA,NA,NA,""
"image-keyboard-response",326,645618,"0.0-3.105-0.105","4yeju24jhrb68t2",728,"165.csv","","13.699999988079071","resources/trios/L4T4A2.jpg","39","restless",0.5,0.3,0.4,0.442972535024976,"false"
"image-keyboard-response",327,646028,"0.0-3.105-1.105","4yeju24jhrb68t2",728,"165.csv","","null","resources/maskTrios/BBA2.jpg","null","",NA,NA,NA,NA,""
"image-keyboard-response",328,647236,"0.0-3.105-2.105","4yeju24jhrb68t2",728,"165.csv","","null","resources/images/fishbone.png","null","",NA,NA,NA,NA,""
"image-keyboard-response",329,647367,"0.0-3.106-0.106","4yeju24jhrb68t2",728,"165.csv","","129.19999998807907","resources/trios/L4T2A2.jpg","39","restless",0.5,0.3,0.4,0.0498183363755251,"true"
"image-keyboard-response",330,647771,"0.0-3.106-1.106","4yeju24jhrb68t2",728,"165.csv","","null","resources/maskTrios/BBA2.jpg","null","",NA,NA,NA,NA,""
"image-keyboard-response",331,648979,"0.0-3.106-2.106","4yeju24jhrb68t2",728,"165.csv","","null","resources/images/coin2.png","null","",NA,NA,NA,NA,""
"image-keyboard-response",332,649079,"0.0-3.107-0.107","4yeju24jhrb68t2",728,"165.csv","","97.80000001192093","resources/trios/L4T2A2.jpg","37","restless",0.5,0.4,0.3,0.77623543585391,"false"
"image-keyboard-response",333,649488,"0.0-3.107-1.107","4yeju24jhrb68t2",728,"165.csv","","null","resources/maskTrios/L4BB.jpg","null","",NA,NA,NA,NA,""
"image-keyboard-response",334,650696,"0.0-3.107-2.107","4yeju24jhrb68t2",728,"165.csv","","null","resources/images/fishbone.png","null","",NA,NA,NA,NA,""
"image-keyboard-response",335,650853,"0.0-3.108-0.108","4yeju24jhrb68t2",728,"165.csv","","155.7000000178814","resources/trios/L2T4A1.jpg","39","restless",0.5,0.5,0.3,0.258730225170494,"true"
"image-keyboard-response",336,651261,"0.0-3.108-1.108","4yeju24jhrb68t2",728,"165.csv","","null","resources/maskTrios/BBA1.jpg","null","",NA,NA,NA,NA,""
"image-keyboard-response",337,652472,"0.0-3.108-2.108","4yeju24jhrb68t2",728,"165.csv","","null","resources/images/coin2.png","null","",NA,NA,NA,NA,""
"image-keyboard-response",338,652527,"0.0-3.109-0.109","4yeju24jhrb68t2",728,"165.csv","","54.099999994039536","resources/trios/L4T4A1.jpg","39","restless",0.5,0.5,0.3,0.809290516288812,"false"
"image-keyboard-response",339,652932,"0.0-3.109-1.109","4yeju24jhrb68t2",728,"165.csv","","null","resources/maskTrios/BBA1.jpg","null","",NA,NA,NA,NA,""
"image-keyboard-response",340,654133,"0.0-3.109-2.109","4yeju24jhrb68t2",728,"165.csv","","null","resources/images/fishbone.png","null","",NA,NA,NA,NA,""
"image-keyboard-response",341,654280,"0.0-3.110-0.110","4yeju24jhrb68t2",728,"165.csv","","144.89999997615814","resources/trios/L4T2A2.jpg","37","restless",0.5,0.5,0.3,0.57576778931613,"false"
"image-keyboard-response",342,654684,"0.0-3.110-1.110","4yeju24jhrb68t2",728,"165.csv","","null","resources/maskTrios/L4BB.jpg","null","",NA,NA,NA,NA,""
"image-keyboard-response",343,655892,"0.0-3.110-2.110","4yeju24jhrb68t2",728,"165.csv","","null","resources/images/fishbone.png","null","",NA,NA,NA,NA,""
"image-keyboard-response",344,696127,"0.0-3.111-0.111","4yeju24jhrb68t2",728,"165.csv","","40233.39999997616","resources/trios/L4T4A1.jpg","37","restless",0.5,0.5,0.3,0.328164897234241,"true"
"image-keyboard-response",345,696532,"0.0-3.111-1.111","4yeju24jhrb68t2",728,"165.csv","","null","resources/maskTrios/L4BB.jpg","null","",NA,NA,NA,NA,""
"image-keyboard-response",346,697744,"0.0-3.111-2.111","4yeju24jhrb68t2",728,"165.csv","","null","resources/images/coin2.png","null","",NA,NA,NA,NA,""
"image-keyboard-response",347,697907,"0.0-3.112-0.112","4yeju24jhrb68t2",728,"165.csv","","161.2000000178814","resources/trios/L2T4A2.jpg","37","restless",0.4,0.4,0.3,0.641817708946715,"false"
"image-keyboard-response",348,698318,"0.0-3.112-1.112","4yeju24jhrb68t2",728,"165.csv","","null","resources/maskTrios/L2BB.jpg","null","",NA,NA,NA,NA,""
"image-keyboard-response",349,699524,"0.0-3.112-2.112","4yeju24jhrb68t2",728,"165.csv","","null","resources/images/fishbone.png","null","",NA,NA,NA,NA,""
"image-keyboard-response",350,699544,"0.0-3.113-0.113","4yeju24jhrb68t2",728,"165.csv","","18.80000001192093","resources/trios/L2T2A2.jpg","37","restless",0.3,0.4,0.3,0.675569717231827,"false"
"image-keyboard-response",351,699948,"0.0-3.113-1.113","4yeju24jhrb68t2",728,"165.csv","","null","resources/maskTrios/L2BB.jpg","null","",NA,NA,NA,NA,""
"image-keyboard-response",352,701157,"0.0-3.113-2.113","4yeju24jhrb68t2",728,"165.csv","","null","resources/images/fishbone.png","null","",NA,NA,NA,NA,""
"image-keyboard-response",353,701353,"0.0-3.114-0.114","4yeju24jhrb68t2",728,"165.csv","","194.09999999403954","resources/trios/L2T4A1.jpg","38","restless",0.3,0.4,0.3,0.772862861292759,"false"
"image-keyboard-response",354,701760,"0.0-3.114-1.114","4yeju24jhrb68t2",728,"165.csv","","null","resources/maskTrios/BT4B.jpg","null","",NA,NA,NA,NA,""
"image-keyboard-response",355,702965,"0.0-3.114-2.114","4yeju24jhrb68t2",728,"165.csv","","null","resources/images/fishbone.png","null","",NA,NA,NA,NA,""
"image-keyboard-response",356,703015,"0.0-3.115-0.115","4yeju24jhrb68t2",728,"165.csv","","48.29999998211861","resources/trios/L4T2A1.jpg","38","restless",0.4,0.4,0.3,0.0714464127395211,"true"
"image-keyboard-response",357,703418,"0.0-3.115-1.115","4yeju24jhrb68t2",728,"165.csv","","null","resources/maskTrios/BT2B.jpg","null","",NA,NA,NA,NA,""
"image-keyboard-response",358,704628,"0.0-3.115-2.115","4yeju24jhrb68t2",728,"165.csv","","null","resources/images/coin2.png","null","",NA,NA,NA,NA,""
"image-keyboard-response",359,704706,"0.0-3.116-0.116","4yeju24jhrb68t2",728,"165.csv","","77","resources/trios/L4T4A2.jpg","37","restless",0.3,0.4,0.3,0.408069054348342,"false"
"image-keyboard-response",360,705118,"0.0-3.116-1.116","4yeju24jhrb68t2",728,"165.csv","","null","resources/maskTrios/L4BB.jpg","null","",NA,NA,NA,NA,""
"image-keyboard-response",361,706328,"0.0-3.116-2.116","4yeju24jhrb68t2",728,"165.csv","","null","resources/images/fishbone.png","null","",NA,NA,NA,NA,""
"image-keyboard-response",362,706382,"0.0-3.117-0.117","4yeju24jhrb68t2",728,"165.csv","","52.70000001788139","resources/trios/L2T2A2.jpg","37","restless",0.3,0.4,0.3,0.62180964724654,"false"
"image-keyboard-response",363,706792,"0.0-3.117-1.117","4yeju24jhrb68t2",728,"165.csv","","null","resources/maskTrios/L2BB.jpg","null","",NA,NA,NA,NA,""
"image-keyboard-response",364,708000,"0.0-3.117-2.117","4yeju24jhrb68t2",728,"165.csv","","null","resources/images/fishbone.png","null","",NA,NA,NA,NA,""
"image-keyboard-response",365,708367,"0.0-3.118-0.118","4yeju24jhrb68t2",728,"165.csv","","365","resources/trios/L2T2A2.jpg","38","restless",0.3,0.4,0.3,0.238101984169582,"true"
"image-keyboard-response",366,708772,"0.0-3.118-1.118","4yeju24jhrb68t2",728,"165.csv","","null","resources/maskTrios/BT2B.jpg","null","",NA,NA,NA,NA,""
"image-keyboard-response",367,709979,"0.0-3.118-2.118","4yeju24jhrb68t2",728,"165.csv","","null","resources/images/coin2.png","null","",NA,NA,NA,NA,""
"image-keyboard-response",368,710384,"0.0-3.119-0.119","4yeju24jhrb68t2",728,"165.csv","","402.5","resources/trios/L4T4A1.jpg","39","restless",0.3,0.4,0.3,0.198042210995046,"true"
"image-keyboard-response",369,710788,"0.0-3.119-1.119","4yeju24jhrb68t2",728,"165.csv","","null","resources/maskTrios/BBA1.jpg","null","",NA,NA,NA,NA,""
"image-keyboard-response",370,711996,"0.0-3.119-2.119","4yeju24jhrb68t2",728,"165.csv","","null","resources/images/coin2.png","null","",NA,NA,NA,NA,""
"image-keyboard-response",371,712167,"0.0-3.120-0.120","4yeju24jhrb68t2",728,"165.csv","","168.69999998807907","resources/trios/L4T2A2.jpg","37","restless",0.4,0.4,0.3,0.373425770309558,"true"
"image-keyboard-response",372,712576,"0.0-3.120-1.120","4yeju24jhrb68t2",728,"165.csv","","null","resources/maskTrios/L4BB.jpg","null","",NA,NA,NA,NA,""
"image-keyboard-response",373,713784,"0.0-3.120-2.120","4yeju24jhrb68t2",728,"165.csv","","null","resources/images/coin2.png","null","",NA,NA,NA,NA,""
"image-keyboard-response",374,714013,"0.0-3.121-0.121","4yeju24jhrb68t2",728,"165.csv","","226.60000002384186","resources/trios/L2T4A1.jpg","38","restless",0.4,0.4,0.3,0.87689833204993,"false"
"image-keyboard-response",375,714424,"0.0-3.121-1.121","4yeju24jhrb68t2",728,"165.csv","","null","resources/maskTrios/BT4B.jpg","null","",NA,NA,NA,NA,""
"image-keyboard-response",376,715632,"0.0-3.121-2.121","4yeju24jhrb68t2",728,"165.csv","","null","resources/images/fishbone.png","null","",NA,NA,NA,NA,""
"image-keyboard-response",377,715716,"0.0-3.122-0.122","4yeju24jhrb68t2",728,"165.csv","","82.59999999403954","resources/trios/L4T4A1.jpg","38","restless",0.4,0.4,0.3,0.132904247254139,"true"
"image-keyboard-response",378,716125,"0.0-3.122-1.122","4yeju24jhrb68t2",728,"165.csv","","null","resources/maskTrios/BT4B.jpg","null","",NA,NA,NA,NA,""
"image-keyboard-response",379,717333,"0.0-3.122-2.122","4yeju24jhrb68t2",728,"165.csv","","null","resources/images/coin2.png","null","",NA,NA,NA,NA,""
"image-keyboard-response",380,718313,"0.0-3.123-0.123","4yeju24jhrb68t2",728,"165.csv","","977.6999999880791","resources/trios/L2T4A2.jpg","39","restless",0.4,0.4,0.3,0.345681276415558,"false"
"image-keyboard-response",381,718720,"0.0-3.123-1.123","4yeju24jhrb68t2",728,"165.csv","","null","resources/maskTrios/BBA2.jpg","null","",NA,NA,NA,NA,""
"image-keyboard-response",382,719928,"0.0-3.123-2.123","4yeju24jhrb68t2",728,"165.csv","","null","resources/images/fishbone.png","null","",NA,NA,NA,NA,""
"image-keyboard-response",383,720560,"0.0-3.124-0.124","4yeju24jhrb68t2",728,"165.csv","","629.8000000119209","resources/trios/L2T2A2.jpg","39","restless",0.4,0.4,0.3,0.212997785196916,"true"
"image-keyboard-response",384,720968,"0.0-3.124-1.124","4yeju24jhrb68t2",728,"165.csv","","null","resources/maskTrios/BBA2.jpg","null","",NA,NA,NA,NA,""
"image-keyboard-response",385,722176,"0.0-3.124-2.124","4yeju24jhrb68t2",728,"165.csv","","null","resources/images/coin2.png","null","",NA,NA,NA,NA,""
"image-keyboard-response",386,722193,"0.0-3.125-0.125","4yeju24jhrb68t2",728,"165.csv","","14.800000011920929","resources/trios/L4T4A1.jpg","38","restless",0.4,0.4,0.3,0.562656374487831,"false"
"image-keyboard-response",387,722595,"0.0-3.125-1.125","4yeju24jhrb68t2",728,"165.csv","","null","resources/maskTrios/BT4B.jpg","null","",NA,NA,NA,NA,""
"image-keyboard-response",388,723808,"0.0-3.125-2.125","4yeju24jhrb68t2",728,"165.csv","","null","resources/images/fishbone.png","null","",NA,NA,NA,NA,""
"image-keyboard-response",389,724055,"0.0-3.126-0.126","4yeju24jhrb68t2",728,"165.csv","","244.5","resources/trios/L4T4A2.jpg","38","restless",0.4,0.4,0.3,0.377199726620615,"true"
"image-keyboard-response",390,724459,"0.0-3.126-1.126","4yeju24jhrb68t2",728,"165.csv","","null","resources/maskTrios/BT4B.jpg","null","",NA,NA,NA,NA,""
"image-keyboard-response",391,725670,"0.0-3.126-2.126","4yeju24jhrb68t2",728,"165.csv","","null","resources/images/coin2.png","null","",NA,NA,NA,NA,""
"image-keyboard-response",392,725673,"0.0-3.127-0.127","4yeju24jhrb68t2",728,"165.csv","","0.10000002384185791","resources/trios/L4T4A2.jpg","37","restless",0.4,0.4,0.3,0.586151208784413,"false"
"image-keyboard-response",393,726080,"0.0-3.127-1.127","4yeju24jhrb68t2",728,"165.csv","","null","resources/maskTrios/L4BB.jpg","null","",NA,NA,NA,NA,""
"image-keyboard-response",394,727284,"0.0-3.127-2.127","4yeju24jhrb68t2",728,"165.csv","","null","resources/images/fishbone.png","null","",NA,NA,NA,NA,""
"image-keyboard-response",395,727359,"0.0-3.128-0.128","4yeju24jhrb68t2",728,"165.csv","","72.90000000596046","resources/trios/L4T4A2.jpg","38","restless",0.4,0.4,0.3,0.267447061754059,"true"
"image-keyboard-response",396,727766,"0.0-3.128-1.128","4yeju24jhrb68t2",728,"165.csv","","null","resources/maskTrios/BT4B.jpg","null","",NA,NA,NA,NA,""
"image-keyboard-response",397,728973,"0.0-3.128-2.128","4yeju24jhrb68t2",728,"165.csv","","null","resources/images/coin2.png","null","",NA,NA,NA,NA,""
"image-keyboard-response",398,729115,"0.0-3.129-0.129","4yeju24jhrb68t2",728,"165.csv","","139.7999999821186","resources/trios/L2T2A2.jpg","38","restless",0.4,0.4,0.3,0.0120491740339195,"true"
"image-keyboard-response",399,729528,"0.0-3.129-1.129","4yeju24jhrb68t2",728,"165.csv","","null","resources/maskTrios/BT2B.jpg","null","",NA,NA,NA,NA,""
"image-keyboard-response",400,730736,"0.0-3.129-2.129","4yeju24jhrb68t2",728,"165.csv","","null","resources/images/coin2.png","null","",NA,NA,NA,NA,""
"image-keyboard-response",401,730756,"0.0-3.130-0.130","4yeju24jhrb68t2",728,"165.csv","","17.899999976158142","resources/trios/L2T4A2.jpg","37","restless",0.4,0.4,0.3,0.28350538172465,"true"
"image-keyboard-response",402,731168,"0.0-3.130-1.130","4yeju24jhrb68t2",728,"165.csv","","null","resources/maskTrios/L2BB.jpg","null","",NA,NA,NA,NA,""
"image-keyboard-response",403,732376,"0.0-3.130-2.130","4yeju24jhrb68t2",728,"165.csv","","null","resources/images/coin2.png","null","",NA,NA,NA,NA,""
"image-keyboard-response",404,732444,"0.0-3.131-0.131","4yeju24jhrb68t2",728,"165.csv","","66.2999999821186","resources/trios/L4T4A2.jpg","38","restless",0.4,0.4,0.2,0.56359166499807,"false"
"image-keyboard-response",405,732856,"0.0-3.131-1.131","4yeju24jhrb68t2",728,"165.csv","","null","resources/maskTrios/BT4B.jpg","null","",NA,NA,NA,NA,""
"image-keyboard-response",406,734064,"0.0-3.131-2.131","4yeju24jhrb68t2",728,"165.csv","","null","resources/images/fishbone.png","null","",NA,NA,NA,NA,""
"image-keyboard-response",407,734071,"0.0-3.132-0.132","4yeju24jhrb68t2",728,"165.csv","","5.0999999940395355","resources/trios/L2T4A1.jpg","38","restless",0.4,0.4,0.2,0.0838219475275805,"true"
"image-keyboard-response",408,734479,"0.0-3.132-1.132","4yeju24jhrb68t2",728,"165.csv","","null","resources/maskTrios/BT4B.jpg","null","",NA,NA,NA,NA,""
"image-keyboard-response",409,735686,"0.0-3.132-2.132","4yeju24jhrb68t2",728,"165.csv","","null","resources/images/coin2.png","null","",NA,NA,NA,NA,""
"image-keyboard-response",410,735836,"0.0-3.133-0.133","4yeju24jhrb68t2",728,"165.csv","","148.09999999403954","resources/trios/L2T4A1.jpg","38","restless",0.5,0.4,0.2,0.954840433050427,"false"
"image-keyboard-response",411,736247,"0.0-3.133-1.133","4yeju24jhrb68t2",728,"165.csv","","null","resources/maskTrios/BT4B.jpg","null","",NA,NA,NA,NA,""
"image-keyboard-response",412,737448,"0.0-3.133-2.133","4yeju24jhrb68t2",728,"165.csv","","null","resources/images/fishbone.png","null","",NA,NA,NA,NA,""
"image-keyboard-response",413,737513,"0.0-3.134-0.134","4yeju24jhrb68t2",728,"165.csv","","62.89999997615814","resources/trios/L2T4A2.jpg","39","restless",0.5,0.4,0.2,0.00796785141285539,"true"
"image-keyboard-response",414,737916,"0.0-3.134-1.134","4yeju24jhrb68t2",728,"165.csv","","null","resources/maskTrios/BBA2.jpg","null","",NA,NA,NA,NA,""
"image-keyboard-response",415,739118,"0.0-3.134-2.134","4yeju24jhrb68t2",728,"165.csv","","null","resources/images/coin2.png","null","",NA,NA,NA,NA,""
"image-keyboard-response",416,739125,"0.0-3.135-0.135","4yeju24jhrb68t2",728,"165.csv","","5.199999988079071","resources/trios/L4T2A2.jpg","37","restless",0.5,0.4,0.2,0.394953297056291,"true"
"image-keyboard-response",417,739528,"0.0-3.135-1.135","4yeju24jhrb68t2",728,"165.csv","","null","resources/maskTrios/L4BB.jpg","null","",NA,NA,NA,NA,""
"image-keyboard-response",418,740732,"0.0-3.135-2.135","4yeju24jhrb68t2",728,"165.csv","","null","resources/images/coin2.png","null","",NA,NA,NA,NA,""
"image-keyboard-response",419,740802,"0.0-3.136-0.136","4yeju24jhrb68t2",728,"165.csv","","69.30000001192093","resources/trios/L4T2A2.jpg","38","restless",0.5,0.4,0.2,0.577119467437154,"false"
"image-keyboard-response",420,741208,"0.0-3.136-1.136","4yeju24jhrb68t2",728,"165.csv","","null","resources/maskTrios/BT2B.jpg","null","",NA,NA,NA,NA,""
"image-keyboard-response",421,742412,"0.0-3.136-2.136","4yeju24jhrb68t2",728,"165.csv","","null","resources/images/fishbone.png","null","",NA,NA,NA,NA,""
"image-keyboard-response",422,742415,"0.0-3.137-0.137","4yeju24jhrb68t2",728,"165.csv","","1.7000000178813934","resources/trios/L2T2A1.jpg","37","restless",0.5,0.4,0.2,0.965839959778645,"false"
"image-keyboard-response",423,742824,"0.0-3.137-1.137","4yeju24jhrb68t2",728,"165.csv","","null","resources/maskTrios/L2BB.jpg","null","",NA,NA,NA,NA,""
"image-keyboard-response",424,744027,"0.0-3.137-2.137","4yeju24jhrb68t2",728,"165.csv","","null","resources/images/fishbone.png","null","",NA,NA,NA,NA,""
"image-keyboard-response",425,744030,"0.0-3.138-0.138","4yeju24jhrb68t2",728,"165.csv","","1.5","resources/trios/L2T2A2.jpg","39","restless",0.5,0.4,0.2,0.627024270690341,"false"
"image-keyboard-response",426,744436,"0.0-3.138-1.138","4yeju24jhrb68t2",728,"165.csv","","null","resources/maskTrios/BBA2.jpg","null","",NA,NA,NA,NA,""
"image-keyboard-response",427,745646,"0.0-3.138-2.138","4yeju24jhrb68t2",728,"165.csv","","null","resources/images/fishbone.png","null","",NA,NA,NA,NA,""
"image-keyboard-response",428,745707,"0.0-3.139-0.139","4yeju24jhrb68t2",728,"165.csv","","59.099999994039536","resources/trios/L4T2A2.jpg","37","restless",0.5,0.4,0.3,0.305660126492346,"true"
"image-keyboard-response",429,746120,"0.0-3.139-1.139","4yeju24jhrb68t2",728,"165.csv","","null","resources/maskTrios/L4BB.jpg","null","",NA,NA,NA,NA,""
"image-keyboard-response",430,747326,"0.0-3.139-2.139","4yeju24jhrb68t2",728,"165.csv","","null","resources/images/coin2.png","null","",NA,NA,NA,NA,""
"image-keyboard-response",431,747610,"0.0-3.140-0.140","4yeju24jhrb68t2",728,"165.csv","","282.59999999403954","resources/trios/L2T2A2.jpg","37","restless",0.5,0.4,0.3,0.530942241875594,"false"
"image-keyboard-response",432,748023,"0.0-3.140-1.140","4yeju24jhrb68t2",728,"165.csv","","null","resources/maskTrios/L2BB.jpg","null","",NA,NA,NA,NA,""
"image-keyboard-response",433,749228,"0.0-3.140-2.140","4yeju24jhrb68t2",728,"165.csv","","null","resources/images/fishbone.png","null","",NA,NA,NA,NA,""
"image-keyboard-response",434,749455,"0.0-3.141-0.141","4yeju24jhrb68t2",728,"165.csv","","225.2000000178814","resources/trios/L4T2A1.jpg","39","restless",0.5,0.4,0.3,0.43677518945647,"false"
"image-keyboard-response",435,749864,"0.0-3.141-1.141","4yeju24jhrb68t2",728,"165.csv","","null","resources/maskTrios/BBA1.jpg","null","",NA,NA,NA,NA,""
"image-keyboard-response",436,751070,"0.0-3.141-2.141","4yeju24jhrb68t2",728,"165.csv","","null","resources/images/fishbone.png","null","",NA,NA,NA,NA,""
"image-keyboard-response",437,751074,"0.0-3.142-0.142","4yeju24jhrb68t2",728,"165.csv","","3.199999988079071","resources/trios/L2T4A2.jpg","38","restless",0.5,0.4,0.3,0.521047133169712,"false"
"image-keyboard-response",438,751484,"0.0-3.142-1.142","4yeju24jhrb68t2",728,"165.csv","","null","resources/maskTrios/BT4B.jpg","null","",NA,NA,NA,NA,""
"image-keyboard-response",439,752687,"0.0-3.142-2.142","4yeju24jhrb68t2",728,"165.csv","","null","resources/images/fishbone.png","null","",NA,NA,NA,NA,""
"image-keyboard-response",440,752907,"0.0-3.143-0.143","4yeju24jhrb68t2",728,"165.csv","","218.30000001192093","resources/trios/L4T4A2.jpg","39","restless",0.5,0.4,0.3,0.345796540014722,"false"
"image-keyboard-response",441,753318,"0.0-3.143-1.143","4yeju24jhrb68t2",728,"165.csv","","null","resources/maskTrios/BBA2.jpg","null","",NA,NA,NA,NA,""
"image-keyboard-response",442,754528,"0.0-3.143-2.143","4yeju24jhrb68t2",728,"165.csv","","null","resources/images/fishbone.png","null","",NA,NA,NA,NA,""
"image-keyboard-response",443,754615,"0.0-3.144-0.144","4yeju24jhrb68t2",728,"165.csv","","85.7000000178814","resources/trios/L2T4A1.jpg","37","restless",0.5,0.4,0.3,0.646541728776506,"false"
"image-keyboard-response",444,755024,"0.0-3.144-1.144","4yeju24jhrb68t2",728,"165.csv","","null","resources/maskTrios/L2BB.jpg","null","",NA,NA,NA,NA,""
"image-keyboard-response",445,756232,"0.0-3.144-2.144","4yeju24jhrb68t2",728,"165.csv","","null","resources/images/fishbone.png","null","",NA,NA,NA,NA,""
"image-keyboard-response",446,756238,"0.0-3.145-0.145","4yeju24jhrb68t2",728,"165.csv","","5","resources/trios/L4T2A2.jpg","38","restless",0.5,0.5,0.3,0.838287523371416,"false"
"image-keyboard-response",447,756648,"0.0-3.145-1.145","4yeju24jhrb68t2",728,"165.csv","","null","resources/maskTrios/BT2B.jpg","null","",NA,NA,NA,NA,""
"image-keyboard-response",448,757852,"0.0-3.145-2.145","4yeju24jhrb68t2",728,"165.csv","","null","resources/images/fishbone.png","null","",NA,NA,NA,NA,""
"image-keyboard-response",449,757892,"0.0-3.146-0.146","4yeju24jhrb68t2",728,"165.csv","","38.80000001192093","resources/trios/L2T4A1.jpg","37","restless",0.6,0.5,0.3,0.307446648028159,"true"
"image-keyboard-response",450,758302,"0.0-3.146-1.146","4yeju24jhrb68t2",728,"165.csv","","null","resources/maskTrios/L2BB.jpg","null","",NA,NA,NA,NA,""
"image-keyboard-response",451,759512,"0.0-3.146-2.146","4yeju24jhrb68t2",728,"165.csv","","null","resources/images/coin2.png","null","",NA,NA,NA,NA,""
"image-keyboard-response",452,759542,"0.0-3.147-0.147","4yeju24jhrb68t2",728,"165.csv","","28.400000005960464","resources/trios/L4T4A1.jpg","37","restless",0.6,0.6,0.3,0.643154334308024,"false"
"image-keyboard-response",453,759948,"0.0-3.147-1.147","4yeju24jhrb68t2",728,"165.csv","","null","resources/maskTrios/L4BB.jpg","null","",NA,NA,NA,NA,""
"image-keyboard-response",454,761152,"0.0-3.147-2.147","4yeju24jhrb68t2",728,"165.csv","","null","resources/images/fishbone.png","null","",NA,NA,NA,NA,""
"image-keyboard-response",455,761730,"0.0-3.148-0.148","4yeju24jhrb68t2",728,"165.csv","","576.7000000178814","resources/trios/L2T2A2.jpg","38","restless",0.6,0.6,0.3,0.967571865888339,"false"
"image-keyboard-response",456,762141,"0.0-3.148-1.148","4yeju24jhrb68t2",728,"165.csv","","null","resources/maskTrios/BT2B.jpg","null","",NA,NA,NA,NA,""
"image-keyboard-response",457,763351,"0.0-3.148-2.148","4yeju24jhrb68t2",728,"165.csv","","null","resources/images/fishbone.png","null","",NA,NA,NA,NA,""
"image-keyboard-response",458,763462,"0.0-3.149-0.149","4yeju24jhrb68t2",728,"165.csv","","109.80000001192093","resources/trios/L4T2A1.jpg","39","restless",0.6,0.6,0.2,0.653821640565022,"false"
"image-keyboard-response",459,763870,"0.0-3.149-1.149","4yeju24jhrb68t2",728,"165.csv","","null","resources/maskTrios/BBA1.jpg","null","",NA,NA,NA,NA,""
"image-keyboard-response",460,765080,"0.0-3.149-2.149","4yeju24jhrb68t2",728,"165.csv","","null","resources/images/fishbone.png","null","",NA,NA,NA,NA,""
"image-keyboard-response",461,765123,"0.0-3.150-0.150","4yeju24jhrb68t2",728,"165.csv","","41.70000001788139","resources/trios/L4T4A2.jpg","37","restless",0.6,0.6,0.2,0.779598739399792,"false"
"image-keyboard-response",462,765536,"0.0-3.150-1.150","4yeju24jhrb68t2",728,"165.csv","","null","resources/maskTrios/L4BB.jpg","null","",NA,NA,NA,NA,""
"image-keyboard-response",463,766744,"0.0-3.150-2.150","4yeju24jhrb68t2",728,"165.csv","","null","resources/images/fishbone.png","null","",NA,NA,NA,NA,""
"image-keyboard-response",464,767225,"0.0-3.151-0.151","4yeju24jhrb68t2",728,"165.csv","","479.5","resources/trios/L4T4A1.jpg","39","restless",0.6,0.6,0.2,0.95261684961336,"false"
"image-keyboard-response",465,767628,"0.0-3.151-1.151","4yeju24jhrb68t2",728,"165.csv","","null","resources/maskTrios/BBA1.jpg","null","",NA,NA,NA,NA,""
"image-keyboard-response",466,768840,"0.0-3.151-2.151","4yeju24jhrb68t2",728,"165.csv","","null","resources/images/fishbone.png","null","",NA,NA,NA,NA,""
"image-keyboard-response",467,768872,"0.0-3.152-0.152","4yeju24jhrb68t2",728,"165.csv","","30.5","resources/trios/L2T2A2.jpg","38","restless",0.6,0.6,0.2,0.534325467038987,"true"
"image-keyboard-response",468,769280,"0.0-3.152-1.152","4yeju24jhrb68t2",728,"165.csv","","null","resources/maskTrios/BT2B.jpg","null","",NA,NA,NA,NA,""
"image-keyboard-response",469,770484,"0.0-3.152-2.152","4yeju24jhrb68t2",728,"165.csv","","null","resources/images/coin2.png","null","",NA,NA,NA,NA,""
"image-keyboard-response",470,770584,"0.0-3.153-0.153","4yeju24jhrb68t2",728,"165.csv","","99","resources/trios/L4T4A2.jpg","37","restless",0.6,0.6,0.2,0.956004876541731,"false"
"image-keyboard-response",471,770992,"0.0-3.153-1.153","4yeju24jhrb68t2",728,"165.csv","","null","resources/maskTrios/L4BB.jpg","null","",NA,NA,NA,NA,""
"image-keyboard-response",472,772200,"0.0-3.153-2.153","4yeju24jhrb68t2",728,"165.csv","","null","resources/images/fishbone.png","null","",NA,NA,NA,NA,""
"image-keyboard-response",473,772230,"0.0-3.154-0.154","4yeju24jhrb68t2",728,"165.csv","","28.400000005960464","resources/trios/L2T2A2.jpg","37","restless",0.6,0.6,0.2,0.961538145962042,"false"
"image-keyboard-response",474,772639,"0.0-3.154-1.154","4yeju24jhrb68t2",728,"165.csv","","null","resources/maskTrios/L2BB.jpg","null","",NA,NA,NA,NA,""
"image-keyboard-response",475,773848,"0.0-3.154-2.154","4yeju24jhrb68t2",728,"165.csv","","null","resources/images/fishbone.png","null","",NA,NA,NA,NA,""
"image-keyboard-response",476,774377,"0.0-3.155-0.155","4yeju24jhrb68t2",728,"165.csv","","527.2000000178814","resources/trios/L2T2A1.jpg","39","restless",0.6,0.6,0.2,0.12183384321094,"true"
"image-keyboard-response",477,774784,"0.0-3.155-1.155","4yeju24jhrb68t2",728,"165.csv","","null","resources/maskTrios/BBA1.jpg","null","",NA,NA,NA,NA,""
"image-keyboard-response",478,775991,"0.0-3.155-2.155","4yeju24jhrb68t2",728,"165.csv","","null","resources/images/coin2.png","null","",NA,NA,NA,NA,""
"image-keyboard-response",479,776089,"0.0-3.156-0.156","4yeju24jhrb68t2",728,"165.csv","","96.2000000178814","resources/trios/L2T4A2.jpg","38","restless",0.6,0.6,0.2,0.326762032231273,"true"
"image-keyboard-response",480,776496,"0.0-3.156-1.156","4yeju24jhrb68t2",728,"165.csv","","null","resources/maskTrios/BT4B.jpg","null","",NA,NA,NA,NA,""
"image-keyboard-response",481,777704,"0.0-3.156-2.156","4yeju24jhrb68t2",728,"165.csv","","null","resources/images/coin2.png","null","",NA,NA,NA,NA,""
"image-keyboard-response",482,829586,"0.0-3.157-0.157","4yeju24jhrb68t2",728,"165.csv","","51879.69999998808","resources/trios/L4T4A1.jpg","38","restless",0.7,0.6,0.2,0.402863665729076,"true"
"image-keyboard-response",483,830000,"0.0-3.157-1.157","4yeju24jhrb68t2",728,"165.csv","","null","resources/maskTrios/BT4B.jpg","null","",NA,NA,NA,NA,""
"image-keyboard-response",484,831208,"0.0-3.157-2.157","4yeju24jhrb68t2",728,"165.csv","","null","resources/images/coin2.png","null","",NA,NA,NA,NA,""
"image-keyboard-response",485,831241,"0.0-3.158-0.158","4yeju24jhrb68t2",728,"165.csv","","31.400000005960464","resources/trios/L2T2A2.jpg","38","restless",0.7,0.6,0.2,0.918371920600401,"false"
"image-keyboard-response",486,831656,"0.0-3.158-1.158","4yeju24jhrb68t2",728,"165.csv","","null","resources/maskTrios/BT2B.jpg","null","",NA,NA,NA,NA,""
"image-keyboard-response",487,832864,"0.0-3.158-2.158","4yeju24jhrb68t2",728,"165.csv","","null","resources/images/fishbone.png","null","",NA,NA,NA,NA,""
"image-keyboard-response",488,832951,"0.0-3.159-0.159","4yeju24jhrb68t2",728,"165.csv","","84.90000000596046","resources/trios/L2T4A1.jpg","37","restless",0.8,0.6,0.2,0.0834206422712724,"true"
"image-keyboard-response",489,833360,"0.0-3.159-1.159","4yeju24jhrb68t2",728,"165.csv","","null","resources/maskTrios/L2BB.jpg","null","",NA,NA,NA,NA,""
"image-keyboard-response",490,834566,"0.0-3.159-2.159","4yeju24jhrb68t2",728,"165.csv","","null","resources/images/coin2.png","null","",NA,NA,NA,NA,""
"image-keyboard-response",491,834570,"0.0-3.160-0.160","4yeju24jhrb68t2",728,"165.csv","","1.899999976158142","resources/trios/L2T4A1.jpg","38","restless",0.8,0.6,0.2,0.648851784713268,"false"
"image-keyboard-response",492,834972,"0.0-3.160-1.160","4yeju24jhrb68t2",728,"165.csv","","null","resources/maskTrios/BT4B.jpg","null","",NA,NA,NA,NA,""
"image-keyboard-response",493,836184,"0.0-3.160-2.160","4yeju24jhrb68t2",728,"165.csv","","null","resources/images/fishbone.png","null","",NA,NA,NA,NA,""
"image-keyboard-response",494,836220,"0.0-3.161-0.161","4yeju24jhrb68t2",728,"165.csv","","33.69999998807907","resources/trios/L4T4A1.jpg","38","restless",0.8,0.6,0.2,0.794581657934315,"false"
"image-keyboard-response",495,836628,"0.0-3.161-1.161","4yeju24jhrb68t2",728,"165.csv","","null","resources/maskTrios/BT4B.jpg","null","",NA,NA,NA,NA,""
"image-keyboard-response",496,837832,"0.0-3.161-2.161","4yeju24jhrb68t2",728,"165.csv","","null","resources/images/fishbone.png","null","",NA,NA,NA,NA,""
"image-keyboard-response",497,837916,"0.0-3.162-0.162","4yeju24jhrb68t2",728,"165.csv","","82","resources/trios/L2T2A2.jpg","38","restless",0.8,0.6,0.2,0.250112900537903,"true"
"image-keyboard-response",498,838323,"0.0-3.162-1.162","4yeju24jhrb68t2",728,"165.csv","","null","resources/maskTrios/BT2B.jpg","null","",NA,NA,NA,NA,""
"image-keyboard-response",499,839532,"0.0-3.162-2.162","4yeju24jhrb68t2",728,"165.csv","","null","resources/images/coin2.png","null","",NA,NA,NA,NA,""
"image-keyboard-response",500,839715,"0.0-3.163-0.163","4yeju24jhrb68t2",728,"165.csv","","180.90000000596046","resources/trios/L2T4A2.jpg","39","restless",0.8,0.6,0.3,0.725603124492386,"false"
"image-keyboard-response",501,840124,"0.0-3.163-1.163","4yeju24jhrb68t2",728,"165.csv","","null","resources/maskTrios/BBA2.jpg","null","",NA,NA,NA,NA,""
"image-keyboard-response",502,841334,"0.0-3.163-2.163","4yeju24jhrb68t2",728,"165.csv","","null","resources/images/fishbone.png","null","",NA,NA,NA,NA,""
"image-keyboard-response",503,841512,"0.0-3.164-0.164","4yeju24jhrb68t2",728,"165.csv","","176.2000000178814","resources/trios/L4T4A1.jpg","38","restless",0.8,0.6,0.3,0.6242121778759,"false"
"image-keyboard-response",504,841918,"0.0-3.164-1.164","4yeju24jhrb68t2",728,"165.csv","","null","resources/maskTrios/BT4B.jpg","null","",NA,NA,NA,NA,""
"image-keyboard-response",505,843128,"0.0-3.164-2.164","4yeju24jhrb68t2",728,"165.csv","","null","resources/images/fishbone.png","null","",NA,NA,NA,NA,""
"image-keyboard-response",506,843216,"0.0-3.165-0.165","4yeju24jhrb68t2",728,"165.csv","","85.59999999403954","resources/trios/L4T2A2.jpg","38","restless",0.8,0.6,0.3,0.877510236688833,"false"
"image-keyboard-response",507,843623,"0.0-3.165-1.165","4yeju24jhrb68t2",728,"165.csv","","null","resources/maskTrios/BT2B.jpg","null","",NA,NA,NA,NA,""
"image-keyboard-response",508,844829,"0.0-3.165-2.165","4yeju24jhrb68t2",728,"165.csv","","null","resources/images/fishbone.png","null","",NA,NA,NA,NA,""
"image-keyboard-response",509,845315,"0.0-3.166-0.166","4yeju24jhrb68t2",728,"165.csv","","484.30000001192093","resources/trios/L4T2A1.jpg","39","restless",0.8,0.7,0.3,0.822960509091659,"false"
"image-keyboard-response",510,845728,"0.0-3.166-1.166","4yeju24jhrb68t2",728,"165.csv","","null","resources/maskTrios/BBA1.jpg","null","",NA,NA,NA,NA,""
"image-keyboard-response",511,846936,"0.0-3.166-2.166","4yeju24jhrb68t2",728,"165.csv","","null","resources/images/fishbone.png","null","",NA,NA,NA,NA,""
"image-keyboard-response",512,847386,"0.0-3.167-0.167","4yeju24jhrb68t2",728,"165.csv","","447.90000000596046","resources/trios/L4T2A1.jpg","38","restless",0.8,0.7,0.3,0.472380465121594,"true"
"image-keyboard-response",513,847797,"0.0-3.167-1.167","4yeju24jhrb68t2",728,"165.csv","","null","resources/maskTrios/BT2B.jpg","null","",NA,NA,NA,NA,""
"image-keyboard-response",514,849004,"0.0-3.167-2.167","4yeju24jhrb68t2",728,"165.csv","","null","resources/images/coin2.png","null","",NA,NA,NA,NA,""
"image-keyboard-response",515,849029,"0.0-3.168-0.168","4yeju24jhrb68t2",728,"165.csv","","23.200000017881393","resources/trios/L4T2A1.jpg","38","restless",0.8,0.7,0.2,0.678022849008956,"true"
"image-keyboard-response",516,849434,"0.0-3.168-1.168","4yeju24jhrb68t2",728,"165.csv","","null","resources/maskTrios/BT2B.jpg","null","",NA,NA,NA,NA,""
"image-keyboard-response",517,850639,"0.0-3.168-2.168","4yeju24jhrb68t2",728,"165.csv","","null","resources/images/coin2.png","null","",NA,NA,NA,NA,""
"image-keyboard-response",518,850725,"0.0-3.169-0.169","4yeju24jhrb68t2",728,"165.csv","","84.2999999821186","resources/trios/L2T2A2.jpg","38","restless",0.8,0.7,0.2,0.244794618052901,"true"
"image-keyboard-response",519,851136,"0.0-3.169-1.169","4yeju24jhrb68t2",728,"165.csv","","null","resources/maskTrios/BT2B.jpg","null","",NA,NA,NA,NA,""
"image-keyboard-response",520,852344,"0.0-3.169-2.169","4yeju24jhrb68t2",728,"165.csv","","null","resources/images/coin2.png","null","",NA,NA,NA,NA,""
"image-keyboard-response",521,852470,"0.0-3.170-0.170","4yeju24jhrb68t2",728,"165.csv","","123.7999999821186","resources/trios/L2T4A1.jpg","37","restless",0.8,0.7,0.2,0.0447106168755189,"true"
"image-keyboard-response",522,852876,"0.0-3.170-1.170","4yeju24jhrb68t2",728,"165.csv","","null","resources/maskTrios/L2BB.jpg","null","",NA,NA,NA,NA,""
"image-keyboard-response",523,854084,"0.0-3.170-2.170","4yeju24jhrb68t2",728,"165.csv","","null","resources/images/coin2.png","null","",NA,NA,NA,NA,""
"image-keyboard-response",524,854187,"0.0-3.171-0.171","4yeju24jhrb68t2",728,"165.csv","","100.40000000596046","resources/trios/L4T2A1.jpg","39","restless",0.8,0.7,0.2,0.661562860276531,"false"
"image-keyboard-response",525,854600,"0.0-3.171-1.171","4yeju24jhrb68t2",728,"165.csv","","null","resources/maskTrios/BBA1.jpg","null","",NA,NA,NA,NA,""
"image-keyboard-response",526,855808,"0.0-3.171-2.171","4yeju24jhrb68t2",728,"165.csv","","null","resources/images/fishbone.png","null","",NA,NA,NA,NA,""
"image-keyboard-response",527,855969,"0.0-3.172-0.172","4yeju24jhrb68t2",728,"165.csv","","159.2000000178814","resources/trios/L2T2A2.jpg","38","restless",0.8,0.7,0.2,0.70181090847212,"false"
"image-keyboard-response",528,856384,"0.0-3.172-1.172","4yeju24jhrb68t2",728,"165.csv","","null","resources/maskTrios/BT2B.jpg","null","",NA,NA,NA,NA,""
"image-keyboard-response",529,857591,"0.0-3.172-2.172","4yeju24jhrb68t2",728,"165.csv","","null","resources/images/fishbone.png","null","",NA,NA,NA,NA,""
"image-keyboard-response",530,857984,"0.0-3.173-0.173","4yeju24jhrb68t2",728,"165.csv","","390.90000000596046","resources/trios/L4T4A2.jpg","38","restless",0.8,0.7,0.3,0.370501835805932,"true"
"image-keyboard-response",531,858392,"0.0-3.173-1.173","4yeju24jhrb68t2",728,"165.csv","","null","resources/maskTrios/BT4B.jpg","null","",NA,NA,NA,NA,""
"image-keyboard-response",532,859596,"0.0-3.173-2.173","4yeju24jhrb68t2",728,"165.csv","","null","resources/images/coin2.png","null","",NA,NA,NA,NA,""
"image-keyboard-response",533,859627,"0.0-3.174-0.174","4yeju24jhrb68t2",728,"165.csv","","28.900000005960464","resources/trios/L4T4A1.jpg","39","restless",0.8,0.7,0.3,0.962405297105166,"false"
"image-keyboard-response",534,860040,"0.0-3.174-1.174","4yeju24jhrb68t2",728,"165.csv","","null","resources/maskTrios/BBA1.jpg","null","",NA,NA,NA,NA,""
"image-keyboard-response",535,861246,"0.0-3.174-2.174","4yeju24jhrb68t2",728,"165.csv","","null","resources/images/fishbone.png","null","",NA,NA,NA,NA,""
"image-keyboard-response",536,861406,"0.0-3.175-0.175","4yeju24jhrb68t2",728,"165.csv","","157.5","resources/trios/L4T2A1.jpg","37","restless",0.8,0.7,0.3,0.353656598892607,"true"
"image-keyboard-response",537,861812,"0.0-3.175-1.175","4yeju24jhrb68t2",728,"165.csv","","null","resources/maskTrios/L4BB.jpg","null","",NA,NA,NA,NA,""
"image-keyboard-response",538,863021,"0.0-3.175-2.175","4yeju24jhrb68t2",728,"165.csv","","null","resources/images/coin2.png","null","",NA,NA,NA,NA,""
"image-keyboard-response",539,863097,"0.0-3.176-0.176","4yeju24jhrb68t2",728,"165.csv","","74.19999998807907","resources/trios/L2T2A1.jpg","37","restless",0.8,0.7,0.3,0.00838696081868995,"true"
"image-keyboard-response",540,863504,"0.0-3.176-1.176","4yeju24jhrb68t2",728,"165.csv","","null","resources/maskTrios/L2BB.jpg","null","",NA,NA,NA,NA,""
"image-keyboard-response",541,864706,"0.0-3.176-2.176","4yeju24jhrb68t2",728,"165.csv","","null","resources/images/coin2.png","null","",NA,NA,NA,NA,""
"image-keyboard-response",542,864848,"0.0-3.177-0.177","4yeju24jhrb68t2",728,"165.csv","","139.39999997615814","resources/trios/L4T4A1.jpg","38","restless",0.8,0.7,0.3,0.49467123409599,"true"
"image-keyboard-response",543,865256,"0.0-3.177-1.177","4yeju24jhrb68t2",728,"165.csv","","null","resources/maskTrios/BT4B.jpg","null","",NA,NA,NA,NA,""
"image-keyboard-response",544,866464,"0.0-3.177-2.177","4yeju24jhrb68t2",728,"165.csv","","null","resources/images/coin2.png","null","",NA,NA,NA,NA,""
"image-keyboard-response",545,866489,"0.0-3.178-0.178","4yeju24jhrb68t2",728,"165.csv","","22.69999998807907","resources/trios/L4T4A1.jpg","38","restless",0.8,0.8,0.3,0.879049418498679,"false"
"image-keyboard-response",546,866896,"0.0-3.178-1.178","4yeju24jhrb68t2",728,"165.csv","","null","resources/maskTrios/BT4B.jpg","null","",NA,NA,NA,NA,""
"image-keyboard-response",547,868099,"0.0-3.178-2.178","4yeju24jhrb68t2",728,"165.csv","","null","resources/images/fishbone.png","null","",NA,NA,NA,NA,""
"image-keyboard-response",548,868159,"0.0-3.179-0.179","4yeju24jhrb68t2",728,"165.csv","","56.900000005960464","resources/trios/L4T2A1.jpg","39","restless",0.8,0.8,0.3,0.479089585723565,"false"
"image-keyboard-response",549,868568,"0.0-3.179-1.179","4yeju24jhrb68t2",728,"165.csv","","null","resources/maskTrios/BBA1.jpg","null","",NA,NA,NA,NA,""
"image-keyboard-response",550,869775,"0.0-3.179-2.179","4yeju24jhrb68t2",728,"165.csv","","null","resources/images/fishbone.png","null","",NA,NA,NA,NA,""
"image-keyboard-response",551,869788,"0.0-3.180-0.180","4yeju24jhrb68t2",728,"165.csv","","11.100000023841858","resources/trios/L4T2A1.jpg","39","restless",0.8,0.8,0.3,0.0437840066769735,"true"
"image-keyboard-response",552,870200,"0.0-3.180-1.180","4yeju24jhrb68t2",728,"165.csv","","null","resources/maskTrios/BBA1.jpg","null","",NA,NA,NA,NA,""
"image-keyboard-response",553,871408,"0.0-3.180-2.180","4yeju24jhrb68t2",728,"165.csv","","null","resources/images/coin2.png","null","",NA,NA,NA,NA,""
"image-keyboard-response",554,871413,"0.0-3.181-0.181","4yeju24jhrb68t2",728,"165.csv","","3","resources/trios/L4T2A2.jpg","38","restless",0.8,0.8,0.3,0.420858906122969,"true"
"image-keyboard-response",555,871816,"0.0-3.181-1.181","4yeju24jhrb68t2",728,"165.csv","","null","resources/maskTrios/BT2B.jpg","null","",NA,NA,NA,NA,""
"image-keyboard-response",556,873024,"0.0-3.181-2.181","4yeju24jhrb68t2",728,"165.csv","","null","resources/images/coin2.png","null","",NA,NA,NA,NA,""
"image-keyboard-response",557,873215,"0.0-3.182-0.182","4yeju24jhrb68t2",728,"165.csv","","189.5","resources/trios/L4T4A1.jpg","37","restless",0.8,0.8,0.3,0.112877257457021,"true"
"image-keyboard-response",558,873621,"0.0-3.182-1.182","4yeju24jhrb68t2",728,"165.csv","","null","resources/maskTrios/L4BB.jpg","null","",NA,NA,NA,NA,""
"image-keyboard-response",559,874832,"0.0-3.182-2.182","4yeju24jhrb68t2",728,"165.csv","","null","resources/images/coin2.png","null","",NA,NA,NA,NA,""
"image-keyboard-response",560,874986,"0.0-3.183-0.183","4yeju24jhrb68t2",728,"165.csv","","152.60000002384186","resources/trios/L2T4A1.jpg","39","restless",0.8,0.8,0.3,0.767639069628614,"false"
"image-keyboard-response",561,875392,"0.0-3.183-1.183","4yeju24jhrb68t2",728,"165.csv","","null","resources/maskTrios/BBA1.jpg","null","",NA,NA,NA,NA,""
"image-keyboard-response",562,876598,"0.0-3.183-2.183","4yeju24jhrb68t2",728,"165.csv","","null","resources/images/fishbone.png","null","",NA,NA,NA,NA,""
"image-keyboard-response",563,876727,"0.0-3.184-0.184","4yeju24jhrb68t2",728,"165.csv","","127","resources/trios/L4T4A2.jpg","37","restless",0.9,0.8,0.3,0.594158772406108,"true"
"image-keyboard-response",564,877136,"0.0-3.184-1.184","4yeju24jhrb68t2",728,"165.csv","","null","resources/maskTrios/L4BB.jpg","null","",NA,NA,NA,NA,""
"image-keyboard-response",565,878343,"0.0-3.184-2.184","4yeju24jhrb68t2",728,"165.csv","","null","resources/images/coin2.png","null","",NA,NA,NA,NA,""
"image-keyboard-response",566,878391,"0.0-3.185-0.185","4yeju24jhrb68t2",728,"165.csv","","46.69999998807907","resources/trios/L2T2A2.jpg","39","restless",0.9,0.9,0.4,0.00457049082168592,"true"
"image-keyboard-response",567,878800,"0.0-3.185-1.185","4yeju24jhrb68t2",728,"165.csv","","null","resources/maskTrios/BBA2.jpg","null","",NA,NA,NA,NA,""
"image-keyboard-response",568,880008,"0.0-3.185-2.185","4yeju24jhrb68t2",728,"165.csv","","null","resources/images/coin2.png","null","",NA,NA,NA,NA,""
"image-keyboard-response",569,880154,"0.0-3.186-0.186","4yeju24jhrb68t2",728,"165.csv","","144.5","resources/trios/L4T4A2.jpg","37","restless",0.9,0.9,0.4,0.183687381432399,"true"
"image-keyboard-response",570,880566,"0.0-3.186-1.186","4yeju24jhrb68t2",728,"165.csv","","null","resources/maskTrios/L4BB.jpg","null","",NA,NA,NA,NA,""
"image-keyboard-response",571,881774,"0.0-3.186-2.186","4yeju24jhrb68t2",728,"165.csv","","null","resources/images/coin2.png","null","",NA,NA,NA,NA,""
"image-keyboard-response",572,881844,"0.0-3.187-0.187","4yeju24jhrb68t2",728,"165.csv","","68.2000000178814","resources/trios/L2T2A2.jpg","39","restless",0.9,0.9,0.4,0.928892644385236,"false"
"image-keyboard-response",573,882256,"0.0-3.187-1.187","4yeju24jhrb68t2",728,"165.csv","","null","resources/maskTrios/BBA2.jpg","null","",NA,NA,NA,NA,""
"image-keyboard-response",574,883464,"0.0-3.187-2.187","4yeju24jhrb68t2",728,"165.csv","","null","resources/images/fishbone.png","null","",NA,NA,NA,NA,""
"image-keyboard-response",575,883541,"0.0-3.188-0.188","4yeju24jhrb68t2",728,"165.csv","","75.09999999403954","resources/trios/L2T4A2.jpg","37","restless",0.8,0.9,0.4,0.0878219809713319,"true"
"image-keyboard-response",576,883952,"0.0-3.188-1.188","4yeju24jhrb68t2",728,"165.csv","","null","resources/maskTrios/L2BB.jpg","null","",NA,NA,NA,NA,""
"image-keyboard-response",577,885156,"0.0-3.188-2.188","4yeju24jhrb68t2",728,"165.csv","","null","resources/images/coin2.png","null","",NA,NA,NA,NA,""
"image-keyboard-response",578,885952,"0.0-3.189-0.189","4yeju24jhrb68t2",728,"165.csv","","794.0999999940395","resources/trios/L2T2A1.jpg","39","restless",0.8,0.9,0.4,0.0306733456576618,"true"
"image-keyboard-response",579,886360,"0.0-3.189-1.189","4yeju24jhrb68t2",728,"165.csv","","null","resources/maskTrios/BBA1.jpg","null","",NA,NA,NA,NA,""
"image-keyboard-response",580,887568,"0.0-3.189-2.189","4yeju24jhrb68t2",728,"165.csv","","null","resources/images/coin2.png","null","",NA,NA,NA,NA,""
"image-keyboard-response",581,887940,"0.0-3.190-0.190","4yeju24jhrb68t2",728,"165.csv","","370","resources/trios/L4T2A2.jpg","37","restless",0.8,0.9,0.4,0.942399368509822,"false"
"image-keyboard-response",582,888352,"0.0-3.190-1.190","4yeju24jhrb68t2",728,"165.csv","","null","resources/maskTrios/L4BB.jpg","null","",NA,NA,NA,NA,""
"image-keyboard-response",583,889560,"0.0-3.190-2.190","4yeju24jhrb68t2",728,"165.csv","","null","resources/images/fishbone.png","null","",NA,NA,NA,NA,""
"image-keyboard-response",584,889975,"0.0-3.191-0.191","4yeju24jhrb68t2",728,"165.csv","","413.09999999403954","resources/trios/L4T4A1.jpg","39","restless",0.7,0.9,0.4,0.638640896389688,"false"
"image-keyboard-response",585,890384,"0.0-3.191-1.191","4yeju24jhrb68t2",728,"165.csv","","null","resources/maskTrios/BBA1.jpg","null","",NA,NA,NA,NA,""
"image-keyboard-response",586,891592,"0.0-3.191-2.191","4yeju24jhrb68t2",728,"165.csv","","null","resources/images/fishbone.png","null","",NA,NA,NA,NA,""
"image-keyboard-response",587,892263,"0.0-3.192-0.192","4yeju24jhrb68t2",728,"165.csv","","669.4000000059605","resources/trios/L4T4A1.jpg","39","restless",0.7,0.9,0.4,0.762317663937668,"false"
"image-keyboard-response",588,892672,"0.0-3.192-1.192","4yeju24jhrb68t2",728,"165.csv","","null","resources/maskTrios/BBA1.jpg","null","",NA,NA,NA,NA,""
"image-keyboard-response",589,893877,"0.0-3.192-2.192","4yeju24jhrb68t2",728,"165.csv","","null","resources/images/fishbone.png","null","",NA,NA,NA,NA,""
"image-keyboard-response",590,894280,"0.0-3.193-0.193","4yeju24jhrb68t2",728,"165.csv","","401.10000002384186","resources/trios/L4T4A1.jpg","37","restless",0.6,0.9,0.4,0.201929870750837,"true"
"image-keyboard-response",591,894688,"0.0-3.193-1.193","4yeju24jhrb68t2",728,"165.csv","","null","resources/maskTrios/L4BB.jpg","null","",NA,NA,NA,NA,""
"image-keyboard-response",592,895891,"0.0-3.193-2.193","4yeju24jhrb68t2",728,"165.csv","","null","resources/images/coin2.png","null","",NA,NA,NA,NA,""
"image-keyboard-response",593,896404,"0.0-3.194-0.194","4yeju24jhrb68t2",728,"165.csv","","510.59999999403954","resources/trios/L2T2A1.jpg","39","restless",0.6,0.9,0.4,0.216287808500496,"true"
"image-keyboard-response",594,896816,"0.0-3.194-1.194","4yeju24jhrb68t2",728,"165.csv","","null","resources/maskTrios/BBA1.jpg","null","",NA,NA,NA,NA,""
"image-keyboard-response",595,898024,"0.0-3.194-2.194","4yeju24jhrb68t2",728,"165.csv","","null","resources/images/coin2.png","null","",NA,NA,NA,NA,""
"image-keyboard-response",596,898328,"0.0-3.195-0.195","4yeju24jhrb68t2",728,"165.csv","","301.90000000596046","resources/trios/L4T4A1.jpg","38","restless",0.6,0.9,0.4,0.801986405428045,"true"
"image-keyboard-response",597,898736,"0.0-3.195-1.195","4yeju24jhrb68t2",728,"165.csv","","null","resources/maskTrios/BT4B.jpg","null","",NA,NA,NA,NA,""
"image-keyboard-response",598,899940,"0.0-3.195-2.195","4yeju24jhrb68t2",728,"165.csv","","null","resources/images/coin2.png","null","",NA,NA,NA,NA,""
"image-keyboard-response",599,900377,"0.0-3.196-0.196","4yeju24jhrb68t2",728,"165.csv","","434.90000000596046","resources/trios/L2T2A1.jpg","37","restless",0.6,0.9,0.4,0.546599259667496,"true"
"image-keyboard-response",600,900784,"0.0-3.196-1.196","4yeju24jhrb68t2",728,"165.csv","","null","resources/maskTrios/L2BB.jpg","null","",NA,NA,NA,NA,""
"image-keyboard-response",601,901988,"0.0-3.196-2.196","4yeju24jhrb68t2",728,"165.csv","","null","resources/images/coin2.png","null","",NA,NA,NA,NA,""
"image-keyboard-response",602,902298,"0.0-3.197-0.197","4yeju24jhrb68t2",728,"165.csv","","308.5","resources/trios/L2T4A1.jpg","39","restless",0.6,0.9,0.4,0.390978111569658,"true"
"image-keyboard-response",603,902712,"0.0-3.197-1.197","4yeju24jhrb68t2",728,"165.csv","","null","resources/maskTrios/BBA1.jpg","null","",NA,NA,NA,NA,""
"image-keyboard-response",604,903917,"0.0-3.197-2.197","4yeju24jhrb68t2",728,"165.csv","","null","resources/images/coin2.png","null","",NA,NA,NA,NA,""
"image-keyboard-response",605,904247,"0.0-3.198-0.198","4yeju24jhrb68t2",728,"165.csv","","327.60000002384186","resources/trios/L2T4A2.jpg","38","restless",0.5,0.9,0.4,0.473035430009155,"true"
