"trial_type","trial_index","time_elapsed","internal_node_id","subject","participantCode","walkNumber","success","rt","stimulus","key_press","test_part","leftProb","midProb","rightProb","generatedNum","correct"
"pavlovia",0,1058,"0.0-0.0","j9uqnx5taw49pbl",748,"183.csv","","","","","",NA,NA,NA,NA,""
"fullscreen",1,3983,"0.0-1.0","j9uqnx5taw49pbl",748,"183.csv","true","","","","",NA,NA,NA,NA,""
"html-keyboard-response",2,17062,"0.0-2.0-0.0","j9uqnx5taw49pbl",748,"183.csv","","13077.899999976158","<p><font size='6'>Arrrgh!</p></font><p>Can you be the best pirate? Try to find lots of gold! But beware, some islands have more gold than others, and over time, the island with the most gold may change. Can YOU figure it out? </p><font size='6'>GOOD LUCK, CAPTAIN!!!</font><p>Press any key to begin</p>","32","",NA,NA,NA,NA,""
"image-keyboard-response",3,20066,"0.0-2.0-1.0","j9uqnx5taw49pbl",748,"183.csv","","null","resources/image_sets/111.png","null","",NA,NA,NA,NA,""
"image-keyboard-response",4,23843,"0.0-2.0-2.0","j9uqnx5taw49pbl",748,"183.csv","","3775.800000011921","resources/image_sets/left_highlight.png","37","",NA,NA,NA,NA,""
"image-keyboard-response",5,25653,"0.0-2.0-3.0","j9uqnx5taw49pbl",748,"183.csv","","1808.699999988079","resources/image_sets/mid_highlight.png","38","",NA,NA,NA,NA,""
"image-keyboard-response",6,26610,"0.0-2.0-4.0","j9uqnx5taw49pbl",748,"183.csv","","956.1000000238419","resources/image_sets/right_highlight.png","39","",NA,NA,NA,NA,""
"image-keyboard-response",7,28047,"0.0-2.0-5.0","j9uqnx5taw49pbl",748,"183.csv","","1436.5999999642372","resources/image_sets/111.png","13","",NA,NA,NA,NA,""
"image-keyboard-response",8,29790,"0.0-2.0-6.0","j9uqnx5taw49pbl",748,"183.csv","","1741.9000000357628","resources/images/coin2.png","13","",NA,NA,NA,NA,""
"image-keyboard-response",9,31435,"0.0-2.0-7.0","j9uqnx5taw49pbl",748,"183.csv","","1644.3999999761581","resources/images/fishbone.png","13","",NA,NA,NA,NA,""
"html-keyboard-response",10,38302,"0.0-2.0-8.0","j9uqnx5taw49pbl",748,"183.csv","","6866.400000035763","<p>Your first journey will be a long one, but you will get a well deserved break at the end</p><p>After the break you will have four more journeys, but each will be much shorter than the first, and you will have breaks in between each</p><p>Press Enter to begin</p>","13","",NA,NA,NA,NA,""
"image-keyboard-response",11,40102,"0.0-3.0-0.0","j9uqnx5taw49pbl",748,"183.csv","","1799.5","resources/trios/L2T1A2.jpg","37","restless",0.7,0.3,0.9,0.0246559470406167,"true"
"image-keyboard-response",12,40507,"0.0-3.0-1.0","j9uqnx5taw49pbl",748,"183.csv","","null","resources/maskTrios/L2BB.jpg","null","",NA,NA,NA,NA,""
"image-keyboard-response",13,41714,"0.0-3.0-2.0","j9uqnx5taw49pbl",748,"183.csv","","null","resources/images/coin2.png","null","",NA,NA,NA,NA,""
"image-keyboard-response",14,42590,"0.0-3.1-0.1","j9uqnx5taw49pbl",748,"183.csv","","873.8000000119209","resources/trios/L2T1A3.jpg","38","restless",0.8,0.3,0.9,0.549853488300726,"false"
"image-keyboard-response",15,42994,"0.0-3.1-1.1","j9uqnx5taw49pbl",748,"183.csv","","null","resources/maskTrios/BT1B.jpg","null","",NA,NA,NA,NA,""
"image-keyboard-response",16,44197,"0.0-3.1-2.1","j9uqnx5taw49pbl",748,"183.csv","","null","resources/images/fishbone.png","null","",NA,NA,NA,NA,""
"image-keyboard-response",17,44696,"0.0-3.2-0.2","j9uqnx5taw49pbl",748,"183.csv","","496.89999997615814","resources/trios/L2T1A3.jpg","38","restless",0.8,0.3,0.9,0.409207132986728,"false"
"image-keyboard-response",18,45101,"0.0-3.2-1.2","j9uqnx5taw49pbl",748,"183.csv","","null","resources/maskTrios/BT1B.jpg","null","",NA,NA,NA,NA,""
"image-keyboard-response",19,46309,"0.0-3.2-2.2","j9uqnx5taw49pbl",748,"183.csv","","null","resources/images/fishbone.png","null","",NA,NA,NA,NA,""
"image-keyboard-response",20,46850,"0.0-3.3-0.3","j9uqnx5taw49pbl",748,"183.csv","","540.1999999880791","resources/trios/L1T2A3.jpg","39","restless",0.9,0.3,0.9,0.61723922544475,"true"
"image-keyboard-response",21,47255,"0.0-3.3-1.3","j9uqnx5taw49pbl",748,"183.csv","","null","resources/maskTrios/BBA3.jpg","null","",NA,NA,NA,NA,""
"image-keyboard-response",22,48460,"0.0-3.3-2.3","j9uqnx5taw49pbl",748,"183.csv","","null","resources/images/coin2.png","null","",NA,NA,NA,NA,""
"image-keyboard-response",23,49432,"0.0-3.4-0.4","j9uqnx5taw49pbl",748,"183.csv","","970.9000000357628","resources/trios/L2T1A3.jpg","37","restless",0.8,0.3,0.9,0.848018123609792,"false"
"image-keyboard-response",24,49838,"0.0-3.4-1.4","j9uqnx5taw49pbl",748,"183.csv","","null","resources/maskTrios/L2BB.jpg","null","",NA,NA,NA,NA,""
"image-keyboard-response",25,51044,"0.0-3.4-2.4","j9uqnx5taw49pbl",748,"183.csv","","null","resources/images/fishbone.png","null","",NA,NA,NA,NA,""
"image-keyboard-response",26,51593,"0.0-3.5-0.5","j9uqnx5taw49pbl",748,"183.csv","","547.5","resources/trios/L2T1A2.jpg","39","restless",0.8,0.3,0.9,0.296518140082805,"true"
"image-keyboard-response",27,51999,"0.0-3.5-1.5","j9uqnx5taw49pbl",748,"183.csv","","null","resources/maskTrios/BBA2.jpg","null","",NA,NA,NA,NA,""
"image-keyboard-response",28,53206,"0.0-3.5-2.5","j9uqnx5taw49pbl",748,"183.csv","","null","resources/images/coin2.png","null","",NA,NA,NA,NA,""
"image-keyboard-response",29,53501,"0.0-3.6-0.6","j9uqnx5taw49pbl",748,"183.csv","","294.30000001192093","resources/trios/L1T1A2.jpg","38","restless",0.8,0.3,0.9,0.274554780145131,"true"
"image-keyboard-response",30,53904,"0.0-3.6-1.6","j9uqnx5taw49pbl",748,"183.csv","","null","resources/maskTrios/BT1B.jpg","null","",NA,NA,NA,NA,""
"image-keyboard-response",31,55108,"0.0-3.6-2.6","j9uqnx5taw49pbl",748,"183.csv","","null","resources/images/coin2.png","null","",NA,NA,NA,NA,""
"image-keyboard-response",32,55425,"0.0-3.7-0.7","j9uqnx5taw49pbl",748,"183.csv","","315.5","resources/trios/L1T1A3.jpg","38","restless",0.8,0.3,0.8,0.475020938714402,"false"
"image-keyboard-response",33,55830,"0.0-3.7-1.7","j9uqnx5taw49pbl",748,"183.csv","","null","resources/maskTrios/BT1B.jpg","null","",NA,NA,NA,NA,""
"image-keyboard-response",34,57034,"0.0-3.7-2.7","j9uqnx5taw49pbl",748,"183.csv","","null","resources/images/fishbone.png","null","",NA,NA,NA,NA,""
"image-keyboard-response",35,57503,"0.0-3.8-0.8","j9uqnx5taw49pbl",748,"183.csv","","467.80000001192093","resources/trios/L2T1A3.jpg","37","restless",0.8,0.3,0.7,0.185020754102512,"true"
"image-keyboard-response",36,57906,"0.0-3.8-1.8","j9uqnx5taw49pbl",748,"183.csv","","null","resources/maskTrios/L2BB.jpg","null","",NA,NA,NA,NA,""
"image-keyboard-response",37,59112,"0.0-3.8-2.8","j9uqnx5taw49pbl",748,"183.csv","","null","resources/images/coin2.png","null","",NA,NA,NA,NA,""
"image-keyboard-response",38,59568,"0.0-3.9-0.9","j9uqnx5taw49pbl",748,"183.csv","","455.10000002384186","resources/trios/L1T1A2.jpg","39","restless",0.7,0.3,0.7,0.939344244928872,"false"
"image-keyboard-response",39,59974,"0.0-3.9-1.9","j9uqnx5taw49pbl",748,"183.csv","","null","resources/maskTrios/BBA2.jpg","null","",NA,NA,NA,NA,""
"image-keyboard-response",40,61178,"0.0-3.9-2.9","j9uqnx5taw49pbl",748,"183.csv","","null","resources/images/fishbone.png","null","",NA,NA,NA,NA,""
"image-keyboard-response",41,61896,"0.0-3.10-0.10","j9uqnx5taw49pbl",748,"183.csv","","717.1999999880791","resources/trios/L1T1A3.jpg","38","restless",0.7,0.3,0.7,0.902509614418523,"false"
"image-keyboard-response",42,62297,"0.0-3.10-1.10","j9uqnx5taw49pbl",748,"183.csv","","null","resources/maskTrios/BT1B.jpg","null","",NA,NA,NA,NA,""
"image-keyboard-response",43,63504,"0.0-3.10-2.10","j9uqnx5taw49pbl",748,"183.csv","","null","resources/images/fishbone.png","null","",NA,NA,NA,NA,""
"image-keyboard-response",44,63893,"0.0-3.11-0.11","j9uqnx5taw49pbl",748,"183.csv","","387.9000000357628","resources/trios/L2T2A2.jpg","37","restless",0.7,0.3,0.7,0.638885130581627,"true"
"image-keyboard-response",45,64294,"0.0-3.11-1.11","j9uqnx5taw49pbl",748,"183.csv","","null","resources/maskTrios/L2BB.jpg","null","",NA,NA,NA,NA,""
"image-keyboard-response",46,65499,"0.0-3.11-2.11","j9uqnx5taw49pbl",748,"183.csv","","null","resources/images/coin2.png","null","",NA,NA,NA,NA,""
"image-keyboard-response",47,66069,"0.0-3.12-0.12","j9uqnx5taw49pbl",748,"183.csv","","568","resources/trios/L1T2A3.jpg","38","restless",0.7,0.4,0.7,0.549392722544853,"false"
"image-keyboard-response",48,66472,"0.0-3.12-1.12","j9uqnx5taw49pbl",748,"183.csv","","null","resources/maskTrios/BT2B.jpg","null","",NA,NA,NA,NA,""
"image-keyboard-response",49,67678,"0.0-3.12-2.12","j9uqnx5taw49pbl",748,"183.csv","","null","resources/images/fishbone.png","null","",NA,NA,NA,NA,""
"image-keyboard-response",50,68080,"0.0-3.13-0.13","j9uqnx5taw49pbl",748,"183.csv","","401.19999998807907","resources/trios/L2T1A3.jpg","39","restless",0.7,0.4,0.7,0.692154635952582,"true"
"image-keyboard-response",51,68486,"0.0-3.13-1.13","j9uqnx5taw49pbl",748,"183.csv","","null","resources/maskTrios/BBA3.jpg","null","",NA,NA,NA,NA,""
"image-keyboard-response",52,69687,"0.0-3.13-2.13","j9uqnx5taw49pbl",748,"183.csv","","null","resources/images/coin2.png","null","",NA,NA,NA,NA,""
"image-keyboard-response",53,69996,"0.0-3.14-0.14","j9uqnx5taw49pbl",748,"183.csv","","308.0999999642372","resources/trios/L2T1A3.jpg","37","restless",0.7,0.4,0.7,0.248635441922439,"true"
"image-keyboard-response",54,70403,"0.0-3.14-1.14","j9uqnx5taw49pbl",748,"183.csv","","null","resources/maskTrios/L2BB.jpg","null","",NA,NA,NA,NA,""
"image-keyboard-response",55,71608,"0.0-3.14-2.14","j9uqnx5taw49pbl",748,"183.csv","","null","resources/images/coin2.png","null","",NA,NA,NA,NA,""
"image-keyboard-response",56,71958,"0.0-3.15-0.15","j9uqnx5taw49pbl",748,"183.csv","","348.69999998807907","resources/trios/L2T2A2.jpg","37","restless",0.7,0.3,0.6,0.788389479220692,"false"
"image-keyboard-response",57,72363,"0.0-3.15-1.15","j9uqnx5taw49pbl",748,"183.csv","","null","resources/maskTrios/L2BB.jpg","null","",NA,NA,NA,NA,""
"image-keyboard-response",58,73567,"0.0-3.15-2.15","j9uqnx5taw49pbl",748,"183.csv","","null","resources/images/fishbone.png","null","",NA,NA,NA,NA,""
"image-keyboard-response",59,74000,"0.0-3.16-0.16","j9uqnx5taw49pbl",748,"183.csv","","431.4000000357628","resources/trios/L2T1A2.jpg","37","restless",0.7,0.3,0.6,0.0566158503016869,"true"
"image-keyboard-response",60,74401,"0.0-3.16-1.16","j9uqnx5taw49pbl",748,"183.csv","","null","resources/maskTrios/L2BB.jpg","null","",NA,NA,NA,NA,""
"image-keyboard-response",61,75605,"0.0-3.16-2.16","j9uqnx5taw49pbl",748,"183.csv","","null","resources/images/coin2.png","null","",NA,NA,NA,NA,""
"image-keyboard-response",62,76123,"0.0-3.17-0.17","j9uqnx5taw49pbl",748,"183.csv","","516.8000000119209","resources/trios/L2T2A2.jpg","38","restless",0.7,0.3,0.6,0.961289807077759,"false"
"image-keyboard-response",63,76525,"0.0-3.17-1.17","j9uqnx5taw49pbl",748,"183.csv","","null","resources/maskTrios/BT2B.jpg","null","",NA,NA,NA,NA,""
"image-keyboard-response",64,77729,"0.0-3.17-2.17","j9uqnx5taw49pbl",748,"183.csv","","null","resources/images/fishbone.png","null","",NA,NA,NA,NA,""
"image-keyboard-response",65,79068,"0.0-3.18-0.18","j9uqnx5taw49pbl",748,"183.csv","","1337.5999999642372","resources/trios/L2T2A2.jpg","38","restless",0.7,0.3,0.6,0.778818671339077,"false"
"image-keyboard-response",66,79474,"0.0-3.18-1.18","j9uqnx5taw49pbl",748,"183.csv","","null","resources/maskTrios/BT2B.jpg","null","",NA,NA,NA,NA,""
"image-keyboard-response",67,80677,"0.0-3.18-2.18","j9uqnx5taw49pbl",748,"183.csv","","null","resources/images/fishbone.png","null","",NA,NA,NA,NA,""
"image-keyboard-response",68,81047,"0.0-3.19-0.19","j9uqnx5taw49pbl",748,"183.csv","","368.89999997615814","resources/trios/L1T1A3.jpg","38","restless",0.7,0.3,0.6,0.0548989197310685,"true"
"image-keyboard-response",69,81453,"0.0-3.19-1.19","j9uqnx5taw49pbl",748,"183.csv","","null","resources/maskTrios/BT1B.jpg","null","",NA,NA,NA,NA,""
"image-keyboard-response",70,82660,"0.0-3.19-2.19","j9uqnx5taw49pbl",748,"183.csv","","null","resources/images/coin2.png","null","",NA,NA,NA,NA,""
"image-keyboard-response",71,83088,"0.0-3.20-0.20","j9uqnx5taw49pbl",748,"183.csv","","426.89999997615814","resources/trios/L1T1A2.jpg","39","restless",0.7,0.3,0.6,0.0456056726862164,"true"
"image-keyboard-response",72,83492,"0.0-3.20-1.20","j9uqnx5taw49pbl",748,"183.csv","","null","resources/maskTrios/BBA2.jpg","null","",NA,NA,NA,NA,""
"image-keyboard-response",73,84698,"0.0-3.20-2.20","j9uqnx5taw49pbl",748,"183.csv","","null","resources/images/coin2.png","null","",NA,NA,NA,NA,""
"image-keyboard-response",74,85094,"0.0-3.21-0.21","j9uqnx5taw49pbl",748,"183.csv","","395.19999998807907","resources/trios/L2T2A2.jpg","39","restless",0.7,0.3,0.6,0.311972960997505,"true"
"image-keyboard-response",75,85496,"0.0-3.21-1.21","j9uqnx5taw49pbl",748,"183.csv","","null","resources/maskTrios/BBA2.jpg","null","",NA,NA,NA,NA,""
"image-keyboard-response",76,86702,"0.0-3.21-2.21","j9uqnx5taw49pbl",748,"183.csv","","null","resources/images/coin2.png","null","",NA,NA,NA,NA,""
"image-keyboard-response",77,87111,"0.0-3.22-0.22","j9uqnx5taw49pbl",748,"183.csv","","407.5","resources/trios/L1T2A3.jpg","39","restless",0.7,0.3,0.5,0.155366716039468,"true"
"image-keyboard-response",78,87517,"0.0-3.22-1.22","j9uqnx5taw49pbl",748,"183.csv","","null","resources/maskTrios/BBA3.jpg","null","",NA,NA,NA,NA,""
"image-keyboard-response",79,88724,"0.0-3.22-2.22","j9uqnx5taw49pbl",748,"183.csv","","null","resources/images/coin2.png","null","",NA,NA,NA,NA,""
"image-keyboard-response",80,89043,"0.0-3.23-0.23","j9uqnx5taw49pbl",748,"183.csv","","318.4000000357628","resources/trios/L1T2A3.jpg","37","restless",0.7,0.3,0.5,0.0567716594915078,"true"
"image-keyboard-response",81,89448,"0.0-3.23-1.23","j9uqnx5taw49pbl",748,"183.csv","","null","resources/maskTrios/L1BB.jpg","null","",NA,NA,NA,NA,""
"image-keyboard-response",82,90655,"0.0-3.23-2.23","j9uqnx5taw49pbl",748,"183.csv","","null","resources/images/coin2.png","null","",NA,NA,NA,NA,""
"image-keyboard-response",83,90986,"0.0-3.24-0.24","j9uqnx5taw49pbl",748,"183.csv","","330","resources/trios/L1T1A2.jpg","39","restless",0.7,0.3,0.5,0.730530602672356,"false"
"image-keyboard-response",84,91392,"0.0-3.24-1.24","j9uqnx5taw49pbl",748,"183.csv","","null","resources/maskTrios/BBA2.jpg","null","",NA,NA,NA,NA,""
"image-keyboard-response",85,92594,"0.0-3.24-2.24","j9uqnx5taw49pbl",748,"183.csv","","null","resources/images/fishbone.png","null","",NA,NA,NA,NA,""
"image-keyboard-response",86,93383,"0.0-3.25-0.25","j9uqnx5taw49pbl",748,"183.csv","","787.5999999642372","resources/trios/L2T2A2.jpg","37","restless",0.7,0.3,0.4,0.853078584334489,"false"
"image-keyboard-response",87,93789,"0.0-3.25-1.25","j9uqnx5taw49pbl",748,"183.csv","","null","resources/maskTrios/L2BB.jpg","null","",NA,NA,NA,NA,""
"image-keyboard-response",88,94993,"0.0-3.25-2.25","j9uqnx5taw49pbl",748,"183.csv","","null","resources/images/fishbone.png","null","",NA,NA,NA,NA,""
"image-keyboard-response",89,95349,"0.0-3.26-0.26","j9uqnx5taw49pbl",748,"183.csv","","354.69999998807907","resources/trios/L1T1A3.jpg","38","restless",0.7,0.3,0.4,0.154456933170582,"true"
"image-keyboard-response",90,95755,"0.0-3.26-1.26","j9uqnx5taw49pbl",748,"183.csv","","null","resources/maskTrios/BT1B.jpg","null","",NA,NA,NA,NA,""
"image-keyboard-response",91,96957,"0.0-3.26-2.26","j9uqnx5taw49pbl",748,"183.csv","","null","resources/images/coin2.png","null","",NA,NA,NA,NA,""
"image-keyboard-response",92,97366,"0.0-3.27-0.27","j9uqnx5taw49pbl",748,"183.csv","","407","resources/trios/L1T2A2.jpg","37","restless",0.7,0.3,0.4,0.0266473418123208,"true"
"image-keyboard-response",93,97767,"0.0-3.27-1.27","j9uqnx5taw49pbl",748,"183.csv","","null","resources/maskTrios/L1BB.jpg","null","",NA,NA,NA,NA,""
"image-keyboard-response",94,98969,"0.0-3.27-2.27","j9uqnx5taw49pbl",748,"183.csv","","null","resources/images/coin2.png","null","",NA,NA,NA,NA,""
"image-keyboard-response",95,99251,"0.0-3.28-0.28","j9uqnx5taw49pbl",748,"183.csv","","280.9000000357628","resources/trios/L2T1A3.jpg","38","restless",0.7,0.3,0.4,0.802825931773437,"false"
"image-keyboard-response",96,99657,"0.0-3.28-1.28","j9uqnx5taw49pbl",748,"183.csv","","null","resources/maskTrios/BT1B.jpg","null","",NA,NA,NA,NA,""
"image-keyboard-response",97,100863,"0.0-3.28-2.28","j9uqnx5taw49pbl",748,"183.csv","","null","resources/images/fishbone.png","null","",NA,NA,NA,NA,""
"image-keyboard-response",98,101236,"0.0-3.29-0.29","j9uqnx5taw49pbl",748,"183.csv","","371.5","resources/trios/L1T2A2.jpg","39","restless",0.7,0.3,0.4,0.153879267060862,"true"
"image-keyboard-response",99,101641,"0.0-3.29-1.29","j9uqnx5taw49pbl",748,"183.csv","","null","resources/maskTrios/BBA2.jpg","null","",NA,NA,NA,NA,""
"image-keyboard-response",100,102843,"0.0-3.29-2.29","j9uqnx5taw49pbl",748,"183.csv","","null","resources/images/coin2.png","null","",NA,NA,NA,NA,""
"image-keyboard-response",101,103486,"0.0-3.30-0.30","j9uqnx5taw49pbl",748,"183.csv","","642.1000000238419","resources/trios/L2T1A2.jpg","37","restless",0.8,0.3,0.3,0.607554949676304,"true"
"image-keyboard-response",102,103892,"0.0-3.30-1.30","j9uqnx5taw49pbl",748,"183.csv","","null","resources/maskTrios/L2BB.jpg","null","",NA,NA,NA,NA,""
"image-keyboard-response",103,105098,"0.0-3.30-2.30","j9uqnx5taw49pbl",748,"183.csv","","null","resources/images/coin2.png","null","",NA,NA,NA,NA,""
"image-keyboard-response",104,105442,"0.0-3.31-0.31","j9uqnx5taw49pbl",748,"183.csv","","342.19999998807907","resources/trios/L2T2A2.jpg","37","restless",0.8,0.3,0.3,0.283986626979877,"true"
"image-keyboard-response",105,105844,"0.0-3.31-1.31","j9uqnx5taw49pbl",748,"183.csv","","null","resources/maskTrios/L2BB.jpg","null","",NA,NA,NA,NA,""
"image-keyboard-response",106,107051,"0.0-3.31-2.31","j9uqnx5taw49pbl",748,"183.csv","","null","resources/images/coin2.png","null","",NA,NA,NA,NA,""
"image-keyboard-response",107,107646,"0.0-3.32-0.32","j9uqnx5taw49pbl",748,"183.csv","","593.5","resources/trios/L2T2A3.jpg","37","restless",0.8,0.3,0.3,0.987388514705762,"false"
"image-keyboard-response",108,108052,"0.0-3.32-1.32","j9uqnx5taw49pbl",748,"183.csv","","null","resources/maskTrios/L2BB.jpg","null","",NA,NA,NA,NA,""
"image-keyboard-response",109,109258,"0.0-3.32-2.32","j9uqnx5taw49pbl",748,"183.csv","","null","resources/images/fishbone.png","null","",NA,NA,NA,NA,""
"image-keyboard-response",110,109529,"0.0-3.33-0.33","j9uqnx5taw49pbl",748,"183.csv","","270.19999998807907","resources/trios/L1T2A2.jpg","38","restless",0.8,0.3,0.3,0.336692882677192,"false"
"image-keyboard-response",111,109934,"0.0-3.33-1.33","j9uqnx5taw49pbl",748,"183.csv","","null","resources/maskTrios/BT2B.jpg","null","",NA,NA,NA,NA,""
"image-keyboard-response",112,111137,"0.0-3.33-2.33","j9uqnx5taw49pbl",748,"183.csv","","null","resources/images/fishbone.png","null","",NA,NA,NA,NA,""
"image-keyboard-response",113,111155,"0.0-3.34-0.34","j9uqnx5taw49pbl",748,"183.csv","","17.30000001192093","resources/trios/L2T2A3.jpg","37","restless",0.8,0.3,0.2,0.149172421572133,"true"
"image-keyboard-response",114,111558,"0.0-3.34-1.34","j9uqnx5taw49pbl",748,"183.csv","","null","resources/maskTrios/L2BB.jpg","null","",NA,NA,NA,NA,""
"image-keyboard-response",115,112762,"0.0-3.34-2.34","j9uqnx5taw49pbl",748,"183.csv","","null","resources/images/coin2.png","null","",NA,NA,NA,NA,""
"image-keyboard-response",116,112953,"0.0-3.35-0.35","j9uqnx5taw49pbl",748,"183.csv","","189.0999999642372","resources/trios/L1T1A3.jpg","39","restless",0.8,0.3,0.2,0.547200319177443,"false"
"image-keyboard-response",117,113359,"0.0-3.35-1.35","j9uqnx5taw49pbl",748,"183.csv","","null","resources/maskTrios/BBA3.jpg","null","",NA,NA,NA,NA,""
"image-keyboard-response",118,114565,"0.0-3.35-2.35","j9uqnx5taw49pbl",748,"183.csv","","null","resources/images/fishbone.png","null","",NA,NA,NA,NA,""
"image-keyboard-response",119,114702,"0.0-3.36-0.36","j9uqnx5taw49pbl",748,"183.csv","","135.5","resources/trios/L1T1A2.jpg","39","restless",0.8,0.3,0.2,0.664259954714755,"false"
"image-keyboard-response",120,115108,"0.0-3.36-1.36","j9uqnx5taw49pbl",748,"183.csv","","null","resources/maskTrios/BBA2.jpg","null","",NA,NA,NA,NA,""
"image-keyboard-response",121,116314,"0.0-3.36-2.36","j9uqnx5taw49pbl",748,"183.csv","","null","resources/images/fishbone.png","null","",NA,NA,NA,NA,""
"image-keyboard-response",122,116688,"0.0-3.37-0.37","j9uqnx5taw49pbl",748,"183.csv","","372.5","resources/trios/L2T1A3.jpg","38","restless",0.8,0.3,0.2,0.691078990798953,"false"
"image-keyboard-response",123,117092,"0.0-3.37-1.37","j9uqnx5taw49pbl",748,"183.csv","","null","resources/maskTrios/BT1B.jpg","null","",NA,NA,NA,NA,""
"image-keyboard-response",124,118298,"0.0-3.37-2.37","j9uqnx5taw49pbl",748,"183.csv","","null","resources/images/fishbone.png","null","",NA,NA,NA,NA,""
"image-keyboard-response",125,118593,"0.0-3.38-0.38","j9uqnx5taw49pbl",748,"183.csv","","293.80000001192093","resources/trios/L1T2A2.jpg","37","restless",0.8,0.3,0.2,0.212413036471889,"true"
"image-keyboard-response",126,118997,"0.0-3.38-1.38","j9uqnx5taw49pbl",748,"183.csv","","null","resources/maskTrios/L1BB.jpg","null","",NA,NA,NA,NA,""
"image-keyboard-response",127,120203,"0.0-3.38-2.38","j9uqnx5taw49pbl",748,"183.csv","","null","resources/images/coin2.png","null","",NA,NA,NA,NA,""
"image-keyboard-response",128,120626,"0.0-3.39-0.39","j9uqnx5taw49pbl",748,"183.csv","","421.7999999523163","resources/trios/L1T1A3.jpg","39","restless",0.8,0.3,0.2,0.622013197532673,"false"
"image-keyboard-response",129,121032,"0.0-3.39-1.39","j9uqnx5taw49pbl",748,"183.csv","","null","resources/maskTrios/BBA3.jpg","null","",NA,NA,NA,NA,""
"image-keyboard-response",130,122238,"0.0-3.39-2.39","j9uqnx5taw49pbl",748,"183.csv","","null","resources/images/fishbone.png","null","",NA,NA,NA,NA,""
"image-keyboard-response",131,122467,"0.0-3.40-0.40","j9uqnx5taw49pbl",748,"183.csv","","228","resources/trios/L2T2A3.jpg","37","restless",0.8,0.3,0.3,0.319968022570045,"true"
"image-keyboard-response",132,122869,"0.0-3.40-1.40","j9uqnx5taw49pbl",748,"183.csv","","null","resources/maskTrios/L2BB.jpg","null","",NA,NA,NA,NA,""
"image-keyboard-response",133,124075,"0.0-3.40-2.40","j9uqnx5taw49pbl",748,"183.csv","","null","resources/images/coin2.png","null","",NA,NA,NA,NA,""
"image-keyboard-response",134,124518,"0.0-3.41-0.41","j9uqnx5taw49pbl",748,"183.csv","","442.19999998807907","resources/trios/L2T1A2.jpg","37","restless",0.8,0.3,0.3,0.804733215157579,"false"
"image-keyboard-response",135,124920,"0.0-3.41-1.41","j9uqnx5taw49pbl",748,"183.csv","","null","resources/maskTrios/L2BB.jpg","null","",NA,NA,NA,NA,""
"image-keyboard-response",136,126125,"0.0-3.41-2.41","j9uqnx5taw49pbl",748,"183.csv","","null","resources/images/fishbone.png","null","",NA,NA,NA,NA,""
"image-keyboard-response",137,126611,"0.0-3.42-0.42","j9uqnx5taw49pbl",748,"183.csv","","484.89999997615814","resources/trios/L2T2A3.jpg","38","restless",0.8,0.3,0.3,0.863130033607536,"false"
"image-keyboard-response",138,127014,"0.0-3.42-1.42","j9uqnx5taw49pbl",748,"183.csv","","null","resources/maskTrios/BT2B.jpg","null","",NA,NA,NA,NA,""
"image-keyboard-response",139,128221,"0.0-3.42-2.42","j9uqnx5taw49pbl",748,"183.csv","","null","resources/images/fishbone.png","null","",NA,NA,NA,NA,""
"image-keyboard-response",140,128488,"0.0-3.43-0.43","j9uqnx5taw49pbl",748,"183.csv","","266.39999997615814","resources/trios/L1T2A2.jpg","37","restless",0.8,0.3,0.3,0.325310786962169,"true"
"image-keyboard-response",141,128892,"0.0-3.43-1.43","j9uqnx5taw49pbl",748,"183.csv","","null","resources/maskTrios/L1BB.jpg","null","",NA,NA,NA,NA,""
"image-keyboard-response",142,130096,"0.0-3.43-2.43","j9uqnx5taw49pbl",748,"183.csv","","null","resources/images/coin2.png","null","",NA,NA,NA,NA,""
"image-keyboard-response",143,130343,"0.0-3.44-0.44","j9uqnx5taw49pbl",748,"183.csv","","246","resources/trios/L1T2A3.jpg","39","restless",0.7,0.3,0.3,0.0644033328836791,"true"
"image-keyboard-response",144,130747,"0.0-3.44-1.44","j9uqnx5taw49pbl",748,"183.csv","","null","resources/maskTrios/BBA3.jpg","null","",NA,NA,NA,NA,""
"image-keyboard-response",145,131953,"0.0-3.44-2.44","j9uqnx5taw49pbl",748,"183.csv","","null","resources/images/coin2.png","null","",NA,NA,NA,NA,""
"image-keyboard-response",146,132259,"0.0-3.45-0.45","j9uqnx5taw49pbl",748,"183.csv","","305","resources/trios/L2T1A3.jpg","37","restless",0.7,0.3,0.3,0.315514637734359,"true"
"image-keyboard-response",147,132662,"0.0-3.45-1.45","j9uqnx5taw49pbl",748,"183.csv","","null","resources/maskTrios/L2BB.jpg","null","",NA,NA,NA,NA,""
"image-keyboard-response",148,133864,"0.0-3.45-2.45","j9uqnx5taw49pbl",748,"183.csv","","null","resources/images/coin2.png","null","",NA,NA,NA,NA,""
"image-keyboard-response",149,134303,"0.0-3.46-0.46","j9uqnx5taw49pbl",748,"183.csv","","438.19999998807907","resources/trios/L2T2A2.jpg","39","restless",0.7,0.3,0.3,0.293154917825046,"true"
"image-keyboard-response",150,134709,"0.0-3.46-1.46","j9uqnx5taw49pbl",748,"183.csv","","null","resources/maskTrios/BBA2.jpg","null","",NA,NA,NA,NA,""
"image-keyboard-response",151,135914,"0.0-3.46-2.46","j9uqnx5taw49pbl",748,"183.csv","","null","resources/images/coin2.png","null","",NA,NA,NA,NA,""
"image-keyboard-response",152,136121,"0.0-3.47-0.47","j9uqnx5taw49pbl",748,"183.csv","","205.5","resources/trios/L2T1A2.jpg","37","restless",0.7,0.3,0.3,0.0190728549924615,"true"
"image-keyboard-response",153,136527,"0.0-3.47-1.47","j9uqnx5taw49pbl",748,"183.csv","","null","resources/maskTrios/L2BB.jpg","null","",NA,NA,NA,NA,""
"image-keyboard-response",154,137729,"0.0-3.47-2.47","j9uqnx5taw49pbl",748,"183.csv","","null","resources/images/coin2.png","null","",NA,NA,NA,NA,""
"image-keyboard-response",155,138228,"0.0-3.48-0.48","j9uqnx5taw49pbl",748,"183.csv","","498.39999997615814","resources/trios/L1T2A3.jpg","39","restless",0.7,0.3,0.3,0.379708942908751,"false"
"image-keyboard-response",156,138630,"0.0-3.48-1.48","j9uqnx5taw49pbl",748,"183.csv","","null","resources/maskTrios/BBA3.jpg","null","",NA,NA,NA,NA,""
"image-keyboard-response",157,139834,"0.0-3.48-2.48","j9uqnx5taw49pbl",748,"183.csv","","null","resources/images/fishbone.png","null","",NA,NA,NA,NA,""
"image-keyboard-response",158,140116,"0.0-3.49-0.49","j9uqnx5taw49pbl",748,"183.csv","","281.69999998807907","resources/trios/L1T1A2.jpg","37","restless",0.7,0.3,0.4,0.595196439112086,"true"
"image-keyboard-response",159,140521,"0.0-3.49-1.49","j9uqnx5taw49pbl",748,"183.csv","","null","resources/maskTrios/L1BB.jpg","null","",NA,NA,NA,NA,""
"image-keyboard-response",160,141723,"0.0-3.49-2.49","j9uqnx5taw49pbl",748,"183.csv","","null","resources/images/coin2.png","null","",NA,NA,NA,NA,""
"image-keyboard-response",161,142094,"0.0-3.50-0.50","j9uqnx5taw49pbl",748,"183.csv","","369.5","resources/trios/L1T1A3.jpg","38","restless",0.7,0.3,0.4,0.503134521921991,"false"
"image-keyboard-response",162,142497,"0.0-3.50-1.50","j9uqnx5taw49pbl",748,"183.csv","","null","resources/maskTrios/BT1B.jpg","null","",NA,NA,NA,NA,""
"image-keyboard-response",163,143703,"0.0-3.50-2.50","j9uqnx5taw49pbl",748,"183.csv","","null","resources/images/fishbone.png","null","",NA,NA,NA,NA,""
"image-keyboard-response",164,144023,"0.0-3.51-0.51","j9uqnx5taw49pbl",748,"183.csv","","318.69999998807907","resources/trios/L1T1A2.jpg","37","restless",0.7,0.3,0.4,0.769700668594815,"false"
"image-keyboard-response",165,144425,"0.0-3.51-1.51","j9uqnx5taw49pbl",748,"183.csv","","null","resources/maskTrios/L1BB.jpg","null","",NA,NA,NA,NA,""
"image-keyboard-response",166,145631,"0.0-3.51-2.51","j9uqnx5taw49pbl",748,"183.csv","","null","resources/images/fishbone.png","null","",NA,NA,NA,NA,""
"image-keyboard-response",167,146030,"0.0-3.52-0.52","j9uqnx5taw49pbl",748,"183.csv","","397.0999999642372","resources/trios/L2T1A3.jpg","37","restless",0.7,0.3,0.4,0.287181616528982,"true"
"image-keyboard-response",168,146435,"0.0-3.52-1.52","j9uqnx5taw49pbl",748,"183.csv","","null","resources/maskTrios/L2BB.jpg","null","",NA,NA,NA,NA,""
"image-keyboard-response",169,147642,"0.0-3.52-2.52","j9uqnx5taw49pbl",748,"183.csv","","null","resources/images/coin2.png","null","",NA,NA,NA,NA,""
"image-keyboard-response",170,147913,"0.0-3.53-0.53","j9uqnx5taw49pbl",748,"183.csv","","270.4000000357628","resources/trios/L2T2A2.jpg","39","restless",0.7,0.2,0.4,0.884428508868475,"false"
"image-keyboard-response",171,148314,"0.0-3.53-1.53","j9uqnx5taw49pbl",748,"183.csv","","null","resources/maskTrios/BBA2.jpg","null","",NA,NA,NA,NA,""
"image-keyboard-response",172,149517,"0.0-3.53-2.53","j9uqnx5taw49pbl",748,"183.csv","","null","resources/images/fishbone.png","null","",NA,NA,NA,NA,""
"image-keyboard-response",173,149758,"0.0-3.54-0.54","j9uqnx5taw49pbl",748,"183.csv","","239.39999997615814","resources/trios/L1T2A3.jpg","37","restless",0.7,0.2,0.4,0.494993630228404,"true"
"image-keyboard-response",174,150159,"0.0-3.54-1.54","j9uqnx5taw49pbl",748,"183.csv","","null","resources/maskTrios/L1BB.jpg","null","",NA,NA,NA,NA,""
"image-keyboard-response",175,151366,"0.0-3.54-2.54","j9uqnx5taw49pbl",748,"183.csv","","null","resources/images/coin2.png","null","",NA,NA,NA,NA,""
"image-keyboard-response",176,151665,"0.0-3.55-0.55","j9uqnx5taw49pbl",748,"183.csv","","298.69999998807907","resources/trios/L1T1A2.jpg","39","restless",0.7,0.2,0.4,0.731892078752426,"false"
"image-keyboard-response",177,152071,"0.0-3.55-1.55","j9uqnx5taw49pbl",748,"183.csv","","null","resources/maskTrios/BBA2.jpg","null","",NA,NA,NA,NA,""
"image-keyboard-response",178,153275,"0.0-3.55-2.55","j9uqnx5taw49pbl",748,"183.csv","","null","resources/images/fishbone.png","null","",NA,NA,NA,NA,""
"image-keyboard-response",179,153704,"0.0-3.56-0.56","j9uqnx5taw49pbl",748,"183.csv","","428.60000002384186","resources/trios/L2T1A3.jpg","38","restless",0.7,0.3,0.4,0.423659802854019,"false"
"image-keyboard-response",180,154110,"0.0-3.56-1.56","j9uqnx5taw49pbl",748,"183.csv","","null","resources/maskTrios/BT1B.jpg","null","",NA,NA,NA,NA,""
"image-keyboard-response",181,155312,"0.0-3.56-2.56","j9uqnx5taw49pbl",748,"183.csv","","null","resources/images/fishbone.png","null","",NA,NA,NA,NA,""
"image-keyboard-response",182,155600,"0.0-3.57-0.57","j9uqnx5taw49pbl",748,"183.csv","","287.4000000357628","resources/trios/L2T2A3.jpg","39","restless",0.6,0.3,0.4,0.942638638249463,"false"
"image-keyboard-response",183,156006,"0.0-3.57-1.57","j9uqnx5taw49pbl",748,"183.csv","","null","resources/maskTrios/BBA3.jpg","null","",NA,NA,NA,NA,""
"image-keyboard-response",184,157213,"0.0-3.57-2.57","j9uqnx5taw49pbl",748,"183.csv","","null","resources/images/fishbone.png","null","",NA,NA,NA,NA,""
"image-keyboard-response",185,157484,"0.0-3.58-0.58","j9uqnx5taw49pbl",748,"183.csv","","270","resources/trios/L1T2A3.jpg","37","restless",0.6,0.3,0.4,0.814633152133257,"false"
"image-keyboard-response",186,157888,"0.0-3.58-1.58","j9uqnx5taw49pbl",748,"183.csv","","null","resources/maskTrios/L1BB.jpg","null","",NA,NA,NA,NA,""
"image-keyboard-response",187,159094,"0.0-3.58-2.58","j9uqnx5taw49pbl",748,"183.csv","","null","resources/images/fishbone.png","null","",NA,NA,NA,NA,""
"image-keyboard-response",188,159354,"0.0-3.59-0.59","j9uqnx5taw49pbl",748,"183.csv","","259","resources/trios/L2T1A2.jpg","39","restless",0.6,0.3,0.4,0.121629854868885,"true"
"image-keyboard-response",189,159759,"0.0-3.59-1.59","j9uqnx5taw49pbl",748,"183.csv","","null","resources/maskTrios/BBA2.jpg","null","",NA,NA,NA,NA,""
"image-keyboard-response",190,160962,"0.0-3.59-2.59","j9uqnx5taw49pbl",748,"183.csv","","null","resources/images/coin2.png","null","",NA,NA,NA,NA,""
"image-keyboard-response",191,161324,"0.0-3.60-0.60","j9uqnx5taw49pbl",748,"183.csv","","361.60000002384186","resources/trios/L2T1A3.jpg","37","restless",0.6,0.3,0.4,0.91938307595762,"false"
"image-keyboard-response",192,161731,"0.0-3.60-1.60","j9uqnx5taw49pbl",748,"183.csv","","null","resources/maskTrios/L2BB.jpg","null","",NA,NA,NA,NA,""
"image-keyboard-response",193,162937,"0.0-3.60-2.60","j9uqnx5taw49pbl",748,"183.csv","","null","resources/images/fishbone.png","null","",NA,NA,NA,NA,""
"image-keyboard-response",194,162944,"0.0-3.61-0.61","j9uqnx5taw49pbl",748,"183.csv","","5.800000011920929","resources/trios/L2T2A3.jpg","39","restless",0.6,0.3,0.4,0.886009760384932,"false"
"image-keyboard-response",195,163346,"0.0-3.61-1.61","j9uqnx5taw49pbl",748,"183.csv","","null","resources/maskTrios/BBA3.jpg","null","",NA,NA,NA,NA,""
"image-keyboard-response",196,164552,"0.0-3.61-2.61","j9uqnx5taw49pbl",748,"183.csv","","null","resources/images/fishbone.png","null","",NA,NA,NA,NA,""
"image-keyboard-response",197,164597,"0.0-3.62-0.62","j9uqnx5taw49pbl",748,"183.csv","","43.89999997615814","resources/trios/L2T1A2.jpg","37","restless",0.6,0.4,0.4,0.0862987108639872,"true"
"image-keyboard-response",198,165001,"0.0-3.62-1.62","j9uqnx5taw49pbl",748,"183.csv","","null","resources/maskTrios/L2BB.jpg","null","",NA,NA,NA,NA,""
"image-keyboard-response",199,166207,"0.0-3.62-2.62","j9uqnx5taw49pbl",748,"183.csv","","null","resources/images/coin2.png","null","",NA,NA,NA,NA,""
"image-keyboard-response",200,166600,"0.0-3.63-0.63","j9uqnx5taw49pbl",748,"183.csv","","392","resources/trios/L1T1A2.jpg","38","restless",0.6,0.4,0.4,0.0534906900909538,"true"
"image-keyboard-response",201,167006,"0.0-3.63-1.63","j9uqnx5taw49pbl",748,"183.csv","","null","resources/maskTrios/BT1B.jpg","null","",NA,NA,NA,NA,""
"image-keyboard-response",202,168212,"0.0-3.63-2.63","j9uqnx5taw49pbl",748,"183.csv","","null","resources/images/coin2.png","null","",NA,NA,NA,NA,""
"image-keyboard-response",203,168437,"0.0-3.64-0.64","j9uqnx5taw49pbl",748,"183.csv","","223.4000000357628","resources/trios/L2T1A3.jpg","37","restless",0.6,0.4,0.4,0.554446019875579,"true"
"image-keyboard-response",204,168841,"0.0-3.64-1.64","j9uqnx5taw49pbl",748,"183.csv","","null","resources/maskTrios/L2BB.jpg","null","",NA,NA,NA,NA,""
"image-keyboard-response",205,170045,"0.0-3.64-2.64","j9uqnx5taw49pbl",748,"183.csv","","null","resources/images/coin2.png","null","",NA,NA,NA,NA,""
"image-keyboard-response",206,170304,"0.0-3.65-0.65","j9uqnx5taw49pbl",748,"183.csv","","257.60000002384186","resources/trios/L2T1A3.jpg","38","restless",0.7,0.4,0.4,0.66359923825832,"false"
"image-keyboard-response",207,170706,"0.0-3.65-1.65","j9uqnx5taw49pbl",748,"183.csv","","null","resources/maskTrios/BT1B.jpg","null","",NA,NA,NA,NA,""
"image-keyboard-response",208,171911,"0.0-3.65-2.65","j9uqnx5taw49pbl",748,"183.csv","","null","resources/images/fishbone.png","null","",NA,NA,NA,NA,""
"image-keyboard-response",209,172280,"0.0-3.66-0.66","j9uqnx5taw49pbl",748,"183.csv","","367.19999998807907","resources/trios/L2T1A2.jpg","37","restless",0.7,0.4,0.4,0.568437432080292,"true"
"image-keyboard-response",210,172686,"0.0-3.66-1.66","j9uqnx5taw49pbl",748,"183.csv","","null","resources/maskTrios/L2BB.jpg","null","",NA,NA,NA,NA,""
"image-keyboard-response",211,173892,"0.0-3.66-2.66","j9uqnx5taw49pbl",748,"183.csv","","null","resources/images/coin2.png","null","",NA,NA,NA,NA,""
"image-keyboard-response",212,173982,"0.0-3.67-0.67","j9uqnx5taw49pbl",748,"183.csv","","88.5","resources/trios/L2T1A2.jpg","39","restless",0.7,0.4,0.4,0.748401376520419,"false"
"image-keyboard-response",213,174388,"0.0-3.67-1.67","j9uqnx5taw49pbl",748,"183.csv","","null","resources/maskTrios/BBA2.jpg","null","",NA,NA,NA,NA,""
"image-keyboard-response",214,175592,"0.0-3.67-2.67","j9uqnx5taw49pbl",748,"183.csv","","null","resources/images/fishbone.png","null","",NA,NA,NA,NA,""
"image-keyboard-response",215,176106,"0.0-3.68-0.68","j9uqnx5taw49pbl",748,"183.csv","","512.6000000238419","resources/trios/L1T2A2.jpg","37","restless",0.7,0.4,0.4,0.631249211301496,"true"
"image-keyboard-response",216,176512,"0.0-3.68-1.68","j9uqnx5taw49pbl",748,"183.csv","","null","resources/maskTrios/L1BB.jpg","null","",NA,NA,NA,NA,""
"image-keyboard-response",217,177716,"0.0-3.68-2.68","j9uqnx5taw49pbl",748,"183.csv","","null","resources/images/coin2.png","null","",NA,NA,NA,NA,""
"image-keyboard-response",218,178014,"0.0-3.69-0.69","j9uqnx5taw49pbl",748,"183.csv","","296.80000001192093","resources/trios/L2T2A3.jpg","39","restless",0.7,0.4,0.4,0.606796582981639,"false"
"image-keyboard-response",219,178418,"0.0-3.69-1.69","j9uqnx5taw49pbl",748,"183.csv","","null","resources/maskTrios/BBA3.jpg","null","",NA,NA,NA,NA,""
"image-keyboard-response",220,179624,"0.0-3.69-2.69","j9uqnx5taw49pbl",748,"183.csv","","null","resources/images/fishbone.png","null","",NA,NA,NA,NA,""
"image-keyboard-response",221,180002,"0.0-3.70-0.70","j9uqnx5taw49pbl",748,"183.csv","","376.5","resources/trios/L2T2A2.jpg","37","restless",0.7,0.4,0.4,0.79205631054601,"false"
"image-keyboard-response",222,180406,"0.0-3.70-1.70","j9uqnx5taw49pbl",748,"183.csv","","null","resources/maskTrios/L2BB.jpg","null","",NA,NA,NA,NA,""
"image-keyboard-response",223,181610,"0.0-3.70-2.70","j9uqnx5taw49pbl",748,"183.csv","","null","resources/images/fishbone.png","null","",NA,NA,NA,NA,""
"image-keyboard-response",224,181945,"0.0-3.71-0.71","j9uqnx5taw49pbl",748,"183.csv","","333.9000000357628","resources/trios/L2T1A3.jpg","38","restless",0.7,0.5,0.4,0.315477405884788,"true"
"image-keyboard-response",225,182351,"0.0-3.71-1.71","j9uqnx5taw49pbl",748,"183.csv","","null","resources/maskTrios/BT1B.jpg","null","",NA,NA,NA,NA,""
"image-keyboard-response",226,183557,"0.0-3.71-2.71","j9uqnx5taw49pbl",748,"183.csv","","null","resources/images/coin2.png","null","",NA,NA,NA,NA,""
"image-keyboard-response",227,183821,"0.0-3.72-0.72","j9uqnx5taw49pbl",748,"183.csv","","263.19999998807907","resources/trios/L1T1A2.jpg","37","restless",0.6,0.5,0.4,0.852540245311159,"false"
"image-keyboard-response",228,184228,"0.0-3.72-1.72","j9uqnx5taw49pbl",748,"183.csv","","null","resources/maskTrios/L1BB.jpg","null","",NA,NA,NA,NA,""
"image-keyboard-response",229,185432,"0.0-3.72-2.72","j9uqnx5taw49pbl",748,"183.csv","","null","resources/images/fishbone.png","null","",NA,NA,NA,NA,""
"image-keyboard-response",230,185597,"0.0-3.73-0.73","j9uqnx5taw49pbl",748,"183.csv","","164.10000002384186","resources/trios/L1T2A2.jpg","38","restless",0.6,0.5,0.4,0.639452501967059,"false"
"image-keyboard-response",231,186003,"0.0-3.73-1.73","j9uqnx5taw49pbl",748,"183.csv","","null","resources/maskTrios/BT2B.jpg","null","",NA,NA,NA,NA,""
"image-keyboard-response",232,187209,"0.0-3.73-2.73","j9uqnx5taw49pbl",748,"183.csv","","null","resources/images/fishbone.png","null","",NA,NA,NA,NA,""
"image-keyboard-response",233,187242,"0.0-3.74-0.74","j9uqnx5taw49pbl",748,"183.csv","","32.30000001192093","resources/trios/L1T2A2.jpg","37","restless",0.6,0.5,0.4,0.537424574604542,"true"
"image-keyboard-response",234,187645,"0.0-3.74-1.74","j9uqnx5taw49pbl",748,"183.csv","","null","resources/maskTrios/L1BB.jpg","null","",NA,NA,NA,NA,""
"image-keyboard-response",235,188848,"0.0-3.74-2.74","j9uqnx5taw49pbl",748,"183.csv","","null","resources/images/coin2.png","null","",NA,NA,NA,NA,""
"image-keyboard-response",236,189101,"0.0-3.75-0.75","j9uqnx5taw49pbl",748,"183.csv","","250.9000000357628","resources/trios/L2T2A3.jpg","39","restless",0.6,0.5,0.5,0.954212176759473,"false"
"image-keyboard-response",237,189505,"0.0-3.75-1.75","j9uqnx5taw49pbl",748,"183.csv","","null","resources/maskTrios/BBA3.jpg","null","",NA,NA,NA,NA,""
"image-keyboard-response",238,190709,"0.0-3.75-2.75","j9uqnx5taw49pbl",748,"183.csv","","null","resources/images/fishbone.png","null","",NA,NA,NA,NA,""
"image-keyboard-response",239,190815,"0.0-3.76-0.76","j9uqnx5taw49pbl",748,"183.csv","","105.69999998807907","resources/trios/L2T1A2.jpg","38","restless",0.6,0.5,0.5,0.55252618049367,"false"
"image-keyboard-response",240,191222,"0.0-3.76-1.76","j9uqnx5taw49pbl",748,"183.csv","","null","resources/maskTrios/BT1B.jpg","null","",NA,NA,NA,NA,""
"image-keyboard-response",241,192425,"0.0-3.76-2.76","j9uqnx5taw49pbl",748,"183.csv","","null","resources/images/fishbone.png","null","",NA,NA,NA,NA,""
"image-keyboard-response",242,192678,"0.0-3.77-0.77","j9uqnx5taw49pbl",748,"183.csv","","251.10000002384186","resources/trios/L1T1A3.jpg","39","restless",0.6,0.5,0.5,0.375473932433062,"true"
"image-keyboard-response",243,193081,"0.0-3.77-1.77","j9uqnx5taw49pbl",748,"183.csv","","null","resources/maskTrios/BBA3.jpg","null","",NA,NA,NA,NA,""
"image-keyboard-response",244,194284,"0.0-3.77-2.77","j9uqnx5taw49pbl",748,"183.csv","","null","resources/images/coin2.png","null","",NA,NA,NA,NA,""
"image-keyboard-response",245,194469,"0.0-3.78-0.78","j9uqnx5taw49pbl",748,"183.csv","","184.10000002384186","resources/trios/L1T2A2.jpg","37","restless",0.7,0.5,0.5,0.454574609054339,"true"
"image-keyboard-response",246,194871,"0.0-3.78-1.78","j9uqnx5taw49pbl",748,"183.csv","","null","resources/maskTrios/L1BB.jpg","null","",NA,NA,NA,NA,""
"image-keyboard-response",247,196076,"0.0-3.78-2.78","j9uqnx5taw49pbl",748,"183.csv","","null","resources/images/coin2.png","null","",NA,NA,NA,NA,""
"image-keyboard-response",248,196340,"0.0-3.79-0.79","j9uqnx5taw49pbl",748,"183.csv","","263.0999999642372","resources/trios/L2T1A2.jpg","39","restless",0.7,0.5,0.4,0.309421162914452,"true"
"image-keyboard-response",249,196746,"0.0-3.79-1.79","j9uqnx5taw49pbl",748,"183.csv","","null","resources/maskTrios/BBA2.jpg","null","",NA,NA,NA,NA,""
"image-keyboard-response",250,197949,"0.0-3.79-2.79","j9uqnx5taw49pbl",748,"183.csv","","null","resources/images/coin2.png","null","",NA,NA,NA,NA,""
"image-keyboard-response",251,198089,"0.0-3.80-0.80","j9uqnx5taw49pbl",748,"183.csv","","138.89999997615814","resources/trios/L1T1A3.jpg","37","restless",0.6,0.5,0.4,0.193542853786938,"true"
"image-keyboard-response",252,198495,"0.0-3.80-1.80","j9uqnx5taw49pbl",748,"183.csv","","null","resources/maskTrios/L1BB.jpg","null","",NA,NA,NA,NA,""
"image-keyboard-response",253,199700,"0.0-3.80-2.80","j9uqnx5taw49pbl",748,"183.csv","","null","resources/images/coin2.png","null","",NA,NA,NA,NA,""
"image-keyboard-response",254,199949,"0.0-3.81-0.81","j9uqnx5taw49pbl",748,"183.csv","","247.89999997615814","resources/trios/L2T2A2.jpg","39","restless",0.6,0.5,0.4,0.187549679113973,"true"
"image-keyboard-response",255,200353,"0.0-3.81-1.81","j9uqnx5taw49pbl",748,"183.csv","","null","resources/maskTrios/BBA2.jpg","null","",NA,NA,NA,NA,""
"image-keyboard-response",256,201558,"0.0-3.81-2.81","j9uqnx5taw49pbl",748,"183.csv","","null","resources/images/coin2.png","null","",NA,NA,NA,NA,""
"image-keyboard-response",257,202465,"0.0-3.82-0.82","j9uqnx5taw49pbl",748,"183.csv","","905.2999999523163","resources/trios/L2T2A2.jpg","37","restless",0.6,0.5,0.4,0.178691463770225,"true"
"image-keyboard-response",258,202871,"0.0-3.82-1.82","j9uqnx5taw49pbl",748,"183.csv","","null","resources/maskTrios/L2BB.jpg","null","",NA,NA,NA,NA,""
"image-keyboard-response",259,204074,"0.0-3.82-2.82","j9uqnx5taw49pbl",748,"183.csv","","null","resources/images/coin2.png","null","",NA,NA,NA,NA,""
"image-keyboard-response",260,204424,"0.0-3.83-0.83","j9uqnx5taw49pbl",748,"183.csv","","348.69999998807907","resources/trios/L1T2A3.jpg","39","restless",0.6,0.5,0.4,0.450819407404762,"false"
"image-keyboard-response",261,204826,"0.0-3.83-1.83","j9uqnx5taw49pbl",748,"183.csv","","null","resources/maskTrios/BBA3.jpg","null","",NA,NA,NA,NA,""
"image-keyboard-response",262,206033,"0.0-3.83-2.83","j9uqnx5taw49pbl",748,"183.csv","","null","resources/images/fishbone.png","null","",NA,NA,NA,NA,""
"image-keyboard-response",263,206246,"0.0-3.84-0.84","j9uqnx5taw49pbl",748,"183.csv","","212","resources/trios/L1T2A3.jpg","37","restless",0.7,0.5,0.4,0.946489012328684,"false"
"image-keyboard-response",264,206649,"0.0-3.84-1.84","j9uqnx5taw49pbl",748,"183.csv","","null","resources/maskTrios/L1BB.jpg","null","",NA,NA,NA,NA,""
"image-keyboard-response",265,207852,"0.0-3.84-2.84","j9uqnx5taw49pbl",748,"183.csv","","null","resources/images/fishbone.png","null","",NA,NA,NA,NA,""
"image-keyboard-response",266,208154,"0.0-3.85-0.85","j9uqnx5taw49pbl",748,"183.csv","","300.30000001192093","resources/trios/L2T1A3.jpg","38","restless",0.7,0.5,0.4,0.750203359495762,"false"
"image-keyboard-response",267,208557,"0.0-3.85-1.85","j9uqnx5taw49pbl",748,"183.csv","","null","resources/maskTrios/BT1B.jpg","null","",NA,NA,NA,NA,""
"image-keyboard-response",268,209763,"0.0-3.85-2.85","j9uqnx5taw49pbl",748,"183.csv","","null","resources/images/fishbone.png","null","",NA,NA,NA,NA,""
"image-keyboard-response",269,210018,"0.0-3.86-0.86","j9uqnx5taw49pbl",748,"183.csv","","253.4000000357628","resources/trios/L2T1A2.jpg","37","restless",0.7,0.5,0.4,0.974615902324642,"false"
"image-keyboard-response",270,210423,"0.0-3.86-1.86","j9uqnx5taw49pbl",748,"183.csv","","null","resources/maskTrios/L2BB.jpg","null","",NA,NA,NA,NA,""
"image-keyboard-response",271,211629,"0.0-3.86-2.86","j9uqnx5taw49pbl",748,"183.csv","","null","resources/images/fishbone.png","null","",NA,NA,NA,NA,""
"image-keyboard-response",272,211868,"0.0-3.87-0.87","j9uqnx5taw49pbl",748,"183.csv","","237.5999999642372","resources/trios/L1T2A2.jpg","39","restless",0.7,0.4,0.4,0.845446479187582,"false"
"image-keyboard-response",273,212271,"0.0-3.87-1.87","j9uqnx5taw49pbl",748,"183.csv","","null","resources/maskTrios/BBA2.jpg","null","",NA,NA,NA,NA,""
"image-keyboard-response",274,213473,"0.0-3.87-2.87","j9uqnx5taw49pbl",748,"183.csv","","null","resources/images/fishbone.png","null","",NA,NA,NA,NA,""
"image-keyboard-response",275,213822,"0.0-3.88-0.88","j9uqnx5taw49pbl",748,"183.csv","","348.19999998807907","resources/trios/L1T2A3.jpg","37","restless",0.7,0.4,0.4,0.959010983805311,"false"
"image-keyboard-response",276,214227,"0.0-3.88-1.88","j9uqnx5taw49pbl",748,"183.csv","","null","resources/maskTrios/L1BB.jpg","null","",NA,NA,NA,NA,""
"image-keyboard-response",277,215428,"0.0-3.88-2.88","j9uqnx5taw49pbl",748,"183.csv","","null","resources/images/fishbone.png","null","",NA,NA,NA,NA,""
"image-keyboard-response",278,215787,"0.0-3.89-0.89","j9uqnx5taw49pbl",748,"183.csv","","358.2000000476837","resources/trios/L1T2A3.jpg","38","restless",0.7,0.4,0.4,0.575766371307249,"false"
"image-keyboard-response",279,216191,"0.0-3.89-1.89","j9uqnx5taw49pbl",748,"183.csv","","null","resources/maskTrios/BT2B.jpg","null","",NA,NA,NA,NA,""
"image-keyboard-response",280,217398,"0.0-3.89-2.89","j9uqnx5taw49pbl",748,"183.csv","","null","resources/images/fishbone.png","null","",NA,NA,NA,NA,""
"image-keyboard-response",281,217470,"0.0-3.90-0.90","j9uqnx5taw49pbl",748,"183.csv","","71.39999997615814","resources/trios/L2T1A2.jpg","37","restless",0.7,0.4,0.4,0.445703395216381,"true"
"image-keyboard-response",282,217872,"0.0-3.90-1.90","j9uqnx5taw49pbl",748,"183.csv","","null","resources/maskTrios/L2BB.jpg","null","",NA,NA,NA,NA,""
"image-keyboard-response",283,219078,"0.0-3.90-2.90","j9uqnx5taw49pbl",748,"183.csv","","null","resources/images/coin2.png","null","",NA,NA,NA,NA,""
"image-keyboard-response",284,219372,"0.0-3.91-0.91","j9uqnx5taw49pbl",748,"183.csv","","293.30000001192093","resources/trios/L1T1A2.jpg","39","restless",0.7,0.4,0.4,0.401035117205939,"false"
"image-keyboard-response",285,219774,"0.0-3.91-1.91","j9uqnx5taw49pbl",748,"183.csv","","null","resources/maskTrios/BBA2.jpg","null","",NA,NA,NA,NA,""
"image-keyboard-response",286,220979,"0.0-3.91-2.91","j9uqnx5taw49pbl",748,"183.csv","","null","resources/images/fishbone.png","null","",NA,NA,NA,NA,""
"image-keyboard-response",287,221335,"0.0-3.92-0.92","j9uqnx5taw49pbl",748,"183.csv","","355.5","resources/trios/L1T1A2.jpg","37","restless",0.7,0.5,0.4,0.406219659617742,"true"
"image-keyboard-response",288,221740,"0.0-3.92-1.92","j9uqnx5taw49pbl",748,"183.csv","","null","resources/maskTrios/L1BB.jpg","null","",NA,NA,NA,NA,""
"image-keyboard-response",289,222946,"0.0-3.92-2.92","j9uqnx5taw49pbl",748,"183.csv","","null","resources/images/coin2.png","null","",NA,NA,NA,NA,""
"image-keyboard-response",290,223243,"0.0-3.93-0.93","j9uqnx5taw49pbl",748,"183.csv","","295.60000002384186","resources/trios/L1T1A3.jpg","38","restless",0.7,0.5,0.4,0.739574374134894,"false"
"image-keyboard-response",291,223649,"0.0-3.93-1.93","j9uqnx5taw49pbl",748,"183.csv","","null","resources/maskTrios/BT1B.jpg","null","",NA,NA,NA,NA,""
"image-keyboard-response",292,224852,"0.0-3.93-2.93","j9uqnx5taw49pbl",748,"183.csv","","null","resources/images/fishbone.png","null","",NA,NA,NA,NA,""
"image-keyboard-response",293,225341,"0.0-3.94-0.94","j9uqnx5taw49pbl",748,"183.csv","","488.39999997615814","resources/trios/L2T1A3.jpg","37","restless",0.7,0.5,0.4,0.205552977762529,"true"
"image-keyboard-response",294,225744,"0.0-3.94-1.94","j9uqnx5taw49pbl",748,"183.csv","","null","resources/maskTrios/L2BB.jpg","null","",NA,NA,NA,NA,""
"image-keyboard-response",295,226950,"0.0-3.94-2.94","j9uqnx5taw49pbl",748,"183.csv","","null","resources/images/coin2.png","null","",NA,NA,NA,NA,""
"image-keyboard-response",296,227067,"0.0-3.95-0.95","j9uqnx5taw49pbl",748,"183.csv","","116","resources/trios/L1T2A2.jpg","39","restless",0.7,0.5,0.4,0.691422187807745,"false"
"image-keyboard-response",297,227469,"0.0-3.95-1.95","j9uqnx5taw49pbl",748,"183.csv","","null","resources/maskTrios/BBA2.jpg","null","",NA,NA,NA,NA,""
"image-keyboard-response",298,228673,"0.0-3.95-2.95","j9uqnx5taw49pbl",748,"183.csv","","null","resources/images/fishbone.png","null","",NA,NA,NA,NA,""
"image-keyboard-response",299,228766,"0.0-3.96-0.96","j9uqnx5taw49pbl",748,"183.csv","","91.70000004768372","resources/trios/L1T1A3.jpg","37","restless",0.7,0.5,0.4,0.541113541308601,"true"
"image-keyboard-response",300,229170,"0.0-3.96-1.96","j9uqnx5taw49pbl",748,"183.csv","","null","resources/maskTrios/L1BB.jpg","null","",NA,NA,NA,NA,""
"image-keyboard-response",301,230374,"0.0-3.96-2.96","j9uqnx5taw49pbl",748,"183.csv","","null","resources/images/coin2.png","null","",NA,NA,NA,NA,""
"image-keyboard-response",302,230709,"0.0-3.97-0.97","j9uqnx5taw49pbl",748,"183.csv","","334","resources/trios/L2T2A3.jpg","39","restless",0.6,0.6,0.4,0.166657943243526,"true"
"image-keyboard-response",303,231112,"0.0-3.97-1.97","j9uqnx5taw49pbl",748,"183.csv","","null","resources/maskTrios/BBA3.jpg","null","",NA,NA,NA,NA,""
"image-keyboard-response",304,232315,"0.0-3.97-2.97","j9uqnx5taw49pbl",748,"183.csv","","null","resources/images/coin2.png","null","",NA,NA,NA,NA,""
"image-keyboard-response",305,232643,"0.0-3.98-0.98","j9uqnx5taw49pbl",748,"183.csv","","326.19999998807907","resources/trios/L1T1A3.jpg","37","restless",0.6,0.6,0.3,0.454630496601262,"true"
"image-keyboard-response",306,233047,"0.0-3.98-1.98","j9uqnx5taw49pbl",748,"183.csv","","null","resources/maskTrios/L1BB.jpg","null","",NA,NA,NA,NA,""
"image-keyboard-response",307,234253,"0.0-3.98-2.98","j9uqnx5taw49pbl",748,"183.csv","","null","resources/images/coin2.png","null","",NA,NA,NA,NA,""
"image-keyboard-response",308,234476,"0.0-3.99-0.99","j9uqnx5taw49pbl",748,"183.csv","","221.69999998807907","resources/trios/L1T1A2.jpg","39","restless",0.6,0.6,0.3,0.446499644541474,"false"
"image-keyboard-response",309,234878,"0.0-3.99-1.99","j9uqnx5taw49pbl",748,"183.csv","","null","resources/maskTrios/BBA2.jpg","null","",NA,NA,NA,NA,""
"image-keyboard-response",310,236084,"0.0-3.99-2.99","j9uqnx5taw49pbl",748,"183.csv","","null","resources/images/fishbone.png","null","",NA,NA,NA,NA,""
"image-keyboard-response",311,236091,"0.0-3.100-0.100","j9uqnx5taw49pbl",748,"183.csv","","5.899999976158142","resources/trios/L1T2A3.jpg","37","restless",0.6,0.6,0.3,0.27279642119304,"true"
"image-keyboard-response",312,236496,"0.0-3.100-1.100","j9uqnx5taw49pbl",748,"183.csv","","null","resources/maskTrios/L1BB.jpg","null","",NA,NA,NA,NA,""
"image-keyboard-response",313,237698,"0.0-3.100-2.100","j9uqnx5taw49pbl",748,"183.csv","","null","resources/images/coin2.png","null","",NA,NA,NA,NA,""
"image-keyboard-response",314,238138,"0.0-3.101-0.101","j9uqnx5taw49pbl",748,"183.csv","","438.69999998807907","resources/trios/L2T1A3.jpg","38","restless",0.6,0.6,0.3,0.47075068836901,"true"
"image-keyboard-response",315,238542,"0.0-3.101-1.101","j9uqnx5taw49pbl",748,"183.csv","","null","resources/maskTrios/BT1B.jpg","null","",NA,NA,NA,NA,""
"image-keyboard-response",316,239746,"0.0-3.101-2.101","j9uqnx5taw49pbl",748,"183.csv","","null","resources/images/coin2.png","null","",NA,NA,NA,NA,""
"image-keyboard-response",317,239756,"0.0-3.102-0.102","j9uqnx5taw49pbl",748,"183.csv","","8.800000011920929","resources/trios/L2T2A3.jpg","37","restless",0.6,0.6,0.3,0.7294940084256,"false"
"image-keyboard-response",318,240162,"0.0-3.102-1.102","j9uqnx5taw49pbl",748,"183.csv","","null","resources/maskTrios/L2BB.jpg","null","",NA,NA,NA,NA,""
"image-keyboard-response",319,241366,"0.0-3.102-2.102","j9uqnx5taw49pbl",748,"183.csv","","null","resources/images/fishbone.png","null","",NA,NA,NA,NA,""
"image-keyboard-response",320,241658,"0.0-3.103-0.103","j9uqnx5taw49pbl",748,"183.csv","","290.9000000357628","resources/trios/L1T2A3.jpg","38","restless",0.6,0.6,0.3,0.530264999693747,"true"
"image-keyboard-response",321,242064,"0.0-3.103-1.103","j9uqnx5taw49pbl",748,"183.csv","","null","resources/maskTrios/BT2B.jpg","null","",NA,NA,NA,NA,""
"image-keyboard-response",322,243270,"0.0-3.103-2.103","j9uqnx5taw49pbl",748,"183.csv","","null","resources/images/coin2.png","null","",NA,NA,NA,NA,""
"image-keyboard-response",323,243564,"0.0-3.104-0.104","j9uqnx5taw49pbl",748,"183.csv","","292.80000001192093","resources/trios/L2T2A2.jpg","39","restless",0.6,0.6,0.3,0.445439488719179,"false"
"image-keyboard-response",324,243970,"0.0-3.104-1.104","j9uqnx5taw49pbl",748,"183.csv","","null","resources/maskTrios/BBA2.jpg","null","",NA,NA,NA,NA,""
"image-keyboard-response",325,245176,"0.0-3.104-2.104","j9uqnx5taw49pbl",748,"183.csv","","null","resources/images/fishbone.png","null","",NA,NA,NA,NA,""
"image-keyboard-response",326,245408,"0.0-3.105-0.105","j9uqnx5taw49pbl",748,"183.csv","","230.69999998807907","resources/trios/L2T2A2.jpg","37","restless",0.6,0.6,0.3,0.525586764154123,"true"
"image-keyboard-response",327,245811,"0.0-3.105-1.105","j9uqnx5taw49pbl",748,"183.csv","","null","resources/maskTrios/L2BB.jpg","null","",NA,NA,NA,NA,""
"image-keyboard-response",328,247017,"0.0-3.105-2.105","j9uqnx5taw49pbl",748,"183.csv","","null","resources/images/coin2.png","null","",NA,NA,NA,NA,""
"image-keyboard-response",329,247042,"0.0-3.106-0.106","j9uqnx5taw49pbl",748,"183.csv","","23.5","resources/trios/L1T1A2.jpg","38","restless",0.6,0.6,0.3,0.0964318465234393,"true"
"image-keyboard-response",330,247444,"0.0-3.106-1.106","j9uqnx5taw49pbl",748,"183.csv","","null","resources/maskTrios/BT1B.jpg","null","",NA,NA,NA,NA,""
"image-keyboard-response",331,248649,"0.0-3.106-2.106","j9uqnx5taw49pbl",748,"183.csv","","null","resources/images/coin2.png","null","",NA,NA,NA,NA,""
"image-keyboard-response",332,248877,"0.0-3.107-0.107","j9uqnx5taw49pbl",748,"183.csv","","226.30000001192093","resources/trios/L2T2A2.jpg","39","restless",0.6,0.6,0.4,0.532454388246749,"false"
"image-keyboard-response",333,249283,"0.0-3.107-1.107","j9uqnx5taw49pbl",748,"183.csv","","null","resources/maskTrios/BBA2.jpg","null","",NA,NA,NA,NA,""
"image-keyboard-response",334,250484,"0.0-3.107-2.107","j9uqnx5taw49pbl",748,"183.csv","","null","resources/images/fishbone.png","null","",NA,NA,NA,NA,""
"image-keyboard-response",335,250842,"0.0-3.108-0.108","j9uqnx5taw49pbl",748,"183.csv","","356.4000000357628","resources/trios/L2T1A2.jpg","37","restless",0.6,0.6,0.4,0.190787475780988,"true"
"image-keyboard-response",336,251246,"0.0-3.108-1.108","j9uqnx5taw49pbl",748,"183.csv","","null","resources/maskTrios/L2BB.jpg","null","",NA,NA,NA,NA,""
"image-keyboard-response",337,252449,"0.0-3.108-2.108","j9uqnx5taw49pbl",748,"183.csv","","null","resources/images/coin2.png","null","",NA,NA,NA,NA,""
"image-keyboard-response",338,252508,"0.0-3.109-0.109","j9uqnx5taw49pbl",748,"183.csv","","57.30000001192093","resources/trios/L1T2A2.jpg","38","restless",0.6,0.6,0.4,0.411157298072539,"true"
"image-keyboard-response",339,252909,"0.0-3.109-1.109","j9uqnx5taw49pbl",748,"183.csv","","null","resources/maskTrios/BT2B.jpg","null","",NA,NA,NA,NA,""
"image-keyboard-response",340,254112,"0.0-3.109-2.109","j9uqnx5taw49pbl",748,"183.csv","","null","resources/images/coin2.png","null","",NA,NA,NA,NA,""
"image-keyboard-response",341,254169,"0.0-3.110-0.110","j9uqnx5taw49pbl",748,"183.csv","","55.30000001192093","resources/trios/L1T2A2.jpg","39","restless",0.6,0.6,0.4,0.757019467431008,"false"
"image-keyboard-response",342,254575,"0.0-3.110-1.110","j9uqnx5taw49pbl",748,"183.csv","","null","resources/maskTrios/BBA2.jpg","null","",NA,NA,NA,NA,""
"image-keyboard-response",343,255781,"0.0-3.110-2.110","j9uqnx5taw49pbl",748,"183.csv","","null","resources/images/fishbone.png","null","",NA,NA,NA,NA,""
"image-keyboard-response",344,256426,"0.0-3.111-0.111","j9uqnx5taw49pbl",748,"183.csv","","643.0999999642372","resources/trios/L1T1A2.jpg","37","restless",0.6,0.7,0.4,0.249638511586198,"true"
"image-keyboard-response",345,256830,"0.0-3.111-1.111","j9uqnx5taw49pbl",748,"183.csv","","null","resources/maskTrios/L1BB.jpg","null","",NA,NA,NA,NA,""
"image-keyboard-response",346,258036,"0.0-3.111-2.111","j9uqnx5taw49pbl",748,"183.csv","","null","resources/images/coin2.png","null","",NA,NA,NA,NA,""
"image-keyboard-response",347,259710,"0.0-3.112-0.112","j9uqnx5taw49pbl",748,"183.csv","","1672.7999999523163","resources/trios/L2T1A3.jpg","38","restless",0.6,0.7,0.4,0.70643762806051,"false"
"image-keyboard-response",348,260116,"0.0-3.112-1.112","j9uqnx5taw49pbl",748,"183.csv","","null","resources/maskTrios/BT1B.jpg","null","",NA,NA,NA,NA,""
"image-keyboard-response",349,261318,"0.0-3.112-2.112","j9uqnx5taw49pbl",748,"183.csv","","null","resources/images/fishbone.png","null","",NA,NA,NA,NA,""
"image-keyboard-response",350,262090,"0.0-3.113-0.113","j9uqnx5taw49pbl",748,"183.csv","","771","resources/trios/L2T2A2.jpg","38","restless",0.6,0.7,0.4,0.635455566378452,"true"
"image-keyboard-response",351,262492,"0.0-3.113-1.113","j9uqnx5taw49pbl",748,"183.csv","","null","resources/maskTrios/BT2B.jpg","null","",NA,NA,NA,NA,""
"image-keyboard-response",352,263697,"0.0-3.113-2.113","j9uqnx5taw49pbl",748,"183.csv","","null","resources/images/coin2.png","null","",NA,NA,NA,NA,""
"image-keyboard-response",353,264309,"0.0-3.114-0.114","j9uqnx5taw49pbl",748,"183.csv","","611.1000000238419","resources/trios/L2T1A2.jpg","37","restless",0.6,0.7,0.4,0.219485217823947,"true"
"image-keyboard-response",354,264714,"0.0-3.114-1.114","j9uqnx5taw49pbl",748,"183.csv","","null","resources/maskTrios/L2BB.jpg","null","",NA,NA,NA,NA,""
"image-keyboard-response",355,265920,"0.0-3.114-2.114","j9uqnx5taw49pbl",748,"183.csv","","null","resources/images/coin2.png","null","",NA,NA,NA,NA,""
"image-keyboard-response",356,266871,"0.0-3.115-0.115","j9uqnx5taw49pbl",748,"183.csv","","950.0999999642372","resources/trios/L1T2A3.jpg","37","restless",0.6,0.7,0.4,0.566947191860844,"true"
"image-keyboard-response",357,267277,"0.0-3.115-1.115","j9uqnx5taw49pbl",748,"183.csv","","null","resources/maskTrios/L1BB.jpg","null","",NA,NA,NA,NA,""
"image-keyboard-response",358,268480,"0.0-3.115-2.115","j9uqnx5taw49pbl",748,"183.csv","","null","resources/images/coin2.png","null","",NA,NA,NA,NA,""
"image-keyboard-response",359,269946,"0.0-3.116-0.116","j9uqnx5taw49pbl",748,"183.csv","","1464.699999988079","resources/trios/L1T1A3.jpg","38","restless",0.6,0.6,0.4,0.381322548597651,"true"
"image-keyboard-response",360,270348,"0.0-3.116-1.116","j9uqnx5taw49pbl",748,"183.csv","","null","resources/maskTrios/BT1B.jpg","null","",NA,NA,NA,NA,""
"image-keyboard-response",361,271554,"0.0-3.116-2.116","j9uqnx5taw49pbl",748,"183.csv","","null","resources/images/coin2.png","null","",NA,NA,NA,NA,""
"image-keyboard-response",362,272242,"0.0-3.117-0.117","j9uqnx5taw49pbl",748,"183.csv","","687","resources/trios/L2T2A3.jpg","38","restless",0.6,0.6,0.4,0.249009592724332,"true"
"image-keyboard-response",363,272643,"0.0-3.117-1.117","j9uqnx5taw49pbl",748,"183.csv","","null","resources/maskTrios/BT2B.jpg","null","",NA,NA,NA,NA,""
"image-keyboard-response",364,273850,"0.0-3.117-2.117","j9uqnx5taw49pbl",748,"183.csv","","null","resources/images/coin2.png","null","",NA,NA,NA,NA,""
"image-keyboard-response",365,274507,"0.0-3.118-0.118","j9uqnx5taw49pbl",748,"183.csv","","656","resources/trios/L1T2A2.jpg","37","restless",0.6,0.6,0.4,0.775551529343472,"false"
"image-keyboard-response",366,274913,"0.0-3.118-1.118","j9uqnx5taw49pbl",748,"183.csv","","null","resources/maskTrios/L1BB.jpg","null","",NA,NA,NA,NA,""
"image-keyboard-response",367,276115,"0.0-3.118-2.118","j9uqnx5taw49pbl",748,"183.csv","","null","resources/images/fishbone.png","null","",NA,NA,NA,NA,""
"image-keyboard-response",368,277134,"0.0-3.119-0.119","j9uqnx5taw49pbl",748,"183.csv","","1018.0999999642372","resources/trios/L2T2A3.jpg","37","restless",0.6,0.6,0.4,0.912607509208494,"false"
"image-keyboard-response",369,277538,"0.0-3.119-1.119","j9uqnx5taw49pbl",748,"183.csv","","null","resources/maskTrios/L2BB.jpg","null","",NA,NA,NA,NA,""
"image-keyboard-response",370,278744,"0.0-3.119-2.119","j9uqnx5taw49pbl",748,"183.csv","","null","resources/images/fishbone.png","null","",NA,NA,NA,NA,""
"image-keyboard-response",371,279493,"0.0-3.120-0.120","j9uqnx5taw49pbl",748,"183.csv","","747.5999999642372","resources/trios/L1T2A2.jpg","38","restless",0.6,0.6,0.4,0.409868913164108,"true"
"image-keyboard-response",372,279897,"0.0-3.120-1.120","j9uqnx5taw49pbl",748,"183.csv","","null","resources/maskTrios/BT2B.jpg","null","",NA,NA,NA,NA,""
"image-keyboard-response",373,281101,"0.0-3.120-2.120","j9uqnx5taw49pbl",748,"183.csv","","null","resources/images/coin2.png","null","",NA,NA,NA,NA,""
"image-keyboard-response",374,281550,"0.0-3.121-0.121","j9uqnx5taw49pbl",748,"183.csv","","448.10000002384186","resources/trios/L2T1A2.jpg","38","restless",0.6,0.6,0.4,0.0123460896757055,"true"
"image-keyboard-response",375,281957,"0.0-3.121-1.121","j9uqnx5taw49pbl",748,"183.csv","","null","resources/maskTrios/BT1B.jpg","null","",NA,NA,NA,NA,""
"image-keyboard-response",376,283163,"0.0-3.121-2.121","j9uqnx5taw49pbl",748,"183.csv","","null","resources/images/coin2.png","null","",NA,NA,NA,NA,""
"image-keyboard-response",377,283893,"0.0-3.122-0.122","j9uqnx5taw49pbl",748,"183.csv","","728.6999999880791","resources/trios/L1T2A2.jpg","38","restless",0.6,0.6,0.4,0.378578812421871,"true"
"image-keyboard-response",378,284299,"0.0-3.122-1.122","j9uqnx5taw49pbl",748,"183.csv","","null","resources/maskTrios/BT2B.jpg","null","",NA,NA,NA,NA,""
"image-keyboard-response",379,285505,"0.0-3.122-2.122","j9uqnx5taw49pbl",748,"183.csv","","null","resources/images/coin2.png","null","",NA,NA,NA,NA,""
"image-keyboard-response",380,286205,"0.0-3.123-0.123","j9uqnx5taw49pbl",748,"183.csv","","698.6000000238419","resources/trios/L1T1A2.jpg","38","restless",0.6,0.6,0.4,0.292363797711987,"true"
"image-keyboard-response",381,286611,"0.0-3.123-1.123","j9uqnx5taw49pbl",748,"183.csv","","null","resources/maskTrios/BT1B.jpg","null","",NA,NA,NA,NA,""
"image-keyboard-response",382,287818,"0.0-3.123-2.123","j9uqnx5taw49pbl",748,"183.csv","","null","resources/images/coin2.png","null","",NA,NA,NA,NA,""
"image-keyboard-response",383,288373,"0.0-3.124-0.124","j9uqnx5taw49pbl",748,"183.csv","","553.6999999880791","resources/trios/L1T2A2.jpg","38","restless",0.5,0.6,0.4,0.666887978365865,"false"
"image-keyboard-response",384,288776,"0.0-3.124-1.124","j9uqnx5taw49pbl",748,"183.csv","","null","resources/maskTrios/BT2B.jpg","null","",NA,NA,NA,NA,""
"image-keyboard-response",385,289977,"0.0-3.124-2.124","j9uqnx5taw49pbl",748,"183.csv","","null","resources/images/fishbone.png","null","",NA,NA,NA,NA,""
"image-keyboard-response",386,291622,"0.0-3.125-0.125","j9uqnx5taw49pbl",748,"183.csv","","1643.7999999523163","resources/trios/L2T2A2.jpg","37","restless",0.5,0.6,0.4,0.418911993024081,"true"
"image-keyboard-response",387,292027,"0.0-3.125-1.125","j9uqnx5taw49pbl",748,"183.csv","","null","resources/maskTrios/L2BB.jpg","null","",NA,NA,NA,NA,""
"image-keyboard-response",388,293230,"0.0-3.125-2.125","j9uqnx5taw49pbl",748,"183.csv","","null","resources/images/coin2.png","null","",NA,NA,NA,NA,""
"image-keyboard-response",389,293835,"0.0-3.126-0.126","j9uqnx5taw49pbl",748,"183.csv","","604","resources/trios/L2T2A2.jpg","37","restless",0.5,0.6,0.4,0.716698823927225,"false"
"image-keyboard-response",390,294236,"0.0-3.126-1.126","j9uqnx5taw49pbl",748,"183.csv","","null","resources/maskTrios/L2BB.jpg","null","",NA,NA,NA,NA,""
"image-keyboard-response",391,295437,"0.0-3.126-2.126","j9uqnx5taw49pbl",748,"183.csv","","null","resources/images/fishbone.png","null","",NA,NA,NA,NA,""
"image-keyboard-response",392,296599,"0.0-3.127-0.127","j9uqnx5taw49pbl",748,"183.csv","","1161","resources/trios/L2T1A3.jpg","39","restless",0.4,0.6,0.4,0.845177251841476,"false"
"image-keyboard-response",393,297006,"0.0-3.127-1.127","j9uqnx5taw49pbl",748,"183.csv","","null","resources/maskTrios/BBA3.jpg","null","",NA,NA,NA,NA,""
"image-keyboard-response",394,298207,"0.0-3.127-2.127","j9uqnx5taw49pbl",748,"183.csv","","null","resources/images/fishbone.png","null","",NA,NA,NA,NA,""
"image-keyboard-response",395,299047,"0.0-3.128-0.128","j9uqnx5taw49pbl",748,"183.csv","","838.6999999880791","resources/trios/L2T2A2.jpg","38","restless",0.4,0.6,0.4,0.187876738677364,"true"
"image-keyboard-response",396,299452,"0.0-3.128-1.128","j9uqnx5taw49pbl",748,"183.csv","","null","resources/maskTrios/BT2B.jpg","null","",NA,NA,NA,NA,""
"image-keyboard-response",397,300654,"0.0-3.128-2.128","j9uqnx5taw49pbl",748,"183.csv","","null","resources/images/coin2.png","null","",NA,NA,NA,NA,""
"image-keyboard-response",398,301267,"0.0-3.129-0.129","j9uqnx5taw49pbl",748,"183.csv","","611.3000000119209","resources/trios/L2T1A3.jpg","37","restless",0.4,0.6,0.4,0.730398093058122,"false"
"image-keyboard-response",399,301670,"0.0-3.129-1.129","j9uqnx5taw49pbl",748,"183.csv","","null","resources/maskTrios/L2BB.jpg","null","",NA,NA,NA,NA,""
"image-keyboard-response",400,302871,"0.0-3.129-2.129","j9uqnx5taw49pbl",748,"183.csv","","null","resources/images/fishbone.png","null","",NA,NA,NA,NA,""
"image-keyboard-response",401,303373,"0.0-3.130-0.130","j9uqnx5taw49pbl",748,"183.csv","","500.10000002384186","resources/trios/L2T1A3.jpg","38","restless",0.4,0.6,0.4,0.0562845919795227,"true"
"image-keyboard-response",402,303778,"0.0-3.130-1.130","j9uqnx5taw49pbl",748,"183.csv","","null","resources/maskTrios/BT1B.jpg","null","",NA,NA,NA,NA,""
"image-keyboard-response",403,304979,"0.0-3.130-2.130","j9uqnx5taw49pbl",748,"183.csv","","null","resources/images/coin2.png","null","",NA,NA,NA,NA,""
"image-keyboard-response",404,306199,"0.0-3.131-0.131","j9uqnx5taw49pbl",748,"183.csv","","1218.699999988079","resources/trios/L2T1A3.jpg","38","restless",0.4,0.6,0.5,0.667068173969402,"false"
"image-keyboard-response",405,306606,"0.0-3.131-1.131","j9uqnx5taw49pbl",748,"183.csv","","null","resources/maskTrios/BT1B.jpg","null","",NA,NA,NA,NA,""
"image-keyboard-response",406,307809,"0.0-3.131-2.131","j9uqnx5taw49pbl",748,"183.csv","","null","resources/images/fishbone.png","null","",NA,NA,NA,NA,""
"image-keyboard-response",407,308791,"0.0-3.132-0.132","j9uqnx5taw49pbl",748,"183.csv","","980.6000000238419","resources/trios/L2T2A3.jpg","37","restless",0.4,0.6,0.5,0.634995055051446,"false"
"image-keyboard-response",408,309197,"0.0-3.132-1.132","j9uqnx5taw49pbl",748,"183.csv","","null","resources/maskTrios/L2BB.jpg","null","",NA,NA,NA,NA,""
"image-keyboard-response",409,310403,"0.0-3.132-2.132","j9uqnx5taw49pbl",748,"183.csv","","null","resources/images/fishbone.png","null","",NA,NA,NA,NA,""
"image-keyboard-response",410,311163,"0.0-3.133-0.133","j9uqnx5taw49pbl",748,"183.csv","","758.3000000119209","resources/trios/L2T2A3.jpg","38","restless",0.4,0.6,0.5,0.951299169253554,"false"
"image-keyboard-response",411,311569,"0.0-3.133-1.133","j9uqnx5taw49pbl",748,"183.csv","","null","resources/maskTrios/BT2B.jpg","null","",NA,NA,NA,NA,""
"image-keyboard-response",412,312771,"0.0-3.133-2.133","j9uqnx5taw49pbl",748,"183.csv","","null","resources/images/fishbone.png","null","",NA,NA,NA,NA,""
"image-keyboard-response",413,314162,"0.0-3.134-0.134","j9uqnx5taw49pbl",748,"183.csv","","1389.699999988079","resources/trios/L1T2A3.jpg","37","restless",0.3,0.6,0.6,0.509688669837435,"false"
"image-keyboard-response",414,314565,"0.0-3.134-1.134","j9uqnx5taw49pbl",748,"183.csv","","null","resources/maskTrios/L1BB.jpg","null","",NA,NA,NA,NA,""
"image-keyboard-response",415,315771,"0.0-3.134-2.134","j9uqnx5taw49pbl",748,"183.csv","","null","resources/images/fishbone.png","null","",NA,NA,NA,NA,""
"image-keyboard-response",416,317628,"0.0-3.135-0.135","j9uqnx5taw49pbl",748,"183.csv","","1856.1000000238419","resources/trios/L1T2A2.jpg","37","restless",0.3,0.6,0.6,0.496609310438709,"false"
"image-keyboard-response",417,318032,"0.0-3.135-1.135","j9uqnx5taw49pbl",748,"183.csv","","null","resources/maskTrios/L1BB.jpg","null","",NA,NA,NA,NA,""
"image-keyboard-response",418,319238,"0.0-3.135-2.135","j9uqnx5taw49pbl",748,"183.csv","","null","resources/images/fishbone.png","null","",NA,NA,NA,NA,""
"image-keyboard-response",419,320482,"0.0-3.136-0.136","j9uqnx5taw49pbl",748,"183.csv","","1242.5999999642372","resources/trios/L2T2A3.jpg","37","restless",0.3,0.6,0.6,0.0761553016741967,"true"
"image-keyboard-response",420,320884,"0.0-3.136-1.136","j9uqnx5taw49pbl",748,"183.csv","","null","resources/maskTrios/L2BB.jpg","null","",NA,NA,NA,NA,""
"image-keyboard-response",421,322087,"0.0-3.136-2.136","j9uqnx5taw49pbl",748,"183.csv","","null","resources/images/coin2.png","null","",NA,NA,NA,NA,""
"image-keyboard-response",422,322940,"0.0-3.137-0.137","j9uqnx5taw49pbl",748,"183.csv","","851.3000000119209","resources/trios/L1T2A2.jpg","37","restless",0.3,0.6,0.6,0.0425950488211189,"true"
"image-keyboard-response",423,323344,"0.0-3.137-1.137","j9uqnx5taw49pbl",748,"183.csv","","null","resources/maskTrios/L1BB.jpg","null","",NA,NA,NA,NA,""
"image-keyboard-response",424,324551,"0.0-3.137-2.137","j9uqnx5taw49pbl",748,"183.csv","","null","resources/images/coin2.png","null","",NA,NA,NA,NA,""
"image-keyboard-response",425,325766,"0.0-3.138-0.138","j9uqnx5taw49pbl",748,"183.csv","","1213.300000011921","resources/trios/L2T2A3.jpg","37","restless",0.3,0.6,0.6,0.141590683608489,"true"
"image-keyboard-response",426,326170,"0.0-3.138-1.138","j9uqnx5taw49pbl",748,"183.csv","","null","resources/maskTrios/L2BB.jpg","null","",NA,NA,NA,NA,""
"image-keyboard-response",427,327375,"0.0-3.138-2.138","j9uqnx5taw49pbl",748,"183.csv","","null","resources/images/coin2.png","null","",NA,NA,NA,NA,""
"image-keyboard-response",428,328311,"0.0-3.139-0.139","j9uqnx5taw49pbl",748,"183.csv","","934.5","resources/trios/L1T1A3.jpg","37","restless",0.3,0.6,0.6,0.825769620644727,"false"
"image-keyboard-response",429,328715,"0.0-3.139-1.139","j9uqnx5taw49pbl",748,"183.csv","","null","resources/maskTrios/L1BB.jpg","null","",NA,NA,NA,NA,""
"image-keyboard-response",430,329922,"0.0-3.139-2.139","j9uqnx5taw49pbl",748,"183.csv","","null","resources/images/fishbone.png","null","",NA,NA,NA,NA,""
"image-keyboard-response",431,330480,"0.0-3.140-0.140","j9uqnx5taw49pbl",748,"183.csv","","556.7000000476837","resources/trios/L1T2A3.jpg","38","restless",0.3,0.6,0.6,0.684748814738372,"false"
"image-keyboard-response",432,330881,"0.0-3.140-1.140","j9uqnx5taw49pbl",748,"183.csv","","null","resources/maskTrios/BT2B.jpg","null","",NA,NA,NA,NA,""
"image-keyboard-response",433,332083,"0.0-3.140-2.140","j9uqnx5taw49pbl",748,"183.csv","","null","resources/images/fishbone.png","null","",NA,NA,NA,NA,""
"image-keyboard-response",434,332745,"0.0-3.141-0.141","j9uqnx5taw49pbl",748,"183.csv","","661.5","resources/trios/L2T1A2.jpg","38","restless",0.3,0.6,0.6,0.813513697581173,"false"
"image-keyboard-response",435,333151,"0.0-3.141-1.141","j9uqnx5taw49pbl",748,"183.csv","","null","resources/maskTrios/BT1B.jpg","null","",NA,NA,NA,NA,""
"image-keyboard-response",436,334356,"0.0-3.141-2.141","j9uqnx5taw49pbl",748,"183.csv","","null","resources/images/fishbone.png","null","",NA,NA,NA,NA,""
"image-keyboard-response",437,334652,"0.0-3.142-0.142","j9uqnx5taw49pbl",748,"183.csv","","295","resources/trios/L2T2A3.jpg","37","restless",0.3,0.6,0.6,0.456231614704382,"false"
"image-keyboard-response",438,335057,"0.0-3.142-1.142","j9uqnx5taw49pbl",748,"183.csv","","null","resources/maskTrios/L2BB.jpg","null","",NA,NA,NA,NA,""
"image-keyboard-response",439,336259,"0.0-3.142-2.142","j9uqnx5taw49pbl",748,"183.csv","","null","resources/images/fishbone.png","null","",NA,NA,NA,NA,""
"image-keyboard-response",440,336608,"0.0-3.143-0.143","j9uqnx5taw49pbl",748,"183.csv","","347.5999999642372","resources/trios/L1T1A2.jpg","37","restless",0.3,0.6,0.6,0.967393145111396,"false"
"image-keyboard-response",441,337012,"0.0-3.143-1.143","j9uqnx5taw49pbl",748,"183.csv","","null","resources/maskTrios/L1BB.jpg","null","",NA,NA,NA,NA,""
"image-keyboard-response",442,338219,"0.0-3.143-2.143","j9uqnx5taw49pbl",748,"183.csv","","null","resources/images/fishbone.png","null","",NA,NA,NA,NA,""
"image-keyboard-response",443,338299,"0.0-3.144-0.144","j9uqnx5taw49pbl",748,"183.csv","","79.19999998807907","resources/trios/L2T2A3.jpg","39","restless",0.4,0.6,0.6,0.938890166411619,"false"
"image-keyboard-response",444,338704,"0.0-3.144-1.144","j9uqnx5taw49pbl",748,"183.csv","","null","resources/maskTrios/BBA3.jpg","null","",NA,NA,NA,NA,""
"image-keyboard-response",445,339907,"0.0-3.144-2.144","j9uqnx5taw49pbl",748,"183.csv","","null","resources/images/fishbone.png","null","",NA,NA,NA,NA,""
"image-keyboard-response",446,340194,"0.0-3.145-0.145","j9uqnx5taw49pbl",748,"183.csv","","285.9000000357628","resources/trios/L2T2A3.jpg","37","restless",0.4,0.6,0.6,0.87512916724597,"false"
"image-keyboard-response",447,340600,"0.0-3.145-1.145","j9uqnx5taw49pbl",748,"183.csv","","null","resources/maskTrios/L2BB.jpg","null","",NA,NA,NA,NA,""
"image-keyboard-response",448,341806,"0.0-3.145-2.145","j9uqnx5taw49pbl",748,"183.csv","","null","resources/images/fishbone.png","null","",NA,NA,NA,NA,""
"image-keyboard-response",449,341956,"0.0-3.146-0.146","j9uqnx5taw49pbl",748,"183.csv","","149.0999999642372","resources/trios/L2T2A3.jpg","38","restless",0.3,0.6,0.6,0.93633313335815,"false"
"image-keyboard-response",450,342360,"0.0-3.146-1.146","j9uqnx5taw49pbl",748,"183.csv","","null","resources/maskTrios/BT2B.jpg","null","",NA,NA,NA,NA,""
"image-keyboard-response",451,343567,"0.0-3.146-2.146","j9uqnx5taw49pbl",748,"183.csv","","null","resources/images/fishbone.png","null","",NA,NA,NA,NA,""
"image-keyboard-response",452,343621,"0.0-3.147-0.147","j9uqnx5taw49pbl",748,"183.csv","","53.09999996423721","resources/trios/L2T2A3.jpg","37","restless",0.3,0.6,0.5,0.748070450887006,"false"
"image-keyboard-response",453,344027,"0.0-3.147-1.147","j9uqnx5taw49pbl",748,"183.csv","","null","resources/maskTrios/L2BB.jpg","null","",NA,NA,NA,NA,""
"image-keyboard-response",454,345232,"0.0-3.147-2.147","j9uqnx5taw49pbl",748,"183.csv","","null","resources/images/fishbone.png","null","",NA,NA,NA,NA,""
"image-keyboard-response",455,345389,"0.0-3.148-0.148","j9uqnx5taw49pbl",748,"183.csv","","155.4000000357628","resources/trios/L2T2A2.jpg","39","restless",0.3,0.6,0.5,0.171036506450524,"true"
"image-keyboard-response",456,345795,"0.0-3.148-1.148","j9uqnx5taw49pbl",748,"183.csv","","null","resources/maskTrios/BBA2.jpg","null","",NA,NA,NA,NA,""
"image-keyboard-response",457,347000,"0.0-3.148-2.148","j9uqnx5taw49pbl",748,"183.csv","","null","resources/images/coin2.png","null","",NA,NA,NA,NA,""
"image-keyboard-response",458,347509,"0.0-3.149-0.149","j9uqnx5taw49pbl",748,"183.csv","","508.5999999642372","resources/trios/L2T1A3.jpg","39","restless",0.3,0.5,0.5,0.722040684873717,"false"
"image-keyboard-response",459,347910,"0.0-3.149-1.149","j9uqnx5taw49pbl",748,"183.csv","","null","resources/maskTrios/BBA3.jpg","null","",NA,NA,NA,NA,""
"image-keyboard-response",460,349113,"0.0-3.149-2.149","j9uqnx5taw49pbl",748,"183.csv","","null","resources/images/fishbone.png","null","",NA,NA,NA,NA,""
"image-keyboard-response",461,349457,"0.0-3.150-0.150","j9uqnx5taw49pbl",748,"183.csv","","342.69999998807907","resources/trios/L2T2A2.jpg","37","restless",0.3,0.4,0.5,0.936997524105505,"false"
"image-keyboard-response",462,349862,"0.0-3.150-1.150","j9uqnx5taw49pbl",748,"183.csv","","null","resources/maskTrios/L2BB.jpg","null","",NA,NA,NA,NA,""
"image-keyboard-response",463,351067,"0.0-3.150-2.150","j9uqnx5taw49pbl",748,"183.csv","","null","resources/images/fishbone.png","null","",NA,NA,NA,NA,""
"image-keyboard-response",464,351412,"0.0-3.151-0.151","j9uqnx5taw49pbl",748,"183.csv","","343.5","resources/trios/L1T1A2.jpg","39","restless",0.3,0.4,0.5,0.632337596012553,"false"
"image-keyboard-response",465,351818,"0.0-3.151-1.151","j9uqnx5taw49pbl",748,"183.csv","","null","resources/maskTrios/BBA2.jpg","null","",NA,NA,NA,NA,""
"image-keyboard-response",466,353022,"0.0-3.151-2.151","j9uqnx5taw49pbl",748,"183.csv","","null","resources/images/fishbone.png","null","",NA,NA,NA,NA,""
"image-keyboard-response",467,353470,"0.0-3.152-0.152","j9uqnx5taw49pbl",748,"183.csv","","446.69999998807907","resources/trios/L2T1A2.jpg","37","restless",0.3,0.4,0.5,0.276353955686012,"true"
"image-keyboard-response",468,353876,"0.0-3.152-1.152","j9uqnx5taw49pbl",748,"183.csv","","null","resources/maskTrios/L2BB.jpg","null","",NA,NA,NA,NA,""
"image-keyboard-response",469,355081,"0.0-3.152-2.152","j9uqnx5taw49pbl",748,"183.csv","","null","resources/images/coin2.png","null","",NA,NA,NA,NA,""
"image-keyboard-response",470,355702,"0.0-3.153-0.153","j9uqnx5taw49pbl",748,"183.csv","","619.1000000238419","resources/trios/L2T1A2.jpg","37","restless",0.3,0.4,0.5,0.521152403622752,"false"
"image-keyboard-response",471,356107,"0.0-3.153-1.153","j9uqnx5taw49pbl",748,"183.csv","","null","resources/maskTrios/L2BB.jpg","null","",NA,NA,NA,NA,""
"image-keyboard-response",472,357311,"0.0-3.153-2.153","j9uqnx5taw49pbl",748,"183.csv","","null","resources/images/fishbone.png","null","",NA,NA,NA,NA,""
"image-keyboard-response",473,358256,"0.0-3.154-0.154","j9uqnx5taw49pbl",748,"183.csv","","943.3000000119209","resources/trios/L1T1A2.jpg","37","restless",0.3,0.4,0.5,0.448523584118613,"false"
"image-keyboard-response",474,358658,"0.0-3.154-1.154","j9uqnx5taw49pbl",748,"183.csv","","null","resources/maskTrios/L1BB.jpg","null","",NA,NA,NA,NA,""
"image-keyboard-response",475,359862,"0.0-3.154-2.154","j9uqnx5taw49pbl",748,"183.csv","","null","resources/images/fishbone.png","null","",NA,NA,NA,NA,""
"image-keyboard-response",476,360466,"0.0-3.155-0.155","j9uqnx5taw49pbl",748,"183.csv","","603","resources/trios/L1T1A3.jpg","38","restless",0.3,0.4,0.6,0.108213929636421,"true"
"image-keyboard-response",477,360868,"0.0-3.155-1.155","j9uqnx5taw49pbl",748,"183.csv","","null","resources/maskTrios/BT1B.jpg","null","",NA,NA,NA,NA,""
"image-keyboard-response",478,362074,"0.0-3.155-2.155","j9uqnx5taw49pbl",748,"183.csv","","null","resources/images/coin2.png","null","",NA,NA,NA,NA,""
"image-keyboard-response",479,362448,"0.0-3.156-0.156","j9uqnx5taw49pbl",748,"183.csv","","373.2999999523163","resources/trios/L1T1A2.jpg","38","restless",0.3,0.4,0.6,0.924004739815728,"false"
"image-keyboard-response",480,362855,"0.0-3.156-1.156","j9uqnx5taw49pbl",748,"183.csv","","null","resources/maskTrios/BT1B.jpg","null","",NA,NA,NA,NA,""
"image-keyboard-response",481,364061,"0.0-3.156-2.156","j9uqnx5taw49pbl",748,"183.csv","","null","resources/images/fishbone.png","null","",NA,NA,NA,NA,""
"image-keyboard-response",482,364663,"0.0-3.157-0.157","j9uqnx5taw49pbl",748,"183.csv","","600.6999999880791","resources/trios/L1T1A3.jpg","38","restless",0.3,0.4,0.6,0.186637233451316,"true"
"image-keyboard-response",483,365069,"0.0-3.157-1.157","j9uqnx5taw49pbl",748,"183.csv","","null","resources/maskTrios/BT1B.jpg","null","",NA,NA,NA,NA,""
"image-keyboard-response",484,366272,"0.0-3.157-2.157","j9uqnx5taw49pbl",748,"183.csv","","null","resources/images/coin2.png","null","",NA,NA,NA,NA,""
"image-keyboard-response",485,366980,"0.0-3.158-0.158","j9uqnx5taw49pbl",748,"183.csv","","706.8999999761581","resources/trios/L1T2A3.jpg","37","restless",0.3,0.4,0.6,0.713233534660672,"false"
"image-keyboard-response",486,367385,"0.0-3.158-1.158","j9uqnx5taw49pbl",748,"183.csv","","null","resources/maskTrios/L1BB.jpg","null","",NA,NA,NA,NA,""
"image-keyboard-response",487,368587,"0.0-3.158-2.158","j9uqnx5taw49pbl",748,"183.csv","","null","resources/images/fishbone.png","null","",NA,NA,NA,NA,""
"image-keyboard-response",488,368677,"0.0-3.159-0.159","j9uqnx5taw49pbl",748,"183.csv","","88.80000001192093","resources/trios/L1T1A2.jpg","38","restless",0.3,0.4,0.6,0.430657465662082,"false"
"image-keyboard-response",489,369079,"0.0-3.159-1.159","j9uqnx5taw49pbl",748,"183.csv","","null","resources/maskTrios/BT1B.jpg","null","",NA,NA,NA,NA,""
"image-keyboard-response",490,370282,"0.0-3.159-2.159","j9uqnx5taw49pbl",748,"183.csv","","null","resources/images/fishbone.png","null","",NA,NA,NA,NA,""
"image-keyboard-response",491,370305,"0.0-3.160-0.160","j9uqnx5taw49pbl",748,"183.csv","","22","resources/trios/L2T1A3.jpg","38","restless",0.4,0.4,0.6,0.385086878595355,"true"
"image-keyboard-response",492,370711,"0.0-3.160-1.160","j9uqnx5taw49pbl",748,"183.csv","","null","resources/maskTrios/BT1B.jpg","null","",NA,NA,NA,NA,""
"image-keyboard-response",493,371915,"0.0-3.160-2.160","j9uqnx5taw49pbl",748,"183.csv","","null","resources/images/coin2.png","null","",NA,NA,NA,NA,""
"image-keyboard-response",494,371929,"0.0-3.161-0.161","j9uqnx5taw49pbl",748,"183.csv","","13.599999964237213","resources/trios/L2T1A2.jpg","38","restless",0.4,0.4,0.6,0.382611390820136,"true"
"image-keyboard-response",495,372331,"0.0-3.161-1.161","j9uqnx5taw49pbl",748,"183.csv","","null","resources/maskTrios/BT1B.jpg","null","",NA,NA,NA,NA,""
"image-keyboard-response",496,373536,"0.0-3.161-2.161","j9uqnx5taw49pbl",748,"183.csv","","null","resources/images/coin2.png","null","",NA,NA,NA,NA,""
"image-keyboard-response",497,373634,"0.0-3.162-0.162","j9uqnx5taw49pbl",748,"183.csv","","96.70000004768372","resources/trios/L1T1A2.jpg","38","restless",0.4,0.4,0.6,0.421656427716932,"false"
"image-keyboard-response",498,374040,"0.0-3.162-1.162","j9uqnx5taw49pbl",748,"183.csv","","null","resources/maskTrios/BT1B.jpg","null","",NA,NA,NA,NA,""
"image-keyboard-response",499,375241,"0.0-3.162-2.162","j9uqnx5taw49pbl",748,"183.csv","","null","resources/images/fishbone.png","null","",NA,NA,NA,NA,""
"image-keyboard-response",500,375465,"0.0-3.163-0.163","j9uqnx5taw49pbl",748,"183.csv","","222.30000001192093","resources/trios/L2T2A3.jpg","38","restless",0.4,0.4,0.6,0.868636872406081,"false"
"image-keyboard-response",501,375870,"0.0-3.163-1.163","j9uqnx5taw49pbl",748,"183.csv","","null","resources/maskTrios/BT2B.jpg","null","",NA,NA,NA,NA,""
"image-keyboard-response",502,377077,"0.0-3.163-2.163","j9uqnx5taw49pbl",748,"183.csv","","null","resources/images/fishbone.png","null","",NA,NA,NA,NA,""
"image-keyboard-response",503,377232,"0.0-3.164-0.164","j9uqnx5taw49pbl",748,"183.csv","","154.0999999642372","resources/trios/L2T2A2.jpg","38","restless",0.4,0.4,0.6,0.941571417767162,"false"
"image-keyboard-response",504,377634,"0.0-3.164-1.164","j9uqnx5taw49pbl",748,"183.csv","","null","resources/maskTrios/BT2B.jpg","null","",NA,NA,NA,NA,""
"image-keyboard-response",505,378841,"0.0-3.164-2.164","j9uqnx5taw49pbl",748,"183.csv","","null","resources/images/fishbone.png","null","",NA,NA,NA,NA,""
"image-keyboard-response",506,378912,"0.0-3.165-0.165","j9uqnx5taw49pbl",748,"183.csv","","69.89999997615814","resources/trios/L1T2A2.jpg","38","restless",0.4,0.4,0.6,0.378962952609441,"true"
"image-keyboard-response",507,379318,"0.0-3.165-1.165","j9uqnx5taw49pbl",748,"183.csv","","null","resources/maskTrios/BT2B.jpg","null","",NA,NA,NA,NA,""
"image-keyboard-response",508,380520,"0.0-3.165-2.165","j9uqnx5taw49pbl",748,"183.csv","","null","resources/images/coin2.png","null","",NA,NA,NA,NA,""
"image-keyboard-response",509,380797,"0.0-3.166-0.166","j9uqnx5taw49pbl",748,"183.csv","","275.30000001192093","resources/trios/L2T1A3.jpg","37","restless",0.4,0.4,0.6,0.102173644003719,"true"
"image-keyboard-response",510,381199,"0.0-3.166-1.166","j9uqnx5taw49pbl",748,"183.csv","","null","resources/maskTrios/L2BB.jpg","null","",NA,NA,NA,NA,""
"image-keyboard-response",511,382403,"0.0-3.166-2.166","j9uqnx5taw49pbl",748,"183.csv","","null","resources/images/coin2.png","null","",NA,NA,NA,NA,""
"image-keyboard-response",512,382670,"0.0-3.167-0.167","j9uqnx5taw49pbl",748,"183.csv","","265.2999999523163","resources/trios/L1T2A3.jpg","37","restless",0.4,0.3,0.6,0.805096960176761,"false"
"image-keyboard-response",513,383076,"0.0-3.167-1.167","j9uqnx5taw49pbl",748,"183.csv","","null","resources/maskTrios/L1BB.jpg","null","",NA,NA,NA,NA,""
"image-keyboard-response",514,384281,"0.0-3.167-2.167","j9uqnx5taw49pbl",748,"183.csv","","null","resources/images/fishbone.png","null","",NA,NA,NA,NA,""
"image-keyboard-response",515,384541,"0.0-3.168-0.168","j9uqnx5taw49pbl",748,"183.csv","","258.39999997615814","resources/trios/L2T2A2.jpg","37","restless",0.4,0.3,0.6,0.71942207681417,"false"
"image-keyboard-response",516,384947,"0.0-3.168-1.168","j9uqnx5taw49pbl",748,"183.csv","","null","resources/maskTrios/L2BB.jpg","null","",NA,NA,NA,NA,""
"image-keyboard-response",517,386153,"0.0-3.168-2.168","j9uqnx5taw49pbl",748,"183.csv","","null","resources/images/fishbone.png","null","",NA,NA,NA,NA,""
"image-keyboard-response",518,386376,"0.0-3.169-0.169","j9uqnx5taw49pbl",748,"183.csv","","221.5","resources/trios/L1T2A3.jpg","37","restless",0.4,0.3,0.6,0.109834987116256,"true"
"image-keyboard-response",519,386780,"0.0-3.169-1.169","j9uqnx5taw49pbl",748,"183.csv","","null","resources/maskTrios/L1BB.jpg","null","",NA,NA,NA,NA,""
"image-keyboard-response",520,387981,"0.0-3.169-2.169","j9uqnx5taw49pbl",748,"183.csv","","null","resources/images/coin2.png","null","",NA,NA,NA,NA,""
"image-keyboard-response",521,388008,"0.0-3.170-0.170","j9uqnx5taw49pbl",748,"183.csv","","25.799999952316284","resources/trios/L2T1A2.jpg","37","restless",0.4,0.3,0.6,0.533775265023284,"false"
"image-keyboard-response",522,388414,"0.0-3.170-1.170","j9uqnx5taw49pbl",748,"183.csv","","null","resources/maskTrios/L2BB.jpg","null","",NA,NA,NA,NA,""
"image-keyboard-response",523,389616,"0.0-3.170-2.170","j9uqnx5taw49pbl",748,"183.csv","","null","resources/images/fishbone.png","null","",NA,NA,NA,NA,""
"image-keyboard-response",524,389740,"0.0-3.171-0.171","j9uqnx5taw49pbl",748,"183.csv","","122.40000003576279","resources/trios/L1T1A3.jpg","39","restless",0.5,0.3,0.6,0.831351406173168,"false"
"image-keyboard-response",525,390144,"0.0-3.171-1.171","j9uqnx5taw49pbl",748,"183.csv","","null","resources/maskTrios/BBA3.jpg","null","",NA,NA,NA,NA,""
"image-keyboard-response",526,391347,"0.0-3.171-2.171","j9uqnx5taw49pbl",748,"183.csv","","null","resources/images/fishbone.png","null","",NA,NA,NA,NA,""
"image-keyboard-response",527,391622,"0.0-3.172-0.172","j9uqnx5taw49pbl",748,"183.csv","","274.19999998807907","resources/trios/L1T1A2.jpg","39","restless",0.5,0.3,0.6,0.722664239988422,"false"
"image-keyboard-response",528,392029,"0.0-3.172-1.172","j9uqnx5taw49pbl",748,"183.csv","","null","resources/maskTrios/BBA2.jpg","null","",NA,NA,NA,NA,""
"image-keyboard-response",529,393235,"0.0-3.172-2.172","j9uqnx5taw49pbl",748,"183.csv","","null","resources/images/fishbone.png","null","",NA,NA,NA,NA,""
"image-keyboard-response",530,393400,"0.0-3.173-0.173","j9uqnx5taw49pbl",748,"183.csv","","164.4000000357628","resources/trios/L1T1A2.jpg","39","restless",0.5,0.3,0.6,0.626119662501408,"false"
"image-keyboard-response",531,393805,"0.0-3.173-1.173","j9uqnx5taw49pbl",748,"183.csv","","null","resources/maskTrios/BBA2.jpg","null","",NA,NA,NA,NA,""
"image-keyboard-response",532,395008,"0.0-3.173-2.173","j9uqnx5taw49pbl",748,"183.csv","","null","resources/images/fishbone.png","null","",NA,NA,NA,NA,""
"image-keyboard-response",533,395233,"0.0-3.174-0.174","j9uqnx5taw49pbl",748,"183.csv","","223.70000004768372","resources/trios/L1T2A3.jpg","39","restless",0.5,0.3,0.6,0.808725998720581,"false"
"image-keyboard-response",534,395634,"0.0-3.174-1.174","j9uqnx5taw49pbl",748,"183.csv","","null","resources/maskTrios/BBA3.jpg","null","",NA,NA,NA,NA,""
"image-keyboard-response",535,396836,"0.0-3.174-2.174","j9uqnx5taw49pbl",748,"183.csv","","null","resources/images/fishbone.png","null","",NA,NA,NA,NA,""
"image-keyboard-response",536,396871,"0.0-3.175-0.175","j9uqnx5taw49pbl",748,"183.csv","","34.59999996423721","resources/trios/L2T2A3.jpg","39","restless",0.5,0.4,0.6,0.811263978507176,"false"
"image-keyboard-response",537,397275,"0.0-3.175-1.175","j9uqnx5taw49pbl",748,"183.csv","","null","resources/maskTrios/BBA3.jpg","null","",NA,NA,NA,NA,""
"image-keyboard-response",538,398481,"0.0-3.175-2.175","j9uqnx5taw49pbl",748,"183.csv","","null","resources/images/fishbone.png","null","",NA,NA,NA,NA,""
"image-keyboard-response",539,398832,"0.0-3.176-0.176","j9uqnx5taw49pbl",748,"183.csv","","349","resources/trios/L1T2A2.jpg","38","restless",0.5,0.4,0.5,0.782726304133411,"false"
"image-keyboard-response",540,399235,"0.0-3.176-1.176","j9uqnx5taw49pbl",748,"183.csv","","null","resources/maskTrios/BT2B.jpg","null","",NA,NA,NA,NA,""
"image-keyboard-response",541,400437,"0.0-3.176-2.176","j9uqnx5taw49pbl",748,"183.csv","","null","resources/images/fishbone.png","null","",NA,NA,NA,NA,""
"image-keyboard-response",542,401092,"0.0-3.177-0.177","j9uqnx5taw49pbl",748,"183.csv","","653.5","resources/trios/L2T2A2.jpg","37","restless",0.5,0.4,0.5,0.349626450702947,"true"
"image-keyboard-response",543,401495,"0.0-3.177-1.177","j9uqnx5taw49pbl",748,"183.csv","","null","resources/maskTrios/L2BB.jpg","null","",NA,NA,NA,NA,""
"image-keyboard-response",544,402702,"0.0-3.177-2.177","j9uqnx5taw49pbl",748,"183.csv","","null","resources/images/coin2.png","null","",NA,NA,NA,NA,""
"image-keyboard-response",545,403699,"0.0-3.178-0.178","j9uqnx5taw49pbl",748,"183.csv","","996.8000000119209","resources/trios/L1T1A3.jpg","37","restless",0.5,0.3,0.5,0.777355288831107,"false"
"image-keyboard-response",546,404105,"0.0-3.178-1.178","j9uqnx5taw49pbl",748,"183.csv","","null","resources/maskTrios/L1BB.jpg","null","",NA,NA,NA,NA,""
"image-keyboard-response",547,405312,"0.0-3.178-2.178","j9uqnx5taw49pbl",748,"183.csv","","null","resources/images/fishbone.png","null","",NA,NA,NA,NA,""
"image-keyboard-response",548,406623,"0.0-3.179-0.179","j9uqnx5taw49pbl",748,"183.csv","","1310.300000011921","resources/trios/L1T1A2.jpg","38","restless",0.5,0.3,0.5,0.338173266756545,"false"
"image-keyboard-response",549,407026,"0.0-3.179-1.179","j9uqnx5taw49pbl",748,"183.csv","","null","resources/maskTrios/BT1B.jpg","null","",NA,NA,NA,NA,""
"image-keyboard-response",550,408230,"0.0-3.179-2.179","j9uqnx5taw49pbl",748,"183.csv","","null","resources/images/fishbone.png","null","",NA,NA,NA,NA,""
"image-keyboard-response",551,409166,"0.0-3.180-0.180","j9uqnx5taw49pbl",748,"183.csv","","935","resources/trios/L2T2A3.jpg","37","restless",0.5,0.3,0.5,0.459232789936963,"true"
"image-keyboard-response",552,409569,"0.0-3.180-1.180","j9uqnx5taw49pbl",748,"183.csv","","null","resources/maskTrios/L2BB.jpg","null","",NA,NA,NA,NA,""
"image-keyboard-response",553,410774,"0.0-3.180-2.180","j9uqnx5taw49pbl",748,"183.csv","","null","resources/images/coin2.png","null","",NA,NA,NA,NA,""
"image-keyboard-response",554,411584,"0.0-3.181-0.181","j9uqnx5taw49pbl",748,"183.csv","","809.3000000119209","resources/trios/L1T2A3.jpg","39","restless",0.5,0.3,0.5,0.00372618066018604,"true"
"image-keyboard-response",555,411990,"0.0-3.181-1.181","j9uqnx5taw49pbl",748,"183.csv","","null","resources/maskTrios/BBA3.jpg","null","",NA,NA,NA,NA,""
"image-keyboard-response",556,413195,"0.0-3.181-2.181","j9uqnx5taw49pbl",748,"183.csv","","null","resources/images/coin2.png","null","",NA,NA,NA,NA,""
"image-keyboard-response",557,415276,"0.0-3.182-0.182","j9uqnx5taw49pbl",748,"183.csv","","2079.5","resources/trios/L1T2A2.jpg","39","restless",0.5,0.3,0.5,0.759960529032062,"false"
"image-keyboard-response",558,415682,"0.0-3.182-1.182","j9uqnx5taw49pbl",748,"183.csv","","null","resources/maskTrios/BBA2.jpg","null","",NA,NA,NA,NA,""
"image-keyboard-response",559,416887,"0.0-3.182-2.182","j9uqnx5taw49pbl",748,"183.csv","","null","resources/images/fishbone.png","null","",NA,NA,NA,NA,""
"image-keyboard-response",560,417903,"0.0-3.183-0.183","j9uqnx5taw49pbl",748,"183.csv","","1014.7000000476837","resources/trios/L2T2A2.jpg","37","restless",0.5,0.3,0.5,0.118077333581603,"true"
"image-keyboard-response",561,418308,"0.0-3.183-1.183","j9uqnx5taw49pbl",748,"183.csv","","null","resources/maskTrios/L2BB.jpg","null","",NA,NA,NA,NA,""
"image-keyboard-response",562,419512,"0.0-3.183-2.183","j9uqnx5taw49pbl",748,"183.csv","","null","resources/images/coin2.png","null","",NA,NA,NA,NA,""
"image-keyboard-response",563,421694,"0.0-3.184-0.184","j9uqnx5taw49pbl",748,"183.csv","","2180.899999976158","resources/trios/L2T1A2.jpg","38","restless",0.5,0.3,0.5,0.506839690601337,"false"
"image-keyboard-response",564,422100,"0.0-3.184-1.184","j9uqnx5taw49pbl",748,"183.csv","","null","resources/maskTrios/BT1B.jpg","null","",NA,NA,NA,NA,""
"image-keyboard-response",565,423306,"0.0-3.184-2.184","j9uqnx5taw49pbl",748,"183.csv","","null","resources/images/fishbone.png","null","",NA,NA,NA,NA,""
"image-keyboard-response",566,424077,"0.0-3.185-0.185","j9uqnx5taw49pbl",748,"183.csv","","769.6000000238419","resources/trios/L2T2A2.jpg","37","restless",0.5,0.3,0.5,0.460678015658159,"true"
"image-keyboard-response",567,424480,"0.0-3.185-1.185","j9uqnx5taw49pbl",748,"183.csv","","null","resources/maskTrios/L2BB.jpg","null","",NA,NA,NA,NA,""
"image-keyboard-response",568,425686,"0.0-3.185-2.185","j9uqnx5taw49pbl",748,"183.csv","","null","resources/images/coin2.png","null","",NA,NA,NA,NA,""
"image-keyboard-response",569,427789,"0.0-3.186-0.186","j9uqnx5taw49pbl",748,"183.csv","","2102.199999988079","resources/trios/L2T1A2.jpg","38","restless",0.5,0.3,0.5,0.24050803747822,"true"
"image-keyboard-response",570,428195,"0.0-3.186-1.186","j9uqnx5taw49pbl",748,"183.csv","","null","resources/maskTrios/BT1B.jpg","null","",NA,NA,NA,NA,""
"image-keyboard-response",571,429401,"0.0-3.186-2.186","j9uqnx5taw49pbl",748,"183.csv","","null","resources/images/coin2.png","null","",NA,NA,NA,NA,""
"image-keyboard-response",572,430415,"0.0-3.187-0.187","j9uqnx5taw49pbl",748,"183.csv","","1012.7000000476837","resources/trios/L2T1A2.jpg","38","restless",0.5,0.3,0.6,0.936644580937854,"false"
"image-keyboard-response",573,430820,"0.0-3.187-1.187","j9uqnx5taw49pbl",748,"183.csv","","null","resources/maskTrios/BT1B.jpg","null","",NA,NA,NA,NA,""
"image-keyboard-response",574,432022,"0.0-3.187-2.187","j9uqnx5taw49pbl",748,"183.csv","","null","resources/images/fishbone.png","null","",NA,NA,NA,NA,""
"image-keyboard-response",575,432596,"0.0-3.188-0.188","j9uqnx5taw49pbl",748,"183.csv","","572.8000000119209","resources/trios/L2T2A2.jpg","37","restless",0.5,0.3,0.6,0.380991357602573,"true"
"image-keyboard-response",576,433002,"0.0-3.188-1.188","j9uqnx5taw49pbl",748,"183.csv","","null","resources/maskTrios/L2BB.jpg","null","",NA,NA,NA,NA,""
"image-keyboard-response",577,434209,"0.0-3.188-2.188","j9uqnx5taw49pbl",748,"183.csv","","null","resources/images/coin2.png","null","",NA,NA,NA,NA,""
"image-keyboard-response",578,435554,"0.0-3.189-0.189","j9uqnx5taw49pbl",748,"183.csv","","1343.7000000476837","resources/trios/L2T1A2.jpg","38","restless",0.4,0.3,0.6,0.274447068325523,"true"
"image-keyboard-response",579,435955,"0.0-3.189-1.189","j9uqnx5taw49pbl",748,"183.csv","","null","resources/maskTrios/BT1B.jpg","null","",NA,NA,NA,NA,""
"image-keyboard-response",580,437160,"0.0-3.189-2.189","j9uqnx5taw49pbl",748,"183.csv","","null","resources/images/coin2.png","null","",NA,NA,NA,NA,""
"image-keyboard-response",581,438216,"0.0-3.190-0.190","j9uqnx5taw49pbl",748,"183.csv","","1055.5999999642372","resources/trios/L2T2A3.jpg","37","restless",0.4,0.3,0.6,0.837320095399835,"false"
"image-keyboard-response",582,438619,"0.0-3.190-1.190","j9uqnx5taw49pbl",748,"183.csv","","null","resources/maskTrios/L2BB.jpg","null","",NA,NA,NA,NA,""
"image-keyboard-response",583,439824,"0.0-3.190-2.190","j9uqnx5taw49pbl",748,"183.csv","","null","resources/images/fishbone.png","null","",NA,NA,NA,NA,""
"image-keyboard-response",584,440973,"0.0-3.191-0.191","j9uqnx5taw49pbl",748,"183.csv","","1147.3999999761581","resources/trios/L1T2A2.jpg","37","restless",0.4,0.4,0.6,0.271691879116067,"true"
"image-keyboard-response",585,441379,"0.0-3.191-1.191","j9uqnx5taw49pbl",748,"183.csv","","null","resources/maskTrios/L1BB.jpg","null","",NA,NA,NA,NA,""
"image-keyboard-response",586,442584,"0.0-3.191-2.191","j9uqnx5taw49pbl",748,"183.csv","","null","resources/images/coin2.png","null","",NA,NA,NA,NA,""
"image-keyboard-response",587,443071,"0.0-3.192-0.192","j9uqnx5taw49pbl",748,"183.csv","","486","resources/trios/L1T2A3.jpg","38","restless",0.4,0.4,0.7,0.189066109529166,"true"
"image-keyboard-response",588,443476,"0.0-3.192-1.192","j9uqnx5taw49pbl",748,"183.csv","","null","resources/maskTrios/BT2B.jpg","null","",NA,NA,NA,NA,""
"image-keyboard-response",589,444678,"0.0-3.192-2.192","j9uqnx5taw49pbl",748,"183.csv","","null","resources/images/coin2.png","null","",NA,NA,NA,NA,""
"image-keyboard-response",590,444985,"0.0-3.193-0.193","j9uqnx5taw49pbl",748,"183.csv","","306.0999999642372","resources/trios/L2T1A2.jpg","37","restless",0.4,0.4,0.7,0.304642390333267,"true"
"image-keyboard-response",591,445391,"0.0-3.193-1.193","j9uqnx5taw49pbl",748,"183.csv","","null","resources/maskTrios/L2BB.jpg","null","",NA,NA,NA,NA,""
"image-keyboard-response",592,446595,"0.0-3.193-2.193","j9uqnx5taw49pbl",748,"183.csv","","null","resources/images/coin2.png","null","",NA,NA,NA,NA,""
"image-keyboard-response",593,446810,"0.0-3.194-0.194","j9uqnx5taw49pbl",748,"183.csv","","213.69999998807907","resources/trios/L1T2A3.jpg","38","restless",0.4,0.4,0.7,0.102775375727095,"true"
"image-keyboard-response",594,447212,"0.0-3.194-1.194","j9uqnx5taw49pbl",748,"183.csv","","null","resources/maskTrios/BT2B.jpg","null","",NA,NA,NA,NA,""
"image-keyboard-response",595,448417,"0.0-3.194-2.194","j9uqnx5taw49pbl",748,"183.csv","","null","resources/images/coin2.png","null","",NA,NA,NA,NA,""
"image-keyboard-response",596,448713,"0.0-3.195-0.195","j9uqnx5taw49pbl",748,"183.csv","","295.5","resources/trios/L1T2A3.jpg","37","restless",0.4,0.4,0.7,0.983224622326801,"false"
"image-keyboard-response",597,449117,"0.0-3.195-1.195","j9uqnx5taw49pbl",748,"183.csv","","null","resources/maskTrios/L1BB.jpg","null","",NA,NA,NA,NA,""
"image-keyboard-response",598,450320,"0.0-3.195-2.195","j9uqnx5taw49pbl",748,"183.csv","","null","resources/images/fishbone.png","null","",NA,NA,NA,NA,""
"image-keyboard-response",599,450605,"0.0-3.196-0.196","j9uqnx5taw49pbl",748,"183.csv","","283.19999998807907","resources/trios/L2T1A3.jpg","38","restless",0.4,0.4,0.7,0.019343515746729,"true"
"image-keyboard-response",600,451007,"0.0-3.196-1.196","j9uqnx5taw49pbl",748,"183.csv","","null","resources/maskTrios/BT1B.jpg","null","",NA,NA,NA,NA,""
"image-keyboard-response",601,452211,"0.0-3.196-2.196","j9uqnx5taw49pbl",748,"183.csv","","null","resources/images/coin2.png","null","",NA,NA,NA,NA,""
"image-keyboard-response",602,452243,"0.0-3.197-0.197","j9uqnx5taw49pbl",748,"183.csv","","30.900000035762787","resources/trios/L2T2A3.jpg","37","restless",0.4,0.4,0.7,0.52192604546525,"false"
"image-keyboard-response",603,452649,"0.0-3.197-1.197","j9uqnx5taw49pbl",748,"183.csv","","null","resources/maskTrios/L2BB.jpg","null","",NA,NA,NA,NA,""
"image-keyboard-response",604,453852,"0.0-3.197-2.197","j9uqnx5taw49pbl",748,"183.csv","","null","resources/images/fishbone.png","null","",NA,NA,NA,NA,""
"image-keyboard-response",605,454160,"0.0-3.198-0.198","j9uqnx5taw49pbl",748,"183.csv","","306.19999998807907","resources/trios/L2T1A2.jpg","38","restless",0.4,0.4,0.7,0.0102956744810578,"true"
"image-keyboard-response",606,454566,"0.0-3.198-1.198","j9uqnx5taw49pbl",748,"183.csv","","null","resources/maskTrios/BT1B.jpg","null","",NA,NA,NA,NA,""
