"trial_type","trial_index","time_elapsed","internal_node_id","subject","participantCode","walkNumber","success","rt","stimulus","key_press","test_part","leftProb","midProb","rightProb","generatedNum","correct"
"pavlovia",0,1260,"0.0-0.0","71psd8v4c3a3gqp",241,"58.csv","","","","","",NA,NA,NA,NA,""
"fullscreen",1,15917,"0.0-1.0","71psd8v4c3a3gqp",241,"58.csv","true","","","","",NA,NA,NA,NA,""
"html-keyboard-response",2,38658,"0.0-2.0-0.0","71psd8v4c3a3gqp",241,"58.csv","","22739.899999976158","<p><font size='6'>Arrrgh!</p></font><p>Can you be the best pirate? Try to find lots of gold! But beware, some islands have more gold than others, and over time, the island with the most gold may change. Can YOU figure it out? </p><font size='6'>GOOD LUCK, CAPTAIN!!!</font><p>Press any key to begin</p>","32","",NA,NA,NA,NA,""
"image-keyboard-response",3,41667,"0.0-2.0-1.0","71psd8v4c3a3gqp",241,"58.csv","","null","resources/image_sets/111.png","null","",NA,NA,NA,NA,""
"image-keyboard-response",4,45847,"0.0-2.0-2.0","71psd8v4c3a3gqp",241,"58.csv","","4179.4000000059605","resources/image_sets/left_highlight.png","37","",NA,NA,NA,NA,""
"image-keyboard-response",5,49318,"0.0-2.0-3.0","71psd8v4c3a3gqp",241,"58.csv","","3470","resources/image_sets/mid_highlight.png","38","",NA,NA,NA,NA,""
"image-keyboard-response",6,53004,"0.0-2.0-4.0","71psd8v4c3a3gqp",241,"58.csv","","3684.7000000178814","resources/image_sets/right_highlight.png","39","",NA,NA,NA,NA,""
"image-keyboard-response",7,61584,"0.0-2.0-5.0","71psd8v4c3a3gqp",241,"58.csv","","8579.699999988079","resources/image_sets/111.png","13","",NA,NA,NA,NA,""
"image-keyboard-response",8,65113,"0.0-2.0-6.0","71psd8v4c3a3gqp",241,"58.csv","","3528.2000000178814","resources/images/coin2.png","13","",NA,NA,NA,NA,""
"image-keyboard-response",9,67543,"0.0-2.0-7.0","71psd8v4c3a3gqp",241,"58.csv","","2429.300000011921","resources/images/fishbone.png","13","",NA,NA,NA,NA,""
"html-keyboard-response",10,74198,"0.0-2.0-8.0","71psd8v4c3a3gqp",241,"58.csv","","6655.5999999940395","<p>Your first journey will be a long one, but you will get a well deserved break at the end</p><p>After the break you will have four more journeys, but each will be much shorter than the first, and you will have breaks in between each</p><p>Press Enter to begin</p>","13","",NA,NA,NA,NA,""
"image-keyboard-response",11,75475,"0.0-3.0-0.0","71psd8v4c3a3gqp",241,"58.csv","","1275","resources/trios/L2T1A3.jpg","37","restless",0.9,0.7,0.3,0.0867670322485132,"true"
"image-keyboard-response",12,75882,"0.0-3.0-1.0","71psd8v4c3a3gqp",241,"58.csv","","null","resources/maskTrios/L2BB.jpg","null","",NA,NA,NA,NA,""
"image-keyboard-response",13,77090,"0.0-3.0-2.0","71psd8v4c3a3gqp",241,"58.csv","","null","resources/images/coin2.png","null","",NA,NA,NA,NA,""
"image-keyboard-response",14,77881,"0.0-3.1-0.1","71psd8v4c3a3gqp",241,"58.csv","","789.3999999761581","resources/trios/L2T1A3.jpg","37","restless",0.9,0.7,0.3,0.0553926049777629,"true"
"image-keyboard-response",15,78290,"0.0-3.1-1.1","71psd8v4c3a3gqp",241,"58.csv","","null","resources/maskTrios/L2BB.jpg","null","",NA,NA,NA,NA,""
"image-keyboard-response",16,79498,"0.0-3.1-2.1","71psd8v4c3a3gqp",241,"58.csv","","null","resources/images/coin2.png","null","",NA,NA,NA,NA,""
"image-keyboard-response",17,80291,"0.0-3.2-0.2","71psd8v4c3a3gqp",241,"58.csv","","791.1999999880791","resources/trios/L2T2A1.jpg","37","restless",0.8,0.7,0.3,0.926085988961345,"false"
"image-keyboard-response",18,80698,"0.0-3.2-1.2","71psd8v4c3a3gqp",241,"58.csv","","null","resources/maskTrios/L2BB.jpg","null","",NA,NA,NA,NA,""
"image-keyboard-response",19,81907,"0.0-3.2-2.2","71psd8v4c3a3gqp",241,"58.csv","","null","resources/images/fishbone.png","null","",NA,NA,NA,NA,""
"image-keyboard-response",20,83328,"0.0-3.3-0.3","71psd8v4c3a3gqp",241,"58.csv","","1419.3999999761581","resources/trios/L2T1A3.jpg","37","restless",0.8,0.7,0.3,0.442286774322115,"true"
"image-keyboard-response",21,83740,"0.0-3.3-1.3","71psd8v4c3a3gqp",241,"58.csv","","null","resources/maskTrios/L2BB.jpg","null","",NA,NA,NA,NA,""
"image-keyboard-response",22,84948,"0.0-3.3-2.3","71psd8v4c3a3gqp",241,"58.csv","","null","resources/images/coin2.png","null","",NA,NA,NA,NA,""
"image-keyboard-response",23,85667,"0.0-3.4-0.4","71psd8v4c3a3gqp",241,"58.csv","","717.5","resources/trios/L2T1A1.jpg","37","restless",0.8,0.7,0.3,0.965482765085314,"false"
"image-keyboard-response",24,86074,"0.0-3.4-1.4","71psd8v4c3a3gqp",241,"58.csv","","null","resources/maskTrios/L2BB.jpg","null","",NA,NA,NA,NA,""
"image-keyboard-response",25,87281,"0.0-3.4-2.4","71psd8v4c3a3gqp",241,"58.csv","","null","resources/images/fishbone.png","null","",NA,NA,NA,NA,""
"image-keyboard-response",26,88922,"0.0-3.5-0.5","71psd8v4c3a3gqp",241,"58.csv","","1639.9000000059605","resources/trios/L2T1A3.jpg","37","restless",0.8,0.7,0.3,0.709935380360965,"true"
"image-keyboard-response",27,89332,"0.0-3.5-1.5","71psd8v4c3a3gqp",241,"58.csv","","null","resources/maskTrios/L2BB.jpg","null","",NA,NA,NA,NA,""
"image-keyboard-response",28,90540,"0.0-3.5-2.5","71psd8v4c3a3gqp",241,"58.csv","","null","resources/images/coin2.png","null","",NA,NA,NA,NA,""
"image-keyboard-response",29,92112,"0.0-3.6-0.6","71psd8v4c3a3gqp",241,"58.csv","","1571.0999999940395","resources/trios/L2T2A3.jpg","38","restless",0.8,0.7,0.3,0.767644041866623,"false"
"image-keyboard-response",30,92523,"0.0-3.6-1.6","71psd8v4c3a3gqp",241,"58.csv","","null","resources/maskTrios/BT2B.jpg","null","",NA,NA,NA,NA,""
"image-keyboard-response",31,93732,"0.0-3.6-2.6","71psd8v4c3a3gqp",241,"58.csv","","null","resources/images/fishbone.png","null","",NA,NA,NA,NA,""
"image-keyboard-response",32,94536,"0.0-3.7-0.7","71psd8v4c3a3gqp",241,"58.csv","","803.3999999761581","resources/trios/L2T1A1.jpg","37","restless",0.8,0.7,0.3,0.0680350286484208,"true"
"image-keyboard-response",33,94948,"0.0-3.7-1.7","71psd8v4c3a3gqp",241,"58.csv","","null","resources/maskTrios/L2BB.jpg","null","",NA,NA,NA,NA,""
"image-keyboard-response",34,96152,"0.0-3.7-2.7","71psd8v4c3a3gqp",241,"58.csv","","null","resources/images/coin2.png","null","",NA,NA,NA,NA,""
"image-keyboard-response",35,98169,"0.0-3.8-0.8","71psd8v4c3a3gqp",241,"58.csv","","2016.300000011921","resources/trios/L2T2A1.jpg","39","restless",0.8,0.7,0.3,0.875495716510015,"false"
"image-keyboard-response",36,98577,"0.0-3.8-1.8","71psd8v4c3a3gqp",241,"58.csv","","null","resources/maskTrios/BBA1.jpg","null","",NA,NA,NA,NA,""
"image-keyboard-response",37,99785,"0.0-3.8-2.8","71psd8v4c3a3gqp",241,"58.csv","","null","resources/images/fishbone.png","null","",NA,NA,NA,NA,""
"image-keyboard-response",38,101464,"0.0-3.9-0.9","71psd8v4c3a3gqp",241,"58.csv","","1676.4000000059605","resources/trios/L1T1A3.jpg","39","restless",0.7,0.7,0.2,0.67394888444466,"false"
"image-keyboard-response",39,101874,"0.0-3.9-1.9","71psd8v4c3a3gqp",241,"58.csv","","null","resources/maskTrios/BBA3.jpg","null","",NA,NA,NA,NA,""
"image-keyboard-response",40,103081,"0.0-3.9-2.9","71psd8v4c3a3gqp",241,"58.csv","","null","resources/images/fishbone.png","null","",NA,NA,NA,NA,""
"image-keyboard-response",41,103716,"0.0-3.10-0.10","71psd8v4c3a3gqp",241,"58.csv","","633.5999999940395","resources/trios/L2T2A3.jpg","37","restless",0.7,0.7,0.2,0.165800577177847,"true"
"image-keyboard-response",42,104124,"0.0-3.10-1.10","71psd8v4c3a3gqp",241,"58.csv","","null","resources/maskTrios/L2BB.jpg","null","",NA,NA,NA,NA,""
"image-keyboard-response",43,105331,"0.0-3.10-2.10","71psd8v4c3a3gqp",241,"58.csv","","null","resources/images/coin2.png","null","",NA,NA,NA,NA,""
"image-keyboard-response",44,106597,"0.0-3.11-0.11","71psd8v4c3a3gqp",241,"58.csv","","1263.9000000059605","resources/trios/L1T1A1.jpg","37","restless",0.7,0.7,0.2,0.0476912706226569,"true"
"image-keyboard-response",45,107000,"0.0-3.11-1.11","71psd8v4c3a3gqp",241,"58.csv","","null","resources/maskTrios/L1BB.jpg","null","",NA,NA,NA,NA,""
"image-keyboard-response",46,108207,"0.0-3.11-2.11","71psd8v4c3a3gqp",241,"58.csv","","null","resources/images/coin2.png","null","",NA,NA,NA,NA,""
"image-keyboard-response",47,109848,"0.0-3.12-0.12","71psd8v4c3a3gqp",241,"58.csv","","1640.5","resources/trios/L1T1A3.jpg","37","restless",0.7,0.6,0.2,0.566171502911368,"true"
"image-keyboard-response",48,110257,"0.0-3.12-1.12","71psd8v4c3a3gqp",241,"58.csv","","null","resources/maskTrios/L1BB.jpg","null","",NA,NA,NA,NA,""
"image-keyboard-response",49,111465,"0.0-3.12-2.12","71psd8v4c3a3gqp",241,"58.csv","","null","resources/images/coin2.png","null","",NA,NA,NA,NA,""
"image-keyboard-response",50,112211,"0.0-3.13-0.13","71psd8v4c3a3gqp",241,"58.csv","","745.5999999940395","resources/trios/L1T1A3.jpg","37","restless",0.7,0.6,0.2,0.187398778383316,"true"
"image-keyboard-response",51,112615,"0.0-3.13-1.13","71psd8v4c3a3gqp",241,"58.csv","","null","resources/maskTrios/L1BB.jpg","null","",NA,NA,NA,NA,""
"image-keyboard-response",52,113823,"0.0-3.13-2.13","71psd8v4c3a3gqp",241,"58.csv","","null","resources/images/coin2.png","null","",NA,NA,NA,NA,""
"image-keyboard-response",53,114478,"0.0-3.14-0.14","71psd8v4c3a3gqp",241,"58.csv","","652.9000000059605","resources/trios/L2T1A3.jpg","37","restless",0.7,0.6,0.2,0.977597247458817,"false"
"image-keyboard-response",54,114890,"0.0-3.14-1.14","71psd8v4c3a3gqp",241,"58.csv","","null","resources/maskTrios/L2BB.jpg","null","",NA,NA,NA,NA,""
"image-keyboard-response",55,116098,"0.0-3.14-2.14","71psd8v4c3a3gqp",241,"58.csv","","null","resources/images/fishbone.png","null","",NA,NA,NA,NA,""
"image-keyboard-response",56,117868,"0.0-3.15-0.15","71psd8v4c3a3gqp",241,"58.csv","","1768.9000000059605","resources/trios/L2T2A1.jpg","37","restless",0.7,0.6,0.2,0.173523480536684,"true"
"image-keyboard-response",57,118273,"0.0-3.15-1.15","71psd8v4c3a3gqp",241,"58.csv","","null","resources/maskTrios/L2BB.jpg","null","",NA,NA,NA,NA,""
"image-keyboard-response",58,119481,"0.0-3.15-2.15","71psd8v4c3a3gqp",241,"58.csv","","null","resources/images/coin2.png","null","",NA,NA,NA,NA,""
"image-keyboard-response",59,120175,"0.0-3.16-0.16","71psd8v4c3a3gqp",241,"58.csv","","692.1999999880791","resources/trios/L2T2A3.jpg","37","restless",0.7,0.6,0.2,0.504815715616369,"true"
"image-keyboard-response",60,120587,"0.0-3.16-1.16","71psd8v4c3a3gqp",241,"58.csv","","null","resources/maskTrios/L2BB.jpg","null","",NA,NA,NA,NA,""
"image-keyboard-response",61,121790,"0.0-3.16-2.16","71psd8v4c3a3gqp",241,"58.csv","","null","resources/images/coin2.png","null","",NA,NA,NA,NA,""
"image-keyboard-response",62,123670,"0.0-3.17-0.17","71psd8v4c3a3gqp",241,"58.csv","","1878.7000000178814","resources/trios/L1T1A3.jpg","37","restless",0.6,0.6,0.2,0.987185138391751,"false"
"image-keyboard-response",63,124081,"0.0-3.17-1.17","71psd8v4c3a3gqp",241,"58.csv","","null","resources/maskTrios/L1BB.jpg","null","",NA,NA,NA,NA,""
"image-keyboard-response",64,125290,"0.0-3.17-2.17","71psd8v4c3a3gqp",241,"58.csv","","null","resources/images/fishbone.png","null","",NA,NA,NA,NA,""
"image-keyboard-response",65,126135,"0.0-3.18-0.18","71psd8v4c3a3gqp",241,"58.csv","","843.5999999940395","resources/trios/L2T1A1.jpg","37","restless",0.6,0.6,0.2,0.227911130233474,"true"
"image-keyboard-response",66,126543,"0.0-3.18-1.18","71psd8v4c3a3gqp",241,"58.csv","","null","resources/maskTrios/L2BB.jpg","null","",NA,NA,NA,NA,""
"image-keyboard-response",67,127751,"0.0-3.18-2.18","71psd8v4c3a3gqp",241,"58.csv","","null","resources/images/coin2.png","null","",NA,NA,NA,NA,""
"image-keyboard-response",68,128358,"0.0-3.19-0.19","71psd8v4c3a3gqp",241,"58.csv","","605.5999999940395","resources/trios/L1T1A3.jpg","37","restless",0.6,0.6,0.2,0.674913864062559,"false"
"image-keyboard-response",69,128766,"0.0-3.19-1.19","71psd8v4c3a3gqp",241,"58.csv","","null","resources/maskTrios/L1BB.jpg","null","",NA,NA,NA,NA,""
"image-keyboard-response",70,129976,"0.0-3.19-2.19","71psd8v4c3a3gqp",241,"58.csv","","null","resources/images/fishbone.png","null","",NA,NA,NA,NA,""
"image-keyboard-response",71,131987,"0.0-3.20-0.20","71psd8v4c3a3gqp",241,"58.csv","","2011","resources/trios/L1T2A1.jpg","37","restless",0.6,0.6,0.3,0.987469151115171,"false"
"image-keyboard-response",72,132390,"0.0-3.20-1.20","71psd8v4c3a3gqp",241,"58.csv","","null","resources/maskTrios/L1BB.jpg","null","",NA,NA,NA,NA,""
"image-keyboard-response",73,133598,"0.0-3.20-2.20","71psd8v4c3a3gqp",241,"58.csv","","null","resources/images/fishbone.png","null","",NA,NA,NA,NA,""
"image-keyboard-response",74,134146,"0.0-3.21-0.21","71psd8v4c3a3gqp",241,"58.csv","","547.2999999821186","resources/trios/L2T1A1.jpg","37","restless",0.6,0.6,0.3,0.693718510234705,"false"
"image-keyboard-response",75,134551,"0.0-3.21-1.21","71psd8v4c3a3gqp",241,"58.csv","","null","resources/maskTrios/L2BB.jpg","null","",NA,NA,NA,NA,""
"image-keyboard-response",76,135759,"0.0-3.21-2.21","71psd8v4c3a3gqp",241,"58.csv","","null","resources/images/fishbone.png","null","",NA,NA,NA,NA,""
"image-keyboard-response",77,137416,"0.0-3.22-0.22","71psd8v4c3a3gqp",241,"58.csv","","1656.2999999821186","resources/trios/L1T2A3.jpg","38","restless",0.6,0.6,0.3,0.226599756514759,"true"
"image-keyboard-response",78,137823,"0.0-3.22-1.22","71psd8v4c3a3gqp",241,"58.csv","","null","resources/maskTrios/BT2B.jpg","null","",NA,NA,NA,NA,""
"image-keyboard-response",79,139031,"0.0-3.22-2.22","71psd8v4c3a3gqp",241,"58.csv","","null","resources/images/coin2.png","null","",NA,NA,NA,NA,""
"image-keyboard-response",80,139699,"0.0-3.23-0.23","71psd8v4c3a3gqp",241,"58.csv","","667.5","resources/trios/L2T1A1.jpg","37","restless",0.5,0.6,0.3,0.0264533512178091,"true"
"image-keyboard-response",81,140103,"0.0-3.23-1.23","71psd8v4c3a3gqp",241,"58.csv","","null","resources/maskTrios/L2BB.jpg","null","",NA,NA,NA,NA,""
"image-keyboard-response",82,141311,"0.0-3.23-2.23","71psd8v4c3a3gqp",241,"58.csv","","null","resources/images/coin2.png","null","",NA,NA,NA,NA,""
"image-keyboard-response",83,142135,"0.0-3.24-0.24","71psd8v4c3a3gqp",241,"58.csv","","823.5999999940395","resources/trios/L2T1A1.jpg","37","restless",0.5,0.6,0.3,0.837501902886843,"false"
"image-keyboard-response",84,142542,"0.0-3.24-1.24","71psd8v4c3a3gqp",241,"58.csv","","null","resources/maskTrios/L2BB.jpg","null","",NA,NA,NA,NA,""
"image-keyboard-response",85,143750,"0.0-3.24-2.24","71psd8v4c3a3gqp",241,"58.csv","","null","resources/images/fishbone.png","null","",NA,NA,NA,NA,""
"image-keyboard-response",86,144217,"0.0-3.25-0.25","71psd8v4c3a3gqp",241,"58.csv","","465.7000000178814","resources/trios/L2T2A3.jpg","37","restless",0.5,0.6,0.3,0.663138621654988,"false"
"image-keyboard-response",87,144623,"0.0-3.25-1.25","71psd8v4c3a3gqp",241,"58.csv","","null","resources/maskTrios/L2BB.jpg","null","",NA,NA,NA,NA,""
"image-keyboard-response",88,145831,"0.0-3.25-2.25","71psd8v4c3a3gqp",241,"58.csv","","null","resources/images/fishbone.png","null","",NA,NA,NA,NA,""
"image-keyboard-response",89,146576,"0.0-3.26-0.26","71psd8v4c3a3gqp",241,"58.csv","","743.7999999821186","resources/trios/L1T1A3.jpg","37","restless",0.5,0.6,0.3,0.293175653473789,"true"
"image-keyboard-response",90,146981,"0.0-3.26-1.26","71psd8v4c3a3gqp",241,"58.csv","","null","resources/maskTrios/L1BB.jpg","null","",NA,NA,NA,NA,""
"image-keyboard-response",91,148190,"0.0-3.26-2.26","71psd8v4c3a3gqp",241,"58.csv","","null","resources/images/coin2.png","null","",NA,NA,NA,NA,""
"image-keyboard-response",92,148704,"0.0-3.27-0.27","71psd8v4c3a3gqp",241,"58.csv","","513.5999999940395","resources/trios/L1T1A1.jpg","37","restless",0.5,0.6,0.3,0.204865098346728,"true"
"image-keyboard-response",93,149109,"0.0-3.27-1.27","71psd8v4c3a3gqp",241,"58.csv","","null","resources/maskTrios/L1BB.jpg","null","",NA,NA,NA,NA,""
"image-keyboard-response",94,150318,"0.0-3.27-2.27","71psd8v4c3a3gqp",241,"58.csv","","null","resources/images/coin2.png","null","",NA,NA,NA,NA,""
"image-keyboard-response",95,150870,"0.0-3.28-0.28","71psd8v4c3a3gqp",241,"58.csv","","551.0999999940395","resources/trios/L1T1A1.jpg","37","restless",0.4,0.6,0.3,0.980333760748366,"false"
"image-keyboard-response",96,151281,"0.0-3.28-1.28","71psd8v4c3a3gqp",241,"58.csv","","null","resources/maskTrios/L1BB.jpg","null","",NA,NA,NA,NA,""
"image-keyboard-response",97,152486,"0.0-3.28-2.28","71psd8v4c3a3gqp",241,"58.csv","","null","resources/images/fishbone.png","null","",NA,NA,NA,NA,""
"image-keyboard-response",98,153198,"0.0-3.29-0.29","71psd8v4c3a3gqp",241,"58.csv","","711.6999999880791","resources/trios/L2T1A1.jpg","37","restless",0.4,0.6,0.2,0.885069481177483,"false"
"image-keyboard-response",99,153608,"0.0-3.29-1.29","71psd8v4c3a3gqp",241,"58.csv","","null","resources/maskTrios/L2BB.jpg","null","",NA,NA,NA,NA,""
"image-keyboard-response",100,154814,"0.0-3.29-2.29","71psd8v4c3a3gqp",241,"58.csv","","null","resources/images/fishbone.png","null","",NA,NA,NA,NA,""
"image-keyboard-response",101,155609,"0.0-3.30-0.30","71psd8v4c3a3gqp",241,"58.csv","","793.6999999880791","resources/trios/L1T1A1.jpg","37","restless",0.3,0.6,0.2,0.593512416870225,"false"
"image-keyboard-response",102,156014,"0.0-3.30-1.30","71psd8v4c3a3gqp",241,"58.csv","","null","resources/maskTrios/L1BB.jpg","null","",NA,NA,NA,NA,""
"image-keyboard-response",103,157223,"0.0-3.30-2.30","71psd8v4c3a3gqp",241,"58.csv","","null","resources/images/fishbone.png","null","",NA,NA,NA,NA,""
"image-keyboard-response",104,157970,"0.0-3.31-0.31","71psd8v4c3a3gqp",241,"58.csv","","745.0999999940395","resources/trios/L1T1A3.jpg","37","restless",0.3,0.6,0.2,0.20161354117245,"true"
"image-keyboard-response",105,158373,"0.0-3.31-1.31","71psd8v4c3a3gqp",241,"58.csv","","null","resources/maskTrios/L1BB.jpg","null","",NA,NA,NA,NA,""
"image-keyboard-response",106,159581,"0.0-3.31-2.31","71psd8v4c3a3gqp",241,"58.csv","","null","resources/images/coin2.png","null","",NA,NA,NA,NA,""
"image-keyboard-response",107,159996,"0.0-3.32-0.32","71psd8v4c3a3gqp",241,"58.csv","","414","resources/trios/L1T2A3.jpg","38","restless",0.3,0.6,0.2,0.120647089211841,"true"
"image-keyboard-response",108,160406,"0.0-3.32-1.32","71psd8v4c3a3gqp",241,"58.csv","","null","resources/maskTrios/BT2B.jpg","null","",NA,NA,NA,NA,""
"image-keyboard-response",109,161614,"0.0-3.32-2.32","71psd8v4c3a3gqp",241,"58.csv","","null","resources/images/coin2.png","null","",NA,NA,NA,NA,""
"image-keyboard-response",110,162123,"0.0-3.33-0.33","71psd8v4c3a3gqp",241,"58.csv","","507.69999998807907","resources/trios/L1T1A1.jpg","39","restless",0.3,0.6,0.2,0.84352406136867,"false"
"image-keyboard-response",111,162532,"0.0-3.33-1.33","71psd8v4c3a3gqp",241,"58.csv","","null","resources/maskTrios/BBA1.jpg","null","",NA,NA,NA,NA,""
"image-keyboard-response",112,163741,"0.0-3.33-2.33","71psd8v4c3a3gqp",241,"58.csv","","null","resources/images/fishbone.png","null","",NA,NA,NA,NA,""
"image-keyboard-response",113,164086,"0.0-3.34-0.34","71psd8v4c3a3gqp",241,"58.csv","","343.30000001192093","resources/trios/L2T2A3.jpg","37","restless",0.3,0.6,0.2,0.859537189845767,"false"
"image-keyboard-response",114,164493,"0.0-3.34-1.34","71psd8v4c3a3gqp",241,"58.csv","","null","resources/maskTrios/L2BB.jpg","null","",NA,NA,NA,NA,""
"image-keyboard-response",115,165701,"0.0-3.34-2.34","71psd8v4c3a3gqp",241,"58.csv","","null","resources/images/fishbone.png","null","",NA,NA,NA,NA,""
"image-keyboard-response",116,166511,"0.0-3.35-0.35","71psd8v4c3a3gqp",241,"58.csv","","809","resources/trios/L1T1A3.jpg","37","restless",0.3,0.6,0.2,0.381839155847612,"false"
"image-keyboard-response",117,166918,"0.0-3.35-1.35","71psd8v4c3a3gqp",241,"58.csv","","null","resources/maskTrios/L1BB.jpg","null","",NA,NA,NA,NA,""
"image-keyboard-response",118,168128,"0.0-3.35-2.35","71psd8v4c3a3gqp",241,"58.csv","","null","resources/images/fishbone.png","null","",NA,NA,NA,NA,""
"image-keyboard-response",119,168859,"0.0-3.36-0.36","71psd8v4c3a3gqp",241,"58.csv","","729.3999999761581","resources/trios/L1T1A1.jpg","37","restless",0.3,0.6,0.2,0.624596905174368,"false"
"image-keyboard-response",120,169269,"0.0-3.36-1.36","71psd8v4c3a3gqp",241,"58.csv","","null","resources/maskTrios/L1BB.jpg","null","",NA,NA,NA,NA,""
"image-keyboard-response",121,170479,"0.0-3.36-2.36","71psd8v4c3a3gqp",241,"58.csv","","null","resources/images/fishbone.png","null","",NA,NA,NA,NA,""
"image-keyboard-response",122,171214,"0.0-3.37-0.37","71psd8v4c3a3gqp",241,"58.csv","","734.9000000059605","resources/trios/L1T1A3.jpg","39","restless",0.3,0.6,0.2,0.8424220192041,"false"
"image-keyboard-response",123,171623,"0.0-3.37-1.37","71psd8v4c3a3gqp",241,"58.csv","","null","resources/maskTrios/BBA3.jpg","null","",NA,NA,NA,NA,""
"image-keyboard-response",124,172828,"0.0-3.37-2.37","71psd8v4c3a3gqp",241,"58.csv","","null","resources/images/fishbone.png","null","",NA,NA,NA,NA,""
"image-keyboard-response",125,173273,"0.0-3.38-0.38","71psd8v4c3a3gqp",241,"58.csv","","444.80000001192093","resources/trios/L1T1A3.jpg","37","restless",0.3,0.6,0.2,0.487571469355563,"false"
"image-keyboard-response",126,173677,"0.0-3.38-1.38","71psd8v4c3a3gqp",241,"58.csv","","null","resources/maskTrios/L1BB.jpg","null","",NA,NA,NA,NA,""
"image-keyboard-response",127,174884,"0.0-3.38-2.38","71psd8v4c3a3gqp",241,"58.csv","","null","resources/images/fishbone.png","null","",NA,NA,NA,NA,""
"image-keyboard-response",128,175185,"0.0-3.39-0.39","71psd8v4c3a3gqp",241,"58.csv","","300.19999998807907","resources/trios/L1T1A3.jpg","38","restless",0.3,0.6,0.2,0.138425590022984,"true"
"image-keyboard-response",129,175590,"0.0-3.39-1.39","71psd8v4c3a3gqp",241,"58.csv","","null","resources/maskTrios/BT1B.jpg","null","",NA,NA,NA,NA,""
"image-keyboard-response",130,176797,"0.0-3.39-2.39","71psd8v4c3a3gqp",241,"58.csv","","null","resources/images/coin2.png","null","",NA,NA,NA,NA,""
"image-keyboard-response",131,177498,"0.0-3.40-0.40","71psd8v4c3a3gqp",241,"58.csv","","699.0999999940395","resources/trios/L2T2A1.jpg","37","restless",0.3,0.6,0.2,0.425539012626939,"false"
"image-keyboard-response",132,177901,"0.0-3.40-1.40","71psd8v4c3a3gqp",241,"58.csv","","null","resources/maskTrios/L2BB.jpg","null","",NA,NA,NA,NA,""
"image-keyboard-response",133,179109,"0.0-3.40-2.40","71psd8v4c3a3gqp",241,"58.csv","","null","resources/images/fishbone.png","null","",NA,NA,NA,NA,""
"image-keyboard-response",134,179478,"0.0-3.41-0.41","71psd8v4c3a3gqp",241,"58.csv","","368.2000000178814","resources/trios/L1T2A1.jpg","38","restless",0.3,0.6,0.1,0.171986512991416,"true"
"image-keyboard-response",135,179884,"0.0-3.41-1.41","71psd8v4c3a3gqp",241,"58.csv","","null","resources/maskTrios/BT2B.jpg","null","",NA,NA,NA,NA,""
"image-keyboard-response",136,181091,"0.0-3.41-2.41","71psd8v4c3a3gqp",241,"58.csv","","null","resources/images/coin2.png","null","",NA,NA,NA,NA,""
"image-keyboard-response",137,181645,"0.0-3.42-0.42","71psd8v4c3a3gqp",241,"58.csv","","552.7999999821186","resources/trios/L2T2A3.jpg","38","restless",0.3,0.6,0.1,0.444109062178035,"true"
"image-keyboard-response",138,182056,"0.0-3.42-1.42","71psd8v4c3a3gqp",241,"58.csv","","null","resources/maskTrios/BT2B.jpg","null","",NA,NA,NA,NA,""
"image-keyboard-response",139,183260,"0.0-3.42-2.42","71psd8v4c3a3gqp",241,"58.csv","","null","resources/images/coin2.png","null","",NA,NA,NA,NA,""
"image-keyboard-response",140,183953,"0.0-3.43-0.43","71psd8v4c3a3gqp",241,"58.csv","","691.7999999821186","resources/trios/L1T2A1.jpg","38","restless",0.3,0.6,0.1,0.839831306941898,"false"
"image-keyboard-response",141,184356,"0.0-3.43-1.43","71psd8v4c3a3gqp",241,"58.csv","","null","resources/maskTrios/BT2B.jpg","null","",NA,NA,NA,NA,""
"image-keyboard-response",142,185564,"0.0-3.43-2.43","71psd8v4c3a3gqp",241,"58.csv","","null","resources/images/fishbone.png","null","",NA,NA,NA,NA,""
"image-keyboard-response",143,186471,"0.0-3.44-0.44","71psd8v4c3a3gqp",241,"58.csv","","905.6999999880791","resources/trios/L1T2A1.jpg","39","restless",0.3,0.6,0.1,0.150500988648562,"false"
"image-keyboard-response",144,186876,"0.0-3.44-1.44","71psd8v4c3a3gqp",241,"58.csv","","null","resources/maskTrios/BBA1.jpg","null","",NA,NA,NA,NA,""
"image-keyboard-response",145,188084,"0.0-3.44-2.44","71psd8v4c3a3gqp",241,"58.csv","","null","resources/images/fishbone.png","null","",NA,NA,NA,NA,""
"image-keyboard-response",146,188597,"0.0-3.45-0.45","71psd8v4c3a3gqp",241,"58.csv","","511.90000000596046","resources/trios/L1T1A1.jpg","37","restless",0.3,0.5,0.2,0.900982707224842,"false"
"image-keyboard-response",147,189006,"0.0-3.45-1.45","71psd8v4c3a3gqp",241,"58.csv","","null","resources/maskTrios/L1BB.jpg","null","",NA,NA,NA,NA,""
"image-keyboard-response",148,190214,"0.0-3.45-2.45","71psd8v4c3a3gqp",241,"58.csv","","null","resources/images/fishbone.png","null","",NA,NA,NA,NA,""
"image-keyboard-response",149,190584,"0.0-3.46-0.46","71psd8v4c3a3gqp",241,"58.csv","","369","resources/trios/L2T1A1.jpg","38","restless",0.3,0.5,0.2,0.41952973089558,"true"
"image-keyboard-response",150,190990,"0.0-3.46-1.46","71psd8v4c3a3gqp",241,"58.csv","","null","resources/maskTrios/BT1B.jpg","null","",NA,NA,NA,NA,""
"image-keyboard-response",151,192197,"0.0-3.46-2.46","71psd8v4c3a3gqp",241,"58.csv","","null","resources/images/coin2.png","null","",NA,NA,NA,NA,""
"image-keyboard-response",152,192879,"0.0-3.47-0.47","71psd8v4c3a3gqp",241,"58.csv","","680.4000000059605","resources/trios/L1T1A3.jpg","38","restless",0.3,0.5,0.2,0.89432081602607,"false"
"image-keyboard-response",153,193282,"0.0-3.47-1.47","71psd8v4c3a3gqp",241,"58.csv","","null","resources/maskTrios/BT1B.jpg","null","",NA,NA,NA,NA,""
"image-keyboard-response",154,194492,"0.0-3.47-2.47","71psd8v4c3a3gqp",241,"58.csv","","null","resources/images/fishbone.png","null","",NA,NA,NA,NA,""
"image-keyboard-response",155,194939,"0.0-3.48-0.48","71psd8v4c3a3gqp",241,"58.csv","","447","resources/trios/L2T2A1.jpg","37","restless",0.3,0.5,0.2,0.5239863117963,"false"
"image-keyboard-response",156,195347,"0.0-3.48-1.48","71psd8v4c3a3gqp",241,"58.csv","","null","resources/maskTrios/L2BB.jpg","null","",NA,NA,NA,NA,""
"image-keyboard-response",157,196556,"0.0-3.48-2.48","71psd8v4c3a3gqp",241,"58.csv","","null","resources/images/fishbone.png","null","",NA,NA,NA,NA,""
"image-keyboard-response",158,197993,"0.0-3.49-0.49","71psd8v4c3a3gqp",241,"58.csv","","1435.9000000059605","resources/trios/L1T2A1.jpg","37","restless",0.3,0.5,0.2,0.330750454537042,"false"
"image-keyboard-response",159,198406,"0.0-3.49-1.49","71psd8v4c3a3gqp",241,"58.csv","","null","resources/maskTrios/L1BB.jpg","null","",NA,NA,NA,NA,""
"image-keyboard-response",160,199614,"0.0-3.49-2.49","71psd8v4c3a3gqp",241,"58.csv","","null","resources/images/fishbone.png","null","",NA,NA,NA,NA,""
"image-keyboard-response",161,200490,"0.0-3.50-0.50","71psd8v4c3a3gqp",241,"58.csv","","875","resources/trios/L2T1A1.jpg","38","restless",0.3,0.5,0.3,0.2561170967688,"true"
"image-keyboard-response",162,200899,"0.0-3.50-1.50","71psd8v4c3a3gqp",241,"58.csv","","null","resources/maskTrios/BT1B.jpg","null","",NA,NA,NA,NA,""
"image-keyboard-response",163,202106,"0.0-3.50-2.50","71psd8v4c3a3gqp",241,"58.csv","","null","resources/images/coin2.png","null","",NA,NA,NA,NA,""
"image-keyboard-response",164,203316,"0.0-3.51-0.51","71psd8v4c3a3gqp",241,"58.csv","","1208.699999988079","resources/trios/L1T1A3.jpg","39","restless",0.3,0.6,0.3,0.197093623923579,"true"
"image-keyboard-response",165,203723,"0.0-3.51-1.51","71psd8v4c3a3gqp",241,"58.csv","","null","resources/maskTrios/BBA3.jpg","null","",NA,NA,NA,NA,""
"image-keyboard-response",166,204931,"0.0-3.51-2.51","71psd8v4c3a3gqp",241,"58.csv","","null","resources/images/coin2.png","null","",NA,NA,NA,NA,""
"image-keyboard-response",167,206830,"0.0-3.52-0.52","71psd8v4c3a3gqp",241,"58.csv","","1898.5999999940395","resources/trios/L1T2A3.jpg","37","restless",0.3,0.6,0.3,0.130804451958742,"true"
"image-keyboard-response",168,207235,"0.0-3.52-1.52","71psd8v4c3a3gqp",241,"58.csv","","null","resources/maskTrios/L1BB.jpg","null","",NA,NA,NA,NA,""
"image-keyboard-response",169,208445,"0.0-3.52-2.52","71psd8v4c3a3gqp",241,"58.csv","","null","resources/images/coin2.png","null","",NA,NA,NA,NA,""
"image-keyboard-response",170,209271,"0.0-3.53-0.53","71psd8v4c3a3gqp",241,"58.csv","","825.6000000238419","resources/trios/L1T1A3.jpg","39","restless",0.2,0.6,0.3,0.90595574475321,"false"
"image-keyboard-response",171,209675,"0.0-3.53-1.53","71psd8v4c3a3gqp",241,"58.csv","","null","resources/maskTrios/BBA3.jpg","null","",NA,NA,NA,NA,""
"image-keyboard-response",172,210882,"0.0-3.53-2.53","71psd8v4c3a3gqp",241,"58.csv","","null","resources/images/fishbone.png","null","",NA,NA,NA,NA,""
"image-keyboard-response",173,211227,"0.0-3.54-0.54","71psd8v4c3a3gqp",241,"58.csv","","343.80000001192093","resources/trios/L2T2A3.jpg","38","restless",0.2,0.6,0.4,0.323666483044816,"true"
"image-keyboard-response",174,211634,"0.0-3.54-1.54","71psd8v4c3a3gqp",241,"58.csv","","null","resources/maskTrios/BT2B.jpg","null","",NA,NA,NA,NA,""
"image-keyboard-response",175,212846,"0.0-3.54-2.54","71psd8v4c3a3gqp",241,"58.csv","","null","resources/images/coin2.png","null","",NA,NA,NA,NA,""
"image-keyboard-response",176,213412,"0.0-3.55-0.55","71psd8v4c3a3gqp",241,"58.csv","","564.4000000059605","resources/trios/L2T1A3.jpg","38","restless",0.3,0.6,0.4,0.756964595214705,"false"
"image-keyboard-response",177,213822,"0.0-3.55-1.55","71psd8v4c3a3gqp",241,"58.csv","","null","resources/maskTrios/BT1B.jpg","null","",NA,NA,NA,NA,""
"image-keyboard-response",178,215026,"0.0-3.55-2.55","71psd8v4c3a3gqp",241,"58.csv","","null","resources/images/fishbone.png","null","",NA,NA,NA,NA,""
"image-keyboard-response",179,215333,"0.0-3.56-0.56","71psd8v4c3a3gqp",241,"58.csv","","305.80000001192093","resources/trios/L1T2A3.jpg","37","restless",0.3,0.6,0.4,0.367718522671679,"false"
"image-keyboard-response",180,215739,"0.0-3.56-1.56","71psd8v4c3a3gqp",241,"58.csv","","null","resources/maskTrios/L1BB.jpg","null","",NA,NA,NA,NA,""
"image-keyboard-response",181,216947,"0.0-3.56-2.56","71psd8v4c3a3gqp",241,"58.csv","","null","resources/images/fishbone.png","null","",NA,NA,NA,NA,""
"image-keyboard-response",182,217452,"0.0-3.57-0.57","71psd8v4c3a3gqp",241,"58.csv","","502.80000001192093","resources/trios/L2T1A1.jpg","39","restless",0.3,0.6,0.4,0.0408138856826961,"true"
"image-keyboard-response",183,217857,"0.0-3.57-1.57","71psd8v4c3a3gqp",241,"58.csv","","null","resources/maskTrios/BBA1.jpg","null","",NA,NA,NA,NA,""
"image-keyboard-response",184,219059,"0.0-3.57-2.57","71psd8v4c3a3gqp",241,"58.csv","","null","resources/images/coin2.png","null","",NA,NA,NA,NA,""
"image-keyboard-response",185,219611,"0.0-3.58-0.58","71psd8v4c3a3gqp",241,"58.csv","","551.4000000059605","resources/trios/L2T2A3.jpg","39","restless",0.3,0.6,0.4,0.508962873306269,"false"
"image-keyboard-response",186,220018,"0.0-3.58-1.58","71psd8v4c3a3gqp",241,"58.csv","","null","resources/maskTrios/BBA3.jpg","null","",NA,NA,NA,NA,""
"image-keyboard-response",187,221226,"0.0-3.58-2.58","71psd8v4c3a3gqp",241,"58.csv","","null","resources/images/fishbone.png","null","",NA,NA,NA,NA,""
"image-keyboard-response",188,221595,"0.0-3.59-0.59","71psd8v4c3a3gqp",241,"58.csv","","368.09999999403954","resources/trios/L1T1A1.jpg","37","restless",0.3,0.7,0.4,0.610461288666411,"false"
"image-keyboard-response",189,222006,"0.0-3.59-1.59","71psd8v4c3a3gqp",241,"58.csv","","null","resources/maskTrios/L1BB.jpg","null","",NA,NA,NA,NA,""
"image-keyboard-response",190,223210,"0.0-3.59-2.59","71psd8v4c3a3gqp",241,"58.csv","","null","resources/images/fishbone.png","null","",NA,NA,NA,NA,""
"image-keyboard-response",191,223877,"0.0-3.60-0.60","71psd8v4c3a3gqp",241,"58.csv","","665.2999999821186","resources/trios/L2T1A1.jpg","38","restless",0.3,0.7,0.5,0.769187764586765,"false"
"image-keyboard-response",192,224282,"0.0-3.60-1.60","71psd8v4c3a3gqp",241,"58.csv","","null","resources/maskTrios/BT1B.jpg","null","",NA,NA,NA,NA,""
"image-keyboard-response",193,225489,"0.0-3.60-2.60","71psd8v4c3a3gqp",241,"58.csv","","null","resources/images/fishbone.png","null","",NA,NA,NA,NA,""
"image-keyboard-response",194,225966,"0.0-3.61-0.61","71psd8v4c3a3gqp",241,"58.csv","","475.7999999821186","resources/trios/L2T1A3.jpg","39","restless",0.3,0.7,0.5,0.758961418786157,"false"
"image-keyboard-response",195,226373,"0.0-3.61-1.61","71psd8v4c3a3gqp",241,"58.csv","","null","resources/maskTrios/BBA3.jpg","null","",NA,NA,NA,NA,""
"image-keyboard-response",196,227580,"0.0-3.61-2.61","71psd8v4c3a3gqp",241,"58.csv","","null","resources/images/fishbone.png","null","",NA,NA,NA,NA,""
"image-keyboard-response",197,227909,"0.0-3.62-0.62","71psd8v4c3a3gqp",241,"58.csv","","328.2999999821186","resources/trios/L1T2A1.jpg","37","restless",0.3,0.7,0.6,0.547825512477615,"false"
"image-keyboard-response",198,228315,"0.0-3.62-1.62","71psd8v4c3a3gqp",241,"58.csv","","null","resources/maskTrios/L1BB.jpg","null","",NA,NA,NA,NA,""
"image-keyboard-response",199,229522,"0.0-3.62-2.62","71psd8v4c3a3gqp",241,"58.csv","","null","resources/images/fishbone.png","null","",NA,NA,NA,NA,""
"image-keyboard-response",200,230087,"0.0-3.63-0.63","71psd8v4c3a3gqp",241,"58.csv","","563.2999999821186","resources/trios/L1T2A3.jpg","37","restless",0.3,0.7,0.6,0.460872526062575,"false"
"image-keyboard-response",201,230489,"0.0-3.63-1.63","71psd8v4c3a3gqp",241,"58.csv","","null","resources/maskTrios/L1BB.jpg","null","",NA,NA,NA,NA,""
"image-keyboard-response",202,231697,"0.0-3.63-2.63","71psd8v4c3a3gqp",241,"58.csv","","null","resources/images/fishbone.png","null","",NA,NA,NA,NA,""
"image-keyboard-response",203,231985,"0.0-3.64-0.64","71psd8v4c3a3gqp",241,"58.csv","","286.5","resources/trios/L2T1A1.jpg","38","restless",0.3,0.7,0.6,0.992327859754063,"false"
"image-keyboard-response",204,232397,"0.0-3.64-1.64","71psd8v4c3a3gqp",241,"58.csv","","null","resources/maskTrios/BT1B.jpg","null","",NA,NA,NA,NA,""
"image-keyboard-response",205,233605,"0.0-3.64-2.64","71psd8v4c3a3gqp",241,"58.csv","","null","resources/images/fishbone.png","null","",NA,NA,NA,NA,""
"image-keyboard-response",206,234349,"0.0-3.65-0.65","71psd8v4c3a3gqp",241,"58.csv","","743","resources/trios/L1T2A1.jpg","39","restless",0.3,0.7,0.7,0.700929342002979,"false"
"image-keyboard-response",207,234756,"0.0-3.65-1.65","71psd8v4c3a3gqp",241,"58.csv","","null","resources/maskTrios/BBA1.jpg","null","",NA,NA,NA,NA,""
"image-keyboard-response",208,235964,"0.0-3.65-2.65","71psd8v4c3a3gqp",241,"58.csv","","null","resources/images/fishbone.png","null","",NA,NA,NA,NA,""
"image-keyboard-response",209,236407,"0.0-3.66-0.66","71psd8v4c3a3gqp",241,"58.csv","","441.90000000596046","resources/trios/L1T2A1.jpg","37","restless",0.3,0.7,0.7,0.609539045194818,"false"
"image-keyboard-response",210,236809,"0.0-3.66-1.66","71psd8v4c3a3gqp",241,"58.csv","","null","resources/maskTrios/L1BB.jpg","null","",NA,NA,NA,NA,""
"image-keyboard-response",211,238018,"0.0-3.66-2.66","71psd8v4c3a3gqp",241,"58.csv","","null","resources/images/fishbone.png","null","",NA,NA,NA,NA,""
"image-keyboard-response",212,238395,"0.0-3.67-0.67","71psd8v4c3a3gqp",241,"58.csv","","376.30000001192093","resources/trios/L1T2A1.jpg","37","restless",0.3,0.7,0.7,0.912783188068858,"false"
"image-keyboard-response",213,238802,"0.0-3.67-1.67","71psd8v4c3a3gqp",241,"58.csv","","null","resources/maskTrios/L1BB.jpg","null","",NA,NA,NA,NA,""
"image-keyboard-response",214,240008,"0.0-3.67-2.67","71psd8v4c3a3gqp",241,"58.csv","","null","resources/images/fishbone.png","null","",NA,NA,NA,NA,""
"image-keyboard-response",215,240400,"0.0-3.68-0.68","71psd8v4c3a3gqp",241,"58.csv","","390.09999999403954","resources/trios/L1T1A3.jpg","37","restless",0.3,0.7,0.7,0.7201782490913,"false"
"image-keyboard-response",216,240811,"0.0-3.68-1.68","71psd8v4c3a3gqp",241,"58.csv","","null","resources/maskTrios/L1BB.jpg","null","",NA,NA,NA,NA,""
"image-keyboard-response",217,242018,"0.0-3.68-2.68","71psd8v4c3a3gqp",241,"58.csv","","null","resources/images/fishbone.png","null","",NA,NA,NA,NA,""
"image-keyboard-response",218,242454,"0.0-3.69-0.69","71psd8v4c3a3gqp",241,"58.csv","","434.30000001192093","resources/trios/L1T1A3.jpg","38","restless",0.3,0.7,0.7,0.221383305819231,"true"
"image-keyboard-response",219,242856,"0.0-3.69-1.69","71psd8v4c3a3gqp",241,"58.csv","","null","resources/maskTrios/BT1B.jpg","null","",NA,NA,NA,NA,""
"image-keyboard-response",220,244066,"0.0-3.69-2.69","71psd8v4c3a3gqp",241,"58.csv","","null","resources/images/coin2.png","null","",NA,NA,NA,NA,""
"image-keyboard-response",221,244908,"0.0-3.70-0.70","71psd8v4c3a3gqp",241,"58.csv","","841.5999999940395","resources/trios/L2T2A3.jpg","39","restless",0.3,0.7,0.7,0.293799631648371,"true"
"image-keyboard-response",222,245314,"0.0-3.70-1.70","71psd8v4c3a3gqp",241,"58.csv","","null","resources/maskTrios/BBA3.jpg","null","",NA,NA,NA,NA,""
"image-keyboard-response",223,246522,"0.0-3.70-2.70","71psd8v4c3a3gqp",241,"58.csv","","null","resources/images/coin2.png","null","",NA,NA,NA,NA,""
"image-keyboard-response",224,247690,"0.0-3.71-0.71","71psd8v4c3a3gqp",241,"58.csv","","1166","resources/trios/L1T2A1.jpg","39","restless",0.3,0.7,0.7,0.446672450870075,"true"
"image-keyboard-response",225,248097,"0.0-3.71-1.71","71psd8v4c3a3gqp",241,"58.csv","","null","resources/maskTrios/BBA1.jpg","null","",NA,NA,NA,NA,""
"image-keyboard-response",226,249306,"0.0-3.71-2.71","71psd8v4c3a3gqp",241,"58.csv","","null","resources/images/coin2.png","null","",NA,NA,NA,NA,""
"image-keyboard-response",227,251279,"0.0-3.72-0.72","71psd8v4c3a3gqp",241,"58.csv","","1971.699999988079","resources/trios/L2T2A1.jpg","38","restless",0.3,0.7,0.7,0.115040396253109,"true"
"image-keyboard-response",228,251689,"0.0-3.72-1.72","71psd8v4c3a3gqp",241,"58.csv","","null","resources/maskTrios/BT2B.jpg","null","",NA,NA,NA,NA,""
"image-keyboard-response",229,252897,"0.0-3.72-2.72","71psd8v4c3a3gqp",241,"58.csv","","null","resources/images/coin2.png","null","",NA,NA,NA,NA,""
"image-keyboard-response",230,253457,"0.0-3.73-0.73","71psd8v4c3a3gqp",241,"58.csv","","559.4000000059605","resources/trios/L1T1A3.jpg","38","restless",0.3,0.7,0.7,0.341063151857178,"true"
"image-keyboard-response",231,253864,"0.0-3.73-1.73","71psd8v4c3a3gqp",241,"58.csv","","null","resources/maskTrios/BT1B.jpg","null","",NA,NA,NA,NA,""
"image-keyboard-response",232,255072,"0.0-3.73-2.73","71psd8v4c3a3gqp",241,"58.csv","","null","resources/images/coin2.png","null","",NA,NA,NA,NA,""
"image-keyboard-response",233,255559,"0.0-3.74-0.74","71psd8v4c3a3gqp",241,"58.csv","","485.80000001192093","resources/trios/L2T1A1.jpg","39","restless",0.3,0.7,0.7,0.529082910600603,"true"
"image-keyboard-response",234,255972,"0.0-3.74-1.74","71psd8v4c3a3gqp",241,"58.csv","","null","resources/maskTrios/BBA1.jpg","null","",NA,NA,NA,NA,""
"image-keyboard-response",235,257177,"0.0-3.74-2.74","71psd8v4c3a3gqp",241,"58.csv","","null","resources/images/coin2.png","null","",NA,NA,NA,NA,""
"image-keyboard-response",236,258343,"0.0-3.75-0.75","71psd8v4c3a3gqp",241,"58.csv","","1165.6000000238419","resources/trios/L1T2A1.jpg","39","restless",0.3,0.7,0.7,0.0244484833990815,"true"
"image-keyboard-response",237,258756,"0.0-3.75-1.75","71psd8v4c3a3gqp",241,"58.csv","","null","resources/maskTrios/BBA1.jpg","null","",NA,NA,NA,NA,""
"image-keyboard-response",238,259963,"0.0-3.75-2.75","71psd8v4c3a3gqp",241,"58.csv","","null","resources/images/coin2.png","null","",NA,NA,NA,NA,""
"image-keyboard-response",239,260809,"0.0-3.76-0.76","71psd8v4c3a3gqp",241,"58.csv","","844.3000000119209","resources/trios/L2T2A1.jpg","39","restless",0.4,0.8,0.7,0.619330547052343,"true"
"image-keyboard-response",240,261217,"0.0-3.76-1.76","71psd8v4c3a3gqp",241,"58.csv","","null","resources/maskTrios/BBA1.jpg","null","",NA,NA,NA,NA,""
"image-keyboard-response",241,262426,"0.0-3.76-2.76","71psd8v4c3a3gqp",241,"58.csv","","null","resources/images/coin2.png","null","",NA,NA,NA,NA,""
"image-keyboard-response",242,263029,"0.0-3.77-0.77","71psd8v4c3a3gqp",241,"58.csv","","601.7000000178814","resources/trios/L1T2A3.jpg","39","restless",0.4,0.8,0.7,0.0255617530256356,"true"
"image-keyboard-response",243,263434,"0.0-3.77-1.77","71psd8v4c3a3gqp",241,"58.csv","","null","resources/maskTrios/BBA3.jpg","null","",NA,NA,NA,NA,""
"image-keyboard-response",244,264639,"0.0-3.77-2.77","71psd8v4c3a3gqp",241,"58.csv","","null","resources/images/coin2.png","null","",NA,NA,NA,NA,""
"image-keyboard-response",245,265247,"0.0-3.78-0.78","71psd8v4c3a3gqp",241,"58.csv","","607.4000000059605","resources/trios/L1T2A3.jpg","39","restless",0.5,0.8,0.7,0.0376557156023494,"true"
"image-keyboard-response",246,265656,"0.0-3.78-1.78","71psd8v4c3a3gqp",241,"58.csv","","null","resources/maskTrios/BBA3.jpg","null","",NA,NA,NA,NA,""
"image-keyboard-response",247,266863,"0.0-3.78-2.78","71psd8v4c3a3gqp",241,"58.csv","","null","resources/images/coin2.png","null","",NA,NA,NA,NA,""
"image-keyboard-response",248,267236,"0.0-3.79-0.79","71psd8v4c3a3gqp",241,"58.csv","","371.30000001192093","resources/trios/L1T2A3.jpg","39","restless",0.5,0.8,0.7,0.74345429526762,"false"
"image-keyboard-response",249,267639,"0.0-3.79-1.79","71psd8v4c3a3gqp",241,"58.csv","","null","resources/maskTrios/BBA3.jpg","null","",NA,NA,NA,NA,""
"image-keyboard-response",250,268847,"0.0-3.79-2.79","71psd8v4c3a3gqp",241,"58.csv","","null","resources/images/fishbone.png","null","",NA,NA,NA,NA,""
"image-keyboard-response",251,269512,"0.0-3.80-0.80","71psd8v4c3a3gqp",241,"58.csv","","664.1999999880791","resources/trios/L2T1A3.jpg","38","restless",0.5,0.8,0.7,0.890888635229591,"false"
"image-keyboard-response",252,269923,"0.0-3.80-1.80","71psd8v4c3a3gqp",241,"58.csv","","null","resources/maskTrios/BT1B.jpg","null","",NA,NA,NA,NA,""
"image-keyboard-response",253,271130,"0.0-3.80-2.80","71psd8v4c3a3gqp",241,"58.csv","","null","resources/images/fishbone.png","null","",NA,NA,NA,NA,""
"image-keyboard-response",254,271960,"0.0-3.81-0.81","71psd8v4c3a3gqp",241,"58.csv","","829","resources/trios/L2T2A1.jpg","37","restless",0.5,0.8,0.7,0.849183034791019,"false"
"image-keyboard-response",255,272368,"0.0-3.81-1.81","71psd8v4c3a3gqp",241,"58.csv","","null","resources/maskTrios/L2BB.jpg","null","",NA,NA,NA,NA,""
"image-keyboard-response",256,273579,"0.0-3.81-2.81","71psd8v4c3a3gqp",241,"58.csv","","null","resources/images/fishbone.png","null","",NA,NA,NA,NA,""
"image-keyboard-response",257,274275,"0.0-3.82-0.82","71psd8v4c3a3gqp",241,"58.csv","","694.0999999940395","resources/trios/L1T1A3.jpg","38","restless",0.6,0.8,0.7,0.634395376687898,"true"
"image-keyboard-response",258,274680,"0.0-3.82-1.82","71psd8v4c3a3gqp",241,"58.csv","","null","resources/maskTrios/BT1B.jpg","null","",NA,NA,NA,NA,""
"image-keyboard-response",259,275889,"0.0-3.82-2.82","71psd8v4c3a3gqp",241,"58.csv","","null","resources/images/coin2.png","null","",NA,NA,NA,NA,""
"image-keyboard-response",260,276269,"0.0-3.83-0.83","71psd8v4c3a3gqp",241,"58.csv","","378.59999999403954","resources/trios/L1T2A3.jpg","37","restless",0.6,0.8,0.8,0.343003506666615,"true"
"image-keyboard-response",261,276680,"0.0-3.83-1.83","71psd8v4c3a3gqp",241,"58.csv","","null","resources/maskTrios/L1BB.jpg","null","",NA,NA,NA,NA,""
"image-keyboard-response",262,277889,"0.0-3.83-2.83","71psd8v4c3a3gqp",241,"58.csv","","null","resources/images/coin2.png","null","",NA,NA,NA,NA,""
"image-keyboard-response",263,278254,"0.0-3.84-0.84","71psd8v4c3a3gqp",241,"58.csv","","363.40000000596046","resources/trios/L1T2A1.jpg","37","restless",0.6,0.8,0.8,0.109860688574821,"true"
"image-keyboard-response",264,278663,"0.0-3.84-1.84","71psd8v4c3a3gqp",241,"58.csv","","null","resources/maskTrios/L1BB.jpg","null","",NA,NA,NA,NA,""
"image-keyboard-response",265,279872,"0.0-3.84-2.84","71psd8v4c3a3gqp",241,"58.csv","","null","resources/images/coin2.png","null","",NA,NA,NA,NA,""
"image-keyboard-response",266,280237,"0.0-3.85-0.85","71psd8v4c3a3gqp",241,"58.csv","","363.89999997615814","resources/trios/L1T2A3.jpg","37","restless",0.6,0.8,0.7,0.0776573499548305,"true"
"image-keyboard-response",267,280639,"0.0-3.85-1.85","71psd8v4c3a3gqp",241,"58.csv","","null","resources/maskTrios/L1BB.jpg","null","",NA,NA,NA,NA,""
"image-keyboard-response",268,281847,"0.0-3.85-2.85","71psd8v4c3a3gqp",241,"58.csv","","null","resources/images/coin2.png","null","",NA,NA,NA,NA,""
"image-keyboard-response",269,282705,"0.0-3.86-0.86","71psd8v4c3a3gqp",241,"58.csv","","856.5","resources/trios/L2T2A1.jpg","37","restless",0.6,0.8,0.7,0.525568860467847,"true"
"image-keyboard-response",270,283113,"0.0-3.86-1.86","71psd8v4c3a3gqp",241,"58.csv","","null","resources/maskTrios/L2BB.jpg","null","",NA,NA,NA,NA,""
"image-keyboard-response",271,284322,"0.0-3.86-2.86","71psd8v4c3a3gqp",241,"58.csv","","null","resources/images/coin2.png","null","",NA,NA,NA,NA,""
"image-keyboard-response",272,284447,"0.0-3.87-0.87","71psd8v4c3a3gqp",241,"58.csv","","123.59999999403954","resources/trios/L1T1A1.jpg","37","restless",0.5,0.8,0.7,0.260967097879156,"true"
"image-keyboard-response",273,284855,"0.0-3.87-1.87","71psd8v4c3a3gqp",241,"58.csv","","null","resources/maskTrios/L1BB.jpg","null","",NA,NA,NA,NA,""
"image-keyboard-response",274,286063,"0.0-3.87-2.87","71psd8v4c3a3gqp",241,"58.csv","","null","resources/images/coin2.png","null","",NA,NA,NA,NA,""
"image-keyboard-response",275,286478,"0.0-3.88-0.88","71psd8v4c3a3gqp",241,"58.csv","","413.59999999403954","resources/trios/L1T1A1.jpg","37","restless",0.5,0.8,0.7,0.26235585406627,"true"
"image-keyboard-response",276,286889,"0.0-3.88-1.88","71psd8v4c3a3gqp",241,"58.csv","","null","resources/maskTrios/L1BB.jpg","null","",NA,NA,NA,NA,""
"image-keyboard-response",277,288097,"0.0-3.88-2.88","71psd8v4c3a3gqp",241,"58.csv","","null","resources/images/coin2.png","null","",NA,NA,NA,NA,""
"image-keyboard-response",278,288415,"0.0-3.89-0.89","71psd8v4c3a3gqp",241,"58.csv","","318","resources/trios/L2T1A3.jpg","37","restless",0.5,0.8,0.7,0.859301132254838,"false"
"image-keyboard-response",279,288822,"0.0-3.89-1.89","71psd8v4c3a3gqp",241,"58.csv","","null","resources/maskTrios/L2BB.jpg","null","",NA,NA,NA,NA,""
"image-keyboard-response",280,290030,"0.0-3.89-2.89","71psd8v4c3a3gqp",241,"58.csv","","null","resources/images/fishbone.png","null","",NA,NA,NA,NA,""
"image-keyboard-response",281,290359,"0.0-3.90-0.90","71psd8v4c3a3gqp",241,"58.csv","","328.59999999403954","resources/trios/L2T1A1.jpg","38","restless",0.5,0.8,0.6,0.829805360974655,"false"
"image-keyboard-response",282,290766,"0.0-3.90-1.90","71psd8v4c3a3gqp",241,"58.csv","","null","resources/maskTrios/BT1B.jpg","null","",NA,NA,NA,NA,""
"image-keyboard-response",283,291974,"0.0-3.90-2.90","71psd8v4c3a3gqp",241,"58.csv","","null","resources/images/fishbone.png","null","",NA,NA,NA,NA,""
"image-keyboard-response",284,292293,"0.0-3.91-0.91","71psd8v4c3a3gqp",241,"58.csv","","317","resources/trios/L2T2A1.jpg","39","restless",0.5,0.8,0.6,0.102241327981609,"true"
"image-keyboard-response",285,292705,"0.0-3.91-1.91","71psd8v4c3a3gqp",241,"58.csv","","null","resources/maskTrios/BBA1.jpg","null","",NA,NA,NA,NA,""
"image-keyboard-response",286,293913,"0.0-3.91-2.91","71psd8v4c3a3gqp",241,"58.csv","","null","resources/images/coin2.png","null","",NA,NA,NA,NA,""
"image-keyboard-response",287,294538,"0.0-3.92-0.92","71psd8v4c3a3gqp",241,"58.csv","","623.5","resources/trios/L2T1A1.jpg","39","restless",0.5,0.8,0.7,0.153920384443026,"true"
"image-keyboard-response",288,294946,"0.0-3.92-1.92","71psd8v4c3a3gqp",241,"58.csv","","null","resources/maskTrios/BBA1.jpg","null","",NA,NA,NA,NA,""
"image-keyboard-response",289,296150,"0.0-3.92-2.92","71psd8v4c3a3gqp",241,"58.csv","","null","resources/images/coin2.png","null","",NA,NA,NA,NA,""
"image-keyboard-response",290,296549,"0.0-3.93-0.93","71psd8v4c3a3gqp",241,"58.csv","","398","resources/trios/L1T2A1.jpg","39","restless",0.5,0.8,0.7,0.928841577983458,"false"
"image-keyboard-response",291,296962,"0.0-3.93-1.93","71psd8v4c3a3gqp",241,"58.csv","","null","resources/maskTrios/BBA1.jpg","null","",NA,NA,NA,NA,""
"image-keyboard-response",292,298166,"0.0-3.93-2.93","71psd8v4c3a3gqp",241,"58.csv","","null","resources/images/fishbone.png","null","",NA,NA,NA,NA,""
"image-keyboard-response",293,298659,"0.0-3.94-0.94","71psd8v4c3a3gqp",241,"58.csv","","492.30000001192093","resources/trios/L1T1A3.jpg","38","restless",0.6,0.8,0.7,0.744658715821958,"true"
"image-keyboard-response",294,299063,"0.0-3.94-1.94","71psd8v4c3a3gqp",241,"58.csv","","null","resources/maskTrios/BT1B.jpg","null","",NA,NA,NA,NA,""
"image-keyboard-response",295,300272,"0.0-3.94-2.94","71psd8v4c3a3gqp",241,"58.csv","","null","resources/images/coin2.png","null","",NA,NA,NA,NA,""
"image-keyboard-response",296,301240,"0.0-3.95-0.95","71psd8v4c3a3gqp",241,"58.csv","","966.7000000178814","resources/trios/L2T2A1.jpg","38","restless",0.6,0.8,0.7,0.246307151784443,"true"
"image-keyboard-response",297,301647,"0.0-3.95-1.95","71psd8v4c3a3gqp",241,"58.csv","","null","resources/maskTrios/BT2B.jpg","null","",NA,NA,NA,NA,""
"image-keyboard-response",298,302855,"0.0-3.95-2.95","71psd8v4c3a3gqp",241,"58.csv","","null","resources/images/coin2.png","null","",NA,NA,NA,NA,""
"image-keyboard-response",299,303334,"0.0-3.96-0.96","71psd8v4c3a3gqp",241,"58.csv","","477.5","resources/trios/L1T2A3.jpg","38","restless",0.6,0.8,0.7,0.971146090518588,"false"
"image-keyboard-response",300,303742,"0.0-3.96-1.96","71psd8v4c3a3gqp",241,"58.csv","","null","resources/maskTrios/BT2B.jpg","null","",NA,NA,NA,NA,""
"image-keyboard-response",301,304949,"0.0-3.96-2.96","71psd8v4c3a3gqp",241,"58.csv","","null","resources/images/fishbone.png","null","",NA,NA,NA,NA,""
"image-keyboard-response",302,305538,"0.0-3.97-0.97","71psd8v4c3a3gqp",241,"58.csv","","587.5","resources/trios/L1T2A3.jpg","37","restless",0.6,0.8,0.7,0.680634303614549,"false"
"image-keyboard-response",303,305941,"0.0-3.97-1.97","71psd8v4c3a3gqp",241,"58.csv","","null","resources/maskTrios/L1BB.jpg","null","",NA,NA,NA,NA,""
"image-keyboard-response",304,307150,"0.0-3.97-2.97","71psd8v4c3a3gqp",241,"58.csv","","null","resources/images/fishbone.png","null","",NA,NA,NA,NA,""
"image-keyboard-response",305,307536,"0.0-3.98-0.98","71psd8v4c3a3gqp",241,"58.csv","","385.60000002384186","resources/trios/L2T1A3.jpg","39","restless",0.6,0.7,0.7,0.806212509500116,"false"
"image-keyboard-response",306,307945,"0.0-3.98-1.98","71psd8v4c3a3gqp",241,"58.csv","","null","resources/maskTrios/BBA3.jpg","null","",NA,NA,NA,NA,""
"image-keyboard-response",307,309149,"0.0-3.98-2.98","71psd8v4c3a3gqp",241,"58.csv","","null","resources/images/fishbone.png","null","",NA,NA,NA,NA,""
"image-keyboard-response",308,309763,"0.0-3.99-0.99","71psd8v4c3a3gqp",241,"58.csv","","612.0999999940395","resources/trios/L1T1A1.jpg","38","restless",0.6,0.7,0.7,0.760188631968165,"false"
"image-keyboard-response",309,310166,"0.0-3.99-1.99","71psd8v4c3a3gqp",241,"58.csv","","null","resources/maskTrios/BT1B.jpg","null","",NA,NA,NA,NA,""
"image-keyboard-response",310,311374,"0.0-3.99-2.99","71psd8v4c3a3gqp",241,"58.csv","","null","resources/images/fishbone.png","null","",NA,NA,NA,NA,""
"image-keyboard-response",311,312209,"0.0-3.100-0.100","71psd8v4c3a3gqp",241,"58.csv","","833.9000000059605","resources/trios/L2T1A3.jpg","37","restless",0.6,0.7,0.7,0.135339991946402,"true"
"image-keyboard-response",312,312613,"0.0-3.100-1.100","71psd8v4c3a3gqp",241,"58.csv","","null","resources/maskTrios/L2BB.jpg","null","",NA,NA,NA,NA,""
"image-keyboard-response",313,313822,"0.0-3.100-2.100","71psd8v4c3a3gqp",241,"58.csv","","null","resources/images/coin2.png","null","",NA,NA,NA,NA,""
"image-keyboard-response",314,314886,"0.0-3.101-0.101","71psd8v4c3a3gqp",241,"58.csv","","1062.5999999940395","resources/trios/L1T2A3.jpg","39","restless",0.6,0.7,0.7,0.363256862617172,"true"
"image-keyboard-response",315,315296,"0.0-3.101-1.101","71psd8v4c3a3gqp",241,"58.csv","","null","resources/maskTrios/BBA3.jpg","null","",NA,NA,NA,NA,""
"image-keyboard-response",316,316505,"0.0-3.101-2.101","71psd8v4c3a3gqp",241,"58.csv","","null","resources/images/coin2.png","null","",NA,NA,NA,NA,""
"image-keyboard-response",317,317420,"0.0-3.102-0.102","71psd8v4c3a3gqp",241,"58.csv","","913.9000000059605","resources/trios/L2T1A1.jpg","38","restless",0.6,0.7,0.7,0.240247200978329,"true"
"image-keyboard-response",318,317830,"0.0-3.102-1.102","71psd8v4c3a3gqp",241,"58.csv","","null","resources/maskTrios/BT1B.jpg","null","",NA,NA,NA,NA,""
"image-keyboard-response",319,319038,"0.0-3.102-2.102","71psd8v4c3a3gqp",241,"58.csv","","null","resources/images/coin2.png","null","",NA,NA,NA,NA,""
"image-keyboard-response",320,319868,"0.0-3.103-0.103","71psd8v4c3a3gqp",241,"58.csv","","828.9000000059605","resources/trios/L2T2A1.jpg","37","restless",0.6,0.7,0.7,0.703421966564341,"false"
"image-keyboard-response",321,320279,"0.0-3.103-1.103","71psd8v4c3a3gqp",241,"58.csv","","null","resources/maskTrios/L2BB.jpg","null","",NA,NA,NA,NA,""
"image-keyboard-response",322,321488,"0.0-3.103-2.103","71psd8v4c3a3gqp",241,"58.csv","","null","resources/images/fishbone.png","null","",NA,NA,NA,NA,""
"image-keyboard-response",323,321905,"0.0-3.104-0.104","71psd8v4c3a3gqp",241,"58.csv","","416.09999999403954","resources/trios/L1T1A1.jpg","39","restless",0.6,0.7,0.7,0.581323665686919,"true"
"image-keyboard-response",324,322308,"0.0-3.104-1.104","71psd8v4c3a3gqp",241,"58.csv","","null","resources/maskTrios/BBA1.jpg","null","",NA,NA,NA,NA,""
"image-keyboard-response",325,323517,"0.0-3.104-2.104","71psd8v4c3a3gqp",241,"58.csv","","null","resources/images/coin2.png","null","",NA,NA,NA,NA,""
"image-keyboard-response",326,324052,"0.0-3.105-0.105","71psd8v4c3a3gqp",241,"58.csv","","533.5","resources/trios/L1T1A3.jpg","39","restless",0.6,0.7,0.7,0.170469748433073,"true"
"image-keyboard-response",327,324463,"0.0-3.105-1.105","71psd8v4c3a3gqp",241,"58.csv","","null","resources/maskTrios/BBA3.jpg","null","",NA,NA,NA,NA,""
"image-keyboard-response",328,325672,"0.0-3.105-2.105","71psd8v4c3a3gqp",241,"58.csv","","null","resources/images/coin2.png","null","",NA,NA,NA,NA,""
"image-keyboard-response",329,326027,"0.0-3.106-0.106","71psd8v4c3a3gqp",241,"58.csv","","355.09999999403954","resources/trios/L1T1A3.jpg","39","restless",0.6,0.7,0.7,0.937823955333392,"false"
"image-keyboard-response",330,326438,"0.0-3.106-1.106","71psd8v4c3a3gqp",241,"58.csv","","null","resources/maskTrios/BBA3.jpg","null","",NA,NA,NA,NA,""
"image-keyboard-response",331,327646,"0.0-3.106-2.106","71psd8v4c3a3gqp",241,"58.csv","","null","resources/images/fishbone.png","null","",NA,NA,NA,NA,""
"image-keyboard-response",332,327978,"0.0-3.107-0.107","71psd8v4c3a3gqp",241,"58.csv","","330.7999999821186","resources/trios/L1T1A3.jpg","38","restless",0.6,0.7,0.7,0.0817628756865696,"true"
"image-keyboard-response",333,328379,"0.0-3.107-1.107","71psd8v4c3a3gqp",241,"58.csv","","null","resources/maskTrios/BT1B.jpg","null","",NA,NA,NA,NA,""
"image-keyboard-response",334,329588,"0.0-3.107-2.107","71psd8v4c3a3gqp",241,"58.csv","","null","resources/images/coin2.png","null","",NA,NA,NA,NA,""
"image-keyboard-response",335,331303,"0.0-3.108-0.108","71psd8v4c3a3gqp",241,"58.csv","","1713.5","resources/trios/L1T2A1.jpg","39","restless",0.6,0.7,0.7,0.636392548077827,"true"
"image-keyboard-response",336,331709,"0.0-3.108-1.108","71psd8v4c3a3gqp",241,"58.csv","","null","resources/maskTrios/BBA1.jpg","null","",NA,NA,NA,NA,""
"image-keyboard-response",337,332917,"0.0-3.108-2.108","71psd8v4c3a3gqp",241,"58.csv","","null","resources/images/coin2.png","null","",NA,NA,NA,NA,""
"image-keyboard-response",338,333532,"0.0-3.109-0.109","71psd8v4c3a3gqp",241,"58.csv","","614.5","resources/trios/L1T1A3.jpg","39","restless",0.6,0.7,0.7,0.956264270317214,"false"
"image-keyboard-response",339,333944,"0.0-3.109-1.109","71psd8v4c3a3gqp",241,"58.csv","","null","resources/maskTrios/BBA3.jpg","null","",NA,NA,NA,NA,""
"image-keyboard-response",340,335149,"0.0-3.109-2.109","71psd8v4c3a3gqp",241,"58.csv","","null","resources/images/fishbone.png","null","",NA,NA,NA,NA,""
"image-keyboard-response",341,335905,"0.0-3.110-0.110","71psd8v4c3a3gqp",241,"58.csv","","754.3000000119209","resources/trios/L1T2A3.jpg","38","restless",0.6,0.7,0.7,0.351837958809275,"true"
"image-keyboard-response",342,336308,"0.0-3.110-1.110","71psd8v4c3a3gqp",241,"58.csv","","null","resources/maskTrios/BT2B.jpg","null","",NA,NA,NA,NA,""
"image-keyboard-response",343,337516,"0.0-3.110-2.110","71psd8v4c3a3gqp",241,"58.csv","","null","resources/images/coin2.png","null","",NA,NA,NA,NA,""
"image-keyboard-response",344,338175,"0.0-3.111-0.111","71psd8v4c3a3gqp",241,"58.csv","","657.8000000119209","resources/trios/L1T1A1.jpg","38","restless",0.6,0.7,0.7,0.435572892924333,"true"
"image-keyboard-response",345,338579,"0.0-3.111-1.111","71psd8v4c3a3gqp",241,"58.csv","","null","resources/maskTrios/BT1B.jpg","null","",NA,NA,NA,NA,""
"image-keyboard-response",346,339789,"0.0-3.111-2.111","71psd8v4c3a3gqp",241,"58.csv","","null","resources/images/coin2.png","null","",NA,NA,NA,NA,""
"image-keyboard-response",347,341090,"0.0-3.112-0.112","71psd8v4c3a3gqp",241,"58.csv","","1299.9000000059605","resources/trios/L2T2A3.jpg","39","restless",0.6,0.7,0.7,0.818645386548366,"false"
"image-keyboard-response",348,341500,"0.0-3.112-1.112","71psd8v4c3a3gqp",241,"58.csv","","null","resources/maskTrios/BBA3.jpg","null","",NA,NA,NA,NA,""
"image-keyboard-response",349,342708,"0.0-3.112-2.112","71psd8v4c3a3gqp",241,"58.csv","","null","resources/images/fishbone.png","null","",NA,NA,NA,NA,""
"image-keyboard-response",350,343277,"0.0-3.113-0.113","71psd8v4c3a3gqp",241,"58.csv","","568.4000000059605","resources/trios/L1T1A1.jpg","38","restless",0.5,0.7,0.7,0.205747910925683,"true"
"image-keyboard-response",351,343688,"0.0-3.113-1.113","71psd8v4c3a3gqp",241,"58.csv","","null","resources/maskTrios/BT1B.jpg","null","",NA,NA,NA,NA,""
"image-keyboard-response",352,344892,"0.0-3.113-2.113","71psd8v4c3a3gqp",241,"58.csv","","null","resources/images/coin2.png","null","",NA,NA,NA,NA,""
"image-keyboard-response",353,346036,"0.0-3.114-0.114","71psd8v4c3a3gqp",241,"58.csv","","1143.199999988079","resources/trios/L1T2A3.jpg","39","restless",0.5,0.7,0.7,0.185870293461972,"true"
"image-keyboard-response",354,346446,"0.0-3.114-1.114","71psd8v4c3a3gqp",241,"58.csv","","null","resources/maskTrios/BBA3.jpg","null","",NA,NA,NA,NA,""
"image-keyboard-response",355,347655,"0.0-3.114-2.114","71psd8v4c3a3gqp",241,"58.csv","","null","resources/images/coin2.png","null","",NA,NA,NA,NA,""
"image-keyboard-response",356,348504,"0.0-3.115-0.115","71psd8v4c3a3gqp",241,"58.csv","","848.2000000178814","resources/trios/L1T2A3.jpg","38","restless",0.5,0.7,0.7,0.440912757225267,"true"
"image-keyboard-response",357,348908,"0.0-3.115-1.115","71psd8v4c3a3gqp",241,"58.csv","","null","resources/maskTrios/BT2B.jpg","null","",NA,NA,NA,NA,""
"image-keyboard-response",358,350119,"0.0-3.115-2.115","71psd8v4c3a3gqp",241,"58.csv","","null","resources/images/coin2.png","null","",NA,NA,NA,NA,""
"image-keyboard-response",359,350485,"0.0-3.116-0.116","71psd8v4c3a3gqp",241,"58.csv","","364.40000000596046","resources/trios/L1T1A1.jpg","37","restless",0.5,0.7,0.7,0.219126984087346,"true"
"image-keyboard-response",360,350892,"0.0-3.116-1.116","71psd8v4c3a3gqp",241,"58.csv","","null","resources/maskTrios/L1BB.jpg","null","",NA,NA,NA,NA,""
"image-keyboard-response",361,352100,"0.0-3.116-2.116","71psd8v4c3a3gqp",241,"58.csv","","null","resources/images/coin2.png","null","",NA,NA,NA,NA,""
"image-keyboard-response",362,352554,"0.0-3.117-0.117","71psd8v4c3a3gqp",241,"58.csv","","452.89999997615814","resources/trios/L1T2A1.jpg","38","restless",0.6,0.7,0.7,0.636622753279256,"true"
"image-keyboard-response",363,352963,"0.0-3.117-1.117","71psd8v4c3a3gqp",241,"58.csv","","null","resources/maskTrios/BT2B.jpg","null","",NA,NA,NA,NA,""
"image-keyboard-response",364,354171,"0.0-3.117-2.117","71psd8v4c3a3gqp",241,"58.csv","","null","resources/images/coin2.png","null","",NA,NA,NA,NA,""
"image-keyboard-response",365,354869,"0.0-3.118-0.118","71psd8v4c3a3gqp",241,"58.csv","","696.7999999821186","resources/trios/L1T2A3.jpg","37","restless",0.6,0.7,0.7,0.658401139387738,"false"
"image-keyboard-response",366,355276,"0.0-3.118-1.118","71psd8v4c3a3gqp",241,"58.csv","","null","resources/maskTrios/L1BB.jpg","null","",NA,NA,NA,NA,""
"image-keyboard-response",367,356483,"0.0-3.118-2.118","71psd8v4c3a3gqp",241,"58.csv","","null","resources/images/fishbone.png","null","",NA,NA,NA,NA,""
"image-keyboard-response",368,356979,"0.0-3.119-0.119","71psd8v4c3a3gqp",241,"58.csv","","495.5","resources/trios/L2T2A1.jpg","38","restless",0.6,0.6,0.7,0.282227194265025,"true"
"image-keyboard-response",369,357388,"0.0-3.119-1.119","71psd8v4c3a3gqp",241,"58.csv","","null","resources/maskTrios/BT2B.jpg","null","",NA,NA,NA,NA,""
"image-keyboard-response",370,358596,"0.0-3.119-2.119","71psd8v4c3a3gqp",241,"58.csv","","null","resources/images/coin2.png","null","",NA,NA,NA,NA,""
"image-keyboard-response",371,359105,"0.0-3.120-0.120","71psd8v4c3a3gqp",241,"58.csv","","508.89999997615814","resources/trios/L1T2A3.jpg","39","restless",0.5,0.6,0.7,0.111866277638152,"true"
"image-keyboard-response",372,359516,"0.0-3.120-1.120","71psd8v4c3a3gqp",241,"58.csv","","null","resources/maskTrios/BBA3.jpg","null","",NA,NA,NA,NA,""
"image-keyboard-response",373,360723,"0.0-3.120-2.120","71psd8v4c3a3gqp",241,"58.csv","","null","resources/images/coin2.png","null","",NA,NA,NA,NA,""
"image-keyboard-response",374,361335,"0.0-3.121-0.121","71psd8v4c3a3gqp",241,"58.csv","","611.6999999880791","resources/trios/L2T2A3.jpg","38","restless",0.5,0.6,0.7,0.845187230059061,"false"
"image-keyboard-response",375,361738,"0.0-3.121-1.121","71psd8v4c3a3gqp",241,"58.csv","","null","resources/maskTrios/BT2B.jpg","null","",NA,NA,NA,NA,""
"image-keyboard-response",376,362946,"0.0-3.121-2.121","71psd8v4c3a3gqp",241,"58.csv","","null","resources/images/fishbone.png","null","",NA,NA,NA,NA,""
"image-keyboard-response",377,363471,"0.0-3.122-0.122","71psd8v4c3a3gqp",241,"58.csv","","524.8000000119209","resources/trios/L1T2A3.jpg","37","restless",0.5,0.6,0.7,0.00729176588903169,"true"
"image-keyboard-response",378,363875,"0.0-3.122-1.122","71psd8v4c3a3gqp",241,"58.csv","","null","resources/maskTrios/L1BB.jpg","null","",NA,NA,NA,NA,""
"image-keyboard-response",379,365083,"0.0-3.122-2.122","71psd8v4c3a3gqp",241,"58.csv","","null","resources/images/coin2.png","null","",NA,NA,NA,NA,""
"image-keyboard-response",380,365553,"0.0-3.123-0.123","71psd8v4c3a3gqp",241,"58.csv","","469.2999999821186","resources/trios/L2T1A1.jpg","39","restless",0.5,0.6,0.7,0.397584985518393,"true"
"image-keyboard-response",381,365963,"0.0-3.123-1.123","71psd8v4c3a3gqp",241,"58.csv","","null","resources/maskTrios/BBA1.jpg","null","",NA,NA,NA,NA,""
"image-keyboard-response",382,367171,"0.0-3.123-2.123","71psd8v4c3a3gqp",241,"58.csv","","null","resources/images/coin2.png","null","",NA,NA,NA,NA,""
"image-keyboard-response",383,368341,"0.0-3.124-0.124","71psd8v4c3a3gqp",241,"58.csv","","1169.300000011921","resources/trios/L2T2A1.jpg","37","restless",0.4,0.6,0.7,0.0558855285480639,"true"
"image-keyboard-response",384,368746,"0.0-3.124-1.124","71psd8v4c3a3gqp",241,"58.csv","","null","resources/maskTrios/L2BB.jpg","null","",NA,NA,NA,NA,""
"image-keyboard-response",385,369955,"0.0-3.124-2.124","71psd8v4c3a3gqp",241,"58.csv","","null","resources/images/coin2.png","null","",NA,NA,NA,NA,""
"image-keyboard-response",386,370965,"0.0-3.125-0.125","71psd8v4c3a3gqp",241,"58.csv","","1009.0999999940395","resources/trios/L2T1A3.jpg","39","restless",0.4,0.6,0.7,0.878306650746186,"false"
"image-keyboard-response",387,371371,"0.0-3.125-1.125","71psd8v4c3a3gqp",241,"58.csv","","null","resources/maskTrios/BBA3.jpg","null","",NA,NA,NA,NA,""
"image-keyboard-response",388,372579,"0.0-3.125-2.125","71psd8v4c3a3gqp",241,"58.csv","","null","resources/images/fishbone.png","null","",NA,NA,NA,NA,""
"image-keyboard-response",389,372911,"0.0-3.126-0.126","71psd8v4c3a3gqp",241,"58.csv","","330.90000000596046","resources/trios/L1T1A3.jpg","38","restless",0.4,0.6,0.7,0.338370429795591,"true"
"image-keyboard-response",390,373315,"0.0-3.126-1.126","71psd8v4c3a3gqp",241,"58.csv","","null","resources/maskTrios/BT1B.jpg","null","",NA,NA,NA,NA,""
"image-keyboard-response",391,374521,"0.0-3.126-2.126","71psd8v4c3a3gqp",241,"58.csv","","null","resources/images/coin2.png","null","",NA,NA,NA,NA,""
"image-keyboard-response",392,375982,"0.0-3.127-0.127","71psd8v4c3a3gqp",241,"58.csv","","1460.4000000059605","resources/trios/L1T2A3.jpg","37","restless",0.4,0.6,0.7,0.524549937526003,"false"
"image-keyboard-response",393,376388,"0.0-3.127-1.127","71psd8v4c3a3gqp",241,"58.csv","","null","resources/maskTrios/L1BB.jpg","null","",NA,NA,NA,NA,""
"image-keyboard-response",394,377596,"0.0-3.127-2.127","71psd8v4c3a3gqp",241,"58.csv","","null","resources/images/fishbone.png","null","",NA,NA,NA,NA,""
"image-keyboard-response",395,378169,"0.0-3.128-0.128","71psd8v4c3a3gqp",241,"58.csv","","572.4000000059605","resources/trios/L1T2A3.jpg","38","restless",0.4,0.6,0.7,0.413524624291751,"true"
"image-keyboard-response",396,378579,"0.0-3.128-1.128","71psd8v4c3a3gqp",241,"58.csv","","null","resources/maskTrios/BT2B.jpg","null","",NA,NA,NA,NA,""
"image-keyboard-response",397,379788,"0.0-3.128-2.128","71psd8v4c3a3gqp",241,"58.csv","","null","resources/images/coin2.png","null","",NA,NA,NA,NA,""
"image-keyboard-response",398,380326,"0.0-3.129-0.129","71psd8v4c3a3gqp",241,"58.csv","","537.5","resources/trios/L2T2A1.jpg","39","restless",0.4,0.6,0.7,0.621610802338068,"true"
"image-keyboard-response",399,380729,"0.0-3.129-1.129","71psd8v4c3a3gqp",241,"58.csv","","null","resources/maskTrios/BBA1.jpg","null","",NA,NA,NA,NA,""
"image-keyboard-response",400,381938,"0.0-3.129-2.129","71psd8v4c3a3gqp",241,"58.csv","","null","resources/images/coin2.png","null","",NA,NA,NA,NA,""
"image-keyboard-response",401,382596,"0.0-3.130-0.130","71psd8v4c3a3gqp",241,"58.csv","","657.3000000119209","resources/trios/L1T1A1.jpg","38","restless",0.4,0.6,0.7,0.660807758897082,"false"
"image-keyboard-response",402,383004,"0.0-3.130-1.130","71psd8v4c3a3gqp",241,"58.csv","","null","resources/maskTrios/BT1B.jpg","null","",NA,NA,NA,NA,""
"image-keyboard-response",403,384212,"0.0-3.130-2.130","71psd8v4c3a3gqp",241,"58.csv","","null","resources/images/fishbone.png","null","",NA,NA,NA,NA,""
"image-keyboard-response",404,384923,"0.0-3.131-0.131","71psd8v4c3a3gqp",241,"58.csv","","709.7999999821186","resources/trios/L1T2A3.jpg","39","restless",0.4,0.6,0.7,0.375601146676906,"true"
"image-keyboard-response",405,385329,"0.0-3.131-1.131","71psd8v4c3a3gqp",241,"58.csv","","null","resources/maskTrios/BBA3.jpg","null","",NA,NA,NA,NA,""
"image-keyboard-response",406,386538,"0.0-3.131-2.131","71psd8v4c3a3gqp",241,"58.csv","","null","resources/images/coin2.png","null","",NA,NA,NA,NA,""
"image-keyboard-response",407,387279,"0.0-3.132-0.132","71psd8v4c3a3gqp",241,"58.csv","","740.0999999940395","resources/trios/L2T2A3.jpg","37","restless",0.4,0.6,0.7,0.155992131771015,"true"
"image-keyboard-response",408,387681,"0.0-3.132-1.132","71psd8v4c3a3gqp",241,"58.csv","","null","resources/maskTrios/L2BB.jpg","null","",NA,NA,NA,NA,""
"image-keyboard-response",409,388890,"0.0-3.132-2.132","71psd8v4c3a3gqp",241,"58.csv","","null","resources/images/coin2.png","null","",NA,NA,NA,NA,""
"image-keyboard-response",410,389842,"0.0-3.133-0.133","71psd8v4c3a3gqp",241,"58.csv","","950.9000000059605","resources/trios/L1T1A3.jpg","39","restless",0.4,0.6,0.7,0.70045898554837,"false"
"image-keyboard-response",411,390249,"0.0-3.133-1.133","71psd8v4c3a3gqp",241,"58.csv","","null","resources/maskTrios/BBA3.jpg","null","",NA,NA,NA,NA,""
"image-keyboard-response",412,391457,"0.0-3.133-2.133","71psd8v4c3a3gqp",241,"58.csv","","null","resources/images/fishbone.png","null","",NA,NA,NA,NA,""
"image-keyboard-response",413,391944,"0.0-3.134-0.134","71psd8v4c3a3gqp",241,"58.csv","","485.80000001192093","resources/trios/L1T2A3.jpg","38","restless",0.4,0.6,0.7,0.890694540532823,"false"
"image-keyboard-response",414,392354,"0.0-3.134-1.134","71psd8v4c3a3gqp",241,"58.csv","","null","resources/maskTrios/BT2B.jpg","null","",NA,NA,NA,NA,""
"image-keyboard-response",415,393562,"0.0-3.134-2.134","71psd8v4c3a3gqp",241,"58.csv","","null","resources/images/fishbone.png","null","",NA,NA,NA,NA,""
"image-keyboard-response",416,394312,"0.0-3.135-0.135","71psd8v4c3a3gqp",241,"58.csv","","749.1999999880791","resources/trios/L2T2A1.jpg","37","restless",0.4,0.7,0.7,0.0815109363290794,"true"
"image-keyboard-response",417,394721,"0.0-3.135-1.135","71psd8v4c3a3gqp",241,"58.csv","","null","resources/maskTrios/L2BB.jpg","null","",NA,NA,NA,NA,""
"image-keyboard-response",418,395929,"0.0-3.135-2.135","71psd8v4c3a3gqp",241,"58.csv","","null","resources/images/coin2.png","null","",NA,NA,NA,NA,""
"image-keyboard-response",419,396642,"0.0-3.136-0.136","71psd8v4c3a3gqp",241,"58.csv","","712.1999999880791","resources/trios/L2T1A1.jpg","37","restless",0.4,0.7,0.7,0.0735484235885402,"true"
"image-keyboard-response",420,397050,"0.0-3.136-1.136","71psd8v4c3a3gqp",241,"58.csv","","null","resources/maskTrios/L2BB.jpg","null","",NA,NA,NA,NA,""
"image-keyboard-response",421,398257,"0.0-3.136-2.136","71psd8v4c3a3gqp",241,"58.csv","","null","resources/images/coin2.png","null","",NA,NA,NA,NA,""
"image-keyboard-response",422,398723,"0.0-3.137-0.137","71psd8v4c3a3gqp",241,"58.csv","","464.80000001192093","resources/trios/L1T1A3.jpg","37","restless",0.4,0.7,0.7,0.711849437076471,"false"
"image-keyboard-response",423,399129,"0.0-3.137-1.137","71psd8v4c3a3gqp",241,"58.csv","","null","resources/maskTrios/L1BB.jpg","null","",NA,NA,NA,NA,""
"image-keyboard-response",424,400338,"0.0-3.137-2.137","71psd8v4c3a3gqp",241,"58.csv","","null","resources/images/fishbone.png","null","",NA,NA,NA,NA,""
"image-keyboard-response",425,400864,"0.0-3.138-0.138","71psd8v4c3a3gqp",241,"58.csv","","524.9000000059605","resources/trios/L2T2A3.jpg","38","restless",0.4,0.7,0.7,0.785870311740578,"false"
"image-keyboard-response",426,401273,"0.0-3.138-1.138","71psd8v4c3a3gqp",241,"58.csv","","null","resources/maskTrios/BT2B.jpg","null","",NA,NA,NA,NA,""
"image-keyboard-response",427,402481,"0.0-3.138-2.138","71psd8v4c3a3gqp",241,"58.csv","","null","resources/images/fishbone.png","null","",NA,NA,NA,NA,""
"image-keyboard-response",428,402976,"0.0-3.139-0.139","71psd8v4c3a3gqp",241,"58.csv","","494.30000001192093","resources/trios/L1T1A3.jpg","39","restless",0.4,0.7,0.7,0.503574493315052,"true"
"image-keyboard-response",429,403388,"0.0-3.139-1.139","71psd8v4c3a3gqp",241,"58.csv","","null","resources/maskTrios/BBA3.jpg","null","",NA,NA,NA,NA,""
"image-keyboard-response",430,404596,"0.0-3.139-2.139","71psd8v4c3a3gqp",241,"58.csv","","null","resources/images/coin2.png","null","",NA,NA,NA,NA,""
"image-keyboard-response",431,406342,"0.0-3.140-0.140","71psd8v4c3a3gqp",241,"58.csv","","1745.699999988079","resources/trios/L1T1A1.jpg","39","restless",0.4,0.7,0.7,0.570944366935942,"true"
"image-keyboard-response",432,406745,"0.0-3.140-1.140","71psd8v4c3a3gqp",241,"58.csv","","null","resources/maskTrios/BBA1.jpg","null","",NA,NA,NA,NA,""
"image-keyboard-response",433,407954,"0.0-3.140-2.140","71psd8v4c3a3gqp",241,"58.csv","","null","resources/images/coin2.png","null","",NA,NA,NA,NA,""
"image-keyboard-response",434,408438,"0.0-3.141-0.141","71psd8v4c3a3gqp",241,"58.csv","","482.40000000596046","resources/trios/L1T1A1.jpg","37","restless",0.4,0.7,0.7,0.53908460257752,"false"
"image-keyboard-response",435,408840,"0.0-3.141-1.141","71psd8v4c3a3gqp",241,"58.csv","","null","resources/maskTrios/L1BB.jpg","null","",NA,NA,NA,NA,""
"image-keyboard-response",436,410048,"0.0-3.141-2.141","71psd8v4c3a3gqp",241,"58.csv","","null","resources/images/fishbone.png","null","",NA,NA,NA,NA,""
"image-keyboard-response",437,410517,"0.0-3.142-0.142","71psd8v4c3a3gqp",241,"58.csv","","467.90000000596046","resources/trios/L2T1A1.jpg","38","restless",0.4,0.7,0.7,0.0612072278197338,"true"
"image-keyboard-response",438,410921,"0.0-3.142-1.142","71psd8v4c3a3gqp",241,"58.csv","","null","resources/maskTrios/BT1B.jpg","null","",NA,NA,NA,NA,""
"image-keyboard-response",439,412129,"0.0-3.142-2.142","71psd8v4c3a3gqp",241,"58.csv","","null","resources/images/coin2.png","null","",NA,NA,NA,NA,""
"image-keyboard-response",440,412944,"0.0-3.143-0.143","71psd8v4c3a3gqp",241,"58.csv","","814.5","resources/trios/L1T1A1.jpg","38","restless",0.4,0.7,0.7,0.512526498023244,"true"
"image-keyboard-response",441,413354,"0.0-3.143-1.143","71psd8v4c3a3gqp",241,"58.csv","","null","resources/maskTrios/BT1B.jpg","null","",NA,NA,NA,NA,""
"image-keyboard-response",442,414562,"0.0-3.143-2.143","71psd8v4c3a3gqp",241,"58.csv","","null","resources/images/coin2.png","null","",NA,NA,NA,NA,""
"image-keyboard-response",443,415395,"0.0-3.144-0.144","71psd8v4c3a3gqp",241,"58.csv","","832.0999999940395","resources/trios/L2T2A3.jpg","39","restless",0.4,0.7,0.7,0.352164905546265,"true"
"image-keyboard-response",444,415804,"0.0-3.144-1.144","71psd8v4c3a3gqp",241,"58.csv","","null","resources/maskTrios/BBA3.jpg","null","",NA,NA,NA,NA,""
"image-keyboard-response",445,417008,"0.0-3.144-2.144","71psd8v4c3a3gqp",241,"58.csv","","null","resources/images/coin2.png","null","",NA,NA,NA,NA,""
"image-keyboard-response",446,419209,"0.0-3.145-0.145","71psd8v4c3a3gqp",241,"58.csv","","2200.100000023842","resources/trios/L2T1A1.jpg","39","restless",0.4,0.7,0.7,0.136424252832716,"true"
"image-keyboard-response",447,419615,"0.0-3.145-1.145","71psd8v4c3a3gqp",241,"58.csv","","null","resources/maskTrios/BBA1.jpg","null","",NA,NA,NA,NA,""
"image-keyboard-response",448,420826,"0.0-3.145-2.145","71psd8v4c3a3gqp",241,"58.csv","","null","resources/images/coin2.png","null","",NA,NA,NA,NA,""
"image-keyboard-response",449,423720,"0.0-3.146-0.146","71psd8v4c3a3gqp",241,"58.csv","","2893.300000011921","resources/trios/L2T2A1.jpg","39","restless",0.4,0.7,0.7,0.934347686267291,"false"
"image-keyboard-response",450,424129,"0.0-3.146-1.146","71psd8v4c3a3gqp",241,"58.csv","","null","resources/maskTrios/BBA1.jpg","null","",NA,NA,NA,NA,""
"image-keyboard-response",451,425337,"0.0-3.146-2.146","71psd8v4c3a3gqp",241,"58.csv","","null","resources/images/fishbone.png","null","",NA,NA,NA,NA,""
"image-keyboard-response",452,426252,"0.0-3.147-0.147","71psd8v4c3a3gqp",241,"58.csv","","914.0999999940395","resources/trios/L2T1A3.jpg","38","restless",0.4,0.7,0.7,0.439165040153556,"true"
"image-keyboard-response",453,426656,"0.0-3.147-1.147","71psd8v4c3a3gqp",241,"58.csv","","null","resources/maskTrios/BT1B.jpg","null","",NA,NA,NA,NA,""
"image-keyboard-response",454,427863,"0.0-3.147-2.147","71psd8v4c3a3gqp",241,"58.csv","","null","resources/images/coin2.png","null","",NA,NA,NA,NA,""
"image-keyboard-response",455,429353,"0.0-3.148-0.148","71psd8v4c3a3gqp",241,"58.csv","","1488.5","resources/trios/L1T1A1.jpg","37","restless",0.4,0.7,0.7,0.111083592922329,"true"
"image-keyboard-response",456,429762,"0.0-3.148-1.148","71psd8v4c3a3gqp",241,"58.csv","","null","resources/maskTrios/L1BB.jpg","null","",NA,NA,NA,NA,""
"image-keyboard-response",457,430971,"0.0-3.148-2.148","71psd8v4c3a3gqp",241,"58.csv","","null","resources/images/coin2.png","null","",NA,NA,NA,NA,""
"image-keyboard-response",458,431592,"0.0-3.149-0.149","71psd8v4c3a3gqp",241,"58.csv","","619.8000000119209","resources/trios/L1T1A1.jpg","38","restless",0.4,0.7,0.7,0.06442575760785,"true"
"image-keyboard-response",459,432000,"0.0-3.149-1.149","71psd8v4c3a3gqp",241,"58.csv","","null","resources/maskTrios/BT1B.jpg","null","",NA,NA,NA,NA,""
"image-keyboard-response",460,433208,"0.0-3.149-2.149","71psd8v4c3a3gqp",241,"58.csv","","null","resources/images/coin2.png","null","",NA,NA,NA,NA,""
"image-keyboard-response",461,433771,"0.0-3.150-0.150","71psd8v4c3a3gqp",241,"58.csv","","562.9000000059605","resources/trios/L2T1A3.jpg","38","restless",0.4,0.7,0.7,0.210327613732312,"true"
"image-keyboard-response",462,434179,"0.0-3.150-1.150","71psd8v4c3a3gqp",241,"58.csv","","null","resources/maskTrios/BT1B.jpg","null","",NA,NA,NA,NA,""
"image-keyboard-response",463,435387,"0.0-3.150-2.150","71psd8v4c3a3gqp",241,"58.csv","","null","resources/images/coin2.png","null","",NA,NA,NA,NA,""
"image-keyboard-response",464,436440,"0.0-3.151-0.151","71psd8v4c3a3gqp",241,"58.csv","","1051.7999999821186","resources/trios/L1T2A3.jpg","37","restless",0.4,0.7,0.7,0.39069430158516,"true"
"image-keyboard-response",465,436848,"0.0-3.151-1.151","71psd8v4c3a3gqp",241,"58.csv","","null","resources/maskTrios/L1BB.jpg","null","",NA,NA,NA,NA,""
"image-keyboard-response",466,438054,"0.0-3.151-2.151","71psd8v4c3a3gqp",241,"58.csv","","null","resources/images/coin2.png","null","",NA,NA,NA,NA,""
"image-keyboard-response",467,438618,"0.0-3.152-0.152","71psd8v4c3a3gqp",241,"58.csv","","563","resources/trios/L1T1A1.jpg","38","restless",0.4,0.7,0.7,0.326030880813455,"true"
"image-keyboard-response",468,439027,"0.0-3.152-1.152","71psd8v4c3a3gqp",241,"58.csv","","null","resources/maskTrios/BT1B.jpg","null","",NA,NA,NA,NA,""
"image-keyboard-response",469,440230,"0.0-3.152-2.152","71psd8v4c3a3gqp",241,"58.csv","","null","resources/images/coin2.png","null","",NA,NA,NA,NA,""
"image-keyboard-response",470,440744,"0.0-3.153-0.153","71psd8v4c3a3gqp",241,"58.csv","","513.2999999821186","resources/trios/L2T2A3.jpg","37","restless",0.4,0.7,0.6,0.972756294286516,"false"
"image-keyboard-response",471,441154,"0.0-3.153-1.153","71psd8v4c3a3gqp",241,"58.csv","","null","resources/maskTrios/L2BB.jpg","null","",NA,NA,NA,NA,""
"image-keyboard-response",472,442362,"0.0-3.153-2.153","71psd8v4c3a3gqp",241,"58.csv","","null","resources/images/fishbone.png","null","",NA,NA,NA,NA,""
"image-keyboard-response",473,442684,"0.0-3.154-0.154","71psd8v4c3a3gqp",241,"58.csv","","321.7000000178814","resources/trios/L1T2A3.jpg","38","restless",0.4,0.6,0.6,0.536585146673068,"true"
"image-keyboard-response",474,443087,"0.0-3.154-1.154","71psd8v4c3a3gqp",241,"58.csv","","null","resources/maskTrios/BT2B.jpg","null","",NA,NA,NA,NA,""
"image-keyboard-response",475,444295,"0.0-3.154-2.154","71psd8v4c3a3gqp",241,"58.csv","","null","resources/images/coin2.png","null","",NA,NA,NA,NA,""
"image-keyboard-response",476,444768,"0.0-3.155-0.155","71psd8v4c3a3gqp",241,"58.csv","","470.69999998807907","resources/trios/L2T1A1.jpg","38","restless",0.4,0.7,0.6,0.219433107676948,"true"
"image-keyboard-response",477,445179,"0.0-3.155-1.155","71psd8v4c3a3gqp",241,"58.csv","","null","resources/maskTrios/BT1B.jpg","null","",NA,NA,NA,NA,""
"image-keyboard-response",478,446383,"0.0-3.155-2.155","71psd8v4c3a3gqp",241,"58.csv","","null","resources/images/coin2.png","null","",NA,NA,NA,NA,""
"image-keyboard-response",479,446916,"0.0-3.156-0.156","71psd8v4c3a3gqp",241,"58.csv","","531","resources/trios/L2T2A3.jpg","39","restless",0.4,0.7,0.6,0.433974369632446,"true"
"image-keyboard-response",480,447329,"0.0-3.156-1.156","71psd8v4c3a3gqp",241,"58.csv","","null","resources/maskTrios/BBA3.jpg","null","",NA,NA,NA,NA,""
"image-keyboard-response",481,448537,"0.0-3.156-2.156","71psd8v4c3a3gqp",241,"58.csv","","null","resources/images/coin2.png","null","",NA,NA,NA,NA,""
"image-keyboard-response",482,449144,"0.0-3.157-0.157","71psd8v4c3a3gqp",241,"58.csv","","605.8999999761581","resources/trios/L2T2A3.jpg","37","restless",0.4,0.7,0.6,0.103949295681486,"true"
"image-keyboard-response",483,449550,"0.0-3.157-1.157","71psd8v4c3a3gqp",241,"58.csv","","null","resources/maskTrios/L2BB.jpg","null","",NA,NA,NA,NA,""
"image-keyboard-response",484,450762,"0.0-3.157-2.157","71psd8v4c3a3gqp",241,"58.csv","","null","resources/images/coin2.png","null","",NA,NA,NA,NA,""
"image-keyboard-response",485,451261,"0.0-3.158-0.158","71psd8v4c3a3gqp",241,"58.csv","","498.59999999403954","resources/trios/L1T1A1.jpg","39","restless",0.4,0.7,0.7,0.0742606487078006,"true"
"image-keyboard-response",486,451671,"0.0-3.158-1.158","71psd8v4c3a3gqp",241,"58.csv","","null","resources/maskTrios/BBA1.jpg","null","",NA,NA,NA,NA,""
"image-keyboard-response",487,452878,"0.0-3.158-2.158","71psd8v4c3a3gqp",241,"58.csv","","null","resources/images/coin2.png","null","",NA,NA,NA,NA,""
"image-keyboard-response",488,453218,"0.0-3.159-0.159","71psd8v4c3a3gqp",241,"58.csv","","338.59999999403954","resources/trios/L2T1A1.jpg","38","restless",0.4,0.6,0.7,0.168962811187973,"true"
"image-keyboard-response",489,453622,"0.0-3.159-1.159","71psd8v4c3a3gqp",241,"58.csv","","null","resources/maskTrios/BT1B.jpg","null","",NA,NA,NA,NA,""
"image-keyboard-response",490,454829,"0.0-3.159-2.159","71psd8v4c3a3gqp",241,"58.csv","","null","resources/images/coin2.png","null","",NA,NA,NA,NA,""
"image-keyboard-response",491,455156,"0.0-3.160-0.160","71psd8v4c3a3gqp",241,"58.csv","","325.5","resources/trios/L2T1A3.jpg","37","restless",0.3,0.6,0.7,0.53030877955192,"false"
"image-keyboard-response",492,455562,"0.0-3.160-1.160","71psd8v4c3a3gqp",241,"58.csv","","null","resources/maskTrios/L2BB.jpg","null","",NA,NA,NA,NA,""
"image-keyboard-response",493,456767,"0.0-3.160-2.160","71psd8v4c3a3gqp",241,"58.csv","","null","resources/images/fishbone.png","null","",NA,NA,NA,NA,""
"image-keyboard-response",494,457089,"0.0-3.161-0.161","71psd8v4c3a3gqp",241,"58.csv","","319.89999997615814","resources/trios/L1T1A3.jpg","38","restless",0.3,0.6,0.7,0.54525569264506,"true"
"image-keyboard-response",495,457495,"0.0-3.161-1.161","71psd8v4c3a3gqp",241,"58.csv","","null","resources/maskTrios/BT1B.jpg","null","",NA,NA,NA,NA,""
"image-keyboard-response",496,458704,"0.0-3.161-2.161","71psd8v4c3a3gqp",241,"58.csv","","null","resources/images/coin2.png","null","",NA,NA,NA,NA,""
"image-keyboard-response",497,459038,"0.0-3.162-0.162","71psd8v4c3a3gqp",241,"58.csv","","332.59999999403954","resources/trios/L1T1A3.jpg","39","restless",0.3,0.6,0.7,0.440879779649494,"true"
"image-keyboard-response",498,459445,"0.0-3.162-1.162","71psd8v4c3a3gqp",241,"58.csv","","null","resources/maskTrios/BBA3.jpg","null","",NA,NA,NA,NA,""
"image-keyboard-response",499,460654,"0.0-3.162-2.162","71psd8v4c3a3gqp",241,"58.csv","","null","resources/images/coin2.png","null","",NA,NA,NA,NA,""
"image-keyboard-response",500,460937,"0.0-3.163-0.163","71psd8v4c3a3gqp",241,"58.csv","","282.09999999403954","resources/trios/L2T1A1.jpg","38","restless",0.3,0.6,0.7,0.0717564273073199,"true"
"image-keyboard-response",501,461345,"0.0-3.163-1.163","71psd8v4c3a3gqp",241,"58.csv","","null","resources/maskTrios/BT1B.jpg","null","",NA,NA,NA,NA,""
"image-keyboard-response",502,462553,"0.0-3.163-2.163","71psd8v4c3a3gqp",241,"58.csv","","null","resources/images/coin2.png","null","",NA,NA,NA,NA,""
"image-keyboard-response",503,463004,"0.0-3.164-0.164","71psd8v4c3a3gqp",241,"58.csv","","449.5","resources/trios/L1T1A1.jpg","37","restless",0.3,0.6,0.7,0.812495439067703,"false"
"image-keyboard-response",504,463416,"0.0-3.164-1.164","71psd8v4c3a3gqp",241,"58.csv","","null","resources/maskTrios/L1BB.jpg","null","",NA,NA,NA,NA,""
"image-keyboard-response",505,464622,"0.0-3.164-2.164","71psd8v4c3a3gqp",241,"58.csv","","null","resources/images/fishbone.png","null","",NA,NA,NA,NA,""
"image-keyboard-response",506,464975,"0.0-3.165-0.165","71psd8v4c3a3gqp",241,"58.csv","","352","resources/trios/L2T1A3.jpg","38","restless",0.3,0.6,0.7,0.681585750728124,"false"
"image-keyboard-response",507,465382,"0.0-3.165-1.165","71psd8v4c3a3gqp",241,"58.csv","","null","resources/maskTrios/BT1B.jpg","null","",NA,NA,NA,NA,""
"image-keyboard-response",508,466590,"0.0-3.165-2.165","71psd8v4c3a3gqp",241,"58.csv","","null","resources/images/fishbone.png","null","",NA,NA,NA,NA,""
"image-keyboard-response",509,466886,"0.0-3.166-0.166","71psd8v4c3a3gqp",241,"58.csv","","294.60000002384186","resources/trios/L1T2A3.jpg","39","restless",0.3,0.6,0.7,0.936135091391025,"false"
"image-keyboard-response",510,467295,"0.0-3.166-1.166","71psd8v4c3a3gqp",241,"58.csv","","null","resources/maskTrios/BBA3.jpg","null","",NA,NA,NA,NA,""
"image-keyboard-response",511,468504,"0.0-3.166-2.166","71psd8v4c3a3gqp",241,"58.csv","","null","resources/images/fishbone.png","null","",NA,NA,NA,NA,""
"image-keyboard-response",512,468901,"0.0-3.167-0.167","71psd8v4c3a3gqp",241,"58.csv","","396.19999998807907","resources/trios/L2T1A3.jpg","39","restless",0.2,0.5,0.7,0.279041821024339,"true"
"image-keyboard-response",513,469312,"0.0-3.167-1.167","71psd8v4c3a3gqp",241,"58.csv","","null","resources/maskTrios/BBA3.jpg","null","",NA,NA,NA,NA,""
"image-keyboard-response",514,470520,"0.0-3.167-2.167","71psd8v4c3a3gqp",241,"58.csv","","null","resources/images/coin2.png","null","",NA,NA,NA,NA,""
"image-keyboard-response",515,471435,"0.0-3.168-0.168","71psd8v4c3a3gqp",241,"58.csv","","913.8999999761581","resources/trios/L1T2A1.jpg","39","restless",0.2,0.5,0.7,0.155562922090747,"true"
"image-keyboard-response",516,471845,"0.0-3.168-1.168","71psd8v4c3a3gqp",241,"58.csv","","null","resources/maskTrios/BBA1.jpg","null","",NA,NA,NA,NA,""
"image-keyboard-response",517,473054,"0.0-3.168-2.168","71psd8v4c3a3gqp",241,"58.csv","","null","resources/images/coin2.png","null","",NA,NA,NA,NA,""
"image-keyboard-response",518,473458,"0.0-3.169-0.169","71psd8v4c3a3gqp",241,"58.csv","","403.60000002384186","resources/trios/L1T2A3.jpg","39","restless",0.3,0.5,0.8,0.143426191578217,"true"
"image-keyboard-response",519,473862,"0.0-3.169-1.169","71psd8v4c3a3gqp",241,"58.csv","","null","resources/maskTrios/BBA3.jpg","null","",NA,NA,NA,NA,""
"image-keyboard-response",520,475071,"0.0-3.169-2.169","71psd8v4c3a3gqp",241,"58.csv","","null","resources/images/coin2.png","null","",NA,NA,NA,NA,""
"image-keyboard-response",521,475424,"0.0-3.170-0.170","71psd8v4c3a3gqp",241,"58.csv","","352.09999999403954","resources/trios/L1T1A1.jpg","39","restless",0.3,0.5,0.8,0.0796139663894697,"true"
"image-keyboard-response",522,475828,"0.0-3.170-1.170","71psd8v4c3a3gqp",241,"58.csv","","null","resources/maskTrios/BBA1.jpg","null","",NA,NA,NA,NA,""
"image-keyboard-response",523,477037,"0.0-3.170-2.170","71psd8v4c3a3gqp",241,"58.csv","","null","resources/images/coin2.png","null","",NA,NA,NA,NA,""
"image-keyboard-response",524,477431,"0.0-3.171-0.171","71psd8v4c3a3gqp",241,"58.csv","","392","resources/trios/L1T2A1.jpg","39","restless",0.3,0.5,0.7,0.267915304434617,"true"
"image-keyboard-response",525,477837,"0.0-3.171-1.171","71psd8v4c3a3gqp",241,"58.csv","","null","resources/maskTrios/BBA1.jpg","null","",NA,NA,NA,NA,""
"image-keyboard-response",526,479045,"0.0-3.171-2.171","71psd8v4c3a3gqp",241,"58.csv","","null","resources/images/coin2.png","null","",NA,NA,NA,NA,""
"image-keyboard-response",527,479361,"0.0-3.172-0.172","71psd8v4c3a3gqp",241,"58.csv","","315.40000000596046","resources/trios/L2T1A1.jpg","39","restless",0.3,0.5,0.7,0.294915314164533,"true"
"image-keyboard-response",528,479765,"0.0-3.172-1.172","71psd8v4c3a3gqp",241,"58.csv","","null","resources/maskTrios/BBA1.jpg","null","",NA,NA,NA,NA,""
"image-keyboard-response",529,480974,"0.0-3.172-2.172","71psd8v4c3a3gqp",241,"58.csv","","null","resources/images/coin2.png","null","",NA,NA,NA,NA,""
"image-keyboard-response",530,481328,"0.0-3.173-0.173","71psd8v4c3a3gqp",241,"58.csv","","352.40000000596046","resources/trios/L1T2A1.jpg","39","restless",0.3,0.5,0.7,0.933227601824653,"false"
"image-keyboard-response",531,481737,"0.0-3.173-1.173","71psd8v4c3a3gqp",241,"58.csv","","null","resources/maskTrios/BBA1.jpg","null","",NA,NA,NA,NA,""
"image-keyboard-response",532,482941,"0.0-3.173-2.173","71psd8v4c3a3gqp",241,"58.csv","","null","resources/images/fishbone.png","null","",NA,NA,NA,NA,""
"image-keyboard-response",533,483984,"0.0-3.174-0.174","71psd8v4c3a3gqp",241,"58.csv","","1042.5","resources/trios/L1T2A1.jpg","37","restless",0.3,0.4,0.7,0.321852868883089,"false"
"image-keyboard-response",534,484389,"0.0-3.174-1.174","71psd8v4c3a3gqp",241,"58.csv","","null","resources/maskTrios/L1BB.jpg","null","",NA,NA,NA,NA,""
"image-keyboard-response",535,485597,"0.0-3.174-2.174","71psd8v4c3a3gqp",241,"58.csv","","null","resources/images/fishbone.png","null","",NA,NA,NA,NA,""
"image-keyboard-response",536,485894,"0.0-3.175-0.175","71psd8v4c3a3gqp",241,"58.csv","","296.5","resources/trios/L2T1A1.jpg","38","restless",0.3,0.4,0.7,0.73294806555881,"false"
"image-keyboard-response",537,486304,"0.0-3.175-1.175","71psd8v4c3a3gqp",241,"58.csv","","null","resources/maskTrios/BT1B.jpg","null","",NA,NA,NA,NA,""
"image-keyboard-response",538,487512,"0.0-3.175-2.175","71psd8v4c3a3gqp",241,"58.csv","","null","resources/images/fishbone.png","null","",NA,NA,NA,NA,""
"image-keyboard-response",539,487829,"0.0-3.176-0.176","71psd8v4c3a3gqp",241,"58.csv","","316.30000001192093","resources/trios/L2T2A3.jpg","37","restless",0.3,0.3,0.7,0.0275752707495938,"true"
"image-keyboard-response",540,488237,"0.0-3.176-1.176","71psd8v4c3a3gqp",241,"58.csv","","null","resources/maskTrios/L2BB.jpg","null","",NA,NA,NA,NA,""
"image-keyboard-response",541,489445,"0.0-3.176-2.176","71psd8v4c3a3gqp",241,"58.csv","","null","resources/images/coin2.png","null","",NA,NA,NA,NA,""
"image-keyboard-response",542,490006,"0.0-3.177-0.177","71psd8v4c3a3gqp",241,"58.csv","","559.5","resources/trios/L1T1A1.jpg","37","restless",0.3,0.3,0.7,0.454308281784084,"false"
"image-keyboard-response",543,490412,"0.0-3.177-1.177","71psd8v4c3a3gqp",241,"58.csv","","null","resources/maskTrios/L1BB.jpg","null","",NA,NA,NA,NA,""
"image-keyboard-response",544,491620,"0.0-3.177-2.177","71psd8v4c3a3gqp",241,"58.csv","","null","resources/images/fishbone.png","null","",NA,NA,NA,NA,""
"image-keyboard-response",545,491965,"0.0-3.178-0.178","71psd8v4c3a3gqp",241,"58.csv","","343.59999999403954","resources/trios/L1T2A1.jpg","38","restless",0.3,0.3,0.6,0.466611410022123,"false"
"image-keyboard-response",546,492373,"0.0-3.178-1.178","71psd8v4c3a3gqp",241,"58.csv","","null","resources/maskTrios/BT2B.jpg","null","",NA,NA,NA,NA,""
"image-keyboard-response",547,493581,"0.0-3.178-2.178","71psd8v4c3a3gqp",241,"58.csv","","null","resources/images/fishbone.png","null","",NA,NA,NA,NA,""
"image-keyboard-response",548,494028,"0.0-3.179-0.179","71psd8v4c3a3gqp",241,"58.csv","","445.90000000596046","resources/trios/L2T2A3.jpg","39","restless",0.3,0.3,0.6,0.0315701838371536,"true"
"image-keyboard-response",549,494437,"0.0-3.179-1.179","71psd8v4c3a3gqp",241,"58.csv","","null","resources/maskTrios/BBA3.jpg","null","",NA,NA,NA,NA,""
"image-keyboard-response",550,495645,"0.0-3.179-2.179","71psd8v4c3a3gqp",241,"58.csv","","null","resources/images/coin2.png","null","",NA,NA,NA,NA,""
"image-keyboard-response",551,496031,"0.0-3.180-0.180","71psd8v4c3a3gqp",241,"58.csv","","385.09999999403954","resources/trios/L2T1A1.jpg","39","restless",0.3,0.3,0.6,0.769808445717222,"false"
"image-keyboard-response",552,496437,"0.0-3.180-1.180","71psd8v4c3a3gqp",241,"58.csv","","null","resources/maskTrios/BBA1.jpg","null","",NA,NA,NA,NA,""
"image-keyboard-response",553,497645,"0.0-3.180-2.180","71psd8v4c3a3gqp",241,"58.csv","","null","resources/images/fishbone.png","null","",NA,NA,NA,NA,""
"image-keyboard-response",554,498141,"0.0-3.181-0.181","71psd8v4c3a3gqp",241,"58.csv","","495.5","resources/trios/L1T1A1.jpg","38","restless",0.3,0.3,0.6,0.575289390230785,"false"
"image-keyboard-response",555,498549,"0.0-3.181-1.181","71psd8v4c3a3gqp",241,"58.csv","","null","resources/maskTrios/BT1B.jpg","null","",NA,NA,NA,NA,""
"image-keyboard-response",556,499756,"0.0-3.181-2.181","71psd8v4c3a3gqp",241,"58.csv","","null","resources/images/fishbone.png","null","",NA,NA,NA,NA,""
"image-keyboard-response",557,500101,"0.0-3.182-0.182","71psd8v4c3a3gqp",241,"58.csv","","343.90000000596046","resources/trios/L2T1A3.jpg","37","restless",0.3,0.3,0.6,0.413276097419356,"false"
"image-keyboard-response",558,500511,"0.0-3.182-1.182","71psd8v4c3a3gqp",241,"58.csv","","null","resources/maskTrios/L2BB.jpg","null","",NA,NA,NA,NA,""
"image-keyboard-response",559,501716,"0.0-3.182-2.182","71psd8v4c3a3gqp",241,"58.csv","","null","resources/images/fishbone.png","null","",NA,NA,NA,NA,""
"image-keyboard-response",560,502190,"0.0-3.183-0.183","71psd8v4c3a3gqp",241,"58.csv","","472.80000001192093","resources/trios/L2T2A3.jpg","38","restless",0.3,0.2,0.6,0.51699475954799,"false"
"image-keyboard-response",561,502595,"0.0-3.183-1.183","71psd8v4c3a3gqp",241,"58.csv","","null","resources/maskTrios/BT2B.jpg","null","",NA,NA,NA,NA,""
"image-keyboard-response",562,503804,"0.0-3.183-2.183","71psd8v4c3a3gqp",241,"58.csv","","null","resources/images/fishbone.png","null","",NA,NA,NA,NA,""
"image-keyboard-response",563,504434,"0.0-3.184-0.184","71psd8v4c3a3gqp",241,"58.csv","","629.9000000059605","resources/trios/L1T2A3.jpg","37","restless",0.4,0.2,0.6,0.818175585544106,"false"
"image-keyboard-response",564,504845,"0.0-3.184-1.184","71psd8v4c3a3gqp",241,"58.csv","","null","resources/maskTrios/L1BB.jpg","null","",NA,NA,NA,NA,""
"image-keyboard-response",565,506053,"0.0-3.184-2.184","71psd8v4c3a3gqp",241,"58.csv","","null","resources/images/fishbone.png","null","",NA,NA,NA,NA,""
"image-keyboard-response",566,506383,"0.0-3.185-0.185","71psd8v4c3a3gqp",241,"58.csv","","328.40000000596046","resources/trios/L2T1A3.jpg","39","restless",0.4,0.2,0.6,0.493013195891303,"true"
"image-keyboard-response",567,506787,"0.0-3.185-1.185","71psd8v4c3a3gqp",241,"58.csv","","null","resources/maskTrios/BBA3.jpg","null","",NA,NA,NA,NA,""
"image-keyboard-response",568,507995,"0.0-3.185-2.185","71psd8v4c3a3gqp",241,"58.csv","","null","resources/images/coin2.png","null","",NA,NA,NA,NA,""
"image-keyboard-response",569,508465,"0.0-3.186-0.186","71psd8v4c3a3gqp",241,"58.csv","","468.59999999403954","resources/trios/L1T1A1.jpg","39","restless",0.4,0.2,0.6,0.865923973399223,"false"
"image-keyboard-response",570,508870,"0.0-3.186-1.186","71psd8v4c3a3gqp",241,"58.csv","","null","resources/maskTrios/BBA1.jpg","null","",NA,NA,NA,NA,""
"image-keyboard-response",571,510078,"0.0-3.186-2.186","71psd8v4c3a3gqp",241,"58.csv","","null","resources/images/fishbone.png","null","",NA,NA,NA,NA,""
"image-keyboard-response",572,510443,"0.0-3.187-0.187","71psd8v4c3a3gqp",241,"58.csv","","364.2999999821186","resources/trios/L1T1A1.jpg","38","restless",0.4,0.2,0.6,0.853799757542584,"false"
"image-keyboard-response",573,510854,"0.0-3.187-1.187","71psd8v4c3a3gqp",241,"58.csv","","null","resources/maskTrios/BT1B.jpg","null","",NA,NA,NA,NA,""
"image-keyboard-response",574,512059,"0.0-3.187-2.187","71psd8v4c3a3gqp",241,"58.csv","","null","resources/images/fishbone.png","null","",NA,NA,NA,NA,""
"image-keyboard-response",575,512445,"0.0-3.188-0.188","71psd8v4c3a3gqp",241,"58.csv","","384.60000002384186","resources/trios/L2T2A3.jpg","37","restless",0.4,0.2,0.6,0.134883095807769,"true"
"image-keyboard-response",576,512854,"0.0-3.188-1.188","71psd8v4c3a3gqp",241,"58.csv","","null","resources/maskTrios/L2BB.jpg","null","",NA,NA,NA,NA,""
"image-keyboard-response",577,514061,"0.0-3.188-2.188","71psd8v4c3a3gqp",241,"58.csv","","null","resources/images/coin2.png","null","",NA,NA,NA,NA,""
"image-keyboard-response",578,514671,"0.0-3.189-0.189","71psd8v4c3a3gqp",241,"58.csv","","608.7999999821186","resources/trios/L1T1A1.jpg","37","restless",0.5,0.2,0.5,0.44403698423506,"true"
"image-keyboard-response",579,515078,"0.0-3.189-1.189","71psd8v4c3a3gqp",241,"58.csv","","null","resources/maskTrios/L1BB.jpg","null","",NA,NA,NA,NA,""
"image-keyboard-response",580,516287,"0.0-3.189-2.189","71psd8v4c3a3gqp",241,"58.csv","","null","resources/images/coin2.png","null","",NA,NA,NA,NA,""
"image-keyboard-response",581,516873,"0.0-3.190-0.190","71psd8v4c3a3gqp",241,"58.csv","","584.2000000178814","resources/trios/L2T2A3.jpg","37","restless",0.5,0.2,0.5,0.670344629242869,"false"
"image-keyboard-response",582,517287,"0.0-3.190-1.190","71psd8v4c3a3gqp",241,"58.csv","","null","resources/maskTrios/L2BB.jpg","null","",NA,NA,NA,NA,""
"image-keyboard-response",583,518495,"0.0-3.190-2.190","71psd8v4c3a3gqp",241,"58.csv","","null","resources/images/fishbone.png","null","",NA,NA,NA,NA,""
"image-keyboard-response",584,519002,"0.0-3.191-0.191","71psd8v4c3a3gqp",241,"58.csv","","506.30000001192093","resources/trios/L2T2A3.jpg","37","restless",0.5,0.2,0.5,0.2506204177411,"true"
"image-keyboard-response",585,519411,"0.0-3.191-1.191","71psd8v4c3a3gqp",241,"58.csv","","null","resources/maskTrios/L2BB.jpg","null","",NA,NA,NA,NA,""
"image-keyboard-response",586,520620,"0.0-3.191-2.191","71psd8v4c3a3gqp",241,"58.csv","","null","resources/images/coin2.png","null","",NA,NA,NA,NA,""
"image-keyboard-response",587,520992,"0.0-3.192-0.192","71psd8v4c3a3gqp",241,"58.csv","","370.19999998807907","resources/trios/L2T2A3.jpg","37","restless",0.5,0.2,0.5,0.812950263666101,"false"
"image-keyboard-response",588,521395,"0.0-3.192-1.192","71psd8v4c3a3gqp",241,"58.csv","","null","resources/maskTrios/L2BB.jpg","null","",NA,NA,NA,NA,""
"image-keyboard-response",589,522603,"0.0-3.192-2.192","71psd8v4c3a3gqp",241,"58.csv","","null","resources/images/fishbone.png","null","",NA,NA,NA,NA,""
"image-keyboard-response",590,523198,"0.0-3.193-0.193","71psd8v4c3a3gqp",241,"58.csv","","593.5","resources/trios/L1T1A3.jpg","37","restless",0.5,0.3,0.5,0.457574483048797,"true"
"image-keyboard-response",591,523603,"0.0-3.193-1.193","71psd8v4c3a3gqp",241,"58.csv","","null","resources/maskTrios/L1BB.jpg","null","",NA,NA,NA,NA,""
"image-keyboard-response",592,524811,"0.0-3.193-2.193","71psd8v4c3a3gqp",241,"58.csv","","null","resources/images/coin2.png","null","",NA,NA,NA,NA,""
"image-keyboard-response",593,525191,"0.0-3.194-0.194","71psd8v4c3a3gqp",241,"58.csv","","378.89999997615814","resources/trios/L2T1A1.jpg","37","restless",0.5,0.3,0.5,0.404315466565783,"true"
"image-keyboard-response",594,525595,"0.0-3.194-1.194","71psd8v4c3a3gqp",241,"58.csv","","null","resources/maskTrios/L2BB.jpg","null","",NA,NA,NA,NA,""
"image-keyboard-response",595,526803,"0.0-3.194-2.194","71psd8v4c3a3gqp",241,"58.csv","","null","resources/images/coin2.png","null","",NA,NA,NA,NA,""
"image-keyboard-response",596,527164,"0.0-3.195-0.195","71psd8v4c3a3gqp",241,"58.csv","","359.2000000178814","resources/trios/L1T1A1.jpg","37","restless",0.5,0.3,0.5,0.00513530643605864,"true"
"image-keyboard-response",597,527570,"0.0-3.195-1.195","71psd8v4c3a3gqp",241,"58.csv","","null","resources/maskTrios/L1BB.jpg","null","",NA,NA,NA,NA,""
"image-keyboard-response",598,528778,"0.0-3.195-2.195","71psd8v4c3a3gqp",241,"58.csv","","null","resources/images/coin2.png","null","",NA,NA,NA,NA,""
"image-keyboard-response",599,529890,"0.0-3.196-0.196","71psd8v4c3a3gqp",241,"58.csv","","1111.300000011921","resources/trios/L1T2A3.jpg","39","restless",0.5,0.3,0.5,0.774756642995111,"false"
"image-keyboard-response",600,530299,"0.0-3.196-1.196","71psd8v4c3a3gqp",241,"58.csv","","null","resources/maskTrios/BBA3.jpg","null","",NA,NA,NA,NA,""
"image-keyboard-response",601,531505,"0.0-3.196-2.196","71psd8v4c3a3gqp",241,"58.csv","","null","resources/images/fishbone.png","null","",NA,NA,NA,NA,""
"image-keyboard-response",602,531802,"0.0-3.197-0.197","71psd8v4c3a3gqp",241,"58.csv","","295.09999999403954","resources/trios/L1T1A1.jpg","38","restless",0.5,0.2,0.5,0.156182715831847,"true"
"image-keyboard-response",603,532211,"0.0-3.197-1.197","71psd8v4c3a3gqp",241,"58.csv","","null","resources/maskTrios/BT1B.jpg","null","",NA,NA,NA,NA,""
"image-keyboard-response",604,533420,"0.0-3.197-2.197","71psd8v4c3a3gqp",241,"58.csv","","null","resources/images/coin2.png","null","",NA,NA,NA,NA,""
"image-keyboard-response",605,534137,"0.0-3.198-0.198","71psd8v4c3a3gqp",241,"58.csv","","715.2000000178814","resources/trios/L1T2A1.jpg","37","restless",0.5,0.2,0.5,0.782338479031673,"false"
"image-keyboard-response",606,534547,"0.0-3.198-1.198","71psd8v4c3a3gqp",241,"58.csv","","null","resources/maskTrios/L1BB.jpg","null","",NA,NA,NA,NA,""
"image-keyboard-response",607,535753,"0.0-3.198-2.198","71psd8v4c3a3gqp",241,"58.csv","","null","resources/images/fishbone.png","null","",NA,NA,NA,NA,""
"image-keyboard-response",608,536258,"0.0-3.199-0.199","71psd8v4c3a3gqp",241,"58.csv","","503.2000000178814","resources/trios/L1T2A1.jpg","38","restless",0.5,0.2,0.5,0.756682292740903,"false"
"image-keyboard-response",609,536670,"0.0-3.199-1.199","71psd8v4c3a3gqp",241,"58.csv","","null","resources/maskTrios/BT2B.jpg","null","",NA,NA,NA,NA,""
