"trial_type","trial_index","time_elapsed","internal_node_id","subject","participantCode","walkNumber","success","rt","stimulus","key_press","test_part","leftProb","midProb","rightProb","generatedNum","correct"
"pavlovia",0,1611,"0.0-0.0","te03parf6jopubr",765,"170.csv","","","","","",NA,NA,NA,NA,""
"fullscreen",1,4523,"0.0-1.0","te03parf6jopubr",765,"170.csv","true","","","","",NA,NA,NA,NA,""
"html-keyboard-response",2,7033,"0.0-2.0-0.0","te03parf6jopubr",765,"170.csv","","2508.4000000059605","<p><font size='6'>Arrrgh!</p></font><p>Can you be the best pirate? Try to find lots of gold! But beware, some islands have more gold than others, and over time, the island with the most gold may change. Can YOU figure it out? </p><font size='6'>GOOD LUCK, CAPTAIN!!!</font><p>Press any key to begin</p>","32","",NA,NA,NA,NA,""
"image-keyboard-response",3,10038,"0.0-2.0-1.0","te03parf6jopubr",765,"170.csv","","null","resources/image_sets/111.png","null","",NA,NA,NA,NA,""
"image-keyboard-response",4,15482,"0.0-2.0-2.0","te03parf6jopubr",765,"170.csv","","5442.5999999940395","resources/image_sets/left_highlight.png","37","",NA,NA,NA,NA,""
"image-keyboard-response",5,16847,"0.0-2.0-3.0","te03parf6jopubr",765,"170.csv","","1364.3999999910593","resources/image_sets/mid_highlight.png","38","",NA,NA,NA,NA,""
"image-keyboard-response",6,17773,"0.0-2.0-4.0","te03parf6jopubr",765,"170.csv","","925","resources/image_sets/right_highlight.png","39","",NA,NA,NA,NA,""
"image-keyboard-response",7,21132,"0.0-2.0-5.0","te03parf6jopubr",765,"170.csv","","3357.7000000029802","resources/image_sets/111.png","13","",NA,NA,NA,NA,""
"image-keyboard-response",8,24029,"0.0-2.0-6.0","te03parf6jopubr",765,"170.csv","","2896","resources/images/coin2.png","13","",NA,NA,NA,NA,""
"image-keyboard-response",9,26117,"0.0-2.0-7.0","te03parf6jopubr",765,"170.csv","","2087.0999999940395","resources/images/fishbone.png","13","",NA,NA,NA,NA,""
"html-keyboard-response",10,29712,"0.0-2.0-8.0","te03parf6jopubr",765,"170.csv","","3594.6000000089407","<p>Your first journey will be a long one, but you will get a well deserved break at the end</p><p>After the break you will have four more journeys, but each will be much shorter than the first, and you will have breaks in between each</p><p>Press Enter to begin</p>","13","",NA,NA,NA,NA,""
"image-keyboard-response",11,31651,"0.0-3.0-0.0","te03parf6jopubr",765,"170.csv","","1937.2000000029802","resources/trios/L1T4A3.jpg","38","restless",0.9,0.3,0.7,0.0517265204046566,"true"
"image-keyboard-response",12,32058,"0.0-3.0-1.0","te03parf6jopubr",765,"170.csv","","null","resources/maskTrios/BT4B.jpg","null","",NA,NA,NA,NA,""
"image-keyboard-response",13,33265,"0.0-3.0-2.0","te03parf6jopubr",765,"170.csv","","null","resources/images/coin2.png","null","",NA,NA,NA,NA,""
"image-keyboard-response",14,34215,"0.0-3.1-0.1","te03parf6jopubr",765,"170.csv","","947.7000000029802","resources/trios/L1T4A2.jpg","38","restless",0.9,0.3,0.7,0.805952749870561,"false"
"image-keyboard-response",15,34619,"0.0-3.1-1.1","te03parf6jopubr",765,"170.csv","","null","resources/maskTrios/BT4B.jpg","null","",NA,NA,NA,NA,""
"image-keyboard-response",16,35823,"0.0-3.1-2.1","te03parf6jopubr",765,"170.csv","","null","resources/images/fishbone.png","null","",NA,NA,NA,NA,""
"image-keyboard-response",17,37388,"0.0-3.2-0.2","te03parf6jopubr",765,"170.csv","","1563.5","resources/trios/L1T4A3.jpg","38","restless",0.8,0.3,0.7,0.49655340934508,"false"
"image-keyboard-response",18,37790,"0.0-3.2-1.2","te03parf6jopubr",765,"170.csv","","null","resources/maskTrios/BT4B.jpg","null","",NA,NA,NA,NA,""
"image-keyboard-response",19,38996,"0.0-3.2-2.2","te03parf6jopubr",765,"170.csv","","null","resources/images/fishbone.png","null","",NA,NA,NA,NA,""
"image-keyboard-response",20,39973,"0.0-3.3-0.3","te03parf6jopubr",765,"170.csv","","975.5","resources/trios/L1T2A3.jpg","37","restless",0.8,0.3,0.7,0.382000930684095,"true"
"image-keyboard-response",21,40377,"0.0-3.3-1.3","te03parf6jopubr",765,"170.csv","","null","resources/maskTrios/L1BB.jpg","null","",NA,NA,NA,NA,""
"image-keyboard-response",22,41581,"0.0-3.3-2.3","te03parf6jopubr",765,"170.csv","","null","resources/images/coin2.png","null","",NA,NA,NA,NA,""
"image-keyboard-response",23,41967,"0.0-3.4-0.4","te03parf6jopubr",765,"170.csv","","384.8999999910593","resources/trios/L4T4A2.jpg","39","restless",0.8,0.2,0.7,0.765258469928079,"false"
"image-keyboard-response",24,42374,"0.0-3.4-1.4","te03parf6jopubr",765,"170.csv","","null","resources/maskTrios/BBA2.jpg","null","",NA,NA,NA,NA,""
"image-keyboard-response",25,43580,"0.0-3.4-2.4","te03parf6jopubr",765,"170.csv","","null","resources/images/fishbone.png","null","",NA,NA,NA,NA,""
"image-keyboard-response",26,44881,"0.0-3.5-0.5","te03parf6jopubr",765,"170.csv","","1300.2999999970198","resources/trios/L1T2A3.jpg","38","restless",0.8,0.2,0.7,0.268577995442435,"false"
"image-keyboard-response",27,45284,"0.0-3.5-1.5","te03parf6jopubr",765,"170.csv","","null","resources/maskTrios/BT2B.jpg","null","",NA,NA,NA,NA,""
"image-keyboard-response",28,46491,"0.0-3.5-2.5","te03parf6jopubr",765,"170.csv","","null","resources/images/fishbone.png","null","",NA,NA,NA,NA,""
"image-keyboard-response",29,46882,"0.0-3.6-0.6","te03parf6jopubr",765,"170.csv","","390.3999999910593","resources/trios/L1T2A3.jpg","37","restless",0.8,0.2,0.6,0.51925669260311,"true"
"image-keyboard-response",30,47286,"0.0-3.6-1.6","te03parf6jopubr",765,"170.csv","","null","resources/maskTrios/L1BB.jpg","null","",NA,NA,NA,NA,""
"image-keyboard-response",31,48493,"0.0-3.6-2.6","te03parf6jopubr",765,"170.csv","","null","resources/images/coin2.png","null","",NA,NA,NA,NA,""
"image-keyboard-response",32,50683,"0.0-3.7-0.7","te03parf6jopubr",765,"170.csv","","2188.5999999940395","resources/trios/L1T4A2.jpg","38","restless",0.8,0.2,0.6,0.503989384835487,"false"
"image-keyboard-response",33,51087,"0.0-3.7-1.7","te03parf6jopubr",765,"170.csv","","null","resources/maskTrios/BT4B.jpg","null","",NA,NA,NA,NA,""
"image-keyboard-response",34,52291,"0.0-3.7-2.7","te03parf6jopubr",765,"170.csv","","null","resources/images/fishbone.png","null","",NA,NA,NA,NA,""
"image-keyboard-response",35,55189,"0.0-3.8-0.8","te03parf6jopubr",765,"170.csv","","2897","resources/trios/L4T2A2.jpg","37","restless",0.8,0.2,0.7,0.46335462419612,"true"
"image-keyboard-response",36,55595,"0.0-3.8-1.8","te03parf6jopubr",765,"170.csv","","null","resources/maskTrios/L4BB.jpg","null","",NA,NA,NA,NA,""
"image-keyboard-response",37,56802,"0.0-3.8-2.8","te03parf6jopubr",765,"170.csv","","null","resources/images/coin2.png","null","",NA,NA,NA,NA,""
"image-keyboard-response",38,58647,"0.0-3.9-0.9","te03parf6jopubr",765,"170.csv","","1844.5","resources/trios/L4T4A2.jpg","39","restless",0.8,0.2,0.7,0.0551529585291244,"true"
"image-keyboard-response",39,59052,"0.0-3.9-1.9","te03parf6jopubr",765,"170.csv","","null","resources/maskTrios/BBA2.jpg","null","",NA,NA,NA,NA,""
"image-keyboard-response",40,60257,"0.0-3.9-2.9","te03parf6jopubr",765,"170.csv","","null","resources/images/coin2.png","null","",NA,NA,NA,NA,""
"image-keyboard-response",41,62973,"0.0-3.10-0.10","te03parf6jopubr",765,"170.csv","","2714.300000011921","resources/trios/L1T4A3.jpg","37","restless",0.8,0.2,0.7,0.996361100287997,"false"
"image-keyboard-response",42,63379,"0.0-3.10-1.10","te03parf6jopubr",765,"170.csv","","null","resources/maskTrios/L1BB.jpg","null","",NA,NA,NA,NA,""
"image-keyboard-response",43,64585,"0.0-3.10-2.10","te03parf6jopubr",765,"170.csv","","null","resources/images/fishbone.png","null","",NA,NA,NA,NA,""
"image-keyboard-response",44,65632,"0.0-3.11-0.11","te03parf6jopubr",765,"170.csv","","1045.7999999970198","resources/trios/L4T2A3.jpg","38","restless",0.7,0.2,0.7,0.187684932729536,"true"
"image-keyboard-response",45,66034,"0.0-3.11-1.11","te03parf6jopubr",765,"170.csv","","null","resources/maskTrios/BT2B.jpg","null","",NA,NA,NA,NA,""
"image-keyboard-response",46,67240,"0.0-3.11-2.11","te03parf6jopubr",765,"170.csv","","null","resources/images/coin2.png","null","",NA,NA,NA,NA,""
"image-keyboard-response",47,68653,"0.0-3.12-0.12","te03parf6jopubr",765,"170.csv","","1410.7999999970198","resources/trios/L1T4A2.jpg","39","restless",0.7,0.2,0.7,0.024411238102557,"true"
"image-keyboard-response",48,69056,"0.0-3.12-1.12","te03parf6jopubr",765,"170.csv","","null","resources/maskTrios/BBA2.jpg","null","",NA,NA,NA,NA,""
"image-keyboard-response",49,70260,"0.0-3.12-2.12","te03parf6jopubr",765,"170.csv","","null","resources/images/coin2.png","null","",NA,NA,NA,NA,""
"image-keyboard-response",50,73396,"0.0-3.13-0.13","te03parf6jopubr",765,"170.csv","","3134.199999988079","resources/trios/L1T2A3.jpg","37","restless",0.7,0.2,0.7,0.63701065613932,"true"
"image-keyboard-response",51,73802,"0.0-3.13-1.13","te03parf6jopubr",765,"170.csv","","null","resources/maskTrios/L1BB.jpg","null","",NA,NA,NA,NA,""
"image-keyboard-response",52,75009,"0.0-3.13-2.13","te03parf6jopubr",765,"170.csv","","null","resources/images/coin2.png","null","",NA,NA,NA,NA,""
"image-keyboard-response",53,75352,"0.0-3.14-0.14","te03parf6jopubr",765,"170.csv","","341.79999999701977","resources/trios/L1T4A2.jpg","38","restless",0.7,0.2,0.7,0.953178664072637,"false"
"image-keyboard-response",54,75754,"0.0-3.14-1.14","te03parf6jopubr",765,"170.csv","","null","resources/maskTrios/BT4B.jpg","null","",NA,NA,NA,NA,""
"image-keyboard-response",55,76960,"0.0-3.14-2.14","te03parf6jopubr",765,"170.csv","","null","resources/images/fishbone.png","null","",NA,NA,NA,NA,""
"image-keyboard-response",56,78054,"0.0-3.15-0.15","te03parf6jopubr",765,"170.csv","","1092.5","resources/trios/L4T2A3.jpg","38","restless",0.7,0.2,0.7,0.0378628347342944,"true"
"image-keyboard-response",57,78460,"0.0-3.15-1.15","te03parf6jopubr",765,"170.csv","","null","resources/maskTrios/BT2B.jpg","null","",NA,NA,NA,NA,""
"image-keyboard-response",58,79667,"0.0-3.15-2.15","te03parf6jopubr",765,"170.csv","","null","resources/images/coin2.png","null","",NA,NA,NA,NA,""
"image-keyboard-response",59,80066,"0.0-3.16-0.16","te03parf6jopubr",765,"170.csv","","397.5","resources/trios/L1T4A2.jpg","39","restless",0.7,0.2,0.7,0.301586653000818,"true"
"image-keyboard-response",60,80469,"0.0-3.16-1.16","te03parf6jopubr",765,"170.csv","","null","resources/maskTrios/BBA2.jpg","null","",NA,NA,NA,NA,""
"image-keyboard-response",61,81676,"0.0-3.16-2.16","te03parf6jopubr",765,"170.csv","","null","resources/images/coin2.png","null","",NA,NA,NA,NA,""
"image-keyboard-response",62,82172,"0.0-3.17-0.17","te03parf6jopubr",765,"170.csv","","494.70000000298023","resources/trios/L1T4A3.jpg","37","restless",0.7,0.2,0.6,0.333947097625008,"true"
"image-keyboard-response",63,82574,"0.0-3.17-1.17","te03parf6jopubr",765,"170.csv","","null","resources/maskTrios/L1BB.jpg","null","",NA,NA,NA,NA,""
"image-keyboard-response",64,83781,"0.0-3.17-2.17","te03parf6jopubr",765,"170.csv","","null","resources/images/coin2.png","null","",NA,NA,NA,NA,""
"image-keyboard-response",65,85779,"0.0-3.18-0.18","te03parf6jopubr",765,"170.csv","","1996.5999999940395","resources/trios/L4T2A2.jpg","38","restless",0.7,0.3,0.7,0.792972465091729,"false"
"image-keyboard-response",66,86183,"0.0-3.18-1.18","te03parf6jopubr",765,"170.csv","","null","resources/maskTrios/BT2B.jpg","null","",NA,NA,NA,NA,""
"image-keyboard-response",67,87390,"0.0-3.18-2.18","te03parf6jopubr",765,"170.csv","","null","resources/images/fishbone.png","null","",NA,NA,NA,NA,""
"image-keyboard-response",68,87686,"0.0-3.19-0.19","te03parf6jopubr",765,"170.csv","","294.29999999701977","resources/trios/L1T4A3.jpg","39","restless",0.7,0.2,0.6,0.949751307397282,"false"
"image-keyboard-response",69,88092,"0.0-3.19-1.19","te03parf6jopubr",765,"170.csv","","null","resources/maskTrios/BBA3.jpg","null","",NA,NA,NA,NA,""
"image-keyboard-response",70,89295,"0.0-3.19-2.19","te03parf6jopubr",765,"170.csv","","null","resources/images/fishbone.png","null","",NA,NA,NA,NA,""
"image-keyboard-response",71,94071,"0.0-3.20-0.20","te03parf6jopubr",765,"170.csv","","4774.79999999702","resources/trios/L1T2A3.jpg","38","restless",0.7,0.2,0.6,0.863865729500316,"false"
"image-keyboard-response",72,94477,"0.0-3.20-1.20","te03parf6jopubr",765,"170.csv","","null","resources/maskTrios/BT2B.jpg","null","",NA,NA,NA,NA,""
"image-keyboard-response",73,95679,"0.0-3.20-2.20","te03parf6jopubr",765,"170.csv","","null","resources/images/fishbone.png","null","",NA,NA,NA,NA,""
"image-keyboard-response",74,95974,"0.0-3.21-0.21","te03parf6jopubr",765,"170.csv","","294.3999999910593","resources/trios/L1T4A2.jpg","37","restless",0.7,0.2,0.6,0.0563131132870045,"true"
"image-keyboard-response",75,96381,"0.0-3.21-1.21","te03parf6jopubr",765,"170.csv","","null","resources/maskTrios/L1BB.jpg","null","",NA,NA,NA,NA,""
"image-keyboard-response",76,97583,"0.0-3.21-2.21","te03parf6jopubr",765,"170.csv","","null","resources/images/coin2.png","null","",NA,NA,NA,NA,""
"image-keyboard-response",77,98347,"0.0-3.22-0.22","te03parf6jopubr",765,"170.csv","","762.7000000029802","resources/trios/L4T4A3.jpg","37","restless",0.7,0.2,0.6,0.44037743446717,"true"
"image-keyboard-response",78,98750,"0.0-3.22-1.22","te03parf6jopubr",765,"170.csv","","null","resources/maskTrios/L4BB.jpg","null","",NA,NA,NA,NA,""
"image-keyboard-response",79,99953,"0.0-3.22-2.22","te03parf6jopubr",765,"170.csv","","null","resources/images/coin2.png","null","",NA,NA,NA,NA,""
"image-keyboard-response",80,100508,"0.0-3.23-0.23","te03parf6jopubr",765,"170.csv","","553.6000000089407","resources/trios/L4T4A3.jpg","37","restless",0.7,0.2,0.5,0.473364325452128,"true"
"image-keyboard-response",81,100913,"0.0-3.23-1.23","te03parf6jopubr",765,"170.csv","","null","resources/maskTrios/L4BB.jpg","null","",NA,NA,NA,NA,""
"image-keyboard-response",82,102115,"0.0-3.23-2.23","te03parf6jopubr",765,"170.csv","","null","resources/images/coin2.png","null","",NA,NA,NA,NA,""
"image-keyboard-response",83,102563,"0.0-3.24-0.24","te03parf6jopubr",765,"170.csv","","446.5","resources/trios/L1T4A3.jpg","37","restless",0.7,0.2,0.5,0.975186445974928,"false"
"image-keyboard-response",84,102966,"0.0-3.24-1.24","te03parf6jopubr",765,"170.csv","","null","resources/maskTrios/L1BB.jpg","null","",NA,NA,NA,NA,""
"image-keyboard-response",85,104172,"0.0-3.24-2.24","te03parf6jopubr",765,"170.csv","","null","resources/images/fishbone.png","null","",NA,NA,NA,NA,""
"image-keyboard-response",86,104837,"0.0-3.25-0.25","te03parf6jopubr",765,"170.csv","","663.7999999970198","resources/trios/L4T2A2.jpg","38","restless",0.7,0.2,0.5,0.879339533646577,"false"
"image-keyboard-response",87,105239,"0.0-3.25-1.25","te03parf6jopubr",765,"170.csv","","null","resources/maskTrios/BT2B.jpg","null","",NA,NA,NA,NA,""
"image-keyboard-response",88,106443,"0.0-3.25-2.25","te03parf6jopubr",765,"170.csv","","null","resources/images/fishbone.png","null","",NA,NA,NA,NA,""
"image-keyboard-response",89,106738,"0.0-3.26-0.26","te03parf6jopubr",765,"170.csv","","293.8999999910593","resources/trios/L1T2A3.jpg","39","restless",0.7,0.2,0.5,0.165685153790551,"true"
"image-keyboard-response",90,107144,"0.0-3.26-1.26","te03parf6jopubr",765,"170.csv","","null","resources/maskTrios/BBA3.jpg","null","",NA,NA,NA,NA,""
"image-keyboard-response",91,108349,"0.0-3.26-2.26","te03parf6jopubr",765,"170.csv","","null","resources/images/coin2.png","null","",NA,NA,NA,NA,""
"image-keyboard-response",92,109445,"0.0-3.27-0.27","te03parf6jopubr",765,"170.csv","","1094.5","resources/trios/L1T2A2.jpg","37","restless",0.7,0.3,0.5,0.794817778714807,"false"
"image-keyboard-response",93,109851,"0.0-3.27-1.27","te03parf6jopubr",765,"170.csv","","null","resources/maskTrios/L1BB.jpg","null","",NA,NA,NA,NA,""
"image-keyboard-response",94,111052,"0.0-3.27-2.27","te03parf6jopubr",765,"170.csv","","null","resources/images/fishbone.png","null","",NA,NA,NA,NA,""
"image-keyboard-response",95,113273,"0.0-3.28-0.28","te03parf6jopubr",765,"170.csv","","2219.4000000059605","resources/trios/L1T4A2.jpg","38","restless",0.7,0.3,0.5,0.521982451171092,"false"
"image-keyboard-response",96,113675,"0.0-3.28-1.28","te03parf6jopubr",765,"170.csv","","null","resources/maskTrios/BT4B.jpg","null","",NA,NA,NA,NA,""
"image-keyboard-response",97,114881,"0.0-3.28-2.28","te03parf6jopubr",765,"170.csv","","null","resources/images/fishbone.png","null","",NA,NA,NA,NA,""
"image-keyboard-response",98,115272,"0.0-3.29-0.29","te03parf6jopubr",765,"170.csv","","389.6000000089407","resources/trios/L1T4A2.jpg","39","restless",0.7,0.3,0.5,0.929637443866177,"false"
"image-keyboard-response",99,115679,"0.0-3.29-1.29","te03parf6jopubr",765,"170.csv","","null","resources/maskTrios/BBA2.jpg","null","",NA,NA,NA,NA,""
"image-keyboard-response",100,116884,"0.0-3.29-2.29","te03parf6jopubr",765,"170.csv","","null","resources/images/fishbone.png","null","",NA,NA,NA,NA,""
"image-keyboard-response",101,117243,"0.0-3.30-0.30","te03parf6jopubr",765,"170.csv","","355.29999999701977","resources/trios/L1T2A2.jpg","37","restless",0.7,0.4,0.5,0.494954068188907,"true"
"image-keyboard-response",102,117648,"0.0-3.30-1.30","te03parf6jopubr",765,"170.csv","","null","resources/maskTrios/L1BB.jpg","null","",NA,NA,NA,NA,""
"image-keyboard-response",103,118855,"0.0-3.30-2.30","te03parf6jopubr",765,"170.csv","","null","resources/images/coin2.png","null","",NA,NA,NA,NA,""
"image-keyboard-response",104,119594,"0.0-3.31-0.31","te03parf6jopubr",765,"170.csv","","738.2999999970198","resources/trios/L4T2A3.jpg","37","restless",0.7,0.4,0.5,0.89177967233217,"false"
"image-keyboard-response",105,119999,"0.0-3.31-1.31","te03parf6jopubr",765,"170.csv","","null","resources/maskTrios/L4BB.jpg","null","",NA,NA,NA,NA,""
"image-keyboard-response",106,121204,"0.0-3.31-2.31","te03parf6jopubr",765,"170.csv","","null","resources/images/fishbone.png","null","",NA,NA,NA,NA,""
"image-keyboard-response",107,121778,"0.0-3.32-0.32","te03parf6jopubr",765,"170.csv","","572.8000000119209","resources/trios/L4T2A3.jpg","38","restless",0.7,0.4,0.5,0.69425676502878,"false"
"image-keyboard-response",108,122182,"0.0-3.32-1.32","te03parf6jopubr",765,"170.csv","","null","resources/maskTrios/BT2B.jpg","null","",NA,NA,NA,NA,""
"image-keyboard-response",109,123387,"0.0-3.32-2.32","te03parf6jopubr",765,"170.csv","","null","resources/images/fishbone.png","null","",NA,NA,NA,NA,""
"image-keyboard-response",110,123821,"0.0-3.33-0.33","te03parf6jopubr",765,"170.csv","","433","resources/trios/L1T4A3.jpg","37","restless",0.7,0.4,0.5,0.652531775960463,"true"
"image-keyboard-response",111,124225,"0.0-3.33-1.33","te03parf6jopubr",765,"170.csv","","null","resources/maskTrios/L1BB.jpg","null","",NA,NA,NA,NA,""
"image-keyboard-response",112,125431,"0.0-3.33-2.33","te03parf6jopubr",765,"170.csv","","null","resources/images/coin2.png","null","",NA,NA,NA,NA,""
"image-keyboard-response",113,125732,"0.0-3.34-0.34","te03parf6jopubr",765,"170.csv","","299.69999998807907","resources/trios/L1T2A3.jpg","38","restless",0.7,0.4,0.5,0.904067787079718,"false"
"image-keyboard-response",114,126138,"0.0-3.34-1.34","te03parf6jopubr",765,"170.csv","","null","resources/maskTrios/BT2B.jpg","null","",NA,NA,NA,NA,""
"image-keyboard-response",115,127344,"0.0-3.34-2.34","te03parf6jopubr",765,"170.csv","","null","resources/images/fishbone.png","null","",NA,NA,NA,NA,""
"image-keyboard-response",116,127620,"0.0-3.35-0.35","te03parf6jopubr",765,"170.csv","","274.59999999403954","resources/trios/L4T2A2.jpg","39","restless",0.7,0.4,0.4,0.255792749129338,"true"
"image-keyboard-response",117,128026,"0.0-3.35-1.35","te03parf6jopubr",765,"170.csv","","null","resources/maskTrios/BBA2.jpg","null","",NA,NA,NA,NA,""
"image-keyboard-response",118,129232,"0.0-3.35-2.35","te03parf6jopubr",765,"170.csv","","null","resources/images/coin2.png","null","",NA,NA,NA,NA,""
"image-keyboard-response",119,130284,"0.0-3.36-0.36","te03parf6jopubr",765,"170.csv","","1050.1000000089407","resources/trios/L4T4A2.jpg","37","restless",0.7,0.4,0.4,0.205806079338432,"true"
"image-keyboard-response",120,130687,"0.0-3.36-1.36","te03parf6jopubr",765,"170.csv","","null","resources/maskTrios/L4BB.jpg","null","",NA,NA,NA,NA,""
"image-keyboard-response",121,131893,"0.0-3.36-2.36","te03parf6jopubr",765,"170.csv","","null","resources/images/coin2.png","null","",NA,NA,NA,NA,""
"image-keyboard-response",122,132617,"0.0-3.37-0.37","te03parf6jopubr",765,"170.csv","","722","resources/trios/L1T4A3.jpg","38","restless",0.7,0.4,0.4,0.448793777183194,"false"
"image-keyboard-response",123,133023,"0.0-3.37-1.37","te03parf6jopubr",765,"170.csv","","null","resources/maskTrios/BT4B.jpg","null","",NA,NA,NA,NA,""
"image-keyboard-response",124,134227,"0.0-3.37-2.37","te03parf6jopubr",765,"170.csv","","null","resources/images/fishbone.png","null","",NA,NA,NA,NA,""
"image-keyboard-response",125,135744,"0.0-3.38-0.38","te03parf6jopubr",765,"170.csv","","1515.7000000029802","resources/trios/L4T2A3.jpg","39","restless",0.7,0.4,0.4,0.473512238736917,"false"
"image-keyboard-response",126,136150,"0.0-3.38-1.38","te03parf6jopubr",765,"170.csv","","null","resources/maskTrios/BBA3.jpg","null","",NA,NA,NA,NA,""
"image-keyboard-response",127,137356,"0.0-3.38-2.38","te03parf6jopubr",765,"170.csv","","null","resources/images/fishbone.png","null","",NA,NA,NA,NA,""
"image-keyboard-response",128,137726,"0.0-3.39-0.39","te03parf6jopubr",765,"170.csv","","368.40000000596046","resources/trios/L4T4A3.jpg","37","restless",0.7,0.4,0.4,0.750454957380721,"false"
"image-keyboard-response",129,138130,"0.0-3.39-1.39","te03parf6jopubr",765,"170.csv","","null","resources/maskTrios/L4BB.jpg","null","",NA,NA,NA,NA,""
"image-keyboard-response",130,139336,"0.0-3.39-2.39","te03parf6jopubr",765,"170.csv","","null","resources/images/fishbone.png","null","",NA,NA,NA,NA,""
"image-keyboard-response",131,139771,"0.0-3.40-0.40","te03parf6jopubr",765,"170.csv","","433.20000000298023","resources/trios/L4T2A3.jpg","38","restless",0.7,0.4,0.4,0.764216129970068,"false"
"image-keyboard-response",132,140174,"0.0-3.40-1.40","te03parf6jopubr",765,"170.csv","","null","resources/maskTrios/BT2B.jpg","null","",NA,NA,NA,NA,""
"image-keyboard-response",133,141380,"0.0-3.40-2.40","te03parf6jopubr",765,"170.csv","","null","resources/images/fishbone.png","null","",NA,NA,NA,NA,""
"image-keyboard-response",134,141734,"0.0-3.41-0.41","te03parf6jopubr",765,"170.csv","","352.09999999403954","resources/trios/L4T4A2.jpg","39","restless",0.7,0.4,0.5,0.7688636758803,"false"
"image-keyboard-response",135,142140,"0.0-3.41-1.41","te03parf6jopubr",765,"170.csv","","null","resources/maskTrios/BBA2.jpg","null","",NA,NA,NA,NA,""
"image-keyboard-response",136,143342,"0.0-3.41-2.41","te03parf6jopubr",765,"170.csv","","null","resources/images/fishbone.png","null","",NA,NA,NA,NA,""
"image-keyboard-response",137,143703,"0.0-3.42-0.42","te03parf6jopubr",765,"170.csv","","359.5","resources/trios/L1T2A3.jpg","37","restless",0.7,0.4,0.6,0.527427712392917,"true"
"image-keyboard-response",138,144108,"0.0-3.42-1.42","te03parf6jopubr",765,"170.csv","","null","resources/maskTrios/L1BB.jpg","null","",NA,NA,NA,NA,""
"image-keyboard-response",139,145314,"0.0-3.42-2.42","te03parf6jopubr",765,"170.csv","","null","resources/images/coin2.png","null","",NA,NA,NA,NA,""
"image-keyboard-response",140,145821,"0.0-3.43-0.43","te03parf6jopubr",765,"170.csv","","505.5","resources/trios/L4T2A2.jpg","37","restless",0.7,0.4,0.6,0.468470973039065,"true"
"image-keyboard-response",141,146227,"0.0-3.43-1.43","te03parf6jopubr",765,"170.csv","","null","resources/maskTrios/L4BB.jpg","null","",NA,NA,NA,NA,""
"image-keyboard-response",142,147431,"0.0-3.43-2.43","te03parf6jopubr",765,"170.csv","","null","resources/images/coin2.png","null","",NA,NA,NA,NA,""
"image-keyboard-response",143,147830,"0.0-3.44-0.44","te03parf6jopubr",765,"170.csv","","397.90000000596046","resources/trios/L4T4A3.jpg","37","restless",0.6,0.4,0.6,0.210828135347667,"true"
"image-keyboard-response",144,148236,"0.0-3.44-1.44","te03parf6jopubr",765,"170.csv","","null","resources/maskTrios/L4BB.jpg","null","",NA,NA,NA,NA,""
"image-keyboard-response",145,149443,"0.0-3.44-2.44","te03parf6jopubr",765,"170.csv","","null","resources/images/coin2.png","null","",NA,NA,NA,NA,""
"image-keyboard-response",146,149942,"0.0-3.45-0.45","te03parf6jopubr",765,"170.csv","","497.90000000596046","resources/trios/L4T4A3.jpg","37","restless",0.6,0.4,0.5,0.613335417570418,"false"
"image-keyboard-response",147,150346,"0.0-3.45-1.45","te03parf6jopubr",765,"170.csv","","null","resources/maskTrios/L4BB.jpg","null","",NA,NA,NA,NA,""
"image-keyboard-response",148,151552,"0.0-3.45-2.45","te03parf6jopubr",765,"170.csv","","null","resources/images/fishbone.png","null","",NA,NA,NA,NA,""
"image-keyboard-response",149,152093,"0.0-3.46-0.46","te03parf6jopubr",765,"170.csv","","538.6999999880791","resources/trios/L1T4A3.jpg","38","restless",0.6,0.4,0.5,0.161462298443193,"true"
"image-keyboard-response",150,152499,"0.0-3.46-1.46","te03parf6jopubr",765,"170.csv","","null","resources/maskTrios/BT4B.jpg","null","",NA,NA,NA,NA,""
"image-keyboard-response",151,153701,"0.0-3.46-2.46","te03parf6jopubr",765,"170.csv","","null","resources/images/coin2.png","null","",NA,NA,NA,NA,""
"image-keyboard-response",152,154646,"0.0-3.47-0.47","te03parf6jopubr",765,"170.csv","","944.2000000029802","resources/trios/L4T2A3.jpg","38","restless",0.6,0.4,0.5,0.441779116575271,"false"
"image-keyboard-response",153,155051,"0.0-3.47-1.47","te03parf6jopubr",765,"170.csv","","null","resources/maskTrios/BT2B.jpg","null","",NA,NA,NA,NA,""
"image-keyboard-response",154,156257,"0.0-3.47-2.47","te03parf6jopubr",765,"170.csv","","null","resources/images/fishbone.png","null","",NA,NA,NA,NA,""
"image-keyboard-response",155,156559,"0.0-3.48-0.48","te03parf6jopubr",765,"170.csv","","300.19999998807907","resources/trios/L4T4A3.jpg","39","restless",0.6,0.4,0.5,0.107682905772128,"true"
"image-keyboard-response",156,156965,"0.0-3.48-1.48","te03parf6jopubr",765,"170.csv","","null","resources/maskTrios/BBA3.jpg","null","",NA,NA,NA,NA,""
"image-keyboard-response",157,158171,"0.0-3.48-2.48","te03parf6jopubr",765,"170.csv","","null","resources/images/coin2.png","null","",NA,NA,NA,NA,""
"image-keyboard-response",158,159543,"0.0-3.49-0.49","te03parf6jopubr",765,"170.csv","","1370.5999999940395","resources/trios/L4T4A2.jpg","37","restless",0.6,0.4,0.5,0.834086673455002,"false"
"image-keyboard-response",159,159947,"0.0-3.49-1.49","te03parf6jopubr",765,"170.csv","","null","resources/maskTrios/L4BB.jpg","null","",NA,NA,NA,NA,""
"image-keyboard-response",160,161151,"0.0-3.49-2.49","te03parf6jopubr",765,"170.csv","","null","resources/images/fishbone.png","null","",NA,NA,NA,NA,""
"image-keyboard-response",161,161433,"0.0-3.50-0.50","te03parf6jopubr",765,"170.csv","","280.3999999910593","resources/trios/L4T4A2.jpg","38","restless",0.6,0.4,0.5,0.305230553242501,"true"
"image-keyboard-response",162,161835,"0.0-3.50-1.50","te03parf6jopubr",765,"170.csv","","null","resources/maskTrios/BT4B.jpg","null","",NA,NA,NA,NA,""
"image-keyboard-response",163,163038,"0.0-3.50-2.50","te03parf6jopubr",765,"170.csv","","null","resources/images/coin2.png","null","",NA,NA,NA,NA,""
"image-keyboard-response",164,163405,"0.0-3.51-0.51","te03parf6jopubr",765,"170.csv","","365.69999998807907","resources/trios/L1T4A2.jpg","39","restless",0.6,0.4,0.5,0.156963948390394,"true"
"image-keyboard-response",165,163812,"0.0-3.51-1.51","te03parf6jopubr",765,"170.csv","","null","resources/maskTrios/BBA2.jpg","null","",NA,NA,NA,NA,""
"image-keyboard-response",166,165018,"0.0-3.51-2.51","te03parf6jopubr",765,"170.csv","","null","resources/images/coin2.png","null","",NA,NA,NA,NA,""
"image-keyboard-response",167,165290,"0.0-3.52-0.52","te03parf6jopubr",765,"170.csv","","270.70000000298023","resources/trios/L1T2A3.jpg","37","restless",0.6,0.4,0.5,0.174180613937846,"true"
"image-keyboard-response",168,165696,"0.0-3.52-1.52","te03parf6jopubr",765,"170.csv","","null","resources/maskTrios/L1BB.jpg","null","",NA,NA,NA,NA,""
"image-keyboard-response",169,166899,"0.0-3.52-2.52","te03parf6jopubr",765,"170.csv","","null","resources/images/coin2.png","null","",NA,NA,NA,NA,""
"image-keyboard-response",170,167198,"0.0-3.53-0.53","te03parf6jopubr",765,"170.csv","","297.90000000596046","resources/trios/L1T4A2.jpg","38","restless",0.6,0.3,0.6,0.911911807468029,"false"
"image-keyboard-response",171,167604,"0.0-3.53-1.53","te03parf6jopubr",765,"170.csv","","null","resources/maskTrios/BT4B.jpg","null","",NA,NA,NA,NA,""
"image-keyboard-response",172,168810,"0.0-3.53-2.53","te03parf6jopubr",765,"170.csv","","null","resources/images/fishbone.png","null","",NA,NA,NA,NA,""
"image-keyboard-response",173,169105,"0.0-3.54-0.54","te03parf6jopubr",765,"170.csv","","293.79999999701977","resources/trios/L4T2A3.jpg","39","restless",0.6,0.3,0.6,0.669771894276012,"false"
"image-keyboard-response",174,169512,"0.0-3.54-1.54","te03parf6jopubr",765,"170.csv","","null","resources/maskTrios/BBA3.jpg","null","",NA,NA,NA,NA,""
"image-keyboard-response",175,170718,"0.0-3.54-2.54","te03parf6jopubr",765,"170.csv","","null","resources/images/fishbone.png","null","",NA,NA,NA,NA,""
"image-keyboard-response",176,171040,"0.0-3.55-0.55","te03parf6jopubr",765,"170.csv","","318.70000000298023","resources/trios/L1T2A2.jpg","37","restless",0.6,0.3,0.6,0.42976294740244,"true"
"image-keyboard-response",177,171446,"0.0-3.55-1.55","te03parf6jopubr",765,"170.csv","","null","resources/maskTrios/L1BB.jpg","null","",NA,NA,NA,NA,""
"image-keyboard-response",178,172652,"0.0-3.55-2.55","te03parf6jopubr",765,"170.csv","","null","resources/images/coin2.png","null","",NA,NA,NA,NA,""
"image-keyboard-response",179,172956,"0.0-3.56-0.56","te03parf6jopubr",765,"170.csv","","302.29999999701977","resources/trios/L1T4A3.jpg","38","restless",0.5,0.3,0.6,0.472611698995327,"false"
"image-keyboard-response",180,173363,"0.0-3.56-1.56","te03parf6jopubr",765,"170.csv","","null","resources/maskTrios/BT4B.jpg","null","",NA,NA,NA,NA,""
"image-keyboard-response",181,174569,"0.0-3.56-2.56","te03parf6jopubr",765,"170.csv","","null","resources/images/fishbone.png","null","",NA,NA,NA,NA,""
"image-keyboard-response",182,175063,"0.0-3.57-0.57","te03parf6jopubr",765,"170.csv","","493.1000000089407","resources/trios/L4T4A3.jpg","39","restless",0.5,0.3,0.6,0.0522602489850756,"true"
"image-keyboard-response",183,175469,"0.0-3.57-1.57","te03parf6jopubr",765,"170.csv","","null","resources/maskTrios/BBA3.jpg","null","",NA,NA,NA,NA,""
"image-keyboard-response",184,176676,"0.0-3.57-2.57","te03parf6jopubr",765,"170.csv","","null","resources/images/coin2.png","null","",NA,NA,NA,NA,""
"image-keyboard-response",185,177886,"0.0-3.58-0.58","te03parf6jopubr",765,"170.csv","","1208.7999999970198","resources/trios/L1T4A2.jpg","37","restless",0.5,0.3,0.6,0.42308581449963,"true"
"image-keyboard-response",186,178287,"0.0-3.58-1.58","te03parf6jopubr",765,"170.csv","","null","resources/maskTrios/L1BB.jpg","null","",NA,NA,NA,NA,""
"image-keyboard-response",187,179492,"0.0-3.58-2.58","te03parf6jopubr",765,"170.csv","","null","resources/images/coin2.png","null","",NA,NA,NA,NA,""
"image-keyboard-response",188,179810,"0.0-3.59-0.59","te03parf6jopubr",765,"170.csv","","317.29999999701977","resources/trios/L4T4A2.jpg","38","restless",0.5,0.3,0.6,0.586753855876905,"false"
"image-keyboard-response",189,180217,"0.0-3.59-1.59","te03parf6jopubr",765,"170.csv","","null","resources/maskTrios/BT4B.jpg","null","",NA,NA,NA,NA,""
"image-keyboard-response",190,181423,"0.0-3.59-2.59","te03parf6jopubr",765,"170.csv","","null","resources/images/fishbone.png","null","",NA,NA,NA,NA,""
"image-keyboard-response",191,182009,"0.0-3.60-0.60","te03parf6jopubr",765,"170.csv","","585.2999999970198","resources/trios/L1T2A2.jpg","39","restless",0.5,0.3,0.6,0.181381180571685,"true"
"image-keyboard-response",192,182413,"0.0-3.60-1.60","te03parf6jopubr",765,"170.csv","","null","resources/maskTrios/BBA2.jpg","null","",NA,NA,NA,NA,""
"image-keyboard-response",193,183618,"0.0-3.60-2.60","te03parf6jopubr",765,"170.csv","","null","resources/images/coin2.png","null","",NA,NA,NA,NA,""
"image-keyboard-response",194,183900,"0.0-3.61-0.61","te03parf6jopubr",765,"170.csv","","280.59999999403954","resources/trios/L1T2A2.jpg","37","restless",0.5,0.3,0.6,0.00925446003445951,"true"
"image-keyboard-response",195,184306,"0.0-3.61-1.61","te03parf6jopubr",765,"170.csv","","null","resources/maskTrios/L1BB.jpg","null","",NA,NA,NA,NA,""
"image-keyboard-response",196,185512,"0.0-3.61-2.61","te03parf6jopubr",765,"170.csv","","null","resources/images/coin2.png","null","",NA,NA,NA,NA,""
"image-keyboard-response",197,185790,"0.0-3.62-0.62","te03parf6jopubr",765,"170.csv","","276.1000000089407","resources/trios/L1T2A2.jpg","38","restless",0.5,0.3,0.6,0.120142245225342,"true"
"image-keyboard-response",198,186193,"0.0-3.62-1.62","te03parf6jopubr",765,"170.csv","","null","resources/maskTrios/BT2B.jpg","null","",NA,NA,NA,NA,""
"image-keyboard-response",199,187396,"0.0-3.62-2.62","te03parf6jopubr",765,"170.csv","","null","resources/images/coin2.png","null","",NA,NA,NA,NA,""
"image-keyboard-response",200,187668,"0.0-3.63-0.63","te03parf6jopubr",765,"170.csv","","271.09999999403954","resources/trios/L4T2A2.jpg","39","restless",0.5,0.3,0.6,0.267373794067836,"true"
"image-keyboard-response",201,188073,"0.0-3.63-1.63","te03parf6jopubr",765,"170.csv","","null","resources/maskTrios/BBA2.jpg","null","",NA,NA,NA,NA,""
"image-keyboard-response",202,189278,"0.0-3.63-2.63","te03parf6jopubr",765,"170.csv","","null","resources/images/coin2.png","null","",NA,NA,NA,NA,""
"image-keyboard-response",203,189565,"0.0-3.64-0.64","te03parf6jopubr",765,"170.csv","","284.79999999701977","resources/trios/L1T4A3.jpg","37","restless",0.5,0.3,0.6,0.413965274828256,"true"
"image-keyboard-response",204,189967,"0.0-3.64-1.64","te03parf6jopubr",765,"170.csv","","null","resources/maskTrios/L1BB.jpg","null","",NA,NA,NA,NA,""
"image-keyboard-response",205,191174,"0.0-3.64-2.64","te03parf6jopubr",765,"170.csv","","null","resources/images/coin2.png","null","",NA,NA,NA,NA,""
"image-keyboard-response",206,191500,"0.0-3.65-0.65","te03parf6jopubr",765,"170.csv","","325.59999999403954","resources/trios/L4T4A2.jpg","38","restless",0.5,0.4,0.6,0.614562633606303,"false"
"image-keyboard-response",207,191903,"0.0-3.65-1.65","te03parf6jopubr",765,"170.csv","","null","resources/maskTrios/BT4B.jpg","null","",NA,NA,NA,NA,""
"image-keyboard-response",208,193109,"0.0-3.65-2.65","te03parf6jopubr",765,"170.csv","","null","resources/images/fishbone.png","null","",NA,NA,NA,NA,""
"image-keyboard-response",209,193491,"0.0-3.66-0.66","te03parf6jopubr",765,"170.csv","","380.70000000298023","resources/trios/L4T2A2.jpg","39","restless",0.6,0.4,0.6,0.131335380071091,"true"
"image-keyboard-response",210,193895,"0.0-3.66-1.66","te03parf6jopubr",765,"170.csv","","null","resources/maskTrios/BBA2.jpg","null","",NA,NA,NA,NA,""
"image-keyboard-response",211,195101,"0.0-3.66-2.66","te03parf6jopubr",765,"170.csv","","null","resources/images/coin2.png","null","",NA,NA,NA,NA,""
"image-keyboard-response",212,195578,"0.0-3.67-0.67","te03parf6jopubr",765,"170.csv","","475.80000001192093","resources/trios/L1T2A2.jpg","37","restless",0.6,0.4,0.6,0.312228246922226,"true"
"image-keyboard-response",213,195982,"0.0-3.67-1.67","te03parf6jopubr",765,"170.csv","","null","resources/maskTrios/L1BB.jpg","null","",NA,NA,NA,NA,""
"image-keyboard-response",214,197189,"0.0-3.67-2.67","te03parf6jopubr",765,"170.csv","","null","resources/images/coin2.png","null","",NA,NA,NA,NA,""
"image-keyboard-response",215,197450,"0.0-3.68-0.68","te03parf6jopubr",765,"170.csv","","259.70000000298023","resources/trios/L4T4A3.jpg","38","restless",0.6,0.4,0.6,0.0292750143995733,"true"
"image-keyboard-response",216,197856,"0.0-3.68-1.68","te03parf6jopubr",765,"170.csv","","null","resources/maskTrios/BT4B.jpg","null","",NA,NA,NA,NA,""
"image-keyboard-response",217,199060,"0.0-3.68-2.68","te03parf6jopubr",765,"170.csv","","null","resources/images/coin2.png","null","",NA,NA,NA,NA,""
"image-keyboard-response",218,199363,"0.0-3.69-0.69","te03parf6jopubr",765,"170.csv","","301.40000000596046","resources/trios/L1T4A2.jpg","39","restless",0.7,0.5,0.6,0.283137466932388,"true"
"image-keyboard-response",219,199769,"0.0-3.69-1.69","te03parf6jopubr",765,"170.csv","","null","resources/maskTrios/BBA2.jpg","null","",NA,NA,NA,NA,""
"image-keyboard-response",220,200975,"0.0-3.69-2.69","te03parf6jopubr",765,"170.csv","","null","resources/images/coin2.png","null","",NA,NA,NA,NA,""
"image-keyboard-response",221,201245,"0.0-3.70-0.70","te03parf6jopubr",765,"170.csv","","268.29999999701977","resources/trios/L1T4A3.jpg","37","restless",0.7,0.5,0.6,0.483337575092924,"true"
"image-keyboard-response",222,201651,"0.0-3.70-1.70","te03parf6jopubr",765,"170.csv","","null","resources/maskTrios/L1BB.jpg","null","",NA,NA,NA,NA,""
"image-keyboard-response",223,202854,"0.0-3.70-2.70","te03parf6jopubr",765,"170.csv","","null","resources/images/coin2.png","null","",NA,NA,NA,NA,""
"image-keyboard-response",224,203114,"0.0-3.71-0.71","te03parf6jopubr",765,"170.csv","","258.6000000089407","resources/trios/L1T2A2.jpg","38","restless",0.7,0.5,0.6,0.236937224440622,"true"
"image-keyboard-response",225,203519,"0.0-3.71-1.71","te03parf6jopubr",765,"170.csv","","null","resources/maskTrios/BT2B.jpg","null","",NA,NA,NA,NA,""
"image-keyboard-response",226,204721,"0.0-3.71-2.71","te03parf6jopubr",765,"170.csv","","null","resources/images/coin2.png","null","",NA,NA,NA,NA,""
"image-keyboard-response",227,205018,"0.0-3.72-0.72","te03parf6jopubr",765,"170.csv","","295.5","resources/trios/L4T2A3.jpg","39","restless",0.7,0.5,0.6,0.306440341625349,"true"
"image-keyboard-response",228,205424,"0.0-3.72-1.72","te03parf6jopubr",765,"170.csv","","null","resources/maskTrios/BBA3.jpg","null","",NA,NA,NA,NA,""
"image-keyboard-response",229,206627,"0.0-3.72-2.72","te03parf6jopubr",765,"170.csv","","null","resources/images/coin2.png","null","",NA,NA,NA,NA,""
"image-keyboard-response",230,206930,"0.0-3.73-0.73","te03parf6jopubr",765,"170.csv","","301.5","resources/trios/L1T2A3.jpg","37","restless",0.7,0.5,0.5,0.358210335901809,"true"
"image-keyboard-response",231,207336,"0.0-3.73-1.73","te03parf6jopubr",765,"170.csv","","null","resources/maskTrios/L1BB.jpg","null","",NA,NA,NA,NA,""
"image-keyboard-response",232,208543,"0.0-3.73-2.73","te03parf6jopubr",765,"170.csv","","null","resources/images/coin2.png","null","",NA,NA,NA,NA,""
"image-keyboard-response",233,208846,"0.0-3.74-0.74","te03parf6jopubr",765,"170.csv","","301.40000000596046","resources/trios/L1T4A2.jpg","38","restless",0.7,0.5,0.5,0.537420004210023,"false"
"image-keyboard-response",234,209247,"0.0-3.74-1.74","te03parf6jopubr",765,"170.csv","","null","resources/maskTrios/BT4B.jpg","null","",NA,NA,NA,NA,""
"image-keyboard-response",235,210453,"0.0-3.74-2.74","te03parf6jopubr",765,"170.csv","","null","resources/images/fishbone.png","null","",NA,NA,NA,NA,""
"image-keyboard-response",236,210792,"0.0-3.75-0.75","te03parf6jopubr",765,"170.csv","","337.59999999403954","resources/trios/L4T2A2.jpg","39","restless",0.7,0.5,0.5,0.836395132170209,"false"
"image-keyboard-response",237,211196,"0.0-3.75-1.75","te03parf6jopubr",765,"170.csv","","null","resources/maskTrios/BBA2.jpg","null","",NA,NA,NA,NA,""
"image-keyboard-response",238,212402,"0.0-3.75-2.75","te03parf6jopubr",765,"170.csv","","null","resources/images/fishbone.png","null","",NA,NA,NA,NA,""
"image-keyboard-response",239,212677,"0.0-3.76-0.76","te03parf6jopubr",765,"170.csv","","272.90000000596046","resources/trios/L4T2A3.jpg","37","restless",0.7,0.5,0.5,0.00152436170859183,"true"
"image-keyboard-response",240,213083,"0.0-3.76-1.76","te03parf6jopubr",765,"170.csv","","null","resources/maskTrios/L4BB.jpg","null","",NA,NA,NA,NA,""
"image-keyboard-response",241,214288,"0.0-3.76-2.76","te03parf6jopubr",765,"170.csv","","null","resources/images/coin2.png","null","",NA,NA,NA,NA,""
"image-keyboard-response",242,214610,"0.0-3.77-0.77","te03parf6jopubr",765,"170.csv","","320.30000001192093","resources/trios/L4T4A2.jpg","38","restless",0.6,0.5,0.5,0.328651383777621,"true"
"image-keyboard-response",243,215011,"0.0-3.77-1.77","te03parf6jopubr",765,"170.csv","","null","resources/maskTrios/BT4B.jpg","null","",NA,NA,NA,NA,""
"image-keyboard-response",244,216218,"0.0-3.77-2.77","te03parf6jopubr",765,"170.csv","","null","resources/images/coin2.png","null","",NA,NA,NA,NA,""
"image-keyboard-response",245,216895,"0.0-3.78-0.78","te03parf6jopubr",765,"170.csv","","675.2999999970198","resources/trios/L4T2A2.jpg","39","restless",0.6,0.5,0.5,0.744939244469702,"false"
"image-keyboard-response",246,217299,"0.0-3.78-1.78","te03parf6jopubr",765,"170.csv","","null","resources/maskTrios/BBA2.jpg","null","",NA,NA,NA,NA,""
"image-keyboard-response",247,218505,"0.0-3.78-2.78","te03parf6jopubr",765,"170.csv","","null","resources/images/fishbone.png","null","",NA,NA,NA,NA,""
"image-keyboard-response",248,218839,"0.0-3.79-0.79","te03parf6jopubr",765,"170.csv","","332","resources/trios/L4T4A3.jpg","37","restless",0.6,0.5,0.5,0.750416723156856,"false"
"image-keyboard-response",249,219244,"0.0-3.79-1.79","te03parf6jopubr",765,"170.csv","","null","resources/maskTrios/L4BB.jpg","null","",NA,NA,NA,NA,""
"image-keyboard-response",250,220450,"0.0-3.79-2.79","te03parf6jopubr",765,"170.csv","","null","resources/images/fishbone.png","null","",NA,NA,NA,NA,""
"image-keyboard-response",251,220754,"0.0-3.80-0.80","te03parf6jopubr",765,"170.csv","","303","resources/trios/L4T4A3.jpg","38","restless",0.6,0.5,0.5,0.28548387682068,"true"
"image-keyboard-response",252,221160,"0.0-3.80-1.80","te03parf6jopubr",765,"170.csv","","null","resources/maskTrios/BT4B.jpg","null","",NA,NA,NA,NA,""
"image-keyboard-response",253,222363,"0.0-3.80-2.80","te03parf6jopubr",765,"170.csv","","null","resources/images/coin2.png","null","",NA,NA,NA,NA,""
"image-keyboard-response",254,222779,"0.0-3.81-0.81","te03parf6jopubr",765,"170.csv","","415.19999998807907","resources/trios/L1T2A2.jpg","39","restless",0.7,0.5,0.5,0.676625710006539,"false"
"image-keyboard-response",255,223186,"0.0-3.81-1.81","te03parf6jopubr",765,"170.csv","","null","resources/maskTrios/BBA2.jpg","null","",NA,NA,NA,NA,""
"image-keyboard-response",256,224392,"0.0-3.81-2.81","te03parf6jopubr",765,"170.csv","","null","resources/images/fishbone.png","null","",NA,NA,NA,NA,""
"image-keyboard-response",257,224804,"0.0-3.82-0.82","te03parf6jopubr",765,"170.csv","","411.20000000298023","resources/trios/L1T4A3.jpg","37","restless",0.8,0.5,0.5,0.450470390187099,"true"
"image-keyboard-response",258,225210,"0.0-3.82-1.82","te03parf6jopubr",765,"170.csv","","null","resources/maskTrios/L1BB.jpg","null","",NA,NA,NA,NA,""
"image-keyboard-response",259,226416,"0.0-3.82-2.82","te03parf6jopubr",765,"170.csv","","null","resources/images/coin2.png","null","",NA,NA,NA,NA,""
"image-keyboard-response",260,226710,"0.0-3.83-0.83","te03parf6jopubr",765,"170.csv","","292.40000000596046","resources/trios/L4T2A3.jpg","38","restless",0.8,0.5,0.5,0.199262126352234,"true"
"image-keyboard-response",261,227111,"0.0-3.83-1.83","te03parf6jopubr",765,"170.csv","","null","resources/maskTrios/BT2B.jpg","null","",NA,NA,NA,NA,""
"image-keyboard-response",262,228318,"0.0-3.83-2.83","te03parf6jopubr",765,"170.csv","","null","resources/images/coin2.png","null","",NA,NA,NA,NA,""
"image-keyboard-response",263,228653,"0.0-3.84-0.84","te03parf6jopubr",765,"170.csv","","333.90000000596046","resources/trios/L1T2A3.jpg","39","restless",0.8,0.5,0.5,0.241326915619184,"true"
"image-keyboard-response",264,229060,"0.0-3.84-1.84","te03parf6jopubr",765,"170.csv","","null","resources/maskTrios/BBA3.jpg","null","",NA,NA,NA,NA,""
"image-keyboard-response",265,230261,"0.0-3.84-2.84","te03parf6jopubr",765,"170.csv","","null","resources/images/coin2.png","null","",NA,NA,NA,NA,""
"image-keyboard-response",266,231060,"0.0-3.85-0.85","te03parf6jopubr",765,"170.csv","","798","resources/trios/L1T4A3.jpg","38","restless",0.8,0.4,0.5,0.244221602890204,"true"
"image-keyboard-response",267,231466,"0.0-3.85-1.85","te03parf6jopubr",765,"170.csv","","null","resources/maskTrios/BT4B.jpg","null","",NA,NA,NA,NA,""
"image-keyboard-response",268,232670,"0.0-3.85-2.85","te03parf6jopubr",765,"170.csv","","null","resources/images/coin2.png","null","",NA,NA,NA,NA,""
"image-keyboard-response",269,234263,"0.0-3.86-0.86","te03parf6jopubr",765,"170.csv","","1592.0999999940395","resources/trios/L1T2A2.jpg","37","restless",0.8,0.4,0.5,0.886548155972127,"false"
"image-keyboard-response",270,234665,"0.0-3.86-1.86","te03parf6jopubr",765,"170.csv","","null","resources/maskTrios/L1BB.jpg","null","",NA,NA,NA,NA,""
"image-keyboard-response",271,235871,"0.0-3.86-2.86","te03parf6jopubr",765,"170.csv","","null","resources/images/fishbone.png","null","",NA,NA,NA,NA,""
"image-keyboard-response",272,237598,"0.0-3.87-0.87","te03parf6jopubr",765,"170.csv","","1725.9000000059605","resources/trios/L1T4A2.jpg","37","restless",0.8,0.4,0.5,0.878282724312956,"false"
"image-keyboard-response",273,238005,"0.0-3.87-1.87","te03parf6jopubr",765,"170.csv","","null","resources/maskTrios/L1BB.jpg","null","",NA,NA,NA,NA,""
"image-keyboard-response",274,239211,"0.0-3.87-2.87","te03parf6jopubr",765,"170.csv","","null","resources/images/fishbone.png","null","",NA,NA,NA,NA,""
"image-keyboard-response",275,239490,"0.0-3.88-0.88","te03parf6jopubr",765,"170.csv","","277.90000000596046","resources/trios/L4T2A3.jpg","38","restless",0.8,0.4,0.5,0.551702255440302,"false"
"image-keyboard-response",276,239893,"0.0-3.88-1.88","te03parf6jopubr",765,"170.csv","","null","resources/maskTrios/BT2B.jpg","null","",NA,NA,NA,NA,""
"image-keyboard-response",277,241098,"0.0-3.88-2.88","te03parf6jopubr",765,"170.csv","","null","resources/images/fishbone.png","null","",NA,NA,NA,NA,""
"image-keyboard-response",278,241366,"0.0-3.89-0.89","te03parf6jopubr",765,"170.csv","","267.3999999910593","resources/trios/L4T4A2.jpg","37","restless",0.7,0.4,0.5,0.0693983388796429,"true"
"image-keyboard-response",279,241769,"0.0-3.89-1.89","te03parf6jopubr",765,"170.csv","","null","resources/maskTrios/L4BB.jpg","null","",NA,NA,NA,NA,""
"image-keyboard-response",280,242973,"0.0-3.89-2.89","te03parf6jopubr",765,"170.csv","","null","resources/images/coin2.png","null","",NA,NA,NA,NA,""
"image-keyboard-response",281,243257,"0.0-3.90-0.90","te03parf6jopubr",765,"170.csv","","282.29999999701977","resources/trios/L1T2A2.jpg","38","restless",0.7,0.4,0.5,0.140964633083607,"true"
"image-keyboard-response",282,243659,"0.0-3.90-1.90","te03parf6jopubr",765,"170.csv","","null","resources/maskTrios/BT2B.jpg","null","",NA,NA,NA,NA,""
"image-keyboard-response",283,244865,"0.0-3.90-2.90","te03parf6jopubr",765,"170.csv","","null","resources/images/coin2.png","null","",NA,NA,NA,NA,""
"image-keyboard-response",284,245175,"0.0-3.91-0.91","te03parf6jopubr",765,"170.csv","","308.20000000298023","resources/trios/L4T2A3.jpg","39","restless",0.7,0.4,0.5,0.515984075956265,"false"
"image-keyboard-response",285,245581,"0.0-3.91-1.91","te03parf6jopubr",765,"170.csv","","null","resources/maskTrios/BBA3.jpg","null","",NA,NA,NA,NA,""
"image-keyboard-response",286,246787,"0.0-3.91-2.91","te03parf6jopubr",765,"170.csv","","null","resources/images/fishbone.png","null","",NA,NA,NA,NA,""
"image-keyboard-response",287,247177,"0.0-3.92-0.92","te03parf6jopubr",765,"170.csv","","388.29999999701977","resources/trios/L1T4A2.jpg","37","restless",0.7,0.4,0.6,0.258946384459164,"true"
"image-keyboard-response",288,247583,"0.0-3.92-1.92","te03parf6jopubr",765,"170.csv","","null","resources/maskTrios/L1BB.jpg","null","",NA,NA,NA,NA,""
"image-keyboard-response",289,248786,"0.0-3.92-2.92","te03parf6jopubr",765,"170.csv","","null","resources/images/coin2.png","null","",NA,NA,NA,NA,""
"image-keyboard-response",290,249207,"0.0-3.93-0.93","te03parf6jopubr",765,"170.csv","","420.30000001192093","resources/trios/L1T2A3.jpg","38","restless",0.7,0.4,0.6,0.869388647789357,"false"
"image-keyboard-response",291,249613,"0.0-3.93-1.93","te03parf6jopubr",765,"170.csv","","null","resources/maskTrios/BT2B.jpg","null","",NA,NA,NA,NA,""
"image-keyboard-response",292,250817,"0.0-3.93-2.93","te03parf6jopubr",765,"170.csv","","null","resources/images/fishbone.png","null","",NA,NA,NA,NA,""
"image-keyboard-response",293,251118,"0.0-3.94-0.94","te03parf6jopubr",765,"170.csv","","301","resources/trios/L4T4A2.jpg","39","restless",0.7,0.4,0.6,0.369046978537649,"true"
"image-keyboard-response",294,251523,"0.0-3.94-1.94","te03parf6jopubr",765,"170.csv","","null","resources/maskTrios/BBA2.jpg","null","",NA,NA,NA,NA,""
"image-keyboard-response",295,252730,"0.0-3.94-2.94","te03parf6jopubr",765,"170.csv","","null","resources/images/coin2.png","null","",NA,NA,NA,NA,""
"image-keyboard-response",296,253130,"0.0-3.95-0.95","te03parf6jopubr",765,"170.csv","","398.70000000298023","resources/trios/L4T2A3.jpg","37","restless",0.7,0.4,0.6,0.354379240575603,"true"
"image-keyboard-response",297,253536,"0.0-3.95-1.95","te03parf6jopubr",765,"170.csv","","null","resources/maskTrios/L4BB.jpg","null","",NA,NA,NA,NA,""
"image-keyboard-response",298,254743,"0.0-3.95-2.95","te03parf6jopubr",765,"170.csv","","null","resources/images/coin2.png","null","",NA,NA,NA,NA,""
"image-keyboard-response",299,255144,"0.0-3.96-0.96","te03parf6jopubr",765,"170.csv","","399.40000000596046","resources/trios/L1T2A2.jpg","38","restless",0.7,0.4,0.6,0.0420250242077835,"true"
"image-keyboard-response",300,255551,"0.0-3.96-1.96","te03parf6jopubr",765,"170.csv","","null","resources/maskTrios/BT2B.jpg","null","",NA,NA,NA,NA,""
"image-keyboard-response",301,256754,"0.0-3.96-2.96","te03parf6jopubr",765,"170.csv","","null","resources/images/coin2.png","null","",NA,NA,NA,NA,""
"image-keyboard-response",302,257056,"0.0-3.97-0.97","te03parf6jopubr",765,"170.csv","","300.59999999403954","resources/trios/L4T4A2.jpg","39","restless",0.7,0.5,0.6,0.900155544592723,"false"
"image-keyboard-response",303,257461,"0.0-3.97-1.97","te03parf6jopubr",765,"170.csv","","null","resources/maskTrios/BBA2.jpg","null","",NA,NA,NA,NA,""
"image-keyboard-response",304,258667,"0.0-3.97-2.97","te03parf6jopubr",765,"170.csv","","null","resources/images/fishbone.png","null","",NA,NA,NA,NA,""
"image-keyboard-response",305,258975,"0.0-3.98-0.98","te03parf6jopubr",765,"170.csv","","306.20000000298023","resources/trios/L1T2A3.jpg","37","restless",0.7,0.5,0.6,0.0885424507715711,"true"
"image-keyboard-response",306,259379,"0.0-3.98-1.98","te03parf6jopubr",765,"170.csv","","null","resources/maskTrios/L1BB.jpg","null","",NA,NA,NA,NA,""
"image-keyboard-response",307,260583,"0.0-3.98-2.98","te03parf6jopubr",765,"170.csv","","null","resources/images/coin2.png","null","",NA,NA,NA,NA,""
"image-keyboard-response",308,260873,"0.0-3.99-0.99","te03parf6jopubr",765,"170.csv","","289.09999999403954","resources/trios/L4T4A2.jpg","38","restless",0.7,0.5,0.6,0.181095095611133,"true"
"image-keyboard-response",309,261275,"0.0-3.99-1.99","te03parf6jopubr",765,"170.csv","","null","resources/maskTrios/BT4B.jpg","null","",NA,NA,NA,NA,""
"image-keyboard-response",310,262482,"0.0-3.99-2.99","te03parf6jopubr",765,"170.csv","","null","resources/images/coin2.png","null","",NA,NA,NA,NA,""
"image-keyboard-response",311,262781,"0.0-3.100-0.100","te03parf6jopubr",765,"170.csv","","298.19999998807907","resources/trios/L4T4A2.jpg","39","restless",0.7,0.5,0.6,0.800271394404056,"false"
"image-keyboard-response",312,263188,"0.0-3.100-1.100","te03parf6jopubr",765,"170.csv","","null","resources/maskTrios/BBA2.jpg","null","",NA,NA,NA,NA,""
"image-keyboard-response",313,264392,"0.0-3.100-2.100","te03parf6jopubr",765,"170.csv","","null","resources/images/fishbone.png","null","",NA,NA,NA,NA,""
"image-keyboard-response",314,264730,"0.0-3.101-0.101","te03parf6jopubr",765,"170.csv","","337.19999998807907","resources/trios/L1T2A2.jpg","37","restless",0.7,0.5,0.5,0.993740560157865,"false"
"image-keyboard-response",315,265136,"0.0-3.101-1.101","te03parf6jopubr",765,"170.csv","","null","resources/maskTrios/L1BB.jpg","null","",NA,NA,NA,NA,""
"image-keyboard-response",316,266341,"0.0-3.101-2.101","te03parf6jopubr",765,"170.csv","","null","resources/images/fishbone.png","null","",NA,NA,NA,NA,""
"image-keyboard-response",317,266578,"0.0-3.102-0.102","te03parf6jopubr",765,"170.csv","","235.1000000089407","resources/trios/L4T4A3.jpg","38","restless",0.7,0.5,0.6,0.442120703751364,"true"
"image-keyboard-response",318,266982,"0.0-3.102-1.102","te03parf6jopubr",765,"170.csv","","null","resources/maskTrios/BT4B.jpg","null","",NA,NA,NA,NA,""
"image-keyboard-response",319,268186,"0.0-3.102-2.102","te03parf6jopubr",765,"170.csv","","null","resources/images/coin2.png","null","",NA,NA,NA,NA,""
"image-keyboard-response",320,268461,"0.0-3.103-0.103","te03parf6jopubr",765,"170.csv","","273.09999999403954","resources/trios/L4T2A2.jpg","39","restless",0.7,0.5,0.6,0.826990253487242,"false"
"image-keyboard-response",321,268868,"0.0-3.103-1.103","te03parf6jopubr",765,"170.csv","","null","resources/maskTrios/BBA2.jpg","null","",NA,NA,NA,NA,""
"image-keyboard-response",322,270074,"0.0-3.103-2.103","te03parf6jopubr",765,"170.csv","","null","resources/images/fishbone.png","null","",NA,NA,NA,NA,""
"image-keyboard-response",323,270393,"0.0-3.104-0.104","te03parf6jopubr",765,"170.csv","","317.59999999403954","resources/trios/L4T2A3.jpg","37","restless",0.7,0.6,0.6,0.501487358653274,"true"
"image-keyboard-response",324,270795,"0.0-3.104-1.104","te03parf6jopubr",765,"170.csv","","null","resources/maskTrios/L4BB.jpg","null","",NA,NA,NA,NA,""
"image-keyboard-response",325,271997,"0.0-3.104-2.104","te03parf6jopubr",765,"170.csv","","null","resources/images/coin2.png","null","",NA,NA,NA,NA,""
"image-keyboard-response",326,272384,"0.0-3.105-0.105","te03parf6jopubr",765,"170.csv","","385.09999999403954","resources/trios/L1T2A3.jpg","38","restless",0.6,0.6,0.6,0.654321698379219,"false"
"image-keyboard-response",327,272790,"0.0-3.105-1.105","te03parf6jopubr",765,"170.csv","","null","resources/maskTrios/BT2B.jpg","null","",NA,NA,NA,NA,""
"image-keyboard-response",328,273996,"0.0-3.105-2.105","te03parf6jopubr",765,"170.csv","","null","resources/images/fishbone.png","null","",NA,NA,NA,NA,""
"image-keyboard-response",329,274344,"0.0-3.106-0.106","te03parf6jopubr",765,"170.csv","","346.3999999910593","resources/trios/L4T2A2.jpg","39","restless",0.5,0.5,0.6,0.0865519135486241,"true"
"image-keyboard-response",330,274751,"0.0-3.106-1.106","te03parf6jopubr",765,"170.csv","","null","resources/maskTrios/BBA2.jpg","null","",NA,NA,NA,NA,""
"image-keyboard-response",331,275957,"0.0-3.106-2.106","te03parf6jopubr",765,"170.csv","","null","resources/images/coin2.png","null","",NA,NA,NA,NA,""
"image-keyboard-response",332,277466,"0.0-3.107-0.107","te03parf6jopubr",765,"170.csv","","1507.2000000029802","resources/trios/L4T2A3.jpg","37","restless",0.5,0.6,0.6,0.583292852195809,"false"
"image-keyboard-response",333,277869,"0.0-3.107-1.107","te03parf6jopubr",765,"170.csv","","null","resources/maskTrios/L4BB.jpg","null","",NA,NA,NA,NA,""
"image-keyboard-response",334,279071,"0.0-3.107-2.107","te03parf6jopubr",765,"170.csv","","null","resources/images/fishbone.png","null","",NA,NA,NA,NA,""
"image-keyboard-response",335,279490,"0.0-3.108-0.108","te03parf6jopubr",765,"170.csv","","417.90000000596046","resources/trios/L4T2A2.jpg","38","restless",0.5,0.7,0.6,0.944968794467206,"false"
"image-keyboard-response",336,279896,"0.0-3.108-1.108","te03parf6jopubr",765,"170.csv","","null","resources/maskTrios/BT2B.jpg","null","",NA,NA,NA,NA,""
"image-keyboard-response",337,281099,"0.0-3.108-2.108","te03parf6jopubr",765,"170.csv","","null","resources/images/fishbone.png","null","",NA,NA,NA,NA,""
"image-keyboard-response",338,281566,"0.0-3.109-0.109","te03parf6jopubr",765,"170.csv","","466.29999999701977","resources/trios/L1T2A2.jpg","39","restless",0.5,0.7,0.6,0.142102354420725,"true"
"image-keyboard-response",339,281973,"0.0-3.109-1.109","te03parf6jopubr",765,"170.csv","","null","resources/maskTrios/BBA2.jpg","null","",NA,NA,NA,NA,""
"image-keyboard-response",340,283176,"0.0-3.109-2.109","te03parf6jopubr",765,"170.csv","","null","resources/images/coin2.png","null","",NA,NA,NA,NA,""
"image-keyboard-response",341,283287,"0.0-3.110-0.110","te03parf6jopubr",765,"170.csv","","108.8999999910593","resources/trios/L1T2A2.jpg","37","restless",0.5,0.7,0.6,0.066761023147363,"true"
"image-keyboard-response",342,283691,"0.0-3.110-1.110","te03parf6jopubr",765,"170.csv","","null","resources/maskTrios/L1BB.jpg","null","",NA,NA,NA,NA,""
"image-keyboard-response",343,284898,"0.0-3.110-2.110","te03parf6jopubr",765,"170.csv","","null","resources/images/coin2.png","null","",NA,NA,NA,NA,""
"image-keyboard-response",344,285434,"0.0-3.111-0.111","te03parf6jopubr",765,"170.csv","","534.5","resources/trios/L1T4A2.jpg","37","restless",0.5,0.7,0.6,0.369108933614259,"true"
"image-keyboard-response",345,285840,"0.0-3.111-1.111","te03parf6jopubr",765,"170.csv","","null","resources/maskTrios/L1BB.jpg","null","",NA,NA,NA,NA,""
"image-keyboard-response",346,287045,"0.0-3.111-2.111","te03parf6jopubr",765,"170.csv","","null","resources/images/coin2.png","null","",NA,NA,NA,NA,""
"image-keyboard-response",347,287345,"0.0-3.112-0.112","te03parf6jopubr",765,"170.csv","","298.5","resources/trios/L1T4A3.jpg","38","restless",0.6,0.7,0.6,0.729487498586479,"false"
"image-keyboard-response",348,287751,"0.0-3.112-1.112","te03parf6jopubr",765,"170.csv","","null","resources/maskTrios/BT4B.jpg","null","",NA,NA,NA,NA,""
"image-keyboard-response",349,288956,"0.0-3.112-2.112","te03parf6jopubr",765,"170.csv","","null","resources/images/fishbone.png","null","",NA,NA,NA,NA,""
"image-keyboard-response",350,289195,"0.0-3.113-0.113","te03parf6jopubr",765,"170.csv","","237.1000000089407","resources/trios/L4T4A2.jpg","39","restless",0.7,0.7,0.6,0.314213992838806,"true"
"image-keyboard-response",351,289598,"0.0-3.113-1.113","te03parf6jopubr",765,"170.csv","","null","resources/maskTrios/BBA2.jpg","null","",NA,NA,NA,NA,""
"image-keyboard-response",352,290801,"0.0-3.113-2.113","te03parf6jopubr",765,"170.csv","","null","resources/images/coin2.png","null","",NA,NA,NA,NA,""
"image-keyboard-response",353,291199,"0.0-3.114-0.114","te03parf6jopubr",765,"170.csv","","397.59999999403954","resources/trios/L1T4A2.jpg","37","restless",0.6,0.7,0.6,0.404634992192828,"true"
"image-keyboard-response",354,291606,"0.0-3.114-1.114","te03parf6jopubr",765,"170.csv","","null","resources/maskTrios/L1BB.jpg","null","",NA,NA,NA,NA,""
"image-keyboard-response",355,292807,"0.0-3.114-2.114","te03parf6jopubr",765,"170.csv","","null","resources/images/coin2.png","null","",NA,NA,NA,NA,""
"image-keyboard-response",356,293135,"0.0-3.115-0.115","te03parf6jopubr",765,"170.csv","","327.09999999403954","resources/trios/L1T2A2.jpg","38","restless",0.6,0.7,0.6,0.861041132377323,"false"
"image-keyboard-response",357,293540,"0.0-3.115-1.115","te03parf6jopubr",765,"170.csv","","null","resources/maskTrios/BT2B.jpg","null","",NA,NA,NA,NA,""
"image-keyboard-response",358,294747,"0.0-3.115-2.115","te03parf6jopubr",765,"170.csv","","null","resources/images/fishbone.png","null","",NA,NA,NA,NA,""
"image-keyboard-response",359,294976,"0.0-3.116-0.116","te03parf6jopubr",765,"170.csv","","228.09999999403954","resources/trios/L1T4A2.jpg","37","restless",0.5,0.7,0.6,0.994559566292855,"false"
"image-keyboard-response",360,295382,"0.0-3.116-1.116","te03parf6jopubr",765,"170.csv","","null","resources/maskTrios/L1BB.jpg","null","",NA,NA,NA,NA,""
"image-keyboard-response",361,296589,"0.0-3.116-2.116","te03parf6jopubr",765,"170.csv","","null","resources/images/fishbone.png","null","",NA,NA,NA,NA,""
"image-keyboard-response",362,296845,"0.0-3.117-0.117","te03parf6jopubr",765,"170.csv","","254.30000001192093","resources/trios/L1T4A2.jpg","38","restless",0.5,0.7,0.6,0.23247941144388,"true"
"image-keyboard-response",363,297251,"0.0-3.117-1.117","te03parf6jopubr",765,"170.csv","","null","resources/maskTrios/BT4B.jpg","null","",NA,NA,NA,NA,""
"image-keyboard-response",364,298455,"0.0-3.117-2.117","te03parf6jopubr",765,"170.csv","","null","resources/images/coin2.png","null","",NA,NA,NA,NA,""
"image-keyboard-response",365,298769,"0.0-3.118-0.118","te03parf6jopubr",765,"170.csv","","311.79999999701977","resources/trios/L4T4A3.jpg","39","restless",0.5,0.7,0.6,0.299841605330211,"true"
"image-keyboard-response",366,299173,"0.0-3.118-1.118","te03parf6jopubr",765,"170.csv","","null","resources/maskTrios/BBA3.jpg","null","",NA,NA,NA,NA,""
"image-keyboard-response",367,300375,"0.0-3.118-2.118","te03parf6jopubr",765,"170.csv","","null","resources/images/coin2.png","null","",NA,NA,NA,NA,""
"image-keyboard-response",368,301079,"0.0-3.119-0.119","te03parf6jopubr",765,"170.csv","","702.5","resources/trios/L4T4A2.jpg","38","restless",0.5,0.7,0.6,0.767004416181462,"false"
"image-keyboard-response",369,301485,"0.0-3.119-1.119","te03parf6jopubr",765,"170.csv","","null","resources/maskTrios/BT4B.jpg","null","",NA,NA,NA,NA,""
"image-keyboard-response",370,302692,"0.0-3.119-2.119","te03parf6jopubr",765,"170.csv","","null","resources/images/fishbone.png","null","",NA,NA,NA,NA,""
"image-keyboard-response",371,303345,"0.0-3.120-0.120","te03parf6jopubr",765,"170.csv","","651.7000000029802","resources/trios/L4T2A2.jpg","37","restless",0.5,0.7,0.6,0.394071582915996,"true"
"image-keyboard-response",372,303748,"0.0-3.120-1.120","te03parf6jopubr",765,"170.csv","","null","resources/maskTrios/L4BB.jpg","null","",NA,NA,NA,NA,""
"image-keyboard-response",373,304954,"0.0-3.120-2.120","te03parf6jopubr",765,"170.csv","","null","resources/images/coin2.png","null","",NA,NA,NA,NA,""
"image-keyboard-response",374,306330,"0.0-3.121-0.121","te03parf6jopubr",765,"170.csv","","1375.2000000029802","resources/trios/L4T4A2.jpg","37","restless",0.5,0.7,0.6,0.182423310650649,"true"
"image-keyboard-response",375,306735,"0.0-3.121-1.121","te03parf6jopubr",765,"170.csv","","null","resources/maskTrios/L4BB.jpg","null","",NA,NA,NA,NA,""
"image-keyboard-response",376,307941,"0.0-3.121-2.121","te03parf6jopubr",765,"170.csv","","null","resources/images/coin2.png","null","",NA,NA,NA,NA,""
"image-keyboard-response",377,308320,"0.0-3.122-0.122","te03parf6jopubr",765,"170.csv","","377.1000000089407","resources/trios/L4T2A3.jpg","37","restless",0.5,0.7,0.5,0.401481841118961,"true"
"image-keyboard-response",378,308722,"0.0-3.122-1.122","te03parf6jopubr",765,"170.csv","","null","resources/maskTrios/L4BB.jpg","null","",NA,NA,NA,NA,""
"image-keyboard-response",379,309929,"0.0-3.122-2.122","te03parf6jopubr",765,"170.csv","","null","resources/images/coin2.png","null","",NA,NA,NA,NA,""
"image-keyboard-response",380,310623,"0.0-3.123-0.123","te03parf6jopubr",765,"170.csv","","692.8999999910593","resources/trios/L4T4A2.jpg","38","restless",0.5,0.7,0.5,0.569414024350226,"true"
"image-keyboard-response",381,311025,"0.0-3.123-1.123","te03parf6jopubr",765,"170.csv","","null","resources/maskTrios/BT4B.jpg","null","",NA,NA,NA,NA,""
"image-keyboard-response",382,312232,"0.0-3.123-2.123","te03parf6jopubr",765,"170.csv","","null","resources/images/coin2.png","null","",NA,NA,NA,NA,""
"image-keyboard-response",383,312553,"0.0-3.124-0.124","te03parf6jopubr",765,"170.csv","","319.29999999701977","resources/trios/L4T2A3.jpg","39","restless",0.5,0.7,0.5,0.0565011534795405,"true"
"image-keyboard-response",384,312959,"0.0-3.124-1.124","te03parf6jopubr",765,"170.csv","","null","resources/maskTrios/BBA3.jpg","null","",NA,NA,NA,NA,""
"image-keyboard-response",385,314161,"0.0-3.124-2.124","te03parf6jopubr",765,"170.csv","","null","resources/images/coin2.png","null","",NA,NA,NA,NA,""
"image-keyboard-response",386,314454,"0.0-3.125-0.125","te03parf6jopubr",765,"170.csv","","291.20000000298023","resources/trios/L4T2A3.jpg","37","restless",0.5,0.7,0.5,0.660797024247307,"false"
"image-keyboard-response",387,314856,"0.0-3.125-1.125","te03parf6jopubr",765,"170.csv","","null","resources/maskTrios/L4BB.jpg","null","",NA,NA,NA,NA,""
"image-keyboard-response",388,316062,"0.0-3.125-2.125","te03parf6jopubr",765,"170.csv","","null","resources/images/fishbone.png","null","",NA,NA,NA,NA,""
"image-keyboard-response",389,316370,"0.0-3.126-0.126","te03parf6jopubr",765,"170.csv","","306.19999998807907","resources/trios/L1T4A2.jpg","38","restless",0.5,0.7,0.5,0.987199441554864,"false"
"image-keyboard-response",390,316772,"0.0-3.126-1.126","te03parf6jopubr",765,"170.csv","","null","resources/maskTrios/BT4B.jpg","null","",NA,NA,NA,NA,""
"image-keyboard-response",391,317978,"0.0-3.126-2.126","te03parf6jopubr",765,"170.csv","","null","resources/images/fishbone.png","null","",NA,NA,NA,NA,""
"image-keyboard-response",392,318267,"0.0-3.127-0.127","te03parf6jopubr",765,"170.csv","","287.20000000298023","resources/trios/L4T4A3.jpg","39","restless",0.5,0.7,0.5,0.106021657685297,"true"
"image-keyboard-response",393,318673,"0.0-3.127-1.127","te03parf6jopubr",765,"170.csv","","null","resources/maskTrios/BBA3.jpg","null","",NA,NA,NA,NA,""
"image-keyboard-response",394,319880,"0.0-3.127-2.127","te03parf6jopubr",765,"170.csv","","null","resources/images/coin2.png","null","",NA,NA,NA,NA,""
"image-keyboard-response",395,320534,"0.0-3.128-0.128","te03parf6jopubr",765,"170.csv","","652.5999999940395","resources/trios/L1T2A2.jpg","39","restless",0.5,0.7,0.5,0.925779915044465,"false"
"image-keyboard-response",396,320940,"0.0-3.128-1.128","te03parf6jopubr",765,"170.csv","","null","resources/maskTrios/BBA2.jpg","null","",NA,NA,NA,NA,""
"image-keyboard-response",397,322146,"0.0-3.128-2.128","te03parf6jopubr",765,"170.csv","","null","resources/images/fishbone.png","null","",NA,NA,NA,NA,""
"image-keyboard-response",398,322470,"0.0-3.129-0.129","te03parf6jopubr",765,"170.csv","","322.29999999701977","resources/trios/L4T2A3.jpg","37","restless",0.5,0.7,0.5,0.920524075082629,"false"
"image-keyboard-response",399,322873,"0.0-3.129-1.129","te03parf6jopubr",765,"170.csv","","null","resources/maskTrios/L4BB.jpg","null","",NA,NA,NA,NA,""
"image-keyboard-response",400,324078,"0.0-3.129-2.129","te03parf6jopubr",765,"170.csv","","null","resources/images/fishbone.png","null","",NA,NA,NA,NA,""
"image-keyboard-response",401,324335,"0.0-3.130-0.130","te03parf6jopubr",765,"170.csv","","256","resources/trios/L1T4A3.jpg","38","restless",0.5,0.7,0.5,0.860416102880138,"false"
"image-keyboard-response",402,324739,"0.0-3.130-1.130","te03parf6jopubr",765,"170.csv","","null","resources/maskTrios/BT4B.jpg","null","",NA,NA,NA,NA,""
"image-keyboard-response",403,325945,"0.0-3.130-2.130","te03parf6jopubr",765,"170.csv","","null","resources/images/fishbone.png","null","",NA,NA,NA,NA,""
"image-keyboard-response",404,326209,"0.0-3.131-0.131","te03parf6jopubr",765,"170.csv","","262.5","resources/trios/L1T4A3.jpg","39","restless",0.5,0.7,0.5,0.227895215382866,"true"
"image-keyboard-response",405,326616,"0.0-3.131-1.131","te03parf6jopubr",765,"170.csv","","null","resources/maskTrios/BBA3.jpg","null","",NA,NA,NA,NA,""
"image-keyboard-response",406,327822,"0.0-3.131-2.131","te03parf6jopubr",765,"170.csv","","null","resources/images/coin2.png","null","",NA,NA,NA,NA,""
"image-keyboard-response",407,328123,"0.0-3.132-0.132","te03parf6jopubr",765,"170.csv","","299.3999999910593","resources/trios/L4T2A2.jpg","37","restless",0.5,0.8,0.5,0.556777362302392,"false"
"image-keyboard-response",408,328526,"0.0-3.132-1.132","te03parf6jopubr",765,"170.csv","","null","resources/maskTrios/L4BB.jpg","null","",NA,NA,NA,NA,""
"image-keyboard-response",409,329731,"0.0-3.132-2.132","te03parf6jopubr",765,"170.csv","","null","resources/images/fishbone.png","null","",NA,NA,NA,NA,""
"image-keyboard-response",410,330133,"0.0-3.133-0.133","te03parf6jopubr",765,"170.csv","","400.5","resources/trios/L4T2A2.jpg","38","restless",0.5,0.8,0.5,0.94700119602058,"false"
"image-keyboard-response",411,330539,"0.0-3.133-1.133","te03parf6jopubr",765,"170.csv","","null","resources/maskTrios/BT2B.jpg","null","",NA,NA,NA,NA,""
"image-keyboard-response",412,331743,"0.0-3.133-2.133","te03parf6jopubr",765,"170.csv","","null","resources/images/fishbone.png","null","",NA,NA,NA,NA,""
"image-keyboard-response",413,332039,"0.0-3.134-0.134","te03parf6jopubr",765,"170.csv","","295.09999999403954","resources/trios/L4T4A3.jpg","39","restless",0.5,0.8,0.5,0.581506331843051,"false"
"image-keyboard-response",414,332446,"0.0-3.134-1.134","te03parf6jopubr",765,"170.csv","","null","resources/maskTrios/BBA3.jpg","null","",NA,NA,NA,NA,""
"image-keyboard-response",415,333647,"0.0-3.134-2.134","te03parf6jopubr",765,"170.csv","","null","resources/images/fishbone.png","null","",NA,NA,NA,NA,""
"image-keyboard-response",416,333939,"0.0-3.135-0.135","te03parf6jopubr",765,"170.csv","","290.5","resources/trios/L4T4A2.jpg","39","restless",0.5,0.8,0.5,0.27098765852229,"true"
"image-keyboard-response",417,334345,"0.0-3.135-1.135","te03parf6jopubr",765,"170.csv","","null","resources/maskTrios/BBA2.jpg","null","",NA,NA,NA,NA,""
"image-keyboard-response",418,335552,"0.0-3.135-2.135","te03parf6jopubr",765,"170.csv","","null","resources/images/coin2.png","null","",NA,NA,NA,NA,""
"image-keyboard-response",419,335938,"0.0-3.136-0.136","te03parf6jopubr",765,"170.csv","","384.80000001192093","resources/trios/L4T2A3.jpg","38","restless",0.5,0.8,0.5,0.430460053909792,"true"
"image-keyboard-response",420,336344,"0.0-3.136-1.136","te03parf6jopubr",765,"170.csv","","null","resources/maskTrios/BT2B.jpg","null","",NA,NA,NA,NA,""
"image-keyboard-response",421,337550,"0.0-3.136-2.136","te03parf6jopubr",765,"170.csv","","null","resources/images/coin2.png","null","",NA,NA,NA,NA,""
"image-keyboard-response",422,337879,"0.0-3.137-0.137","te03parf6jopubr",765,"170.csv","","327.70000000298023","resources/trios/L4T4A3.jpg","37","restless",0.5,0.8,0.5,0.0872891822274571,"true"
"image-keyboard-response",423,338285,"0.0-3.137-1.137","te03parf6jopubr",765,"170.csv","","null","resources/maskTrios/L4BB.jpg","null","",NA,NA,NA,NA,""
"image-keyboard-response",424,339488,"0.0-3.137-2.137","te03parf6jopubr",765,"170.csv","","null","resources/images/coin2.png","null","",NA,NA,NA,NA,""
"image-keyboard-response",425,339765,"0.0-3.138-0.138","te03parf6jopubr",765,"170.csv","","274.6000000089407","resources/trios/L4T2A2.jpg","38","restless",0.5,0.8,0.5,0.763863138025538,"true"
"image-keyboard-response",426,340166,"0.0-3.138-1.138","te03parf6jopubr",765,"170.csv","","null","resources/maskTrios/BT2B.jpg","null","",NA,NA,NA,NA,""
"image-keyboard-response",427,341372,"0.0-3.138-2.138","te03parf6jopubr",765,"170.csv","","null","resources/images/coin2.png","null","",NA,NA,NA,NA,""
"image-keyboard-response",428,341628,"0.0-3.139-0.139","te03parf6jopubr",765,"170.csv","","254.40000000596046","resources/trios/L4T2A2.jpg","39","restless",0.5,0.8,0.5,0.637160748802457,"false"
"image-keyboard-response",429,342032,"0.0-3.139-1.139","te03parf6jopubr",765,"170.csv","","null","resources/maskTrios/BBA2.jpg","null","",NA,NA,NA,NA,""
"image-keyboard-response",430,343237,"0.0-3.139-2.139","te03parf6jopubr",765,"170.csv","","null","resources/images/fishbone.png","null","",NA,NA,NA,NA,""
"image-keyboard-response",431,343497,"0.0-3.140-0.140","te03parf6jopubr",765,"170.csv","","258","resources/trios/L1T2A2.jpg","38","restless",0.5,0.8,0.4,0.954094338946298,"false"
"image-keyboard-response",432,343903,"0.0-3.140-1.140","te03parf6jopubr",765,"170.csv","","null","resources/maskTrios/BT2B.jpg","null","",NA,NA,NA,NA,""
"image-keyboard-response",433,345107,"0.0-3.140-2.140","te03parf6jopubr",765,"170.csv","","null","resources/images/fishbone.png","null","",NA,NA,NA,NA,""
"image-keyboard-response",434,345418,"0.0-3.141-0.141","te03parf6jopubr",765,"170.csv","","309.5","resources/trios/L4T2A2.jpg","37","restless",0.5,0.8,0.4,0.0250239691572456,"true"
"image-keyboard-response",435,345821,"0.0-3.141-1.141","te03parf6jopubr",765,"170.csv","","null","resources/maskTrios/L4BB.jpg","null","",NA,NA,NA,NA,""
"image-keyboard-response",436,347027,"0.0-3.141-2.141","te03parf6jopubr",765,"170.csv","","null","resources/images/coin2.png","null","",NA,NA,NA,NA,""
"image-keyboard-response",437,347297,"0.0-3.142-0.142","te03parf6jopubr",765,"170.csv","","268.3999999910593","resources/trios/L4T2A3.jpg","38","restless",0.5,0.7,0.3,0.161373105318313,"true"
"image-keyboard-response",438,347703,"0.0-3.142-1.142","te03parf6jopubr",765,"170.csv","","null","resources/maskTrios/BT2B.jpg","null","",NA,NA,NA,NA,""
"image-keyboard-response",439,348909,"0.0-3.142-2.142","te03parf6jopubr",765,"170.csv","","null","resources/images/coin2.png","null","",NA,NA,NA,NA,""
"image-keyboard-response",440,349231,"0.0-3.143-0.143","te03parf6jopubr",765,"170.csv","","320.6000000089407","resources/trios/L1T4A2.jpg","39","restless",0.5,0.7,0.3,0.552880736807547,"false"
"image-keyboard-response",441,349637,"0.0-3.143-1.143","te03parf6jopubr",765,"170.csv","","null","resources/maskTrios/BBA2.jpg","null","",NA,NA,NA,NA,""
"image-keyboard-response",442,350844,"0.0-3.143-2.143","te03parf6jopubr",765,"170.csv","","null","resources/images/fishbone.png","null","",NA,NA,NA,NA,""
"image-keyboard-response",443,351164,"0.0-3.144-0.144","te03parf6jopubr",765,"170.csv","","319.29999999701977","resources/trios/L4T2A3.jpg","39","restless",0.5,0.7,0.3,0.112628116100054,"true"
"image-keyboard-response",444,351570,"0.0-3.144-1.144","te03parf6jopubr",765,"170.csv","","null","resources/maskTrios/BBA3.jpg","null","",NA,NA,NA,NA,""
"image-keyboard-response",445,352776,"0.0-3.144-2.144","te03parf6jopubr",765,"170.csv","","null","resources/images/coin2.png","null","",NA,NA,NA,NA,""
"image-keyboard-response",446,353036,"0.0-3.145-0.145","te03parf6jopubr",765,"170.csv","","258.59999999403954","resources/trios/L1T4A2.jpg","38","restless",0.6,0.7,0.3,0.915120909972719,"false"
"image-keyboard-response",447,353443,"0.0-3.145-1.145","te03parf6jopubr",765,"170.csv","","null","resources/maskTrios/BT4B.jpg","null","",NA,NA,NA,NA,""
"image-keyboard-response",448,354649,"0.0-3.145-2.145","te03parf6jopubr",765,"170.csv","","null","resources/images/fishbone.png","null","",NA,NA,NA,NA,""
"image-keyboard-response",449,354676,"0.0-3.146-0.146","te03parf6jopubr",765,"170.csv","","25.69999998807907","resources/trios/L1T4A2.jpg","37","restless",0.6,0.7,0.3,0.821758193575227,"false"
"image-keyboard-response",450,355081,"0.0-3.146-1.146","te03parf6jopubr",765,"170.csv","","null","resources/maskTrios/L1BB.jpg","null","",NA,NA,NA,NA,""
"image-keyboard-response",451,356287,"0.0-3.146-2.146","te03parf6jopubr",765,"170.csv","","null","resources/images/fishbone.png","null","",NA,NA,NA,NA,""
"image-keyboard-response",452,356751,"0.0-3.147-0.147","te03parf6jopubr",765,"170.csv","","462","resources/trios/L4T2A3.jpg","37","restless",0.6,0.7,0.3,0.843673055135277,"false"
"image-keyboard-response",453,357158,"0.0-3.147-1.147","te03parf6jopubr",765,"170.csv","","null","resources/maskTrios/L4BB.jpg","null","",NA,NA,NA,NA,""
"image-keyboard-response",454,358364,"0.0-3.147-2.147","te03parf6jopubr",765,"170.csv","","null","resources/images/fishbone.png","null","",NA,NA,NA,NA,""
"image-keyboard-response",455,358609,"0.0-3.148-0.148","te03parf6jopubr",765,"170.csv","","243.90000000596046","resources/trios/L4T4A2.jpg","38","restless",0.6,0.7,0.3,0.807913662098509,"false"
"image-keyboard-response",456,359015,"0.0-3.148-1.148","te03parf6jopubr",765,"170.csv","","null","resources/maskTrios/BT4B.jpg","null","",NA,NA,NA,NA,""
"image-keyboard-response",457,360222,"0.0-3.148-2.148","te03parf6jopubr",765,"170.csv","","null","resources/images/fishbone.png","null","",NA,NA,NA,NA,""
"image-keyboard-response",458,360497,"0.0-3.149-0.149","te03parf6jopubr",765,"170.csv","","274.20000000298023","resources/trios/L1T4A2.jpg","39","restless",0.5,0.7,0.3,0.240468327291106,"true"
"image-keyboard-response",459,360900,"0.0-3.149-1.149","te03parf6jopubr",765,"170.csv","","null","resources/maskTrios/BBA2.jpg","null","",NA,NA,NA,NA,""
"image-keyboard-response",460,362104,"0.0-3.149-2.149","te03parf6jopubr",765,"170.csv","","null","resources/images/coin2.png","null","",NA,NA,NA,NA,""
"image-keyboard-response",461,362987,"0.0-3.150-0.150","te03parf6jopubr",765,"170.csv","","881.5","resources/trios/L4T4A2.jpg","37","restless",0.5,0.7,0.3,0.456915584902637,"true"
"image-keyboard-response",462,363389,"0.0-3.150-1.150","te03parf6jopubr",765,"170.csv","","null","resources/maskTrios/L4BB.jpg","null","",NA,NA,NA,NA,""
"image-keyboard-response",463,364592,"0.0-3.150-2.150","te03parf6jopubr",765,"170.csv","","null","resources/images/coin2.png","null","",NA,NA,NA,NA,""
"image-keyboard-response",464,364843,"0.0-3.151-0.151","te03parf6jopubr",765,"170.csv","","249.40000000596046","resources/trios/L1T2A3.jpg","38","restless",0.6,0.7,0.3,0.786055406900486,"false"
"image-keyboard-response",465,365249,"0.0-3.151-1.151","te03parf6jopubr",765,"170.csv","","null","resources/maskTrios/BT2B.jpg","null","",NA,NA,NA,NA,""
"image-keyboard-response",466,366454,"0.0-3.151-2.151","te03parf6jopubr",765,"170.csv","","null","resources/images/fishbone.png","null","",NA,NA,NA,NA,""
"image-keyboard-response",467,366768,"0.0-3.152-0.152","te03parf6jopubr",765,"170.csv","","312.5","resources/trios/L1T2A2.jpg","39","restless",0.6,0.7,0.3,0.488383367307908,"false"
"image-keyboard-response",468,367171,"0.0-3.152-1.152","te03parf6jopubr",765,"170.csv","","null","resources/maskTrios/BBA2.jpg","null","",NA,NA,NA,NA,""
"image-keyboard-response",469,368374,"0.0-3.152-2.152","te03parf6jopubr",765,"170.csv","","null","resources/images/fishbone.png","null","",NA,NA,NA,NA,""
"image-keyboard-response",470,368878,"0.0-3.153-0.153","te03parf6jopubr",765,"170.csv","","502.3999999910593","resources/trios/L4T2A3.jpg","38","restless",0.6,0.7,0.3,0.352107724781279,"true"
"image-keyboard-response",471,369285,"0.0-3.153-1.153","te03parf6jopubr",765,"170.csv","","null","resources/maskTrios/BT2B.jpg","null","",NA,NA,NA,NA,""
"image-keyboard-response",472,370490,"0.0-3.153-2.153","te03parf6jopubr",765,"170.csv","","null","resources/images/coin2.png","null","",NA,NA,NA,NA,""
"image-keyboard-response",473,370879,"0.0-3.154-0.154","te03parf6jopubr",765,"170.csv","","387.3999999910593","resources/trios/L1T2A2.jpg","39","restless",0.6,0.7,0.2,0.571484086113665,"false"
"image-keyboard-response",474,371282,"0.0-3.154-1.154","te03parf6jopubr",765,"170.csv","","null","resources/maskTrios/BBA2.jpg","null","",NA,NA,NA,NA,""
"image-keyboard-response",475,372488,"0.0-3.154-2.154","te03parf6jopubr",765,"170.csv","","null","resources/images/fishbone.png","null","",NA,NA,NA,NA,""
"image-keyboard-response",476,372727,"0.0-3.155-0.155","te03parf6jopubr",765,"170.csv","","237.40000000596046","resources/trios/L1T2A3.jpg","37","restless",0.6,0.7,0.2,0.113340680471679,"true"
"image-keyboard-response",477,373131,"0.0-3.155-1.155","te03parf6jopubr",765,"170.csv","","null","resources/maskTrios/L1BB.jpg","null","",NA,NA,NA,NA,""
"image-keyboard-response",478,374338,"0.0-3.155-2.155","te03parf6jopubr",765,"170.csv","","null","resources/images/coin2.png","null","",NA,NA,NA,NA,""
"image-keyboard-response",479,374757,"0.0-3.156-0.156","te03parf6jopubr",765,"170.csv","","417.5","resources/trios/L1T4A3.jpg","39","restless",0.6,0.7,0.2,0.507764081877337,"false"
"image-keyboard-response",480,375161,"0.0-3.156-1.156","te03parf6jopubr",765,"170.csv","","null","resources/maskTrios/BBA3.jpg","null","",NA,NA,NA,NA,""
"image-keyboard-response",481,376368,"0.0-3.156-2.156","te03parf6jopubr",765,"170.csv","","null","resources/images/fishbone.png","null","",NA,NA,NA,NA,""
"image-keyboard-response",482,376928,"0.0-3.157-0.157","te03parf6jopubr",765,"170.csv","","559.0999999940395","resources/trios/L4T4A3.jpg","39","restless",0.6,0.7,0.2,0.0169309774127251,"true"
"image-keyboard-response",483,377334,"0.0-3.157-1.157","te03parf6jopubr",765,"170.csv","","null","resources/maskTrios/BBA3.jpg","null","",NA,NA,NA,NA,""
"image-keyboard-response",484,378538,"0.0-3.157-2.157","te03parf6jopubr",765,"170.csv","","null","resources/images/coin2.png","null","",NA,NA,NA,NA,""
"image-keyboard-response",485,378796,"0.0-3.158-0.158","te03parf6jopubr",765,"170.csv","","256.59999999403954","resources/trios/L1T2A2.jpg","38","restless",0.6,0.7,0.2,0.947661141064298,"false"
"image-keyboard-response",486,379202,"0.0-3.158-1.158","te03parf6jopubr",765,"170.csv","","null","resources/maskTrios/BT2B.jpg","null","",NA,NA,NA,NA,""
"image-keyboard-response",487,380403,"0.0-3.158-2.158","te03parf6jopubr",765,"170.csv","","null","resources/images/fishbone.png","null","",NA,NA,NA,NA,""
"image-keyboard-response",488,380781,"0.0-3.159-0.159","te03parf6jopubr",765,"170.csv","","376.5","resources/trios/L1T2A2.jpg","37","restless",0.6,0.7,0.2,0.947618861822238,"false"
"image-keyboard-response",489,381187,"0.0-3.159-1.159","te03parf6jopubr",765,"170.csv","","null","resources/maskTrios/L1BB.jpg","null","",NA,NA,NA,NA,""
"image-keyboard-response",490,382390,"0.0-3.159-2.159","te03parf6jopubr",765,"170.csv","","null","resources/images/fishbone.png","null","",NA,NA,NA,NA,""
"image-keyboard-response",491,382671,"0.0-3.160-0.160","te03parf6jopubr",765,"170.csv","","279.6000000089407","resources/trios/L1T4A2.jpg","38","restless",0.6,0.7,0.2,0.526544690977236,"true"
"image-keyboard-response",492,383077,"0.0-3.160-1.160","te03parf6jopubr",765,"170.csv","","null","resources/maskTrios/BT4B.jpg","null","",NA,NA,NA,NA,""
"image-keyboard-response",493,384284,"0.0-3.160-2.160","te03parf6jopubr",765,"170.csv","","null","resources/images/coin2.png","null","",NA,NA,NA,NA,""
"image-keyboard-response",494,384482,"0.0-3.161-0.161","te03parf6jopubr",765,"170.csv","","196.5","resources/trios/L4T4A3.jpg","39","restless",0.5,0.6,0.3,0.409131186183062,"false"
"image-keyboard-response",495,384884,"0.0-3.161-1.161","te03parf6jopubr",765,"170.csv","","null","resources/maskTrios/BBA3.jpg","null","",NA,NA,NA,NA,""
"image-keyboard-response",496,386086,"0.0-3.161-2.161","te03parf6jopubr",765,"170.csv","","null","resources/images/fishbone.png","null","",NA,NA,NA,NA,""
"image-keyboard-response",497,386551,"0.0-3.162-0.162","te03parf6jopubr",765,"170.csv","","462.40000000596046","resources/trios/L4T2A3.jpg","39","restless",0.4,0.6,0.3,0.614629676278055,"false"
"image-keyboard-response",498,386954,"0.0-3.162-1.162","te03parf6jopubr",765,"170.csv","","null","resources/maskTrios/BBA3.jpg","null","",NA,NA,NA,NA,""
"image-keyboard-response",499,388160,"0.0-3.162-2.162","te03parf6jopubr",765,"170.csv","","null","resources/images/fishbone.png","null","",NA,NA,NA,NA,""
"image-keyboard-response",500,390830,"0.0-3.163-0.163","te03parf6jopubr",765,"170.csv","","2667.9000000059605","resources/trios/L4T4A3.jpg","37","restless",0.4,0.6,0.3,0.48288968179521,"false"
"image-keyboard-response",501,391236,"0.0-3.163-1.163","te03parf6jopubr",765,"170.csv","","null","resources/maskTrios/L4BB.jpg","null","",NA,NA,NA,NA,""
"image-keyboard-response",502,392442,"0.0-3.163-2.163","te03parf6jopubr",765,"170.csv","","null","resources/images/fishbone.png","null","",NA,NA,NA,NA,""
"image-keyboard-response",503,393154,"0.0-3.164-0.164","te03parf6jopubr",765,"170.csv","","710.3999999910593","resources/trios/L4T2A3.jpg","37","restless",0.4,0.6,0.3,0.312622147848075,"true"
"image-keyboard-response",504,393560,"0.0-3.164-1.164","te03parf6jopubr",765,"170.csv","","null","resources/maskTrios/L4BB.jpg","null","",NA,NA,NA,NA,""
"image-keyboard-response",505,394766,"0.0-3.164-2.164","te03parf6jopubr",765,"170.csv","","null","resources/images/coin2.png","null","",NA,NA,NA,NA,""
"image-keyboard-response",506,395123,"0.0-3.165-0.165","te03parf6jopubr",765,"170.csv","","355","resources/trios/L1T4A3.jpg","38","restless",0.4,0.6,0.3,0.438424047949356,"true"
"image-keyboard-response",507,395529,"0.0-3.165-1.165","te03parf6jopubr",765,"170.csv","","null","resources/maskTrios/BT4B.jpg","null","",NA,NA,NA,NA,""
"image-keyboard-response",508,396734,"0.0-3.165-2.165","te03parf6jopubr",765,"170.csv","","null","resources/images/coin2.png","null","",NA,NA,NA,NA,""
"image-keyboard-response",509,397056,"0.0-3.166-0.166","te03parf6jopubr",765,"170.csv","","320.79999999701977","resources/trios/L4T2A2.jpg","39","restless",0.4,0.6,0.3,0.803717267031298,"false"
"image-keyboard-response",510,397463,"0.0-3.166-1.166","te03parf6jopubr",765,"170.csv","","null","resources/maskTrios/BBA2.jpg","null","",NA,NA,NA,NA,""
"image-keyboard-response",511,398669,"0.0-3.166-2.166","te03parf6jopubr",765,"170.csv","","null","resources/images/fishbone.png","null","",NA,NA,NA,NA,""
"image-keyboard-response",512,400215,"0.0-3.167-0.167","te03parf6jopubr",765,"170.csv","","1544.4000000059605","resources/trios/L1T4A2.jpg","38","restless",0.4,0.6,0.4,0.615845468625567,"false"
"image-keyboard-response",513,400621,"0.0-3.167-1.167","te03parf6jopubr",765,"170.csv","","null","resources/maskTrios/BT4B.jpg","null","",NA,NA,NA,NA,""
"image-keyboard-response",514,401826,"0.0-3.167-2.167","te03parf6jopubr",765,"170.csv","","null","resources/images/fishbone.png","null","",NA,NA,NA,NA,""
"image-keyboard-response",515,403122,"0.0-3.168-0.168","te03parf6jopubr",765,"170.csv","","1293.8999999910593","resources/trios/L1T4A3.jpg","37","restless",0.4,0.6,0.4,0.327539150349589,"true"
"image-keyboard-response",516,403528,"0.0-3.168-1.168","te03parf6jopubr",765,"170.csv","","null","resources/maskTrios/L1BB.jpg","null","",NA,NA,NA,NA,""
"image-keyboard-response",517,404734,"0.0-3.168-2.168","te03parf6jopubr",765,"170.csv","","null","resources/images/coin2.png","null","",NA,NA,NA,NA,""
"image-keyboard-response",518,405002,"0.0-3.169-0.169","te03parf6jopubr",765,"170.csv","","265.8999999910593","resources/trios/L1T4A3.jpg","39","restless",0.4,0.6,0.4,0.653986172694619,"false"
"image-keyboard-response",519,405408,"0.0-3.169-1.169","te03parf6jopubr",765,"170.csv","","null","resources/maskTrios/BBA3.jpg","null","",NA,NA,NA,NA,""
"image-keyboard-response",520,406612,"0.0-3.169-2.169","te03parf6jopubr",765,"170.csv","","null","resources/images/fishbone.png","null","",NA,NA,NA,NA,""
"image-keyboard-response",521,406875,"0.0-3.170-0.170","te03parf6jopubr",765,"170.csv","","260.69999998807907","resources/trios/L4T2A3.jpg","37","restless",0.4,0.7,0.4,0.13059592996816,"true"
"image-keyboard-response",522,407279,"0.0-3.170-1.170","te03parf6jopubr",765,"170.csv","","null","resources/maskTrios/L4BB.jpg","null","",NA,NA,NA,NA,""
"image-keyboard-response",523,408485,"0.0-3.170-2.170","te03parf6jopubr",765,"170.csv","","null","resources/images/coin2.png","null","",NA,NA,NA,NA,""
"image-keyboard-response",524,408872,"0.0-3.171-0.171","te03parf6jopubr",765,"170.csv","","385.69999998807907","resources/trios/L1T4A3.jpg","38","restless",0.4,0.7,0.4,0.618794676398434,"true"
"image-keyboard-response",525,409279,"0.0-3.171-1.171","te03parf6jopubr",765,"170.csv","","null","resources/maskTrios/BT4B.jpg","null","",NA,NA,NA,NA,""
"image-keyboard-response",526,410484,"0.0-3.171-2.171","te03parf6jopubr",765,"170.csv","","null","resources/images/coin2.png","null","",NA,NA,NA,NA,""
"image-keyboard-response",527,410790,"0.0-3.172-0.172","te03parf6jopubr",765,"170.csv","","304.5","resources/trios/L4T4A2.jpg","39","restless",0.4,0.7,0.4,0.369320540245981,"true"
"image-keyboard-response",528,411196,"0.0-3.172-1.172","te03parf6jopubr",765,"170.csv","","null","resources/maskTrios/BBA2.jpg","null","",NA,NA,NA,NA,""
"image-keyboard-response",529,412401,"0.0-3.172-2.172","te03parf6jopubr",765,"170.csv","","null","resources/images/coin2.png","null","",NA,NA,NA,NA,""
"image-keyboard-response",530,412738,"0.0-3.173-0.173","te03parf6jopubr",765,"170.csv","","335.20000000298023","resources/trios/L1T4A2.jpg","37","restless",0.4,0.7,0.4,0.794844613790835,"false"
"image-keyboard-response",531,413144,"0.0-3.173-1.173","te03parf6jopubr",765,"170.csv","","null","resources/maskTrios/L1BB.jpg","null","",NA,NA,NA,NA,""
"image-keyboard-response",532,414348,"0.0-3.173-2.173","te03parf6jopubr",765,"170.csv","","null","resources/images/fishbone.png","null","",NA,NA,NA,NA,""
"image-keyboard-response",533,414796,"0.0-3.174-0.174","te03parf6jopubr",765,"170.csv","","446.6000000089407","resources/trios/L1T4A3.jpg","38","restless",0.4,0.6,0.4,0.831115514406893,"false"
"image-keyboard-response",534,415201,"0.0-3.174-1.174","te03parf6jopubr",765,"170.csv","","null","resources/maskTrios/BT4B.jpg","null","",NA,NA,NA,NA,""
"image-keyboard-response",535,416403,"0.0-3.174-2.174","te03parf6jopubr",765,"170.csv","","null","resources/images/fishbone.png","null","",NA,NA,NA,NA,""
"image-keyboard-response",536,416798,"0.0-3.175-0.175","te03parf6jopubr",765,"170.csv","","393.09999999403954","resources/trios/L4T4A2.jpg","37","restless",0.4,0.6,0.4,0.997009249579295,"false"
"image-keyboard-response",537,417201,"0.0-3.175-1.175","te03parf6jopubr",765,"170.csv","","null","resources/maskTrios/L4BB.jpg","null","",NA,NA,NA,NA,""
"image-keyboard-response",538,418404,"0.0-3.175-2.175","te03parf6jopubr",765,"170.csv","","null","resources/images/fishbone.png","null","",NA,NA,NA,NA,""
"image-keyboard-response",539,418693,"0.0-3.176-0.176","te03parf6jopubr",765,"170.csv","","289","resources/trios/L4T2A2.jpg","38","restless",0.4,0.6,0.4,0.1357862243112,"true"
"image-keyboard-response",540,419098,"0.0-3.176-1.176","te03parf6jopubr",765,"170.csv","","null","resources/maskTrios/BT2B.jpg","null","",NA,NA,NA,NA,""
"image-keyboard-response",541,420302,"0.0-3.176-2.176","te03parf6jopubr",765,"170.csv","","null","resources/images/coin2.png","null","",NA,NA,NA,NA,""
"image-keyboard-response",542,420757,"0.0-3.177-0.177","te03parf6jopubr",765,"170.csv","","454.09999999403954","resources/trios/L4T2A3.jpg","37","restless",0.4,0.6,0.4,0.997297679717835,"false"
"image-keyboard-response",543,421163,"0.0-3.177-1.177","te03parf6jopubr",765,"170.csv","","null","resources/maskTrios/L4BB.jpg","null","",NA,NA,NA,NA,""
"image-keyboard-response",544,422369,"0.0-3.177-2.177","te03parf6jopubr",765,"170.csv","","null","resources/images/fishbone.png","null","",NA,NA,NA,NA,""
"image-keyboard-response",545,422521,"0.0-3.178-0.178","te03parf6jopubr",765,"170.csv","","150.20000000298023","resources/trios/L1T4A2.jpg","38","restless",0.4,0.6,0.4,0.610684992180138,"false"
"image-keyboard-response",546,422923,"0.0-3.178-1.178","te03parf6jopubr",765,"170.csv","","null","resources/maskTrios/BT4B.jpg","null","",NA,NA,NA,NA,""
"image-keyboard-response",547,424126,"0.0-3.178-2.178","te03parf6jopubr",765,"170.csv","","null","resources/images/fishbone.png","null","",NA,NA,NA,NA,""
"image-keyboard-response",548,424544,"0.0-3.179-0.179","te03parf6jopubr",765,"170.csv","","416.5","resources/trios/L4T4A3.jpg","39","restless",0.4,0.7,0.4,0.807172490104321,"false"
"image-keyboard-response",549,424950,"0.0-3.179-1.179","te03parf6jopubr",765,"170.csv","","null","resources/maskTrios/BBA3.jpg","null","",NA,NA,NA,NA,""
"image-keyboard-response",550,426156,"0.0-3.179-2.179","te03parf6jopubr",765,"170.csv","","null","resources/images/fishbone.png","null","",NA,NA,NA,NA,""
"image-keyboard-response",551,427555,"0.0-3.180-0.180","te03parf6jopubr",765,"170.csv","","1397.2999999970198","resources/trios/L4T4A2.jpg","38","restless",0.4,0.7,0.4,0.788595535384294,"false"
"image-keyboard-response",552,427961,"0.0-3.180-1.180","te03parf6jopubr",765,"170.csv","","null","resources/maskTrios/BT4B.jpg","null","",NA,NA,NA,NA,""
"image-keyboard-response",553,429166,"0.0-3.180-2.180","te03parf6jopubr",765,"170.csv","","null","resources/images/fishbone.png","null","",NA,NA,NA,NA,""
"image-keyboard-response",554,429503,"0.0-3.181-0.181","te03parf6jopubr",765,"170.csv","","335.5","resources/trios/L1T4A3.jpg","37","restless",0.4,0.7,0.4,0.634061960484386,"false"
"image-keyboard-response",555,429910,"0.0-3.181-1.181","te03parf6jopubr",765,"170.csv","","null","resources/maskTrios/L1BB.jpg","null","",NA,NA,NA,NA,""
"image-keyboard-response",556,431112,"0.0-3.181-2.181","te03parf6jopubr",765,"170.csv","","null","resources/images/fishbone.png","null","",NA,NA,NA,NA,""
"image-keyboard-response",557,431302,"0.0-3.182-0.182","te03parf6jopubr",765,"170.csv","","188.3999999910593","resources/trios/L4T4A2.jpg","38","restless",0.4,0.7,0.4,0.756311240871504,"false"
"image-keyboard-response",558,431703,"0.0-3.182-1.182","te03parf6jopubr",765,"170.csv","","null","resources/maskTrios/BT4B.jpg","null","",NA,NA,NA,NA,""
"image-keyboard-response",559,432909,"0.0-3.182-2.182","te03parf6jopubr",765,"170.csv","","null","resources/images/fishbone.png","null","",NA,NA,NA,NA,""
"image-keyboard-response",560,433179,"0.0-3.183-0.183","te03parf6jopubr",765,"170.csv","","268.20000000298023","resources/trios/L4T2A3.jpg","39","restless",0.4,0.7,0.4,0.165210066411913,"true"
"image-keyboard-response",561,433581,"0.0-3.183-1.183","te03parf6jopubr",765,"170.csv","","null","resources/maskTrios/BBA3.jpg","null","",NA,NA,NA,NA,""
"image-keyboard-response",562,434782,"0.0-3.183-2.183","te03parf6jopubr",765,"170.csv","","null","resources/images/coin2.png","null","",NA,NA,NA,NA,""
"image-keyboard-response",563,435028,"0.0-3.184-0.184","te03parf6jopubr",765,"170.csv","","244.40000000596046","resources/trios/L1T4A2.jpg","37","restless",0.4,0.7,0.4,0.89536496537907,"false"
"image-keyboard-response",564,435434,"0.0-3.184-1.184","te03parf6jopubr",765,"170.csv","","null","resources/maskTrios/L1BB.jpg","null","",NA,NA,NA,NA,""
"image-keyboard-response",565,436640,"0.0-3.184-2.184","te03parf6jopubr",765,"170.csv","","null","resources/images/fishbone.png","null","",NA,NA,NA,NA,""
"image-keyboard-response",566,436961,"0.0-3.185-0.185","te03parf6jopubr",765,"170.csv","","319.70000000298023","resources/trios/L1T2A3.jpg","38","restless",0.4,0.7,0.4,0.471613589195586,"true"
"image-keyboard-response",567,437367,"0.0-3.185-1.185","te03parf6jopubr",765,"170.csv","","null","resources/maskTrios/BT2B.jpg","null","",NA,NA,NA,NA,""
"image-keyboard-response",568,438571,"0.0-3.185-2.185","te03parf6jopubr",765,"170.csv","","null","resources/images/coin2.png","null","",NA,NA,NA,NA,""
"image-keyboard-response",569,438871,"0.0-3.186-0.186","te03parf6jopubr",765,"170.csv","","298.69999998807907","resources/trios/L4T2A2.jpg","39","restless",0.4,0.7,0.4,0.536729257131876,"false"
"image-keyboard-response",570,439276,"0.0-3.186-1.186","te03parf6jopubr",765,"170.csv","","null","resources/maskTrios/BBA2.jpg","null","",NA,NA,NA,NA,""
"image-keyboard-response",571,440483,"0.0-3.186-2.186","te03parf6jopubr",765,"170.csv","","null","resources/images/fishbone.png","null","",NA,NA,NA,NA,""
"image-keyboard-response",572,440791,"0.0-3.187-0.187","te03parf6jopubr",765,"170.csv","","306.6000000089407","resources/trios/L1T4A2.jpg","37","restless",0.4,0.7,0.4,0.369874438715374,"true"
"image-keyboard-response",573,441195,"0.0-3.187-1.187","te03parf6jopubr",765,"170.csv","","null","resources/maskTrios/L1BB.jpg","null","",NA,NA,NA,NA,""
"image-keyboard-response",574,442400,"0.0-3.187-2.187","te03parf6jopubr",765,"170.csv","","null","resources/images/coin2.png","null","",NA,NA,NA,NA,""
"image-keyboard-response",575,442727,"0.0-3.188-0.188","te03parf6jopubr",765,"170.csv","","325.79999999701977","resources/trios/L1T2A3.jpg","38","restless",0.4,0.8,0.4,0.812924100792278,"false"
"image-keyboard-response",576,443129,"0.0-3.188-1.188","te03parf6jopubr",765,"170.csv","","null","resources/maskTrios/BT2B.jpg","null","",NA,NA,NA,NA,""
"image-keyboard-response",577,444334,"0.0-3.188-2.188","te03parf6jopubr",765,"170.csv","","null","resources/images/fishbone.png","null","",NA,NA,NA,NA,""
"image-keyboard-response",578,444641,"0.0-3.189-0.189","te03parf6jopubr",765,"170.csv","","305.09999999403954","resources/trios/L4T4A3.jpg","39","restless",0.4,0.8,0.4,0.495307971590111,"false"
"image-keyboard-response",579,445047,"0.0-3.189-1.189","te03parf6jopubr",765,"170.csv","","null","resources/maskTrios/BBA3.jpg","null","",NA,NA,NA,NA,""
"image-keyboard-response",580,446251,"0.0-3.189-2.189","te03parf6jopubr",765,"170.csv","","null","resources/images/fishbone.png","null","",NA,NA,NA,NA,""
"image-keyboard-response",581,446819,"0.0-3.190-0.190","te03parf6jopubr",765,"170.csv","","566.7999999970198","resources/trios/L4T2A2.jpg","37","restless",0.4,0.7,0.4,0.0898812743703532,"true"
"image-keyboard-response",582,447225,"0.0-3.190-1.190","te03parf6jopubr",765,"170.csv","","null","resources/maskTrios/L4BB.jpg","null","",NA,NA,NA,NA,""
"image-keyboard-response",583,448429,"0.0-3.190-2.190","te03parf6jopubr",765,"170.csv","","null","resources/images/coin2.png","null","",NA,NA,NA,NA,""
"image-keyboard-response",584,449020,"0.0-3.191-0.191","te03parf6jopubr",765,"170.csv","","589.3999999910593","resources/trios/L1T2A3.jpg","38","restless",0.4,0.7,0.4,0.844235998855354,"false"
"image-keyboard-response",585,449426,"0.0-3.191-1.191","te03parf6jopubr",765,"170.csv","","null","resources/maskTrios/BT2B.jpg","null","",NA,NA,NA,NA,""
"image-keyboard-response",586,450632,"0.0-3.191-2.191","te03parf6jopubr",765,"170.csv","","null","resources/images/fishbone.png","null","",NA,NA,NA,NA,""
"image-keyboard-response",587,451557,"0.0-3.192-0.192","te03parf6jopubr",765,"170.csv","","923.3000000119209","resources/trios/L4T2A3.jpg","39","restless",0.4,0.7,0.4,0.355950482231254,"true"
"image-keyboard-response",588,451963,"0.0-3.192-1.192","te03parf6jopubr",765,"170.csv","","null","resources/maskTrios/BBA3.jpg","null","",NA,NA,NA,NA,""
"image-keyboard-response",589,453169,"0.0-3.192-2.192","te03parf6jopubr",765,"170.csv","","null","resources/images/coin2.png","null","",NA,NA,NA,NA,""
"image-keyboard-response",590,453548,"0.0-3.193-0.193","te03parf6jopubr",765,"170.csv","","377.5","resources/trios/L1T4A3.jpg","37","restless",0.4,0.7,0.4,0.829944115513732,"false"
"image-keyboard-response",591,453955,"0.0-3.193-1.193","te03parf6jopubr",765,"170.csv","","null","resources/maskTrios/L1BB.jpg","null","",NA,NA,NA,NA,""
"image-keyboard-response",592,455161,"0.0-3.193-2.193","te03parf6jopubr",765,"170.csv","","null","resources/images/fishbone.png","null","",NA,NA,NA,NA,""
"image-keyboard-response",593,455445,"0.0-3.194-0.194","te03parf6jopubr",765,"170.csv","","282.1000000089407","resources/trios/L1T4A2.jpg","38","restless",0.3,0.7,0.4,0.00433977950486963,"true"
"image-keyboard-response",594,455850,"0.0-3.194-1.194","te03parf6jopubr",765,"170.csv","","null","resources/maskTrios/BT4B.jpg","null","",NA,NA,NA,NA,""
"image-keyboard-response",595,457057,"0.0-3.194-2.194","te03parf6jopubr",765,"170.csv","","null","resources/images/coin2.png","null","",NA,NA,NA,NA,""
"image-keyboard-response",596,457662,"0.0-3.195-0.195","te03parf6jopubr",765,"170.csv","","603.7000000029802","resources/trios/L4T2A2.jpg","39","restless",0.3,0.7,0.4,0.443681812090799,"false"
"image-keyboard-response",597,458069,"0.0-3.195-1.195","te03parf6jopubr",765,"170.csv","","null","resources/maskTrios/BBA2.jpg","null","",NA,NA,NA,NA,""
"image-keyboard-response",598,459272,"0.0-3.195-2.195","te03parf6jopubr",765,"170.csv","","null","resources/images/fishbone.png","null","",NA,NA,NA,NA,""
"image-keyboard-response",599,459390,"0.0-3.196-0.196","te03parf6jopubr",765,"170.csv","","117.29999999701977","resources/trios/L4T2A2.jpg","37","restless",0.3,0.7,0.4,0.374116003885873,"false"
"image-keyboard-response",600,459797,"0.0-3.196-1.196","te03parf6jopubr",765,"170.csv","","null","resources/maskTrios/L4BB.jpg","null","",NA,NA,NA,NA,""
"image-keyboard-response",601,460998,"0.0-3.196-2.196","te03parf6jopubr",765,"170.csv","","null","resources/images/fishbone.png","null","",NA,NA,NA,NA,""
"image-keyboard-response",602,461281,"0.0-3.197-0.197","te03parf6jopubr",765,"170.csv","","282","resources/trios/L1T2A2.jpg","38","restless",0.3,0.7,0.4,0.253884338308738,"true"
"image-keyboard-response",603,461688,"0.0-3.197-1.197","te03parf6jopubr",765,"170.csv","","null","resources/maskTrios/BT2B.jpg","null","",NA,NA,NA,NA,""
"image-keyboard-response",604,462894,"0.0-3.197-2.197","te03parf6jopubr",765,"170.csv","","null","resources/images/coin2.png","null","",NA,NA,NA,NA,""
"image-keyboard-response",605,463271,"0.0-3.198-0.198","te03parf6jopubr",765,"170.csv","","375","resources/trios/L4T2A2.jpg","39","restless",0.3,0.7,0.4,0.375381299207946,"true"
