"trial_type","trial_index","time_elapsed","internal_node_id","subject","participantCode","walkNumber","success","rt","stimulus","key_press","test_part","leftProb","midProb","rightProb","generatedNum","correct"
"pavlovia",0,1038,"0.0-0.0","s2yc7akxjlu37um",542,"125.csv","","","","","",NA,NA,NA,NA,""
"fullscreen",1,3713,"0.0-1.0","s2yc7akxjlu37um",542,"125.csv","true","","","","",NA,NA,NA,NA,""
"html-keyboard-response",2,19139,"0.0-2.0-0.0","s2yc7akxjlu37um",542,"125.csv","","15418.000000000004","<p><font size='6'>Arrrgh!</p></font><p>Can you be the best pirate? Try to find lots of gold! But beware, some islands have more gold than others, and over time, the island with the most gold may change. Can YOU figure it out? </p><font size='6'>GOOD LUCK, CAPTAIN!!!</font><p>Press any key to begin</p>","32","",NA,NA,NA,NA,""
"image-keyboard-response",3,22141,"0.0-2.0-1.0","s2yc7akxjlu37um",542,"125.csv","","null","resources/image_sets/111.png","null","",NA,NA,NA,NA,""
"image-keyboard-response",4,30394,"0.0-2.0-2.0","s2yc7akxjlu37um",542,"125.csv","","8251","resources/image_sets/left_highlight.png","37","",NA,NA,NA,NA,""
"image-keyboard-response",5,37625,"0.0-2.0-3.0","s2yc7akxjlu37um",542,"125.csv","","7230","resources/image_sets/mid_highlight.png","38","",NA,NA,NA,NA,""
"image-keyboard-response",6,39198,"0.0-2.0-4.0","s2yc7akxjlu37um",542,"125.csv","","1572","resources/image_sets/right_highlight.png","39","",NA,NA,NA,NA,""
"image-keyboard-response",7,46672,"0.0-2.0-5.0","s2yc7akxjlu37um",542,"125.csv","","7472","resources/image_sets/111.png","13","",NA,NA,NA,NA,""
"image-keyboard-response",8,49996,"0.0-2.0-6.0","s2yc7akxjlu37um",542,"125.csv","","3323","resources/images/coin2.png","13","",NA,NA,NA,NA,""
"image-keyboard-response",9,51983,"0.0-2.0-7.0","s2yc7akxjlu37um",542,"125.csv","","1985","resources/images/fishbone.png","13","",NA,NA,NA,NA,""
"html-keyboard-response",10,59316,"0.0-2.0-8.0","s2yc7akxjlu37um",542,"125.csv","","7331.000000000007","<p>Your first journey will be a long one, but you will get a well deserved break at the end</p><p>After the break you will have four more journeys, but each will be much shorter than the first, and you will have breaks in between each</p><p>Press Enter to begin</p>","13","",NA,NA,NA,NA,""
"image-keyboard-response",11,61498,"0.0-3.0-0.0","s2yc7akxjlu37um",542,"125.csv","","2180.0000000000146","resources/trios/L1T2A3.jpg","38","restless",0.7,0.3,0.9,0.533450562332923,"false"
"image-keyboard-response",12,61902,"0.0-3.0-1.0","s2yc7akxjlu37um",542,"125.csv","","null","resources/maskTrios/BT2B.jpg","null","",NA,NA,NA,NA,""
"image-keyboard-response",13,63105,"0.0-3.0-2.0","s2yc7akxjlu37um",542,"125.csv","","null","resources/images/fishbone.png","null","",NA,NA,NA,NA,""
"image-keyboard-response",14,64560,"0.0-3.1-0.1","s2yc7akxjlu37um",542,"125.csv","","1454","resources/trios/L2T2A3.jpg","37","restless",0.7,0.3,0.8,0.93147467205477,"false"
"image-keyboard-response",15,64963,"0.0-3.1-1.1","s2yc7akxjlu37um",542,"125.csv","","null","resources/maskTrios/L2BB.jpg","null","",NA,NA,NA,NA,""
"image-keyboard-response",16,66165,"0.0-3.1-2.1","s2yc7akxjlu37um",542,"125.csv","","null","resources/images/fishbone.png","null","",NA,NA,NA,NA,""
"image-keyboard-response",17,68356,"0.0-3.2-0.2","s2yc7akxjlu37um",542,"125.csv","","2190","resources/trios/L1T4A1.jpg","37","restless",0.7,0.3,0.8,0.46740795399345,"true"
"image-keyboard-response",18,68759,"0.0-3.2-1.2","s2yc7akxjlu37um",542,"125.csv","","null","resources/maskTrios/L1BB.jpg","null","",NA,NA,NA,NA,""
"image-keyboard-response",19,69962,"0.0-3.2-2.2","s2yc7akxjlu37um",542,"125.csv","","null","resources/images/coin2.png","null","",NA,NA,NA,NA,""
"image-keyboard-response",20,71940,"0.0-3.3-0.3","s2yc7akxjlu37um",542,"125.csv","","1976","resources/trios/L2T2A1.jpg","39","restless",0.7,0.3,0.8,0.282457621930897,"true"
"image-keyboard-response",21,72342,"0.0-3.3-1.3","s2yc7akxjlu37um",542,"125.csv","","null","resources/maskTrios/BBA1.jpg","null","",NA,NA,NA,NA,""
"image-keyboard-response",22,73545,"0.0-3.3-2.3","s2yc7akxjlu37um",542,"125.csv","","null","resources/images/coin2.png","null","",NA,NA,NA,NA,""
"image-keyboard-response",23,75923,"0.0-3.4-0.4","s2yc7akxjlu37um",542,"125.csv","","2375","resources/trios/L1T4A1.jpg","39","restless",0.8,0.3,0.8,0.391747681535889,"true"
"image-keyboard-response",24,76326,"0.0-3.4-1.4","s2yc7akxjlu37um",542,"125.csv","","null","resources/maskTrios/BBA1.jpg","null","",NA,NA,NA,NA,""
"image-keyboard-response",25,77530,"0.0-3.4-2.4","s2yc7akxjlu37um",542,"125.csv","","null","resources/images/coin2.png","null","",NA,NA,NA,NA,""
"image-keyboard-response",26,79604,"0.0-3.5-0.5","s2yc7akxjlu37um",542,"125.csv","","2070","resources/trios/L1T4A3.jpg","38","restless",0.8,0.2,0.8,0.195591820320473,"true"
"image-keyboard-response",27,80007,"0.0-3.5-1.5","s2yc7akxjlu37um",542,"125.csv","","null","resources/maskTrios/BT4B.jpg","null","",NA,NA,NA,NA,""
"image-keyboard-response",28,81210,"0.0-3.5-2.5","s2yc7akxjlu37um",542,"125.csv","","null","resources/images/coin2.png","null","",NA,NA,NA,NA,""
"image-keyboard-response",29,82508,"0.0-3.6-0.6","s2yc7akxjlu37um",542,"125.csv","","1295.0000000000146","resources/trios/L1T4A3.jpg","38","restless",0.8,0.2,0.8,0.273554953598497,"false"
"image-keyboard-response",30,82910,"0.0-3.6-1.6","s2yc7akxjlu37um",542,"125.csv","","null","resources/maskTrios/BT4B.jpg","null","",NA,NA,NA,NA,""
"image-keyboard-response",31,84113,"0.0-3.6-2.6","s2yc7akxjlu37um",542,"125.csv","","null","resources/images/fishbone.png","null","",NA,NA,NA,NA,""
"image-keyboard-response",32,84648,"0.0-3.7-0.7","s2yc7akxjlu37um",542,"125.csv","","534","resources/trios/L1T2A3.jpg","37","restless",0.8,0.1,0.8,0.974013667121325,"false"
"image-keyboard-response",33,85051,"0.0-3.7-1.7","s2yc7akxjlu37um",542,"125.csv","","null","resources/maskTrios/L1BB.jpg","null","",NA,NA,NA,NA,""
"image-keyboard-response",34,86254,"0.0-3.7-2.7","s2yc7akxjlu37um",542,"125.csv","","null","resources/images/fishbone.png","null","",NA,NA,NA,NA,""
"image-keyboard-response",35,86765,"0.0-3.8-0.8","s2yc7akxjlu37um",542,"125.csv","","509","resources/trios/L1T4A1.jpg","37","restless",0.8,0.1,0.7,0.57035230076522,"true"
"image-keyboard-response",36,87168,"0.0-3.8-1.8","s2yc7akxjlu37um",542,"125.csv","","null","resources/maskTrios/L1BB.jpg","null","",NA,NA,NA,NA,""
"image-keyboard-response",37,88371,"0.0-3.8-2.8","s2yc7akxjlu37um",542,"125.csv","","null","resources/images/coin2.png","null","",NA,NA,NA,NA,""
"image-keyboard-response",38,89282,"0.0-3.9-0.9","s2yc7akxjlu37um",542,"125.csv","","909","resources/trios/L2T4A3.jpg","37","restless",0.7,0.1,0.7,0.879612021339244,"false"
"image-keyboard-response",39,89685,"0.0-3.9-1.9","s2yc7akxjlu37um",542,"125.csv","","null","resources/maskTrios/L2BB.jpg","null","",NA,NA,NA,NA,""
"image-keyboard-response",40,90888,"0.0-3.9-2.9","s2yc7akxjlu37um",542,"125.csv","","null","resources/images/fishbone.png","null","",NA,NA,NA,NA,""
"image-keyboard-response",41,91822,"0.0-3.10-0.10","s2yc7akxjlu37um",542,"125.csv","","931.9999999999854","resources/trios/L1T4A1.jpg","38","restless",0.7,0.1,0.7,0.504078544298696,"false"
"image-keyboard-response",42,92224,"0.0-3.10-1.10","s2yc7akxjlu37um",542,"125.csv","","null","resources/maskTrios/BT4B.jpg","null","",NA,NA,NA,NA,""
"image-keyboard-response",43,93427,"0.0-3.10-2.10","s2yc7akxjlu37um",542,"125.csv","","null","resources/images/fishbone.png","null","",NA,NA,NA,NA,""
"image-keyboard-response",44,95302,"0.0-3.11-0.11","s2yc7akxjlu37um",542,"125.csv","","1873.0000000000146","resources/trios/L2T2A3.jpg","37","restless",0.8,0.1,0.7,0.796007778741393,"true"
"image-keyboard-response",45,95705,"0.0-3.11-1.11","s2yc7akxjlu37um",542,"125.csv","","null","resources/maskTrios/L2BB.jpg","null","",NA,NA,NA,NA,""
"image-keyboard-response",46,96907,"0.0-3.11-2.11","s2yc7akxjlu37um",542,"125.csv","","null","resources/images/coin2.png","null","",NA,NA,NA,NA,""
"image-keyboard-response",47,97382,"0.0-3.12-0.12","s2yc7akxjlu37um",542,"125.csv","","473","resources/trios/L1T4A1.jpg","39","restless",0.8,0.1,0.7,0.304798362291712,"true"
"image-keyboard-response",48,97784,"0.0-3.12-1.12","s2yc7akxjlu37um",542,"125.csv","","null","resources/maskTrios/BBA1.jpg","null","",NA,NA,NA,NA,""
"image-keyboard-response",49,98987,"0.0-3.12-2.12","s2yc7akxjlu37um",542,"125.csv","","null","resources/images/coin2.png","null","",NA,NA,NA,NA,""
"image-keyboard-response",50,101099,"0.0-3.13-0.13","s2yc7akxjlu37um",542,"125.csv","","2110","resources/trios/L1T2A3.jpg","37","restless",0.8,0.1,0.7,0.784407982119994,"true"
"image-keyboard-response",51,101501,"0.0-3.13-1.13","s2yc7akxjlu37um",542,"125.csv","","null","resources/maskTrios/L1BB.jpg","null","",NA,NA,NA,NA,""
"image-keyboard-response",52,102703,"0.0-3.13-2.13","s2yc7akxjlu37um",542,"125.csv","","null","resources/images/coin2.png","null","",NA,NA,NA,NA,""
"image-keyboard-response",53,105129,"0.0-3.14-0.14","s2yc7akxjlu37um",542,"125.csv","","2424","resources/trios/L2T2A3.jpg","38","restless",0.8,0.2,0.7,0.903598108540107,"false"
"image-keyboard-response",54,105532,"0.0-3.14-1.14","s2yc7akxjlu37um",542,"125.csv","","null","resources/maskTrios/BT2B.jpg","null","",NA,NA,NA,NA,""
"image-keyboard-response",55,106734,"0.0-3.14-2.14","s2yc7akxjlu37um",542,"125.csv","","null","resources/images/fishbone.png","null","",NA,NA,NA,NA,""
"image-keyboard-response",56,107338,"0.0-3.15-0.15","s2yc7akxjlu37um",542,"125.csv","","602","resources/trios/L1T2A1.jpg","37","restless",0.8,0.2,0.6,0.492672022553734,"true"
"image-keyboard-response",57,107740,"0.0-3.15-1.15","s2yc7akxjlu37um",542,"125.csv","","null","resources/maskTrios/L1BB.jpg","null","",NA,NA,NA,NA,""
"image-keyboard-response",58,108943,"0.0-3.15-2.15","s2yc7akxjlu37um",542,"125.csv","","null","resources/images/coin2.png","null","",NA,NA,NA,NA,""
"image-keyboard-response",59,109459,"0.0-3.16-0.16","s2yc7akxjlu37um",542,"125.csv","","515","resources/trios/L2T2A3.jpg","39","restless",0.8,0.2,0.6,0.891643361862196,"false"
"image-keyboard-response",60,109862,"0.0-3.16-1.16","s2yc7akxjlu37um",542,"125.csv","","null","resources/maskTrios/BBA3.jpg","null","",NA,NA,NA,NA,""
"image-keyboard-response",61,111064,"0.0-3.16-2.16","s2yc7akxjlu37um",542,"125.csv","","null","resources/images/fishbone.png","null","",NA,NA,NA,NA,""
"image-keyboard-response",62,111610,"0.0-3.17-0.17","s2yc7akxjlu37um",542,"125.csv","","544.9999999999854","resources/trios/L1T2A1.jpg","37","restless",0.8,0.2,0.6,0.635201814987335,"true"
"image-keyboard-response",63,112017,"0.0-3.17-1.17","s2yc7akxjlu37um",542,"125.csv","","null","resources/maskTrios/L1BB.jpg","null","",NA,NA,NA,NA,""
"image-keyboard-response",64,113220,"0.0-3.17-2.17","s2yc7akxjlu37um",542,"125.csv","","null","resources/images/coin2.png","null","",NA,NA,NA,NA,""
"image-keyboard-response",65,114038,"0.0-3.18-0.18","s2yc7akxjlu37um",542,"125.csv","","816","resources/trios/L1T4A3.jpg","37","restless",0.7,0.2,0.6,0.71411565082685,"false"
"image-keyboard-response",66,114440,"0.0-3.18-1.18","s2yc7akxjlu37um",542,"125.csv","","null","resources/maskTrios/L1BB.jpg","null","",NA,NA,NA,NA,""
"image-keyboard-response",67,115642,"0.0-3.18-2.18","s2yc7akxjlu37um",542,"125.csv","","null","resources/images/fishbone.png","null","",NA,NA,NA,NA,""
"image-keyboard-response",68,116021,"0.0-3.19-0.19","s2yc7akxjlu37um",542,"125.csv","","377.00000000001455","resources/trios/L1T2A3.jpg","39","restless",0.7,0.2,0.6,0.890182633783113,"false"
"image-keyboard-response",69,116423,"0.0-3.19-1.19","s2yc7akxjlu37um",542,"125.csv","","null","resources/maskTrios/BBA3.jpg","null","",NA,NA,NA,NA,""
"image-keyboard-response",70,117625,"0.0-3.19-2.19","s2yc7akxjlu37um",542,"125.csv","","null","resources/images/fishbone.png","null","",NA,NA,NA,NA,""
"image-keyboard-response",71,119558,"0.0-3.20-0.20","s2yc7akxjlu37um",542,"125.csv","","1931.0000000000146","resources/trios/L1T4A1.jpg","39","restless",0.7,0.2,0.6,0.39640360926953,"true"
"image-keyboard-response",72,119960,"0.0-3.20-1.20","s2yc7akxjlu37um",542,"125.csv","","null","resources/maskTrios/BBA1.jpg","null","",NA,NA,NA,NA,""
"image-keyboard-response",73,121163,"0.0-3.20-2.20","s2yc7akxjlu37um",542,"125.csv","","null","resources/images/coin2.png","null","",NA,NA,NA,NA,""
"image-keyboard-response",74,122718,"0.0-3.21-0.21","s2yc7akxjlu37um",542,"125.csv","","1555","resources/trios/L1T2A3.jpg","39","restless",0.7,0.2,0.6,0.216758762843705,"true"
"image-keyboard-response",75,123120,"0.0-3.21-1.21","s2yc7akxjlu37um",542,"125.csv","","null","resources/maskTrios/BBA3.jpg","null","",NA,NA,NA,NA,""
"image-keyboard-response",76,124323,"0.0-3.21-2.21","s2yc7akxjlu37um",542,"125.csv","","null","resources/images/coin2.png","null","",NA,NA,NA,NA,""
"image-keyboard-response",77,125271,"0.0-3.22-0.22","s2yc7akxjlu37um",542,"125.csv","","947","resources/trios/L2T4A1.jpg","38","restless",0.7,0.3,0.5,0.00528982261754141,"true"
"image-keyboard-response",78,125674,"0.0-3.22-1.22","s2yc7akxjlu37um",542,"125.csv","","null","resources/maskTrios/BT4B.jpg","null","",NA,NA,NA,NA,""
"image-keyboard-response",79,126876,"0.0-3.22-2.22","s2yc7akxjlu37um",542,"125.csv","","null","resources/images/coin2.png","null","",NA,NA,NA,NA,""
"image-keyboard-response",80,127866,"0.0-3.23-0.23","s2yc7akxjlu37um",542,"125.csv","","988","resources/trios/L2T2A1.jpg","39","restless",0.6,0.3,0.5,0.969152650601394,"false"
"image-keyboard-response",81,128268,"0.0-3.23-1.23","s2yc7akxjlu37um",542,"125.csv","","null","resources/maskTrios/BBA1.jpg","null","",NA,NA,NA,NA,""
"image-keyboard-response",82,129470,"0.0-3.23-2.23","s2yc7akxjlu37um",542,"125.csv","","null","resources/images/fishbone.png","null","",NA,NA,NA,NA,""
"image-keyboard-response",83,130473,"0.0-3.24-0.24","s2yc7akxjlu37um",542,"125.csv","","1002","resources/trios/L2T4A1.jpg","38","restless",0.6,0.3,0.5,0.998632104889124,"false"
"image-keyboard-response",84,130876,"0.0-3.24-1.24","s2yc7akxjlu37um",542,"125.csv","","null","resources/maskTrios/BT4B.jpg","null","",NA,NA,NA,NA,""
"image-keyboard-response",85,132078,"0.0-3.24-2.24","s2yc7akxjlu37um",542,"125.csv","","null","resources/images/fishbone.png","null","",NA,NA,NA,NA,""
"image-keyboard-response",86,132393,"0.0-3.25-0.25","s2yc7akxjlu37um",542,"125.csv","","314","resources/trios/L2T2A1.jpg","37","restless",0.6,0.3,0.5,0.399902266423232,"true"
"image-keyboard-response",87,132794,"0.0-3.25-1.25","s2yc7akxjlu37um",542,"125.csv","","null","resources/maskTrios/L2BB.jpg","null","",NA,NA,NA,NA,""
"image-keyboard-response",88,133997,"0.0-3.25-2.25","s2yc7akxjlu37um",542,"125.csv","","null","resources/images/coin2.png","null","",NA,NA,NA,NA,""
"image-keyboard-response",89,134584,"0.0-3.26-0.26","s2yc7akxjlu37um",542,"125.csv","","586","resources/trios/L2T2A3.jpg","37","restless",0.6,0.4,0.5,0.850337475173946,"false"
"image-keyboard-response",90,134986,"0.0-3.26-1.26","s2yc7akxjlu37um",542,"125.csv","","null","resources/maskTrios/L2BB.jpg","null","",NA,NA,NA,NA,""
"image-keyboard-response",91,136189,"0.0-3.26-2.26","s2yc7akxjlu37um",542,"125.csv","","null","resources/images/fishbone.png","null","",NA,NA,NA,NA,""
"image-keyboard-response",92,136976,"0.0-3.27-0.27","s2yc7akxjlu37um",542,"125.csv","","787.0000000000291","resources/trios/L2T4A3.jpg","37","restless",0.6,0.4,0.5,0.368403014984099,"true"
"image-keyboard-response",93,137379,"0.0-3.27-1.27","s2yc7akxjlu37um",542,"125.csv","","null","resources/maskTrios/L2BB.jpg","null","",NA,NA,NA,NA,""
"image-keyboard-response",94,138581,"0.0-3.27-2.27","s2yc7akxjlu37um",542,"125.csv","","null","resources/images/coin2.png","null","",NA,NA,NA,NA,""
"image-keyboard-response",95,139040,"0.0-3.28-0.28","s2yc7akxjlu37um",542,"125.csv","","458","resources/trios/L1T4A3.jpg","39","restless",0.6,0.4,0.5,0.270095778049013,"true"
"image-keyboard-response",96,139443,"0.0-3.28-1.28","s2yc7akxjlu37um",542,"125.csv","","null","resources/maskTrios/BBA3.jpg","null","",NA,NA,NA,NA,""
"image-keyboard-response",97,140645,"0.0-3.28-2.28","s2yc7akxjlu37um",542,"125.csv","","null","resources/images/coin2.png","null","",NA,NA,NA,NA,""
"image-keyboard-response",98,140973,"0.0-3.29-0.29","s2yc7akxjlu37um",542,"125.csv","","327","resources/trios/L2T2A1.jpg","38","restless",0.6,0.4,0.5,0.580283700229813,"false"
"image-keyboard-response",99,141376,"0.0-3.29-1.29","s2yc7akxjlu37um",542,"125.csv","","null","resources/maskTrios/BT2B.jpg","null","",NA,NA,NA,NA,""
"image-keyboard-response",100,142578,"0.0-3.29-2.29","s2yc7akxjlu37um",542,"125.csv","","null","resources/images/fishbone.png","null","",NA,NA,NA,NA,""
"image-keyboard-response",101,142876,"0.0-3.30-0.30","s2yc7akxjlu37um",542,"125.csv","","297.0000000000291","resources/trios/L1T4A3.jpg","39","restless",0.6,0.4,0.5,0.544949284071518,"false"
"image-keyboard-response",102,143279,"0.0-3.30-1.30","s2yc7akxjlu37um",542,"125.csv","","null","resources/maskTrios/BBA3.jpg","null","",NA,NA,NA,NA,""
"image-keyboard-response",103,144481,"0.0-3.30-2.30","s2yc7akxjlu37um",542,"125.csv","","null","resources/images/fishbone.png","null","",NA,NA,NA,NA,""
"image-keyboard-response",104,144784,"0.0-3.31-0.31","s2yc7akxjlu37um",542,"125.csv","","302","resources/trios/L2T4A1.jpg","39","restless",0.6,0.4,0.5,0.312312900732776,"true"
"image-keyboard-response",105,145187,"0.0-3.31-1.31","s2yc7akxjlu37um",542,"125.csv","","null","resources/maskTrios/BBA1.jpg","null","",NA,NA,NA,NA,""
"image-keyboard-response",106,146389,"0.0-3.31-2.31","s2yc7akxjlu37um",542,"125.csv","","null","resources/images/coin2.png","null","",NA,NA,NA,NA,""
"image-keyboard-response",107,146718,"0.0-3.32-0.32","s2yc7akxjlu37um",542,"125.csv","","328","resources/trios/L2T4A1.jpg","38","restless",0.6,0.4,0.5,0.9418890216612,"false"
"image-keyboard-response",108,147121,"0.0-3.32-1.32","s2yc7akxjlu37um",542,"125.csv","","null","resources/maskTrios/BT4B.jpg","null","",NA,NA,NA,NA,""
"image-keyboard-response",109,148323,"0.0-3.32-2.32","s2yc7akxjlu37um",542,"125.csv","","null","resources/images/fishbone.png","null","",NA,NA,NA,NA,""
"image-keyboard-response",110,148760,"0.0-3.33-0.33","s2yc7akxjlu37um",542,"125.csv","","437","resources/trios/L2T4A1.jpg","37","restless",0.6,0.4,0.5,0.0308972476010045,"true"
"image-keyboard-response",111,149163,"0.0-3.33-1.33","s2yc7akxjlu37um",542,"125.csv","","null","resources/maskTrios/L2BB.jpg","null","",NA,NA,NA,NA,""
"image-keyboard-response",112,150367,"0.0-3.33-2.33","s2yc7akxjlu37um",542,"125.csv","","null","resources/images/coin2.png","null","",NA,NA,NA,NA,""
"image-keyboard-response",113,150750,"0.0-3.34-0.34","s2yc7akxjlu37um",542,"125.csv","","382","resources/trios/L2T4A3.jpg","37","restless",0.6,0.4,0.5,0.862497430700656,"false"
"image-keyboard-response",114,151153,"0.0-3.34-1.34","s2yc7akxjlu37um",542,"125.csv","","null","resources/maskTrios/L2BB.jpg","null","",NA,NA,NA,NA,""
"image-keyboard-response",115,152355,"0.0-3.34-2.34","s2yc7akxjlu37um",542,"125.csv","","null","resources/images/fishbone.png","null","",NA,NA,NA,NA,""
"image-keyboard-response",116,153054,"0.0-3.35-0.35","s2yc7akxjlu37um",542,"125.csv","","699","resources/trios/L1T2A1.jpg","39","restless",0.6,0.4,0.5,0.598640482287563,"false"
"image-keyboard-response",117,153456,"0.0-3.35-1.35","s2yc7akxjlu37um",542,"125.csv","","null","resources/maskTrios/BBA1.jpg","null","",NA,NA,NA,NA,""
"image-keyboard-response",118,154659,"0.0-3.35-2.35","s2yc7akxjlu37um",542,"125.csv","","null","resources/images/fishbone.png","null","",NA,NA,NA,NA,""
"image-keyboard-response",119,155158,"0.0-3.36-0.36","s2yc7akxjlu37um",542,"125.csv","","498","resources/trios/L2T2A1.jpg","39","restless",0.6,0.4,0.5,0.896623848381186,"false"
"image-keyboard-response",120,155560,"0.0-3.36-1.36","s2yc7akxjlu37um",542,"125.csv","","null","resources/maskTrios/BBA1.jpg","null","",NA,NA,NA,NA,""
"image-keyboard-response",121,156763,"0.0-3.36-2.36","s2yc7akxjlu37um",542,"125.csv","","null","resources/images/fishbone.png","null","",NA,NA,NA,NA,""
"image-keyboard-response",122,157124,"0.0-3.37-0.37","s2yc7akxjlu37um",542,"125.csv","","359.9999999999709","resources/trios/L2T2A1.jpg","38","restless",0.6,0.4,0.5,0.744335909057335,"false"
"image-keyboard-response",123,157527,"0.0-3.37-1.37","s2yc7akxjlu37um",542,"125.csv","","null","resources/maskTrios/BT2B.jpg","null","",NA,NA,NA,NA,""
"image-keyboard-response",124,158729,"0.0-3.37-2.37","s2yc7akxjlu37um",542,"125.csv","","null","resources/images/fishbone.png","null","",NA,NA,NA,NA,""
"image-keyboard-response",125,158982,"0.0-3.38-0.38","s2yc7akxjlu37um",542,"125.csv","","252","resources/trios/L2T4A1.jpg","39","restless",0.6,0.4,0.5,0.884561083095661,"false"
"image-keyboard-response",126,159384,"0.0-3.38-1.38","s2yc7akxjlu37um",542,"125.csv","","null","resources/maskTrios/BBA1.jpg","null","",NA,NA,NA,NA,""
"image-keyboard-response",127,160587,"0.0-3.38-2.38","s2yc7akxjlu37um",542,"125.csv","","null","resources/images/fishbone.png","null","",NA,NA,NA,NA,""
"image-keyboard-response",128,161093,"0.0-3.39-0.39","s2yc7akxjlu37um",542,"125.csv","","505","resources/trios/L1T2A1.jpg","37","restless",0.6,0.4,0.5,0.525328153222759,"true"
"image-keyboard-response",129,161495,"0.0-3.39-1.39","s2yc7akxjlu37um",542,"125.csv","","null","resources/maskTrios/L1BB.jpg","null","",NA,NA,NA,NA,""
"image-keyboard-response",130,162698,"0.0-3.39-2.39","s2yc7akxjlu37um",542,"125.csv","","null","resources/images/coin2.png","null","",NA,NA,NA,NA,""
"image-keyboard-response",131,163044,"0.0-3.40-0.40","s2yc7akxjlu37um",542,"125.csv","","345","resources/trios/L2T4A1.jpg","37","restless",0.6,0.4,0.5,0.448794021608339,"true"
"image-keyboard-response",132,163446,"0.0-3.40-1.40","s2yc7akxjlu37um",542,"125.csv","","null","resources/maskTrios/L2BB.jpg","null","",NA,NA,NA,NA,""
"image-keyboard-response",133,164649,"0.0-3.40-2.40","s2yc7akxjlu37um",542,"125.csv","","null","resources/images/coin2.png","null","",NA,NA,NA,NA,""
"image-keyboard-response",134,164987,"0.0-3.41-0.41","s2yc7akxjlu37um",542,"125.csv","","337","resources/trios/L2T4A3.jpg","37","restless",0.6,0.4,0.5,0.285612396270571,"true"
"image-keyboard-response",135,165389,"0.0-3.41-1.41","s2yc7akxjlu37um",542,"125.csv","","null","resources/maskTrios/L2BB.jpg","null","",NA,NA,NA,NA,""
"image-keyboard-response",136,166591,"0.0-3.41-2.41","s2yc7akxjlu37um",542,"125.csv","","null","resources/images/coin2.png","null","",NA,NA,NA,NA,""
"image-keyboard-response",137,166930,"0.0-3.42-0.42","s2yc7akxjlu37um",542,"125.csv","","338","resources/trios/L2T4A3.jpg","37","restless",0.6,0.4,0.5,0.297687628474094,"true"
"image-keyboard-response",138,167332,"0.0-3.42-1.42","s2yc7akxjlu37um",542,"125.csv","","null","resources/maskTrios/L2BB.jpg","null","",NA,NA,NA,NA,""
"image-keyboard-response",139,168534,"0.0-3.42-2.42","s2yc7akxjlu37um",542,"125.csv","","null","resources/images/coin2.png","null","",NA,NA,NA,NA,""
"image-keyboard-response",140,168846,"0.0-3.43-0.43","s2yc7akxjlu37um",542,"125.csv","","310","resources/trios/L2T4A3.jpg","37","restless",0.6,0.3,0.5,0.763582364615453,"false"
"image-keyboard-response",141,169248,"0.0-3.43-1.43","s2yc7akxjlu37um",542,"125.csv","","null","resources/maskTrios/L2BB.jpg","null","",NA,NA,NA,NA,""
"image-keyboard-response",142,170450,"0.0-3.43-2.43","s2yc7akxjlu37um",542,"125.csv","","null","resources/images/fishbone.png","null","",NA,NA,NA,NA,""
"image-keyboard-response",143,170756,"0.0-3.44-0.44","s2yc7akxjlu37um",542,"125.csv","","304","resources/trios/L1T2A3.jpg","39","restless",0.6,0.2,0.5,0.317411925086566,"true"
"image-keyboard-response",144,171158,"0.0-3.44-1.44","s2yc7akxjlu37um",542,"125.csv","","null","resources/maskTrios/BBA3.jpg","null","",NA,NA,NA,NA,""
"image-keyboard-response",145,172360,"0.0-3.44-2.44","s2yc7akxjlu37um",542,"125.csv","","null","resources/images/coin2.png","null","",NA,NA,NA,NA,""
"image-keyboard-response",146,172636,"0.0-3.45-0.45","s2yc7akxjlu37um",542,"125.csv","","274","resources/trios/L1T2A1.jpg","39","restless",0.6,0.2,0.5,0.605016217771666,"false"
"image-keyboard-response",147,173038,"0.0-3.45-1.45","s2yc7akxjlu37um",542,"125.csv","","null","resources/maskTrios/BBA1.jpg","null","",NA,NA,NA,NA,""
"image-keyboard-response",148,174240,"0.0-3.45-2.45","s2yc7akxjlu37um",542,"125.csv","","null","resources/images/fishbone.png","null","",NA,NA,NA,NA,""
"image-keyboard-response",149,174624,"0.0-3.46-0.46","s2yc7akxjlu37um",542,"125.csv","","382","resources/trios/L2T4A1.jpg","38","restless",0.6,0.2,0.5,0.24679832747561,"false"
"image-keyboard-response",150,175026,"0.0-3.46-1.46","s2yc7akxjlu37um",542,"125.csv","","null","resources/maskTrios/BT4B.jpg","null","",NA,NA,NA,NA,""
"image-keyboard-response",151,176228,"0.0-3.46-2.46","s2yc7akxjlu37um",542,"125.csv","","null","resources/images/fishbone.png","null","",NA,NA,NA,NA,""
"image-keyboard-response",152,177651,"0.0-3.47-0.47","s2yc7akxjlu37um",542,"125.csv","","1422.000000000029","resources/trios/L1T2A3.jpg","39","restless",0.6,0.2,0.5,0.558507140716327,"false"
"image-keyboard-response",153,178053,"0.0-3.47-1.47","s2yc7akxjlu37um",542,"125.csv","","null","resources/maskTrios/BBA3.jpg","null","",NA,NA,NA,NA,""
"image-keyboard-response",154,179255,"0.0-3.47-2.47","s2yc7akxjlu37um",542,"125.csv","","null","resources/images/fishbone.png","null","",NA,NA,NA,NA,""
"image-keyboard-response",155,179560,"0.0-3.48-0.48","s2yc7akxjlu37um",542,"125.csv","","303","resources/trios/L2T2A1.jpg","37","restless",0.6,0.2,0.5,0.337992305414395,"true"
"image-keyboard-response",156,179962,"0.0-3.48-1.48","s2yc7akxjlu37um",542,"125.csv","","null","resources/maskTrios/L2BB.jpg","null","",NA,NA,NA,NA,""
"image-keyboard-response",157,181164,"0.0-3.48-2.48","s2yc7akxjlu37um",542,"125.csv","","null","resources/images/coin2.png","null","",NA,NA,NA,NA,""
"image-keyboard-response",158,181546,"0.0-3.49-0.49","s2yc7akxjlu37um",542,"125.csv","","381","resources/trios/L2T2A1.jpg","37","restless",0.6,0.3,0.5,0.35590946276757,"true"
"image-keyboard-response",159,181949,"0.0-3.49-1.49","s2yc7akxjlu37um",542,"125.csv","","null","resources/maskTrios/L2BB.jpg","null","",NA,NA,NA,NA,""
"image-keyboard-response",160,183151,"0.0-3.49-2.49","s2yc7akxjlu37um",542,"125.csv","","null","resources/images/coin2.png","null","",NA,NA,NA,NA,""
"image-keyboard-response",161,183640,"0.0-3.50-0.50","s2yc7akxjlu37um",542,"125.csv","","488","resources/trios/L2T4A1.jpg","37","restless",0.6,0.3,0.5,0.384241696260107,"true"
"image-keyboard-response",162,184043,"0.0-3.50-1.50","s2yc7akxjlu37um",542,"125.csv","","null","resources/maskTrios/L2BB.jpg","null","",NA,NA,NA,NA,""
"image-keyboard-response",163,185245,"0.0-3.50-2.50","s2yc7akxjlu37um",542,"125.csv","","null","resources/images/coin2.png","null","",NA,NA,NA,NA,""
"image-keyboard-response",164,185687,"0.0-3.51-0.51","s2yc7akxjlu37um",542,"125.csv","","440.9999999999709","resources/trios/L1T2A1.jpg","37","restless",0.6,0.3,0.5,0.803892256286464,"false"
"image-keyboard-response",165,186090,"0.0-3.51-1.51","s2yc7akxjlu37um",542,"125.csv","","null","resources/maskTrios/L1BB.jpg","null","",NA,NA,NA,NA,""
"image-keyboard-response",166,187292,"0.0-3.51-2.51","s2yc7akxjlu37um",542,"125.csv","","null","resources/images/fishbone.png","null","",NA,NA,NA,NA,""
"image-keyboard-response",167,187600,"0.0-3.52-0.52","s2yc7akxjlu37um",542,"125.csv","","307","resources/trios/L2T4A1.jpg","37","restless",0.6,0.3,0.5,0.644487919912263,"false"
"image-keyboard-response",168,188003,"0.0-3.52-1.52","s2yc7akxjlu37um",542,"125.csv","","null","resources/maskTrios/L2BB.jpg","null","",NA,NA,NA,NA,""
"image-keyboard-response",169,189205,"0.0-3.52-2.52","s2yc7akxjlu37um",542,"125.csv","","null","resources/images/fishbone.png","null","",NA,NA,NA,NA,""
"image-keyboard-response",170,189946,"0.0-3.53-0.53","s2yc7akxjlu37um",542,"125.csv","","740","resources/trios/L2T2A3.jpg","37","restless",0.5,0.3,0.5,0.296169526700155,"true"
"image-keyboard-response",171,190349,"0.0-3.53-1.53","s2yc7akxjlu37um",542,"125.csv","","null","resources/maskTrios/L2BB.jpg","null","",NA,NA,NA,NA,""
"image-keyboard-response",172,191551,"0.0-3.53-2.53","s2yc7akxjlu37um",542,"125.csv","","null","resources/images/coin2.png","null","",NA,NA,NA,NA,""
"image-keyboard-response",173,191814,"0.0-3.54-0.54","s2yc7akxjlu37um",542,"125.csv","","262","resources/trios/L1T4A1.jpg","37","restless",0.5,0.3,0.5,0.694839023795616,"false"
"image-keyboard-response",174,192216,"0.0-3.54-1.54","s2yc7akxjlu37um",542,"125.csv","","null","resources/maskTrios/L1BB.jpg","null","",NA,NA,NA,NA,""
"image-keyboard-response",175,193418,"0.0-3.54-2.54","s2yc7akxjlu37um",542,"125.csv","","null","resources/images/fishbone.png","null","",NA,NA,NA,NA,""
"image-keyboard-response",176,193849,"0.0-3.55-0.55","s2yc7akxjlu37um",542,"125.csv","","430","resources/trios/L1T4A1.jpg","38","restless",0.5,0.3,0.5,0.410868971306858,"false"
"image-keyboard-response",177,194251,"0.0-3.55-1.55","s2yc7akxjlu37um",542,"125.csv","","null","resources/maskTrios/BT4B.jpg","null","",NA,NA,NA,NA,""
"image-keyboard-response",178,195454,"0.0-3.55-2.55","s2yc7akxjlu37um",542,"125.csv","","null","resources/images/fishbone.png","null","",NA,NA,NA,NA,""
"image-keyboard-response",179,195675,"0.0-3.56-0.56","s2yc7akxjlu37um",542,"125.csv","","220","resources/trios/L1T2A1.jpg","37","restless",0.5,0.3,0.5,0.498175137827234,"true"
"image-keyboard-response",180,196077,"0.0-3.56-1.56","s2yc7akxjlu37um",542,"125.csv","","null","resources/maskTrios/L1BB.jpg","null","",NA,NA,NA,NA,""
"image-keyboard-response",181,197279,"0.0-3.56-2.56","s2yc7akxjlu37um",542,"125.csv","","null","resources/images/coin2.png","null","",NA,NA,NA,NA,""
"image-keyboard-response",182,197796,"0.0-3.57-0.57","s2yc7akxjlu37um",542,"125.csv","","515","resources/trios/L1T4A3.jpg","37","restless",0.5,0.3,0.5,0.804859105108632,"false"
"image-keyboard-response",183,198198,"0.0-3.57-1.57","s2yc7akxjlu37um",542,"125.csv","","null","resources/maskTrios/L1BB.jpg","null","",NA,NA,NA,NA,""
"image-keyboard-response",184,199400,"0.0-3.57-2.57","s2yc7akxjlu37um",542,"125.csv","","null","resources/images/fishbone.png","null","",NA,NA,NA,NA,""
"image-keyboard-response",185,200664,"0.0-3.58-0.58","s2yc7akxjlu37um",542,"125.csv","","1262","resources/trios/L1T4A1.jpg","37","restless",0.5,0.3,0.5,0.158014808286104,"true"
"image-keyboard-response",186,201066,"0.0-3.58-1.58","s2yc7akxjlu37um",542,"125.csv","","null","resources/maskTrios/L1BB.jpg","null","",NA,NA,NA,NA,""
"image-keyboard-response",187,202268,"0.0-3.58-2.58","s2yc7akxjlu37um",542,"125.csv","","null","resources/images/coin2.png","null","",NA,NA,NA,NA,""
"image-keyboard-response",188,202568,"0.0-3.59-0.59","s2yc7akxjlu37um",542,"125.csv","","298","resources/trios/L1T4A3.jpg","39","restless",0.4,0.3,0.5,0.447607230887939,"true"
"image-keyboard-response",189,202970,"0.0-3.59-1.59","s2yc7akxjlu37um",542,"125.csv","","null","resources/maskTrios/BBA3.jpg","null","",NA,NA,NA,NA,""
"image-keyboard-response",190,204172,"0.0-3.59-2.59","s2yc7akxjlu37um",542,"125.csv","","null","resources/images/coin2.png","null","",NA,NA,NA,NA,""
"image-keyboard-response",191,204460,"0.0-3.60-0.60","s2yc7akxjlu37um",542,"125.csv","","287","resources/trios/L1T4A3.jpg","37","restless",0.3,0.3,0.5,0.533346025539812,"false"
"image-keyboard-response",192,204863,"0.0-3.60-1.60","s2yc7akxjlu37um",542,"125.csv","","null","resources/maskTrios/L1BB.jpg","null","",NA,NA,NA,NA,""
"image-keyboard-response",193,206065,"0.0-3.60-2.60","s2yc7akxjlu37um",542,"125.csv","","null","resources/images/fishbone.png","null","",NA,NA,NA,NA,""
"image-keyboard-response",194,207222,"0.0-3.61-0.61","s2yc7akxjlu37um",542,"125.csv","","1156","resources/trios/L1T2A3.jpg","37","restless",0.3,0.3,0.5,0.315460274563583,"false"
"image-keyboard-response",195,207625,"0.0-3.61-1.61","s2yc7akxjlu37um",542,"125.csv","","null","resources/maskTrios/L1BB.jpg","null","",NA,NA,NA,NA,""
"image-keyboard-response",196,208827,"0.0-3.61-2.61","s2yc7akxjlu37um",542,"125.csv","","null","resources/images/fishbone.png","null","",NA,NA,NA,NA,""
"image-keyboard-response",197,209930,"0.0-3.62-0.62","s2yc7akxjlu37um",542,"125.csv","","1102","resources/trios/L2T4A1.jpg","37","restless",0.3,0.3,0.5,0.214957939904929,"true"
"image-keyboard-response",198,210332,"0.0-3.62-1.62","s2yc7akxjlu37um",542,"125.csv","","null","resources/maskTrios/L2BB.jpg","null","",NA,NA,NA,NA,""
"image-keyboard-response",199,211538,"0.0-3.62-2.62","s2yc7akxjlu37um",542,"125.csv","","null","resources/images/coin2.png","null","",NA,NA,NA,NA,""
"image-keyboard-response",200,211841,"0.0-3.63-0.63","s2yc7akxjlu37um",542,"125.csv","","299","resources/trios/L2T4A3.jpg","39","restless",0.3,0.3,0.5,0.0205792121632311,"true"
"image-keyboard-response",201,212243,"0.0-3.63-1.63","s2yc7akxjlu37um",542,"125.csv","","null","resources/maskTrios/BBA3.jpg","null","",NA,NA,NA,NA,""
"image-keyboard-response",202,213446,"0.0-3.63-2.63","s2yc7akxjlu37um",542,"125.csv","","null","resources/images/coin2.png","null","",NA,NA,NA,NA,""
"image-keyboard-response",203,213736,"0.0-3.64-0.64","s2yc7akxjlu37um",542,"125.csv","","289","resources/trios/L2T2A1.jpg","37","restless",0.3,0.3,0.5,0.587680988748557,"false"
"image-keyboard-response",204,214138,"0.0-3.64-1.64","s2yc7akxjlu37um",542,"125.csv","","null","resources/maskTrios/L2BB.jpg","null","",NA,NA,NA,NA,""
"image-keyboard-response",205,215340,"0.0-3.64-2.64","s2yc7akxjlu37um",542,"125.csv","","null","resources/images/fishbone.png","null","",NA,NA,NA,NA,""
"image-keyboard-response",206,215497,"0.0-3.65-0.65","s2yc7akxjlu37um",542,"125.csv","","156.0000000000291","resources/trios/L2T2A1.jpg","39","restless",0.3,0.3,0.5,0.72322028818807,"false"
"image-keyboard-response",207,215898,"0.0-3.65-1.65","s2yc7akxjlu37um",542,"125.csv","","null","resources/maskTrios/BBA1.jpg","null","",NA,NA,NA,NA,""
"image-keyboard-response",208,217101,"0.0-3.65-2.65","s2yc7akxjlu37um",542,"125.csv","","null","resources/images/fishbone.png","null","",NA,NA,NA,NA,""
"image-keyboard-response",209,217487,"0.0-3.66-0.66","s2yc7akxjlu37um",542,"125.csv","","385","resources/trios/L1T2A1.jpg","37","restless",0.3,0.3,0.5,0.022339538366672,"true"
"image-keyboard-response",210,217890,"0.0-3.66-1.66","s2yc7akxjlu37um",542,"125.csv","","null","resources/maskTrios/L1BB.jpg","null","",NA,NA,NA,NA,""
"image-keyboard-response",211,219091,"0.0-3.66-2.66","s2yc7akxjlu37um",542,"125.csv","","null","resources/images/coin2.png","null","",NA,NA,NA,NA,""
"image-keyboard-response",212,219472,"0.0-3.67-0.67","s2yc7akxjlu37um",542,"125.csv","","378.9999999999709","resources/trios/L2T2A3.jpg","37","restless",0.3,0.3,0.5,0.145227695044303,"true"
"image-keyboard-response",213,219874,"0.0-3.67-1.67","s2yc7akxjlu37um",542,"125.csv","","null","resources/maskTrios/L2BB.jpg","null","",NA,NA,NA,NA,""
"image-keyboard-response",214,221076,"0.0-3.67-2.67","s2yc7akxjlu37um",542,"125.csv","","null","resources/images/coin2.png","null","",NA,NA,NA,NA,""
"image-keyboard-response",215,221344,"0.0-3.68-0.68","s2yc7akxjlu37um",542,"125.csv","","266","resources/trios/L1T2A1.jpg","37","restless",0.2,0.3,0.5,0.388997787699265,"false"
"image-keyboard-response",216,221746,"0.0-3.68-1.68","s2yc7akxjlu37um",542,"125.csv","","null","resources/maskTrios/L1BB.jpg","null","",NA,NA,NA,NA,""
"image-keyboard-response",217,222948,"0.0-3.68-2.68","s2yc7akxjlu37um",542,"125.csv","","null","resources/images/fishbone.png","null","",NA,NA,NA,NA,""
"image-keyboard-response",218,223224,"0.0-3.69-0.69","s2yc7akxjlu37um",542,"125.csv","","274.0000000000291","resources/trios/L1T4A1.jpg","38","restless",0.2,0.2,0.5,0.498102866826797,"false"
"image-keyboard-response",219,223626,"0.0-3.69-1.69","s2yc7akxjlu37um",542,"125.csv","","null","resources/maskTrios/BT4B.jpg","null","",NA,NA,NA,NA,""
"image-keyboard-response",220,224829,"0.0-3.69-2.69","s2yc7akxjlu37um",542,"125.csv","","null","resources/images/fishbone.png","null","",NA,NA,NA,NA,""
"image-keyboard-response",221,225106,"0.0-3.70-0.70","s2yc7akxjlu37um",542,"125.csv","","275","resources/trios/L1T4A3.jpg","37","restless",0.1,0.2,0.5,0.509900158733487,"false"
"image-keyboard-response",222,225509,"0.0-3.70-1.70","s2yc7akxjlu37um",542,"125.csv","","null","resources/maskTrios/L1BB.jpg","null","",NA,NA,NA,NA,""
"image-keyboard-response",223,226711,"0.0-3.70-2.70","s2yc7akxjlu37um",542,"125.csv","","null","resources/images/fishbone.png","null","",NA,NA,NA,NA,""
"image-keyboard-response",224,227025,"0.0-3.71-0.71","s2yc7akxjlu37um",542,"125.csv","","312","resources/trios/L2T4A3.jpg","39","restless",0.2,0.2,0.5,0.300161499691239,"true"
"image-keyboard-response",225,227427,"0.0-3.71-1.71","s2yc7akxjlu37um",542,"125.csv","","null","resources/maskTrios/BBA3.jpg","null","",NA,NA,NA,NA,""
"image-keyboard-response",226,228630,"0.0-3.71-2.71","s2yc7akxjlu37um",542,"125.csv","","null","resources/images/coin2.png","null","",NA,NA,NA,NA,""
"image-keyboard-response",227,228924,"0.0-3.72-0.72","s2yc7akxjlu37um",542,"125.csv","","293","resources/trios/L2T2A3.jpg","37","restless",0.2,0.2,0.5,0.137463998910664,"true"
"image-keyboard-response",228,229326,"0.0-3.72-1.72","s2yc7akxjlu37um",542,"125.csv","","null","resources/maskTrios/L2BB.jpg","null","",NA,NA,NA,NA,""
"image-keyboard-response",229,230528,"0.0-3.72-2.72","s2yc7akxjlu37um",542,"125.csv","","null","resources/images/coin2.png","null","",NA,NA,NA,NA,""
"image-keyboard-response",230,230817,"0.0-3.73-0.73","s2yc7akxjlu37um",542,"125.csv","","287","resources/trios/L1T4A3.jpg","38","restless",0.2,0.2,0.5,0.126337940073009,"true"
"image-keyboard-response",231,231219,"0.0-3.73-1.73","s2yc7akxjlu37um",542,"125.csv","","null","resources/maskTrios/BT4B.jpg","null","",NA,NA,NA,NA,""
"image-keyboard-response",232,232421,"0.0-3.73-2.73","s2yc7akxjlu37um",542,"125.csv","","null","resources/images/coin2.png","null","",NA,NA,NA,NA,""
"image-keyboard-response",233,232645,"0.0-3.74-0.74","s2yc7akxjlu37um",542,"125.csv","","223","resources/trios/L1T4A1.jpg","39","restless",0.2,0.2,0.5,0.84842655489095,"false"
"image-keyboard-response",234,233048,"0.0-3.74-1.74","s2yc7akxjlu37um",542,"125.csv","","null","resources/maskTrios/BBA1.jpg","null","",NA,NA,NA,NA,""
"image-keyboard-response",235,234250,"0.0-3.74-2.74","s2yc7akxjlu37um",542,"125.csv","","null","resources/images/fishbone.png","null","",NA,NA,NA,NA,""
"image-keyboard-response",236,234374,"0.0-3.75-0.75","s2yc7akxjlu37um",542,"125.csv","","122","resources/trios/L2T2A1.jpg","38","restless",0.2,0.2,0.5,0.521378382575664,"false"
"image-keyboard-response",237,234775,"0.0-3.75-1.75","s2yc7akxjlu37um",542,"125.csv","","null","resources/maskTrios/BT2B.jpg","null","",NA,NA,NA,NA,""
"image-keyboard-response",238,235977,"0.0-3.75-2.75","s2yc7akxjlu37um",542,"125.csv","","null","resources/images/fishbone.png","null","",NA,NA,NA,NA,""
"image-keyboard-response",239,236281,"0.0-3.76-0.76","s2yc7akxjlu37um",542,"125.csv","","302","resources/trios/L2T2A3.jpg","37","restless",0.2,0.2,0.5,0.909388664162381,"false"
"image-keyboard-response",240,236684,"0.0-3.76-1.76","s2yc7akxjlu37um",542,"125.csv","","null","resources/maskTrios/L2BB.jpg","null","",NA,NA,NA,NA,""
"image-keyboard-response",241,237886,"0.0-3.76-2.76","s2yc7akxjlu37um",542,"125.csv","","null","resources/images/fishbone.png","null","",NA,NA,NA,NA,""
"image-keyboard-response",242,237996,"0.0-3.77-0.77","s2yc7akxjlu37um",542,"125.csv","","109","resources/trios/L1T4A3.jpg","39","restless",0.2,0.3,0.5,0.271245036687189,"true"
"image-keyboard-response",243,238399,"0.0-3.77-1.77","s2yc7akxjlu37um",542,"125.csv","","null","resources/maskTrios/BBA3.jpg","null","",NA,NA,NA,NA,""
"image-keyboard-response",244,239600,"0.0-3.77-2.77","s2yc7akxjlu37um",542,"125.csv","","null","resources/images/coin2.png","null","",NA,NA,NA,NA,""
"image-keyboard-response",245,240114,"0.0-3.78-0.78","s2yc7akxjlu37um",542,"125.csv","","513","resources/trios/L1T4A1.jpg","39","restless",0.2,0.3,0.5,0.750820380720869,"false"
"image-keyboard-response",246,240515,"0.0-3.78-1.78","s2yc7akxjlu37um",542,"125.csv","","null","resources/maskTrios/BBA1.jpg","null","",NA,NA,NA,NA,""
"image-keyboard-response",247,241716,"0.0-3.78-2.78","s2yc7akxjlu37um",542,"125.csv","","null","resources/images/fishbone.png","null","",NA,NA,NA,NA,""
"image-keyboard-response",248,241989,"0.0-3.79-0.79","s2yc7akxjlu37um",542,"125.csv","","271","resources/trios/L2T4A1.jpg","37","restless",0.2,0.3,0.5,0.0346123543525794,"true"
"image-keyboard-response",249,242391,"0.0-3.79-1.79","s2yc7akxjlu37um",542,"125.csv","","null","resources/maskTrios/L2BB.jpg","null","",NA,NA,NA,NA,""
"image-keyboard-response",250,243594,"0.0-3.79-2.79","s2yc7akxjlu37um",542,"125.csv","","null","resources/images/coin2.png","null","",NA,NA,NA,NA,""
"image-keyboard-response",251,243900,"0.0-3.80-0.80","s2yc7akxjlu37um",542,"125.csv","","304","resources/trios/L2T2A1.jpg","37","restless",0.2,0.3,0.5,0.0050915752133025,"true"
"image-keyboard-response",252,244303,"0.0-3.80-1.80","s2yc7akxjlu37um",542,"125.csv","","null","resources/maskTrios/L2BB.jpg","null","",NA,NA,NA,NA,""
"image-keyboard-response",253,245505,"0.0-3.80-2.80","s2yc7akxjlu37um",542,"125.csv","","null","resources/images/coin2.png","null","",NA,NA,NA,NA,""
"image-keyboard-response",254,246178,"0.0-3.81-0.81","s2yc7akxjlu37um",542,"125.csv","","672","resources/trios/L1T2A1.jpg","37","restless",0.2,0.3,0.5,0.174025343759094,"true"
"image-keyboard-response",255,246581,"0.0-3.81-1.81","s2yc7akxjlu37um",542,"125.csv","","null","resources/maskTrios/L1BB.jpg","null","",NA,NA,NA,NA,""
"image-keyboard-response",256,247783,"0.0-3.81-2.81","s2yc7akxjlu37um",542,"125.csv","","null","resources/images/coin2.png","null","",NA,NA,NA,NA,""
"image-keyboard-response",257,248268,"0.0-3.82-0.82","s2yc7akxjlu37um",542,"125.csv","","485","resources/trios/L2T4A3.jpg","37","restless",0.2,0.3,0.5,0.64051151466285,"false"
"image-keyboard-response",258,248672,"0.0-3.82-1.82","s2yc7akxjlu37um",542,"125.csv","","null","resources/maskTrios/L2BB.jpg","null","",NA,NA,NA,NA,""
"image-keyboard-response",259,249873,"0.0-3.82-2.82","s2yc7akxjlu37um",542,"125.csv","","null","resources/images/fishbone.png","null","",NA,NA,NA,NA,""
"image-keyboard-response",260,252195,"0.0-3.83-0.83","s2yc7akxjlu37um",542,"125.csv","","2318","resources/trios/L1T2A3.jpg","38","restless",0.2,0.3,0.5,0.391570572329771,"false"
"image-keyboard-response",261,252598,"0.0-3.83-1.83","s2yc7akxjlu37um",542,"125.csv","","null","resources/maskTrios/BT2B.jpg","null","",NA,NA,NA,NA,""
"image-keyboard-response",262,253798,"0.0-3.83-2.83","s2yc7akxjlu37um",542,"125.csv","","null","resources/images/fishbone.png","null","",NA,NA,NA,NA,""
"image-keyboard-response",263,254440,"0.0-3.84-0.84","s2yc7akxjlu37um",542,"125.csv","","640","resources/trios/L2T4A3.jpg","37","restless",0.2,0.3,0.5,0.927121977483443,"false"
"image-keyboard-response",264,254842,"0.0-3.84-1.84","s2yc7akxjlu37um",542,"125.csv","","null","resources/maskTrios/L2BB.jpg","null","",NA,NA,NA,NA,""
"image-keyboard-response",265,256044,"0.0-3.84-2.84","s2yc7akxjlu37um",542,"125.csv","","null","resources/images/fishbone.png","null","",NA,NA,NA,NA,""
"image-keyboard-response",266,256247,"0.0-3.85-0.85","s2yc7akxjlu37um",542,"125.csv","","202","resources/trios/L1T2A1.jpg","37","restless",0.2,0.3,0.4,0.891781090674047,"false"
"image-keyboard-response",267,256649,"0.0-3.85-1.85","s2yc7akxjlu37um",542,"125.csv","","null","resources/maskTrios/L1BB.jpg","null","",NA,NA,NA,NA,""
"image-keyboard-response",268,257851,"0.0-3.85-2.85","s2yc7akxjlu37um",542,"125.csv","","null","resources/images/fishbone.png","null","",NA,NA,NA,NA,""
"image-keyboard-response",269,258441,"0.0-3.86-0.86","s2yc7akxjlu37um",542,"125.csv","","588","resources/trios/L1T4A3.jpg","38","restless",0.2,0.3,0.4,0.416437373435836,"false"
"image-keyboard-response",270,258843,"0.0-3.86-1.86","s2yc7akxjlu37um",542,"125.csv","","null","resources/maskTrios/BT4B.jpg","null","",NA,NA,NA,NA,""
"image-keyboard-response",271,260045,"0.0-3.86-2.86","s2yc7akxjlu37um",542,"125.csv","","null","resources/images/fishbone.png","null","",NA,NA,NA,NA,""
"image-keyboard-response",272,260745,"0.0-3.87-0.87","s2yc7akxjlu37um",542,"125.csv","","697","resources/trios/L1T4A3.jpg","39","restless",0.3,0.3,0.5,0.0893365092654358,"true"
"image-keyboard-response",273,261146,"0.0-3.87-1.87","s2yc7akxjlu37um",542,"125.csv","","null","resources/maskTrios/BBA3.jpg","null","",NA,NA,NA,NA,""
"image-keyboard-response",274,262349,"0.0-3.87-2.87","s2yc7akxjlu37um",542,"125.csv","","null","resources/images/coin2.png","null","",NA,NA,NA,NA,""
"image-keyboard-response",275,262616,"0.0-3.88-0.88","s2yc7akxjlu37um",542,"125.csv","","266","resources/trios/L2T2A3.jpg","39","restless",0.3,0.3,0.5,0.900893948328862,"false"
"image-keyboard-response",276,263017,"0.0-3.88-1.88","s2yc7akxjlu37um",542,"125.csv","","null","resources/maskTrios/BBA3.jpg","null","",NA,NA,NA,NA,""
"image-keyboard-response",277,264220,"0.0-3.88-2.88","s2yc7akxjlu37um",542,"125.csv","","null","resources/images/fishbone.png","null","",NA,NA,NA,NA,""
"image-keyboard-response",278,264549,"0.0-3.89-0.89","s2yc7akxjlu37um",542,"125.csv","","328","resources/trios/L1T4A3.jpg","37","restless",0.2,0.3,0.5,0.717676655036614,"false"
"image-keyboard-response",279,264951,"0.0-3.89-1.89","s2yc7akxjlu37um",542,"125.csv","","null","resources/maskTrios/L1BB.jpg","null","",NA,NA,NA,NA,""
"image-keyboard-response",280,266153,"0.0-3.89-2.89","s2yc7akxjlu37um",542,"125.csv","","null","resources/images/fishbone.png","null","",NA,NA,NA,NA,""
"image-keyboard-response",281,266426,"0.0-3.90-0.90","s2yc7akxjlu37um",542,"125.csv","","270","resources/trios/L2T4A3.jpg","39","restless",0.2,0.3,0.5,0.956026630510099,"false"
"image-keyboard-response",282,266829,"0.0-3.90-1.90","s2yc7akxjlu37um",542,"125.csv","","null","resources/maskTrios/BBA3.jpg","null","",NA,NA,NA,NA,""
"image-keyboard-response",283,268031,"0.0-3.90-2.90","s2yc7akxjlu37um",542,"125.csv","","null","resources/images/fishbone.png","null","",NA,NA,NA,NA,""
"image-keyboard-response",284,269465,"0.0-3.91-0.91","s2yc7akxjlu37um",542,"125.csv","","1431.9999999999418","resources/trios/L1T2A1.jpg","37","restless",0.3,0.3,0.6,0.0974690095828846,"true"
"image-keyboard-response",285,269866,"0.0-3.91-1.91","s2yc7akxjlu37um",542,"125.csv","","null","resources/maskTrios/L1BB.jpg","null","",NA,NA,NA,NA,""
"image-keyboard-response",286,271068,"0.0-3.91-2.91","s2yc7akxjlu37um",542,"125.csv","","null","resources/images/coin2.png","null","",NA,NA,NA,NA,""
"image-keyboard-response",287,271365,"0.0-3.92-0.92","s2yc7akxjlu37um",542,"125.csv","","296","resources/trios/L1T4A1.jpg","37","restless",0.3,0.3,0.6,0.580178579147772,"false"
"image-keyboard-response",288,271768,"0.0-3.92-1.92","s2yc7akxjlu37um",542,"125.csv","","null","resources/maskTrios/L1BB.jpg","null","",NA,NA,NA,NA,""
"image-keyboard-response",289,272969,"0.0-3.92-2.92","s2yc7akxjlu37um",542,"125.csv","","null","resources/images/fishbone.png","null","",NA,NA,NA,NA,""
"image-keyboard-response",290,273389,"0.0-3.93-0.93","s2yc7akxjlu37um",542,"125.csv","","418","resources/trios/L2T2A1.jpg","37","restless",0.3,0.3,0.6,0.412835911661494,"false"
"image-keyboard-response",291,273791,"0.0-3.93-1.93","s2yc7akxjlu37um",542,"125.csv","","null","resources/maskTrios/L2BB.jpg","null","",NA,NA,NA,NA,""
"image-keyboard-response",292,274994,"0.0-3.93-2.93","s2yc7akxjlu37um",542,"125.csv","","null","resources/images/fishbone.png","null","",NA,NA,NA,NA,""
"image-keyboard-response",293,275165,"0.0-3.94-0.94","s2yc7akxjlu37um",542,"125.csv","","170","resources/trios/L1T2A1.jpg","38","restless",0.3,0.3,0.6,0.772997327246272,"false"
"image-keyboard-response",294,275567,"0.0-3.94-1.94","s2yc7akxjlu37um",542,"125.csv","","null","resources/maskTrios/BT2B.jpg","null","",NA,NA,NA,NA,""
"image-keyboard-response",295,276769,"0.0-3.94-2.94","s2yc7akxjlu37um",542,"125.csv","","null","resources/images/fishbone.png","null","",NA,NA,NA,NA,""
"image-keyboard-response",296,278438,"0.0-3.95-0.95","s2yc7akxjlu37um",542,"125.csv","","1667","resources/trios/L2T2A1.jpg","37","restless",0.3,0.3,0.6,0.571146854657309,"false"
"image-keyboard-response",297,278840,"0.0-3.95-1.95","s2yc7akxjlu37um",542,"125.csv","","null","resources/maskTrios/L2BB.jpg","null","",NA,NA,NA,NA,""
"image-keyboard-response",298,280042,"0.0-3.95-2.95","s2yc7akxjlu37um",542,"125.csv","","null","resources/images/fishbone.png","null","",NA,NA,NA,NA,""
"image-keyboard-response",299,280394,"0.0-3.96-0.96","s2yc7akxjlu37um",542,"125.csv","","351","resources/trios/L2T4A3.jpg","39","restless",0.3,0.3,0.6,0.473815461661797,"true"
"image-keyboard-response",300,280797,"0.0-3.96-1.96","s2yc7akxjlu37um",542,"125.csv","","null","resources/maskTrios/BBA3.jpg","null","",NA,NA,NA,NA,""
"image-keyboard-response",301,281998,"0.0-3.96-2.96","s2yc7akxjlu37um",542,"125.csv","","null","resources/images/coin2.png","null","",NA,NA,NA,NA,""
"image-keyboard-response",302,282363,"0.0-3.97-0.97","s2yc7akxjlu37um",542,"125.csv","","363","resources/trios/L1T4A1.jpg","39","restless",0.3,0.3,0.7,0.87740898379509,"false"
"image-keyboard-response",303,282764,"0.0-3.97-1.97","s2yc7akxjlu37um",542,"125.csv","","null","resources/maskTrios/BBA1.jpg","null","",NA,NA,NA,NA,""
"image-keyboard-response",304,283967,"0.0-3.97-2.97","s2yc7akxjlu37um",542,"125.csv","","null","resources/images/fishbone.png","null","",NA,NA,NA,NA,""
"image-keyboard-response",305,284309,"0.0-3.98-0.98","s2yc7akxjlu37um",542,"125.csv","","340","resources/trios/L2T2A3.jpg","37","restless",0.3,0.4,0.7,0.243532243745416,"true"
"image-keyboard-response",306,284711,"0.0-3.98-1.98","s2yc7akxjlu37um",542,"125.csv","","null","resources/maskTrios/L2BB.jpg","null","",NA,NA,NA,NA,""
"image-keyboard-response",307,285912,"0.0-3.98-2.98","s2yc7akxjlu37um",542,"125.csv","","null","resources/images/coin2.png","null","",NA,NA,NA,NA,""
"image-keyboard-response",308,286918,"0.0-3.99-0.99","s2yc7akxjlu37um",542,"125.csv","","1004","resources/trios/L2T4A3.jpg","37","restless",0.3,0.4,0.7,0.0847908237942353,"true"
"image-keyboard-response",309,287320,"0.0-3.99-1.99","s2yc7akxjlu37um",542,"125.csv","","null","resources/maskTrios/L2BB.jpg","null","",NA,NA,NA,NA,""
"image-keyboard-response",310,288523,"0.0-3.99-2.99","s2yc7akxjlu37um",542,"125.csv","","null","resources/images/coin2.png","null","",NA,NA,NA,NA,""
"image-keyboard-response",311,288796,"0.0-3.100-0.100","s2yc7akxjlu37um",542,"125.csv","","272","resources/trios/L2T2A3.jpg","37","restless",0.2,0.4,0.7,0.542450545761799,"false"
"image-keyboard-response",312,289197,"0.0-3.100-1.100","s2yc7akxjlu37um",542,"125.csv","","null","resources/maskTrios/L2BB.jpg","null","",NA,NA,NA,NA,""
"image-keyboard-response",313,290399,"0.0-3.100-2.100","s2yc7akxjlu37um",542,"125.csv","","null","resources/images/fishbone.png","null","",NA,NA,NA,NA,""
"image-keyboard-response",314,292152,"0.0-3.101-0.101","s2yc7akxjlu37um",542,"125.csv","","1751","resources/trios/L2T4A1.jpg","39","restless",0.2,0.4,0.7,0.598520425450825,"true"
"image-keyboard-response",315,292555,"0.0-3.101-1.101","s2yc7akxjlu37um",542,"125.csv","","null","resources/maskTrios/BBA1.jpg","null","",NA,NA,NA,NA,""
"image-keyboard-response",316,293758,"0.0-3.101-2.101","s2yc7akxjlu37um",542,"125.csv","","null","resources/images/coin2.png","null","",NA,NA,NA,NA,""
"image-keyboard-response",317,298952,"0.0-3.102-0.102","s2yc7akxjlu37um",542,"125.csv","","5192.999999999942","resources/trios/L2T2A3.jpg","37","restless",0.2,0.4,0.7,0.627954493068346,"false"
"image-keyboard-response",318,299356,"0.0-3.102-1.102","s2yc7akxjlu37um",542,"125.csv","","null","resources/maskTrios/L2BB.jpg","null","",NA,NA,NA,NA,""
"image-keyboard-response",319,300558,"0.0-3.102-2.102","s2yc7akxjlu37um",542,"125.csv","","null","resources/images/fishbone.png","null","",NA,NA,NA,NA,""
"image-keyboard-response",320,301140,"0.0-3.103-0.103","s2yc7akxjlu37um",542,"125.csv","","580","resources/trios/L1T4A1.jpg","39","restless",0.2,0.4,0.7,0.680158081982889,"true"
"image-keyboard-response",321,301542,"0.0-3.103-1.103","s2yc7akxjlu37um",542,"125.csv","","null","resources/maskTrios/BBA1.jpg","null","",NA,NA,NA,NA,""
"image-keyboard-response",322,302744,"0.0-3.103-2.103","s2yc7akxjlu37um",542,"125.csv","","null","resources/images/coin2.png","null","",NA,NA,NA,NA,""
"image-keyboard-response",323,304216,"0.0-3.104-0.104","s2yc7akxjlu37um",542,"125.csv","","1469","resources/trios/L1T2A3.jpg","38","restless",0.3,0.4,0.7,0.408297494350603,"false"
"image-keyboard-response",324,304618,"0.0-3.104-1.104","s2yc7akxjlu37um",542,"125.csv","","null","resources/maskTrios/BT2B.jpg","null","",NA,NA,NA,NA,""
"image-keyboard-response",325,305820,"0.0-3.104-2.104","s2yc7akxjlu37um",542,"125.csv","","null","resources/images/fishbone.png","null","",NA,NA,NA,NA,""
"image-keyboard-response",326,307628,"0.0-3.105-0.105","s2yc7akxjlu37um",542,"125.csv","","1807","resources/trios/L1T2A3.jpg","37","restless",0.3,0.4,0.7,0.469589207995567,"false"
"image-keyboard-response",327,308031,"0.0-3.105-1.105","s2yc7akxjlu37um",542,"125.csv","","null","resources/maskTrios/L1BB.jpg","null","",NA,NA,NA,NA,""
"image-keyboard-response",328,309233,"0.0-3.105-2.105","s2yc7akxjlu37um",542,"125.csv","","null","resources/images/fishbone.png","null","",NA,NA,NA,NA,""
"image-keyboard-response",329,309683,"0.0-3.106-0.106","s2yc7akxjlu37um",542,"125.csv","","448.0000000000582","resources/trios/L1T2A1.jpg","39","restless",0.3,0.4,0.7,0.0629255014698564,"true"
"image-keyboard-response",330,310084,"0.0-3.106-1.106","s2yc7akxjlu37um",542,"125.csv","","null","resources/maskTrios/BBA1.jpg","null","",NA,NA,NA,NA,""
"image-keyboard-response",331,311287,"0.0-3.106-2.106","s2yc7akxjlu37um",542,"125.csv","","null","resources/images/coin2.png","null","",NA,NA,NA,NA,""
"image-keyboard-response",332,312504,"0.0-3.107-0.107","s2yc7akxjlu37um",542,"125.csv","","1215","resources/trios/L2T4A1.jpg","39","restless",0.4,0.5,0.7,0.935936893699684,"false"
"image-keyboard-response",333,312906,"0.0-3.107-1.107","s2yc7akxjlu37um",542,"125.csv","","null","resources/maskTrios/BBA1.jpg","null","",NA,NA,NA,NA,""
"image-keyboard-response",334,314108,"0.0-3.107-2.107","s2yc7akxjlu37um",542,"125.csv","","null","resources/images/fishbone.png","null","",NA,NA,NA,NA,""
"image-keyboard-response",335,316293,"0.0-3.108-0.108","s2yc7akxjlu37um",542,"125.csv","","2183","resources/trios/L2T4A3.jpg","38","restless",0.4,0.5,0.7,0.574007943327223,"false"
"image-keyboard-response",336,316696,"0.0-3.108-1.108","s2yc7akxjlu37um",542,"125.csv","","null","resources/maskTrios/BT4B.jpg","null","",NA,NA,NA,NA,""
"image-keyboard-response",337,317899,"0.0-3.108-2.108","s2yc7akxjlu37um",542,"125.csv","","null","resources/images/fishbone.png","null","",NA,NA,NA,NA,""
"image-keyboard-response",338,319544,"0.0-3.109-0.109","s2yc7akxjlu37um",542,"125.csv","","1643","resources/trios/L2T2A1.jpg","39","restless",0.5,0.5,0.7,0.757705269147321,"false"
"image-keyboard-response",339,319946,"0.0-3.109-1.109","s2yc7akxjlu37um",542,"125.csv","","null","resources/maskTrios/BBA1.jpg","null","",NA,NA,NA,NA,""
"image-keyboard-response",340,321148,"0.0-3.109-2.109","s2yc7akxjlu37um",542,"125.csv","","null","resources/images/fishbone.png","null","",NA,NA,NA,NA,""
"image-keyboard-response",341,322511,"0.0-3.110-0.110","s2yc7akxjlu37um",542,"125.csv","","1361","resources/trios/L2T2A1.jpg","38","restless",0.5,0.5,0.6,0.38957264669735,"true"
"image-keyboard-response",342,322913,"0.0-3.110-1.110","s2yc7akxjlu37um",542,"125.csv","","null","resources/maskTrios/BT2B.jpg","null","",NA,NA,NA,NA,""
"image-keyboard-response",343,324115,"0.0-3.110-2.110","s2yc7akxjlu37um",542,"125.csv","","null","resources/images/coin2.png","null","",NA,NA,NA,NA,""
"image-keyboard-response",344,327442,"0.0-3.111-0.111","s2yc7akxjlu37um",542,"125.csv","","3325","resources/trios/L1T2A1.jpg","39","restless",0.5,0.6,0.6,0.855376323500726,"false"
"image-keyboard-response",345,327844,"0.0-3.111-1.111","s2yc7akxjlu37um",542,"125.csv","","null","resources/maskTrios/BBA1.jpg","null","",NA,NA,NA,NA,""
"image-keyboard-response",346,329046,"0.0-3.111-2.111","s2yc7akxjlu37um",542,"125.csv","","null","resources/images/fishbone.png","null","",NA,NA,NA,NA,""
"image-keyboard-response",347,330445,"0.0-3.112-0.112","s2yc7akxjlu37um",542,"125.csv","","1397.0000000000582","resources/trios/L1T4A1.jpg","39","restless",0.5,0.6,0.6,0.90161221586662,"false"
"image-keyboard-response",348,330847,"0.0-3.112-1.112","s2yc7akxjlu37um",542,"125.csv","","null","resources/maskTrios/BBA1.jpg","null","",NA,NA,NA,NA,""
"image-keyboard-response",349,332050,"0.0-3.112-2.112","s2yc7akxjlu37um",542,"125.csv","","null","resources/images/fishbone.png","null","",NA,NA,NA,NA,""
"image-keyboard-response",350,333657,"0.0-3.113-0.113","s2yc7akxjlu37um",542,"125.csv","","1606","resources/trios/L2T2A1.jpg","39","restless",0.5,0.6,0.5,0.42673417164299,"true"
"image-keyboard-response",351,334059,"0.0-3.113-1.113","s2yc7akxjlu37um",542,"125.csv","","null","resources/maskTrios/BBA1.jpg","null","",NA,NA,NA,NA,""
"image-keyboard-response",352,335261,"0.0-3.113-2.113","s2yc7akxjlu37um",542,"125.csv","","null","resources/images/coin2.png","null","",NA,NA,NA,NA,""
"image-keyboard-response",353,338481,"0.0-3.114-0.114","s2yc7akxjlu37um",542,"125.csv","","3218.000000000058","resources/trios/L2T2A3.jpg","37","restless",0.5,0.6,0.5,0.442711754283825,"true"
"image-keyboard-response",354,338884,"0.0-3.114-1.114","s2yc7akxjlu37um",542,"125.csv","","null","resources/maskTrios/L2BB.jpg","null","",NA,NA,NA,NA,""
"image-keyboard-response",355,340086,"0.0-3.114-2.114","s2yc7akxjlu37um",542,"125.csv","","null","resources/images/coin2.png","null","",NA,NA,NA,NA,""
"image-keyboard-response",356,344653,"0.0-3.115-0.115","s2yc7akxjlu37um",542,"125.csv","","4564","resources/trios/L2T4A1.jpg","39","restless",0.5,0.6,0.5,0.905277005039511,"false"
"image-keyboard-response",357,345055,"0.0-3.115-1.115","s2yc7akxjlu37um",542,"125.csv","","null","resources/maskTrios/BBA1.jpg","null","",NA,NA,NA,NA,""
"image-keyboard-response",358,346258,"0.0-3.115-2.115","s2yc7akxjlu37um",542,"125.csv","","null","resources/images/fishbone.png","null","",NA,NA,NA,NA,""
"image-keyboard-response",359,347344,"0.0-3.116-0.116","s2yc7akxjlu37um",542,"125.csv","","1085.0000000000582","resources/trios/L2T4A1.jpg","38","restless",0.5,0.6,0.5,0.100301322168404,"true"
"image-keyboard-response",360,347746,"0.0-3.116-1.116","s2yc7akxjlu37um",542,"125.csv","","null","resources/maskTrios/BT4B.jpg","null","",NA,NA,NA,NA,""
"image-keyboard-response",361,348949,"0.0-3.116-2.116","s2yc7akxjlu37um",542,"125.csv","","null","resources/images/coin2.png","null","",NA,NA,NA,NA,""
"image-keyboard-response",362,350448,"0.0-3.117-0.117","s2yc7akxjlu37um",542,"125.csv","","1497","resources/trios/L2T4A1.jpg","38","restless",0.5,0.6,0.5,0.351159854401256,"true"
"image-keyboard-response",363,350851,"0.0-3.117-1.117","s2yc7akxjlu37um",542,"125.csv","","null","resources/maskTrios/BT4B.jpg","null","",NA,NA,NA,NA,""
"image-keyboard-response",364,352053,"0.0-3.117-2.117","s2yc7akxjlu37um",542,"125.csv","","null","resources/images/coin2.png","null","",NA,NA,NA,NA,""
"image-keyboard-response",365,356509,"0.0-3.118-0.118","s2yc7akxjlu37um",542,"125.csv","","4454","resources/trios/L2T4A3.jpg","39","restless",0.5,0.6,0.5,0.0402744180517153,"true"
"image-keyboard-response",366,356911,"0.0-3.118-1.118","s2yc7akxjlu37um",542,"125.csv","","null","resources/maskTrios/BBA3.jpg","null","",NA,NA,NA,NA,""
"image-keyboard-response",367,358114,"0.0-3.118-2.118","s2yc7akxjlu37um",542,"125.csv","","null","resources/images/coin2.png","null","",NA,NA,NA,NA,""
"image-keyboard-response",368,360149,"0.0-3.119-0.119","s2yc7akxjlu37um",542,"125.csv","","2034","resources/trios/L1T4A3.jpg","38","restless",0.5,0.6,0.5,0.74144948608442,"false"
"image-keyboard-response",369,360552,"0.0-3.119-1.119","s2yc7akxjlu37um",542,"125.csv","","null","resources/maskTrios/BT4B.jpg","null","",NA,NA,NA,NA,""
"image-keyboard-response",370,361754,"0.0-3.119-2.119","s2yc7akxjlu37um",542,"125.csv","","null","resources/images/fishbone.png","null","",NA,NA,NA,NA,""
"image-keyboard-response",371,363614,"0.0-3.120-0.120","s2yc7akxjlu37um",542,"125.csv","","1857.9999999999418","resources/trios/L2T2A1.jpg","39","restless",0.5,0.6,0.5,0.934532810391933,"false"
"image-keyboard-response",372,364017,"0.0-3.120-1.120","s2yc7akxjlu37um",542,"125.csv","","null","resources/maskTrios/BBA1.jpg","null","",NA,NA,NA,NA,""
"image-keyboard-response",373,365219,"0.0-3.120-2.120","s2yc7akxjlu37um",542,"125.csv","","null","resources/images/fishbone.png","null","",NA,NA,NA,NA,""
"image-keyboard-response",374,369137,"0.0-3.121-0.121","s2yc7akxjlu37um",542,"125.csv","","3915.000000000058","resources/trios/L1T4A1.jpg","39","restless",0.5,0.6,0.5,0.540139091962442,"false"
"image-keyboard-response",375,369539,"0.0-3.121-1.121","s2yc7akxjlu37um",542,"125.csv","","null","resources/maskTrios/BBA1.jpg","null","",NA,NA,NA,NA,""
"image-keyboard-response",376,370742,"0.0-3.121-2.121","s2yc7akxjlu37um",542,"125.csv","","null","resources/images/fishbone.png","null","",NA,NA,NA,NA,""
"image-keyboard-response",377,371715,"0.0-3.122-0.122","s2yc7akxjlu37um",542,"125.csv","","972","resources/trios/L2T4A3.jpg","39","restless",0.5,0.5,0.4,0.45614891455106,"false"
"image-keyboard-response",378,372116,"0.0-3.122-1.122","s2yc7akxjlu37um",542,"125.csv","","null","resources/maskTrios/BBA3.jpg","null","",NA,NA,NA,NA,""
"image-keyboard-response",379,373317,"0.0-3.122-2.122","s2yc7akxjlu37um",542,"125.csv","","null","resources/images/fishbone.png","null","",NA,NA,NA,NA,""
"image-keyboard-response",380,376279,"0.0-3.123-0.123","s2yc7akxjlu37um",542,"125.csv","","2960","resources/trios/L1T4A3.jpg","37","restless",0.5,0.5,0.5,0.293845736095667,"true"
"image-keyboard-response",381,376681,"0.0-3.123-1.123","s2yc7akxjlu37um",542,"125.csv","","null","resources/maskTrios/L1BB.jpg","null","",NA,NA,NA,NA,""
"image-keyboard-response",382,377883,"0.0-3.123-2.123","s2yc7akxjlu37um",542,"125.csv","","null","resources/images/coin2.png","null","",NA,NA,NA,NA,""
"image-keyboard-response",383,379002,"0.0-3.124-0.124","s2yc7akxjlu37um",542,"125.csv","","1117","resources/trios/L2T4A1.jpg","39","restless",0.5,0.5,0.5,0.799831706920965,"false"
"image-keyboard-response",384,379404,"0.0-3.124-1.124","s2yc7akxjlu37um",542,"125.csv","","null","resources/maskTrios/BBA1.jpg","null","",NA,NA,NA,NA,""
"image-keyboard-response",385,380607,"0.0-3.124-2.124","s2yc7akxjlu37um",542,"125.csv","","null","resources/images/fishbone.png","null","",NA,NA,NA,NA,""
"image-keyboard-response",386,384057,"0.0-3.125-0.125","s2yc7akxjlu37um",542,"125.csv","","3449","resources/trios/L1T2A1.jpg","37","restless",0.5,0.5,0.5,0.518872361306585,"false"
"image-keyboard-response",387,384460,"0.0-3.125-1.125","s2yc7akxjlu37um",542,"125.csv","","null","resources/maskTrios/L1BB.jpg","null","",NA,NA,NA,NA,""
"image-keyboard-response",388,385662,"0.0-3.125-2.125","s2yc7akxjlu37um",542,"125.csv","","null","resources/images/fishbone.png","null","",NA,NA,NA,NA,""
"image-keyboard-response",389,387304,"0.0-3.126-0.126","s2yc7akxjlu37um",542,"125.csv","","1641","resources/trios/L2T2A3.jpg","39","restless",0.5,0.5,0.5,0.00888312187153639,"true"
"image-keyboard-response",390,387707,"0.0-3.126-1.126","s2yc7akxjlu37um",542,"125.csv","","null","resources/maskTrios/BBA3.jpg","null","",NA,NA,NA,NA,""
"image-keyboard-response",391,388909,"0.0-3.126-2.126","s2yc7akxjlu37um",542,"125.csv","","null","resources/images/coin2.png","null","",NA,NA,NA,NA,""
"image-keyboard-response",392,389560,"0.0-3.127-0.127","s2yc7akxjlu37um",542,"125.csv","","649","resources/trios/L2T2A3.jpg","39","restless",0.5,0.5,0.5,0.497867977133829,"true"
"image-keyboard-response",393,389962,"0.0-3.127-1.127","s2yc7akxjlu37um",542,"125.csv","","null","resources/maskTrios/BBA3.jpg","null","",NA,NA,NA,NA,""
"image-keyboard-response",394,391164,"0.0-3.127-2.127","s2yc7akxjlu37um",542,"125.csv","","null","resources/images/coin2.png","null","",NA,NA,NA,NA,""
"image-keyboard-response",395,392612,"0.0-3.128-0.128","s2yc7akxjlu37um",542,"125.csv","","1447.0000000000582","resources/trios/L1T4A1.jpg","37","restless",0.5,0.5,0.5,0.296444933604951,"true"
"image-keyboard-response",396,393015,"0.0-3.128-1.128","s2yc7akxjlu37um",542,"125.csv","","null","resources/maskTrios/L1BB.jpg","null","",NA,NA,NA,NA,""
"image-keyboard-response",397,394217,"0.0-3.128-2.128","s2yc7akxjlu37um",542,"125.csv","","null","resources/images/coin2.png","null","",NA,NA,NA,NA,""
"image-keyboard-response",398,395104,"0.0-3.129-0.129","s2yc7akxjlu37um",542,"125.csv","","885","resources/trios/L1T2A3.jpg","39","restless",0.5,0.5,0.5,0.29070516768595,"true"
"image-keyboard-response",399,395506,"0.0-3.129-1.129","s2yc7akxjlu37um",542,"125.csv","","null","resources/maskTrios/BBA3.jpg","null","",NA,NA,NA,NA,""
"image-keyboard-response",400,396709,"0.0-3.129-2.129","s2yc7akxjlu37um",542,"125.csv","","null","resources/images/coin2.png","null","",NA,NA,NA,NA,""
"image-keyboard-response",401,397485,"0.0-3.130-0.130","s2yc7akxjlu37um",542,"125.csv","","775","resources/trios/L2T4A3.jpg","39","restless",0.5,0.5,0.5,0.630518166905703,"false"
"image-keyboard-response",402,397888,"0.0-3.130-1.130","s2yc7akxjlu37um",542,"125.csv","","null","resources/maskTrios/BBA3.jpg","null","",NA,NA,NA,NA,""
"image-keyboard-response",403,399090,"0.0-3.130-2.130","s2yc7akxjlu37um",542,"125.csv","","null","resources/images/fishbone.png","null","",NA,NA,NA,NA,""
"image-keyboard-response",404,400544,"0.0-3.131-0.131","s2yc7akxjlu37um",542,"125.csv","","1453","resources/trios/L2T4A3.jpg","39","restless",0.5,0.6,0.5,0.40021933010683,"true"
"image-keyboard-response",405,400946,"0.0-3.131-1.131","s2yc7akxjlu37um",542,"125.csv","","null","resources/maskTrios/BBA3.jpg","null","",NA,NA,NA,NA,""
"image-keyboard-response",406,402149,"0.0-3.131-2.131","s2yc7akxjlu37um",542,"125.csv","","null","resources/images/coin2.png","null","",NA,NA,NA,NA,""
"image-keyboard-response",407,403334,"0.0-3.132-0.132","s2yc7akxjlu37um",542,"125.csv","","1184.0000000000582","resources/trios/L1T4A1.jpg","37","restless",0.4,0.6,0.5,0.249691954194034,"true"
"image-keyboard-response",408,403735,"0.0-3.132-1.132","s2yc7akxjlu37um",542,"125.csv","","null","resources/maskTrios/L1BB.jpg","null","",NA,NA,NA,NA,""
"image-keyboard-response",409,404937,"0.0-3.132-2.132","s2yc7akxjlu37um",542,"125.csv","","null","resources/images/coin2.png","null","",NA,NA,NA,NA,""
"image-keyboard-response",410,406298,"0.0-3.133-0.133","s2yc7akxjlu37um",542,"125.csv","","1359","resources/trios/L1T2A3.jpg","39","restless",0.4,0.6,0.5,0.704567134230811,"false"
"image-keyboard-response",411,406700,"0.0-3.133-1.133","s2yc7akxjlu37um",542,"125.csv","","null","resources/maskTrios/BBA3.jpg","null","",NA,NA,NA,NA,""
"image-keyboard-response",412,407902,"0.0-3.133-2.133","s2yc7akxjlu37um",542,"125.csv","","null","resources/images/fishbone.png","null","",NA,NA,NA,NA,""
"image-keyboard-response",413,410234,"0.0-3.134-0.134","s2yc7akxjlu37um",542,"125.csv","","2330","resources/trios/L1T4A1.jpg","37","restless",0.4,0.6,0.5,0.987950090821221,"false"
"image-keyboard-response",414,410637,"0.0-3.134-1.134","s2yc7akxjlu37um",542,"125.csv","","null","resources/maskTrios/L1BB.jpg","null","",NA,NA,NA,NA,""
"image-keyboard-response",415,411838,"0.0-3.134-2.134","s2yc7akxjlu37um",542,"125.csv","","null","resources/images/fishbone.png","null","",NA,NA,NA,NA,""
"image-keyboard-response",416,412520,"0.0-3.135-0.135","s2yc7akxjlu37um",542,"125.csv","","679.0000000000582","resources/trios/L1T2A1.jpg","38","restless",0.4,0.6,0.5,0.416394956609325,"true"
"image-keyboard-response",417,412921,"0.0-3.135-1.135","s2yc7akxjlu37um",542,"125.csv","","null","resources/maskTrios/BT2B.jpg","null","",NA,NA,NA,NA,""
"image-keyboard-response",418,414123,"0.0-3.135-2.135","s2yc7akxjlu37um",542,"125.csv","","null","resources/images/coin2.png","null","",NA,NA,NA,NA,""
"image-keyboard-response",419,416176,"0.0-3.136-0.136","s2yc7akxjlu37um",542,"125.csv","","2052","resources/trios/L1T2A1.jpg","37","restless",0.3,0.6,0.5,0.905053439802474,"false"
"image-keyboard-response",420,416579,"0.0-3.136-1.136","s2yc7akxjlu37um",542,"125.csv","","null","resources/maskTrios/L1BB.jpg","null","",NA,NA,NA,NA,""
"image-keyboard-response",421,417781,"0.0-3.136-2.136","s2yc7akxjlu37um",542,"125.csv","","null","resources/images/fishbone.png","null","",NA,NA,NA,NA,""
"image-keyboard-response",422,419168,"0.0-3.137-0.137","s2yc7akxjlu37um",542,"125.csv","","1385","resources/trios/L1T2A1.jpg","38","restless",0.3,0.6,0.5,0.00758795372774401,"true"
"image-keyboard-response",423,419570,"0.0-3.137-1.137","s2yc7akxjlu37um",542,"125.csv","","null","resources/maskTrios/BT2B.jpg","null","",NA,NA,NA,NA,""
"image-keyboard-response",424,420771,"0.0-3.137-2.137","s2yc7akxjlu37um",542,"125.csv","","null","resources/images/coin2.png","null","",NA,NA,NA,NA,""
"image-keyboard-response",425,421812,"0.0-3.138-0.138","s2yc7akxjlu37um",542,"125.csv","","1039","resources/trios/L2T2A3.jpg","39","restless",0.3,0.6,0.5,0.786742201900704,"false"
"image-keyboard-response",426,422215,"0.0-3.138-1.138","s2yc7akxjlu37um",542,"125.csv","","null","resources/maskTrios/BBA3.jpg","null","",NA,NA,NA,NA,""
"image-keyboard-response",427,423417,"0.0-3.138-2.138","s2yc7akxjlu37um",542,"125.csv","","null","resources/images/fishbone.png","null","",NA,NA,NA,NA,""
"image-keyboard-response",428,425387,"0.0-3.139-0.139","s2yc7akxjlu37um",542,"125.csv","","1969","resources/trios/L2T4A1.jpg","39","restless",0.2,0.6,0.5,0.475126213105417,"true"
"image-keyboard-response",429,425789,"0.0-3.139-1.139","s2yc7akxjlu37um",542,"125.csv","","null","resources/maskTrios/BBA1.jpg","null","",NA,NA,NA,NA,""
"image-keyboard-response",430,426992,"0.0-3.139-2.139","s2yc7akxjlu37um",542,"125.csv","","null","resources/images/coin2.png","null","",NA,NA,NA,NA,""
"image-keyboard-response",431,428956,"0.0-3.140-0.140","s2yc7akxjlu37um",542,"125.csv","","1963","resources/trios/L2T2A3.jpg","39","restless",0.2,0.6,0.5,0.756851811156666,"false"
"image-keyboard-response",432,429361,"0.0-3.140-1.140","s2yc7akxjlu37um",542,"125.csv","","null","resources/maskTrios/BBA3.jpg","null","",NA,NA,NA,NA,""
"image-keyboard-response",433,430563,"0.0-3.140-2.140","s2yc7akxjlu37um",542,"125.csv","","null","resources/images/fishbone.png","null","",NA,NA,NA,NA,""
"image-keyboard-response",434,431404,"0.0-3.141-0.141","s2yc7akxjlu37um",542,"125.csv","","839","resources/trios/L1T2A1.jpg","38","restless",0.1,0.6,0.5,0.959985903376775,"false"
"image-keyboard-response",435,431807,"0.0-3.141-1.141","s2yc7akxjlu37um",542,"125.csv","","null","resources/maskTrios/BT2B.jpg","null","",NA,NA,NA,NA,""
"image-keyboard-response",436,433009,"0.0-3.141-2.141","s2yc7akxjlu37um",542,"125.csv","","null","resources/images/fishbone.png","null","",NA,NA,NA,NA,""
"image-keyboard-response",437,434313,"0.0-3.142-0.142","s2yc7akxjlu37um",542,"125.csv","","1303","resources/trios/L1T2A1.jpg","37","restless",0.1,0.6,0.4,0.895447222010102,"false"
"image-keyboard-response",438,434715,"0.0-3.142-1.142","s2yc7akxjlu37um",542,"125.csv","","null","resources/maskTrios/L1BB.jpg","null","",NA,NA,NA,NA,""
"image-keyboard-response",439,435918,"0.0-3.142-2.142","s2yc7akxjlu37um",542,"125.csv","","null","resources/images/fishbone.png","null","",NA,NA,NA,NA,""
"image-keyboard-response",440,436878,"0.0-3.143-0.143","s2yc7akxjlu37um",542,"125.csv","","958.9999999999418","resources/trios/L1T2A1.jpg","38","restless",0.1,0.6,0.4,0.761085233323633,"false"
"image-keyboard-response",441,437280,"0.0-3.143-1.143","s2yc7akxjlu37um",542,"125.csv","","null","resources/maskTrios/BT2B.jpg","null","",NA,NA,NA,NA,""
"image-keyboard-response",442,438482,"0.0-3.143-2.143","s2yc7akxjlu37um",542,"125.csv","","null","resources/images/fishbone.png","null","",NA,NA,NA,NA,""
"image-keyboard-response",443,439466,"0.0-3.144-0.144","s2yc7akxjlu37um",542,"125.csv","","979","resources/trios/L1T4A1.jpg","37","restless",0.1,0.6,0.4,0.211724616386755,"false"
"image-keyboard-response",444,439869,"0.0-3.144-1.144","s2yc7akxjlu37um",542,"125.csv","","null","resources/maskTrios/L1BB.jpg","null","",NA,NA,NA,NA,""
"image-keyboard-response",445,441071,"0.0-3.144-2.144","s2yc7akxjlu37um",542,"125.csv","","null","resources/images/fishbone.png","null","",NA,NA,NA,NA,""
"image-keyboard-response",446,441832,"0.0-3.145-0.145","s2yc7akxjlu37um",542,"125.csv","","759","resources/trios/L1T2A3.jpg","39","restless",0.1,0.6,0.4,0.316922053211702,"true"
"image-keyboard-response",447,442234,"0.0-3.145-1.145","s2yc7akxjlu37um",542,"125.csv","","null","resources/maskTrios/BBA3.jpg","null","",NA,NA,NA,NA,""
"image-keyboard-response",448,443435,"0.0-3.145-2.145","s2yc7akxjlu37um",542,"125.csv","","null","resources/images/coin2.png","null","",NA,NA,NA,NA,""
"image-keyboard-response",449,444873,"0.0-3.146-0.146","s2yc7akxjlu37um",542,"125.csv","","1435.9999999999418","resources/trios/L2T2A1.jpg","38","restless",0.1,0.6,0.4,0.721155822903792,"false"
"image-keyboard-response",450,445275,"0.0-3.146-1.146","s2yc7akxjlu37um",542,"125.csv","","null","resources/maskTrios/BT2B.jpg","null","",NA,NA,NA,NA,""
"image-keyboard-response",451,446479,"0.0-3.146-2.146","s2yc7akxjlu37um",542,"125.csv","","null","resources/images/fishbone.png","null","",NA,NA,NA,NA,""
"image-keyboard-response",452,447089,"0.0-3.147-0.147","s2yc7akxjlu37um",542,"125.csv","","608","resources/trios/L1T2A3.jpg","39","restless",0.1,0.6,0.4,0.829208298421365,"false"
"image-keyboard-response",453,447491,"0.0-3.147-1.147","s2yc7akxjlu37um",542,"125.csv","","null","resources/maskTrios/BBA3.jpg","null","",NA,NA,NA,NA,""
"image-keyboard-response",454,448693,"0.0-3.147-2.147","s2yc7akxjlu37um",542,"125.csv","","null","resources/images/fishbone.png","null","",NA,NA,NA,NA,""
"image-keyboard-response",455,449466,"0.0-3.148-0.148","s2yc7akxjlu37um",542,"125.csv","","766.9999999999418","resources/trios/L1T2A3.jpg","38","restless",0.1,0.6,0.5,0.845431395218812,"false"
"image-keyboard-response",456,449868,"0.0-3.148-1.148","s2yc7akxjlu37um",542,"125.csv","","null","resources/maskTrios/BT2B.jpg","null","",NA,NA,NA,NA,""
"image-keyboard-response",457,451071,"0.0-3.148-2.148","s2yc7akxjlu37um",542,"125.csv","","null","resources/images/fishbone.png","null","",NA,NA,NA,NA,""
"image-keyboard-response",458,451382,"0.0-3.149-0.149","s2yc7akxjlu37um",542,"125.csv","","310","resources/trios/L2T4A1.jpg","37","restless",0.1,0.6,0.4,0.826998680631248,"false"
"image-keyboard-response",459,451784,"0.0-3.149-1.149","s2yc7akxjlu37um",542,"125.csv","","null","resources/maskTrios/L2BB.jpg","null","",NA,NA,NA,NA,""
"image-keyboard-response",460,452986,"0.0-3.149-2.149","s2yc7akxjlu37um",542,"125.csv","","null","resources/images/fishbone.png","null","",NA,NA,NA,NA,""
"image-keyboard-response",461,453278,"0.0-3.150-0.150","s2yc7akxjlu37um",542,"125.csv","","291","resources/trios/L1T4A1.jpg","37","restless",0.1,0.6,0.4,0.858885776898922,"false"
"image-keyboard-response",462,453681,"0.0-3.150-1.150","s2yc7akxjlu37um",542,"125.csv","","null","resources/maskTrios/L1BB.jpg","null","",NA,NA,NA,NA,""
"image-keyboard-response",463,454883,"0.0-3.150-2.150","s2yc7akxjlu37um",542,"125.csv","","null","resources/images/fishbone.png","null","",NA,NA,NA,NA,""
"image-keyboard-response",464,455267,"0.0-3.151-0.151","s2yc7akxjlu37um",542,"125.csv","","383","resources/trios/L1T4A3.jpg","37","restless",0.1,0.6,0.4,0.817481905845874,"false"
"image-keyboard-response",465,455670,"0.0-3.151-1.151","s2yc7akxjlu37um",542,"125.csv","","null","resources/maskTrios/L1BB.jpg","null","",NA,NA,NA,NA,""
"image-keyboard-response",466,456872,"0.0-3.151-2.151","s2yc7akxjlu37um",542,"125.csv","","null","resources/images/fishbone.png","null","",NA,NA,NA,NA,""
"image-keyboard-response",467,458397,"0.0-3.152-0.152","s2yc7akxjlu37um",542,"125.csv","","1524","resources/trios/L2T4A1.jpg","38","restless",0.1,0.7,0.4,0.869772094692317,"false"
"image-keyboard-response",468,458800,"0.0-3.152-1.152","s2yc7akxjlu37um",542,"125.csv","","null","resources/maskTrios/BT4B.jpg","null","",NA,NA,NA,NA,""
"image-keyboard-response",469,460002,"0.0-3.152-2.152","s2yc7akxjlu37um",542,"125.csv","","null","resources/images/fishbone.png","null","",NA,NA,NA,NA,""
"image-keyboard-response",470,460897,"0.0-3.153-0.153","s2yc7akxjlu37um",542,"125.csv","","895","resources/trios/L1T4A3.jpg","39","restless",0.1,0.7,0.4,0.0133307985580886,"true"
"image-keyboard-response",471,461300,"0.0-3.153-1.153","s2yc7akxjlu37um",542,"125.csv","","null","resources/maskTrios/BBA3.jpg","null","",NA,NA,NA,NA,""
"image-keyboard-response",472,462503,"0.0-3.153-2.153","s2yc7akxjlu37um",542,"125.csv","","null","resources/images/coin2.png","null","",NA,NA,NA,NA,""
"image-keyboard-response",473,464765,"0.0-3.154-0.154","s2yc7akxjlu37um",542,"125.csv","","2259","resources/trios/L2T4A3.jpg","39","restless",0.1,0.7,0.4,0.422190384138364,"false"
"image-keyboard-response",474,465168,"0.0-3.154-1.154","s2yc7akxjlu37um",542,"125.csv","","null","resources/maskTrios/BBA3.jpg","null","",NA,NA,NA,NA,""
"image-keyboard-response",475,466370,"0.0-3.154-2.154","s2yc7akxjlu37um",542,"125.csv","","null","resources/images/fishbone.png","null","",NA,NA,NA,NA,""
"image-keyboard-response",476,466740,"0.0-3.155-0.155","s2yc7akxjlu37um",542,"125.csv","","369.0000000000582","resources/trios/L2T4A3.jpg","38","restless",0.1,0.8,0.4,0.0657144559325095,"true"
"image-keyboard-response",477,467142,"0.0-3.155-1.155","s2yc7akxjlu37um",542,"125.csv","","null","resources/maskTrios/BT4B.jpg","null","",NA,NA,NA,NA,""
"image-keyboard-response",478,468344,"0.0-3.155-2.155","s2yc7akxjlu37um",542,"125.csv","","null","resources/images/coin2.png","null","",NA,NA,NA,NA,""
"image-keyboard-response",479,470963,"0.0-3.156-0.156","s2yc7akxjlu37um",542,"125.csv","","2617","resources/trios/L1T2A3.jpg","39","restless",0.1,0.8,0.4,0.0735926949523377,"true"
"image-keyboard-response",480,471366,"0.0-3.156-1.156","s2yc7akxjlu37um",542,"125.csv","","null","resources/maskTrios/BBA3.jpg","null","",NA,NA,NA,NA,""
"image-keyboard-response",481,472567,"0.0-3.156-2.156","s2yc7akxjlu37um",542,"125.csv","","null","resources/images/coin2.png","null","",NA,NA,NA,NA,""
"image-keyboard-response",482,473588,"0.0-3.157-0.157","s2yc7akxjlu37um",542,"125.csv","","1019","resources/trios/L1T4A3.jpg","39","restless",0.1,0.7,0.4,0.551071043121162,"false"
"image-keyboard-response",483,473993,"0.0-3.157-1.157","s2yc7akxjlu37um",542,"125.csv","","null","resources/maskTrios/BBA3.jpg","null","",NA,NA,NA,NA,""
"image-keyboard-response",484,475195,"0.0-3.157-2.157","s2yc7akxjlu37um",542,"125.csv","","null","resources/images/fishbone.png","null","",NA,NA,NA,NA,""
"image-keyboard-response",485,475592,"0.0-3.158-0.158","s2yc7akxjlu37um",542,"125.csv","","396","resources/trios/L2T2A3.jpg","38","restless",0.1,0.7,0.4,0.888610247589644,"false"
"image-keyboard-response",486,475994,"0.0-3.158-1.158","s2yc7akxjlu37um",542,"125.csv","","null","resources/maskTrios/BT2B.jpg","null","",NA,NA,NA,NA,""
"image-keyboard-response",487,477196,"0.0-3.158-2.158","s2yc7akxjlu37um",542,"125.csv","","null","resources/images/fishbone.png","null","",NA,NA,NA,NA,""
"image-keyboard-response",488,477435,"0.0-3.159-0.159","s2yc7akxjlu37um",542,"125.csv","","239","resources/trios/L2T2A3.jpg","37","restless",0.1,0.7,0.4,0.0143869557987281,"true"
"image-keyboard-response",489,477837,"0.0-3.159-1.159","s2yc7akxjlu37um",542,"125.csv","","null","resources/maskTrios/L2BB.jpg","null","",NA,NA,NA,NA,""
"image-keyboard-response",490,479040,"0.0-3.159-2.159","s2yc7akxjlu37um",542,"125.csv","","null","resources/images/coin2.png","null","",NA,NA,NA,NA,""
"image-keyboard-response",491,479676,"0.0-3.160-0.160","s2yc7akxjlu37um",542,"125.csv","","634.0000000000582","resources/trios/L1T2A3.jpg","38","restless",0.1,0.7,0.4,0.157486159697445,"true"
"image-keyboard-response",492,480078,"0.0-3.160-1.160","s2yc7akxjlu37um",542,"125.csv","","null","resources/maskTrios/BT2B.jpg","null","",NA,NA,NA,NA,""
"image-keyboard-response",493,481281,"0.0-3.160-2.160","s2yc7akxjlu37um",542,"125.csv","","null","resources/images/coin2.png","null","",NA,NA,NA,NA,""
"image-keyboard-response",494,482824,"0.0-3.161-0.161","s2yc7akxjlu37um",542,"125.csv","","1541","resources/trios/L1T2A1.jpg","37","restless",0.1,0.7,0.4,0.0182790174309829,"true"
"image-keyboard-response",495,483226,"0.0-3.161-1.161","s2yc7akxjlu37um",542,"125.csv","","null","resources/maskTrios/L1BB.jpg","null","",NA,NA,NA,NA,""
"image-keyboard-response",496,484429,"0.0-3.161-2.161","s2yc7akxjlu37um",542,"125.csv","","null","resources/images/coin2.png","null","",NA,NA,NA,NA,""
"image-keyboard-response",497,485286,"0.0-3.162-0.162","s2yc7akxjlu37um",542,"125.csv","","855","resources/trios/L1T4A3.jpg","39","restless",0.1,0.7,0.4,0.375144623819819,"true"
"image-keyboard-response",498,485689,"0.0-3.162-1.162","s2yc7akxjlu37um",542,"125.csv","","null","resources/maskTrios/BBA3.jpg","null","",NA,NA,NA,NA,""
"image-keyboard-response",499,486891,"0.0-3.162-2.162","s2yc7akxjlu37um",542,"125.csv","","null","resources/images/coin2.png","null","",NA,NA,NA,NA,""
"image-keyboard-response",500,487200,"0.0-3.163-0.163","s2yc7akxjlu37um",542,"125.csv","","307.0000000000582","resources/trios/L2T2A3.jpg","38","restless",0.1,0.7,0.4,0.145890591636966,"true"
"image-keyboard-response",501,487601,"0.0-3.163-1.163","s2yc7akxjlu37um",542,"125.csv","","null","resources/maskTrios/BT2B.jpg","null","",NA,NA,NA,NA,""
"image-keyboard-response",502,488803,"0.0-3.163-2.163","s2yc7akxjlu37um",542,"125.csv","","null","resources/images/coin2.png","null","",NA,NA,NA,NA,""
"image-keyboard-response",503,489105,"0.0-3.164-0.164","s2yc7akxjlu37um",542,"125.csv","","299","resources/trios/L2T4A3.jpg","37","restless",0.1,0.7,0.4,0.651615359090071,"false"
"image-keyboard-response",504,489508,"0.0-3.164-1.164","s2yc7akxjlu37um",542,"125.csv","","null","resources/maskTrios/L2BB.jpg","null","",NA,NA,NA,NA,""
"image-keyboard-response",505,490710,"0.0-3.164-2.164","s2yc7akxjlu37um",542,"125.csv","","null","resources/images/fishbone.png","null","",NA,NA,NA,NA,""
"image-keyboard-response",506,490999,"0.0-3.165-0.165","s2yc7akxjlu37um",542,"125.csv","","288","resources/trios/L1T2A1.jpg","39","restless",0.2,0.7,0.5,0.910056219361057,"false"
"image-keyboard-response",507,491401,"0.0-3.165-1.165","s2yc7akxjlu37um",542,"125.csv","","null","resources/maskTrios/BBA1.jpg","null","",NA,NA,NA,NA,""
"image-keyboard-response",508,492603,"0.0-3.165-2.165","s2yc7akxjlu37um",542,"125.csv","","null","resources/images/fishbone.png","null","",NA,NA,NA,NA,""
"image-keyboard-response",509,492700,"0.0-3.166-0.166","s2yc7akxjlu37um",542,"125.csv","","96.00000000005821","resources/trios/L2T4A3.jpg","38","restless",0.2,0.7,0.5,0.46489579025684,"true"
"image-keyboard-response",510,493102,"0.0-3.166-1.166","s2yc7akxjlu37um",542,"125.csv","","null","resources/maskTrios/BT4B.jpg","null","",NA,NA,NA,NA,""
"image-keyboard-response",511,494304,"0.0-3.166-2.166","s2yc7akxjlu37um",542,"125.csv","","null","resources/images/coin2.png","null","",NA,NA,NA,NA,""
"image-keyboard-response",512,494586,"0.0-3.167-0.167","s2yc7akxjlu37um",542,"125.csv","","280","resources/trios/L2T2A3.jpg","39","restless",0.2,0.7,0.5,0.649456695543811,"false"
"image-keyboard-response",513,494988,"0.0-3.167-1.167","s2yc7akxjlu37um",542,"125.csv","","null","resources/maskTrios/BBA3.jpg","null","",NA,NA,NA,NA,""
"image-keyboard-response",514,496190,"0.0-3.167-2.167","s2yc7akxjlu37um",542,"125.csv","","null","resources/images/fishbone.png","null","",NA,NA,NA,NA,""
"image-keyboard-response",515,496510,"0.0-3.168-0.168","s2yc7akxjlu37um",542,"125.csv","","318.0000000000582","resources/trios/L2T4A3.jpg","38","restless",0.2,0.7,0.5,0.573403072424084,"true"
"image-keyboard-response",516,496912,"0.0-3.168-1.168","s2yc7akxjlu37um",542,"125.csv","","null","resources/maskTrios/BT4B.jpg","null","",NA,NA,NA,NA,""
"image-keyboard-response",517,498115,"0.0-3.168-2.168","s2yc7akxjlu37um",542,"125.csv","","null","resources/images/coin2.png","null","",NA,NA,NA,NA,""
"image-keyboard-response",518,498418,"0.0-3.169-0.169","s2yc7akxjlu37um",542,"125.csv","","301.9999999999418","resources/trios/L1T2A3.jpg","37","restless",0.2,0.7,0.5,0.0413477956577704,"true"
"image-keyboard-response",519,498821,"0.0-3.169-1.169","s2yc7akxjlu37um",542,"125.csv","","null","resources/maskTrios/L1BB.jpg","null","",NA,NA,NA,NA,""
"image-keyboard-response",520,500023,"0.0-3.169-2.169","s2yc7akxjlu37um",542,"125.csv","","null","resources/images/coin2.png","null","",NA,NA,NA,NA,""
"image-keyboard-response",521,500536,"0.0-3.170-0.170","s2yc7akxjlu37um",542,"125.csv","","510","resources/trios/L1T4A3.jpg","39","restless",0.2,0.7,0.5,0.739628912994612,"false"
"image-keyboard-response",522,500939,"0.0-3.170-1.170","s2yc7akxjlu37um",542,"125.csv","","null","resources/maskTrios/BBA3.jpg","null","",NA,NA,NA,NA,""
"image-keyboard-response",523,502141,"0.0-3.170-2.170","s2yc7akxjlu37um",542,"125.csv","","null","resources/images/fishbone.png","null","",NA,NA,NA,NA,""
"image-keyboard-response",524,502565,"0.0-3.171-0.171","s2yc7akxjlu37um",542,"125.csv","","423","resources/trios/L1T2A3.jpg","37","restless",0.2,0.7,0.5,0.283779492187993,"false"
"image-keyboard-response",525,502967,"0.0-3.171-1.171","s2yc7akxjlu37um",542,"125.csv","","null","resources/maskTrios/L1BB.jpg","null","",NA,NA,NA,NA,""
"image-keyboard-response",526,504170,"0.0-3.171-2.171","s2yc7akxjlu37um",542,"125.csv","","null","resources/images/fishbone.png","null","",NA,NA,NA,NA,""
"image-keyboard-response",527,504479,"0.0-3.172-0.172","s2yc7akxjlu37um",542,"125.csv","","307.9999999999418","resources/trios/L1T4A1.jpg","38","restless",0.2,0.7,0.5,0.261373285711674,"true"
"image-keyboard-response",528,504882,"0.0-3.172-1.172","s2yc7akxjlu37um",542,"125.csv","","null","resources/maskTrios/BT4B.jpg","null","",NA,NA,NA,NA,""
"image-keyboard-response",529,506085,"0.0-3.172-2.172","s2yc7akxjlu37um",542,"125.csv","","null","resources/images/coin2.png","null","",NA,NA,NA,NA,""
"image-keyboard-response",530,506382,"0.0-3.173-0.173","s2yc7akxjlu37um",542,"125.csv","","296","resources/trios/L1T4A3.jpg","38","restless",0.2,0.7,0.5,0.524693372656398,"true"
"image-keyboard-response",531,506784,"0.0-3.173-1.173","s2yc7akxjlu37um",542,"125.csv","","null","resources/maskTrios/BT4B.jpg","null","",NA,NA,NA,NA,""
"image-keyboard-response",532,507986,"0.0-3.173-2.173","s2yc7akxjlu37um",542,"125.csv","","null","resources/images/coin2.png","null","",NA,NA,NA,NA,""
"image-keyboard-response",533,508297,"0.0-3.174-0.174","s2yc7akxjlu37um",542,"125.csv","","309.9999999999418","resources/trios/L2T4A3.jpg","38","restless",0.2,0.7,0.5,0.390381221394621,"true"
"image-keyboard-response",534,508699,"0.0-3.174-1.174","s2yc7akxjlu37um",542,"125.csv","","null","resources/maskTrios/BT4B.jpg","null","",NA,NA,NA,NA,""
"image-keyboard-response",535,509902,"0.0-3.174-2.174","s2yc7akxjlu37um",542,"125.csv","","null","resources/images/coin2.png","null","",NA,NA,NA,NA,""
"image-keyboard-response",536,510205,"0.0-3.175-0.175","s2yc7akxjlu37um",542,"125.csv","","302","resources/trios/L1T2A3.jpg","38","restless",0.2,0.7,0.5,0.206559449687398,"true"
"image-keyboard-response",537,510608,"0.0-3.175-1.175","s2yc7akxjlu37um",542,"125.csv","","null","resources/maskTrios/BT2B.jpg","null","",NA,NA,NA,NA,""
"image-keyboard-response",538,511810,"0.0-3.175-2.175","s2yc7akxjlu37um",542,"125.csv","","null","resources/images/coin2.png","null","",NA,NA,NA,NA,""
"image-keyboard-response",539,512131,"0.0-3.176-0.176","s2yc7akxjlu37um",542,"125.csv","","319","resources/trios/L1T2A1.jpg","38","restless",0.2,0.7,0.6,0.104896902660682,"true"
"image-keyboard-response",540,512532,"0.0-3.176-1.176","s2yc7akxjlu37um",542,"125.csv","","null","resources/maskTrios/BT2B.jpg","null","",NA,NA,NA,NA,""
"image-keyboard-response",541,513735,"0.0-3.176-2.176","s2yc7akxjlu37um",542,"125.csv","","null","resources/images/coin2.png","null","",NA,NA,NA,NA,""
"image-keyboard-response",542,513995,"0.0-3.177-0.177","s2yc7akxjlu37um",542,"125.csv","","258","resources/trios/L1T2A1.jpg","38","restless",0.1,0.7,0.6,0.114282867203969,"true"
"image-keyboard-response",543,514396,"0.0-3.177-1.177","s2yc7akxjlu37um",542,"125.csv","","null","resources/maskTrios/BT2B.jpg","null","",NA,NA,NA,NA,""
"image-keyboard-response",544,515598,"0.0-3.177-2.177","s2yc7akxjlu37um",542,"125.csv","","null","resources/images/coin2.png","null","",NA,NA,NA,NA,""
"image-keyboard-response",545,515878,"0.0-3.178-0.178","s2yc7akxjlu37um",542,"125.csv","","278","resources/trios/L2T4A3.jpg","38","restless",0.1,0.7,0.6,0.568404460320628,"true"
"image-keyboard-response",546,516280,"0.0-3.178-1.178","s2yc7akxjlu37um",542,"125.csv","","null","resources/maskTrios/BT4B.jpg","null","",NA,NA,NA,NA,""
"image-keyboard-response",547,517483,"0.0-3.178-2.178","s2yc7akxjlu37um",542,"125.csv","","null","resources/images/coin2.png","null","",NA,NA,NA,NA,""
"image-keyboard-response",548,517733,"0.0-3.179-0.179","s2yc7akxjlu37um",542,"125.csv","","248.99999999988358","resources/trios/L1T2A3.jpg","38","restless",0.1,0.7,0.5,0.823321844450614,"false"
"image-keyboard-response",549,518136,"0.0-3.179-1.179","s2yc7akxjlu37um",542,"125.csv","","null","resources/maskTrios/BT2B.jpg","null","",NA,NA,NA,NA,""
"image-keyboard-response",550,519338,"0.0-3.179-2.179","s2yc7akxjlu37um",542,"125.csv","","null","resources/images/fishbone.png","null","",NA,NA,NA,NA,""
"image-keyboard-response",551,519893,"0.0-3.180-0.180","s2yc7akxjlu37um",542,"125.csv","","552","resources/trios/L2T4A1.jpg","39","restless",0.1,0.7,0.6,0.428947144241617,"true"
"image-keyboard-response",552,520295,"0.0-3.180-1.180","s2yc7akxjlu37um",542,"125.csv","","null","resources/maskTrios/BBA1.jpg","null","",NA,NA,NA,NA,""
"image-keyboard-response",553,521498,"0.0-3.180-2.180","s2yc7akxjlu37um",542,"125.csv","","null","resources/images/coin2.png","null","",NA,NA,NA,NA,""
"image-keyboard-response",554,521725,"0.0-3.181-0.181","s2yc7akxjlu37um",542,"125.csv","","226","resources/trios/L2T4A1.jpg","39","restless",0.1,0.7,0.6,0.0161227500364631,"true"
"image-keyboard-response",555,522127,"0.0-3.181-1.181","s2yc7akxjlu37um",542,"125.csv","","null","resources/maskTrios/BBA1.jpg","null","",NA,NA,NA,NA,""
"image-keyboard-response",556,523329,"0.0-3.181-2.181","s2yc7akxjlu37um",542,"125.csv","","null","resources/images/coin2.png","null","",NA,NA,NA,NA,""
"image-keyboard-response",557,523770,"0.0-3.182-0.182","s2yc7akxjlu37um",542,"125.csv","","440","resources/trios/L1T2A1.jpg","39","restless",0.2,0.6,0.6,0.646043058006645,"false"
"image-keyboard-response",558,524173,"0.0-3.182-1.182","s2yc7akxjlu37um",542,"125.csv","","null","resources/maskTrios/BBA1.jpg","null","",NA,NA,NA,NA,""
"image-keyboard-response",559,525375,"0.0-3.182-2.182","s2yc7akxjlu37um",542,"125.csv","","null","resources/images/fishbone.png","null","",NA,NA,NA,NA,""
"image-keyboard-response",560,525629,"0.0-3.183-0.183","s2yc7akxjlu37um",542,"125.csv","","253","resources/trios/L1T4A3.jpg","37","restless",0.2,0.6,0.6,0.598738978699925,"false"
"image-keyboard-response",561,526032,"0.0-3.183-1.183","s2yc7akxjlu37um",542,"125.csv","","null","resources/maskTrios/L1BB.jpg","null","",NA,NA,NA,NA,""
"image-keyboard-response",562,527234,"0.0-3.183-2.183","s2yc7akxjlu37um",542,"125.csv","","null","resources/images/fishbone.png","null","",NA,NA,NA,NA,""
"image-keyboard-response",563,527524,"0.0-3.184-0.184","s2yc7akxjlu37um",542,"125.csv","","285.9999999998836","resources/trios/L2T4A3.jpg","38","restless",0.2,0.6,0.6,0.601283282722525,"false"
"image-keyboard-response",564,527927,"0.0-3.184-1.184","s2yc7akxjlu37um",542,"125.csv","","null","resources/maskTrios/BT4B.jpg","null","",NA,NA,NA,NA,""
"image-keyboard-response",565,529129,"0.0-3.184-2.184","s2yc7akxjlu37um",542,"125.csv","","null","resources/images/fishbone.png","null","",NA,NA,NA,NA,""
"image-keyboard-response",566,529426,"0.0-3.185-0.185","s2yc7akxjlu37um",542,"125.csv","","295","resources/trios/L2T4A1.jpg","39","restless",0.2,0.6,0.5,0.595008281142603,"false"
"image-keyboard-response",567,529828,"0.0-3.185-1.185","s2yc7akxjlu37um",542,"125.csv","","null","resources/maskTrios/BBA1.jpg","null","",NA,NA,NA,NA,""
"image-keyboard-response",568,531030,"0.0-3.185-2.185","s2yc7akxjlu37um",542,"125.csv","","null","resources/images/fishbone.png","null","",NA,NA,NA,NA,""
"image-keyboard-response",569,531536,"0.0-3.186-0.186","s2yc7akxjlu37um",542,"125.csv","","505","resources/trios/L1T4A1.jpg","39","restless",0.3,0.6,0.5,0.592811208710002,"false"
"image-keyboard-response",570,531939,"0.0-3.186-1.186","s2yc7akxjlu37um",542,"125.csv","","null","resources/maskTrios/BBA1.jpg","null","",NA,NA,NA,NA,""
"image-keyboard-response",571,533141,"0.0-3.186-2.186","s2yc7akxjlu37um",542,"125.csv","","null","resources/images/fishbone.png","null","",NA,NA,NA,NA,""
"image-keyboard-response",572,533435,"0.0-3.187-0.187","s2yc7akxjlu37um",542,"125.csv","","292.9999999998836","resources/trios/L2T4A1.jpg","37","restless",0.3,0.6,0.5,0.680431870502205,"false"
"image-keyboard-response",573,533838,"0.0-3.187-1.187","s2yc7akxjlu37um",542,"125.csv","","null","resources/maskTrios/L2BB.jpg","null","",NA,NA,NA,NA,""
"image-keyboard-response",574,535040,"0.0-3.187-2.187","s2yc7akxjlu37um",542,"125.csv","","null","resources/images/fishbone.png","null","",NA,NA,NA,NA,""
"image-keyboard-response",575,535314,"0.0-3.188-0.188","s2yc7akxjlu37um",542,"125.csv","","272.9999999998836","resources/trios/L1T2A1.jpg","37","restless",0.4,0.7,0.4,0.982772570061021,"false"
"image-keyboard-response",576,535717,"0.0-3.188-1.188","s2yc7akxjlu37um",542,"125.csv","","null","resources/maskTrios/L1BB.jpg","null","",NA,NA,NA,NA,""
"image-keyboard-response",577,536919,"0.0-3.188-2.188","s2yc7akxjlu37um",542,"125.csv","","null","resources/images/fishbone.png","null","",NA,NA,NA,NA,""
"image-keyboard-response",578,537249,"0.0-3.189-0.189","s2yc7akxjlu37um",542,"125.csv","","329","resources/trios/L1T2A3.jpg","38","restless",0.5,0.7,0.4,0.229905160812007,"true"
"image-keyboard-response",579,537651,"0.0-3.189-1.189","s2yc7akxjlu37um",542,"125.csv","","null","resources/maskTrios/BT2B.jpg","null","",NA,NA,NA,NA,""
"image-keyboard-response",580,538854,"0.0-3.189-2.189","s2yc7akxjlu37um",542,"125.csv","","null","resources/images/coin2.png","null","",NA,NA,NA,NA,""
"image-keyboard-response",581,539139,"0.0-3.190-0.190","s2yc7akxjlu37um",542,"125.csv","","284","resources/trios/L1T4A1.jpg","38","restless",0.5,0.7,0.4,0.954015967988197,"false"
"image-keyboard-response",582,539542,"0.0-3.190-1.190","s2yc7akxjlu37um",542,"125.csv","","null","resources/maskTrios/BT4B.jpg","null","",NA,NA,NA,NA,""
"image-keyboard-response",583,540744,"0.0-3.190-2.190","s2yc7akxjlu37um",542,"125.csv","","null","resources/images/fishbone.png","null","",NA,NA,NA,NA,""
"image-keyboard-response",584,541751,"0.0-3.191-0.191","s2yc7akxjlu37um",542,"125.csv","","1005","resources/trios/L2T2A1.jpg","37","restless",0.5,0.7,0.4,0.68416418258045,"false"
"image-keyboard-response",585,542153,"0.0-3.191-1.191","s2yc7akxjlu37um",542,"125.csv","","null","resources/maskTrios/L2BB.jpg","null","",NA,NA,NA,NA,""
"image-keyboard-response",586,543355,"0.0-3.191-2.191","s2yc7akxjlu37um",542,"125.csv","","null","resources/images/fishbone.png","null","",NA,NA,NA,NA,""
"image-keyboard-response",587,543666,"0.0-3.192-0.192","s2yc7akxjlu37um",542,"125.csv","","309","resources/trios/L2T4A1.jpg","38","restless",0.5,0.8,0.4,0.164873036817744,"true"
"image-keyboard-response",588,544068,"0.0-3.192-1.192","s2yc7akxjlu37um",542,"125.csv","","null","resources/maskTrios/BT4B.jpg","null","",NA,NA,NA,NA,""
"image-keyboard-response",589,545271,"0.0-3.192-2.192","s2yc7akxjlu37um",542,"125.csv","","null","resources/images/coin2.png","null","",NA,NA,NA,NA,""
"image-keyboard-response",590,545594,"0.0-3.193-0.193","s2yc7akxjlu37um",542,"125.csv","","322","resources/trios/L2T4A1.jpg","38","restless",0.5,0.8,0.4,0.348240488736744,"true"
"image-keyboard-response",591,545997,"0.0-3.193-1.193","s2yc7akxjlu37um",542,"125.csv","","null","resources/maskTrios/BT4B.jpg","null","",NA,NA,NA,NA,""
"image-keyboard-response",592,547199,"0.0-3.193-2.193","s2yc7akxjlu37um",542,"125.csv","","null","resources/images/coin2.png","null","",NA,NA,NA,NA,""
"image-keyboard-response",593,547538,"0.0-3.194-0.194","s2yc7akxjlu37um",542,"125.csv","","337","resources/trios/L2T2A1.jpg","38","restless",0.5,0.8,0.4,0.426555243021988,"true"
"image-keyboard-response",594,547940,"0.0-3.194-1.194","s2yc7akxjlu37um",542,"125.csv","","null","resources/maskTrios/BT2B.jpg","null","",NA,NA,NA,NA,""
"image-keyboard-response",595,549142,"0.0-3.194-2.194","s2yc7akxjlu37um",542,"125.csv","","null","resources/images/coin2.png","null","",NA,NA,NA,NA,""
"image-keyboard-response",596,549570,"0.0-3.195-0.195","s2yc7akxjlu37um",542,"125.csv","","426","resources/trios/L1T4A3.jpg","38","restless",0.5,0.8,0.4,0.0379495697824324,"true"
"image-keyboard-response",597,549972,"0.0-3.195-1.195","s2yc7akxjlu37um",542,"125.csv","","null","resources/maskTrios/BT4B.jpg","null","",NA,NA,NA,NA,""
"image-keyboard-response",598,551174,"0.0-3.195-2.195","s2yc7akxjlu37um",542,"125.csv","","null","resources/images/coin2.png","null","",NA,NA,NA,NA,""
"image-keyboard-response",599,551511,"0.0-3.196-0.196","s2yc7akxjlu37um",542,"125.csv","","334","resources/trios/L1T4A1.jpg","38","restless",0.4,0.8,0.3,0.393955321837754,"true"
"image-keyboard-response",600,551914,"0.0-3.196-1.196","s2yc7akxjlu37um",542,"125.csv","","null","resources/maskTrios/BT4B.jpg","null","",NA,NA,NA,NA,""
"image-keyboard-response",601,553116,"0.0-3.196-2.196","s2yc7akxjlu37um",542,"125.csv","","null","resources/images/coin2.png","null","",NA,NA,NA,NA,""
"image-keyboard-response",602,553422,"0.0-3.197-0.197","s2yc7akxjlu37um",542,"125.csv","","304.0000000001164","resources/trios/L2T4A3.jpg","38","restless",0.4,0.8,0.3,0.159801156927819,"true"
"image-keyboard-response",603,553824,"0.0-3.197-1.197","s2yc7akxjlu37um",542,"125.csv","","null","resources/maskTrios/BT4B.jpg","null","",NA,NA,NA,NA,""
"image-keyboard-response",604,555026,"0.0-3.197-2.197","s2yc7akxjlu37um",542,"125.csv","","null","resources/images/coin2.png","null","",NA,NA,NA,NA,""
"image-keyboard-response",605,555348,"0.0-3.198-0.198","s2yc7akxjlu37um",542,"125.csv","","321","resources/trios/L2T4A1.jpg","38","restless",0.4,0.8,0.3,0.294656530450391,"true"
"image-keyboard-response",606,555751,"0.0-3.198-1.198","s2yc7akxjlu37um",542,"125.csv","","null","resources/maskTrios/BT4B.jpg","null","",NA,NA,NA,NA,""
"image-keyboard-response",607,556953,"0.0-3.198-2.198","s2yc7akxjlu37um",542,"125.csv","","null","resources/images/coin2.png","null","",NA,NA,NA,NA,""
"image-keyboard-response",608,557334,"0.0-3.199-0.199","s2yc7akxjlu37um",542,"125.csv","","380","resources/trios/L2T2A3.jpg","38","restless",0.4,0.8,0.2,0.998914839587615,"false"
"image-keyboard-response",609,557737,"0.0-3.199-1.199","s2yc7akxjlu37um",542,"125.csv","","null","resources/maskTrios/BT2B.jpg","null","",NA,NA,NA,NA,""
"image-keyboard-response",610,558939,"0.0-3.199-2.199","s2yc7akxjlu37um",542,"125.csv","","null","resources/images/fishbone.png","null","",NA,NA,NA,NA,""
"image-keyboard-response",611,559487,"0.0-3.200-0.200","s2yc7akxjlu37um",542,"125.csv","","547","resources/trios/L2T4A1.jpg","38","restless",0.4,0.8,0.2,0.0890945924559142,"true"
"image-keyboard-response",612,559890,"0.0-3.200-1.200","s2yc7akxjlu37um",542,"125.csv","","null","resources/maskTrios/BT4B.jpg","null","",NA,NA,NA,NA,""
"image-keyboard-response",613,561092,"0.0-3.200-2.200","s2yc7akxjlu37um",542,"125.csv","","null","resources/images/coin2.png","null","",NA,NA,NA,NA,""
"image-keyboard-response",614,561558,"0.0-3.201-0.201","s2yc7akxjlu37um",542,"125.csv","","465","resources/trios/L1T2A1.jpg","38","restless",0.4,0.8,0.2,0.491175408761883,"true"
"image-keyboard-response",615,561963,"0.0-3.201-1.201","s2yc7akxjlu37um",542,"125.csv","","null","resources/maskTrios/BT2B.jpg","null","",NA,NA,NA,NA,""
"image-keyboard-response",616,563165,"0.0-3.201-2.201","s2yc7akxjlu37um",542,"125.csv","","null","resources/images/coin2.png","null","",NA,NA,NA,NA,""
