"trial_type","trial_index","time_elapsed","internal_node_id","subject","participantCode","walkNumber","success","rt","stimulus","key_press","test_part","leftProb","midProb","rightProb","generatedNum","correct"
"pavlovia",0,1244,"0.0-0.0","csxjwv5nkgxo4ro",476,"10.csv","","","","","",NA,NA,NA,NA,""
"fullscreen",1,24534,"0.0-1.0","csxjwv5nkgxo4ro",476,"10.csv","true","","","","",NA,NA,NA,NA,""
"html-keyboard-response",2,26801,"0.0-2.0-0.0","csxjwv5nkgxo4ro",476,"10.csv","","2264.4000000059605","<p><font size='6'>Arrrgh!</p></font><p>Can you be the best pirate? Try to find lots of gold! But beware, some islands have more gold than others, and over time, the island with the most gold may change. Can YOU figure it out? </p><font size='6'>GOOD LUCK, CAPTAIN!!!</font><p>Press any key to begin</p>","32","",NA,NA,NA,NA,""
"image-keyboard-response",3,29803,"0.0-2.0-1.0","csxjwv5nkgxo4ro",476,"10.csv","","null","resources/image_sets/111.png","null","",NA,NA,NA,NA,""
"image-keyboard-response",4,31254,"0.0-2.0-2.0","csxjwv5nkgxo4ro",476,"10.csv","","1449.800000011921","resources/image_sets/left_highlight.png","37","",NA,NA,NA,NA,""
"image-keyboard-response",5,32802,"0.0-2.0-3.0","csxjwv5nkgxo4ro",476,"10.csv","","1546.699999988079","resources/image_sets/mid_highlight.png","38","",NA,NA,NA,NA,""
"image-keyboard-response",6,33496,"0.0-2.0-4.0","csxjwv5nkgxo4ro",476,"10.csv","","692","resources/image_sets/right_highlight.png","39","",NA,NA,NA,NA,""
"image-keyboard-response",7,34627,"0.0-2.0-5.0","csxjwv5nkgxo4ro",476,"10.csv","","1128.7999999821186","resources/image_sets/111.png","13","",NA,NA,NA,NA,""
"image-keyboard-response",8,35483,"0.0-2.0-6.0","csxjwv5nkgxo4ro",476,"10.csv","","854.6999999880791","resources/images/coin2.png","13","",NA,NA,NA,NA,""
"image-keyboard-response",9,35978,"0.0-2.0-7.0","csxjwv5nkgxo4ro",476,"10.csv","","493.90000000596046","resources/images/fishbone.png","13","",NA,NA,NA,NA,""
"html-keyboard-response",10,36222,"0.0-2.0-8.0","csxjwv5nkgxo4ro",476,"10.csv","","242.19999998807907","<p>Your first journey will be a long one, but you will get a well deserved break at the end</p><p>After the break you will have four more journeys, but each will be much shorter than the first, and you will have breaks in between each</p><p>Press Enter to begin</p>","13","",NA,NA,NA,NA,""
"image-keyboard-response",11,37842,"0.0-3.0-0.0","csxjwv5nkgxo4ro",476,"10.csv","","1616.9000000059605","resources/trios/L4T1A3.jpg","37","restless",0.7,0.3,0.9,0.240856218079508,"true"
"image-keyboard-response",12,38247,"0.0-3.0-1.0","csxjwv5nkgxo4ro",476,"10.csv","","null","resources/maskTrios/L4BB.jpg","null","",NA,NA,NA,NA,""
"image-keyboard-response",13,39451,"0.0-3.0-2.0","csxjwv5nkgxo4ro",476,"10.csv","","null","resources/images/coin2.png","null","",NA,NA,NA,NA,""
"image-keyboard-response",14,39879,"0.0-3.1-0.1","csxjwv5nkgxo4ro",476,"10.csv","","425","resources/trios/L2T1A1.jpg","37","restless",0.7,0.3,0.9,0.923468609106074,"false"
"image-keyboard-response",15,40283,"0.0-3.1-1.1","csxjwv5nkgxo4ro",476,"10.csv","","null","resources/maskTrios/L2BB.jpg","null","",NA,NA,NA,NA,""
"image-keyboard-response",16,41488,"0.0-3.1-2.1","csxjwv5nkgxo4ro",476,"10.csv","","null","resources/images/fishbone.png","null","",NA,NA,NA,NA,""
"image-keyboard-response",17,41826,"0.0-3.2-0.2","csxjwv5nkgxo4ro",476,"10.csv","","335.69999998807907","resources/trios/L2T4A1.jpg","39","restless",0.7,0.3,0.9,0.555653912197391,"true"
"image-keyboard-response",18,42233,"0.0-3.2-1.2","csxjwv5nkgxo4ro",476,"10.csv","","null","resources/maskTrios/BBA1.jpg","null","",NA,NA,NA,NA,""
"image-keyboard-response",19,43438,"0.0-3.2-2.2","csxjwv5nkgxo4ro",476,"10.csv","","null","resources/images/coin2.png","null","",NA,NA,NA,NA,""
"image-keyboard-response",20,44977,"0.0-3.3-0.3","csxjwv5nkgxo4ro",476,"10.csv","","1536.5","resources/trios/L2T1A1.jpg","37","restless",0.6,0.2,0.9,0.496772294165857,"true"
"image-keyboard-response",21,45382,"0.0-3.3-1.3","csxjwv5nkgxo4ro",476,"10.csv","","null","resources/maskTrios/L2BB.jpg","null","",NA,NA,NA,NA,""
"image-keyboard-response",22,46588,"0.0-3.3-2.3","csxjwv5nkgxo4ro",476,"10.csv","","null","resources/images/coin2.png","null","",NA,NA,NA,NA,""
"image-keyboard-response",23,47024,"0.0-3.4-0.4","csxjwv5nkgxo4ro",476,"10.csv","","433.40000000596046","resources/trios/L4T1A1.jpg","39","restless",0.5,0.2,0.9,0.2171780040367,"true"
"image-keyboard-response",24,47431,"0.0-3.4-1.4","csxjwv5nkgxo4ro",476,"10.csv","","null","resources/maskTrios/BBA1.jpg","null","",NA,NA,NA,NA,""
"image-keyboard-response",25,48637,"0.0-3.4-2.4","csxjwv5nkgxo4ro",476,"10.csv","","null","resources/images/coin2.png","null","",NA,NA,NA,NA,""
"image-keyboard-response",26,48952,"0.0-3.5-0.5","csxjwv5nkgxo4ro",476,"10.csv","","312.69999998807907","resources/trios/L4T1A3.jpg","37","restless",0.5,0.2,0.9,0.366894864249588,"true"
"image-keyboard-response",27,49360,"0.0-3.5-1.5","csxjwv5nkgxo4ro",476,"10.csv","","null","resources/maskTrios/L4BB.jpg","null","",NA,NA,NA,NA,""
"image-keyboard-response",28,50565,"0.0-3.5-2.5","csxjwv5nkgxo4ro",476,"10.csv","","null","resources/images/coin2.png","null","",NA,NA,NA,NA,""
"image-keyboard-response",29,50792,"0.0-3.6-0.6","csxjwv5nkgxo4ro",476,"10.csv","","224.40000000596046","resources/trios/L2T4A3.jpg","39","restless",0.5,0.2,0.8,0.666886623860542,"true"
"image-keyboard-response",30,51200,"0.0-3.6-1.6","csxjwv5nkgxo4ro",476,"10.csv","","null","resources/maskTrios/BBA3.jpg","null","",NA,NA,NA,NA,""
"image-keyboard-response",31,52407,"0.0-3.6-2.6","csxjwv5nkgxo4ro",476,"10.csv","","null","resources/images/coin2.png","null","",NA,NA,NA,NA,""
"image-keyboard-response",32,52619,"0.0-3.7-0.7","csxjwv5nkgxo4ro",476,"10.csv","","209.80000001192093","resources/trios/L2T4A3.jpg","37","restless",0.5,0.2,0.8,0.362995320324432,"true"
"image-keyboard-response",33,53022,"0.0-3.7-1.7","csxjwv5nkgxo4ro",476,"10.csv","","null","resources/maskTrios/L2BB.jpg","null","",NA,NA,NA,NA,""
"image-keyboard-response",34,54228,"0.0-3.7-2.7","csxjwv5nkgxo4ro",476,"10.csv","","null","resources/images/coin2.png","null","",NA,NA,NA,NA,""
"image-keyboard-response",35,54629,"0.0-3.8-0.8","csxjwv5nkgxo4ro",476,"10.csv","","398.7999999821186","resources/trios/L2T4A3.jpg","37","restless",0.6,0.2,0.7,0.266894772000527,"true"
"image-keyboard-response",36,55033,"0.0-3.8-1.8","csxjwv5nkgxo4ro",476,"10.csv","","null","resources/maskTrios/L2BB.jpg","null","",NA,NA,NA,NA,""
"image-keyboard-response",37,56238,"0.0-3.8-2.8","csxjwv5nkgxo4ro",476,"10.csv","","null","resources/images/coin2.png","null","",NA,NA,NA,NA,""
"image-keyboard-response",38,57260,"0.0-3.9-0.9","csxjwv5nkgxo4ro",476,"10.csv","","1020.5999999940395","resources/trios/L4T4A3.jpg","38","restless",0.6,0.2,0.7,0.0124787512250228,"true"
"image-keyboard-response",39,57663,"0.0-3.9-1.9","csxjwv5nkgxo4ro",476,"10.csv","","null","resources/maskTrios/BT4B.jpg","null","",NA,NA,NA,NA,""
"image-keyboard-response",40,58868,"0.0-3.9-2.9","csxjwv5nkgxo4ro",476,"10.csv","","null","resources/images/coin2.png","null","",NA,NA,NA,NA,""
"image-keyboard-response",41,59467,"0.0-3.10-0.10","csxjwv5nkgxo4ro",476,"10.csv","","596.6999999880791","resources/trios/L4T4A3.jpg","39","restless",0.6,0.2,0.7,0.411786495585518,"true"
"image-keyboard-response",42,59874,"0.0-3.10-1.10","csxjwv5nkgxo4ro",476,"10.csv","","null","resources/maskTrios/BBA3.jpg","null","",NA,NA,NA,NA,""
"image-keyboard-response",43,61081,"0.0-3.10-2.10","csxjwv5nkgxo4ro",476,"10.csv","","null","resources/images/coin2.png","null","",NA,NA,NA,NA,""
"image-keyboard-response",44,61438,"0.0-3.11-0.11","csxjwv5nkgxo4ro",476,"10.csv","","354.80000001192093","resources/trios/L4T1A3.jpg","37","restless",0.6,0.2,0.7,0.3365706693372,"true"
"image-keyboard-response",45,61845,"0.0-3.11-1.11","csxjwv5nkgxo4ro",476,"10.csv","","null","resources/maskTrios/L4BB.jpg","null","",NA,NA,NA,NA,""
"image-keyboard-response",46,63049,"0.0-3.11-2.11","csxjwv5nkgxo4ro",476,"10.csv","","null","resources/images/coin2.png","null","",NA,NA,NA,NA,""
"image-keyboard-response",47,63316,"0.0-3.12-0.12","csxjwv5nkgxo4ro",476,"10.csv","","264.69999998807907","resources/trios/L4T4A3.jpg","38","restless",0.6,0.2,0.7,0.623489954332983,"false"
"image-keyboard-response",48,63719,"0.0-3.12-1.12","csxjwv5nkgxo4ro",476,"10.csv","","null","resources/maskTrios/BT4B.jpg","null","",NA,NA,NA,NA,""
"image-keyboard-response",49,64926,"0.0-3.12-2.12","csxjwv5nkgxo4ro",476,"10.csv","","null","resources/images/fishbone.png","null","",NA,NA,NA,NA,""
"image-keyboard-response",50,65051,"0.0-3.13-0.13","csxjwv5nkgxo4ro",476,"10.csv","","122.90000000596046","resources/trios/L2T4A1.jpg","37","restless",0.6,0.2,0.7,0.190631985707041,"true"
"image-keyboard-response",51,65458,"0.0-3.13-1.13","csxjwv5nkgxo4ro",476,"10.csv","","null","resources/maskTrios/L2BB.jpg","null","",NA,NA,NA,NA,""
"image-keyboard-response",52,66663,"0.0-3.13-2.13","csxjwv5nkgxo4ro",476,"10.csv","","null","resources/images/coin2.png","null","",NA,NA,NA,NA,""
"image-keyboard-response",53,66908,"0.0-3.14-0.14","csxjwv5nkgxo4ro",476,"10.csv","","243.30000001192093","resources/trios/L2T4A1.jpg","39","restless",0.6,0.2,0.7,0.256939513254967,"true"
"image-keyboard-response",54,67316,"0.0-3.14-1.14","csxjwv5nkgxo4ro",476,"10.csv","","null","resources/maskTrios/BBA1.jpg","null","",NA,NA,NA,NA,""
"image-keyboard-response",55,68523,"0.0-3.14-2.14","csxjwv5nkgxo4ro",476,"10.csv","","null","resources/images/coin2.png","null","",NA,NA,NA,NA,""
"image-keyboard-response",56,69000,"0.0-3.15-0.15","csxjwv5nkgxo4ro",476,"10.csv","","474.59999999403954","resources/trios/L4T1A1.jpg","37","restless",0.6,0.2,0.7,0.691663090321037,"false"
"image-keyboard-response",57,69406,"0.0-3.15-1.15","csxjwv5nkgxo4ro",476,"10.csv","","null","resources/maskTrios/L4BB.jpg","null","",NA,NA,NA,NA,""
"image-keyboard-response",58,70610,"0.0-3.15-2.15","csxjwv5nkgxo4ro",476,"10.csv","","null","resources/images/fishbone.png","null","",NA,NA,NA,NA,""
"image-keyboard-response",59,70846,"0.0-3.16-0.16","csxjwv5nkgxo4ro",476,"10.csv","","233.39999997615814","resources/trios/L2T1A1.jpg","38","restless",0.6,0.2,0.6,0.325046072382849,"false"
"image-keyboard-response",60,71253,"0.0-3.16-1.16","csxjwv5nkgxo4ro",476,"10.csv","","null","resources/maskTrios/BT1B.jpg","null","",NA,NA,NA,NA,""
"image-keyboard-response",61,72457,"0.0-3.16-2.16","csxjwv5nkgxo4ro",476,"10.csv","","null","resources/images/fishbone.png","null","",NA,NA,NA,NA,""
"image-keyboard-response",62,72556,"0.0-3.17-0.17","csxjwv5nkgxo4ro",476,"10.csv","","97.5","resources/trios/L2T4A3.jpg","39","restless",0.6,0.2,0.6,0.485881050818896,"true"
"image-keyboard-response",63,72963,"0.0-3.17-1.17","csxjwv5nkgxo4ro",476,"10.csv","","null","resources/maskTrios/BBA3.jpg","null","",NA,NA,NA,NA,""
"image-keyboard-response",64,74170,"0.0-3.17-2.17","csxjwv5nkgxo4ro",476,"10.csv","","null","resources/images/coin2.png","null","",NA,NA,NA,NA,""
"image-keyboard-response",65,74444,"0.0-3.18-0.18","csxjwv5nkgxo4ro",476,"10.csv","","271.2000000178814","resources/trios/L4T1A3.jpg","37","restless",0.6,0.3,0.6,0.963188271444036,"false"
"image-keyboard-response",66,74851,"0.0-3.18-1.18","csxjwv5nkgxo4ro",476,"10.csv","","null","resources/maskTrios/L4BB.jpg","null","",NA,NA,NA,NA,""
"image-keyboard-response",67,76055,"0.0-3.18-2.18","csxjwv5nkgxo4ro",476,"10.csv","","null","resources/images/fishbone.png","null","",NA,NA,NA,NA,""
"image-keyboard-response",68,76313,"0.0-3.19-0.19","csxjwv5nkgxo4ro",476,"10.csv","","257","resources/trios/L4T1A3.jpg","38","restless",0.6,0.3,0.6,0.653736720767235,"false"
"image-keyboard-response",69,76719,"0.0-3.19-1.19","csxjwv5nkgxo4ro",476,"10.csv","","null","resources/maskTrios/BT1B.jpg","null","",NA,NA,NA,NA,""
"image-keyboard-response",70,77926,"0.0-3.19-2.19","csxjwv5nkgxo4ro",476,"10.csv","","null","resources/images/fishbone.png","null","",NA,NA,NA,NA,""
"image-keyboard-response",71,78041,"0.0-3.20-0.20","csxjwv5nkgxo4ro",476,"10.csv","","112.90000000596046","resources/trios/L2T1A1.jpg","39","restless",0.6,0.3,0.6,0.949856224710431,"false"
"image-keyboard-response",72,78448,"0.0-3.20-1.20","csxjwv5nkgxo4ro",476,"10.csv","","null","resources/maskTrios/BBA1.jpg","null","",NA,NA,NA,NA,""
"image-keyboard-response",73,79655,"0.0-3.20-2.20","csxjwv5nkgxo4ro",476,"10.csv","","null","resources/images/fishbone.png","null","",NA,NA,NA,NA,""
"image-keyboard-response",74,79898,"0.0-3.21-0.21","csxjwv5nkgxo4ro",476,"10.csv","","241.40000000596046","resources/trios/L4T4A1.jpg","38","restless",0.6,0.3,0.6,0.0376786987995446,"true"
"image-keyboard-response",75,80302,"0.0-3.21-1.21","csxjwv5nkgxo4ro",476,"10.csv","","null","resources/maskTrios/BT4B.jpg","null","",NA,NA,NA,NA,""
"image-keyboard-response",76,81509,"0.0-3.21-2.21","csxjwv5nkgxo4ro",476,"10.csv","","null","resources/images/coin2.png","null","",NA,NA,NA,NA,""
"image-keyboard-response",77,81660,"0.0-3.22-0.22","csxjwv5nkgxo4ro",476,"10.csv","","149","resources/trios/L4T1A3.jpg","37","restless",0.6,0.3,0.6,0.594835739343006,"true"
"image-keyboard-response",78,82065,"0.0-3.22-1.22","csxjwv5nkgxo4ro",476,"10.csv","","null","resources/maskTrios/L4BB.jpg","null","",NA,NA,NA,NA,""
"image-keyboard-response",79,83272,"0.0-3.22-2.22","csxjwv5nkgxo4ro",476,"10.csv","","null","resources/images/coin2.png","null","",NA,NA,NA,NA,""
"image-keyboard-response",80,85084,"0.0-3.23-0.23","csxjwv5nkgxo4ro",476,"10.csv","","1810","resources/trios/L2T4A1.jpg","39","restless",0.6,0.3,0.6,0.23328889605975,"true"
"image-keyboard-response",81,85492,"0.0-3.23-1.23","csxjwv5nkgxo4ro",476,"10.csv","","null","resources/maskTrios/BBA1.jpg","null","",NA,NA,NA,NA,""
"image-keyboard-response",82,86694,"0.0-3.23-2.23","csxjwv5nkgxo4ro",476,"10.csv","","null","resources/images/coin2.png","null","",NA,NA,NA,NA,""
"image-keyboard-response",83,87240,"0.0-3.24-0.24","csxjwv5nkgxo4ro",476,"10.csv","","543.8000000119209","resources/trios/L2T1A3.jpg","37","restless",0.6,0.3,0.6,0.715697082986472,"false"
"image-keyboard-response",84,87644,"0.0-3.24-1.24","csxjwv5nkgxo4ro",476,"10.csv","","null","resources/maskTrios/L2BB.jpg","null","",NA,NA,NA,NA,""
"image-keyboard-response",85,88847,"0.0-3.24-2.24","csxjwv5nkgxo4ro",476,"10.csv","","null","resources/images/fishbone.png","null","",NA,NA,NA,NA,""
"image-keyboard-response",86,90383,"0.0-3.25-0.25","csxjwv5nkgxo4ro",476,"10.csv","","1534.0999999940395","resources/trios/L2T4A3.jpg","39","restless",0.6,0.3,0.6,0.661073399371129,"false"
"image-keyboard-response",87,90786,"0.0-3.25-1.25","csxjwv5nkgxo4ro",476,"10.csv","","null","resources/maskTrios/BBA3.jpg","null","",NA,NA,NA,NA,""
"image-keyboard-response",88,91988,"0.0-3.25-2.25","csxjwv5nkgxo4ro",476,"10.csv","","null","resources/images/fishbone.png","null","",NA,NA,NA,NA,""
"image-keyboard-response",89,92805,"0.0-3.26-0.26","csxjwv5nkgxo4ro",476,"10.csv","","814.7000000178814","resources/trios/L4T1A1.jpg","38","restless",0.6,0.3,0.6,0.778346900750257,"false"
"image-keyboard-response",90,93210,"0.0-3.26-1.26","csxjwv5nkgxo4ro",476,"10.csv","","null","resources/maskTrios/BT1B.jpg","null","",NA,NA,NA,NA,""
"image-keyboard-response",91,94414,"0.0-3.26-2.26","csxjwv5nkgxo4ro",476,"10.csv","","null","resources/images/fishbone.png","null","",NA,NA,NA,NA,""
"image-keyboard-response",92,94880,"0.0-3.27-0.27","csxjwv5nkgxo4ro",476,"10.csv","","463.5","resources/trios/L4T1A3.jpg","38","restless",0.6,0.3,0.5,0.468402256072502,"false"
"image-keyboard-response",93,95286,"0.0-3.27-1.27","csxjwv5nkgxo4ro",476,"10.csv","","null","resources/maskTrios/BT1B.jpg","null","",NA,NA,NA,NA,""
"image-keyboard-response",94,96488,"0.0-3.27-2.27","csxjwv5nkgxo4ro",476,"10.csv","","null","resources/images/fishbone.png","null","",NA,NA,NA,NA,""
"image-keyboard-response",95,96647,"0.0-3.28-0.28","csxjwv5nkgxo4ro",476,"10.csv","","157.2000000178814","resources/trios/L2T1A3.jpg","39","restless",0.6,0.3,0.5,0.70327271509501,"false"
"image-keyboard-response",96,97055,"0.0-3.28-1.28","csxjwv5nkgxo4ro",476,"10.csv","","null","resources/maskTrios/BBA3.jpg","null","",NA,NA,NA,NA,""
"image-keyboard-response",97,98260,"0.0-3.28-2.28","csxjwv5nkgxo4ro",476,"10.csv","","null","resources/images/fishbone.png","null","",NA,NA,NA,NA,""
"image-keyboard-response",98,98501,"0.0-3.29-0.29","csxjwv5nkgxo4ro",476,"10.csv","","238.5","resources/trios/L2T4A1.jpg","37","restless",0.6,0.3,0.5,0.156038419133245,"true"
"image-keyboard-response",99,98907,"0.0-3.29-1.29","csxjwv5nkgxo4ro",476,"10.csv","","null","resources/maskTrios/L2BB.jpg","null","",NA,NA,NA,NA,""
"image-keyboard-response",100,100112,"0.0-3.29-2.29","csxjwv5nkgxo4ro",476,"10.csv","","null","resources/images/coin2.png","null","",NA,NA,NA,NA,""
"image-keyboard-response",101,100565,"0.0-3.30-0.30","csxjwv5nkgxo4ro",476,"10.csv","","452.30000001192093","resources/trios/L2T1A1.jpg","38","restless",0.6,0.3,0.5,0.336763685256734,"false"
"image-keyboard-response",102,100973,"0.0-3.30-1.30","csxjwv5nkgxo4ro",476,"10.csv","","null","resources/maskTrios/BT1B.jpg","null","",NA,NA,NA,NA,""
"image-keyboard-response",103,102179,"0.0-3.30-2.30","csxjwv5nkgxo4ro",476,"10.csv","","null","resources/images/fishbone.png","null","",NA,NA,NA,NA,""
"image-keyboard-response",104,102325,"0.0-3.31-0.31","csxjwv5nkgxo4ro",476,"10.csv","","144.5","resources/trios/L2T4A3.jpg","38","restless",0.6,0.3,0.5,0.958376069260362,"false"
"image-keyboard-response",105,102729,"0.0-3.31-1.31","csxjwv5nkgxo4ro",476,"10.csv","","null","resources/maskTrios/BT4B.jpg","null","",NA,NA,NA,NA,""
"image-keyboard-response",106,103935,"0.0-3.31-2.31","csxjwv5nkgxo4ro",476,"10.csv","","null","resources/images/fishbone.png","null","",NA,NA,NA,NA,""
"image-keyboard-response",107,104430,"0.0-3.32-0.32","csxjwv5nkgxo4ro",476,"10.csv","","492.69999998807907","resources/trios/L4T4A1.jpg","37","restless",0.7,0.3,0.5,0.904923346674163,"false"
"image-keyboard-response",108,104837,"0.0-3.32-1.32","csxjwv5nkgxo4ro",476,"10.csv","","null","resources/maskTrios/L4BB.jpg","null","",NA,NA,NA,NA,""
"image-keyboard-response",109,106043,"0.0-3.32-2.32","csxjwv5nkgxo4ro",476,"10.csv","","null","resources/images/fishbone.png","null","",NA,NA,NA,NA,""
"image-keyboard-response",110,107599,"0.0-3.33-0.33","csxjwv5nkgxo4ro",476,"10.csv","","1554","resources/trios/L4T4A1.jpg","39","restless",0.7,0.4,0.5,0.00518773075167167,"true"
"image-keyboard-response",111,108006,"0.0-3.33-1.33","csxjwv5nkgxo4ro",476,"10.csv","","null","resources/maskTrios/BBA1.jpg","null","",NA,NA,NA,NA,""
"image-keyboard-response",112,109213,"0.0-3.33-2.33","csxjwv5nkgxo4ro",476,"10.csv","","null","resources/images/coin2.png","null","",NA,NA,NA,NA,""
"image-keyboard-response",113,109735,"0.0-3.34-0.34","csxjwv5nkgxo4ro",476,"10.csv","","520.4000000059605","resources/trios/L2T1A1.jpg","39","restless",0.7,0.4,0.5,0.482898775388628,"true"
"image-keyboard-response",114,110139,"0.0-3.34-1.34","csxjwv5nkgxo4ro",476,"10.csv","","null","resources/maskTrios/BBA1.jpg","null","",NA,NA,NA,NA,""
"image-keyboard-response",115,111346,"0.0-3.34-2.34","csxjwv5nkgxo4ro",476,"10.csv","","null","resources/images/coin2.png","null","",NA,NA,NA,NA,""
"image-keyboard-response",116,114655,"0.0-3.35-0.35","csxjwv5nkgxo4ro",476,"10.csv","","3307.300000011921","resources/trios/L2T1A3.jpg","39","restless",0.6,0.4,0.5,0.992552432943796,"false"
"image-keyboard-response",117,115059,"0.0-3.35-1.35","csxjwv5nkgxo4ro",476,"10.csv","","null","resources/maskTrios/BBA3.jpg","null","",NA,NA,NA,NA,""
"image-keyboard-response",118,116266,"0.0-3.35-2.35","csxjwv5nkgxo4ro",476,"10.csv","","null","resources/images/fishbone.png","null","",NA,NA,NA,NA,""
"image-keyboard-response",119,118011,"0.0-3.36-0.36","csxjwv5nkgxo4ro",476,"10.csv","","1743.2999999821186","resources/trios/L4T1A1.jpg","39","restless",0.6,0.4,0.5,0.319493981053644,"true"
"image-keyboard-response",120,118417,"0.0-3.36-1.36","csxjwv5nkgxo4ro",476,"10.csv","","null","resources/maskTrios/BBA1.jpg","null","",NA,NA,NA,NA,""
"image-keyboard-response",121,119622,"0.0-3.36-2.36","csxjwv5nkgxo4ro",476,"10.csv","","null","resources/images/coin2.png","null","",NA,NA,NA,NA,""
"image-keyboard-response",122,119791,"0.0-3.37-0.37","csxjwv5nkgxo4ro",476,"10.csv","","166.40000000596046","resources/trios/L4T1A3.jpg","38","restless",0.6,0.4,0.5,0.8213530593205,"false"
"image-keyboard-response",123,120197,"0.0-3.37-1.37","csxjwv5nkgxo4ro",476,"10.csv","","null","resources/maskTrios/BT1B.jpg","null","",NA,NA,NA,NA,""
"image-keyboard-response",124,121400,"0.0-3.37-2.37","csxjwv5nkgxo4ro",476,"10.csv","","null","resources/images/fishbone.png","null","",NA,NA,NA,NA,""
"image-keyboard-response",125,121444,"0.0-3.38-0.38","csxjwv5nkgxo4ro",476,"10.csv","","41.900000005960464","resources/trios/L2T4A3.jpg","37","restless",0.6,0.4,0.6,0.909997189672998,"false"
"image-keyboard-response",126,121848,"0.0-3.38-1.38","csxjwv5nkgxo4ro",476,"10.csv","","null","resources/maskTrios/L2BB.jpg","null","",NA,NA,NA,NA,""
"image-keyboard-response",127,123052,"0.0-3.38-2.38","csxjwv5nkgxo4ro",476,"10.csv","","null","resources/images/fishbone.png","null","",NA,NA,NA,NA,""
"image-keyboard-response",128,123302,"0.0-3.39-0.39","csxjwv5nkgxo4ro",476,"10.csv","","248.19999998807907","resources/trios/L2T1A1.jpg","39","restless",0.6,0.4,0.6,0.659641223778576,"false"
"image-keyboard-response",129,123706,"0.0-3.39-1.39","csxjwv5nkgxo4ro",476,"10.csv","","null","resources/maskTrios/BBA1.jpg","null","",NA,NA,NA,NA,""
"image-keyboard-response",130,124913,"0.0-3.39-2.39","csxjwv5nkgxo4ro",476,"10.csv","","null","resources/images/fishbone.png","null","",NA,NA,NA,NA,""
"image-keyboard-response",131,124941,"0.0-3.40-0.40","csxjwv5nkgxo4ro",476,"10.csv","","26.099999994039536","resources/trios/L2T1A1.jpg","38","restless",0.6,0.4,0.6,0.986969906372597,"false"
"image-keyboard-response",132,125347,"0.0-3.40-1.40","csxjwv5nkgxo4ro",476,"10.csv","","null","resources/maskTrios/BT1B.jpg","null","",NA,NA,NA,NA,""
"image-keyboard-response",133,126552,"0.0-3.40-2.40","csxjwv5nkgxo4ro",476,"10.csv","","null","resources/images/fishbone.png","null","",NA,NA,NA,NA,""
"image-keyboard-response",134,126605,"0.0-3.41-0.41","csxjwv5nkgxo4ro",476,"10.csv","","50.5","resources/trios/L2T1A3.jpg","37","restless",0.6,0.4,0.5,0.396628053306983,"true"
"image-keyboard-response",135,127010,"0.0-3.41-1.41","csxjwv5nkgxo4ro",476,"10.csv","","null","resources/maskTrios/L2BB.jpg","null","",NA,NA,NA,NA,""
"image-keyboard-response",136,128216,"0.0-3.41-2.41","csxjwv5nkgxo4ro",476,"10.csv","","null","resources/images/coin2.png","null","",NA,NA,NA,NA,""
"image-keyboard-response",137,131224,"0.0-3.42-0.42","csxjwv5nkgxo4ro",476,"10.csv","","3005.899999976158","resources/trios/L2T1A1.jpg","39","restless",0.6,0.4,0.4,0.880125575495232,"false"
"image-keyboard-response",138,131631,"0.0-3.42-1.42","csxjwv5nkgxo4ro",476,"10.csv","","null","resources/maskTrios/BBA1.jpg","null","",NA,NA,NA,NA,""
"image-keyboard-response",139,132835,"0.0-3.42-2.42","csxjwv5nkgxo4ro",476,"10.csv","","null","resources/images/fishbone.png","null","",NA,NA,NA,NA,""
"image-keyboard-response",140,139727,"0.0-3.43-0.43","csxjwv5nkgxo4ro",476,"10.csv","","6890.399999976158","resources/trios/L2T4A3.jpg","39","restless",0.6,0.4,0.3,0.989332742776055,"false"
"image-keyboard-response",141,140134,"0.0-3.43-1.43","csxjwv5nkgxo4ro",476,"10.csv","","null","resources/maskTrios/BBA3.jpg","null","",NA,NA,NA,NA,""
"image-keyboard-response",142,141337,"0.0-3.43-2.43","csxjwv5nkgxo4ro",476,"10.csv","","null","resources/images/fishbone.png","null","",NA,NA,NA,NA,""
"image-keyboard-response",143,141458,"0.0-3.44-0.44","csxjwv5nkgxo4ro",476,"10.csv","","118.7000000178814","resources/trios/L2T4A3.jpg","39","restless",0.6,0.4,0.3,0.297941107969777,"true"
"image-keyboard-response",144,141865,"0.0-3.44-1.44","csxjwv5nkgxo4ro",476,"10.csv","","null","resources/maskTrios/BBA3.jpg","null","",NA,NA,NA,NA,""
"image-keyboard-response",145,143070,"0.0-3.44-2.44","csxjwv5nkgxo4ro",476,"10.csv","","null","resources/images/coin2.png","null","",NA,NA,NA,NA,""
"image-keyboard-response",146,143551,"0.0-3.45-0.45","csxjwv5nkgxo4ro",476,"10.csv","","479.5","resources/trios/L2T4A3.jpg","38","restless",0.5,0.4,0.3,0.631641078800817,"false"
"image-keyboard-response",147,143958,"0.0-3.45-1.45","csxjwv5nkgxo4ro",476,"10.csv","","null","resources/maskTrios/BT4B.jpg","null","",NA,NA,NA,NA,""
"image-keyboard-response",148,145165,"0.0-3.45-2.45","csxjwv5nkgxo4ro",476,"10.csv","","null","resources/images/fishbone.png","null","",NA,NA,NA,NA,""
"image-keyboard-response",149,145843,"0.0-3.46-0.46","csxjwv5nkgxo4ro",476,"10.csv","","675.6999999880791","resources/trios/L4T1A1.jpg","37","restless",0.6,0.4,0.3,0.412969671137931,"true"
"image-keyboard-response",150,146251,"0.0-3.46-1.46","csxjwv5nkgxo4ro",476,"10.csv","","null","resources/maskTrios/L4BB.jpg","null","",NA,NA,NA,NA,""
"image-keyboard-response",151,147454,"0.0-3.46-2.46","csxjwv5nkgxo4ro",476,"10.csv","","null","resources/images/coin2.png","null","",NA,NA,NA,NA,""
"image-keyboard-response",152,149118,"0.0-3.47-0.47","csxjwv5nkgxo4ro",476,"10.csv","","1660.5","resources/trios/L4T1A3.jpg","38","restless",0.6,0.4,0.3,0.58819886145913,"false"
"image-keyboard-response",153,149525,"0.0-3.47-1.47","csxjwv5nkgxo4ro",476,"10.csv","","null","resources/maskTrios/BT1B.jpg","null","",NA,NA,NA,NA,""
"image-keyboard-response",154,150732,"0.0-3.47-2.47","csxjwv5nkgxo4ro",476,"10.csv","","null","resources/images/fishbone.png","null","",NA,NA,NA,NA,""
"image-keyboard-response",155,151174,"0.0-3.48-0.48","csxjwv5nkgxo4ro",476,"10.csv","","440.2999999821186","resources/trios/L2T1A3.jpg","37","restless",0.6,0.4,0.3,0.399458308502168,"true"
"image-keyboard-response",156,151582,"0.0-3.48-1.48","csxjwv5nkgxo4ro",476,"10.csv","","null","resources/maskTrios/L2BB.jpg","null","",NA,NA,NA,NA,""
"image-keyboard-response",157,152789,"0.0-3.48-2.48","csxjwv5nkgxo4ro",476,"10.csv","","null","resources/images/coin2.png","null","",NA,NA,NA,NA,""
"image-keyboard-response",158,154449,"0.0-3.49-0.49","csxjwv5nkgxo4ro",476,"10.csv","","1658.0999999940395","resources/trios/L2T1A1.jpg","39","restless",0.6,0.4,0.3,0.284113619534885,"true"
"image-keyboard-response",159,154856,"0.0-3.49-1.49","csxjwv5nkgxo4ro",476,"10.csv","","null","resources/maskTrios/BBA1.jpg","null","",NA,NA,NA,NA,""
"image-keyboard-response",160,156063,"0.0-3.49-2.49","csxjwv5nkgxo4ro",476,"10.csv","","null","resources/images/coin2.png","null","",NA,NA,NA,NA,""
"image-keyboard-response",161,156736,"0.0-3.50-0.50","csxjwv5nkgxo4ro",476,"10.csv","","670.5","resources/trios/L4T4A1.jpg","39","restless",0.6,0.3,0.3,0.473217376434866,"false"
"image-keyboard-response",162,157138,"0.0-3.50-1.50","csxjwv5nkgxo4ro",476,"10.csv","","null","resources/maskTrios/BBA1.jpg","null","",NA,NA,NA,NA,""
"image-keyboard-response",163,158345,"0.0-3.50-2.50","csxjwv5nkgxo4ro",476,"10.csv","","null","resources/images/fishbone.png","null","",NA,NA,NA,NA,""
"image-keyboard-response",164,159102,"0.0-3.51-0.51","csxjwv5nkgxo4ro",476,"10.csv","","755.0999999940395","resources/trios/L2T1A1.jpg","38","restless",0.6,0.3,0.3,0.757704061491922,"false"
"image-keyboard-response",165,159506,"0.0-3.51-1.51","csxjwv5nkgxo4ro",476,"10.csv","","null","resources/maskTrios/BT1B.jpg","null","",NA,NA,NA,NA,""
"image-keyboard-response",166,160711,"0.0-3.51-2.51","csxjwv5nkgxo4ro",476,"10.csv","","null","resources/images/fishbone.png","null","",NA,NA,NA,NA,""
"image-keyboard-response",167,161391,"0.0-3.52-0.52","csxjwv5nkgxo4ro",476,"10.csv","","678.2999999821186","resources/trios/L2T1A1.jpg","38","restless",0.6,0.3,0.3,0.939327169174755,"false"
"image-keyboard-response",168,161798,"0.0-3.52-1.52","csxjwv5nkgxo4ro",476,"10.csv","","null","resources/maskTrios/BT1B.jpg","null","",NA,NA,NA,NA,""
"image-keyboard-response",169,163005,"0.0-3.52-2.52","csxjwv5nkgxo4ro",476,"10.csv","","null","resources/images/fishbone.png","null","",NA,NA,NA,NA,""
"image-keyboard-response",170,163535,"0.0-3.53-0.53","csxjwv5nkgxo4ro",476,"10.csv","","527.4000000059605","resources/trios/L2T4A1.jpg","38","restless",0.6,0.3,0.3,0.362197768134847,"false"
"image-keyboard-response",171,163939,"0.0-3.53-1.53","csxjwv5nkgxo4ro",476,"10.csv","","null","resources/maskTrios/BT4B.jpg","null","",NA,NA,NA,NA,""
"image-keyboard-response",172,165146,"0.0-3.53-2.53","csxjwv5nkgxo4ro",476,"10.csv","","null","resources/images/fishbone.png","null","",NA,NA,NA,NA,""
"image-keyboard-response",173,165793,"0.0-3.54-0.54","csxjwv5nkgxo4ro",476,"10.csv","","645.3000000119209","resources/trios/L4T1A3.jpg","37","restless",0.6,0.3,0.3,0.154538775224116,"true"
"image-keyboard-response",174,166201,"0.0-3.54-1.54","csxjwv5nkgxo4ro",476,"10.csv","","null","resources/maskTrios/L4BB.jpg","null","",NA,NA,NA,NA,""
"image-keyboard-response",175,167404,"0.0-3.54-2.54","csxjwv5nkgxo4ro",476,"10.csv","","null","resources/images/coin2.png","null","",NA,NA,NA,NA,""
"image-keyboard-response",176,167433,"0.0-3.55-0.55","csxjwv5nkgxo4ro",476,"10.csv","","26.30000001192093","resources/trios/L4T4A3.jpg","39","restless",0.6,0.4,0.3,0.641796413126505,"false"
"image-keyboard-response",177,167837,"0.0-3.55-1.55","csxjwv5nkgxo4ro",476,"10.csv","","null","resources/maskTrios/BBA3.jpg","null","",NA,NA,NA,NA,""
"image-keyboard-response",178,169039,"0.0-3.55-2.55","csxjwv5nkgxo4ro",476,"10.csv","","null","resources/images/fishbone.png","null","",NA,NA,NA,NA,""
"image-keyboard-response",179,169665,"0.0-3.56-0.56","csxjwv5nkgxo4ro",476,"10.csv","","623.5","resources/trios/L4T1A1.jpg","39","restless",0.6,0.4,0.3,0.504529398568551,"false"
"image-keyboard-response",180,170069,"0.0-3.56-1.56","csxjwv5nkgxo4ro",476,"10.csv","","null","resources/maskTrios/BBA1.jpg","null","",NA,NA,NA,NA,""
"image-keyboard-response",181,171272,"0.0-3.56-2.56","csxjwv5nkgxo4ro",476,"10.csv","","null","resources/images/fishbone.png","null","",NA,NA,NA,NA,""
"image-keyboard-response",182,172649,"0.0-3.57-0.57","csxjwv5nkgxo4ro",476,"10.csv","","1374.699999988079","resources/trios/L4T4A1.jpg","38","restless",0.6,0.5,0.3,0.606308484695437,"false"
"image-keyboard-response",183,173055,"0.0-3.57-1.57","csxjwv5nkgxo4ro",476,"10.csv","","null","resources/maskTrios/BT4B.jpg","null","",NA,NA,NA,NA,""
"image-keyboard-response",184,174262,"0.0-3.57-2.57","csxjwv5nkgxo4ro",476,"10.csv","","null","resources/images/fishbone.png","null","",NA,NA,NA,NA,""
"image-keyboard-response",185,174877,"0.0-3.58-0.58","csxjwv5nkgxo4ro",476,"10.csv","","613.3000000119209","resources/trios/L4T4A3.jpg","39","restless",0.6,0.5,0.3,0.846184523625937,"false"
"image-keyboard-response",186,175283,"0.0-3.58-1.58","csxjwv5nkgxo4ro",476,"10.csv","","null","resources/maskTrios/BBA3.jpg","null","",NA,NA,NA,NA,""
"image-keyboard-response",187,176490,"0.0-3.58-2.58","csxjwv5nkgxo4ro",476,"10.csv","","null","resources/images/fishbone.png","null","",NA,NA,NA,NA,""
"image-keyboard-response",188,176494,"0.0-3.59-0.59","csxjwv5nkgxo4ro",476,"10.csv","","2.5999999940395355","resources/trios/L4T4A3.jpg","37","restless",0.6,0.5,0.3,0.743608054015116,"false"
"image-keyboard-response",189,176899,"0.0-3.59-1.59","csxjwv5nkgxo4ro",476,"10.csv","","null","resources/maskTrios/L4BB.jpg","null","",NA,NA,NA,NA,""
"image-keyboard-response",190,178101,"0.0-3.59-2.59","csxjwv5nkgxo4ro",476,"10.csv","","null","resources/images/fishbone.png","null","",NA,NA,NA,NA,""
"image-keyboard-response",191,178478,"0.0-3.60-0.60","csxjwv5nkgxo4ro",476,"10.csv","","375.09999999403954","resources/trios/L4T4A3.jpg","39","restless",0.7,0.5,0.3,0.434355113206181,"false"
"image-keyboard-response",192,178883,"0.0-3.60-1.60","csxjwv5nkgxo4ro",476,"10.csv","","null","resources/maskTrios/BBA3.jpg","null","",NA,NA,NA,NA,""
"image-keyboard-response",193,180090,"0.0-3.60-2.60","csxjwv5nkgxo4ro",476,"10.csv","","null","resources/images/fishbone.png","null","",NA,NA,NA,NA,""
"image-keyboard-response",194,180639,"0.0-3.61-0.61","csxjwv5nkgxo4ro",476,"10.csv","","546.6000000238419","resources/trios/L4T1A1.jpg","37","restless",0.7,0.5,0.3,0.578657215986496,"true"
"image-keyboard-response",195,181045,"0.0-3.61-1.61","csxjwv5nkgxo4ro",476,"10.csv","","null","resources/maskTrios/L4BB.jpg","null","",NA,NA,NA,NA,""
"image-keyboard-response",196,182249,"0.0-3.61-2.61","csxjwv5nkgxo4ro",476,"10.csv","","null","resources/images/coin2.png","null","",NA,NA,NA,NA,""
"image-keyboard-response",197,182694,"0.0-3.62-0.62","csxjwv5nkgxo4ro",476,"10.csv","","442.7999999821186","resources/trios/L2T1A1.jpg","39","restless",0.7,0.5,0.3,0.466516739657041,"false"
"image-keyboard-response",198,183101,"0.0-3.62-1.62","csxjwv5nkgxo4ro",476,"10.csv","","null","resources/maskTrios/BBA1.jpg","null","",NA,NA,NA,NA,""
"image-keyboard-response",199,184307,"0.0-3.62-2.62","csxjwv5nkgxo4ro",476,"10.csv","","null","resources/images/fishbone.png","null","",NA,NA,NA,NA,""
"image-keyboard-response",200,184850,"0.0-3.63-0.63","csxjwv5nkgxo4ro",476,"10.csv","","540.9000000059605","resources/trios/L2T4A1.jpg","38","restless",0.7,0.5,0.3,0.152327292354161,"true"
"image-keyboard-response",201,185257,"0.0-3.63-1.63","csxjwv5nkgxo4ro",476,"10.csv","","null","resources/maskTrios/BT4B.jpg","null","",NA,NA,NA,NA,""
"image-keyboard-response",202,186464,"0.0-3.63-2.63","csxjwv5nkgxo4ro",476,"10.csv","","null","resources/images/coin2.png","null","",NA,NA,NA,NA,""
"image-keyboard-response",203,186466,"0.0-3.64-0.64","csxjwv5nkgxo4ro",476,"10.csv","","0","resources/trios/L4T1A1.jpg","37","restless",0.6,0.5,0.3,0.490632682821096,"true"
"image-keyboard-response",204,186869,"0.0-3.64-1.64","csxjwv5nkgxo4ro",476,"10.csv","","null","resources/maskTrios/L4BB.jpg","null","",NA,NA,NA,NA,""
"image-keyboard-response",205,188072,"0.0-3.64-2.64","csxjwv5nkgxo4ro",476,"10.csv","","null","resources/images/coin2.png","null","",NA,NA,NA,NA,""
"image-keyboard-response",206,188770,"0.0-3.65-0.65","csxjwv5nkgxo4ro",476,"10.csv","","696.0999999940395","resources/trios/L2T1A1.jpg","38","restless",0.6,0.5,0.3,0.0309966345079549,"true"
"image-keyboard-response",207,189176,"0.0-3.65-1.65","csxjwv5nkgxo4ro",476,"10.csv","","null","resources/maskTrios/BT1B.jpg","null","",NA,NA,NA,NA,""
"image-keyboard-response",208,190382,"0.0-3.65-2.65","csxjwv5nkgxo4ro",476,"10.csv","","null","resources/images/coin2.png","null","",NA,NA,NA,NA,""
"image-keyboard-response",209,190418,"0.0-3.66-0.66","csxjwv5nkgxo4ro",476,"10.csv","","33.39999997615814","resources/trios/L2T1A3.jpg","37","restless",0.6,0.5,0.3,0.78190077372494,"false"
"image-keyboard-response",210,190823,"0.0-3.66-1.66","csxjwv5nkgxo4ro",476,"10.csv","","null","resources/maskTrios/L2BB.jpg","null","",NA,NA,NA,NA,""
"image-keyboard-response",211,192025,"0.0-3.66-2.66","csxjwv5nkgxo4ro",476,"10.csv","","null","resources/images/fishbone.png","null","",NA,NA,NA,NA,""
"image-keyboard-response",212,192093,"0.0-3.67-0.67","csxjwv5nkgxo4ro",476,"10.csv","","65.59999999403954","resources/trios/L2T1A1.jpg","38","restless",0.6,0.5,0.3,0.69723851298877,"false"
"image-keyboard-response",213,192496,"0.0-3.67-1.67","csxjwv5nkgxo4ro",476,"10.csv","","null","resources/maskTrios/BT1B.jpg","null","",NA,NA,NA,NA,""
"image-keyboard-response",214,193703,"0.0-3.67-2.67","csxjwv5nkgxo4ro",476,"10.csv","","null","resources/images/fishbone.png","null","",NA,NA,NA,NA,""
"image-keyboard-response",215,193971,"0.0-3.68-0.68","csxjwv5nkgxo4ro",476,"10.csv","","265.5","resources/trios/L4T1A3.jpg","39","restless",0.6,0.4,0.3,0.805404334967092,"false"
"image-keyboard-response",216,194377,"0.0-3.68-1.68","csxjwv5nkgxo4ro",476,"10.csv","","null","resources/maskTrios/BBA3.jpg","null","",NA,NA,NA,NA,""
"image-keyboard-response",217,195582,"0.0-3.68-2.68","csxjwv5nkgxo4ro",476,"10.csv","","null","resources/images/fishbone.png","null","",NA,NA,NA,NA,""
"image-keyboard-response",218,195619,"0.0-3.69-0.69","csxjwv5nkgxo4ro",476,"10.csv","","34.69999998807907","resources/trios/L2T4A1.jpg","39","restless",0.6,0.4,0.3,0.245190651948434,"true"
"image-keyboard-response",219,196023,"0.0-3.69-1.69","csxjwv5nkgxo4ro",476,"10.csv","","null","resources/maskTrios/BBA1.jpg","null","",NA,NA,NA,NA,""
"image-keyboard-response",220,197227,"0.0-3.69-2.69","csxjwv5nkgxo4ro",476,"10.csv","","null","resources/images/coin2.png","null","",NA,NA,NA,NA,""
"image-keyboard-response",221,197233,"0.0-3.70-0.70","csxjwv5nkgxo4ro",476,"10.csv","","4","resources/trios/L2T4A3.jpg","37","restless",0.6,0.4,0.3,0.792224940832808,"false"
"image-keyboard-response",222,197636,"0.0-3.70-1.70","csxjwv5nkgxo4ro",476,"10.csv","","null","resources/maskTrios/L2BB.jpg","null","",NA,NA,NA,NA,""
"image-keyboard-response",223,198842,"0.0-3.70-2.70","csxjwv5nkgxo4ro",476,"10.csv","","null","resources/images/fishbone.png","null","",NA,NA,NA,NA,""
"image-keyboard-response",224,199643,"0.0-3.71-0.71","csxjwv5nkgxo4ro",476,"10.csv","","798","resources/trios/L2T1A1.jpg","37","restless",0.7,0.4,0.3,0.766508693622445,"false"
"image-keyboard-response",225,200050,"0.0-3.71-1.71","csxjwv5nkgxo4ro",476,"10.csv","","null","resources/maskTrios/L2BB.jpg","null","",NA,NA,NA,NA,""
"image-keyboard-response",226,201253,"0.0-3.71-2.71","csxjwv5nkgxo4ro",476,"10.csv","","null","resources/images/fishbone.png","null","",NA,NA,NA,NA,""
"image-keyboard-response",227,201750,"0.0-3.72-0.72","csxjwv5nkgxo4ro",476,"10.csv","","495.09999999403954","resources/trios/L4T1A1.jpg","39","restless",0.7,0.3,0.3,0.949009095421157,"false"
"image-keyboard-response",228,202156,"0.0-3.72-1.72","csxjwv5nkgxo4ro",476,"10.csv","","null","resources/maskTrios/BBA1.jpg","null","",NA,NA,NA,NA,""
"image-keyboard-response",229,203362,"0.0-3.72-2.72","csxjwv5nkgxo4ro",476,"10.csv","","null","resources/images/fishbone.png","null","",NA,NA,NA,NA,""
"image-keyboard-response",230,203452,"0.0-3.73-0.73","csxjwv5nkgxo4ro",476,"10.csv","","88.69999998807907","resources/trios/L2T1A3.jpg","38","restless",0.7,0.3,0.3,0.915494652479897,"false"
"image-keyboard-response",231,203856,"0.0-3.73-1.73","csxjwv5nkgxo4ro",476,"10.csv","","null","resources/maskTrios/BT1B.jpg","null","",NA,NA,NA,NA,""
"image-keyboard-response",232,205063,"0.0-3.73-2.73","csxjwv5nkgxo4ro",476,"10.csv","","null","resources/images/fishbone.png","null","",NA,NA,NA,NA,""
"image-keyboard-response",233,205823,"0.0-3.74-0.74","csxjwv5nkgxo4ro",476,"10.csv","","758.3000000119209","resources/trios/L4T1A1.jpg","37","restless",0.7,0.3,0.3,0.947663833422109,"false"
"image-keyboard-response",234,206226,"0.0-3.74-1.74","csxjwv5nkgxo4ro",476,"10.csv","","null","resources/maskTrios/L4BB.jpg","null","",NA,NA,NA,NA,""
"image-keyboard-response",235,207432,"0.0-3.74-2.74","csxjwv5nkgxo4ro",476,"10.csv","","null","resources/images/fishbone.png","null","",NA,NA,NA,NA,""
"image-keyboard-response",236,208460,"0.0-3.75-0.75","csxjwv5nkgxo4ro",476,"10.csv","","1026","resources/trios/L4T1A1.jpg","38","restless",0.7,0.3,0.3,0.7456442267182,"false"
"image-keyboard-response",237,208867,"0.0-3.75-1.75","csxjwv5nkgxo4ro",476,"10.csv","","null","resources/maskTrios/BT1B.jpg","null","",NA,NA,NA,NA,""
"image-keyboard-response",238,210071,"0.0-3.75-2.75","csxjwv5nkgxo4ro",476,"10.csv","","null","resources/images/fishbone.png","null","",NA,NA,NA,NA,""
"image-keyboard-response",239,210481,"0.0-3.76-0.76","csxjwv5nkgxo4ro",476,"10.csv","","407.60000002384186","resources/trios/L4T4A1.jpg","38","restless",0.7,0.4,0.2,0.711265699568581,"false"
"image-keyboard-response",240,210884,"0.0-3.76-1.76","csxjwv5nkgxo4ro",476,"10.csv","","null","resources/maskTrios/BT4B.jpg","null","",NA,NA,NA,NA,""
"image-keyboard-response",241,212091,"0.0-3.76-2.76","csxjwv5nkgxo4ro",476,"10.csv","","null","resources/images/fishbone.png","null","",NA,NA,NA,NA,""
"image-keyboard-response",242,213173,"0.0-3.77-0.77","csxjwv5nkgxo4ro",476,"10.csv","","1079.7999999821186","resources/trios/L4T1A1.jpg","38","restless",0.7,0.4,0.2,0.236059064763698,"true"
"image-keyboard-response",243,213580,"0.0-3.77-1.77","csxjwv5nkgxo4ro",476,"10.csv","","null","resources/maskTrios/BT1B.jpg","null","",NA,NA,NA,NA,""
"image-keyboard-response",244,214787,"0.0-3.77-2.77","csxjwv5nkgxo4ro",476,"10.csv","","null","resources/images/coin2.png","null","",NA,NA,NA,NA,""
"image-keyboard-response",245,215209,"0.0-3.78-0.78","csxjwv5nkgxo4ro",476,"10.csv","","419.40000000596046","resources/trios/L2T4A3.jpg","38","restless",0.7,0.4,0.2,0.885170857384234,"false"
"image-keyboard-response",246,215613,"0.0-3.78-1.78","csxjwv5nkgxo4ro",476,"10.csv","","null","resources/maskTrios/BT4B.jpg","null","",NA,NA,NA,NA,""
"image-keyboard-response",247,216819,"0.0-3.78-2.78","csxjwv5nkgxo4ro",476,"10.csv","","null","resources/images/fishbone.png","null","",NA,NA,NA,NA,""
"image-keyboard-response",248,217039,"0.0-3.79-0.79","csxjwv5nkgxo4ro",476,"10.csv","","217.19999998807907","resources/trios/L2T1A1.jpg","39","restless",0.7,0.4,0.2,0.187301774942919,"true"
"image-keyboard-response",249,217445,"0.0-3.79-1.79","csxjwv5nkgxo4ro",476,"10.csv","","null","resources/maskTrios/BBA1.jpg","null","",NA,NA,NA,NA,""
"image-keyboard-response",250,218649,"0.0-3.79-2.79","csxjwv5nkgxo4ro",476,"10.csv","","null","resources/images/coin2.png","null","",NA,NA,NA,NA,""
"image-keyboard-response",251,219295,"0.0-3.80-0.80","csxjwv5nkgxo4ro",476,"10.csv","","644.5","resources/trios/L2T4A3.jpg","39","restless",0.7,0.4,0.3,0.314370739698847,"false"
"image-keyboard-response",252,219702,"0.0-3.80-1.80","csxjwv5nkgxo4ro",476,"10.csv","","null","resources/maskTrios/BBA3.jpg","null","",NA,NA,NA,NA,""
"image-keyboard-response",253,220905,"0.0-3.80-2.80","csxjwv5nkgxo4ro",476,"10.csv","","null","resources/images/fishbone.png","null","",NA,NA,NA,NA,""
"image-keyboard-response",254,221086,"0.0-3.81-0.81","csxjwv5nkgxo4ro",476,"10.csv","","178.59999999403954","resources/trios/L2T4A1.jpg","38","restless",0.7,0.4,0.3,0.774768134266195,"false"
"image-keyboard-response",255,221493,"0.0-3.81-1.81","csxjwv5nkgxo4ro",476,"10.csv","","null","resources/maskTrios/BT4B.jpg","null","",NA,NA,NA,NA,""
"image-keyboard-response",256,222700,"0.0-3.81-2.81","csxjwv5nkgxo4ro",476,"10.csv","","null","resources/images/fishbone.png","null","",NA,NA,NA,NA,""
"image-keyboard-response",257,223040,"0.0-3.82-0.82","csxjwv5nkgxo4ro",476,"10.csv","","337.69999998807907","resources/trios/L2T4A1.jpg","37","restless",0.8,0.4,0.4,0.0837541134569413,"true"
"image-keyboard-response",258,223443,"0.0-3.82-1.82","csxjwv5nkgxo4ro",476,"10.csv","","null","resources/maskTrios/L2BB.jpg","null","",NA,NA,NA,NA,""
"image-keyboard-response",259,224649,"0.0-3.82-2.82","csxjwv5nkgxo4ro",476,"10.csv","","null","resources/images/coin2.png","null","",NA,NA,NA,NA,""
"image-keyboard-response",260,226054,"0.0-3.83-0.83","csxjwv5nkgxo4ro",476,"10.csv","","1403.5999999940395","resources/trios/L2T1A3.jpg","38","restless",0.8,0.4,0.4,0.616047540399064,"false"
"image-keyboard-response",261,226462,"0.0-3.83-1.83","csxjwv5nkgxo4ro",476,"10.csv","","null","resources/maskTrios/BT1B.jpg","null","",NA,NA,NA,NA,""
"image-keyboard-response",262,227669,"0.0-3.83-2.83","csxjwv5nkgxo4ro",476,"10.csv","","null","resources/images/fishbone.png","null","",NA,NA,NA,NA,""
"image-keyboard-response",263,227751,"0.0-3.84-0.84","csxjwv5nkgxo4ro",476,"10.csv","","79.7999999821186","resources/trios/L4T4A3.jpg","38","restless",0.9,0.4,0.4,0.550032141950053,"false"
"image-keyboard-response",264,228155,"0.0-3.84-1.84","csxjwv5nkgxo4ro",476,"10.csv","","null","resources/maskTrios/BT4B.jpg","null","",NA,NA,NA,NA,""
"image-keyboard-response",265,229362,"0.0-3.84-2.84","csxjwv5nkgxo4ro",476,"10.csv","","null","resources/images/fishbone.png","null","",NA,NA,NA,NA,""
"image-keyboard-response",266,230553,"0.0-3.85-0.85","csxjwv5nkgxo4ro",476,"10.csv","","1189.5999999940395","resources/trios/L4T1A1.jpg","38","restless",0.9,0.4,0.4,0.154035074327527,"true"
"image-keyboard-response",267,230959,"0.0-3.85-1.85","csxjwv5nkgxo4ro",476,"10.csv","","null","resources/maskTrios/BT1B.jpg","null","",NA,NA,NA,NA,""
"image-keyboard-response",268,232162,"0.0-3.85-2.85","csxjwv5nkgxo4ro",476,"10.csv","","null","resources/images/coin2.png","null","",NA,NA,NA,NA,""
"image-keyboard-response",269,232266,"0.0-3.86-0.86","csxjwv5nkgxo4ro",476,"10.csv","","103.59999999403954","resources/trios/L4T1A3.jpg","37","restless",0.9,0.4,0.4,0.161813658337358,"true"
"image-keyboard-response",270,232667,"0.0-3.86-1.86","csxjwv5nkgxo4ro",476,"10.csv","","null","resources/maskTrios/L4BB.jpg","null","",NA,NA,NA,NA,""
"image-keyboard-response",271,233870,"0.0-3.86-2.86","csxjwv5nkgxo4ro",476,"10.csv","","null","resources/images/coin2.png","null","",NA,NA,NA,NA,""
"image-keyboard-response",272,233875,"0.0-3.87-0.87","csxjwv5nkgxo4ro",476,"10.csv","","2.600000023841858","resources/trios/L4T4A3.jpg","38","restless",0.9,0.4,0.4,0.381442464752267,"true"
"image-keyboard-response",273,234280,"0.0-3.87-1.87","csxjwv5nkgxo4ro",476,"10.csv","","null","resources/maskTrios/BT4B.jpg","null","",NA,NA,NA,NA,""
"image-keyboard-response",274,235485,"0.0-3.87-2.87","csxjwv5nkgxo4ro",476,"10.csv","","null","resources/images/coin2.png","null","",NA,NA,NA,NA,""
"image-keyboard-response",275,235571,"0.0-3.88-0.88","csxjwv5nkgxo4ro",476,"10.csv","","84.5","resources/trios/L2T1A1.jpg","38","restless",0.9,0.4,0.4,0.203480926021871,"true"
"image-keyboard-response",276,235979,"0.0-3.88-1.88","csxjwv5nkgxo4ro",476,"10.csv","","null","resources/maskTrios/BT1B.jpg","null","",NA,NA,NA,NA,""
"image-keyboard-response",277,237185,"0.0-3.88-2.88","csxjwv5nkgxo4ro",476,"10.csv","","null","resources/images/coin2.png","null","",NA,NA,NA,NA,""
"image-keyboard-response",278,237244,"0.0-3.89-0.89","csxjwv5nkgxo4ro",476,"10.csv","","56.900000005960464","resources/trios/L4T4A1.jpg","38","restless",0.9,0.3,0.4,0.820770957324759,"false"
"image-keyboard-response",279,237651,"0.0-3.89-1.89","csxjwv5nkgxo4ro",476,"10.csv","","null","resources/maskTrios/BT4B.jpg","null","",NA,NA,NA,NA,""
"image-keyboard-response",280,238858,"0.0-3.89-2.89","csxjwv5nkgxo4ro",476,"10.csv","","null","resources/images/fishbone.png","null","",NA,NA,NA,NA,""
"image-keyboard-response",281,238872,"0.0-3.90-0.90","csxjwv5nkgxo4ro",476,"10.csv","","12","resources/trios/L4T1A1.jpg","38","restless",0.9,0.3,0.4,0.905241405982662,"false"
"image-keyboard-response",282,239278,"0.0-3.90-1.90","csxjwv5nkgxo4ro",476,"10.csv","","null","resources/maskTrios/BT1B.jpg","null","",NA,NA,NA,NA,""
"image-keyboard-response",283,240481,"0.0-3.90-2.90","csxjwv5nkgxo4ro",476,"10.csv","","null","resources/images/fishbone.png","null","",NA,NA,NA,NA,""
"image-keyboard-response",284,240574,"0.0-3.91-0.91","csxjwv5nkgxo4ro",476,"10.csv","","91","resources/trios/L4T4A1.jpg","39","restless",0.9,0.3,0.5,0.200091595291425,"true"
"image-keyboard-response",285,240981,"0.0-3.91-1.91","csxjwv5nkgxo4ro",476,"10.csv","","null","resources/maskTrios/BBA1.jpg","null","",NA,NA,NA,NA,""
"image-keyboard-response",286,242188,"0.0-3.91-2.91","csxjwv5nkgxo4ro",476,"10.csv","","null","resources/images/coin2.png","null","",NA,NA,NA,NA,""
"image-keyboard-response",287,242378,"0.0-3.92-0.92","csxjwv5nkgxo4ro",476,"10.csv","","188.5","resources/trios/L2T4A3.jpg","37","restless",0.9,0.3,0.5,0.478669733222406,"true"
"image-keyboard-response",288,242786,"0.0-3.92-1.92","csxjwv5nkgxo4ro",476,"10.csv","","null","resources/maskTrios/L2BB.jpg","null","",NA,NA,NA,NA,""
"image-keyboard-response",289,243993,"0.0-3.92-2.92","csxjwv5nkgxo4ro",476,"10.csv","","null","resources/images/coin2.png","null","",NA,NA,NA,NA,""
"image-keyboard-response",290,244196,"0.0-3.93-0.93","csxjwv5nkgxo4ro",476,"10.csv","","201.09999999403954","resources/trios/L4T4A1.jpg","38","restless",0.9,0.3,0.5,0.660665267227105,"false"
"image-keyboard-response",291,244602,"0.0-3.93-1.93","csxjwv5nkgxo4ro",476,"10.csv","","null","resources/maskTrios/BT4B.jpg","null","",NA,NA,NA,NA,""
"image-keyboard-response",292,245804,"0.0-3.93-2.93","csxjwv5nkgxo4ro",476,"10.csv","","null","resources/images/fishbone.png","null","",NA,NA,NA,NA,""
"image-keyboard-response",293,246072,"0.0-3.94-0.94","csxjwv5nkgxo4ro",476,"10.csv","","266.30000001192093","resources/trios/L4T4A1.jpg","39","restless",0.9,0.3,0.4,0.511652839678508,"false"
"image-keyboard-response",294,246478,"0.0-3.94-1.94","csxjwv5nkgxo4ro",476,"10.csv","","null","resources/maskTrios/BBA1.jpg","null","",NA,NA,NA,NA,""
"image-keyboard-response",295,247680,"0.0-3.94-2.94","csxjwv5nkgxo4ro",476,"10.csv","","null","resources/images/fishbone.png","null","",NA,NA,NA,NA,""
"image-keyboard-response",296,247782,"0.0-3.95-0.95","csxjwv5nkgxo4ro",476,"10.csv","","99.09999999403954","resources/trios/L2T4A1.jpg","38","restless",0.9,0.3,0.4,0.3655793058221,"false"
"image-keyboard-response",297,248185,"0.0-3.95-1.95","csxjwv5nkgxo4ro",476,"10.csv","","null","resources/maskTrios/BT4B.jpg","null","",NA,NA,NA,NA,""
"image-keyboard-response",298,249388,"0.0-3.95-2.95","csxjwv5nkgxo4ro",476,"10.csv","","null","resources/images/fishbone.png","null","",NA,NA,NA,NA,""
"image-keyboard-response",299,249460,"0.0-3.96-0.96","csxjwv5nkgxo4ro",476,"10.csv","","70.10000002384186","resources/trios/L4T1A1.jpg","37","restless",0.8,0.3,0.4,0.654123135356536,"true"
"image-keyboard-response",300,249864,"0.0-3.96-1.96","csxjwv5nkgxo4ro",476,"10.csv","","null","resources/maskTrios/L4BB.jpg","null","",NA,NA,NA,NA,""
"image-keyboard-response",301,251071,"0.0-3.96-2.96","csxjwv5nkgxo4ro",476,"10.csv","","null","resources/images/coin2.png","null","",NA,NA,NA,NA,""
"image-keyboard-response",302,251079,"0.0-3.97-0.97","csxjwv5nkgxo4ro",476,"10.csv","","5.5","resources/trios/L2T4A3.jpg","38","restless",0.8,0.3,0.4,0.177119028284489,"true"
"image-keyboard-response",303,251486,"0.0-3.97-1.97","csxjwv5nkgxo4ro",476,"10.csv","","null","resources/maskTrios/BT4B.jpg","null","",NA,NA,NA,NA,""
"image-keyboard-response",304,252693,"0.0-3.97-2.97","csxjwv5nkgxo4ro",476,"10.csv","","null","resources/images/coin2.png","null","",NA,NA,NA,NA,""
"image-keyboard-response",305,252865,"0.0-3.98-0.98","csxjwv5nkgxo4ro",476,"10.csv","","170.19999998807907","resources/trios/L4T1A3.jpg","39","restless",0.8,0.3,0.4,0.379470232746659,"true"
"image-keyboard-response",306,253270,"0.0-3.98-1.98","csxjwv5nkgxo4ro",476,"10.csv","","null","resources/maskTrios/BBA3.jpg","null","",NA,NA,NA,NA,""
"image-keyboard-response",307,254477,"0.0-3.98-2.98","csxjwv5nkgxo4ro",476,"10.csv","","null","resources/images/coin2.png","null","",NA,NA,NA,NA,""
"image-keyboard-response",308,254595,"0.0-3.99-0.99","csxjwv5nkgxo4ro",476,"10.csv","","115.7999999821186","resources/trios/L4T4A3.jpg","37","restless",0.8,0.3,0.4,0.481206068798059,"true"
"image-keyboard-response",309,255002,"0.0-3.99-1.99","csxjwv5nkgxo4ro",476,"10.csv","","null","resources/maskTrios/L4BB.jpg","null","",NA,NA,NA,NA,""
"image-keyboard-response",310,256209,"0.0-3.99-2.99","csxjwv5nkgxo4ro",476,"10.csv","","null","resources/images/coin2.png","null","",NA,NA,NA,NA,""
"image-keyboard-response",311,256408,"0.0-3.100-0.100","csxjwv5nkgxo4ro",476,"10.csv","","196.30000001192093","resources/trios/L2T1A1.jpg","38","restless",0.8,0.3,0.4,0.101352997060624,"true"
"image-keyboard-response",312,256815,"0.0-3.100-1.100","csxjwv5nkgxo4ro",476,"10.csv","","null","resources/maskTrios/BT1B.jpg","null","",NA,NA,NA,NA,""
"image-keyboard-response",313,258020,"0.0-3.100-2.100","csxjwv5nkgxo4ro",476,"10.csv","","null","resources/images/coin2.png","null","",NA,NA,NA,NA,""
"image-keyboard-response",314,258173,"0.0-3.101-0.101","csxjwv5nkgxo4ro",476,"10.csv","","150.7000000178814","resources/trios/L4T4A3.jpg","39","restless",0.8,0.3,0.4,0.666132883257119,"false"
"image-keyboard-response",315,258580,"0.0-3.101-1.101","csxjwv5nkgxo4ro",476,"10.csv","","null","resources/maskTrios/BBA3.jpg","null","",NA,NA,NA,NA,""
"image-keyboard-response",316,259782,"0.0-3.101-2.101","csxjwv5nkgxo4ro",476,"10.csv","","null","resources/images/fishbone.png","null","",NA,NA,NA,NA,""
"image-keyboard-response",317,259997,"0.0-3.102-0.102","csxjwv5nkgxo4ro",476,"10.csv","","213","resources/trios/L4T1A3.jpg","37","restless",0.8,0.3,0.4,0.868053100187856,"false"
"image-keyboard-response",318,260401,"0.0-3.102-1.102","csxjwv5nkgxo4ro",476,"10.csv","","null","resources/maskTrios/L4BB.jpg","null","",NA,NA,NA,NA,""
"image-keyboard-response",319,261603,"0.0-3.102-2.102","csxjwv5nkgxo4ro",476,"10.csv","","null","resources/images/fishbone.png","null","",NA,NA,NA,NA,""
"image-keyboard-response",320,261775,"0.0-3.103-0.103","csxjwv5nkgxo4ro",476,"10.csv","","170.7000000178814","resources/trios/L4T1A3.jpg","38","restless",0.8,0.4,0.4,0.03550404477289,"true"
"image-keyboard-response",321,262179,"0.0-3.103-1.103","csxjwv5nkgxo4ro",476,"10.csv","","null","resources/maskTrios/BT1B.jpg","null","",NA,NA,NA,NA,""
"image-keyboard-response",322,263386,"0.0-3.103-2.103","csxjwv5nkgxo4ro",476,"10.csv","","null","resources/images/coin2.png","null","",NA,NA,NA,NA,""
"image-keyboard-response",323,263487,"0.0-3.104-0.104","csxjwv5nkgxo4ro",476,"10.csv","","99.19999998807907","resources/trios/L4T1A1.jpg","39","restless",0.8,0.4,0.4,0.488123429162528,"false"
"image-keyboard-response",324,263894,"0.0-3.104-1.104","csxjwv5nkgxo4ro",476,"10.csv","","null","resources/maskTrios/BBA1.jpg","null","",NA,NA,NA,NA,""
"image-keyboard-response",325,265099,"0.0-3.104-2.104","csxjwv5nkgxo4ro",476,"10.csv","","null","resources/images/fishbone.png","null","",NA,NA,NA,NA,""
"image-keyboard-response",326,265260,"0.0-3.105-0.105","csxjwv5nkgxo4ro",476,"10.csv","","158.40000000596046","resources/trios/L2T4A1.jpg","37","restless",0.8,0.4,0.4,0.205692873087786,"true"
"image-keyboard-response",327,265664,"0.0-3.105-1.105","csxjwv5nkgxo4ro",476,"10.csv","","null","resources/maskTrios/L2BB.jpg","null","",NA,NA,NA,NA,""
"image-keyboard-response",328,266871,"0.0-3.105-2.105","csxjwv5nkgxo4ro",476,"10.csv","","null","resources/images/coin2.png","null","",NA,NA,NA,NA,""
"image-keyboard-response",329,267051,"0.0-3.106-0.106","csxjwv5nkgxo4ro",476,"10.csv","","177.2999999821186","resources/trios/L4T4A3.jpg","38","restless",0.8,0.4,0.4,0.284190819332457,"true"
"image-keyboard-response",330,267456,"0.0-3.106-1.106","csxjwv5nkgxo4ro",476,"10.csv","","null","resources/maskTrios/BT4B.jpg","null","",NA,NA,NA,NA,""
"image-keyboard-response",331,268659,"0.0-3.106-2.106","csxjwv5nkgxo4ro",476,"10.csv","","null","resources/images/coin2.png","null","",NA,NA,NA,NA,""
"image-keyboard-response",332,268875,"0.0-3.107-0.107","csxjwv5nkgxo4ro",476,"10.csv","","214.30000001192093","resources/trios/L2T1A3.jpg","37","restless",0.8,0.4,0.4,0.110888780656391,"true"
"image-keyboard-response",333,269279,"0.0-3.107-1.107","csxjwv5nkgxo4ro",476,"10.csv","","null","resources/maskTrios/L2BB.jpg","null","",NA,NA,NA,NA,""
"image-keyboard-response",334,270481,"0.0-3.107-2.107","csxjwv5nkgxo4ro",476,"10.csv","","null","resources/images/coin2.png","null","",NA,NA,NA,NA,""
"image-keyboard-response",335,270666,"0.0-3.108-0.108","csxjwv5nkgxo4ro",476,"10.csv","","183.19999998807907","resources/trios/L4T4A1.jpg","38","restless",0.8,0.4,0.4,0.617248258376949,"false"
"image-keyboard-response",336,271074,"0.0-3.108-1.108","csxjwv5nkgxo4ro",476,"10.csv","","null","resources/maskTrios/BT4B.jpg","null","",NA,NA,NA,NA,""
"image-keyboard-response",337,272279,"0.0-3.108-2.108","csxjwv5nkgxo4ro",476,"10.csv","","null","resources/images/fishbone.png","null","",NA,NA,NA,NA,""
"image-keyboard-response",338,272305,"0.0-3.109-0.109","csxjwv5nkgxo4ro",476,"10.csv","","23.19999998807907","resources/trios/L4T1A3.jpg","39","restless",0.8,0.4,0.4,0.0453021279301686,"true"
"image-keyboard-response",339,272707,"0.0-3.109-1.109","csxjwv5nkgxo4ro",476,"10.csv","","null","resources/maskTrios/BBA3.jpg","null","",NA,NA,NA,NA,""
"image-keyboard-response",340,273910,"0.0-3.109-2.109","csxjwv5nkgxo4ro",476,"10.csv","","null","resources/images/coin2.png","null","",NA,NA,NA,NA,""
"image-keyboard-response",341,273957,"0.0-3.110-0.110","csxjwv5nkgxo4ro",476,"10.csv","","44.60000002384186","resources/trios/L2T4A1.jpg","37","restless",0.8,0.4,0.4,0.450047590157142,"true"
"image-keyboard-response",342,274361,"0.0-3.110-1.110","csxjwv5nkgxo4ro",476,"10.csv","","null","resources/maskTrios/L2BB.jpg","null","",NA,NA,NA,NA,""
"image-keyboard-response",343,275565,"0.0-3.110-2.110","csxjwv5nkgxo4ro",476,"10.csv","","null","resources/images/coin2.png","null","",NA,NA,NA,NA,""
"image-keyboard-response",344,275571,"0.0-3.111-0.111","csxjwv5nkgxo4ro",476,"10.csv","","4.0999999940395355","resources/trios/L4T4A1.jpg","39","restless",0.8,0.4,0.4,0.310960659717511,"true"
"image-keyboard-response",345,275976,"0.0-3.111-1.111","csxjwv5nkgxo4ro",476,"10.csv","","null","resources/maskTrios/BBA1.jpg","null","",NA,NA,NA,NA,""
"image-keyboard-response",346,277183,"0.0-3.111-2.111","csxjwv5nkgxo4ro",476,"10.csv","","null","resources/images/coin2.png","null","",NA,NA,NA,NA,""
"image-keyboard-response",347,277416,"0.0-3.112-0.112","csxjwv5nkgxo4ro",476,"10.csv","","230.7000000178814","resources/trios/L4T4A1.jpg","37","restless",0.8,0.3,0.4,0.482737663256431,"true"
"image-keyboard-response",348,277822,"0.0-3.112-1.112","csxjwv5nkgxo4ro",476,"10.csv","","null","resources/maskTrios/L4BB.jpg","null","",NA,NA,NA,NA,""
"image-keyboard-response",349,279029,"0.0-3.112-2.112","csxjwv5nkgxo4ro",476,"10.csv","","null","resources/images/coin2.png","null","",NA,NA,NA,NA,""
"image-keyboard-response",350,279121,"0.0-3.113-0.113","csxjwv5nkgxo4ro",476,"10.csv","","90.2999999821186","resources/trios/L4T1A1.jpg","39","restless",0.8,0.3,0.4,0.158177159190753,"true"
"image-keyboard-response",351,279529,"0.0-3.113-1.113","csxjwv5nkgxo4ro",476,"10.csv","","null","resources/maskTrios/BBA1.jpg","null","",NA,NA,NA,NA,""
"image-keyboard-response",352,280736,"0.0-3.113-2.113","csxjwv5nkgxo4ro",476,"10.csv","","null","resources/images/coin2.png","null","",NA,NA,NA,NA,""
"image-keyboard-response",353,280816,"0.0-3.114-0.114","csxjwv5nkgxo4ro",476,"10.csv","","78","resources/trios/L4T1A1.jpg","37","restless",0.8,0.3,0.5,0.801562254452652,"false"
"image-keyboard-response",354,281223,"0.0-3.114-1.114","csxjwv5nkgxo4ro",476,"10.csv","","null","resources/maskTrios/L4BB.jpg","null","",NA,NA,NA,NA,""
"image-keyboard-response",355,282429,"0.0-3.114-2.114","csxjwv5nkgxo4ro",476,"10.csv","","null","resources/images/fishbone.png","null","",NA,NA,NA,NA,""
"image-keyboard-response",356,282479,"0.0-3.115-0.115","csxjwv5nkgxo4ro",476,"10.csv","","48.10000002384186","resources/trios/L4T1A1.jpg","38","restless",0.8,0.3,0.5,0.377728553204854,"false"
"image-keyboard-response",357,282886,"0.0-3.115-1.115","csxjwv5nkgxo4ro",476,"10.csv","","null","resources/maskTrios/BT1B.jpg","null","",NA,NA,NA,NA,""
"image-keyboard-response",358,284093,"0.0-3.115-2.115","csxjwv5nkgxo4ro",476,"10.csv","","null","resources/images/fishbone.png","null","",NA,NA,NA,NA,""
"image-keyboard-response",359,284181,"0.0-3.116-0.116","csxjwv5nkgxo4ro",476,"10.csv","","86.09999999403954","resources/trios/L2T4A3.jpg","39","restless",0.8,0.3,0.5,0.531699425451793,"false"
"image-keyboard-response",360,284588,"0.0-3.116-1.116","csxjwv5nkgxo4ro",476,"10.csv","","null","resources/maskTrios/BBA3.jpg","null","",NA,NA,NA,NA,""
"image-keyboard-response",361,285790,"0.0-3.116-2.116","csxjwv5nkgxo4ro",476,"10.csv","","null","resources/images/fishbone.png","null","",NA,NA,NA,NA,""
"image-keyboard-response",362,285801,"0.0-3.117-0.117","csxjwv5nkgxo4ro",476,"10.csv","","9.099999994039536","resources/trios/L2T4A1.jpg","37","restless",0.9,0.3,0.5,0.806850659197773,"true"
"image-keyboard-response",363,286206,"0.0-3.117-1.117","csxjwv5nkgxo4ro",476,"10.csv","","null","resources/maskTrios/L2BB.jpg","null","",NA,NA,NA,NA,""
"image-keyboard-response",364,287409,"0.0-3.117-2.117","csxjwv5nkgxo4ro",476,"10.csv","","null","resources/images/coin2.png","null","",NA,NA,NA,NA,""
"image-keyboard-response",365,287525,"0.0-3.118-0.118","csxjwv5nkgxo4ro",476,"10.csv","","113.7000000178814","resources/trios/L4T1A1.jpg","38","restless",0.9,0.3,0.5,0.138602083287117,"true"
"image-keyboard-response",366,287929,"0.0-3.118-1.118","csxjwv5nkgxo4ro",476,"10.csv","","null","resources/maskTrios/BT1B.jpg","null","",NA,NA,NA,NA,""
"image-keyboard-response",367,289132,"0.0-3.118-2.118","csxjwv5nkgxo4ro",476,"10.csv","","null","resources/images/coin2.png","null","",NA,NA,NA,NA,""
"image-keyboard-response",368,289226,"0.0-3.119-0.119","csxjwv5nkgxo4ro",476,"10.csv","","91.7000000178814","resources/trios/L2T1A1.jpg","39","restless",0.9,0.3,0.5,0.961839930326109,"false"
"image-keyboard-response",369,289633,"0.0-3.119-1.119","csxjwv5nkgxo4ro",476,"10.csv","","null","resources/maskTrios/BBA1.jpg","null","",NA,NA,NA,NA,""
"image-keyboard-response",370,290835,"0.0-3.119-2.119","csxjwv5nkgxo4ro",476,"10.csv","","null","resources/images/fishbone.png","null","",NA,NA,NA,NA,""
"image-keyboard-response",371,290935,"0.0-3.120-0.120","csxjwv5nkgxo4ro",476,"10.csv","","97.40000000596046","resources/trios/L4T4A3.jpg","38","restless",0.9,0.3,0.5,0.453934981232918,"false"
"image-keyboard-response",372,291341,"0.0-3.120-1.120","csxjwv5nkgxo4ro",476,"10.csv","","null","resources/maskTrios/BT4B.jpg","null","",NA,NA,NA,NA,""
"image-keyboard-response",373,292547,"0.0-3.120-2.120","csxjwv5nkgxo4ro",476,"10.csv","","null","resources/images/fishbone.png","null","",NA,NA,NA,NA,""
"image-keyboard-response",374,292704,"0.0-3.121-0.121","csxjwv5nkgxo4ro",476,"10.csv","","155.19999998807907","resources/trios/L2T4A1.jpg","37","restless",0.9,0.3,0.5,0.372262420839,"true"
"image-keyboard-response",375,293112,"0.0-3.121-1.121","csxjwv5nkgxo4ro",476,"10.csv","","null","resources/maskTrios/L2BB.jpg","null","",NA,NA,NA,NA,""
"image-keyboard-response",376,294319,"0.0-3.121-2.121","csxjwv5nkgxo4ro",476,"10.csv","","null","resources/images/coin2.png","null","",NA,NA,NA,NA,""
"image-keyboard-response",377,294343,"0.0-3.122-0.122","csxjwv5nkgxo4ro",476,"10.csv","","21.700000017881393","resources/trios/L2T4A1.jpg","38","restless",0.9,0.3,0.5,0.26347717281386,"true"
"image-keyboard-response",378,294750,"0.0-3.122-1.122","csxjwv5nkgxo4ro",476,"10.csv","","null","resources/maskTrios/BT4B.jpg","null","",NA,NA,NA,NA,""
"image-keyboard-response",379,295958,"0.0-3.122-2.122","csxjwv5nkgxo4ro",476,"10.csv","","null","resources/images/coin2.png","null","",NA,NA,NA,NA,""
"image-keyboard-response",380,295986,"0.0-3.123-0.123","csxjwv5nkgxo4ro",476,"10.csv","","26.200000017881393","resources/trios/L2T4A1.jpg","39","restless",0.9,0.3,0.5,0.496557300022917,"true"
"image-keyboard-response",381,296390,"0.0-3.123-1.123","csxjwv5nkgxo4ro",476,"10.csv","","null","resources/maskTrios/BBA1.jpg","null","",NA,NA,NA,NA,""
"image-keyboard-response",382,297597,"0.0-3.123-2.123","csxjwv5nkgxo4ro",476,"10.csv","","null","resources/images/coin2.png","null","",NA,NA,NA,NA,""
"image-keyboard-response",383,297671,"0.0-3.124-0.124","csxjwv5nkgxo4ro",476,"10.csv","","72.5","resources/trios/L2T4A3.jpg","39","restless",0.9,0.4,0.5,0.116084087491724,"true"
"image-keyboard-response",384,298078,"0.0-3.124-1.124","csxjwv5nkgxo4ro",476,"10.csv","","null","resources/maskTrios/BBA3.jpg","null","",NA,NA,NA,NA,""
"image-keyboard-response",385,299281,"0.0-3.124-2.124","csxjwv5nkgxo4ro",476,"10.csv","","null","resources/images/coin2.png","null","",NA,NA,NA,NA,""
"image-keyboard-response",386,299368,"0.0-3.125-0.125","csxjwv5nkgxo4ro",476,"10.csv","","84.90000000596046","resources/trios/L2T4A3.jpg","38","restless",0.9,0.4,0.5,0.622571949355276,"false"
"image-keyboard-response",387,299775,"0.0-3.125-1.125","csxjwv5nkgxo4ro",476,"10.csv","","null","resources/maskTrios/BT4B.jpg","null","",NA,NA,NA,NA,""
"image-keyboard-response",388,300980,"0.0-3.125-2.125","csxjwv5nkgxo4ro",476,"10.csv","","null","resources/images/fishbone.png","null","",NA,NA,NA,NA,""
"image-keyboard-response",389,301172,"0.0-3.126-0.126","csxjwv5nkgxo4ro",476,"10.csv","","189.59999999403954","resources/trios/L2T1A3.jpg","38","restless",0.9,0.4,0.5,0.626235713721427,"false"
"image-keyboard-response",390,301578,"0.0-3.126-1.126","csxjwv5nkgxo4ro",476,"10.csv","","null","resources/maskTrios/BT1B.jpg","null","",NA,NA,NA,NA,""
"image-keyboard-response",391,302781,"0.0-3.126-2.126","csxjwv5nkgxo4ro",476,"10.csv","","null","resources/images/fishbone.png","null","",NA,NA,NA,NA,""
"image-keyboard-response",392,303339,"0.0-3.127-0.127","csxjwv5nkgxo4ro",476,"10.csv","","555.7999999821186","resources/trios/L4T4A1.jpg","38","restless",0.9,0.4,0.5,0.588908563425656,"false"
"image-keyboard-response",393,303741,"0.0-3.127-1.127","csxjwv5nkgxo4ro",476,"10.csv","","null","resources/maskTrios/BT4B.jpg","null","",NA,NA,NA,NA,""
"image-keyboard-response",394,304948,"0.0-3.127-2.127","csxjwv5nkgxo4ro",476,"10.csv","","null","resources/images/fishbone.png","null","",NA,NA,NA,NA,""
"image-keyboard-response",395,305253,"0.0-3.128-0.128","csxjwv5nkgxo4ro",476,"10.csv","","303.40000000596046","resources/trios/L4T4A3.jpg","38","restless",0.9,0.4,0.5,0.478795877424641,"false"
"image-keyboard-response",396,305661,"0.0-3.128-1.128","csxjwv5nkgxo4ro",476,"10.csv","","null","resources/maskTrios/BT4B.jpg","null","",NA,NA,NA,NA,""
"image-keyboard-response",397,306868,"0.0-3.128-2.128","csxjwv5nkgxo4ro",476,"10.csv","","null","resources/images/fishbone.png","null","",NA,NA,NA,NA,""
"image-keyboard-response",398,306980,"0.0-3.129-0.129","csxjwv5nkgxo4ro",476,"10.csv","","110.30000001192093","resources/trios/L4T1A3.jpg","37","restless",0.8,0.4,0.5,0.851077436953908,"false"
"image-keyboard-response",399,307388,"0.0-3.129-1.129","csxjwv5nkgxo4ro",476,"10.csv","","null","resources/maskTrios/L4BB.jpg","null","",NA,NA,NA,NA,""
"image-keyboard-response",400,308595,"0.0-3.129-2.129","csxjwv5nkgxo4ro",476,"10.csv","","null","resources/images/fishbone.png","null","",NA,NA,NA,NA,""
"image-keyboard-response",401,308737,"0.0-3.130-0.130","csxjwv5nkgxo4ro",476,"10.csv","","139.80000001192093","resources/trios/L4T4A3.jpg","38","restless",0.8,0.5,0.5,0.680203129467357,"false"
"image-keyboard-response",402,309144,"0.0-3.130-1.130","csxjwv5nkgxo4ro",476,"10.csv","","null","resources/maskTrios/BT4B.jpg","null","",NA,NA,NA,NA,""
"image-keyboard-response",403,310351,"0.0-3.130-2.130","csxjwv5nkgxo4ro",476,"10.csv","","null","resources/images/fishbone.png","null","",NA,NA,NA,NA,""
"image-keyboard-response",404,310655,"0.0-3.131-0.131","csxjwv5nkgxo4ro",476,"10.csv","","301.2000000178814","resources/trios/L4T1A3.jpg","39","restless",0.8,0.4,0.5,0.632476839037007,"false"
"image-keyboard-response",405,311062,"0.0-3.131-1.131","csxjwv5nkgxo4ro",476,"10.csv","","null","resources/maskTrios/BBA3.jpg","null","",NA,NA,NA,NA,""
"image-keyboard-response",406,312268,"0.0-3.131-2.131","csxjwv5nkgxo4ro",476,"10.csv","","null","resources/images/fishbone.png","null","",NA,NA,NA,NA,""
"image-keyboard-response",407,312633,"0.0-3.132-0.132","csxjwv5nkgxo4ro",476,"10.csv","","362.89999997615814","resources/trios/L2T4A1.jpg","39","restless",0.8,0.4,0.5,0.954230419338735,"false"
"image-keyboard-response",408,313035,"0.0-3.132-1.132","csxjwv5nkgxo4ro",476,"10.csv","","null","resources/maskTrios/BBA1.jpg","null","",NA,NA,NA,NA,""
"image-keyboard-response",409,314241,"0.0-3.132-2.132","csxjwv5nkgxo4ro",476,"10.csv","","null","resources/images/fishbone.png","null","",NA,NA,NA,NA,""
"image-keyboard-response",410,314500,"0.0-3.133-0.133","csxjwv5nkgxo4ro",476,"10.csv","","257.69999998807907","resources/trios/L2T4A1.jpg","38","restless",0.8,0.4,0.5,0.789645030650558,"false"
"image-keyboard-response",411,314905,"0.0-3.133-1.133","csxjwv5nkgxo4ro",476,"10.csv","","null","resources/maskTrios/BT4B.jpg","null","",NA,NA,NA,NA,""
"image-keyboard-response",412,316112,"0.0-3.133-2.133","csxjwv5nkgxo4ro",476,"10.csv","","null","resources/images/fishbone.png","null","",NA,NA,NA,NA,""
"image-keyboard-response",413,316459,"0.0-3.134-0.134","csxjwv5nkgxo4ro",476,"10.csv","","345.90000000596046","resources/trios/L4T1A1.jpg","38","restless",0.8,0.5,0.6,0.0455716536855644,"true"
"image-keyboard-response",414,316866,"0.0-3.134-1.134","csxjwv5nkgxo4ro",476,"10.csv","","null","resources/maskTrios/BT1B.jpg","null","",NA,NA,NA,NA,""
"image-keyboard-response",415,318070,"0.0-3.134-2.134","csxjwv5nkgxo4ro",476,"10.csv","","null","resources/images/coin2.png","null","",NA,NA,NA,NA,""
"image-keyboard-response",416,319267,"0.0-3.135-0.135","csxjwv5nkgxo4ro",476,"10.csv","","1195.8999999761581","resources/trios/L4T1A3.jpg","37","restless",0.8,0.5,0.6,0.651032326285744,"true"
"image-keyboard-response",417,319672,"0.0-3.135-1.135","csxjwv5nkgxo4ro",476,"10.csv","","null","resources/maskTrios/L4BB.jpg","null","",NA,NA,NA,NA,""
"image-keyboard-response",418,320877,"0.0-3.135-2.135","csxjwv5nkgxo4ro",476,"10.csv","","null","resources/images/coin2.png","null","",NA,NA,NA,NA,""
"image-keyboard-response",419,321085,"0.0-3.136-0.136","csxjwv5nkgxo4ro",476,"10.csv","","205.59999999403954","resources/trios/L2T1A3.jpg","38","restless",0.8,0.5,0.6,0.472620729601073,"true"
"image-keyboard-response",420,321488,"0.0-3.136-1.136","csxjwv5nkgxo4ro",476,"10.csv","","null","resources/maskTrios/BT1B.jpg","null","",NA,NA,NA,NA,""
"image-keyboard-response",421,322691,"0.0-3.136-2.136","csxjwv5nkgxo4ro",476,"10.csv","","null","resources/images/coin2.png","null","",NA,NA,NA,NA,""
"image-keyboard-response",422,322817,"0.0-3.137-0.137","csxjwv5nkgxo4ro",476,"10.csv","","124.5","resources/trios/L4T1A1.jpg","38","restless",0.8,0.5,0.6,0.667098131200871,"false"
"image-keyboard-response",423,323222,"0.0-3.137-1.137","csxjwv5nkgxo4ro",476,"10.csv","","null","resources/maskTrios/BT1B.jpg","null","",NA,NA,NA,NA,""
"image-keyboard-response",424,324424,"0.0-3.137-2.137","csxjwv5nkgxo4ro",476,"10.csv","","null","resources/images/fishbone.png","null","",NA,NA,NA,NA,""
"image-keyboard-response",425,324873,"0.0-3.138-0.138","csxjwv5nkgxo4ro",476,"10.csv","","448.40000000596046","resources/trios/L4T1A1.jpg","37","restless",0.8,0.5,0.6,0.241435278255659,"true"
"image-keyboard-response",426,325277,"0.0-3.138-1.138","csxjwv5nkgxo4ro",476,"10.csv","","null","resources/maskTrios/L4BB.jpg","null","",NA,NA,NA,NA,""
"image-keyboard-response",427,326484,"0.0-3.138-2.138","csxjwv5nkgxo4ro",476,"10.csv","","null","resources/images/coin2.png","null","",NA,NA,NA,NA,""
"image-keyboard-response",428,326525,"0.0-3.139-0.139","csxjwv5nkgxo4ro",476,"10.csv","","38.60000002384186","resources/trios/L4T4A1.jpg","39","restless",0.8,0.5,0.6,0.980097286716812,"false"
"image-keyboard-response",429,326927,"0.0-3.139-1.139","csxjwv5nkgxo4ro",476,"10.csv","","null","resources/maskTrios/BBA1.jpg","null","",NA,NA,NA,NA,""
"image-keyboard-response",430,328130,"0.0-3.139-2.139","csxjwv5nkgxo4ro",476,"10.csv","","null","resources/images/fishbone.png","null","",NA,NA,NA,NA,""
"image-keyboard-response",431,328226,"0.0-3.140-0.140","csxjwv5nkgxo4ro",476,"10.csv","","93.90000000596046","resources/trios/L2T4A3.jpg","38","restless",0.8,0.5,0.6,0.670788143896743,"false"
"image-keyboard-response",432,328633,"0.0-3.140-1.140","csxjwv5nkgxo4ro",476,"10.csv","","null","resources/maskTrios/BT4B.jpg","null","",NA,NA,NA,NA,""
"image-keyboard-response",433,329835,"0.0-3.140-2.140","csxjwv5nkgxo4ro",476,"10.csv","","null","resources/images/fishbone.png","null","",NA,NA,NA,NA,""
"image-keyboard-response",434,329875,"0.0-3.141-0.141","csxjwv5nkgxo4ro",476,"10.csv","","38.29999998211861","resources/trios/L2T1A3.jpg","37","restless",0.8,0.5,0.6,0.871626334347302,"false"
"image-keyboard-response",435,330278,"0.0-3.141-1.141","csxjwv5nkgxo4ro",476,"10.csv","","null","resources/maskTrios/L2BB.jpg","null","",NA,NA,NA,NA,""
"image-keyboard-response",436,331482,"0.0-3.141-2.141","csxjwv5nkgxo4ro",476,"10.csv","","null","resources/images/fishbone.png","null","",NA,NA,NA,NA,""
"image-keyboard-response",437,331537,"0.0-3.142-0.142","csxjwv5nkgxo4ro",476,"10.csv","","53.19999998807907","resources/trios/L4T1A1.jpg","38","restless",0.8,0.5,0.6,0.254682647081231,"true"
"image-keyboard-response",438,331942,"0.0-3.142-1.142","csxjwv5nkgxo4ro",476,"10.csv","","null","resources/maskTrios/BT1B.jpg","null","",NA,NA,NA,NA,""
"image-keyboard-response",439,333149,"0.0-3.142-2.142","csxjwv5nkgxo4ro",476,"10.csv","","null","resources/images/coin2.png","null","",NA,NA,NA,NA,""
"image-keyboard-response",440,333190,"0.0-3.143-0.143","csxjwv5nkgxo4ro",476,"10.csv","","38.80000001192093","resources/trios/L4T4A3.jpg","38","restless",0.8,0.5,0.6,0.258735430443932,"true"
"image-keyboard-response",441,333595,"0.0-3.143-1.143","csxjwv5nkgxo4ro",476,"10.csv","","null","resources/maskTrios/BT4B.jpg","null","",NA,NA,NA,NA,""
"image-keyboard-response",442,334802,"0.0-3.143-2.143","csxjwv5nkgxo4ro",476,"10.csv","","null","resources/images/coin2.png","null","",NA,NA,NA,NA,""
"image-keyboard-response",443,334873,"0.0-3.144-0.144","csxjwv5nkgxo4ro",476,"10.csv","","69","resources/trios/L4T1A1.jpg","38","restless",0.8,0.5,0.6,0.0506516883173325,"true"
"image-keyboard-response",444,335277,"0.0-3.144-1.144","csxjwv5nkgxo4ro",476,"10.csv","","null","resources/maskTrios/BT1B.jpg","null","",NA,NA,NA,NA,""
"image-keyboard-response",445,336482,"0.0-3.144-2.144","csxjwv5nkgxo4ro",476,"10.csv","","null","resources/images/coin2.png","null","",NA,NA,NA,NA,""
"image-keyboard-response",446,338805,"0.0-3.145-0.145","csxjwv5nkgxo4ro",476,"10.csv","","2320.5","resources/trios/L2T4A3.jpg","38","restless",0.8,0.5,0.6,0.222565736994247,"true"
"image-keyboard-response",447,339212,"0.0-3.145-1.145","csxjwv5nkgxo4ro",476,"10.csv","","null","resources/maskTrios/BT4B.jpg","null","",NA,NA,NA,NA,""
"image-keyboard-response",448,340417,"0.0-3.145-2.145","csxjwv5nkgxo4ro",476,"10.csv","","null","resources/images/coin2.png","null","",NA,NA,NA,NA,""
"image-keyboard-response",449,340762,"0.0-3.146-0.146","csxjwv5nkgxo4ro",476,"10.csv","","343.59999999403954","resources/trios/L4T4A3.jpg","38","restless",0.8,0.5,0.6,0.357307731799827,"true"
"image-keyboard-response",450,341168,"0.0-3.146-1.146","csxjwv5nkgxo4ro",476,"10.csv","","null","resources/maskTrios/BT4B.jpg","null","",NA,NA,NA,NA,""
"image-keyboard-response",451,342372,"0.0-3.146-2.146","csxjwv5nkgxo4ro",476,"10.csv","","null","resources/images/coin2.png","null","",NA,NA,NA,NA,""
"image-keyboard-response",452,342539,"0.0-3.147-0.147","csxjwv5nkgxo4ro",476,"10.csv","","164.60000002384186","resources/trios/L2T4A1.jpg","39","restless",0.8,0.5,0.6,0.619544083518071,"false"
"image-keyboard-response",453,342943,"0.0-3.147-1.147","csxjwv5nkgxo4ro",476,"10.csv","","null","resources/maskTrios/BBA1.jpg","null","",NA,NA,NA,NA,""
"image-keyboard-response",454,344147,"0.0-3.147-2.147","csxjwv5nkgxo4ro",476,"10.csv","","null","resources/images/fishbone.png","null","",NA,NA,NA,NA,""
"image-keyboard-response",455,344187,"0.0-3.148-0.148","csxjwv5nkgxo4ro",476,"10.csv","","38.69999998807907","resources/trios/L2T1A1.jpg","37","restless",0.7,0.5,0.6,0.791595409037525,"false"
"image-keyboard-response",456,344594,"0.0-3.148-1.148","csxjwv5nkgxo4ro",476,"10.csv","","null","resources/maskTrios/L2BB.jpg","null","",NA,NA,NA,NA,""
"image-keyboard-response",457,345795,"0.0-3.148-2.148","csxjwv5nkgxo4ro",476,"10.csv","","null","resources/images/fishbone.png","null","",NA,NA,NA,NA,""
"image-keyboard-response",458,345940,"0.0-3.149-0.149","csxjwv5nkgxo4ro",476,"10.csv","","143.2000000178814","resources/trios/L4T1A3.jpg","38","restless",0.6,0.5,0.7,0.560136558435784,"false"
"image-keyboard-response",459,346344,"0.0-3.149-1.149","csxjwv5nkgxo4ro",476,"10.csv","","null","resources/maskTrios/BT1B.jpg","null","",NA,NA,NA,NA,""
"image-keyboard-response",460,347548,"0.0-3.149-2.149","csxjwv5nkgxo4ro",476,"10.csv","","null","resources/images/fishbone.png","null","",NA,NA,NA,NA,""
"image-keyboard-response",461,347680,"0.0-3.150-0.150","csxjwv5nkgxo4ro",476,"10.csv","","130.59999999403954","resources/trios/L2T4A3.jpg","39","restless",0.5,0.6,0.8,0.339320933303431,"true"
"image-keyboard-response",462,348085,"0.0-3.150-1.150","csxjwv5nkgxo4ro",476,"10.csv","","null","resources/maskTrios/BBA3.jpg","null","",NA,NA,NA,NA,""
"image-keyboard-response",463,349291,"0.0-3.150-2.150","csxjwv5nkgxo4ro",476,"10.csv","","null","resources/images/coin2.png","null","",NA,NA,NA,NA,""
"image-keyboard-response",464,349355,"0.0-3.151-0.151","csxjwv5nkgxo4ro",476,"10.csv","","61.400000005960464","resources/trios/L2T1A3.jpg","37","restless",0.4,0.6,0.8,0.917045411126461,"false"
"image-keyboard-response",465,349760,"0.0-3.151-1.151","csxjwv5nkgxo4ro",476,"10.csv","","null","resources/maskTrios/L2BB.jpg","null","",NA,NA,NA,NA,""
"image-keyboard-response",466,350963,"0.0-3.151-2.151","csxjwv5nkgxo4ro",476,"10.csv","","null","resources/images/fishbone.png","null","",NA,NA,NA,NA,""
"image-keyboard-response",467,351072,"0.0-3.152-0.152","csxjwv5nkgxo4ro",476,"10.csv","","107.19999998807907","resources/trios/L2T1A3.jpg","38","restless",0.4,0.6,0.8,0.220222837570448,"true"
"image-keyboard-response",468,351476,"0.0-3.152-1.152","csxjwv5nkgxo4ro",476,"10.csv","","null","resources/maskTrios/BT1B.jpg","null","",NA,NA,NA,NA,""
"image-keyboard-response",469,352683,"0.0-3.152-2.152","csxjwv5nkgxo4ro",476,"10.csv","","null","resources/images/coin2.png","null","",NA,NA,NA,NA,""
"image-keyboard-response",470,352701,"0.0-3.153-0.153","csxjwv5nkgxo4ro",476,"10.csv","","16.400000005960464","resources/trios/L4T4A3.jpg","39","restless",0.4,0.6,0.8,0.996016364036893,"false"
"image-keyboard-response",471,353108,"0.0-3.153-1.153","csxjwv5nkgxo4ro",476,"10.csv","","null","resources/maskTrios/BBA3.jpg","null","",NA,NA,NA,NA,""
"image-keyboard-response",472,354310,"0.0-3.153-2.153","csxjwv5nkgxo4ro",476,"10.csv","","null","resources/images/fishbone.png","null","",NA,NA,NA,NA,""
"image-keyboard-response",473,354717,"0.0-3.154-0.154","csxjwv5nkgxo4ro",476,"10.csv","","405","resources/trios/L4T1A3.jpg","38","restless",0.3,0.6,0.8,0.354564067381589,"true"
"image-keyboard-response",474,355124,"0.0-3.154-1.154","csxjwv5nkgxo4ro",476,"10.csv","","null","resources/maskTrios/BT1B.jpg","null","",NA,NA,NA,NA,""
"image-keyboard-response",475,356331,"0.0-3.154-2.154","csxjwv5nkgxo4ro",476,"10.csv","","null","resources/images/coin2.png","null","",NA,NA,NA,NA,""
"image-keyboard-response",476,356387,"0.0-3.155-0.155","csxjwv5nkgxo4ro",476,"10.csv","","54.5","resources/trios/L2T4A3.jpg","37","restless",0.3,0.6,0.8,0.630392362824792,"false"
"image-keyboard-response",477,356791,"0.0-3.155-1.155","csxjwv5nkgxo4ro",476,"10.csv","","null","resources/maskTrios/L2BB.jpg","null","",NA,NA,NA,NA,""
"image-keyboard-response",478,357994,"0.0-3.155-2.155","csxjwv5nkgxo4ro",476,"10.csv","","null","resources/images/fishbone.png","null","",NA,NA,NA,NA,""
"image-keyboard-response",479,358068,"0.0-3.156-0.156","csxjwv5nkgxo4ro",476,"10.csv","","72.19999998807907","resources/trios/L2T1A3.jpg","38","restless",0.3,0.6,0.7,0.102511220443221,"true"
"image-keyboard-response",480,358472,"0.0-3.156-1.156","csxjwv5nkgxo4ro",476,"10.csv","","null","resources/maskTrios/BT1B.jpg","null","",NA,NA,NA,NA,""
"image-keyboard-response",481,359676,"0.0-3.156-2.156","csxjwv5nkgxo4ro",476,"10.csv","","null","resources/images/coin2.png","null","",NA,NA,NA,NA,""
"image-keyboard-response",482,359806,"0.0-3.157-0.157","csxjwv5nkgxo4ro",476,"10.csv","","128.7000000178814","resources/trios/L2T4A3.jpg","39","restless",0.3,0.6,0.7,0.937863634692885,"false"
"image-keyboard-response",483,360210,"0.0-3.157-1.157","csxjwv5nkgxo4ro",476,"10.csv","","null","resources/maskTrios/BBA3.jpg","null","",NA,NA,NA,NA,""
"image-keyboard-response",484,361413,"0.0-3.157-2.157","csxjwv5nkgxo4ro",476,"10.csv","","null","resources/images/fishbone.png","null","",NA,NA,NA,NA,""
"image-keyboard-response",485,361560,"0.0-3.158-0.158","csxjwv5nkgxo4ro",476,"10.csv","","145.39999997615814","resources/trios/L4T4A3.jpg","38","restless",0.3,0.6,0.7,0.333748304720407,"true"
"image-keyboard-response",486,361968,"0.0-3.158-1.158","csxjwv5nkgxo4ro",476,"10.csv","","null","resources/maskTrios/BT4B.jpg","null","",NA,NA,NA,NA,""
"image-keyboard-response",487,363174,"0.0-3.158-2.158","csxjwv5nkgxo4ro",476,"10.csv","","null","resources/images/coin2.png","null","",NA,NA,NA,NA,""
"image-keyboard-response",488,363293,"0.0-3.159-0.159","csxjwv5nkgxo4ro",476,"10.csv","","116.59999999403954","resources/trios/L4T4A1.jpg","37","restless",0.3,0.6,0.7,0.551714052871458,"false"
"image-keyboard-response",489,363700,"0.0-3.159-1.159","csxjwv5nkgxo4ro",476,"10.csv","","null","resources/maskTrios/L4BB.jpg","null","",NA,NA,NA,NA,""
"image-keyboard-response",490,364907,"0.0-3.159-2.159","csxjwv5nkgxo4ro",476,"10.csv","","null","resources/images/fishbone.png","null","",NA,NA,NA,NA,""
"image-keyboard-response",491,365065,"0.0-3.160-0.160","csxjwv5nkgxo4ro",476,"10.csv","","156.5","resources/trios/L4T1A3.jpg","38","restless",0.3,0.7,0.7,0.550858062790533,"true"
"image-keyboard-response",492,365472,"0.0-3.160-1.160","csxjwv5nkgxo4ro",476,"10.csv","","null","resources/maskTrios/BT1B.jpg","null","",NA,NA,NA,NA,""
"image-keyboard-response",493,366678,"0.0-3.160-2.160","csxjwv5nkgxo4ro",476,"10.csv","","null","resources/images/coin2.png","null","",NA,NA,NA,NA,""
"image-keyboard-response",494,366865,"0.0-3.161-0.161","csxjwv5nkgxo4ro",476,"10.csv","","185.09999999403954","resources/trios/L4T4A3.jpg","38","restless",0.3,0.7,0.7,0.865771328378359,"false"
"image-keyboard-response",495,367272,"0.0-3.161-1.161","csxjwv5nkgxo4ro",476,"10.csv","","null","resources/maskTrios/BT4B.jpg","null","",NA,NA,NA,NA,""
"image-keyboard-response",496,368475,"0.0-3.161-2.161","csxjwv5nkgxo4ro",476,"10.csv","","null","resources/images/fishbone.png","null","",NA,NA,NA,NA,""
"image-keyboard-response",497,368478,"0.0-3.162-0.162","csxjwv5nkgxo4ro",476,"10.csv","","0.7000000178813934","resources/trios/L2T1A3.jpg","39","restless",0.3,0.7,0.7,0.509116362502532,"true"
"image-keyboard-response",498,368884,"0.0-3.162-1.162","csxjwv5nkgxo4ro",476,"10.csv","","null","resources/maskTrios/BBA3.jpg","null","",NA,NA,NA,NA,""
"image-keyboard-response",499,370088,"0.0-3.162-2.162","csxjwv5nkgxo4ro",476,"10.csv","","null","resources/images/coin2.png","null","",NA,NA,NA,NA,""
"image-keyboard-response",500,370259,"0.0-3.163-0.163","csxjwv5nkgxo4ro",476,"10.csv","","168.69999998807907","resources/trios/L2T1A1.jpg","37","restless",0.3,0.7,0.7,0.0271208861320267,"true"
"image-keyboard-response",501,370666,"0.0-3.163-1.163","csxjwv5nkgxo4ro",476,"10.csv","","null","resources/maskTrios/L2BB.jpg","null","",NA,NA,NA,NA,""
"image-keyboard-response",502,371873,"0.0-3.163-2.163","csxjwv5nkgxo4ro",476,"10.csv","","null","resources/images/coin2.png","null","",NA,NA,NA,NA,""
"image-keyboard-response",503,371902,"0.0-3.164-0.164","csxjwv5nkgxo4ro",476,"10.csv","","26.900000005960464","resources/trios/L2T4A1.jpg","38","restless",0.3,0.7,0.7,0.224563430153473,"true"
"image-keyboard-response",504,372308,"0.0-3.164-1.164","csxjwv5nkgxo4ro",476,"10.csv","","null","resources/maskTrios/BT4B.jpg","null","",NA,NA,NA,NA,""
"image-keyboard-response",505,373514,"0.0-3.164-2.164","csxjwv5nkgxo4ro",476,"10.csv","","null","resources/images/coin2.png","null","",NA,NA,NA,NA,""
"image-keyboard-response",506,373776,"0.0-3.165-0.165","csxjwv5nkgxo4ro",476,"10.csv","","260.09999999403954","resources/trios/L4T1A1.jpg","39","restless",0.3,0.8,0.7,0.877049524789155,"false"
"image-keyboard-response",507,374183,"0.0-3.165-1.165","csxjwv5nkgxo4ro",476,"10.csv","","null","resources/maskTrios/BBA1.jpg","null","",NA,NA,NA,NA,""
"image-keyboard-response",508,375386,"0.0-3.165-2.165","csxjwv5nkgxo4ro",476,"10.csv","","null","resources/images/fishbone.png","null","",NA,NA,NA,NA,""
"image-keyboard-response",509,375423,"0.0-3.166-0.166","csxjwv5nkgxo4ro",476,"10.csv","","36.19999998807907","resources/trios/L4T1A1.jpg","37","restless",0.3,0.8,0.7,0.152431444655726,"true"
"image-keyboard-response",510,375825,"0.0-3.166-1.166","csxjwv5nkgxo4ro",476,"10.csv","","null","resources/maskTrios/L4BB.jpg","null","",NA,NA,NA,NA,""
"image-keyboard-response",511,377029,"0.0-3.166-2.166","csxjwv5nkgxo4ro",476,"10.csv","","null","resources/images/coin2.png","null","",NA,NA,NA,NA,""
"image-keyboard-response",512,377052,"0.0-3.167-0.167","csxjwv5nkgxo4ro",476,"10.csv","","20.900000005960464","resources/trios/L2T4A3.jpg","38","restless",0.3,0.8,0.7,0.352777836997661,"true"
"image-keyboard-response",513,377456,"0.0-3.167-1.167","csxjwv5nkgxo4ro",476,"10.csv","","null","resources/maskTrios/BT4B.jpg","null","",NA,NA,NA,NA,""
"image-keyboard-response",514,378663,"0.0-3.167-2.167","csxjwv5nkgxo4ro",476,"10.csv","","null","resources/images/coin2.png","null","",NA,NA,NA,NA,""
"image-keyboard-response",515,378806,"0.0-3.168-0.168","csxjwv5nkgxo4ro",476,"10.csv","","140.40000000596046","resources/trios/L4T1A1.jpg","37","restless",0.3,0.8,0.7,0.675657222418988,"false"
"image-keyboard-response",516,379211,"0.0-3.168-1.168","csxjwv5nkgxo4ro",476,"10.csv","","null","resources/maskTrios/L4BB.jpg","null","",NA,NA,NA,NA,""
"image-keyboard-response",517,380415,"0.0-3.168-2.168","csxjwv5nkgxo4ro",476,"10.csv","","null","resources/images/fishbone.png","null","",NA,NA,NA,NA,""
"image-keyboard-response",518,380450,"0.0-3.169-0.169","csxjwv5nkgxo4ro",476,"10.csv","","33.5","resources/trios/L4T4A3.jpg","38","restless",0.3,0.8,0.6,0.0463201615797064,"true"
"image-keyboard-response",519,380857,"0.0-3.169-1.169","csxjwv5nkgxo4ro",476,"10.csv","","null","resources/maskTrios/BT4B.jpg","null","",NA,NA,NA,NA,""
"image-keyboard-response",520,382061,"0.0-3.169-2.169","csxjwv5nkgxo4ro",476,"10.csv","","null","resources/images/coin2.png","null","",NA,NA,NA,NA,""
"image-keyboard-response",521,382170,"0.0-3.170-0.170","csxjwv5nkgxo4ro",476,"10.csv","","106","resources/trios/L4T1A1.jpg","39","restless",0.3,0.8,0.5,0.817269046918066,"false"
"image-keyboard-response",522,382574,"0.0-3.170-1.170","csxjwv5nkgxo4ro",476,"10.csv","","null","resources/maskTrios/BBA1.jpg","null","",NA,NA,NA,NA,""
"image-keyboard-response",523,383776,"0.0-3.170-2.170","csxjwv5nkgxo4ro",476,"10.csv","","null","resources/images/fishbone.png","null","",NA,NA,NA,NA,""
"image-keyboard-response",524,384309,"0.0-3.171-0.171","csxjwv5nkgxo4ro",476,"10.csv","","530.5999999940395","resources/trios/L2T1A3.jpg","38","restless",0.3,0.8,0.5,0.229567552087563,"true"
"image-keyboard-response",525,384711,"0.0-3.171-1.171","csxjwv5nkgxo4ro",476,"10.csv","","null","resources/maskTrios/BT1B.jpg","null","",NA,NA,NA,NA,""
"image-keyboard-response",526,385918,"0.0-3.171-2.171","csxjwv5nkgxo4ro",476,"10.csv","","null","resources/images/coin2.png","null","",NA,NA,NA,NA,""
"image-keyboard-response",527,385919,"0.0-3.172-0.172","csxjwv5nkgxo4ro",476,"10.csv","","0.09999999403953552","resources/trios/L4T4A1.jpg","37","restless",0.3,0.8,0.5,0.29470697054932,"true"
"image-keyboard-response",528,386325,"0.0-3.172-1.172","csxjwv5nkgxo4ro",476,"10.csv","","null","resources/maskTrios/L4BB.jpg","null","",NA,NA,NA,NA,""
"image-keyboard-response",529,387532,"0.0-3.172-2.172","csxjwv5nkgxo4ro",476,"10.csv","","null","resources/images/coin2.png","null","",NA,NA,NA,NA,""
"image-keyboard-response",530,387731,"0.0-3.173-0.173","csxjwv5nkgxo4ro",476,"10.csv","","197.2000000178814","resources/trios/L4T4A1.jpg","39","restless",0.3,0.8,0.5,0.753938869450616,"false"
"image-keyboard-response",531,388137,"0.0-3.173-1.173","csxjwv5nkgxo4ro",476,"10.csv","","null","resources/maskTrios/BBA1.jpg","null","",NA,NA,NA,NA,""
"image-keyboard-response",532,389339,"0.0-3.173-2.173","csxjwv5nkgxo4ro",476,"10.csv","","null","resources/images/fishbone.png","null","",NA,NA,NA,NA,""
"image-keyboard-response",533,389504,"0.0-3.174-0.174","csxjwv5nkgxo4ro",476,"10.csv","","162.2999999821186","resources/trios/L2T4A3.jpg","38","restless",0.3,0.8,0.5,0.0689336381980017,"true"
"image-keyboard-response",534,389908,"0.0-3.174-1.174","csxjwv5nkgxo4ro",476,"10.csv","","null","resources/maskTrios/BT4B.jpg","null","",NA,NA,NA,NA,""
"image-keyboard-response",535,391113,"0.0-3.174-2.174","csxjwv5nkgxo4ro",476,"10.csv","","null","resources/images/coin2.png","null","",NA,NA,NA,NA,""
"image-keyboard-response",536,391125,"0.0-3.175-0.175","csxjwv5nkgxo4ro",476,"10.csv","","9.400000005960464","resources/trios/L4T4A3.jpg","37","restless",0.3,0.8,0.5,0.568273857170992,"false"
"image-keyboard-response",537,391531,"0.0-3.175-1.175","csxjwv5nkgxo4ro",476,"10.csv","","null","resources/maskTrios/L4BB.jpg","null","",NA,NA,NA,NA,""
"image-keyboard-response",538,392735,"0.0-3.175-2.175","csxjwv5nkgxo4ro",476,"10.csv","","null","resources/images/fishbone.png","null","",NA,NA,NA,NA,""
"image-keyboard-response",539,392884,"0.0-3.176-0.176","csxjwv5nkgxo4ro",476,"10.csv","","147.90000000596046","resources/trios/L4T4A1.jpg","38","restless",0.3,0.8,0.5,0.220194765435254,"true"
"image-keyboard-response",540,393291,"0.0-3.176-1.176","csxjwv5nkgxo4ro",476,"10.csv","","null","resources/maskTrios/BT4B.jpg","null","",NA,NA,NA,NA,""
"image-keyboard-response",541,394498,"0.0-3.176-2.176","csxjwv5nkgxo4ro",476,"10.csv","","null","resources/images/coin2.png","null","",NA,NA,NA,NA,""
"image-keyboard-response",542,394563,"0.0-3.177-0.177","csxjwv5nkgxo4ro",476,"10.csv","","63.400000005960464","resources/trios/L2T1A1.jpg","39","restless",0.4,0.8,0.5,0.453331914987919,"true"
"image-keyboard-response",543,394968,"0.0-3.177-1.177","csxjwv5nkgxo4ro",476,"10.csv","","null","resources/maskTrios/BBA1.jpg","null","",NA,NA,NA,NA,""
"image-keyboard-response",544,396174,"0.0-3.177-2.177","csxjwv5nkgxo4ro",476,"10.csv","","null","resources/images/coin2.png","null","",NA,NA,NA,NA,""
"image-keyboard-response",545,396320,"0.0-3.178-0.178","csxjwv5nkgxo4ro",476,"10.csv","","144.90000000596046","resources/trios/L2T4A1.jpg","38","restless",0.4,0.8,0.5,0.78700376249008,"true"
"image-keyboard-response",546,396724,"0.0-3.178-1.178","csxjwv5nkgxo4ro",476,"10.csv","","null","resources/maskTrios/BT4B.jpg","null","",NA,NA,NA,NA,""
"image-keyboard-response",547,397929,"0.0-3.178-2.178","csxjwv5nkgxo4ro",476,"10.csv","","null","resources/images/coin2.png","null","",NA,NA,NA,NA,""
"image-keyboard-response",548,398135,"0.0-3.179-0.179","csxjwv5nkgxo4ro",476,"10.csv","","203.59999999403954","resources/trios/L2T4A1.jpg","39","restless",0.4,0.8,0.5,0.0895263538930673,"true"
"image-keyboard-response",549,398543,"0.0-3.179-1.179","csxjwv5nkgxo4ro",476,"10.csv","","null","resources/maskTrios/BBA1.jpg","null","",NA,NA,NA,NA,""
"image-keyboard-response",550,399745,"0.0-3.179-2.179","csxjwv5nkgxo4ro",476,"10.csv","","null","resources/images/coin2.png","null","",NA,NA,NA,NA,""
"image-keyboard-response",551,399866,"0.0-3.180-0.180","csxjwv5nkgxo4ro",476,"10.csv","","118.80000001192093","resources/trios/L2T1A3.jpg","38","restless",0.4,0.8,0.5,0.0101682167713224,"true"
"image-keyboard-response",552,400273,"0.0-3.180-1.180","csxjwv5nkgxo4ro",476,"10.csv","","null","resources/maskTrios/BT1B.jpg","null","",NA,NA,NA,NA,""
"image-keyboard-response",553,401480,"0.0-3.180-2.180","csxjwv5nkgxo4ro",476,"10.csv","","null","resources/images/coin2.png","null","",NA,NA,NA,NA,""
"image-keyboard-response",554,401638,"0.0-3.181-0.181","csxjwv5nkgxo4ro",476,"10.csv","","155.5","resources/trios/L4T1A1.jpg","37","restless",0.4,0.7,0.5,0.359059598445246,"true"
"image-keyboard-response",555,402042,"0.0-3.181-1.181","csxjwv5nkgxo4ro",476,"10.csv","","null","resources/maskTrios/L4BB.jpg","null","",NA,NA,NA,NA,""
"image-keyboard-response",556,403247,"0.0-3.181-2.181","csxjwv5nkgxo4ro",476,"10.csv","","null","resources/images/coin2.png","null","",NA,NA,NA,NA,""
"image-keyboard-response",557,403639,"0.0-3.182-0.182","csxjwv5nkgxo4ro",476,"10.csv","","389.59999999403954","resources/trios/L4T4A3.jpg","38","restless",0.4,0.7,0.5,0.417421118441354,"true"
"image-keyboard-response",558,404046,"0.0-3.182-1.182","csxjwv5nkgxo4ro",476,"10.csv","","null","resources/maskTrios/BT4B.jpg","null","",NA,NA,NA,NA,""
"image-keyboard-response",559,405250,"0.0-3.182-2.182","csxjwv5nkgxo4ro",476,"10.csv","","null","resources/images/coin2.png","null","",NA,NA,NA,NA,""
"image-keyboard-response",560,405511,"0.0-3.183-0.183","csxjwv5nkgxo4ro",476,"10.csv","","258.69999998807907","resources/trios/L4T4A1.jpg","39","restless",0.4,0.7,0.5,0.0393596009912662,"true"
"image-keyboard-response",561,405917,"0.0-3.183-1.183","csxjwv5nkgxo4ro",476,"10.csv","","null","resources/maskTrios/BBA1.jpg","null","",NA,NA,NA,NA,""
"image-keyboard-response",562,407124,"0.0-3.183-2.183","csxjwv5nkgxo4ro",476,"10.csv","","null","resources/images/coin2.png","null","",NA,NA,NA,NA,""
"image-keyboard-response",563,407297,"0.0-3.184-0.184","csxjwv5nkgxo4ro",476,"10.csv","","170.59999999403954","resources/trios/L4T4A3.jpg","38","restless",0.4,0.7,0.5,0.474752239842026,"true"
"image-keyboard-response",564,407704,"0.0-3.184-1.184","csxjwv5nkgxo4ro",476,"10.csv","","null","resources/maskTrios/BT4B.jpg","null","",NA,NA,NA,NA,""
"image-keyboard-response",565,408911,"0.0-3.184-2.184","csxjwv5nkgxo4ro",476,"10.csv","","null","resources/images/coin2.png","null","",NA,NA,NA,NA,""
"image-keyboard-response",566,409024,"0.0-3.185-0.185","csxjwv5nkgxo4ro",476,"10.csv","","110.7999999821186","resources/trios/L2T4A1.jpg","37","restless",0.4,0.7,0.5,0.0924803932307523,"true"
"image-keyboard-response",567,409430,"0.0-3.185-1.185","csxjwv5nkgxo4ro",476,"10.csv","","null","resources/maskTrios/L2BB.jpg","null","",NA,NA,NA,NA,""
"image-keyboard-response",568,410637,"0.0-3.185-2.185","csxjwv5nkgxo4ro",476,"10.csv","","null","resources/images/coin2.png","null","",NA,NA,NA,NA,""
"image-keyboard-response",569,410821,"0.0-3.186-0.186","csxjwv5nkgxo4ro",476,"10.csv","","181.59999999403954","resources/trios/L4T1A3.jpg","38","restless",0.4,0.7,0.5,0.0660217254987814,"true"
"image-keyboard-response",570,411224,"0.0-3.186-1.186","csxjwv5nkgxo4ro",476,"10.csv","","null","resources/maskTrios/BT1B.jpg","null","",NA,NA,NA,NA,""
"image-keyboard-response",571,412428,"0.0-3.186-2.186","csxjwv5nkgxo4ro",476,"10.csv","","null","resources/images/coin2.png","null","",NA,NA,NA,NA,""
"image-keyboard-response",572,412549,"0.0-3.187-0.187","csxjwv5nkgxo4ro",476,"10.csv","","118.59999999403954","resources/trios/L4T1A3.jpg","39","restless",0.4,0.7,0.5,0.734273672055489,"false"
"image-keyboard-response",573,412954,"0.0-3.187-1.187","csxjwv5nkgxo4ro",476,"10.csv","","null","resources/maskTrios/BBA3.jpg","null","",NA,NA,NA,NA,""
"image-keyboard-response",574,414158,"0.0-3.187-2.187","csxjwv5nkgxo4ro",476,"10.csv","","null","resources/images/fishbone.png","null","",NA,NA,NA,NA,""
"image-keyboard-response",575,414229,"0.0-3.188-0.188","csxjwv5nkgxo4ro",476,"10.csv","","69.2000000178814","resources/trios/L4T1A3.jpg","38","restless",0.4,0.6,0.5,0.423900068628351,"true"
"image-keyboard-response",576,414634,"0.0-3.188-1.188","csxjwv5nkgxo4ro",476,"10.csv","","null","resources/maskTrios/BT1B.jpg","null","",NA,NA,NA,NA,""
"image-keyboard-response",577,415838,"0.0-3.188-2.188","csxjwv5nkgxo4ro",476,"10.csv","","null","resources/images/coin2.png","null","",NA,NA,NA,NA,""
"image-keyboard-response",578,415949,"0.0-3.189-0.189","csxjwv5nkgxo4ro",476,"10.csv","","109","resources/trios/L4T4A1.jpg","37","restless",0.5,0.7,0.6,0.64331364607552,"false"
"image-keyboard-response",579,416352,"0.0-3.189-1.189","csxjwv5nkgxo4ro",476,"10.csv","","null","resources/maskTrios/L4BB.jpg","null","",NA,NA,NA,NA,""
"image-keyboard-response",580,417559,"0.0-3.189-2.189","csxjwv5nkgxo4ro",476,"10.csv","","null","resources/images/fishbone.png","null","",NA,NA,NA,NA,""
"image-keyboard-response",581,417733,"0.0-3.190-0.190","csxjwv5nkgxo4ro",476,"10.csv","","172.5","resources/trios/L2T1A3.jpg","38","restless",0.5,0.7,0.6,0.55596649525284,"true"
"image-keyboard-response",582,418140,"0.0-3.190-1.190","csxjwv5nkgxo4ro",476,"10.csv","","null","resources/maskTrios/BT1B.jpg","null","",NA,NA,NA,NA,""
"image-keyboard-response",583,419345,"0.0-3.190-2.190","csxjwv5nkgxo4ro",476,"10.csv","","null","resources/images/coin2.png","null","",NA,NA,NA,NA,""
"image-keyboard-response",584,419591,"0.0-3.191-0.191","csxjwv5nkgxo4ro",476,"10.csv","","243.40000000596046","resources/trios/L4T4A1.jpg","39","restless",0.5,0.7,0.6,0.707032811603834,"false"
"image-keyboard-response",585,419996,"0.0-3.191-1.191","csxjwv5nkgxo4ro",476,"10.csv","","null","resources/maskTrios/BBA1.jpg","null","",NA,NA,NA,NA,""
"image-keyboard-response",586,421199,"0.0-3.191-2.191","csxjwv5nkgxo4ro",476,"10.csv","","null","resources/images/fishbone.png","null","",NA,NA,NA,NA,""
"image-keyboard-response",587,421407,"0.0-3.192-0.192","csxjwv5nkgxo4ro",476,"10.csv","","205.5","resources/trios/L2T1A3.jpg","37","restless",0.4,0.7,0.6,0.78838928613751,"false"
"image-keyboard-response",588,421810,"0.0-3.192-1.192","csxjwv5nkgxo4ro",476,"10.csv","","null","resources/maskTrios/L2BB.jpg","null","",NA,NA,NA,NA,""
"image-keyboard-response",589,423015,"0.0-3.192-2.192","csxjwv5nkgxo4ro",476,"10.csv","","null","resources/images/fishbone.png","null","",NA,NA,NA,NA,""
"image-keyboard-response",590,423205,"0.0-3.193-0.193","csxjwv5nkgxo4ro",476,"10.csv","","187.90000000596046","resources/trios/L2T4A1.jpg","38","restless",0.4,0.7,0.6,0.983978574327565,"false"
"image-keyboard-response",591,423611,"0.0-3.193-1.193","csxjwv5nkgxo4ro",476,"10.csv","","null","resources/maskTrios/BT4B.jpg","null","",NA,NA,NA,NA,""
"image-keyboard-response",592,424816,"0.0-3.193-2.193","csxjwv5nkgxo4ro",476,"10.csv","","null","resources/images/fishbone.png","null","",NA,NA,NA,NA,""
"image-keyboard-response",593,424848,"0.0-3.194-0.194","csxjwv5nkgxo4ro",476,"10.csv","","30.5","resources/trios/L2T4A3.jpg","39","restless",0.4,0.7,0.6,0.174170411628716,"true"
"image-keyboard-response",594,425255,"0.0-3.194-1.194","csxjwv5nkgxo4ro",476,"10.csv","","null","resources/maskTrios/BBA3.jpg","null","",NA,NA,NA,NA,""
"image-keyboard-response",595,426459,"0.0-3.194-2.194","csxjwv5nkgxo4ro",476,"10.csv","","null","resources/images/coin2.png","null","",NA,NA,NA,NA,""
"image-keyboard-response",596,426660,"0.0-3.195-0.195","csxjwv5nkgxo4ro",476,"10.csv","","199.40000000596046","resources/trios/L4T4A1.jpg","37","restless",0.4,0.7,0.6,0.965618009603668,"false"
"image-keyboard-response",597,427066,"0.0-3.195-1.195","csxjwv5nkgxo4ro",476,"10.csv","","null","resources/maskTrios/L4BB.jpg","null","",NA,NA,NA,NA,""
"image-keyboard-response",598,428269,"0.0-3.195-2.195","csxjwv5nkgxo4ro",476,"10.csv","","null","resources/images/fishbone.png","null","",NA,NA,NA,NA,""
"image-keyboard-response",599,428368,"0.0-3.196-0.196","csxjwv5nkgxo4ro",476,"10.csv","","96.7000000178814","resources/trios/L2T1A1.jpg","38","restless",0.5,0.7,0.6,0.29083530133824,"true"
"image-keyboard-response",600,428773,"0.0-3.196-1.196","csxjwv5nkgxo4ro",476,"10.csv","","null","resources/maskTrios/BT1B.jpg","null","",NA,NA,NA,NA,""
"image-keyboard-response",601,429976,"0.0-3.196-2.196","csxjwv5nkgxo4ro",476,"10.csv","","null","resources/images/coin2.png","null","",NA,NA,NA,NA,""
"image-keyboard-response",602,430131,"0.0-3.197-0.197","csxjwv5nkgxo4ro",476,"10.csv","","152.7999999821186","resources/trios/L2T4A1.jpg","39","restless",0.4,0.7,0.6,0.469850010650738,"true"
"image-keyboard-response",603,430538,"0.0-3.197-1.197","csxjwv5nkgxo4ro",476,"10.csv","","null","resources/maskTrios/BBA1.jpg","null","",NA,NA,NA,NA,""
"image-keyboard-response",604,431745,"0.0-3.197-2.197","csxjwv5nkgxo4ro",476,"10.csv","","null","resources/images/coin2.png","null","",NA,NA,NA,NA,""
"image-keyboard-response",605,431801,"0.0-3.198-0.198","csxjwv5nkgxo4ro",476,"10.csv","","54","resources/trios/L4T4A1.jpg","38","restless",0.4,0.7,0.6,0.905176727512967,"false"
"image-keyboard-response",606,432203,"0.0-3.198-1.198","csxjwv5nkgxo4ro",476,"10.csv","","null","resources/maskTrios/BT4B.jpg","null","",NA,NA,NA,NA,""
"image-keyboard-response",607,433407,"0.0-3.198-2.198","csxjwv5nkgxo4ro",476,"10.csv","","null","resources/images/fishbone.png","null","",NA,NA,NA,NA,""
"image-keyboard-response",608,433903,"0.0-3.199-0.199","csxjwv5nkgxo4ro",476,"10.csv","","493.69999998807907","resources/trios/L4T4A1.jpg","38","restless",0.4,0.7,0.6,0.711050920725155,"false"
"image-keyboard-response",609,434306,"0.0-3.199-1.199","csxjwv5nkgxo4ro",476,"10.csv","","null","resources/maskTrios/BT4B.jpg","null","",NA,NA,NA,NA,""
"image-keyboard-response",610,435509,"0.0-3.199-2.199","csxjwv5nkgxo4ro",476,"10.csv","","null","resources/images/fishbone.png","null","",NA,NA,NA,NA,""
