"trial_type","trial_index","time_elapsed","internal_node_id","subject","participantCode","walkNumber","success","rt","stimulus","key_press","test_part","leftProb","midProb","rightProb","generatedNum","correct"
"pavlovia",0,1027,"0.0-0.0","7jg0kczztkw96nk",72,"35.csv","","","","","",NA,NA,NA,NA,""
"fullscreen",1,4743,"0.0-1.0","7jg0kczztkw96nk",72,"35.csv","true","","","","",NA,NA,NA,NA,""
"html-keyboard-response",2,17251,"0.0-2.0-0.0","7jg0kczztkw96nk",72,"35.csv","","12505.399999856949","<p><font size='6'>Arrrgh!</p></font><p>Can you be the best pirate? Try to find lots of gold! But beware, some islands have more gold than others, and over time, the island with the most gold may change. Can YOU figure it out? </p><font size='6'>GOOD LUCK, CAPTAIN!!!</font><p>Press any key to begin</p>","32","",NA,NA,NA,NA,""
"image-keyboard-response",3,20264,"0.0-2.0-1.0","7jg0kczztkw96nk",72,"35.csv","","null","resources/image_sets/111.png","null","",NA,NA,NA,NA,""
"image-keyboard-response",4,28197,"0.0-2.0-2.0","7jg0kczztkw96nk",72,"35.csv","","7931.5","resources/image_sets/left_highlight.png","37","",NA,NA,NA,NA,""
"image-keyboard-response",5,31770,"0.0-2.0-3.0","7jg0kczztkw96nk",72,"35.csv","","3570.5","resources/image_sets/mid_highlight.png","38","",NA,NA,NA,NA,""
"image-keyboard-response",6,34026,"0.0-2.0-4.0","7jg0kczztkw96nk",72,"35.csv","","2254.699999809265","resources/image_sets/right_highlight.png","39","",NA,NA,NA,NA,""
"image-keyboard-response",7,44816,"0.0-2.0-5.0","7jg0kczztkw96nk",72,"35.csv","","10787.400000095367","resources/image_sets/111.png","13","",NA,NA,NA,NA,""
"image-keyboard-response",8,47260,"0.0-2.0-6.0","7jg0kczztkw96nk",72,"35.csv","","2442.7000000476837","resources/images/coin2.png","13","",NA,NA,NA,NA,""
"image-keyboard-response",9,49585,"0.0-2.0-7.0","7jg0kczztkw96nk",72,"35.csv","","2323.0999999046326","resources/images/fishbone.png","13","",NA,NA,NA,NA,""
"html-keyboard-response",10,52369,"0.0-2.0-8.0","7jg0kczztkw96nk",72,"35.csv","","2783.100000143051","<p>Your first journey will be a long one, but you will get a well deserved break at the end</p><p>After the break you will have four more journeys, but each will be much shorter than the first, and you will have breaks in between each</p><p>Press Enter to begin</p>","13","",NA,NA,NA,NA,""
"image-keyboard-response",11,54358,"0.0-3.0-0.0","7jg0kczztkw96nk",72,"35.csv","","1985.2999999523163","resources/trios/L1T2A2.jpg","39","restless",0.9,0.7,0.3,0.644426062429572,"false"
"image-keyboard-response",12,54767,"0.0-3.0-1.0","7jg0kczztkw96nk",72,"35.csv","","null","resources/maskTrios/BBA2.jpg","null","",NA,NA,NA,NA,""
"image-keyboard-response",13,55976,"0.0-3.0-2.0","7jg0kczztkw96nk",72,"35.csv","","null","resources/images/fishbone.png","null","",NA,NA,NA,NA,""
"image-keyboard-response",14,57030,"0.0-3.1-0.1","7jg0kczztkw96nk",72,"35.csv","","1051.8999998569489","resources/trios/L1T2A2.jpg","37","restless",0.9,0.7,0.3,0.117873869843963,"true"
"image-keyboard-response",15,57439,"0.0-3.1-1.1","7jg0kczztkw96nk",72,"35.csv","","null","resources/maskTrios/L1BB.jpg","null","",NA,NA,NA,NA,""
"image-keyboard-response",16,58647,"0.0-3.1-2.1","7jg0kczztkw96nk",72,"35.csv","","null","resources/images/coin2.png","null","",NA,NA,NA,NA,""
"image-keyboard-response",17,59572,"0.0-3.2-0.2","7jg0kczztkw96nk",72,"35.csv","","922.6000001430511","resources/trios/L1T2A2.jpg","38","restless",0.9,0.7,0.3,0.678355895557632,"true"
"image-keyboard-response",18,59983,"0.0-3.2-1.2","7jg0kczztkw96nk",72,"35.csv","","null","resources/maskTrios/BT2B.jpg","null","",NA,NA,NA,NA,""
"image-keyboard-response",19,61187,"0.0-3.2-2.2","7jg0kczztkw96nk",72,"35.csv","","null","resources/images/coin2.png","null","",NA,NA,NA,NA,""
"image-keyboard-response",20,62702,"0.0-3.3-0.3","7jg0kczztkw96nk",72,"35.csv","","1511.8999998569489","resources/trios/L4T1A2.jpg","39","restless",0.9,0.8,0.3,0.23307517984796,"true"
"image-keyboard-response",21,63111,"0.0-3.3-1.3","7jg0kczztkw96nk",72,"35.csv","","null","resources/maskTrios/BBA2.jpg","null","",NA,NA,NA,NA,""
"image-keyboard-response",22,64319,"0.0-3.3-2.3","7jg0kczztkw96nk",72,"35.csv","","null","resources/images/coin2.png","null","",NA,NA,NA,NA,""
"image-keyboard-response",23,65347,"0.0-3.4-0.4","7jg0kczztkw96nk",72,"35.csv","","1025.7000000476837","resources/trios/L1T1A1.jpg","38","restless",0.9,0.8,0.3,0.268065456771179,"true"
"image-keyboard-response",24,65759,"0.0-3.4-1.4","7jg0kczztkw96nk",72,"35.csv","","null","resources/maskTrios/BT1B.jpg","null","",NA,NA,NA,NA,""
"image-keyboard-response",25,66967,"0.0-3.4-2.4","7jg0kczztkw96nk",72,"35.csv","","null","resources/images/coin2.png","null","",NA,NA,NA,NA,""
"image-keyboard-response",26,67460,"0.0-3.5-0.5","7jg0kczztkw96nk",72,"35.csv","","489.90000009536743","resources/trios/L1T1A1.jpg","37","restless",0.9,0.7,0.4,0.950115894194878,"false"
"image-keyboard-response",27,67871,"0.0-3.5-1.5","7jg0kczztkw96nk",72,"35.csv","","null","resources/maskTrios/L1BB.jpg","null","",NA,NA,NA,NA,""
"image-keyboard-response",28,69079,"0.0-3.5-2.5","7jg0kczztkw96nk",72,"35.csv","","null","resources/images/fishbone.png","null","",NA,NA,NA,NA,""
"image-keyboard-response",29,69890,"0.0-3.6-0.6","7jg0kczztkw96nk",72,"35.csv","","808.7000000476837","resources/trios/L1T1A2.jpg","38","restless",0.9,0.7,0.4,0.388131473246347,"true"
"image-keyboard-response",30,70304,"0.0-3.6-1.6","7jg0kczztkw96nk",72,"35.csv","","null","resources/maskTrios/BT1B.jpg","null","",NA,NA,NA,NA,""
"image-keyboard-response",31,71511,"0.0-3.6-2.6","7jg0kczztkw96nk",72,"35.csv","","null","resources/images/coin2.png","null","",NA,NA,NA,NA,""
"image-keyboard-response",32,72958,"0.0-3.7-0.7","7jg0kczztkw96nk",72,"35.csv","","1444.7000000476837","resources/trios/L1T1A1.jpg","37","restless",0.9,0.7,0.4,0.0701031699874652,"true"
"image-keyboard-response",33,73367,"0.0-3.7-1.7","7jg0kczztkw96nk",72,"35.csv","","null","resources/maskTrios/L1BB.jpg","null","",NA,NA,NA,NA,""
"image-keyboard-response",34,74575,"0.0-3.7-2.7","7jg0kczztkw96nk",72,"35.csv","","null","resources/images/coin2.png","null","",NA,NA,NA,NA,""
"image-keyboard-response",35,75473,"0.0-3.8-0.8","7jg0kczztkw96nk",72,"35.csv","","895.5999999046326","resources/trios/L4T2A1.jpg","37","restless",0.9,0.7,0.4,0.0532635059951194,"true"
"image-keyboard-response",36,75887,"0.0-3.8-1.8","7jg0kczztkw96nk",72,"35.csv","","null","resources/maskTrios/L4BB.jpg","null","",NA,NA,NA,NA,""
"image-keyboard-response",37,77095,"0.0-3.8-2.8","7jg0kczztkw96nk",72,"35.csv","","null","resources/images/coin2.png","null","",NA,NA,NA,NA,""
"image-keyboard-response",38,82676,"0.0-3.9-0.9","7jg0kczztkw96nk",72,"35.csv","","5578.899999856949","resources/trios/L1T2A1.jpg","38","restless",0.8,0.7,0.4,0.571691960044332,"true"
"image-keyboard-response",39,83087,"0.0-3.9-1.9","7jg0kczztkw96nk",72,"35.csv","","null","resources/maskTrios/BT2B.jpg","null","",NA,NA,NA,NA,""
"image-keyboard-response",40,84295,"0.0-3.9-2.9","7jg0kczztkw96nk",72,"35.csv","","null","resources/images/coin2.png","null","",NA,NA,NA,NA,""
"image-keyboard-response",41,84994,"0.0-3.10-0.10","7jg0kczztkw96nk",72,"35.csv","","696.3999998569489","resources/trios/L1T2A2.jpg","39","restless",0.8,0.7,0.4,0.27186688917314,"true"
"image-keyboard-response",42,85403,"0.0-3.10-1.10","7jg0kczztkw96nk",72,"35.csv","","null","resources/maskTrios/BBA2.jpg","null","",NA,NA,NA,NA,""
"image-keyboard-response",43,86611,"0.0-3.10-2.10","7jg0kczztkw96nk",72,"35.csv","","null","resources/images/coin2.png","null","",NA,NA,NA,NA,""
"image-keyboard-response",44,86907,"0.0-3.11-0.11","7jg0kczztkw96nk",72,"35.csv","","293.90000009536743","resources/trios/L1T2A2.jpg","39","restless",0.8,0.7,0.4,0.42410339710493,"false"
"image-keyboard-response",45,87319,"0.0-3.11-1.11","7jg0kczztkw96nk",72,"35.csv","","null","resources/maskTrios/BBA2.jpg","null","",NA,NA,NA,NA,""
"image-keyboard-response",46,88523,"0.0-3.11-2.11","7jg0kczztkw96nk",72,"35.csv","","null","resources/images/fishbone.png","null","",NA,NA,NA,NA,""
"image-keyboard-response",47,88844,"0.0-3.12-0.12","7jg0kczztkw96nk",72,"35.csv","","317.7999999523163","resources/trios/L1T1A2.jpg","37","restless",0.8,0.7,0.4,0.574777089671857,"true"
"image-keyboard-response",48,89255,"0.0-3.12-1.12","7jg0kczztkw96nk",72,"35.csv","","null","resources/maskTrios/L1BB.jpg","null","",NA,NA,NA,NA,""
"image-keyboard-response",49,90463,"0.0-3.12-2.12","7jg0kczztkw96nk",72,"35.csv","","null","resources/images/coin2.png","null","",NA,NA,NA,NA,""
"image-keyboard-response",50,90851,"0.0-3.13-0.13","7jg0kczztkw96nk",72,"35.csv","","385.39999985694885","resources/trios/L1T1A1.jpg","38","restless",0.8,0.7,0.4,0.0509368055144181,"true"
"image-keyboard-response",51,91264,"0.0-3.13-1.13","7jg0kczztkw96nk",72,"35.csv","","null","resources/maskTrios/BT1B.jpg","null","",NA,NA,NA,NA,""
"image-keyboard-response",52,92467,"0.0-3.13-2.13","7jg0kczztkw96nk",72,"35.csv","","null","resources/images/coin2.png","null","",NA,NA,NA,NA,""
"image-keyboard-response",53,92574,"0.0-3.14-0.14","7jg0kczztkw96nk",72,"35.csv","","104.29999995231628","resources/trios/L1T2A2.jpg","37","restless",0.8,0.7,0.4,0.220825692297727,"true"
"image-keyboard-response",54,92983,"0.0-3.14-1.14","7jg0kczztkw96nk",72,"35.csv","","null","resources/maskTrios/L1BB.jpg","null","",NA,NA,NA,NA,""
"image-keyboard-response",55,94190,"0.0-3.14-2.14","7jg0kczztkw96nk",72,"35.csv","","null","resources/images/coin2.png","null","",NA,NA,NA,NA,""
"image-keyboard-response",56,94582,"0.0-3.15-0.15","7jg0kczztkw96nk",72,"35.csv","","389.90000009536743","resources/trios/L1T1A2.jpg","38","restless",0.7,0.7,0.4,0.802709782046512,"false"
"image-keyboard-response",57,94987,"0.0-3.15-1.15","7jg0kczztkw96nk",72,"35.csv","","null","resources/maskTrios/BT1B.jpg","null","",NA,NA,NA,NA,""
"image-keyboard-response",58,96195,"0.0-3.15-2.15","7jg0kczztkw96nk",72,"35.csv","","null","resources/images/fishbone.png","null","",NA,NA,NA,NA,""
"image-keyboard-response",59,96270,"0.0-3.16-0.16","7jg0kczztkw96nk",72,"35.csv","","72.5","resources/trios/L4T1A2.jpg","37","restless",0.8,0.7,0.4,0.579300594826986,"true"
"image-keyboard-response",60,96679,"0.0-3.16-1.16","7jg0kczztkw96nk",72,"35.csv","","null","resources/maskTrios/L4BB.jpg","null","",NA,NA,NA,NA,""
"image-keyboard-response",61,97887,"0.0-3.16-2.16","7jg0kczztkw96nk",72,"35.csv","","null","resources/images/coin2.png","null","",NA,NA,NA,NA,""
"image-keyboard-response",62,98185,"0.0-3.17-0.17","7jg0kczztkw96nk",72,"35.csv","","295.5","resources/trios/L1T2A1.jpg","37","restless",0.8,0.7,0.4,0.115360229619818,"true"
"image-keyboard-response",63,98599,"0.0-3.17-1.17","7jg0kczztkw96nk",72,"35.csv","","null","resources/maskTrios/L1BB.jpg","null","",NA,NA,NA,NA,""
"image-keyboard-response",64,99807,"0.0-3.17-2.17","7jg0kczztkw96nk",72,"35.csv","","null","resources/images/coin2.png","null","",NA,NA,NA,NA,""
"image-keyboard-response",65,100076,"0.0-3.18-0.18","7jg0kczztkw96nk",72,"35.csv","","266.7999999523163","resources/trios/L1T2A2.jpg","39","restless",0.8,0.7,0.4,0.316530030826808,"true"
"image-keyboard-response",66,100487,"0.0-3.18-1.18","7jg0kczztkw96nk",72,"35.csv","","null","resources/maskTrios/BBA2.jpg","null","",NA,NA,NA,NA,""
"image-keyboard-response",67,101696,"0.0-3.18-2.18","7jg0kczztkw96nk",72,"35.csv","","null","resources/images/coin2.png","null","",NA,NA,NA,NA,""
"image-keyboard-response",68,102271,"0.0-3.19-0.19","7jg0kczztkw96nk",72,"35.csv","","572.9000000953674","resources/trios/L1T2A2.jpg","37","restless",0.8,0.6,0.4,0.259626635833347,"true"
"image-keyboard-response",69,102679,"0.0-3.19-1.19","7jg0kczztkw96nk",72,"35.csv","","null","resources/maskTrios/L1BB.jpg","null","",NA,NA,NA,NA,""
"image-keyboard-response",70,103888,"0.0-3.19-2.19","7jg0kczztkw96nk",72,"35.csv","","null","resources/images/coin2.png","null","",NA,NA,NA,NA,""
"image-keyboard-response",71,104262,"0.0-3.20-0.20","7jg0kczztkw96nk",72,"35.csv","","372.60000014305115","resources/trios/L4T1A1.jpg","39","restless",0.8,0.6,0.3,0.469574566662401,"false"
"image-keyboard-response",72,104671,"0.0-3.20-1.20","7jg0kczztkw96nk",72,"35.csv","","null","resources/maskTrios/BBA1.jpg","null","",NA,NA,NA,NA,""
"image-keyboard-response",73,105880,"0.0-3.20-2.20","7jg0kczztkw96nk",72,"35.csv","","null","resources/images/fishbone.png","null","",NA,NA,NA,NA,""
"image-keyboard-response",74,106214,"0.0-3.21-0.21","7jg0kczztkw96nk",72,"35.csv","","331.90000009536743","resources/trios/L4T1A2.jpg","39","restless",0.8,0.6,0.3,0.676095848469546,"false"
"image-keyboard-response",75,106623,"0.0-3.21-1.21","7jg0kczztkw96nk",72,"35.csv","","null","resources/maskTrios/BBA2.jpg","null","",NA,NA,NA,NA,""
"image-keyboard-response",76,107831,"0.0-3.21-2.21","7jg0kczztkw96nk",72,"35.csv","","null","resources/images/fishbone.png","null","",NA,NA,NA,NA,""
"image-keyboard-response",77,109093,"0.0-3.22-0.22","7jg0kczztkw96nk",72,"35.csv","","1259.8999998569489","resources/trios/L4T1A2.jpg","38","restless",0.8,0.6,0.3,0.0715997786415732,"true"
"image-keyboard-response",78,109504,"0.0-3.22-1.22","7jg0kczztkw96nk",72,"35.csv","","null","resources/maskTrios/BT1B.jpg","null","",NA,NA,NA,NA,""
"image-keyboard-response",79,110712,"0.0-3.22-2.22","7jg0kczztkw96nk",72,"35.csv","","null","resources/images/coin2.png","null","",NA,NA,NA,NA,""
"image-keyboard-response",80,111178,"0.0-3.23-0.23","7jg0kczztkw96nk",72,"35.csv","","464.2999999523163","resources/trios/L1T1A1.jpg","38","restless",0.7,0.6,0.3,0.400321493444807,"true"
"image-keyboard-response",81,111592,"0.0-3.23-1.23","7jg0kczztkw96nk",72,"35.csv","","null","resources/maskTrios/BT1B.jpg","null","",NA,NA,NA,NA,""
"image-keyboard-response",82,112799,"0.0-3.23-2.23","7jg0kczztkw96nk",72,"35.csv","","null","resources/images/coin2.png","null","",NA,NA,NA,NA,""
"image-keyboard-response",83,113155,"0.0-3.24-0.24","7jg0kczztkw96nk",72,"35.csv","","353.80000019073486","resources/trios/L1T2A1.jpg","37","restless",0.7,0.6,0.3,0.657868015312809,"true"
"image-keyboard-response",84,113568,"0.0-3.24-1.24","7jg0kczztkw96nk",72,"35.csv","","null","resources/maskTrios/L1BB.jpg","null","",NA,NA,NA,NA,""
"image-keyboard-response",85,114776,"0.0-3.24-2.24","7jg0kczztkw96nk",72,"35.csv","","null","resources/images/coin2.png","null","",NA,NA,NA,NA,""
"image-keyboard-response",86,115103,"0.0-3.25-0.25","7jg0kczztkw96nk",72,"35.csv","","324.90000009536743","resources/trios/L4T2A1.jpg","37","restless",0.7,0.6,0.3,0.555058671513974,"true"
"image-keyboard-response",87,115512,"0.0-3.25-1.25","7jg0kczztkw96nk",72,"35.csv","","null","resources/maskTrios/L4BB.jpg","null","",NA,NA,NA,NA,""
"image-keyboard-response",88,116720,"0.0-3.25-2.25","7jg0kczztkw96nk",72,"35.csv","","null","resources/images/coin2.png","null","",NA,NA,NA,NA,""
"image-keyboard-response",89,117759,"0.0-3.26-0.26","7jg0kczztkw96nk",72,"35.csv","","1036.7999999523163","resources/trios/L4T1A2.jpg","38","restless",0.7,0.6,0.3,0.989442556675092,"false"
"image-keyboard-response",90,118164,"0.0-3.26-1.26","7jg0kczztkw96nk",72,"35.csv","","null","resources/maskTrios/BT1B.jpg","null","",NA,NA,NA,NA,""
"image-keyboard-response",91,119371,"0.0-3.26-2.26","7jg0kczztkw96nk",72,"35.csv","","null","resources/images/fishbone.png","null","",NA,NA,NA,NA,""
"image-keyboard-response",92,119835,"0.0-3.27-0.27","7jg0kczztkw96nk",72,"35.csv","","462.09999990463257","resources/trios/L4T2A1.jpg","37","restless",0.7,0.6,0.3,0.0772689988013917,"true"
"image-keyboard-response",93,120244,"0.0-3.27-1.27","7jg0kczztkw96nk",72,"35.csv","","null","resources/maskTrios/L4BB.jpg","null","",NA,NA,NA,NA,""
"image-keyboard-response",94,121456,"0.0-3.27-2.27","7jg0kczztkw96nk",72,"35.csv","","null","resources/images/coin2.png","null","",NA,NA,NA,NA,""
"image-keyboard-response",95,121758,"0.0-3.28-0.28","7jg0kczztkw96nk",72,"35.csv","","300.7000000476837","resources/trios/L1T2A1.jpg","39","restless",0.6,0.6,0.3,0.946002218308935,"false"
"image-keyboard-response",96,122168,"0.0-3.28-1.28","7jg0kczztkw96nk",72,"35.csv","","null","resources/maskTrios/BBA1.jpg","null","",NA,NA,NA,NA,""
"image-keyboard-response",97,123376,"0.0-3.28-2.28","7jg0kczztkw96nk",72,"35.csv","","null","resources/images/fishbone.png","null","",NA,NA,NA,NA,""
"image-keyboard-response",98,124758,"0.0-3.29-0.29","7jg0kczztkw96nk",72,"35.csv","","1380.2000000476837","resources/trios/L4T2A1.jpg","38","restless",0.6,0.6,0.3,0.740298623135798,"false"
"image-keyboard-response",99,125163,"0.0-3.29-1.29","7jg0kczztkw96nk",72,"35.csv","","null","resources/maskTrios/BT2B.jpg","null","",NA,NA,NA,NA,""
"image-keyboard-response",100,126376,"0.0-3.29-2.29","7jg0kczztkw96nk",72,"35.csv","","null","resources/images/fishbone.png","null","",NA,NA,NA,NA,""
"image-keyboard-response",101,126680,"0.0-3.30-0.30","7jg0kczztkw96nk",72,"35.csv","","302.2999999523163","resources/trios/L4T2A1.jpg","38","restless",0.6,0.6,0.3,0.417612603622087,"true"
"image-keyboard-response",102,127088,"0.0-3.30-1.30","7jg0kczztkw96nk",72,"35.csv","","null","resources/maskTrios/BT2B.jpg","null","",NA,NA,NA,NA,""
"image-keyboard-response",103,128296,"0.0-3.30-2.30","7jg0kczztkw96nk",72,"35.csv","","null","resources/images/coin2.png","null","",NA,NA,NA,NA,""
"image-keyboard-response",104,128834,"0.0-3.31-0.31","7jg0kczztkw96nk",72,"35.csv","","536.2999999523163","resources/trios/L1T2A1.jpg","37","restless",0.6,0.6,0.3,0.45722653595784,"true"
"image-keyboard-response",105,129246,"0.0-3.31-1.31","7jg0kczztkw96nk",72,"35.csv","","null","resources/maskTrios/L1BB.jpg","null","",NA,NA,NA,NA,""
"image-keyboard-response",106,130451,"0.0-3.31-2.31","7jg0kczztkw96nk",72,"35.csv","","null","resources/images/coin2.png","null","",NA,NA,NA,NA,""
"image-keyboard-response",107,130829,"0.0-3.32-0.32","7jg0kczztkw96nk",72,"35.csv","","376.7000000476837","resources/trios/L4T2A2.jpg","38","restless",0.6,0.6,0.3,0.0610325250354651,"true"
"image-keyboard-response",108,131240,"0.0-3.32-1.32","7jg0kczztkw96nk",72,"35.csv","","null","resources/maskTrios/BT2B.jpg","null","",NA,NA,NA,NA,""
"image-keyboard-response",109,132448,"0.0-3.32-2.32","7jg0kczztkw96nk",72,"35.csv","","null","resources/images/coin2.png","null","",NA,NA,NA,NA,""
"image-keyboard-response",110,132741,"0.0-3.33-0.33","7jg0kczztkw96nk",72,"35.csv","","290.59999990463257","resources/trios/L1T2A2.jpg","37","restless",0.6,0.6,0.3,0.476527619992489,"true"
"image-keyboard-response",111,133148,"0.0-3.33-1.33","7jg0kczztkw96nk",72,"35.csv","","null","resources/maskTrios/L1BB.jpg","null","",NA,NA,NA,NA,""
"image-keyboard-response",112,134360,"0.0-3.33-2.33","7jg0kczztkw96nk",72,"35.csv","","null","resources/images/coin2.png","null","",NA,NA,NA,NA,""
"image-keyboard-response",113,134623,"0.0-3.34-0.34","7jg0kczztkw96nk",72,"35.csv","","261","resources/trios/L1T1A1.jpg","39","restless",0.6,0.6,0.3,0.442648586581868,"false"
"image-keyboard-response",114,135032,"0.0-3.34-1.34","7jg0kczztkw96nk",72,"35.csv","","null","resources/maskTrios/BBA1.jpg","null","",NA,NA,NA,NA,""
"image-keyboard-response",115,136240,"0.0-3.34-2.34","7jg0kczztkw96nk",72,"35.csv","","null","resources/images/fishbone.png","null","",NA,NA,NA,NA,""
"image-keyboard-response",116,136645,"0.0-3.35-0.35","7jg0kczztkw96nk",72,"35.csv","","403.39999985694885","resources/trios/L4T2A2.jpg","38","restless",0.6,0.6,0.3,0.386023235047681,"true"
"image-keyboard-response",117,137052,"0.0-3.35-1.35","7jg0kczztkw96nk",72,"35.csv","","null","resources/maskTrios/BT2B.jpg","null","",NA,NA,NA,NA,""
"image-keyboard-response",118,138264,"0.0-3.35-2.35","7jg0kczztkw96nk",72,"35.csv","","null","resources/images/coin2.png","null","",NA,NA,NA,NA,""
"image-keyboard-response",119,138563,"0.0-3.36-0.36","7jg0kczztkw96nk",72,"35.csv","","297.5","resources/trios/L4T1A1.jpg","39","restless",0.6,0.7,0.3,0.335167628445808,"false"
"image-keyboard-response",120,138976,"0.0-3.36-1.36","7jg0kczztkw96nk",72,"35.csv","","null","resources/maskTrios/BBA1.jpg","null","",NA,NA,NA,NA,""
"image-keyboard-response",121,140184,"0.0-3.36-2.36","7jg0kczztkw96nk",72,"35.csv","","null","resources/images/fishbone.png","null","",NA,NA,NA,NA,""
"image-keyboard-response",122,140219,"0.0-3.37-0.37","7jg0kczztkw96nk",72,"35.csv","","33","resources/trios/L4T1A2.jpg","37","restless",0.6,0.7,0.3,0.787778415089102,"false"
"image-keyboard-response",123,140628,"0.0-3.37-1.37","7jg0kczztkw96nk",72,"35.csv","","null","resources/maskTrios/L4BB.jpg","null","",NA,NA,NA,NA,""
"image-keyboard-response",124,141840,"0.0-3.37-2.37","7jg0kczztkw96nk",72,"35.csv","","null","resources/images/fishbone.png","null","",NA,NA,NA,NA,""
"image-keyboard-response",125,142188,"0.0-3.38-0.38","7jg0kczztkw96nk",72,"35.csv","","346.5","resources/trios/L1T2A2.jpg","38","restless",0.6,0.7,0.2,0.663523963685261,"true"
"image-keyboard-response",126,142600,"0.0-3.38-1.38","7jg0kczztkw96nk",72,"35.csv","","null","resources/maskTrios/BT2B.jpg","null","",NA,NA,NA,NA,""
"image-keyboard-response",127,143808,"0.0-3.38-2.38","7jg0kczztkw96nk",72,"35.csv","","null","resources/images/coin2.png","null","",NA,NA,NA,NA,""
"image-keyboard-response",128,144129,"0.0-3.39-0.39","7jg0kczztkw96nk",72,"35.csv","","318.89999985694885","resources/trios/L1T1A1.jpg","38","restless",0.6,0.7,0.2,0.382164923480793,"true"
"image-keyboard-response",129,144544,"0.0-3.39-1.39","7jg0kczztkw96nk",72,"35.csv","","null","resources/maskTrios/BT1B.jpg","null","",NA,NA,NA,NA,""
"image-keyboard-response",130,145752,"0.0-3.39-2.39","7jg0kczztkw96nk",72,"35.csv","","null","resources/images/coin2.png","null","",NA,NA,NA,NA,""
"image-keyboard-response",131,146021,"0.0-3.40-0.40","7jg0kczztkw96nk",72,"35.csv","","267.2999999523163","resources/trios/L4T1A2.jpg","39","restless",0.6,0.7,0.2,0.722306973276349,"false"
"image-keyboard-response",132,146432,"0.0-3.40-1.40","7jg0kczztkw96nk",72,"35.csv","","null","resources/maskTrios/BBA2.jpg","null","",NA,NA,NA,NA,""
"image-keyboard-response",133,147640,"0.0-3.40-2.40","7jg0kczztkw96nk",72,"35.csv","","null","resources/images/fishbone.png","null","",NA,NA,NA,NA,""
"image-keyboard-response",134,147654,"0.0-3.41-0.41","7jg0kczztkw96nk",72,"35.csv","","12.800000190734863","resources/trios/L1T2A2.jpg","37","restless",0.6,0.7,0.2,0.212109268228406,"true"
"image-keyboard-response",135,148064,"0.0-3.41-1.41","7jg0kczztkw96nk",72,"35.csv","","null","resources/maskTrios/L1BB.jpg","null","",NA,NA,NA,NA,""
"image-keyboard-response",136,149267,"0.0-3.41-2.41","7jg0kczztkw96nk",72,"35.csv","","null","resources/images/coin2.png","null","",NA,NA,NA,NA,""
"image-keyboard-response",137,150447,"0.0-3.42-0.42","7jg0kczztkw96nk",72,"35.csv","","1177.2999999523163","resources/trios/L4T1A2.jpg","38","restless",0.6,0.7,0.2,0.042551622494859,"true"
"image-keyboard-response",138,150853,"0.0-3.42-1.42","7jg0kczztkw96nk",72,"35.csv","","null","resources/maskTrios/BT1B.jpg","null","",NA,NA,NA,NA,""
"image-keyboard-response",139,152064,"0.0-3.42-2.42","7jg0kczztkw96nk",72,"35.csv","","null","resources/images/coin2.png","null","",NA,NA,NA,NA,""
"image-keyboard-response",140,152362,"0.0-3.43-0.43","7jg0kczztkw96nk",72,"35.csv","","295.5","resources/trios/L1T1A2.jpg","37","restless",0.6,0.7,0.2,0.89437409228271,"false"
"image-keyboard-response",141,152768,"0.0-3.43-1.43","7jg0kczztkw96nk",72,"35.csv","","null","resources/maskTrios/L1BB.jpg","null","",NA,NA,NA,NA,""
"image-keyboard-response",142,153976,"0.0-3.43-2.43","7jg0kczztkw96nk",72,"35.csv","","null","resources/images/fishbone.png","null","",NA,NA,NA,NA,""
"image-keyboard-response",143,155656,"0.0-3.44-0.44","7jg0kczztkw96nk",72,"35.csv","","1677.8999998569489","resources/trios/L1T1A1.jpg","38","restless",0.6,0.7,0.2,0.277223086074558,"true"
"image-keyboard-response",144,156064,"0.0-3.44-1.44","7jg0kczztkw96nk",72,"35.csv","","null","resources/maskTrios/BT1B.jpg","null","",NA,NA,NA,NA,""
"image-keyboard-response",145,157267,"0.0-3.44-2.44","7jg0kczztkw96nk",72,"35.csv","","null","resources/images/coin2.png","null","",NA,NA,NA,NA,""
"image-keyboard-response",146,159063,"0.0-3.45-0.45","7jg0kczztkw96nk",72,"35.csv","","1793.7999999523163","resources/trios/L1T1A1.jpg","38","restless",0.6,0.7,0.2,0.37922981971901,"true"
"image-keyboard-response",147,159471,"0.0-3.45-1.45","7jg0kczztkw96nk",72,"35.csv","","null","resources/maskTrios/BT1B.jpg","null","",NA,NA,NA,NA,""
"image-keyboard-response",148,160680,"0.0-3.45-2.45","7jg0kczztkw96nk",72,"35.csv","","null","resources/images/coin2.png","null","",NA,NA,NA,NA,""
"image-keyboard-response",149,161001,"0.0-3.46-0.46","7jg0kczztkw96nk",72,"35.csv","","318.60000014305115","resources/trios/L4T2A1.jpg","37","restless",0.6,0.7,0.3,0.71458154723123,"false"
"image-keyboard-response",150,161416,"0.0-3.46-1.46","7jg0kczztkw96nk",72,"35.csv","","null","resources/maskTrios/L4BB.jpg","null","",NA,NA,NA,NA,""
"image-keyboard-response",151,162624,"0.0-3.46-2.46","7jg0kczztkw96nk",72,"35.csv","","null","resources/images/fishbone.png","null","",NA,NA,NA,NA,""
"image-keyboard-response",152,162934,"0.0-3.47-0.47","7jg0kczztkw96nk",72,"35.csv","","308.09999990463257","resources/trios/L1T1A1.jpg","39","restless",0.6,0.7,0.3,0.295006822763491,"true"
"image-keyboard-response",153,163344,"0.0-3.47-1.47","7jg0kczztkw96nk",72,"35.csv","","null","resources/maskTrios/BBA1.jpg","null","",NA,NA,NA,NA,""
"image-keyboard-response",154,164548,"0.0-3.47-2.47","7jg0kczztkw96nk",72,"35.csv","","null","resources/images/coin2.png","null","",NA,NA,NA,NA,""
"image-keyboard-response",155,164753,"0.0-3.48-0.48","7jg0kczztkw96nk",72,"35.csv","","202.59999990463257","resources/trios/L4T2A1.jpg","39","restless",0.6,0.8,0.3,0.0898429086555559,"true"
"image-keyboard-response",156,165168,"0.0-3.48-1.48","7jg0kczztkw96nk",72,"35.csv","","null","resources/maskTrios/BBA1.jpg","null","",NA,NA,NA,NA,""
"image-keyboard-response",157,166372,"0.0-3.48-2.48","7jg0kczztkw96nk",72,"35.csv","","null","resources/images/coin2.png","null","",NA,NA,NA,NA,""
"image-keyboard-response",158,166654,"0.0-3.49-0.49","7jg0kczztkw96nk",72,"35.csv","","280.10000014305115","resources/trios/L1T2A2.jpg","38","restless",0.6,0.8,0.3,0.585305396706895,"true"
"image-keyboard-response",159,167064,"0.0-3.49-1.49","7jg0kczztkw96nk",72,"35.csv","","null","resources/maskTrios/BT2B.jpg","null","",NA,NA,NA,NA,""
"image-keyboard-response",160,168267,"0.0-3.49-2.49","7jg0kczztkw96nk",72,"35.csv","","null","resources/images/coin2.png","null","",NA,NA,NA,NA,""
"image-keyboard-response",161,168867,"0.0-3.50-0.50","7jg0kczztkw96nk",72,"35.csv","","597.5999999046326","resources/trios/L4T1A1.jpg","38","restless",0.6,0.8,0.3,0.0405459935125172,"true"
"image-keyboard-response",162,169277,"0.0-3.50-1.50","7jg0kczztkw96nk",72,"35.csv","","null","resources/maskTrios/BT1B.jpg","null","",NA,NA,NA,NA,""
"image-keyboard-response",163,170484,"0.0-3.50-2.50","7jg0kczztkw96nk",72,"35.csv","","null","resources/images/coin2.png","null","",NA,NA,NA,NA,""
"image-keyboard-response",164,170542,"0.0-3.51-0.51","7jg0kczztkw96nk",72,"35.csv","","56.200000047683716","resources/trios/L1T1A1.jpg","37","restless",0.5,0.8,0.4,0.385751608064878,"true"
"image-keyboard-response",165,170952,"0.0-3.51-1.51","7jg0kczztkw96nk",72,"35.csv","","null","resources/maskTrios/L1BB.jpg","null","",NA,NA,NA,NA,""
"image-keyboard-response",166,172160,"0.0-3.51-2.51","7jg0kczztkw96nk",72,"35.csv","","null","resources/images/coin2.png","null","",NA,NA,NA,NA,""
"image-keyboard-response",167,172372,"0.0-3.52-0.52","7jg0kczztkw96nk",72,"35.csv","","210.5","resources/trios/L4T1A2.jpg","38","restless",0.5,0.8,0.4,0.537561250453976,"true"
"image-keyboard-response",168,172784,"0.0-3.52-1.52","7jg0kczztkw96nk",72,"35.csv","","null","resources/maskTrios/BT1B.jpg","null","",NA,NA,NA,NA,""
"image-keyboard-response",169,173992,"0.0-3.52-2.52","7jg0kczztkw96nk",72,"35.csv","","null","resources/images/coin2.png","null","",NA,NA,NA,NA,""
"image-keyboard-response",170,174117,"0.0-3.53-0.53","7jg0kczztkw96nk",72,"35.csv","","123","resources/trios/L1T1A2.jpg","37","restless",0.5,0.7,0.5,0.992193604546193,"false"
"image-keyboard-response",171,174528,"0.0-3.53-1.53","7jg0kczztkw96nk",72,"35.csv","","null","resources/maskTrios/L1BB.jpg","null","",NA,NA,NA,NA,""
"image-keyboard-response",172,175736,"0.0-3.53-2.53","7jg0kczztkw96nk",72,"35.csv","","null","resources/images/fishbone.png","null","",NA,NA,NA,NA,""
"image-keyboard-response",173,175758,"0.0-3.54-0.54","7jg0kczztkw96nk",72,"35.csv","","20.100000143051147","resources/trios/L4T2A1.jpg","39","restless",0.5,0.7,0.5,0.278207065496006,"true"
"image-keyboard-response",174,176164,"0.0-3.54-1.54","7jg0kczztkw96nk",72,"35.csv","","null","resources/maskTrios/BBA1.jpg","null","",NA,NA,NA,NA,""
"image-keyboard-response",175,177376,"0.0-3.54-2.54","7jg0kczztkw96nk",72,"35.csv","","null","resources/images/coin2.png","null","",NA,NA,NA,NA,""
"image-keyboard-response",176,177635,"0.0-3.55-0.55","7jg0kczztkw96nk",72,"35.csv","","257.5","resources/trios/L1T2A2.jpg","38","restless",0.5,0.7,0.5,0.861326287797181,"false"
"image-keyboard-response",177,178048,"0.0-3.55-1.55","7jg0kczztkw96nk",72,"35.csv","","null","resources/maskTrios/BT2B.jpg","null","",NA,NA,NA,NA,""
"image-keyboard-response",178,179256,"0.0-3.55-2.55","7jg0kczztkw96nk",72,"35.csv","","null","resources/images/fishbone.png","null","",NA,NA,NA,NA,""
"image-keyboard-response",179,179751,"0.0-3.56-0.56","7jg0kczztkw96nk",72,"35.csv","","493.59999990463257","resources/trios/L1T1A1.jpg","37","restless",0.5,0.7,0.6,0.106392472790157,"true"
"image-keyboard-response",180,180160,"0.0-3.56-1.56","7jg0kczztkw96nk",72,"35.csv","","null","resources/maskTrios/L1BB.jpg","null","",NA,NA,NA,NA,""
"image-keyboard-response",181,181368,"0.0-3.56-2.56","7jg0kczztkw96nk",72,"35.csv","","null","resources/images/coin2.png","null","",NA,NA,NA,NA,""
"image-keyboard-response",182,181768,"0.0-3.57-0.57","7jg0kczztkw96nk",72,"35.csv","","398.09999990463257","resources/trios/L4T1A1.jpg","38","restless",0.5,0.7,0.7,0.513039160501044,"true"
"image-keyboard-response",183,182176,"0.0-3.57-1.57","7jg0kczztkw96nk",72,"35.csv","","null","resources/maskTrios/BT1B.jpg","null","",NA,NA,NA,NA,""
"image-keyboard-response",184,183380,"0.0-3.57-2.57","7jg0kczztkw96nk",72,"35.csv","","null","resources/images/coin2.png","null","",NA,NA,NA,NA,""
"image-keyboard-response",185,184144,"0.0-3.58-0.58","7jg0kczztkw96nk",72,"35.csv","","762.1000001430511","resources/trios/L1T1A2.jpg","38","restless",0.4,0.6,0.7,0.560188089293172,"true"
"image-keyboard-response",186,184548,"0.0-3.58-1.58","7jg0kczztkw96nk",72,"35.csv","","null","resources/maskTrios/BT1B.jpg","null","",NA,NA,NA,NA,""
"image-keyboard-response",187,185760,"0.0-3.58-2.58","7jg0kczztkw96nk",72,"35.csv","","null","resources/images/coin2.png","null","",NA,NA,NA,NA,""
"image-keyboard-response",188,186085,"0.0-3.59-0.59","7jg0kczztkw96nk",72,"35.csv","","322.89999985694885","resources/trios/L1T1A2.jpg","39","restless",0.4,0.6,0.7,0.669815229146842,"true"
"image-keyboard-response",189,186491,"0.0-3.59-1.59","7jg0kczztkw96nk",72,"35.csv","","null","resources/maskTrios/BBA2.jpg","null","",NA,NA,NA,NA,""
"image-keyboard-response",190,187700,"0.0-3.59-2.59","7jg0kczztkw96nk",72,"35.csv","","null","resources/images/coin2.png","null","",NA,NA,NA,NA,""
"image-keyboard-response",191,188814,"0.0-3.60-0.60","7jg0kczztkw96nk",72,"35.csv","","1112.1000001430511","resources/trios/L4T1A2.jpg","38","restless",0.4,0.6,0.7,0.225344697069423,"true"
"image-keyboard-response",192,189224,"0.0-3.60-1.60","7jg0kczztkw96nk",72,"35.csv","","null","resources/maskTrios/BT1B.jpg","null","",NA,NA,NA,NA,""
"image-keyboard-response",193,190432,"0.0-3.60-2.60","7jg0kczztkw96nk",72,"35.csv","","null","resources/images/coin2.png","null","",NA,NA,NA,NA,""
"image-keyboard-response",194,191157,"0.0-3.61-0.61","7jg0kczztkw96nk",72,"35.csv","","722.6000001430511","resources/trios/L4T1A1.jpg","37","restless",0.4,0.5,0.7,0.688657687573125,"false"
"image-keyboard-response",195,191568,"0.0-3.61-1.61","7jg0kczztkw96nk",72,"35.csv","","null","resources/maskTrios/L4BB.jpg","null","",NA,NA,NA,NA,""
"image-keyboard-response",196,192776,"0.0-3.61-2.61","7jg0kczztkw96nk",72,"35.csv","","null","resources/images/fishbone.png","null","",NA,NA,NA,NA,""
"image-keyboard-response",197,193570,"0.0-3.62-0.62","7jg0kczztkw96nk",72,"35.csv","","792.4000000953674","resources/trios/L1T2A2.jpg","39","restless",0.4,0.5,0.7,0.447338684155753,"true"
"image-keyboard-response",198,193984,"0.0-3.62-1.62","7jg0kczztkw96nk",72,"35.csv","","null","resources/maskTrios/BBA2.jpg","null","",NA,NA,NA,NA,""
"image-keyboard-response",199,195192,"0.0-3.62-2.62","7jg0kczztkw96nk",72,"35.csv","","null","resources/images/coin2.png","null","",NA,NA,NA,NA,""
"image-keyboard-response",200,196977,"0.0-3.63-0.63","7jg0kczztkw96nk",72,"35.csv","","1782.5","resources/trios/L4T1A1.jpg","39","restless",0.4,0.5,0.7,0.986082482475973,"false"
"image-keyboard-response",201,197380,"0.0-3.63-1.63","7jg0kczztkw96nk",72,"35.csv","","null","resources/maskTrios/BBA1.jpg","null","",NA,NA,NA,NA,""
"image-keyboard-response",202,198592,"0.0-3.63-2.63","7jg0kczztkw96nk",72,"35.csv","","null","resources/images/fishbone.png","null","",NA,NA,NA,NA,""
"image-keyboard-response",203,199076,"0.0-3.64-0.64","7jg0kczztkw96nk",72,"35.csv","","482.5","resources/trios/L1T2A1.jpg","37","restless",0.4,0.5,0.7,0.920722266780581,"false"
"image-keyboard-response",204,199486,"0.0-3.64-1.64","7jg0kczztkw96nk",72,"35.csv","","null","resources/maskTrios/L1BB.jpg","null","",NA,NA,NA,NA,""
"image-keyboard-response",205,200692,"0.0-3.64-2.64","7jg0kczztkw96nk",72,"35.csv","","null","resources/images/fishbone.png","null","",NA,NA,NA,NA,""
"image-keyboard-response",206,200845,"0.0-3.65-0.65","7jg0kczztkw96nk",72,"35.csv","","151.69999980926514","resources/trios/L4T2A1.jpg","37","restless",0.3,0.5,0.7,0.0651821263733097,"true"
"image-keyboard-response",207,201256,"0.0-3.65-1.65","7jg0kczztkw96nk",72,"35.csv","","null","resources/maskTrios/L4BB.jpg","null","",NA,NA,NA,NA,""
"image-keyboard-response",208,202464,"0.0-3.65-2.65","7jg0kczztkw96nk",72,"35.csv","","null","resources/images/coin2.png","null","",NA,NA,NA,NA,""
"image-keyboard-response",209,203010,"0.0-3.66-0.66","7jg0kczztkw96nk",72,"35.csv","","544.0999999046326","resources/trios/L1T2A1.jpg","38","restless",0.4,0.5,0.7,0.0935257940834657,"true"
"image-keyboard-response",210,203424,"0.0-3.66-1.66","7jg0kczztkw96nk",72,"35.csv","","null","resources/maskTrios/BT2B.jpg","null","",NA,NA,NA,NA,""
"image-keyboard-response",211,204632,"0.0-3.66-2.66","7jg0kczztkw96nk",72,"35.csv","","null","resources/images/coin2.png","null","",NA,NA,NA,NA,""
"image-keyboard-response",212,205929,"0.0-3.67-0.67","7jg0kczztkw96nk",72,"35.csv","","1295","resources/trios/L1T2A1.jpg","38","restless",0.4,0.5,0.7,0.552683793087466,"false"
"image-keyboard-response",213,206344,"0.0-3.67-1.67","7jg0kczztkw96nk",72,"35.csv","","null","resources/maskTrios/BT2B.jpg","null","",NA,NA,NA,NA,""
"image-keyboard-response",214,207552,"0.0-3.67-2.67","7jg0kczztkw96nk",72,"35.csv","","null","resources/images/fishbone.png","null","",NA,NA,NA,NA,""
"image-keyboard-response",215,208028,"0.0-3.68-0.68","7jg0kczztkw96nk",72,"35.csv","","474","resources/trios/L1T2A2.jpg","39","restless",0.4,0.5,0.7,0.0447349075307077,"true"
"image-keyboard-response",216,208440,"0.0-3.68-1.68","7jg0kczztkw96nk",72,"35.csv","","null","resources/maskTrios/BBA2.jpg","null","",NA,NA,NA,NA,""
"image-keyboard-response",217,209643,"0.0-3.68-2.68","7jg0kczztkw96nk",72,"35.csv","","null","resources/images/coin2.png","null","",NA,NA,NA,NA,""
"image-keyboard-response",218,215386,"0.0-3.69-0.69","7jg0kczztkw96nk",72,"35.csv","","5741.399999856949","resources/trios/L1T1A1.jpg","37","restless",0.4,0.5,0.8,0.308884526177739,"true"
"image-keyboard-response",219,215800,"0.0-3.69-1.69","7jg0kczztkw96nk",72,"35.csv","","null","resources/maskTrios/L1BB.jpg","null","",NA,NA,NA,NA,""
"image-keyboard-response",220,217008,"0.0-3.69-2.69","7jg0kczztkw96nk",72,"35.csv","","null","resources/images/coin2.png","null","",NA,NA,NA,NA,""
"image-keyboard-response",221,217250,"0.0-3.70-0.70","7jg0kczztkw96nk",72,"35.csv","","239.90000009536743","resources/trios/L1T2A1.jpg","39","restless",0.5,0.5,0.8,0.246024529954511,"true"
"image-keyboard-response",222,217664,"0.0-3.70-1.70","7jg0kczztkw96nk",72,"35.csv","","null","resources/maskTrios/BBA1.jpg","null","",NA,NA,NA,NA,""
"image-keyboard-response",223,218872,"0.0-3.70-2.70","7jg0kczztkw96nk",72,"35.csv","","null","resources/images/coin2.png","null","",NA,NA,NA,NA,""
"image-keyboard-response",224,219199,"0.0-3.71-0.71","7jg0kczztkw96nk",72,"35.csv","","325.2999999523163","resources/trios/L4T2A2.jpg","39","restless",0.5,0.5,0.8,0.481514915387437,"true"
"image-keyboard-response",225,219608,"0.0-3.71-1.71","7jg0kczztkw96nk",72,"35.csv","","null","resources/maskTrios/BBA2.jpg","null","",NA,NA,NA,NA,""
"image-keyboard-response",226,220813,"0.0-3.71-2.71","7jg0kczztkw96nk",72,"35.csv","","null","resources/images/coin2.png","null","",NA,NA,NA,NA,""
"image-keyboard-response",227,221121,"0.0-3.72-0.72","7jg0kczztkw96nk",72,"35.csv","","305.5","resources/trios/L4T1A1.jpg","39","restless",0.5,0.5,0.8,0.228248322873195,"true"
"image-keyboard-response",228,221528,"0.0-3.72-1.72","7jg0kczztkw96nk",72,"35.csv","","null","resources/maskTrios/BBA1.jpg","null","",NA,NA,NA,NA,""
"image-keyboard-response",229,222736,"0.0-3.72-2.72","7jg0kczztkw96nk",72,"35.csv","","null","resources/images/coin2.png","null","",NA,NA,NA,NA,""
"image-keyboard-response",230,223038,"0.0-3.73-0.73","7jg0kczztkw96nk",72,"35.csv","","299.5","resources/trios/L4T2A1.jpg","39","restless",0.5,0.5,0.9,0.121895506269284,"true"
"image-keyboard-response",231,223448,"0.0-3.73-1.73","7jg0kczztkw96nk",72,"35.csv","","null","resources/maskTrios/BBA1.jpg","null","",NA,NA,NA,NA,""
"image-keyboard-response",232,224656,"0.0-3.73-2.73","7jg0kczztkw96nk",72,"35.csv","","null","resources/images/coin2.png","null","",NA,NA,NA,NA,""
"image-keyboard-response",233,225202,"0.0-3.74-0.74","7jg0kczztkw96nk",72,"35.csv","","543.3999998569489","resources/trios/L4T1A2.jpg","38","restless",0.5,0.5,0.9,0.847973715740988,"false"
"image-keyboard-response",234,225615,"0.0-3.74-1.74","7jg0kczztkw96nk",72,"35.csv","","null","resources/maskTrios/BT1B.jpg","null","",NA,NA,NA,NA,""
"image-keyboard-response",235,226824,"0.0-3.74-2.74","7jg0kczztkw96nk",72,"35.csv","","null","resources/images/fishbone.png","null","",NA,NA,NA,NA,""
"image-keyboard-response",236,229795,"0.0-3.75-0.75","7jg0kczztkw96nk",72,"35.csv","","2968.2999999523163","resources/trios/L4T2A1.jpg","37","restless",0.5,0.5,0.9,0.281121878756579,"true"
"image-keyboard-response",237,230200,"0.0-3.75-1.75","7jg0kczztkw96nk",72,"35.csv","","null","resources/maskTrios/L4BB.jpg","null","",NA,NA,NA,NA,""
"image-keyboard-response",238,231408,"0.0-3.75-2.75","7jg0kczztkw96nk",72,"35.csv","","null","resources/images/coin2.png","null","",NA,NA,NA,NA,""
"image-keyboard-response",239,232997,"0.0-3.76-0.76","7jg0kczztkw96nk",72,"35.csv","","1586.2999999523163","resources/trios/L1T1A1.jpg","37","restless",0.5,0.5,0.9,0.877729156413664,"false"
"image-keyboard-response",240,233408,"0.0-3.76-1.76","7jg0kczztkw96nk",72,"35.csv","","null","resources/maskTrios/L1BB.jpg","null","",NA,NA,NA,NA,""
"image-keyboard-response",241,234616,"0.0-3.76-2.76","7jg0kczztkw96nk",72,"35.csv","","null","resources/images/fishbone.png","null","",NA,NA,NA,NA,""
"image-keyboard-response",242,238611,"0.0-3.77-0.77","7jg0kczztkw96nk",72,"35.csv","","3992.5","resources/trios/L1T2A1.jpg","37","restless",0.5,0.6,0.9,0.502724446202292,"false"
"image-keyboard-response",243,239024,"0.0-3.77-1.77","7jg0kczztkw96nk",72,"35.csv","","null","resources/maskTrios/L1BB.jpg","null","",NA,NA,NA,NA,""
"image-keyboard-response",244,240229,"0.0-3.77-2.77","7jg0kczztkw96nk",72,"35.csv","","null","resources/images/fishbone.png","null","",NA,NA,NA,NA,""
"image-keyboard-response",245,259087,"0.0-3.78-0.78","7jg0kczztkw96nk",72,"35.csv","","18856.5","resources/trios/L4T1A2.jpg","37","restless",0.5,0.6,0.9,0.443569203823793,"true"
"image-keyboard-response",246,259496,"0.0-3.78-1.78","7jg0kczztkw96nk",72,"35.csv","","null","resources/maskTrios/L4BB.jpg","null","",NA,NA,NA,NA,""
"image-keyboard-response",247,260704,"0.0-3.78-2.78","7jg0kczztkw96nk",72,"35.csv","","null","resources/images/coin2.png","null","",NA,NA,NA,NA,""
"image-keyboard-response",248,297763,"0.0-3.79-0.79","7jg0kczztkw96nk",72,"35.csv","","37056.700000047684","resources/trios/L4T2A1.jpg","37","restless",0.5,0.5,0.9,0.13544999471903,"true"
"image-keyboard-response",249,298174,"0.0-3.79-1.79","7jg0kczztkw96nk",72,"35.csv","","null","resources/maskTrios/L4BB.jpg","null","",NA,NA,NA,NA,""
"image-keyboard-response",250,299384,"0.0-3.79-2.79","7jg0kczztkw96nk",72,"35.csv","","null","resources/images/coin2.png","null","",NA,NA,NA,NA,""
"image-keyboard-response",251,300485,"0.0-3.80-0.80","7jg0kczztkw96nk",72,"35.csv","","1098.7999999523163","resources/trios/L4T1A2.jpg","39","restless",0.5,0.5,0.9,0.020812026239136,"true"
"image-keyboard-response",252,300892,"0.0-3.80-1.80","7jg0kczztkw96nk",72,"35.csv","","null","resources/maskTrios/BBA2.jpg","null","",NA,NA,NA,NA,""
"image-keyboard-response",253,302104,"0.0-3.80-2.80","7jg0kczztkw96nk",72,"35.csv","","null","resources/images/coin2.png","null","",NA,NA,NA,NA,""
"image-keyboard-response",254,302400,"0.0-3.81-0.81","7jg0kczztkw96nk",72,"35.csv","","293.09999990463257","resources/trios/L4T1A1.jpg","37","restless",0.5,0.5,0.9,0.872429630039606,"false"
"image-keyboard-response",255,302808,"0.0-3.81-1.81","7jg0kczztkw96nk",72,"35.csv","","null","resources/maskTrios/L4BB.jpg","null","",NA,NA,NA,NA,""
"image-keyboard-response",256,304016,"0.0-3.81-2.81","7jg0kczztkw96nk",72,"35.csv","","null","resources/images/fishbone.png","null","",NA,NA,NA,NA,""
"image-keyboard-response",257,304681,"0.0-3.82-0.82","7jg0kczztkw96nk",72,"35.csv","","662.4000000953674","resources/trios/L4T1A1.jpg","39","restless",0.5,0.5,0.8,0.22351300778888,"true"
"image-keyboard-response",258,305086,"0.0-3.82-1.82","7jg0kczztkw96nk",72,"35.csv","","null","resources/maskTrios/BBA1.jpg","null","",NA,NA,NA,NA,""
"image-keyboard-response",259,306296,"0.0-3.82-2.82","7jg0kczztkw96nk",72,"35.csv","","null","resources/images/coin2.png","null","",NA,NA,NA,NA,""
"image-keyboard-response",260,306596,"0.0-3.83-0.83","7jg0kczztkw96nk",72,"35.csv","","297","resources/trios/L4T2A2.jpg","39","restless",0.5,0.5,0.8,0.388568385894004,"true"
"image-keyboard-response",261,307004,"0.0-3.83-1.83","7jg0kczztkw96nk",72,"35.csv","","null","resources/maskTrios/BBA2.jpg","null","",NA,NA,NA,NA,""
"image-keyboard-response",262,308216,"0.0-3.83-2.83","7jg0kczztkw96nk",72,"35.csv","","null","resources/images/coin2.png","null","",NA,NA,NA,NA,""
"image-keyboard-response",263,308587,"0.0-3.84-0.84","7jg0kczztkw96nk",72,"35.csv","","368.2999999523163","resources/trios/L4T1A2.jpg","39","restless",0.6,0.5,0.8,0.177057023582651,"true"
"image-keyboard-response",264,309000,"0.0-3.84-1.84","7jg0kczztkw96nk",72,"35.csv","","null","resources/maskTrios/BBA2.jpg","null","",NA,NA,NA,NA,""
"image-keyboard-response",265,310208,"0.0-3.84-2.84","7jg0kczztkw96nk",72,"35.csv","","null","resources/images/coin2.png","null","",NA,NA,NA,NA,""
"image-keyboard-response",266,310685,"0.0-3.85-0.85","7jg0kczztkw96nk",72,"35.csv","","474.39999985694885","resources/trios/L4T1A1.jpg","38","restless",0.6,0.5,0.8,0.320417828698739,"true"
"image-keyboard-response",267,311092,"0.0-3.85-1.85","7jg0kczztkw96nk",72,"35.csv","","null","resources/maskTrios/BT1B.jpg","null","",NA,NA,NA,NA,""
"image-keyboard-response",268,312300,"0.0-3.85-2.85","7jg0kczztkw96nk",72,"35.csv","","null","resources/images/coin2.png","null","",NA,NA,NA,NA,""
"image-keyboard-response",269,314106,"0.0-3.86-0.86","7jg0kczztkw96nk",72,"35.csv","","1803.5","resources/trios/L4T1A1.jpg","38","restless",0.6,0.4,0.8,0.770610261238421,"false"
"image-keyboard-response",270,314516,"0.0-3.86-1.86","7jg0kczztkw96nk",72,"35.csv","","null","resources/maskTrios/BT1B.jpg","null","",NA,NA,NA,NA,""
"image-keyboard-response",271,315728,"0.0-3.86-2.86","7jg0kczztkw96nk",72,"35.csv","","null","resources/images/fishbone.png","null","",NA,NA,NA,NA,""
"image-keyboard-response",272,316228,"0.0-3.87-0.87","7jg0kczztkw96nk",72,"35.csv","","497.60000014305115","resources/trios/L4T2A2.jpg","37","restless",0.6,0.4,0.8,0.794747054870395,"false"
"image-keyboard-response",273,316640,"0.0-3.87-1.87","7jg0kczztkw96nk",72,"35.csv","","null","resources/maskTrios/L4BB.jpg","null","",NA,NA,NA,NA,""
"image-keyboard-response",274,317848,"0.0-3.87-2.87","7jg0kczztkw96nk",72,"35.csv","","null","resources/images/fishbone.png","null","",NA,NA,NA,NA,""
"image-keyboard-response",275,318195,"0.0-3.88-0.88","7jg0kczztkw96nk",72,"35.csv","","345.7000000476837","resources/trios/L1T2A1.jpg","38","restless",0.6,0.4,0.8,0.551341228185254,"false"
"image-keyboard-response",276,318608,"0.0-3.88-1.88","7jg0kczztkw96nk",72,"35.csv","","null","resources/maskTrios/BT2B.jpg","null","",NA,NA,NA,NA,""
"image-keyboard-response",277,319816,"0.0-3.88-2.88","7jg0kczztkw96nk",72,"35.csv","","null","resources/images/fishbone.png","null","",NA,NA,NA,NA,""
"image-keyboard-response",278,320206,"0.0-3.89-0.89","7jg0kczztkw96nk",72,"35.csv","","387.09999990463257","resources/trios/L4T2A2.jpg","37","restless",0.6,0.4,0.8,0.277599612614749,"true"
"image-keyboard-response",279,320616,"0.0-3.89-1.89","7jg0kczztkw96nk",72,"35.csv","","null","resources/maskTrios/L4BB.jpg","null","",NA,NA,NA,NA,""
"image-keyboard-response",280,321824,"0.0-3.89-2.89","7jg0kczztkw96nk",72,"35.csv","","null","resources/images/coin2.png","null","",NA,NA,NA,NA,""
"image-keyboard-response",281,322318,"0.0-3.90-0.90","7jg0kczztkw96nk",72,"35.csv","","491.2999999523163","resources/trios/L1T2A1.jpg","38","restless",0.6,0.4,0.8,0.919238279717112,"false"
"image-keyboard-response",282,322728,"0.0-3.90-1.90","7jg0kczztkw96nk",72,"35.csv","","null","resources/maskTrios/BT2B.jpg","null","",NA,NA,NA,NA,""
"image-keyboard-response",283,323936,"0.0-3.90-2.90","7jg0kczztkw96nk",72,"35.csv","","null","resources/images/fishbone.png","null","",NA,NA,NA,NA,""
"image-keyboard-response",284,324233,"0.0-3.91-0.91","7jg0kczztkw96nk",72,"35.csv","","294.5","resources/trios/L4T2A2.jpg","39","restless",0.6,0.4,0.8,0.732201072124319,"true"
"image-keyboard-response",285,324648,"0.0-3.91-1.91","7jg0kczztkw96nk",72,"35.csv","","null","resources/maskTrios/BBA2.jpg","null","",NA,NA,NA,NA,""
"image-keyboard-response",286,325856,"0.0-3.91-2.91","7jg0kczztkw96nk",72,"35.csv","","null","resources/images/coin2.png","null","",NA,NA,NA,NA,""
"image-keyboard-response",287,326182,"0.0-3.92-0.92","7jg0kczztkw96nk",72,"35.csv","","323.09999990463257","resources/trios/L4T1A1.jpg","37","restless",0.6,0.4,0.8,0.844979117227805,"false"
"image-keyboard-response",288,326592,"0.0-3.92-1.92","7jg0kczztkw96nk",72,"35.csv","","null","resources/maskTrios/L4BB.jpg","null","",NA,NA,NA,NA,""
"image-keyboard-response",289,327800,"0.0-3.92-2.92","7jg0kczztkw96nk",72,"35.csv","","null","resources/images/fishbone.png","null","",NA,NA,NA,NA,""
"image-keyboard-response",290,328878,"0.0-3.93-0.93","7jg0kczztkw96nk",72,"35.csv","","1075.2999999523163","resources/trios/L4T1A1.jpg","38","restless",0.6,0.4,0.8,0.718486023529586,"false"
"image-keyboard-response",291,329288,"0.0-3.93-1.93","7jg0kczztkw96nk",72,"35.csv","","null","resources/maskTrios/BT1B.jpg","null","",NA,NA,NA,NA,""
"image-keyboard-response",292,330496,"0.0-3.93-2.93","7jg0kczztkw96nk",72,"35.csv","","null","resources/images/fishbone.png","null","",NA,NA,NA,NA,""
"image-keyboard-response",293,330813,"0.0-3.94-0.94","7jg0kczztkw96nk",72,"35.csv","","314.2000000476837","resources/trios/L1T1A2.jpg","39","restless",0.6,0.4,0.8,0.0208606633693109,"true"
"image-keyboard-response",294,331224,"0.0-3.94-1.94","7jg0kczztkw96nk",72,"35.csv","","null","resources/maskTrios/BBA2.jpg","null","",NA,NA,NA,NA,""
"image-keyboard-response",295,332429,"0.0-3.94-2.94","7jg0kczztkw96nk",72,"35.csv","","null","resources/images/coin2.png","null","",NA,NA,NA,NA,""
"image-keyboard-response",296,332775,"0.0-3.95-0.95","7jg0kczztkw96nk",72,"35.csv","","344.09999990463257","resources/trios/L1T2A1.jpg","37","restless",0.6,0.4,0.9,0.204420568696274,"true"
"image-keyboard-response",297,333184,"0.0-3.95-1.95","7jg0kczztkw96nk",72,"35.csv","","null","resources/maskTrios/L1BB.jpg","null","",NA,NA,NA,NA,""
"image-keyboard-response",298,334388,"0.0-3.95-2.95","7jg0kczztkw96nk",72,"35.csv","","null","resources/images/coin2.png","null","",NA,NA,NA,NA,""
"image-keyboard-response",299,334831,"0.0-3.96-0.96","7jg0kczztkw96nk",72,"35.csv","","440.5","resources/trios/L1T1A2.jpg","39","restless",0.6,0.4,0.9,0.825364317426419,"true"
"image-keyboard-response",300,335240,"0.0-3.96-1.96","7jg0kczztkw96nk",72,"35.csv","","null","resources/maskTrios/BBA2.jpg","null","",NA,NA,NA,NA,""
"image-keyboard-response",301,336444,"0.0-3.96-2.96","7jg0kczztkw96nk",72,"35.csv","","null","resources/images/coin2.png","null","",NA,NA,NA,NA,""
"image-keyboard-response",302,336901,"0.0-3.97-0.97","7jg0kczztkw96nk",72,"35.csv","","454.2000000476837","resources/trios/L1T1A2.jpg","38","restless",0.6,0.4,0.9,0.519149432037513,"false"
"image-keyboard-response",303,337311,"0.0-3.97-1.97","7jg0kczztkw96nk",72,"35.csv","","null","resources/maskTrios/BT1B.jpg","null","",NA,NA,NA,NA,""
"image-keyboard-response",304,338520,"0.0-3.97-2.97","7jg0kczztkw96nk",72,"35.csv","","null","resources/images/fishbone.png","null","",NA,NA,NA,NA,""
"image-keyboard-response",305,339120,"0.0-3.98-0.98","7jg0kczztkw96nk",72,"35.csv","","597.5999999046326","resources/trios/L4T1A2.jpg","38","restless",0.6,0.4,0.9,0.615932799836376,"false"
"image-keyboard-response",306,339528,"0.0-3.98-1.98","7jg0kczztkw96nk",72,"35.csv","","null","resources/maskTrios/BT1B.jpg","null","",NA,NA,NA,NA,""
"image-keyboard-response",307,340736,"0.0-3.98-2.98","7jg0kczztkw96nk",72,"35.csv","","null","resources/images/fishbone.png","null","",NA,NA,NA,NA,""
"image-keyboard-response",308,341134,"0.0-3.99-0.99","7jg0kczztkw96nk",72,"35.csv","","395.7000000476837","resources/trios/L4T1A1.jpg","37","restless",0.6,0.5,0.9,0.824848377635218,"false"
"image-keyboard-response",309,341540,"0.0-3.99-1.99","7jg0kczztkw96nk",72,"35.csv","","null","resources/maskTrios/L4BB.jpg","null","",NA,NA,NA,NA,""
"image-keyboard-response",310,342753,"0.0-3.99-2.99","7jg0kczztkw96nk",72,"35.csv","","null","resources/images/fishbone.png","null","",NA,NA,NA,NA,""
"image-keyboard-response",311,343064,"0.0-3.100-0.100","7jg0kczztkw96nk",72,"35.csv","","309.59999990463257","resources/trios/L1T2A1.jpg","39","restless",0.6,0.5,0.9,0.309511140994662,"true"
"image-keyboard-response",312,343472,"0.0-3.100-1.100","7jg0kczztkw96nk",72,"35.csv","","null","resources/maskTrios/BBA1.jpg","null","",NA,NA,NA,NA,""
"image-keyboard-response",313,344680,"0.0-3.100-2.100","7jg0kczztkw96nk",72,"35.csv","","null","resources/images/coin2.png","null","",NA,NA,NA,NA,""
"image-keyboard-response",314,345508,"0.0-3.101-0.101","7jg0kczztkw96nk",72,"35.csv","","825.5","resources/trios/L1T1A2.jpg","39","restless",0.6,0.5,0.8,0.0527215090903954,"true"
"image-keyboard-response",315,345921,"0.0-3.101-1.101","7jg0kczztkw96nk",72,"35.csv","","null","resources/maskTrios/BBA2.jpg","null","",NA,NA,NA,NA,""
"image-keyboard-response",316,347129,"0.0-3.101-2.101","7jg0kczztkw96nk",72,"35.csv","","null","resources/images/coin2.png","null","",NA,NA,NA,NA,""
"image-keyboard-response",317,347720,"0.0-3.102-0.102","7jg0kczztkw96nk",72,"35.csv","","588.9000000953674","resources/trios/L4T1A1.jpg","37","restless",0.6,0.5,0.8,0.324904999187112,"true"
"image-keyboard-response",318,348128,"0.0-3.102-1.102","7jg0kczztkw96nk",72,"35.csv","","null","resources/maskTrios/L4BB.jpg","null","",NA,NA,NA,NA,""
"image-keyboard-response",319,349336,"0.0-3.102-2.102","7jg0kczztkw96nk",72,"35.csv","","null","resources/images/coin2.png","null","",NA,NA,NA,NA,""
"image-keyboard-response",320,349347,"0.0-3.103-0.103","7jg0kczztkw96nk",72,"35.csv","","8.700000047683716","resources/trios/L1T1A2.jpg","37","restless",0.6,0.5,0.8,0.136520051255866,"true"
"image-keyboard-response",321,349756,"0.0-3.103-1.103","7jg0kczztkw96nk",72,"35.csv","","null","resources/maskTrios/L1BB.jpg","null","",NA,NA,NA,NA,""
"image-keyboard-response",322,350969,"0.0-3.103-2.103","7jg0kczztkw96nk",72,"35.csv","","null","resources/images/coin2.png","null","",NA,NA,NA,NA,""
"image-keyboard-response",323,351273,"0.0-3.104-0.104","7jg0kczztkw96nk",72,"35.csv","","301.89999985694885","resources/trios/L1T1A1.jpg","38","restless",0.6,0.5,0.8,0.179872211072859,"true"
"image-keyboard-response",324,351680,"0.0-3.104-1.104","7jg0kczztkw96nk",72,"35.csv","","null","resources/maskTrios/BT1B.jpg","null","",NA,NA,NA,NA,""
"image-keyboard-response",325,352885,"0.0-3.104-2.104","7jg0kczztkw96nk",72,"35.csv","","null","resources/images/coin2.png","null","",NA,NA,NA,NA,""
"image-keyboard-response",326,353264,"0.0-3.105-0.105","7jg0kczztkw96nk",72,"35.csv","","377.10000014305115","resources/trios/L1T1A1.jpg","39","restless",0.6,0.5,0.8,0.0868648634790343,"true"
"image-keyboard-response",327,353673,"0.0-3.105-1.105","7jg0kczztkw96nk",72,"35.csv","","null","resources/maskTrios/BBA1.jpg","null","",NA,NA,NA,NA,""
"image-keyboard-response",328,354881,"0.0-3.105-2.105","7jg0kczztkw96nk",72,"35.csv","","null","resources/images/coin2.png","null","",NA,NA,NA,NA,""
"image-keyboard-response",329,355246,"0.0-3.106-0.106","7jg0kczztkw96nk",72,"35.csv","","363","resources/trios/L4T1A2.jpg","39","restless",0.6,0.5,0.8,0.210999836183872,"true"
"image-keyboard-response",330,355657,"0.0-3.106-1.106","7jg0kczztkw96nk",72,"35.csv","","null","resources/maskTrios/BBA2.jpg","null","",NA,NA,NA,NA,""
"image-keyboard-response",331,356861,"0.0-3.106-2.106","7jg0kczztkw96nk",72,"35.csv","","null","resources/images/coin2.png","null","",NA,NA,NA,NA,""
"image-keyboard-response",332,357706,"0.0-3.107-0.107","7jg0kczztkw96nk",72,"35.csv","","843.2999999523163","resources/trios/L4T2A1.jpg","37","restless",0.6,0.5,0.8,0.727941541116836,"false"
"image-keyboard-response",333,358120,"0.0-3.107-1.107","7jg0kczztkw96nk",72,"35.csv","","null","resources/maskTrios/L4BB.jpg","null","",NA,NA,NA,NA,""
"image-keyboard-response",334,359329,"0.0-3.107-2.107","7jg0kczztkw96nk",72,"35.csv","","null","resources/images/fishbone.png","null","",NA,NA,NA,NA,""
"image-keyboard-response",335,359679,"0.0-3.108-0.108","7jg0kczztkw96nk",72,"35.csv","","348.7999999523163","resources/trios/L4T2A2.jpg","39","restless",0.6,0.5,0.8,0.33148937483773,"true"
"image-keyboard-response",336,360089,"0.0-3.108-1.108","7jg0kczztkw96nk",72,"35.csv","","null","resources/maskTrios/BBA2.jpg","null","",NA,NA,NA,NA,""
"image-keyboard-response",337,361297,"0.0-3.108-2.108","7jg0kczztkw96nk",72,"35.csv","","null","resources/images/coin2.png","null","",NA,NA,NA,NA,""
"image-keyboard-response",338,361642,"0.0-3.109-0.109","7jg0kczztkw96nk",72,"35.csv","","343","resources/trios/L4T1A1.jpg","37","restless",0.7,0.6,0.8,0.0428093349129726,"true"
"image-keyboard-response",339,362057,"0.0-3.109-1.109","7jg0kczztkw96nk",72,"35.csv","","null","resources/maskTrios/L4BB.jpg","null","",NA,NA,NA,NA,""
"image-keyboard-response",340,363261,"0.0-3.109-2.109","7jg0kczztkw96nk",72,"35.csv","","null","resources/images/coin2.png","null","",NA,NA,NA,NA,""
"image-keyboard-response",341,365102,"0.0-3.110-0.110","7jg0kczztkw96nk",72,"35.csv","","1838.7999999523163","resources/trios/L1T1A2.jpg","38","restless",0.7,0.6,0.8,0.102427873316984,"true"
"image-keyboard-response",342,365513,"0.0-3.110-1.110","7jg0kczztkw96nk",72,"35.csv","","null","resources/maskTrios/BT1B.jpg","null","",NA,NA,NA,NA,""
"image-keyboard-response",343,366717,"0.0-3.110-2.110","7jg0kczztkw96nk",72,"35.csv","","null","resources/images/coin2.png","null","",NA,NA,NA,NA,""
"image-keyboard-response",344,367728,"0.0-3.111-0.111","7jg0kczztkw96nk",72,"35.csv","","1008.9000000953674","resources/trios/L4T1A1.jpg","38","restless",0.7,0.6,0.8,0.489605849940191,"true"
"image-keyboard-response",345,368133,"0.0-3.111-1.111","7jg0kczztkw96nk",72,"35.csv","","null","resources/maskTrios/BT1B.jpg","null","",NA,NA,NA,NA,""
"image-keyboard-response",346,369342,"0.0-3.111-2.111","7jg0kczztkw96nk",72,"35.csv","","null","resources/images/coin2.png","null","",NA,NA,NA,NA,""
"image-keyboard-response",347,369848,"0.0-3.112-0.112","7jg0kczztkw96nk",72,"35.csv","","503.7000000476837","resources/trios/L1T1A1.jpg","38","restless",0.7,0.6,0.8,0.395605855046049,"true"
"image-keyboard-response",348,370253,"0.0-3.112-1.112","7jg0kczztkw96nk",72,"35.csv","","null","resources/maskTrios/BT1B.jpg","null","",NA,NA,NA,NA,""
"image-keyboard-response",349,371465,"0.0-3.112-2.112","7jg0kczztkw96nk",72,"35.csv","","null","resources/images/coin2.png","null","",NA,NA,NA,NA,""
"image-keyboard-response",350,372013,"0.0-3.113-0.113","7jg0kczztkw96nk",72,"35.csv","","546.2999999523163","resources/trios/L4T1A1.jpg","39","restless",0.7,0.6,0.8,0.126510105044052,"true"
"image-keyboard-response",351,372425,"0.0-3.113-1.113","7jg0kczztkw96nk",72,"35.csv","","null","resources/maskTrios/BBA1.jpg","null","",NA,NA,NA,NA,""
"image-keyboard-response",352,373633,"0.0-3.113-2.113","7jg0kczztkw96nk",72,"35.csv","","null","resources/images/coin2.png","null","",NA,NA,NA,NA,""
"image-keyboard-response",353,374094,"0.0-3.114-0.114","7jg0kczztkw96nk",72,"35.csv","","459.2000000476837","resources/trios/L4T1A1.jpg","37","restless",0.6,0.6,0.8,0.97126009515764,"false"
"image-keyboard-response",354,374505,"0.0-3.114-1.114","7jg0kczztkw96nk",72,"35.csv","","null","resources/maskTrios/L4BB.jpg","null","",NA,NA,NA,NA,""
"image-keyboard-response",355,375711,"0.0-3.114-2.114","7jg0kczztkw96nk",72,"35.csv","","null","resources/images/fishbone.png","null","",NA,NA,NA,NA,""
"image-keyboard-response",356,376211,"0.0-3.115-0.115","7jg0kczztkw96nk",72,"35.csv","","497.7999999523163","resources/trios/L4T1A2.jpg","39","restless",0.6,0.6,0.8,0.780953990174127,"true"
"image-keyboard-response",357,376623,"0.0-3.115-1.115","7jg0kczztkw96nk",72,"35.csv","","null","resources/maskTrios/BBA2.jpg","null","",NA,NA,NA,NA,""
"image-keyboard-response",358,377833,"0.0-3.115-2.115","7jg0kczztkw96nk",72,"35.csv","","null","resources/images/coin2.png","null","",NA,NA,NA,NA,""
"image-keyboard-response",359,378271,"0.0-3.116-0.116","7jg0kczztkw96nk",72,"35.csv","","436.19999980926514","resources/trios/L4T2A1.jpg","37","restless",0.6,0.7,0.7,0.914983686221835,"false"
"image-keyboard-response",360,378676,"0.0-3.116-1.116","7jg0kczztkw96nk",72,"35.csv","","null","resources/maskTrios/L4BB.jpg","null","",NA,NA,NA,NA,""
"image-keyboard-response",361,379889,"0.0-3.116-2.116","7jg0kczztkw96nk",72,"35.csv","","null","resources/images/fishbone.png","null","",NA,NA,NA,NA,""
"image-keyboard-response",362,380457,"0.0-3.117-0.117","7jg0kczztkw96nk",72,"35.csv","","566.2000000476837","resources/trios/L1T1A1.jpg","39","restless",0.5,0.7,0.7,0.0706723407052487,"true"
"image-keyboard-response",363,380873,"0.0-3.117-1.117","7jg0kczztkw96nk",72,"35.csv","","null","resources/maskTrios/BBA1.jpg","null","",NA,NA,NA,NA,""
"image-keyboard-response",364,382081,"0.0-3.117-2.117","7jg0kczztkw96nk",72,"35.csv","","null","resources/images/coin2.png","null","",NA,NA,NA,NA,""
"image-keyboard-response",365,382770,"0.0-3.118-0.118","7jg0kczztkw96nk",72,"35.csv","","687.3999998569489","resources/trios/L1T2A2.jpg","37","restless",0.4,0.7,0.7,0.65010841817155,"false"
"image-keyboard-response",366,383185,"0.0-3.118-1.118","7jg0kczztkw96nk",72,"35.csv","","null","resources/maskTrios/L1BB.jpg","null","",NA,NA,NA,NA,""
"image-keyboard-response",367,384393,"0.0-3.118-2.118","7jg0kczztkw96nk",72,"35.csv","","null","resources/images/fishbone.png","null","",NA,NA,NA,NA,""
"image-keyboard-response",368,385515,"0.0-3.119-0.119","7jg0kczztkw96nk",72,"35.csv","","1120.5","resources/trios/L4T2A2.jpg","38","restless",0.4,0.7,0.7,0.374144479888189,"true"
"image-keyboard-response",369,385928,"0.0-3.119-1.119","7jg0kczztkw96nk",72,"35.csv","","null","resources/maskTrios/BT2B.jpg","null","",NA,NA,NA,NA,""
"image-keyboard-response",370,387131,"0.0-3.119-2.119","7jg0kczztkw96nk",72,"35.csv","","null","resources/images/coin2.png","null","",NA,NA,NA,NA,""
"image-keyboard-response",371,387665,"0.0-3.120-0.120","7jg0kczztkw96nk",72,"35.csv","","532.5999999046326","resources/trios/L4T2A2.jpg","38","restless",0.4,0.7,0.7,0.669738827730194,"true"
"image-keyboard-response",372,388078,"0.0-3.120-1.120","7jg0kczztkw96nk",72,"35.csv","","null","resources/maskTrios/BT2B.jpg","null","",NA,NA,NA,NA,""
"image-keyboard-response",373,389281,"0.0-3.120-2.120","7jg0kczztkw96nk",72,"35.csv","","null","resources/images/coin2.png","null","",NA,NA,NA,NA,""
"image-keyboard-response",374,389554,"0.0-3.121-0.121","7jg0kczztkw96nk",72,"35.csv","","271.10000014305115","resources/trios/L4T1A2.jpg","39","restless",0.4,0.7,0.8,0.974281851407786,"false"
"image-keyboard-response",375,389960,"0.0-3.121-1.121","7jg0kczztkw96nk",72,"35.csv","","null","resources/maskTrios/BBA2.jpg","null","",NA,NA,NA,NA,""
"image-keyboard-response",376,391170,"0.0-3.121-2.121","7jg0kczztkw96nk",72,"35.csv","","null","resources/images/fishbone.png","null","",NA,NA,NA,NA,""
"image-keyboard-response",377,391534,"0.0-3.122-0.122","7jg0kczztkw96nk",72,"35.csv","","362.7999999523163","resources/trios/L4T2A2.jpg","37","restless",0.4,0.7,0.8,0.00877325681775676,"true"
"image-keyboard-response",378,391948,"0.0-3.122-1.122","7jg0kczztkw96nk",72,"35.csv","","null","resources/maskTrios/L4BB.jpg","null","",NA,NA,NA,NA,""
"image-keyboard-response",379,393155,"0.0-3.122-2.122","7jg0kczztkw96nk",72,"35.csv","","null","resources/images/coin2.png","null","",NA,NA,NA,NA,""
"image-keyboard-response",380,393879,"0.0-3.123-0.123","7jg0kczztkw96nk",72,"35.csv","","722","resources/trios/L4T1A1.jpg","38","restless",0.4,0.7,0.8,0.166135405554682,"true"
"image-keyboard-response",381,394290,"0.0-3.123-1.123","7jg0kczztkw96nk",72,"35.csv","","null","resources/maskTrios/BT1B.jpg","null","",NA,NA,NA,NA,""
"image-keyboard-response",382,395496,"0.0-3.123-2.123","7jg0kczztkw96nk",72,"35.csv","","null","resources/images/coin2.png","null","",NA,NA,NA,NA,""
"image-keyboard-response",383,396071,"0.0-3.124-0.124","7jg0kczztkw96nk",72,"35.csv","","572.8999998569489","resources/trios/L4T2A1.jpg","38","restless",0.4,0.7,0.8,0.885946331896525,"false"
"image-keyboard-response",384,396482,"0.0-3.124-1.124","7jg0kczztkw96nk",72,"35.csv","","null","resources/maskTrios/BT2B.jpg","null","",NA,NA,NA,NA,""
"image-keyboard-response",385,397689,"0.0-3.124-2.124","7jg0kczztkw96nk",72,"35.csv","","null","resources/images/fishbone.png","null","",NA,NA,NA,NA,""
"image-keyboard-response",386,398334,"0.0-3.125-0.125","7jg0kczztkw96nk",72,"35.csv","","643.2999999523163","resources/trios/L1T2A1.jpg","37","restless",0.4,0.7,0.8,0.355022013627093,"true"
"image-keyboard-response",387,398740,"0.0-3.125-1.125","7jg0kczztkw96nk",72,"35.csv","","null","resources/maskTrios/L1BB.jpg","null","",NA,NA,NA,NA,""
"image-keyboard-response",388,399952,"0.0-3.125-2.125","7jg0kczztkw96nk",72,"35.csv","","null","resources/images/coin2.png","null","",NA,NA,NA,NA,""
"image-keyboard-response",389,400459,"0.0-3.126-0.126","7jg0kczztkw96nk",72,"35.csv","","504.7000000476837","resources/trios/L4T1A1.jpg","39","restless",0.4,0.7,0.8,0.875675956375035,"false"
"image-keyboard-response",390,400872,"0.0-3.126-1.126","7jg0kczztkw96nk",72,"35.csv","","null","resources/maskTrios/BBA1.jpg","null","",NA,NA,NA,NA,""
"image-keyboard-response",391,402080,"0.0-3.126-2.126","7jg0kczztkw96nk",72,"35.csv","","null","resources/images/fishbone.png","null","",NA,NA,NA,NA,""
"image-keyboard-response",392,402588,"0.0-3.127-0.127","7jg0kczztkw96nk",72,"35.csv","","506.19999980926514","resources/trios/L1T2A1.jpg","37","restless",0.4,0.7,0.8,0.429821936550798,"false"
"image-keyboard-response",393,402995,"0.0-3.127-1.127","7jg0kczztkw96nk",72,"35.csv","","null","resources/maskTrios/L1BB.jpg","null","",NA,NA,NA,NA,""
"image-keyboard-response",394,404207,"0.0-3.127-2.127","7jg0kczztkw96nk",72,"35.csv","","null","resources/images/fishbone.png","null","",NA,NA,NA,NA,""
"image-keyboard-response",395,405535,"0.0-3.128-0.128","7jg0kczztkw96nk",72,"35.csv","","1325.9000000953674","resources/trios/L1T2A2.jpg","38","restless",0.4,0.7,0.8,0.877582492377191,"false"
"image-keyboard-response",396,405943,"0.0-3.128-1.128","7jg0kczztkw96nk",72,"35.csv","","null","resources/maskTrios/BT2B.jpg","null","",NA,NA,NA,NA,""
"image-keyboard-response",397,407150,"0.0-3.128-2.128","7jg0kczztkw96nk",72,"35.csv","","null","resources/images/fishbone.png","null","",NA,NA,NA,NA,""
"image-keyboard-response",398,407640,"0.0-3.129-0.129","7jg0kczztkw96nk",72,"35.csv","","487.7000000476837","resources/trios/L4T2A2.jpg","37","restless",0.4,0.7,0.8,0.980920984193087,"false"
"image-keyboard-response",399,408054,"0.0-3.129-1.129","7jg0kczztkw96nk",72,"35.csv","","null","resources/maskTrios/L4BB.jpg","null","",NA,NA,NA,NA,""
"image-keyboard-response",400,409259,"0.0-3.129-2.129","7jg0kczztkw96nk",72,"35.csv","","null","resources/images/fishbone.png","null","",NA,NA,NA,NA,""
"image-keyboard-response",401,409744,"0.0-3.130-0.130","7jg0kczztkw96nk",72,"35.csv","","482.7999999523163","resources/trios/L4T2A1.jpg","37","restless",0.4,0.6,0.8,0.213650636159847,"true"
"image-keyboard-response",402,410157,"0.0-3.130-1.130","7jg0kczztkw96nk",72,"35.csv","","null","resources/maskTrios/L4BB.jpg","null","",NA,NA,NA,NA,""
"image-keyboard-response",403,411366,"0.0-3.130-2.130","7jg0kczztkw96nk",72,"35.csv","","null","resources/images/coin2.png","null","",NA,NA,NA,NA,""
"image-keyboard-response",404,412762,"0.0-3.131-0.131","7jg0kczztkw96nk",72,"35.csv","","1394.0999999046326","resources/trios/L1T2A1.jpg","37","restless",0.3,0.6,0.8,0.161031623436502,"true"
"image-keyboard-response",405,413169,"0.0-3.131-1.131","7jg0kczztkw96nk",72,"35.csv","","null","resources/maskTrios/L1BB.jpg","null","",NA,NA,NA,NA,""
"image-keyboard-response",406,414381,"0.0-3.131-2.131","7jg0kczztkw96nk",72,"35.csv","","null","resources/images/coin2.png","null","",NA,NA,NA,NA,""
"image-keyboard-response",407,415547,"0.0-3.132-0.132","7jg0kczztkw96nk",72,"35.csv","","1163.6000001430511","resources/trios/L4T2A2.jpg","39","restless",0.3,0.5,0.8,0.391108018789464,"true"
"image-keyboard-response",408,415957,"0.0-3.132-1.132","7jg0kczztkw96nk",72,"35.csv","","null","resources/maskTrios/BBA2.jpg","null","",NA,NA,NA,NA,""
"image-keyboard-response",409,417165,"0.0-3.132-2.132","7jg0kczztkw96nk",72,"35.csv","","null","resources/images/coin2.png","null","",NA,NA,NA,NA,""
"image-keyboard-response",410,417809,"0.0-3.133-0.133","7jg0kczztkw96nk",72,"35.csv","","641.7999999523163","resources/trios/L1T2A1.jpg","39","restless",0.3,0.5,0.8,0.342492583655887,"true"
"image-keyboard-response",411,418221,"0.0-3.133-1.133","7jg0kczztkw96nk",72,"35.csv","","null","resources/maskTrios/BBA1.jpg","null","",NA,NA,NA,NA,""
"image-keyboard-response",412,419429,"0.0-3.133-2.133","7jg0kczztkw96nk",72,"35.csv","","null","resources/images/coin2.png","null","",NA,NA,NA,NA,""
"image-keyboard-response",413,419806,"0.0-3.134-0.134","7jg0kczztkw96nk",72,"35.csv","","374.89999985694885","resources/trios/L4T2A2.jpg","38","restless",0.3,0.5,0.8,0.539804496664932,"false"
"image-keyboard-response",414,420221,"0.0-3.134-1.134","7jg0kczztkw96nk",72,"35.csv","","null","resources/maskTrios/BT2B.jpg","null","",NA,NA,NA,NA,""
"image-keyboard-response",415,421425,"0.0-3.134-2.134","7jg0kczztkw96nk",72,"35.csv","","null","resources/images/fishbone.png","null","",NA,NA,NA,NA,""
"image-keyboard-response",416,421936,"0.0-3.135-0.135","7jg0kczztkw96nk",72,"35.csv","","508.90000009536743","resources/trios/L4T1A1.jpg","38","restless",0.2,0.5,0.8,0.821409194789127,"false"
"image-keyboard-response",417,422349,"0.0-3.135-1.135","7jg0kczztkw96nk",72,"35.csv","","null","resources/maskTrios/BT1B.jpg","null","",NA,NA,NA,NA,""
"image-keyboard-response",418,423557,"0.0-3.135-2.135","7jg0kczztkw96nk",72,"35.csv","","null","resources/images/fishbone.png","null","",NA,NA,NA,NA,""
"image-keyboard-response",419,426209,"0.0-3.136-0.136","7jg0kczztkw96nk",72,"35.csv","","2650.5","resources/trios/L1T1A2.jpg","37","restless",0.2,0.5,0.7,0.620607738807561,"false"
"image-keyboard-response",420,426620,"0.0-3.136-1.136","7jg0kczztkw96nk",72,"35.csv","","null","resources/maskTrios/L1BB.jpg","null","",NA,NA,NA,NA,""
"image-keyboard-response",421,427824,"0.0-3.136-2.136","7jg0kczztkw96nk",72,"35.csv","","null","resources/images/fishbone.png","null","",NA,NA,NA,NA,""
"image-keyboard-response",422,427876,"0.0-3.137-0.137","7jg0kczztkw96nk",72,"35.csv","","49.299999952316284","resources/trios/L1T2A1.jpg","37","restless",0.2,0.5,0.7,0.00491030929998892,"true"
"image-keyboard-response",423,428280,"0.0-3.137-1.137","7jg0kczztkw96nk",72,"35.csv","","null","resources/maskTrios/L1BB.jpg","null","",NA,NA,NA,NA,""
"image-keyboard-response",424,429492,"0.0-3.137-2.137","7jg0kczztkw96nk",72,"35.csv","","null","resources/images/coin2.png","null","",NA,NA,NA,NA,""
"image-keyboard-response",425,430991,"0.0-3.138-0.138","7jg0kczztkw96nk",72,"35.csv","","1496.2999999523163","resources/trios/L4T2A1.jpg","39","restless",0.2,0.5,0.7,0.369023666994606,"true"
"image-keyboard-response",426,431404,"0.0-3.138-1.138","7jg0kczztkw96nk",72,"35.csv","","null","resources/maskTrios/BBA1.jpg","null","",NA,NA,NA,NA,""
"image-keyboard-response",427,432612,"0.0-3.138-2.138","7jg0kczztkw96nk",72,"35.csv","","null","resources/images/coin2.png","null","",NA,NA,NA,NA,""
"image-keyboard-response",428,433347,"0.0-3.139-0.139","7jg0kczztkw96nk",72,"35.csv","","733","resources/trios/L4T2A1.jpg","39","restless",0.2,0.4,0.7,0.0751981658453134,"true"
"image-keyboard-response",429,433756,"0.0-3.139-1.139","7jg0kczztkw96nk",72,"35.csv","","null","resources/maskTrios/BBA1.jpg","null","",NA,NA,NA,NA,""
"image-keyboard-response",430,434964,"0.0-3.139-2.139","7jg0kczztkw96nk",72,"35.csv","","null","resources/images/coin2.png","null","",NA,NA,NA,NA,""
"image-keyboard-response",431,435907,"0.0-3.140-0.140","7jg0kczztkw96nk",72,"35.csv","","940.5","resources/trios/L4T2A1.jpg","38","restless",0.2,0.5,0.7,0.00805767138255553,"true"
"image-keyboard-response",432,436316,"0.0-3.140-1.140","7jg0kczztkw96nk",72,"35.csv","","null","resources/maskTrios/BT2B.jpg","null","",NA,NA,NA,NA,""
"image-keyboard-response",433,437524,"0.0-3.140-2.140","7jg0kczztkw96nk",72,"35.csv","","null","resources/images/coin2.png","null","",NA,NA,NA,NA,""
"image-keyboard-response",434,439243,"0.0-3.141-0.141","7jg0kczztkw96nk",72,"35.csv","","1716.7000000476837","resources/trios/L1T1A1.jpg","37","restless",0.2,0.4,0.7,0.164172205685624,"true"
"image-keyboard-response",435,439652,"0.0-3.141-1.141","7jg0kczztkw96nk",72,"35.csv","","null","resources/maskTrios/L1BB.jpg","null","",NA,NA,NA,NA,""
"image-keyboard-response",436,440860,"0.0-3.141-2.141","7jg0kczztkw96nk",72,"35.csv","","null","resources/images/coin2.png","null","",NA,NA,NA,NA,""
"image-keyboard-response",437,442152,"0.0-3.142-0.142","7jg0kczztkw96nk",72,"35.csv","","1289.2999999523163","resources/trios/L1T1A1.jpg","39","restless",0.2,0.4,0.7,0.870988441037723,"false"
"image-keyboard-response",438,442559,"0.0-3.142-1.142","7jg0kczztkw96nk",72,"35.csv","","null","resources/maskTrios/BBA1.jpg","null","",NA,NA,NA,NA,""
"image-keyboard-response",439,443772,"0.0-3.142-2.142","7jg0kczztkw96nk",72,"35.csv","","null","resources/images/fishbone.png","null","",NA,NA,NA,NA,""
"image-keyboard-response",440,445087,"0.0-3.143-0.143","7jg0kczztkw96nk",72,"35.csv","","1313.2999999523163","resources/trios/L4T1A2.jpg","37","restless",0.3,0.4,0.8,0.194472814810082,"true"
"image-keyboard-response",441,445497,"0.0-3.143-1.143","7jg0kczztkw96nk",72,"35.csv","","null","resources/maskTrios/L4BB.jpg","null","",NA,NA,NA,NA,""
"image-keyboard-response",442,446703,"0.0-3.143-2.143","7jg0kczztkw96nk",72,"35.csv","","null","resources/images/coin2.png","null","",NA,NA,NA,NA,""
"image-keyboard-response",443,448009,"0.0-3.144-0.144","7jg0kczztkw96nk",72,"35.csv","","1303.5","resources/trios/L4T2A1.jpg","39","restless",0.3,0.4,0.8,0.0957481320545699,"true"
"image-keyboard-response",444,448420,"0.0-3.144-1.144","7jg0kczztkw96nk",72,"35.csv","","null","resources/maskTrios/BBA1.jpg","null","",NA,NA,NA,NA,""
"image-keyboard-response",445,449628,"0.0-3.144-2.144","7jg0kczztkw96nk",72,"35.csv","","null","resources/images/coin2.png","null","",NA,NA,NA,NA,""
"image-keyboard-response",446,450968,"0.0-3.145-0.145","7jg0kczztkw96nk",72,"35.csv","","1337.7000000476837","resources/trios/L1T1A1.jpg","38","restless",0.3,0.4,0.8,0.352963231162139,"true"
"image-keyboard-response",447,451380,"0.0-3.145-1.145","7jg0kczztkw96nk",72,"35.csv","","null","resources/maskTrios/BT1B.jpg","null","",NA,NA,NA,NA,""
"image-keyboard-response",448,452588,"0.0-3.145-2.145","7jg0kczztkw96nk",72,"35.csv","","null","resources/images/coin2.png","null","",NA,NA,NA,NA,""
"image-keyboard-response",449,453273,"0.0-3.146-0.146","7jg0kczztkw96nk",72,"35.csv","","683","resources/trios/L4T1A2.jpg","37","restless",0.3,0.4,0.7,0.95427208824796,"false"
"image-keyboard-response",450,453684,"0.0-3.146-1.146","7jg0kczztkw96nk",72,"35.csv","","null","resources/maskTrios/L4BB.jpg","null","",NA,NA,NA,NA,""
"image-keyboard-response",451,454892,"0.0-3.146-2.146","7jg0kczztkw96nk",72,"35.csv","","null","resources/images/fishbone.png","null","",NA,NA,NA,NA,""
"image-keyboard-response",452,455392,"0.0-3.147-0.147","7jg0kczztkw96nk",72,"35.csv","","498.2000000476837","resources/trios/L4T1A2.jpg","39","restless",0.3,0.4,0.7,0.0895149972160021,"true"
"image-keyboard-response",453,455804,"0.0-3.147-1.147","7jg0kczztkw96nk",72,"35.csv","","null","resources/maskTrios/BBA2.jpg","null","",NA,NA,NA,NA,""
"image-keyboard-response",454,457012,"0.0-3.147-2.147","7jg0kczztkw96nk",72,"35.csv","","null","resources/images/coin2.png","null","",NA,NA,NA,NA,""
"image-keyboard-response",455,458331,"0.0-3.148-0.148","7jg0kczztkw96nk",72,"35.csv","","1316.5999999046326","resources/trios/L4T1A2.jpg","38","restless",0.3,0.4,0.7,0.603369190744759,"false"
"image-keyboard-response",456,458740,"0.0-3.148-1.148","7jg0kczztkw96nk",72,"35.csv","","null","resources/maskTrios/BT1B.jpg","null","",NA,NA,NA,NA,""
"image-keyboard-response",457,459948,"0.0-3.148-2.148","7jg0kczztkw96nk",72,"35.csv","","null","resources/images/fishbone.png","null","",NA,NA,NA,NA,""
"image-keyboard-response",458,461326,"0.0-3.149-0.149","7jg0kczztkw96nk",72,"35.csv","","1375.7000000476837","resources/trios/L4T2A1.jpg","37","restless",0.3,0.4,0.7,0.845546474369503,"false"
"image-keyboard-response",459,461740,"0.0-3.149-1.149","7jg0kczztkw96nk",72,"35.csv","","null","resources/maskTrios/L4BB.jpg","null","",NA,NA,NA,NA,""
"image-keyboard-response",460,462948,"0.0-3.149-2.149","7jg0kczztkw96nk",72,"35.csv","","null","resources/images/fishbone.png","null","",NA,NA,NA,NA,""
"image-keyboard-response",461,463334,"0.0-3.150-0.150","7jg0kczztkw96nk",72,"35.csv","","383.7000000476837","resources/trios/L1T2A2.jpg","39","restless",0.4,0.4,0.7,0.67306058356561,"true"
"image-keyboard-response",462,463748,"0.0-3.150-1.150","7jg0kczztkw96nk",72,"35.csv","","null","resources/maskTrios/BBA2.jpg","null","",NA,NA,NA,NA,""
"image-keyboard-response",463,464956,"0.0-3.150-2.150","7jg0kczztkw96nk",72,"35.csv","","null","resources/images/coin2.png","null","",NA,NA,NA,NA,""
"image-keyboard-response",464,466357,"0.0-3.151-0.151","7jg0kczztkw96nk",72,"35.csv","","1399.2999999523163","resources/trios/L1T2A2.jpg","38","restless",0.4,0.3,0.7,0.357076882215745,"false"
"image-keyboard-response",465,466772,"0.0-3.151-1.151","7jg0kczztkw96nk",72,"35.csv","","null","resources/maskTrios/BT2B.jpg","null","",NA,NA,NA,NA,""
"image-keyboard-response",466,467980,"0.0-3.151-2.151","7jg0kczztkw96nk",72,"35.csv","","null","resources/images/fishbone.png","null","",NA,NA,NA,NA,""
"image-keyboard-response",467,469608,"0.0-3.152-0.152","7jg0kczztkw96nk",72,"35.csv","","1626.6000001430511","resources/trios/L4T2A2.jpg","39","restless",0.4,0.3,0.7,0.977295660051153,"false"
"image-keyboard-response",468,470020,"0.0-3.152-1.152","7jg0kczztkw96nk",72,"35.csv","","null","resources/maskTrios/BBA2.jpg","null","",NA,NA,NA,NA,""
"image-keyboard-response",469,471224,"0.0-3.152-2.152","7jg0kczztkw96nk",72,"35.csv","","null","resources/images/fishbone.png","null","",NA,NA,NA,NA,""
"image-keyboard-response",470,471844,"0.0-3.153-0.153","7jg0kczztkw96nk",72,"35.csv","","618.5","resources/trios/L1T2A2.jpg","37","restless",0.4,0.2,0.7,0.157499644318082,"true"
"image-keyboard-response",471,472252,"0.0-3.153-1.153","7jg0kczztkw96nk",72,"35.csv","","null","resources/maskTrios/L1BB.jpg","null","",NA,NA,NA,NA,""
"image-keyboard-response",472,473457,"0.0-3.153-2.153","7jg0kczztkw96nk",72,"35.csv","","null","resources/images/coin2.png","null","",NA,NA,NA,NA,""
"image-keyboard-response",473,475619,"0.0-3.154-0.154","7jg0kczztkw96nk",72,"35.csv","","2160.2000000476837","resources/trios/L1T1A2.jpg","39","restless",0.4,0.2,0.7,0.367989675929918,"true"
"image-keyboard-response",474,476028,"0.0-3.154-1.154","7jg0kczztkw96nk",72,"35.csv","","null","resources/maskTrios/BBA2.jpg","null","",NA,NA,NA,NA,""
"image-keyboard-response",475,477232,"0.0-3.154-2.154","7jg0kczztkw96nk",72,"35.csv","","null","resources/images/coin2.png","null","",NA,NA,NA,NA,""
"image-keyboard-response",476,477589,"0.0-3.155-0.155","7jg0kczztkw96nk",72,"35.csv","","355.10000014305115","resources/trios/L4T1A2.jpg","39","restless",0.4,0.2,0.7,0.66378405137075,"true"
"image-keyboard-response",477,478004,"0.0-3.155-1.155","7jg0kczztkw96nk",72,"35.csv","","null","resources/maskTrios/BBA2.jpg","null","",NA,NA,NA,NA,""
"image-keyboard-response",478,479212,"0.0-3.155-2.155","7jg0kczztkw96nk",72,"35.csv","","null","resources/images/coin2.png","null","",NA,NA,NA,NA,""
"image-keyboard-response",479,479578,"0.0-3.156-0.156","7jg0kczztkw96nk",72,"35.csv","","364.19999980926514","resources/trios/L1T2A1.jpg","39","restless",0.4,0.2,0.7,0.5048290571628,"true"
"image-keyboard-response",480,479988,"0.0-3.156-1.156","7jg0kczztkw96nk",72,"35.csv","","null","resources/maskTrios/BBA1.jpg","null","",NA,NA,NA,NA,""
"image-keyboard-response",481,481196,"0.0-3.156-2.156","7jg0kczztkw96nk",72,"35.csv","","null","resources/images/coin2.png","null","",NA,NA,NA,NA,""
"image-keyboard-response",482,481640,"0.0-3.157-0.157","7jg0kczztkw96nk",72,"35.csv","","441.7000000476837","resources/trios/L4T1A1.jpg","37","restless",0.5,0.2,0.7,0.512340661192986,"false"
"image-keyboard-response",483,482052,"0.0-3.157-1.157","7jg0kczztkw96nk",72,"35.csv","","null","resources/maskTrios/L4BB.jpg","null","",NA,NA,NA,NA,""
"image-keyboard-response",484,483255,"0.0-3.157-2.157","7jg0kczztkw96nk",72,"35.csv","","null","resources/images/fishbone.png","null","",NA,NA,NA,NA,""
"image-keyboard-response",485,483603,"0.0-3.158-0.158","7jg0kczztkw96nk",72,"35.csv","","345.7000000476837","resources/trios/L1T1A2.jpg","39","restless",0.6,0.2,0.7,0.178747889179307,"true"
"image-keyboard-response",486,484012,"0.0-3.158-1.158","7jg0kczztkw96nk",72,"35.csv","","null","resources/maskTrios/BBA2.jpg","null","",NA,NA,NA,NA,""
"image-keyboard-response",487,485220,"0.0-3.158-2.158","7jg0kczztkw96nk",72,"35.csv","","null","resources/images/coin2.png","null","",NA,NA,NA,NA,""
"image-keyboard-response",488,485544,"0.0-3.159-0.159","7jg0kczztkw96nk",72,"35.csv","","321.89999985694885","resources/trios/L1T1A2.jpg","37","restless",0.6,0.2,0.7,0.142769970446034,"true"
"image-keyboard-response",489,485956,"0.0-3.159-1.159","7jg0kczztkw96nk",72,"35.csv","","null","resources/maskTrios/L1BB.jpg","null","",NA,NA,NA,NA,""
"image-keyboard-response",490,487160,"0.0-3.159-2.159","7jg0kczztkw96nk",72,"35.csv","","null","resources/images/coin2.png","null","",NA,NA,NA,NA,""
"image-keyboard-response",491,487966,"0.0-3.160-0.160","7jg0kczztkw96nk",72,"35.csv","","804.2999999523163","resources/trios/L1T2A2.jpg","39","restless",0.6,0.2,0.7,0.571373783535595,"true"
"image-keyboard-response",492,488380,"0.0-3.160-1.160","7jg0kczztkw96nk",72,"35.csv","","null","resources/maskTrios/BBA2.jpg","null","",NA,NA,NA,NA,""
"image-keyboard-response",493,489588,"0.0-3.160-2.160","7jg0kczztkw96nk",72,"35.csv","","null","resources/images/coin2.png","null","",NA,NA,NA,NA,""
"image-keyboard-response",494,490258,"0.0-3.161-0.161","7jg0kczztkw96nk",72,"35.csv","","668.3999998569489","resources/trios/L4T1A2.jpg","38","restless",0.6,0.2,0.7,0.428962731729517,"false"
"image-keyboard-response",495,490668,"0.0-3.161-1.161","7jg0kczztkw96nk",72,"35.csv","","null","resources/maskTrios/BT1B.jpg","null","",NA,NA,NA,NA,""
"image-keyboard-response",496,491876,"0.0-3.161-2.161","7jg0kczztkw96nk",72,"35.csv","","null","resources/images/fishbone.png","null","",NA,NA,NA,NA,""
"image-keyboard-response",497,493345,"0.0-3.162-0.162","7jg0kczztkw96nk",72,"35.csv","","1467.2000000476837","resources/trios/L1T1A1.jpg","38","restless",0.6,0.2,0.7,0.423040201799999,"false"
"image-keyboard-response",498,493756,"0.0-3.162-1.162","7jg0kczztkw96nk",72,"35.csv","","null","resources/maskTrios/BT1B.jpg","null","",NA,NA,NA,NA,""
"image-keyboard-response",499,494964,"0.0-3.162-2.162","7jg0kczztkw96nk",72,"35.csv","","null","resources/images/fishbone.png","null","",NA,NA,NA,NA,""
"image-keyboard-response",500,495370,"0.0-3.163-0.163","7jg0kczztkw96nk",72,"35.csv","","403.7999999523163","resources/trios/L4T1A2.jpg","37","restless",0.6,0.2,0.8,0.844589406809587,"false"
"image-keyboard-response",501,495780,"0.0-3.163-1.163","7jg0kczztkw96nk",72,"35.csv","","null","resources/maskTrios/L4BB.jpg","null","",NA,NA,NA,NA,""
"image-keyboard-response",502,496988,"0.0-3.163-2.163","7jg0kczztkw96nk",72,"35.csv","","null","resources/images/fishbone.png","null","",NA,NA,NA,NA,""
"image-keyboard-response",503,497345,"0.0-3.164-0.164","7jg0kczztkw96nk",72,"35.csv","","354.7999999523163","resources/trios/L1T1A1.jpg","39","restless",0.6,0.2,0.8,0.358417859057792,"true"
"image-keyboard-response",504,497756,"0.0-3.164-1.164","7jg0kczztkw96nk",72,"35.csv","","null","resources/maskTrios/BBA1.jpg","null","",NA,NA,NA,NA,""
"image-keyboard-response",505,498964,"0.0-3.164-2.164","7jg0kczztkw96nk",72,"35.csv","","null","resources/images/coin2.png","null","",NA,NA,NA,NA,""
"image-keyboard-response",506,499619,"0.0-3.165-0.165","7jg0kczztkw96nk",72,"35.csv","","652.6000001430511","resources/trios/L4T1A2.jpg","39","restless",0.6,0.1,0.8,0.840075764752647,"false"
"image-keyboard-response",507,500023,"0.0-3.165-1.165","7jg0kczztkw96nk",72,"35.csv","","null","resources/maskTrios/BBA2.jpg","null","",NA,NA,NA,NA,""
"image-keyboard-response",508,501236,"0.0-3.165-2.165","7jg0kczztkw96nk",72,"35.csv","","null","resources/images/fishbone.png","null","",NA,NA,NA,NA,""
"image-keyboard-response",509,501769,"0.0-3.166-0.166","7jg0kczztkw96nk",72,"35.csv","","531.0999999046326","resources/trios/L1T1A2.jpg","39","restless",0.6,0.2,0.8,0.576246028248637,"true"
"image-keyboard-response",510,502179,"0.0-3.166-1.166","7jg0kczztkw96nk",72,"35.csv","","null","resources/maskTrios/BBA2.jpg","null","",NA,NA,NA,NA,""
"image-keyboard-response",511,503388,"0.0-3.166-2.166","7jg0kczztkw96nk",72,"35.csv","","null","resources/images/coin2.png","null","",NA,NA,NA,NA,""
"image-keyboard-response",512,504047,"0.0-3.167-0.167","7jg0kczztkw96nk",72,"35.csv","","657.4000000953674","resources/trios/L4T1A1.jpg","39","restless",0.6,0.2,0.8,0.735655045913228,"true"
"image-keyboard-response",513,504460,"0.0-3.167-1.167","7jg0kczztkw96nk",72,"35.csv","","null","resources/maskTrios/BBA1.jpg","null","",NA,NA,NA,NA,""
"image-keyboard-response",514,505668,"0.0-3.167-2.167","7jg0kczztkw96nk",72,"35.csv","","null","resources/images/coin2.png","null","",NA,NA,NA,NA,""
"image-keyboard-response",515,506140,"0.0-3.168-0.168","7jg0kczztkw96nk",72,"35.csv","","470.2999999523163","resources/trios/L1T2A2.jpg","39","restless",0.6,0.2,0.8,0.566751985769464,"true"
"image-keyboard-response",516,506543,"0.0-3.168-1.168","7jg0kczztkw96nk",72,"35.csv","","null","resources/maskTrios/BBA2.jpg","null","",NA,NA,NA,NA,""
"image-keyboard-response",517,507756,"0.0-3.168-2.168","7jg0kczztkw96nk",72,"35.csv","","null","resources/images/coin2.png","null","",NA,NA,NA,NA,""
"image-keyboard-response",518,508156,"0.0-3.169-0.169","7jg0kczztkw96nk",72,"35.csv","","397.69999980926514","resources/trios/L1T1A2.jpg","37","restless",0.6,0.2,0.8,0.236538648412887,"true"
"image-keyboard-response",519,508559,"0.0-3.169-1.169","7jg0kczztkw96nk",72,"35.csv","","null","resources/maskTrios/L1BB.jpg","null","",NA,NA,NA,NA,""
"image-keyboard-response",520,509772,"0.0-3.169-2.169","7jg0kczztkw96nk",72,"35.csv","","null","resources/images/coin2.png","null","",NA,NA,NA,NA,""
"image-keyboard-response",521,510195,"0.0-3.170-0.170","7jg0kczztkw96nk",72,"35.csv","","420.7000000476837","resources/trios/L4T2A1.jpg","37","restless",0.6,0.2,0.8,0.224146335756805,"true"
"image-keyboard-response",522,510603,"0.0-3.170-1.170","7jg0kczztkw96nk",72,"35.csv","","null","resources/maskTrios/L4BB.jpg","null","",NA,NA,NA,NA,""
"image-keyboard-response",523,511812,"0.0-3.170-2.170","7jg0kczztkw96nk",72,"35.csv","","null","resources/images/coin2.png","null","",NA,NA,NA,NA,""
"image-keyboard-response",524,512498,"0.0-3.171-0.171","7jg0kczztkw96nk",72,"35.csv","","683.5","resources/trios/L1T1A2.jpg","38","restless",0.6,0.2,0.7,0.787624923956238,"false"
"image-keyboard-response",525,512908,"0.0-3.171-1.171","7jg0kczztkw96nk",72,"35.csv","","null","resources/maskTrios/BT1B.jpg","null","",NA,NA,NA,NA,""
"image-keyboard-response",526,514114,"0.0-3.171-2.171","7jg0kczztkw96nk",72,"35.csv","","null","resources/images/fishbone.png","null","",NA,NA,NA,NA,""
"image-keyboard-response",527,514808,"0.0-3.172-0.172","7jg0kczztkw96nk",72,"35.csv","","691.2000000476837","resources/trios/L1T2A2.jpg","39","restless",0.6,0.2,0.7,0.962393545431594,"false"
"image-keyboard-response",528,515220,"0.0-3.172-1.172","7jg0kczztkw96nk",72,"35.csv","","null","resources/maskTrios/BBA2.jpg","null","",NA,NA,NA,NA,""
"image-keyboard-response",529,516428,"0.0-3.172-2.172","7jg0kczztkw96nk",72,"35.csv","","null","resources/images/fishbone.png","null","",NA,NA,NA,NA,""
"image-keyboard-response",530,516970,"0.0-3.173-0.173","7jg0kczztkw96nk",72,"35.csv","","539.5999999046326","resources/trios/L4T1A2.jpg","39","restless",0.5,0.2,0.7,0.289486942201368,"true"
"image-keyboard-response",531,517380,"0.0-3.173-1.173","7jg0kczztkw96nk",72,"35.csv","","null","resources/maskTrios/BBA2.jpg","null","",NA,NA,NA,NA,""
"image-keyboard-response",532,518586,"0.0-3.173-2.173","7jg0kczztkw96nk",72,"35.csv","","null","resources/images/coin2.png","null","",NA,NA,NA,NA,""
"image-keyboard-response",533,519131,"0.0-3.174-0.174","7jg0kczztkw96nk",72,"35.csv","","542.0999999046326","resources/trios/L1T1A1.jpg","37","restless",0.5,0.2,0.7,0.751446596210997,"false"
"image-keyboard-response",534,519540,"0.0-3.174-1.174","7jg0kczztkw96nk",72,"35.csv","","null","resources/maskTrios/L1BB.jpg","null","",NA,NA,NA,NA,""
"image-keyboard-response",535,520748,"0.0-3.174-2.174","7jg0kczztkw96nk",72,"35.csv","","null","resources/images/fishbone.png","null","",NA,NA,NA,NA,""
"image-keyboard-response",536,521680,"0.0-3.175-0.175","7jg0kczztkw96nk",72,"35.csv","","929.5","resources/trios/L1T1A2.jpg","38","restless",0.5,0.2,0.7,0.230527955698401,"false"
"image-keyboard-response",537,522092,"0.0-3.175-1.175","7jg0kczztkw96nk",72,"35.csv","","null","resources/maskTrios/BT1B.jpg","null","",NA,NA,NA,NA,""
"image-keyboard-response",538,523300,"0.0-3.175-2.175","7jg0kczztkw96nk",72,"35.csv","","null","resources/images/fishbone.png","null","",NA,NA,NA,NA,""
"image-keyboard-response",539,523835,"0.0-3.176-0.176","7jg0kczztkw96nk",72,"35.csv","","533.0999999046326","resources/trios/L1T2A2.jpg","38","restless",0.5,0.2,0.7,0.536738481506379,"false"
"image-keyboard-response",540,524244,"0.0-3.176-1.176","7jg0kczztkw96nk",72,"35.csv","","null","resources/maskTrios/BT2B.jpg","null","",NA,NA,NA,NA,""
"image-keyboard-response",541,525452,"0.0-3.176-2.176","7jg0kczztkw96nk",72,"35.csv","","null","resources/images/fishbone.png","null","",NA,NA,NA,NA,""
"image-keyboard-response",542,525673,"0.0-3.177-0.177","7jg0kczztkw96nk",72,"35.csv","","218.59999990463257","resources/trios/L4T1A1.jpg","39","restless",0.5,0.2,0.7,0.13993052722105,"true"
"image-keyboard-response",543,526080,"0.0-3.177-1.177","7jg0kczztkw96nk",72,"35.csv","","null","resources/maskTrios/BBA1.jpg","null","",NA,NA,NA,NA,""
"image-keyboard-response",544,527292,"0.0-3.177-2.177","7jg0kczztkw96nk",72,"35.csv","","null","resources/images/coin2.png","null","",NA,NA,NA,NA,""
"image-keyboard-response",545,527652,"0.0-3.178-0.178","7jg0kczztkw96nk",72,"35.csv","","358","resources/trios/L1T1A1.jpg","39","restless",0.5,0.2,0.7,0.0146551502470331,"true"
"image-keyboard-response",546,528056,"0.0-3.178-1.178","7jg0kczztkw96nk",72,"35.csv","","null","resources/maskTrios/BBA1.jpg","null","",NA,NA,NA,NA,""
"image-keyboard-response",547,529266,"0.0-3.178-2.178","7jg0kczztkw96nk",72,"35.csv","","null","resources/images/coin2.png","null","",NA,NA,NA,NA,""
"image-keyboard-response",548,530125,"0.0-3.179-0.179","7jg0kczztkw96nk",72,"35.csv","","856.4000000953674","resources/trios/L4T2A1.jpg","39","restless",0.5,0.3,0.7,0.187473720385964,"true"
"image-keyboard-response",549,530540,"0.0-3.179-1.179","7jg0kczztkw96nk",72,"35.csv","","null","resources/maskTrios/BBA1.jpg","null","",NA,NA,NA,NA,""
"image-keyboard-response",550,531748,"0.0-3.179-2.179","7jg0kczztkw96nk",72,"35.csv","","null","resources/images/coin2.png","null","",NA,NA,NA,NA,""
"image-keyboard-response",551,532096,"0.0-3.180-0.180","7jg0kczztkw96nk",72,"35.csv","","346","resources/trios/L1T1A1.jpg","39","restless",0.5,0.3,0.7,0.74238702747036,"false"
"image-keyboard-response",552,532508,"0.0-3.180-1.180","7jg0kczztkw96nk",72,"35.csv","","null","resources/maskTrios/BBA1.jpg","null","",NA,NA,NA,NA,""
"image-keyboard-response",553,533716,"0.0-3.180-2.180","7jg0kczztkw96nk",72,"35.csv","","null","resources/images/fishbone.png","null","",NA,NA,NA,NA,""
"image-keyboard-response",554,534175,"0.0-3.181-0.181","7jg0kczztkw96nk",72,"35.csv","","456.5","resources/trios/L1T1A2.jpg","38","restless",0.5,0.3,0.7,0.306170663428534,"false"
"image-keyboard-response",555,534588,"0.0-3.181-1.181","7jg0kczztkw96nk",72,"35.csv","","null","resources/maskTrios/BT1B.jpg","null","",NA,NA,NA,NA,""
"image-keyboard-response",556,535796,"0.0-3.181-2.181","7jg0kczztkw96nk",72,"35.csv","","null","resources/images/fishbone.png","null","",NA,NA,NA,NA,""
"image-keyboard-response",557,536063,"0.0-3.182-0.182","7jg0kczztkw96nk",72,"35.csv","","265.09999990463257","resources/trios/L1T2A2.jpg","39","restless",0.5,0.3,0.7,0.295203806642785,"true"
"image-keyboard-response",558,536476,"0.0-3.182-1.182","7jg0kczztkw96nk",72,"35.csv","","null","resources/maskTrios/BBA2.jpg","null","",NA,NA,NA,NA,""
"image-keyboard-response",559,537683,"0.0-3.182-2.182","7jg0kczztkw96nk",72,"35.csv","","null","resources/images/coin2.png","null","",NA,NA,NA,NA,""
"image-keyboard-response",560,538049,"0.0-3.183-0.183","7jg0kczztkw96nk",72,"35.csv","","364.69999980926514","resources/trios/L1T1A2.jpg","37","restless",0.5,0.3,0.7,0.612292112338572,"false"
"image-keyboard-response",561,538456,"0.0-3.183-1.183","7jg0kczztkw96nk",72,"35.csv","","null","resources/maskTrios/L1BB.jpg","null","",NA,NA,NA,NA,""
"image-keyboard-response",562,539668,"0.0-3.183-2.183","7jg0kczztkw96nk",72,"35.csv","","null","resources/images/fishbone.png","null","",NA,NA,NA,NA,""
"image-keyboard-response",563,539989,"0.0-3.184-0.184","7jg0kczztkw96nk",72,"35.csv","","318.60000014305115","resources/trios/L1T1A1.jpg","37","restless",0.5,0.3,0.7,0.263310507622224,"true"
"image-keyboard-response",564,540404,"0.0-3.184-1.184","7jg0kczztkw96nk",72,"35.csv","","null","resources/maskTrios/L1BB.jpg","null","",NA,NA,NA,NA,""
"image-keyboard-response",565,541612,"0.0-3.184-2.184","7jg0kczztkw96nk",72,"35.csv","","null","resources/images/coin2.png","null","",NA,NA,NA,NA,""
"image-keyboard-response",566,541896,"0.0-3.185-0.185","7jg0kczztkw96nk",72,"35.csv","","281.80000019073486","resources/trios/L1T2A2.jpg","37","restless",0.5,0.3,0.7,0.617441632700841,"false"
"image-keyboard-response",567,542304,"0.0-3.185-1.185","7jg0kczztkw96nk",72,"35.csv","","null","resources/maskTrios/L1BB.jpg","null","",NA,NA,NA,NA,""
"image-keyboard-response",568,543511,"0.0-3.185-2.185","7jg0kczztkw96nk",72,"35.csv","","null","resources/images/fishbone.png","null","",NA,NA,NA,NA,""
"image-keyboard-response",569,543582,"0.0-3.186-0.186","7jg0kczztkw96nk",72,"35.csv","","68.09999990463257","resources/trios/L1T2A2.jpg","37","restless",0.5,0.3,0.7,0.945740158701272,"false"
"image-keyboard-response",570,543996,"0.0-3.186-1.186","7jg0kczztkw96nk",72,"35.csv","","null","resources/maskTrios/L1BB.jpg","null","",NA,NA,NA,NA,""
"image-keyboard-response",571,545204,"0.0-3.186-2.186","7jg0kczztkw96nk",72,"35.csv","","null","resources/images/fishbone.png","null","",NA,NA,NA,NA,""
"image-keyboard-response",572,546602,"0.0-3.187-0.187","7jg0kczztkw96nk",72,"35.csv","","1395.5","resources/trios/L4T2A1.jpg","37","restless",0.6,0.3,0.7,0.892949301985291,"false"
"image-keyboard-response",573,547012,"0.0-3.187-1.187","7jg0kczztkw96nk",72,"35.csv","","null","resources/maskTrios/L4BB.jpg","null","",NA,NA,NA,NA,""
"image-keyboard-response",574,548220,"0.0-3.187-2.187","7jg0kczztkw96nk",72,"35.csv","","null","resources/images/fishbone.png","null","",NA,NA,NA,NA,""
"image-keyboard-response",575,548657,"0.0-3.188-0.188","7jg0kczztkw96nk",72,"35.csv","","434.7999999523163","resources/trios/L1T1A2.jpg","39","restless",0.6,0.3,0.7,0.981519493100341,"false"
"image-keyboard-response",576,549064,"0.0-3.188-1.188","7jg0kczztkw96nk",72,"35.csv","","null","resources/maskTrios/BBA2.jpg","null","",NA,NA,NA,NA,""
"image-keyboard-response",577,550275,"0.0-3.188-2.188","7jg0kczztkw96nk",72,"35.csv","","null","resources/images/fishbone.png","null","",NA,NA,NA,NA,""
"image-keyboard-response",578,550574,"0.0-3.189-0.189","7jg0kczztkw96nk",72,"35.csv","","296.90000009536743","resources/trios/L1T1A1.jpg","39","restless",0.6,0.3,0.7,0.801058334989382,"false"
"image-keyboard-response",579,550984,"0.0-3.189-1.189","7jg0kczztkw96nk",72,"35.csv","","null","resources/maskTrios/BBA1.jpg","null","",NA,NA,NA,NA,""
"image-keyboard-response",580,552196,"0.0-3.189-2.189","7jg0kczztkw96nk",72,"35.csv","","null","resources/images/fishbone.png","null","",NA,NA,NA,NA,""
"image-keyboard-response",581,552731,"0.0-3.190-0.190","7jg0kczztkw96nk",72,"35.csv","","533.3999998569489","resources/trios/L1T1A1.jpg","37","restless",0.6,0.3,0.7,0.434660415997718,"true"
"image-keyboard-response",582,553140,"0.0-3.190-1.190","7jg0kczztkw96nk",72,"35.csv","","null","resources/maskTrios/L1BB.jpg","null","",NA,NA,NA,NA,""
"image-keyboard-response",583,554347,"0.0-3.190-2.190","7jg0kczztkw96nk",72,"35.csv","","null","resources/images/coin2.png","null","",NA,NA,NA,NA,""
"image-keyboard-response",584,555727,"0.0-3.191-0.191","7jg0kczztkw96nk",72,"35.csv","","1377.2999999523163","resources/trios/L4T2A1.jpg","38","restless",0.6,0.3,0.7,0.604524292436447,"false"
"image-keyboard-response",585,556140,"0.0-3.191-1.191","7jg0kczztkw96nk",72,"35.csv","","null","resources/maskTrios/BT2B.jpg","null","",NA,NA,NA,NA,""
"image-keyboard-response",586,557347,"0.0-3.191-2.191","7jg0kczztkw96nk",72,"35.csv","","null","resources/images/fishbone.png","null","",NA,NA,NA,NA,""
"image-keyboard-response",587,557892,"0.0-3.192-0.192","7jg0kczztkw96nk",72,"35.csv","","542","resources/trios/L1T1A2.jpg","37","restless",0.6,0.3,0.7,0.0642451977997938,"true"
"image-keyboard-response",588,558299,"0.0-3.192-1.192","7jg0kczztkw96nk",72,"35.csv","","null","resources/maskTrios/L1BB.jpg","null","",NA,NA,NA,NA,""
"image-keyboard-response",589,559508,"0.0-3.192-2.192","7jg0kczztkw96nk",72,"35.csv","","null","resources/images/coin2.png","null","",NA,NA,NA,NA,""
"image-keyboard-response",590,560099,"0.0-3.193-0.193","7jg0kczztkw96nk",72,"35.csv","","589.5","resources/trios/L1T2A2.jpg","39","restless",0.6,0.3,0.7,0.998143310127469,"false"
"image-keyboard-response",591,560508,"0.0-3.193-1.193","7jg0kczztkw96nk",72,"35.csv","","null","resources/maskTrios/BBA2.jpg","null","",NA,NA,NA,NA,""
"image-keyboard-response",592,561716,"0.0-3.193-2.193","7jg0kczztkw96nk",72,"35.csv","","null","resources/images/fishbone.png","null","",NA,NA,NA,NA,""
"image-keyboard-response",593,563231,"0.0-3.194-0.194","7jg0kczztkw96nk",72,"35.csv","","1513","resources/trios/L4T2A1.jpg","39","restless",0.6,0.3,0.6,0.968080368500873,"false"
"image-keyboard-response",594,563644,"0.0-3.194-1.194","7jg0kczztkw96nk",72,"35.csv","","null","resources/maskTrios/BBA1.jpg","null","",NA,NA,NA,NA,""
"image-keyboard-response",595,564852,"0.0-3.194-2.194","7jg0kczztkw96nk",72,"35.csv","","null","resources/images/fishbone.png","null","",NA,NA,NA,NA,""
"image-keyboard-response",596,565194,"0.0-3.195-0.195","7jg0kczztkw96nk",72,"35.csv","","340.39999985694885","resources/trios/L4T2A1.jpg","37","restless",0.6,0.3,0.6,0.443295618234258,"true"
"image-keyboard-response",597,565604,"0.0-3.195-1.195","7jg0kczztkw96nk",72,"35.csv","","null","resources/maskTrios/L4BB.jpg","null","",NA,NA,NA,NA,""
"image-keyboard-response",598,566810,"0.0-3.195-2.195","7jg0kczztkw96nk",72,"35.csv","","null","resources/images/coin2.png","null","",NA,NA,NA,NA,""
"image-keyboard-response",599,567984,"0.0-3.196-0.196","7jg0kczztkw96nk",72,"35.csv","","1171.2999999523163","resources/trios/L4T2A1.jpg","39","restless",0.6,0.3,0.6,0.366283009352684,"true"
"image-keyboard-response",600,568392,"0.0-3.196-1.196","7jg0kczztkw96nk",72,"35.csv","","null","resources/maskTrios/BBA1.jpg","null","",NA,NA,NA,NA,""
"image-keyboard-response",601,569604,"0.0-3.196-2.196","7jg0kczztkw96nk",72,"35.csv","","null","resources/images/coin2.png","null","",NA,NA,NA,NA,""
"image-keyboard-response",602,570666,"0.0-3.197-0.197","7jg0kczztkw96nk",72,"35.csv","","1060.1999998092651","resources/trios/L4T2A1.jpg","37","restless",0.6,0.3,0.6,0.4150683358144,"true"
"image-keyboard-response",603,571076,"0.0-3.197-1.197","7jg0kczztkw96nk",72,"35.csv","","null","resources/maskTrios/L4BB.jpg","null","",NA,NA,NA,NA,""
"image-keyboard-response",604,572279,"0.0-3.197-2.197","7jg0kczztkw96nk",72,"35.csv","","null","resources/images/coin2.png","null","",NA,NA,NA,NA,""
"image-keyboard-response",605,573882,"0.0-3.198-0.198","7jg0kczztkw96nk",72,"35.csv","","1601.5","resources/trios/L1T2A1.jpg","37","restless",0.6,0.3,0.6,0.745033969852272,"false"
"image-keyboard-response",606,574291,"0.0-3.198-1.198","7jg0kczztkw96nk",72,"35.csv","","null","resources/maskTrios/L1BB.jpg","null","",NA,NA,NA,NA,""
"image-keyboard-response",607,575496,"0.0-3.198-2.198","7jg0kczztkw96nk",72,"35.csv","","null","resources/images/fishbone.png","null","",NA,NA,NA,NA,""
"image-keyboard-response",608,576368,"0.0-3.199-0.199","7jg0kczztkw96nk",72,"35.csv","","870.2999999523163","resources/trios/L1T2A2.jpg","38","restless",0.6,0.3,0.6,0.856447159293674,"false"
"image-keyboard-response",609,576776,"0.0-3.199-1.199","7jg0kczztkw96nk",72,"35.csv","","null","resources/maskTrios/BT2B.jpg","null","",NA,NA,NA,NA,""
"image-keyboard-response",610,577984,"0.0-3.199-2.199","7jg0kczztkw96nk",72,"35.csv","","null","resources/images/fishbone.png","null","",NA,NA,NA,NA,""
"image-keyboard-response",611,578089,"0.0-3.200-0.200","7jg0kczztkw96nk",72,"35.csv","","102","resources/trios/L1T1A1.jpg","39","restless",0.7,0.3,0.6,0.739182602990108,"false"
"image-keyboard-response",612,578495,"0.0-3.200-1.200","7jg0kczztkw96nk",72,"35.csv","","null","resources/maskTrios/BBA1.jpg","null","",NA,NA,NA,NA,""
"image-keyboard-response",613,579707,"0.0-3.200-2.200","7jg0kczztkw96nk",72,"35.csv","","null","resources/images/fishbone.png","null","",NA,NA,NA,NA,""
