"trial_type","trial_index","time_elapsed","internal_node_id","subject","participantCode","walkNumber","success","rt","stimulus","key_press","test_part","leftProb","midProb","rightProb","generatedNum","correct"
"pavlovia",0,1102,"0.0-0.0","fj66zq6xoaccc3k",1,"52.csv","","","","","",NA,NA,NA,NA,""
"fullscreen",1,4718,"0.0-1.0","fj66zq6xoaccc3k",1,"52.csv","true","","","","",NA,NA,NA,NA,""
"html-keyboard-response",2,9429,"0.0-2.0-0.0","fj66zq6xoaccc3k",1,"52.csv","","4708.60000000149","<p><font size='6'>Arrrgh!</p></font><p>Can you be the best pirate? Try to find lots of gold! But beware, some islands have more gold than others, and over time, the island with the most gold may change. Can YOU figure it out? </p><font size='6'>GOOD LUCK, CAPTAIN!!!</font><p>Press any key to begin</p>","32","",NA,NA,NA,NA,""
"image-keyboard-response",3,12432,"0.0-2.0-1.0","fj66zq6xoaccc3k",1,"52.csv","","null","resources/image_sets/111.png","null","",NA,NA,NA,NA,""
"image-keyboard-response",4,21174,"0.0-2.0-2.0","fj66zq6xoaccc3k",1,"52.csv","","8740.09999999404","resources/image_sets/left_highlight.png","37","",NA,NA,NA,NA,""
"image-keyboard-response",5,24737,"0.0-2.0-3.0","fj66zq6xoaccc3k",1,"52.csv","","3561.2000000029802","resources/image_sets/mid_highlight.png","38","",NA,NA,NA,NA,""
"image-keyboard-response",6,27956,"0.0-2.0-4.0","fj66zq6xoaccc3k",1,"52.csv","","3217.39999999851","resources/image_sets/right_highlight.png","39","",NA,NA,NA,NA,""
"image-keyboard-response",7,34043,"0.0-2.0-5.0","fj66zq6xoaccc3k",1,"52.csv","","6087","resources/image_sets/111.png","13","",NA,NA,NA,NA,""
"image-keyboard-response",8,37659,"0.0-2.0-6.0","fj66zq6xoaccc3k",1,"52.csv","","3614.39999999851","resources/images/coin2.png","13","",NA,NA,NA,NA,""
"image-keyboard-response",9,40499,"0.0-2.0-7.0","fj66zq6xoaccc3k",1,"52.csv","","2838.7000000029802","resources/images/fishbone.png","13","",NA,NA,NA,NA,""
"html-keyboard-response",10,43205,"0.0-2.0-8.0","fj66zq6xoaccc3k",1,"52.csv","","2705.7000000029802","<p>Your first journey will be a long one, but you will get a well deserved break at the end</p><p>After the break you will have four more journeys, but each will be much shorter than the first, and you will have breaks in between each</p><p>Press Enter to begin</p>","13","",NA,NA,NA,NA,""
"image-keyboard-response",11,47261,"0.0-3.0-0.0","fj66zq6xoaccc3k",1,"52.csv","","4054","resources/trios/L1T2A2.jpg","37","restless",0.7,0.9,0.3,0.171351116105028,"true"
"image-keyboard-response",12,47664,"0.0-3.0-1.0","fj66zq6xoaccc3k",1,"52.csv","","null","resources/maskTrios/L1BB.jpg","null","",NA,NA,NA,NA,""
"image-keyboard-response",13,48869,"0.0-3.0-2.0","fj66zq6xoaccc3k",1,"52.csv","","null","resources/images/coin2.png","null","",NA,NA,NA,NA,""
"image-keyboard-response",14,51181,"0.0-3.1-0.1","fj66zq6xoaccc3k",1,"52.csv","","2308.5","resources/trios/L1T4A2.jpg","38","restless",0.7,0.9,0.3,0.773706854419397,"true"
"image-keyboard-response",15,51587,"0.0-3.1-1.1","fj66zq6xoaccc3k",1,"52.csv","","null","resources/maskTrios/BT4B.jpg","null","",NA,NA,NA,NA,""
"image-keyboard-response",16,52792,"0.0-3.1-2.1","fj66zq6xoaccc3k",1,"52.csv","","null","resources/images/coin2.png","null","",NA,NA,NA,NA,""
"image-keyboard-response",17,53550,"0.0-3.2-0.2","fj66zq6xoaccc3k",1,"52.csv","","755.8999999985099","resources/trios/L1T4A3.jpg","39","restless",0.7,0.9,0.3,0.194490159994376,"true"
"image-keyboard-response",18,53952,"0.0-3.2-1.2","fj66zq6xoaccc3k",1,"52.csv","","null","resources/maskTrios/BBA3.jpg","null","",NA,NA,NA,NA,""
"image-keyboard-response",19,55158,"0.0-3.2-2.2","fj66zq6xoaccc3k",1,"52.csv","","null","resources/images/coin2.png","null","",NA,NA,NA,NA,""
"image-keyboard-response",20,57551,"0.0-3.3-0.3","fj66zq6xoaccc3k",1,"52.csv","","2391.39999999851","resources/trios/L1T4A3.jpg","37","restless",0.7,0.9,0.3,0.299853578941393,"true"
"image-keyboard-response",21,57957,"0.0-3.3-1.3","fj66zq6xoaccc3k",1,"52.csv","","null","resources/maskTrios/L1BB.jpg","null","",NA,NA,NA,NA,""
"image-keyboard-response",22,59160,"0.0-3.3-2.3","fj66zq6xoaccc3k",1,"52.csv","","null","resources/images/coin2.png","null","",NA,NA,NA,NA,""
"image-keyboard-response",23,60649,"0.0-3.4-0.4","fj66zq6xoaccc3k",1,"52.csv","","1487.2000000029802","resources/trios/L1T4A2.jpg","39","restless",0.8,0.9,0.3,0.615299897087218,"false"
"image-keyboard-response",24,61055,"0.0-3.4-1.4","fj66zq6xoaccc3k",1,"52.csv","","null","resources/maskTrios/BBA2.jpg","null","",NA,NA,NA,NA,""
"image-keyboard-response",25,62261,"0.0-3.4-2.4","fj66zq6xoaccc3k",1,"52.csv","","null","resources/images/fishbone.png","null","",NA,NA,NA,NA,""
"image-keyboard-response",26,64129,"0.0-3.5-0.5","fj66zq6xoaccc3k",1,"52.csv","","1865.7999999970198","resources/trios/L1T2A3.jpg","38","restless",0.8,0.8,0.3,0.77544716269524,"true"
"image-keyboard-response",27,64533,"0.0-3.5-1.5","fj66zq6xoaccc3k",1,"52.csv","","null","resources/maskTrios/BT2B.jpg","null","",NA,NA,NA,NA,""
"image-keyboard-response",28,65738,"0.0-3.5-2.5","fj66zq6xoaccc3k",1,"52.csv","","null","resources/images/coin2.png","null","",NA,NA,NA,NA,""
"image-keyboard-response",29,66377,"0.0-3.6-0.6","fj66zq6xoaccc3k",1,"52.csv","","636.7000000029802","resources/trios/L1T2A3.jpg","39","restless",0.8,0.8,0.3,0.115272973052456,"true"
"image-keyboard-response",30,66784,"0.0-3.6-1.6","fj66zq6xoaccc3k",1,"52.csv","","null","resources/maskTrios/BBA3.jpg","null","",NA,NA,NA,NA,""
"image-keyboard-response",31,67988,"0.0-3.6-2.6","fj66zq6xoaccc3k",1,"52.csv","","null","resources/images/coin2.png","null","",NA,NA,NA,NA,""
"image-keyboard-response",32,74510,"0.0-3.7-0.7","fj66zq6xoaccc3k",1,"52.csv","","6521.5","resources/trios/L1T4A2.jpg","37","restless",0.8,0.8,0.3,0.852067914604602,"false"
"image-keyboard-response",33,74916,"0.0-3.7-1.7","fj66zq6xoaccc3k",1,"52.csv","","null","resources/maskTrios/L1BB.jpg","null","",NA,NA,NA,NA,""
"image-keyboard-response",34,76122,"0.0-3.7-2.7","fj66zq6xoaccc3k",1,"52.csv","","null","resources/images/fishbone.png","null","",NA,NA,NA,NA,""
"image-keyboard-response",35,76662,"0.0-3.8-0.8","fj66zq6xoaccc3k",1,"52.csv","","538.3000000044703","resources/trios/L2T2A3.jpg","39","restless",0.8,0.8,0.3,0.0670149770470705,"true"
"image-keyboard-response",36,77068,"0.0-3.8-1.8","fj66zq6xoaccc3k",1,"52.csv","","null","resources/maskTrios/BBA3.jpg","null","",NA,NA,NA,NA,""
"image-keyboard-response",37,78271,"0.0-3.8-2.8","fj66zq6xoaccc3k",1,"52.csv","","null","resources/images/coin2.png","null","",NA,NA,NA,NA,""
"image-keyboard-response",38,78759,"0.0-3.9-0.9","fj66zq6xoaccc3k",1,"52.csv","","486","resources/trios/L1T2A3.jpg","38","restless",0.8,0.8,0.3,0.0478150945144431,"true"
"image-keyboard-response",39,79164,"0.0-3.9-1.9","fj66zq6xoaccc3k",1,"52.csv","","null","resources/maskTrios/BT2B.jpg","null","",NA,NA,NA,NA,""
"image-keyboard-response",40,80367,"0.0-3.9-2.9","fj66zq6xoaccc3k",1,"52.csv","","null","resources/images/coin2.png","null","",NA,NA,NA,NA,""
"image-keyboard-response",41,80944,"0.0-3.10-0.10","fj66zq6xoaccc3k",1,"52.csv","","574.7999999970198","resources/trios/L2T4A2.jpg","37","restless",0.8,0.8,0.3,0.77443768201823,"true"
"image-keyboard-response",42,81349,"0.0-3.10-1.10","fj66zq6xoaccc3k",1,"52.csv","","null","resources/maskTrios/L2BB.jpg","null","",NA,NA,NA,NA,""
"image-keyboard-response",43,82553,"0.0-3.10-2.10","fj66zq6xoaccc3k",1,"52.csv","","null","resources/images/coin2.png","null","",NA,NA,NA,NA,""
"image-keyboard-response",44,82984,"0.0-3.11-0.11","fj66zq6xoaccc3k",1,"52.csv","","429.19999999552965","resources/trios/L1T2A3.jpg","39","restless",0.8,0.8,0.3,0.976905722894086,"false"
"image-keyboard-response",45,83387,"0.0-3.11-1.11","fj66zq6xoaccc3k",1,"52.csv","","null","resources/maskTrios/BBA3.jpg","null","",NA,NA,NA,NA,""
"image-keyboard-response",46,84591,"0.0-3.11-2.11","fj66zq6xoaccc3k",1,"52.csv","","null","resources/images/fishbone.png","null","",NA,NA,NA,NA,""
"image-keyboard-response",47,84946,"0.0-3.12-0.12","fj66zq6xoaccc3k",1,"52.csv","","353.6000000014901","resources/trios/L2T4A3.jpg","38","restless",0.9,0.8,0.2,0.202355272607081,"true"
"image-keyboard-response",48,85350,"0.0-3.12-1.12","fj66zq6xoaccc3k",1,"52.csv","","null","resources/maskTrios/BT4B.jpg","null","",NA,NA,NA,NA,""
"image-keyboard-response",49,86552,"0.0-3.12-2.12","fj66zq6xoaccc3k",1,"52.csv","","null","resources/images/coin2.png","null","",NA,NA,NA,NA,""
"image-keyboard-response",50,86912,"0.0-3.13-0.13","fj66zq6xoaccc3k",1,"52.csv","","357.5","resources/trios/L2T4A3.jpg","37","restless",0.9,0.8,0.2,0.746401830705412,"true"
"image-keyboard-response",51,87317,"0.0-3.13-1.13","fj66zq6xoaccc3k",1,"52.csv","","null","resources/maskTrios/L2BB.jpg","null","",NA,NA,NA,NA,""
"image-keyboard-response",52,88523,"0.0-3.13-2.13","fj66zq6xoaccc3k",1,"52.csv","","null","resources/images/coin2.png","null","",NA,NA,NA,NA,""
"image-keyboard-response",53,88882,"0.0-3.14-0.14","fj66zq6xoaccc3k",1,"52.csv","","357.8999999985099","resources/trios/L1T2A2.jpg","39","restless",0.9,0.7,0.2,0.538658871740122,"false"
"image-keyboard-response",54,89289,"0.0-3.14-1.14","fj66zq6xoaccc3k",1,"52.csv","","null","resources/maskTrios/BBA2.jpg","null","",NA,NA,NA,NA,""
"image-keyboard-response",55,90495,"0.0-3.14-2.14","fj66zq6xoaccc3k",1,"52.csv","","null","resources/images/fishbone.png","null","",NA,NA,NA,NA,""
"image-keyboard-response",56,91045,"0.0-3.15-0.15","fj66zq6xoaccc3k",1,"52.csv","","548.2000000029802","resources/trios/L2T2A3.jpg","38","restless",0.9,0.7,0.2,0.114887482180097,"true"
"image-keyboard-response",57,91449,"0.0-3.15-1.15","fj66zq6xoaccc3k",1,"52.csv","","null","resources/maskTrios/BT2B.jpg","null","",NA,NA,NA,NA,""
"image-keyboard-response",58,92653,"0.0-3.15-2.15","fj66zq6xoaccc3k",1,"52.csv","","null","resources/images/coin2.png","null","",NA,NA,NA,NA,""
"image-keyboard-response",59,93812,"0.0-3.16-0.16","fj66zq6xoaccc3k",1,"52.csv","","1157.1999999955297","resources/trios/L1T4A2.jpg","39","restless",0.9,0.7,0.2,0.540215126466096,"false"
"image-keyboard-response",60,94216,"0.0-3.16-1.16","fj66zq6xoaccc3k",1,"52.csv","","null","resources/maskTrios/BBA2.jpg","null","",NA,NA,NA,NA,""
"image-keyboard-response",61,95424,"0.0-3.16-2.16","fj66zq6xoaccc3k",1,"52.csv","","null","resources/images/fishbone.png","null","",NA,NA,NA,NA,""
"image-keyboard-response",62,95773,"0.0-3.17-0.17","fj66zq6xoaccc3k",1,"52.csv","","347.6000000014901","resources/trios/L2T2A2.jpg","37","restless",0.8,0.7,0.2,0.386998811090301,"true"
"image-keyboard-response",63,96180,"0.0-3.17-1.17","fj66zq6xoaccc3k",1,"52.csv","","null","resources/maskTrios/L2BB.jpg","null","",NA,NA,NA,NA,""
"image-keyboard-response",64,97385,"0.0-3.17-2.17","fj66zq6xoaccc3k",1,"52.csv","","null","resources/images/coin2.png","null","",NA,NA,NA,NA,""
"image-keyboard-response",65,98723,"0.0-3.18-0.18","fj66zq6xoaccc3k",1,"52.csv","","1336.7000000029802","resources/trios/L2T2A2.jpg","38","restless",0.8,0.6,0.2,0.590827266141255,"true"
"image-keyboard-response",66,99131,"0.0-3.18-1.18","fj66zq6xoaccc3k",1,"52.csv","","null","resources/maskTrios/BT2B.jpg","null","",NA,NA,NA,NA,""
"image-keyboard-response",67,100337,"0.0-3.18-2.18","fj66zq6xoaccc3k",1,"52.csv","","null","resources/images/coin2.png","null","",NA,NA,NA,NA,""
"image-keyboard-response",68,100606,"0.0-3.19-0.19","fj66zq6xoaccc3k",1,"52.csv","","267.1000000014901","resources/trios/L2T2A3.jpg","37","restless",0.7,0.6,0.2,0.813662150451718,"false"
"image-keyboard-response",69,101011,"0.0-3.19-1.19","fj66zq6xoaccc3k",1,"52.csv","","null","resources/maskTrios/L2BB.jpg","null","",NA,NA,NA,NA,""
"image-keyboard-response",70,102217,"0.0-3.19-2.19","fj66zq6xoaccc3k",1,"52.csv","","null","resources/images/fishbone.png","null","",NA,NA,NA,NA,""
"image-keyboard-response",71,102872,"0.0-3.20-0.20","fj66zq6xoaccc3k",1,"52.csv","","653.7000000029802","resources/trios/L2T2A2.jpg","39","restless",0.7,0.6,0.3,0.850766129128864,"false"
"image-keyboard-response",72,103278,"0.0-3.20-1.20","fj66zq6xoaccc3k",1,"52.csv","","null","resources/maskTrios/BBA2.jpg","null","",NA,NA,NA,NA,""
"image-keyboard-response",73,104483,"0.0-3.20-2.20","fj66zq6xoaccc3k",1,"52.csv","","null","resources/images/fishbone.png","null","",NA,NA,NA,NA,""
"image-keyboard-response",74,104759,"0.0-3.21-0.21","fj66zq6xoaccc3k",1,"52.csv","","274.20000000298023","resources/trios/L2T2A2.jpg","38","restless",0.7,0.5,0.3,0.897800867579152,"false"
"image-keyboard-response",75,105165,"0.0-3.21-1.21","fj66zq6xoaccc3k",1,"52.csv","","null","resources/maskTrios/BT2B.jpg","null","",NA,NA,NA,NA,""
"image-keyboard-response",76,106367,"0.0-3.21-2.21","fj66zq6xoaccc3k",1,"52.csv","","null","resources/images/fishbone.png","null","",NA,NA,NA,NA,""
"image-keyboard-response",77,106634,"0.0-3.22-0.22","fj66zq6xoaccc3k",1,"52.csv","","264.79999999701977","resources/trios/L1T2A2.jpg","37","restless",0.7,0.5,0.3,0.963242909745503,"false"
"image-keyboard-response",78,107040,"0.0-3.22-1.22","fj66zq6xoaccc3k",1,"52.csv","","null","resources/maskTrios/L1BB.jpg","null","",NA,NA,NA,NA,""
"image-keyboard-response",79,108243,"0.0-3.22-2.22","fj66zq6xoaccc3k",1,"52.csv","","null","resources/images/fishbone.png","null","",NA,NA,NA,NA,""
"image-keyboard-response",80,108272,"0.0-3.23-0.23","fj66zq6xoaccc3k",1,"52.csv","","27.30000000447035","resources/trios/L1T4A2.jpg","39","restless",0.7,0.5,0.3,0.989982536139304,"false"
"image-keyboard-response",81,108676,"0.0-3.23-1.23","fj66zq6xoaccc3k",1,"52.csv","","null","resources/maskTrios/BBA2.jpg","null","",NA,NA,NA,NA,""
"image-keyboard-response",82,109880,"0.0-3.23-2.23","fj66zq6xoaccc3k",1,"52.csv","","null","resources/images/fishbone.png","null","",NA,NA,NA,NA,""
"image-keyboard-response",83,110895,"0.0-3.24-0.24","fj66zq6xoaccc3k",1,"52.csv","","1013.4000000059605","resources/trios/L2T2A3.jpg","38","restless",0.7,0.5,0.3,0.809793078686008,"false"
"image-keyboard-response",84,111299,"0.0-3.24-1.24","fj66zq6xoaccc3k",1,"52.csv","","null","resources/maskTrios/BT2B.jpg","null","",NA,NA,NA,NA,""
"image-keyboard-response",85,112504,"0.0-3.24-2.24","fj66zq6xoaccc3k",1,"52.csv","","null","resources/images/fishbone.png","null","",NA,NA,NA,NA,""
"image-keyboard-response",86,112821,"0.0-3.25-0.25","fj66zq6xoaccc3k",1,"52.csv","","315.20000000298023","resources/trios/L1T2A2.jpg","37","restless",0.8,0.5,0.3,0.24452767977918,"true"
"image-keyboard-response",87,113227,"0.0-3.25-1.25","fj66zq6xoaccc3k",1,"52.csv","","null","resources/maskTrios/L1BB.jpg","null","",NA,NA,NA,NA,""
"image-keyboard-response",88,114430,"0.0-3.25-2.25","fj66zq6xoaccc3k",1,"52.csv","","null","resources/images/coin2.png","null","",NA,NA,NA,NA,""
"image-keyboard-response",89,115716,"0.0-3.26-0.26","fj66zq6xoaccc3k",1,"52.csv","","1285.1999999955297","resources/trios/L1T4A3.jpg","39","restless",0.8,0.5,0.3,0.88403446933194,"false"
"image-keyboard-response",90,116121,"0.0-3.26-1.26","fj66zq6xoaccc3k",1,"52.csv","","null","resources/maskTrios/BBA3.jpg","null","",NA,NA,NA,NA,""
"image-keyboard-response",91,117324,"0.0-3.26-2.26","fj66zq6xoaccc3k",1,"52.csv","","null","resources/images/fishbone.png","null","",NA,NA,NA,NA,""
"image-keyboard-response",92,117410,"0.0-3.27-0.27","fj66zq6xoaccc3k",1,"52.csv","","83.79999999701977","resources/trios/L2T4A3.jpg","37","restless",0.8,0.5,0.3,0.869683729622702,"false"
"image-keyboard-response",93,117816,"0.0-3.27-1.27","fj66zq6xoaccc3k",1,"52.csv","","null","resources/maskTrios/L2BB.jpg","null","",NA,NA,NA,NA,""
"image-keyboard-response",94,119021,"0.0-3.27-2.27","fj66zq6xoaccc3k",1,"52.csv","","null","resources/images/fishbone.png","null","",NA,NA,NA,NA,""
"image-keyboard-response",95,119266,"0.0-3.28-0.28","fj66zq6xoaccc3k",1,"52.csv","","242.5","resources/trios/L1T2A3.jpg","38","restless",0.9,0.5,0.2,0.189951293077752,"true"
"image-keyboard-response",96,119672,"0.0-3.28-1.28","fj66zq6xoaccc3k",1,"52.csv","","null","resources/maskTrios/BT2B.jpg","null","",NA,NA,NA,NA,""
"image-keyboard-response",97,120875,"0.0-3.28-2.28","fj66zq6xoaccc3k",1,"52.csv","","null","resources/images/coin2.png","null","",NA,NA,NA,NA,""
"image-keyboard-response",98,121512,"0.0-3.29-0.29","fj66zq6xoaccc3k",1,"52.csv","","635.2999999970198","resources/trios/L1T4A2.jpg","38","restless",0.9,0.5,0.2,0.0302967220888599,"true"
"image-keyboard-response",99,121918,"0.0-3.29-1.29","fj66zq6xoaccc3k",1,"52.csv","","null","resources/maskTrios/BT4B.jpg","null","",NA,NA,NA,NA,""
"image-keyboard-response",100,123125,"0.0-3.29-2.29","fj66zq6xoaccc3k",1,"52.csv","","null","resources/images/coin2.png","null","",NA,NA,NA,NA,""
"image-keyboard-response",101,123404,"0.0-3.30-0.30","fj66zq6xoaccc3k",1,"52.csv","","277.69999999552965","resources/trios/L1T2A3.jpg","39","restless",0.9,0.5,0.3,0.353840988277836,"false"
"image-keyboard-response",102,123810,"0.0-3.30-1.30","fj66zq6xoaccc3k",1,"52.csv","","null","resources/maskTrios/BBA3.jpg","null","",NA,NA,NA,NA,""
"image-keyboard-response",103,125017,"0.0-3.30-2.30","fj66zq6xoaccc3k",1,"52.csv","","null","resources/images/fishbone.png","null","",NA,NA,NA,NA,""
"image-keyboard-response",104,125311,"0.0-3.31-0.31","fj66zq6xoaccc3k",1,"52.csv","","292.3999999985099","resources/trios/L2T2A3.jpg","38","restless",0.9,0.4,0.3,0.0748691346942114,"true"
"image-keyboard-response",105,125715,"0.0-3.31-1.31","fj66zq6xoaccc3k",1,"52.csv","","null","resources/maskTrios/BT2B.jpg","null","",NA,NA,NA,NA,""
"image-keyboard-response",106,126920,"0.0-3.31-2.31","fj66zq6xoaccc3k",1,"52.csv","","null","resources/images/coin2.png","null","",NA,NA,NA,NA,""
"image-keyboard-response",107,127273,"0.0-3.32-0.32","fj66zq6xoaccc3k",1,"52.csv","","351.29999999701977","resources/trios/L2T4A2.jpg","37","restless",0.9,0.4,0.3,0.227304072998721,"true"
"image-keyboard-response",108,127677,"0.0-3.32-1.32","fj66zq6xoaccc3k",1,"52.csv","","null","resources/maskTrios/L2BB.jpg","null","",NA,NA,NA,NA,""
"image-keyboard-response",109,128882,"0.0-3.32-2.32","fj66zq6xoaccc3k",1,"52.csv","","null","resources/images/coin2.png","null","",NA,NA,NA,NA,""
"image-keyboard-response",110,129217,"0.0-3.33-0.33","fj66zq6xoaccc3k",1,"52.csv","","333.70000000298023","resources/trios/L2T2A2.jpg","38","restless",0.9,0.4,0.3,0.858612460012528,"false"
"image-keyboard-response",111,129623,"0.0-3.33-1.33","fj66zq6xoaccc3k",1,"52.csv","","null","resources/maskTrios/BT2B.jpg","null","",NA,NA,NA,NA,""
"image-keyboard-response",112,130828,"0.0-3.33-2.33","fj66zq6xoaccc3k",1,"52.csv","","null","resources/images/fishbone.png","null","",NA,NA,NA,NA,""
"image-keyboard-response",113,131153,"0.0-3.34-0.34","fj66zq6xoaccc3k",1,"52.csv","","322.59999999403954","resources/trios/L1T4A3.jpg","39","restless",0.8,0.4,0.3,0.505796079652365,"false"
"image-keyboard-response",114,131557,"0.0-3.34-1.34","fj66zq6xoaccc3k",1,"52.csv","","null","resources/maskTrios/BBA3.jpg","null","",NA,NA,NA,NA,""
"image-keyboard-response",115,132762,"0.0-3.34-2.34","fj66zq6xoaccc3k",1,"52.csv","","null","resources/images/fishbone.png","null","",NA,NA,NA,NA,""
"image-keyboard-response",116,133184,"0.0-3.35-0.35","fj66zq6xoaccc3k",1,"52.csv","","419.8999999985099","resources/trios/L2T2A2.jpg","37","restless",0.8,0.4,0.3,0.573534814162625,"true"
"image-keyboard-response",117,133586,"0.0-3.35-1.35","fj66zq6xoaccc3k",1,"52.csv","","null","resources/maskTrios/L2BB.jpg","null","",NA,NA,NA,NA,""
"image-keyboard-response",118,134791,"0.0-3.35-2.35","fj66zq6xoaccc3k",1,"52.csv","","null","resources/images/coin2.png","null","",NA,NA,NA,NA,""
"image-keyboard-response",119,135146,"0.0-3.36-0.36","fj66zq6xoaccc3k",1,"52.csv","","352.59999999403954","resources/trios/L1T2A3.jpg","38","restless",0.8,0.4,0.3,0.771250529904348,"false"
"image-keyboard-response",120,135549,"0.0-3.36-1.36","fj66zq6xoaccc3k",1,"52.csv","","null","resources/maskTrios/BT2B.jpg","null","",NA,NA,NA,NA,""
"image-keyboard-response",121,136755,"0.0-3.36-2.36","fj66zq6xoaccc3k",1,"52.csv","","null","resources/images/fishbone.png","null","",NA,NA,NA,NA,""
"image-keyboard-response",122,138139,"0.0-3.37-0.37","fj66zq6xoaccc3k",1,"52.csv","","1382.4000000059605","resources/trios/L2T4A2.jpg","39","restless",0.8,0.5,0.3,0.146791464126326,"true"
"image-keyboard-response",123,138541,"0.0-3.37-1.37","fj66zq6xoaccc3k",1,"52.csv","","null","resources/maskTrios/BBA2.jpg","null","",NA,NA,NA,NA,""
"image-keyboard-response",124,139748,"0.0-3.37-2.37","fj66zq6xoaccc3k",1,"52.csv","","null","resources/images/coin2.png","null","",NA,NA,NA,NA,""
"image-keyboard-response",125,139860,"0.0-3.38-0.38","fj66zq6xoaccc3k",1,"52.csv","","110","resources/trios/L2T4A2.jpg","37","restless",0.8,0.5,0.3,0.63984578338396,"true"
"image-keyboard-response",126,140263,"0.0-3.38-1.38","fj66zq6xoaccc3k",1,"52.csv","","null","resources/maskTrios/L2BB.jpg","null","",NA,NA,NA,NA,""
"image-keyboard-response",127,141468,"0.0-3.38-2.38","fj66zq6xoaccc3k",1,"52.csv","","null","resources/images/coin2.png","null","",NA,NA,NA,NA,""
"image-keyboard-response",128,141926,"0.0-3.39-0.39","fj66zq6xoaccc3k",1,"52.csv","","455.5","resources/trios/L1T2A3.jpg","38","restless",0.8,0.5,0.4,0.23888142388303,"true"
"image-keyboard-response",129,142332,"0.0-3.39-1.39","fj66zq6xoaccc3k",1,"52.csv","","null","resources/maskTrios/BT2B.jpg","null","",NA,NA,NA,NA,""
"image-keyboard-response",130,143538,"0.0-3.39-2.39","fj66zq6xoaccc3k",1,"52.csv","","null","resources/images/coin2.png","null","",NA,NA,NA,NA,""
"image-keyboard-response",131,143817,"0.0-3.40-0.40","fj66zq6xoaccc3k",1,"52.csv","","277.40000000596046","resources/trios/L2T2A2.jpg","39","restless",0.8,0.5,0.4,0.108766977679478,"true"
"image-keyboard-response",132,144222,"0.0-3.40-1.40","fj66zq6xoaccc3k",1,"52.csv","","null","resources/maskTrios/BBA2.jpg","null","",NA,NA,NA,NA,""
"image-keyboard-response",133,145426,"0.0-3.40-2.40","fj66zq6xoaccc3k",1,"52.csv","","null","resources/images/coin2.png","null","",NA,NA,NA,NA,""
"image-keyboard-response",134,145751,"0.0-3.41-0.41","fj66zq6xoaccc3k",1,"52.csv","","323.09999999403954","resources/trios/L2T2A3.jpg","37","restless",0.8,0.5,0.4,0.894795227331092,"false"
"image-keyboard-response",135,146157,"0.0-3.41-1.41","fj66zq6xoaccc3k",1,"52.csv","","null","resources/maskTrios/L2BB.jpg","null","",NA,NA,NA,NA,""
"image-keyboard-response",136,147361,"0.0-3.41-2.41","fj66zq6xoaccc3k",1,"52.csv","","null","resources/images/fishbone.png","null","",NA,NA,NA,NA,""
"image-keyboard-response",137,147623,"0.0-3.42-0.42","fj66zq6xoaccc3k",1,"52.csv","","259.70000000298023","resources/trios/L2T2A2.jpg","38","restless",0.8,0.5,0.4,0.117714328993931,"true"
"image-keyboard-response",138,148028,"0.0-3.42-1.42","fj66zq6xoaccc3k",1,"52.csv","","null","resources/maskTrios/BT2B.jpg","null","",NA,NA,NA,NA,""
"image-keyboard-response",139,149235,"0.0-3.42-2.42","fj66zq6xoaccc3k",1,"52.csv","","null","resources/images/coin2.png","null","",NA,NA,NA,NA,""
"image-keyboard-response",140,149495,"0.0-3.43-0.43","fj66zq6xoaccc3k",1,"52.csv","","258.5","resources/trios/L2T2A2.jpg","39","restless",0.7,0.5,0.5,0.451152774601408,"true"
"image-keyboard-response",141,149899,"0.0-3.43-1.43","fj66zq6xoaccc3k",1,"52.csv","","null","resources/maskTrios/BBA2.jpg","null","",NA,NA,NA,NA,""
"image-keyboard-response",142,151105,"0.0-3.43-2.43","fj66zq6xoaccc3k",1,"52.csv","","null","resources/images/coin2.png","null","",NA,NA,NA,NA,""
"image-keyboard-response",143,151407,"0.0-3.44-0.44","fj66zq6xoaccc3k",1,"52.csv","","299.70000000298023","resources/trios/L1T2A3.jpg","37","restless",0.7,0.5,0.5,0.573362818876777,"true"
"image-keyboard-response",144,151815,"0.0-3.44-1.44","fj66zq6xoaccc3k",1,"52.csv","","null","resources/maskTrios/L1BB.jpg","null","",NA,NA,NA,NA,""
"image-keyboard-response",145,153019,"0.0-3.44-2.44","fj66zq6xoaccc3k",1,"52.csv","","null","resources/images/coin2.png","null","",NA,NA,NA,NA,""
"image-keyboard-response",146,153321,"0.0-3.45-0.45","fj66zq6xoaccc3k",1,"52.csv","","300.09999999403954","resources/trios/L2T4A3.jpg","38","restless",0.7,0.5,0.5,0.964649638815031,"false"
"image-keyboard-response",147,153724,"0.0-3.45-1.45","fj66zq6xoaccc3k",1,"52.csv","","null","resources/maskTrios/BT4B.jpg","null","",NA,NA,NA,NA,""
"image-keyboard-response",148,154929,"0.0-3.45-2.45","fj66zq6xoaccc3k",1,"52.csv","","null","resources/images/fishbone.png","null","",NA,NA,NA,NA,""
"image-keyboard-response",149,155339,"0.0-3.46-0.46","fj66zq6xoaccc3k",1,"52.csv","","407.69999999552965","resources/trios/L1T4A2.jpg","39","restless",0.7,0.5,0.5,0.194758851820499,"true"
"image-keyboard-response",150,155745,"0.0-3.46-1.46","fj66zq6xoaccc3k",1,"52.csv","","null","resources/maskTrios/BBA2.jpg","null","",NA,NA,NA,NA,""
"image-keyboard-response",151,156948,"0.0-3.46-2.46","fj66zq6xoaccc3k",1,"52.csv","","null","resources/images/coin2.png","null","",NA,NA,NA,NA,""
"image-keyboard-response",152,157282,"0.0-3.47-0.47","fj66zq6xoaccc3k",1,"52.csv","","331.90000000596046","resources/trios/L2T4A2.jpg","37","restless",0.7,0.5,0.5,0.993260523860229,"false"
"image-keyboard-response",153,157686,"0.0-3.47-1.47","fj66zq6xoaccc3k",1,"52.csv","","null","resources/maskTrios/L2BB.jpg","null","",NA,NA,NA,NA,""
"image-keyboard-response",154,158891,"0.0-3.47-2.47","fj66zq6xoaccc3k",1,"52.csv","","null","resources/images/fishbone.png","null","",NA,NA,NA,NA,""
"image-keyboard-response",155,159151,"0.0-3.48-0.48","fj66zq6xoaccc3k",1,"52.csv","","257.20000000298023","resources/trios/L2T2A3.jpg","38","restless",0.7,0.5,0.5,0.557967658173885,"false"
"image-keyboard-response",156,159556,"0.0-3.48-1.48","fj66zq6xoaccc3k",1,"52.csv","","null","resources/maskTrios/BT2B.jpg","null","",NA,NA,NA,NA,""
"image-keyboard-response",157,160761,"0.0-3.48-2.48","fj66zq6xoaccc3k",1,"52.csv","","null","resources/images/fishbone.png","null","",NA,NA,NA,NA,""
"image-keyboard-response",158,161028,"0.0-3.49-0.49","fj66zq6xoaccc3k",1,"52.csv","","265.90000000596046","resources/trios/L2T4A2.jpg","39","restless",0.7,0.4,0.5,0.691337440517981,"false"
"image-keyboard-response",159,161431,"0.0-3.49-1.49","fj66zq6xoaccc3k",1,"52.csv","","null","resources/maskTrios/BBA2.jpg","null","",NA,NA,NA,NA,""
"image-keyboard-response",160,162635,"0.0-3.49-2.49","fj66zq6xoaccc3k",1,"52.csv","","null","resources/images/fishbone.png","null","",NA,NA,NA,NA,""
"image-keyboard-response",161,162969,"0.0-3.50-0.50","fj66zq6xoaccc3k",1,"52.csv","","332.1000000014901","resources/trios/L1T2A2.jpg","38","restless",0.7,0.4,0.5,0.0223276082180517,"true"
"image-keyboard-response",162,163370,"0.0-3.50-1.50","fj66zq6xoaccc3k",1,"52.csv","","null","resources/maskTrios/BT2B.jpg","null","",NA,NA,NA,NA,""
"image-keyboard-response",163,164576,"0.0-3.50-2.50","fj66zq6xoaccc3k",1,"52.csv","","null","resources/images/coin2.png","null","",NA,NA,NA,NA,""
"image-keyboard-response",164,164873,"0.0-3.51-0.51","fj66zq6xoaccc3k",1,"52.csv","","295.6000000014901","resources/trios/L2T4A3.jpg","37","restless",0.7,0.4,0.5,0.900644555948344,"false"
"image-keyboard-response",165,165278,"0.0-3.51-1.51","fj66zq6xoaccc3k",1,"52.csv","","null","resources/maskTrios/L2BB.jpg","null","",NA,NA,NA,NA,""
"image-keyboard-response",166,166481,"0.0-3.51-2.51","fj66zq6xoaccc3k",1,"52.csv","","null","resources/images/fishbone.png","null","",NA,NA,NA,NA,""
"image-keyboard-response",167,166765,"0.0-3.52-0.52","fj66zq6xoaccc3k",1,"52.csv","","282.5","resources/trios/L1T4A3.jpg","39","restless",0.7,0.4,0.5,0.129137225161281,"true"
"image-keyboard-response",168,167172,"0.0-3.52-1.52","fj66zq6xoaccc3k",1,"52.csv","","null","resources/maskTrios/BBA3.jpg","null","",NA,NA,NA,NA,""
"image-keyboard-response",169,168375,"0.0-3.52-2.52","fj66zq6xoaccc3k",1,"52.csv","","null","resources/images/coin2.png","null","",NA,NA,NA,NA,""
"image-keyboard-response",170,168721,"0.0-3.53-0.53","fj66zq6xoaccc3k",1,"52.csv","","343.80000000447035","resources/trios/L2T2A2.jpg","38","restless",0.7,0.4,0.5,0.926824270746906,"false"
"image-keyboard-response",171,169126,"0.0-3.53-1.53","fj66zq6xoaccc3k",1,"52.csv","","null","resources/maskTrios/BT2B.jpg","null","",NA,NA,NA,NA,""
"image-keyboard-response",172,170329,"0.0-3.53-2.53","fj66zq6xoaccc3k",1,"52.csv","","null","resources/images/fishbone.png","null","",NA,NA,NA,NA,""
"image-keyboard-response",173,170630,"0.0-3.54-0.54","fj66zq6xoaccc3k",1,"52.csv","","299.1000000014901","resources/trios/L2T4A2.jpg","37","restless",0.6,0.4,0.5,0.0352240903686167,"true"
"image-keyboard-response",174,171036,"0.0-3.54-1.54","fj66zq6xoaccc3k",1,"52.csv","","null","resources/maskTrios/L2BB.jpg","null","",NA,NA,NA,NA,""
"image-keyboard-response",175,172241,"0.0-3.54-2.54","fj66zq6xoaccc3k",1,"52.csv","","null","resources/images/coin2.png","null","",NA,NA,NA,NA,""
"image-keyboard-response",176,172563,"0.0-3.55-0.55","fj66zq6xoaccc3k",1,"52.csv","","320.79999999701977","resources/trios/L2T4A2.jpg","39","restless",0.6,0.4,0.5,0.282515721746301,"true"
"image-keyboard-response",177,172968,"0.0-3.55-1.55","fj66zq6xoaccc3k",1,"52.csv","","null","resources/maskTrios/BBA2.jpg","null","",NA,NA,NA,NA,""
"image-keyboard-response",178,174173,"0.0-3.55-2.55","fj66zq6xoaccc3k",1,"52.csv","","null","resources/images/coin2.png","null","",NA,NA,NA,NA,""
"image-keyboard-response",179,174523,"0.0-3.56-0.56","fj66zq6xoaccc3k",1,"52.csv","","347.8999999985099","resources/trios/L1T2A2.jpg","38","restless",0.6,0.4,0.5,0.091886211847394,"true"
"image-keyboard-response",180,174928,"0.0-3.56-1.56","fj66zq6xoaccc3k",1,"52.csv","","null","resources/maskTrios/BT2B.jpg","null","",NA,NA,NA,NA,""
"image-keyboard-response",181,176134,"0.0-3.56-2.56","fj66zq6xoaccc3k",1,"52.csv","","null","resources/images/coin2.png","null","",NA,NA,NA,NA,""
"image-keyboard-response",182,176691,"0.0-3.57-0.57","fj66zq6xoaccc3k",1,"52.csv","","555.7000000029802","resources/trios/L1T2A2.jpg","37","restless",0.6,0.4,0.5,0.628122397615097,"false"
"image-keyboard-response",183,177096,"0.0-3.57-1.57","fj66zq6xoaccc3k",1,"52.csv","","null","resources/maskTrios/L1BB.jpg","null","",NA,NA,NA,NA,""
"image-keyboard-response",184,178300,"0.0-3.57-2.57","fj66zq6xoaccc3k",1,"52.csv","","null","resources/images/fishbone.png","null","",NA,NA,NA,NA,""
"image-keyboard-response",185,178629,"0.0-3.58-0.58","fj66zq6xoaccc3k",1,"52.csv","","327.70000000298023","resources/trios/L1T4A2.jpg","39","restless",0.6,0.4,0.5,0.170306792976237,"true"
"image-keyboard-response",186,179034,"0.0-3.58-1.58","fj66zq6xoaccc3k",1,"52.csv","","null","resources/maskTrios/BBA2.jpg","null","",NA,NA,NA,NA,""
"image-keyboard-response",187,180240,"0.0-3.58-2.58","fj66zq6xoaccc3k",1,"52.csv","","null","resources/images/coin2.png","null","",NA,NA,NA,NA,""
"image-keyboard-response",188,180562,"0.0-3.59-0.59","fj66zq6xoaccc3k",1,"52.csv","","319.8999999985099","resources/trios/L1T4A3.jpg","38","restless",0.6,0.5,0.5,0.866951194786292,"false"
"image-keyboard-response",189,180966,"0.0-3.59-1.59","fj66zq6xoaccc3k",1,"52.csv","","null","resources/maskTrios/BT4B.jpg","null","",NA,NA,NA,NA,""
"image-keyboard-response",190,182170,"0.0-3.59-2.59","fj66zq6xoaccc3k",1,"52.csv","","null","resources/images/fishbone.png","null","",NA,NA,NA,NA,""
"image-keyboard-response",191,182303,"0.0-3.60-0.60","fj66zq6xoaccc3k",1,"52.csv","","131.09999999403954","resources/trios/L2T2A3.jpg","37","restless",0.6,0.5,0.5,0.447304745382619,"true"
"image-keyboard-response",192,182708,"0.0-3.60-1.60","fj66zq6xoaccc3k",1,"52.csv","","null","resources/maskTrios/L2BB.jpg","null","",NA,NA,NA,NA,""
"image-keyboard-response",193,183911,"0.0-3.60-2.60","fj66zq6xoaccc3k",1,"52.csv","","null","resources/images/coin2.png","null","",NA,NA,NA,NA,""
"image-keyboard-response",194,184140,"0.0-3.61-0.61","fj66zq6xoaccc3k",1,"52.csv","","227.10000000149012","resources/trios/L1T4A2.jpg","39","restless",0.6,0.5,0.5,0.501343200790733,"false"
"image-keyboard-response",195,184546,"0.0-3.61-1.61","fj66zq6xoaccc3k",1,"52.csv","","null","resources/maskTrios/BBA2.jpg","null","",NA,NA,NA,NA,""
"image-keyboard-response",196,185749,"0.0-3.61-2.61","fj66zq6xoaccc3k",1,"52.csv","","null","resources/images/fishbone.png","null","",NA,NA,NA,NA,""
"image-keyboard-response",197,186075,"0.0-3.62-0.62","fj66zq6xoaccc3k",1,"52.csv","","324.70000000298023","resources/trios/L2T2A3.jpg","38","restless",0.6,0.5,0.5,0.785804134263931,"false"
"image-keyboard-response",198,186480,"0.0-3.62-1.62","fj66zq6xoaccc3k",1,"52.csv","","null","resources/maskTrios/BT2B.jpg","null","",NA,NA,NA,NA,""
"image-keyboard-response",199,187684,"0.0-3.62-2.62","fj66zq6xoaccc3k",1,"52.csv","","null","resources/images/fishbone.png","null","",NA,NA,NA,NA,""
"image-keyboard-response",200,188657,"0.0-3.63-0.63","fj66zq6xoaccc3k",1,"52.csv","","970.2999999970198","resources/trios/L2T4A2.jpg","37","restless",0.6,0.5,0.5,0.171030295218786,"true"
"image-keyboard-response",201,189062,"0.0-3.63-1.63","fj66zq6xoaccc3k",1,"52.csv","","null","resources/maskTrios/L2BB.jpg","null","",NA,NA,NA,NA,""
"image-keyboard-response",202,190267,"0.0-3.63-2.63","fj66zq6xoaccc3k",1,"52.csv","","null","resources/images/coin2.png","null","",NA,NA,NA,NA,""
"image-keyboard-response",203,190690,"0.0-3.64-0.64","fj66zq6xoaccc3k",1,"52.csv","","421.80000000447035","resources/trios/L1T2A3.jpg","38","restless",0.6,0.5,0.5,0.497716348289026,"true"
"image-keyboard-response",204,191095,"0.0-3.64-1.64","fj66zq6xoaccc3k",1,"52.csv","","null","resources/maskTrios/BT2B.jpg","null","",NA,NA,NA,NA,""
"image-keyboard-response",205,192299,"0.0-3.64-2.64","fj66zq6xoaccc3k",1,"52.csv","","null","resources/images/coin2.png","null","",NA,NA,NA,NA,""
"image-keyboard-response",206,192588,"0.0-3.65-0.65","fj66zq6xoaccc3k",1,"52.csv","","286.90000000596046","resources/trios/L2T2A2.jpg","38","restless",0.5,0.5,0.4,0.65049843933126,"false"
"image-keyboard-response",207,192994,"0.0-3.65-1.65","fj66zq6xoaccc3k",1,"52.csv","","null","resources/maskTrios/BT2B.jpg","null","",NA,NA,NA,NA,""
"image-keyboard-response",208,194196,"0.0-3.65-2.65","fj66zq6xoaccc3k",1,"52.csv","","null","resources/images/fishbone.png","null","",NA,NA,NA,NA,""
"image-keyboard-response",209,194474,"0.0-3.66-0.66","fj66zq6xoaccc3k",1,"52.csv","","276.5","resources/trios/L2T2A2.jpg","37","restless",0.5,0.5,0.4,0.263006127506142,"true"
"image-keyboard-response",210,194876,"0.0-3.66-1.66","fj66zq6xoaccc3k",1,"52.csv","","null","resources/maskTrios/L2BB.jpg","null","",NA,NA,NA,NA,""
"image-keyboard-response",211,196082,"0.0-3.66-2.66","fj66zq6xoaccc3k",1,"52.csv","","null","resources/images/coin2.png","null","",NA,NA,NA,NA,""
"image-keyboard-response",212,196363,"0.0-3.67-0.67","fj66zq6xoaccc3k",1,"52.csv","","279.70000000298023","resources/trios/L1T4A3.jpg","39","restless",0.5,0.5,0.4,0.665467347245273,"false"
"image-keyboard-response",213,196770,"0.0-3.67-1.67","fj66zq6xoaccc3k",1,"52.csv","","null","resources/maskTrios/BBA3.jpg","null","",NA,NA,NA,NA,""
"image-keyboard-response",214,197975,"0.0-3.67-2.67","fj66zq6xoaccc3k",1,"52.csv","","null","resources/images/fishbone.png","null","",NA,NA,NA,NA,""
"image-keyboard-response",215,198371,"0.0-3.68-0.68","fj66zq6xoaccc3k",1,"52.csv","","394.5","resources/trios/L1T2A2.jpg","38","restless",0.5,0.5,0.4,0.35398123603622,"true"
"image-keyboard-response",216,198774,"0.0-3.68-1.68","fj66zq6xoaccc3k",1,"52.csv","","null","resources/maskTrios/BT2B.jpg","null","",NA,NA,NA,NA,""
"image-keyboard-response",217,199978,"0.0-3.68-2.68","fj66zq6xoaccc3k",1,"52.csv","","null","resources/images/coin2.png","null","",NA,NA,NA,NA,""
"image-keyboard-response",218,200265,"0.0-3.69-0.69","fj66zq6xoaccc3k",1,"52.csv","","285.3999999985099","resources/trios/L1T4A3.jpg","39","restless",0.5,0.5,0.4,0.421790537274646,"false"
"image-keyboard-response",219,200671,"0.0-3.69-1.69","fj66zq6xoaccc3k",1,"52.csv","","null","resources/maskTrios/BBA3.jpg","null","",NA,NA,NA,NA,""
"image-keyboard-response",220,201877,"0.0-3.69-2.69","fj66zq6xoaccc3k",1,"52.csv","","null","resources/images/fishbone.png","null","",NA,NA,NA,NA,""
"image-keyboard-response",221,202494,"0.0-3.70-0.70","fj66zq6xoaccc3k",1,"52.csv","","615.8999999985099","resources/trios/L2T4A3.jpg","37","restless",0.6,0.5,0.4,0.058186969641993,"true"
"image-keyboard-response",222,202900,"0.0-3.70-1.70","fj66zq6xoaccc3k",1,"52.csv","","null","resources/maskTrios/L2BB.jpg","null","",NA,NA,NA,NA,""
"image-keyboard-response",223,204105,"0.0-3.70-2.70","fj66zq6xoaccc3k",1,"52.csv","","null","resources/images/coin2.png","null","",NA,NA,NA,NA,""
"image-keyboard-response",224,204500,"0.0-3.71-0.71","fj66zq6xoaccc3k",1,"52.csv","","393","resources/trios/L2T4A2.jpg","38","restless",0.6,0.4,0.4,0.778671407513398,"false"
"image-keyboard-response",225,204903,"0.0-3.71-1.71","fj66zq6xoaccc3k",1,"52.csv","","null","resources/maskTrios/BT4B.jpg","null","",NA,NA,NA,NA,""
"image-keyboard-response",226,206108,"0.0-3.71-2.71","fj66zq6xoaccc3k",1,"52.csv","","null","resources/images/fishbone.png","null","",NA,NA,NA,NA,""
"image-keyboard-response",227,206638,"0.0-3.72-0.72","fj66zq6xoaccc3k",1,"52.csv","","527.9000000059605","resources/trios/L1T4A2.jpg","39","restless",0.6,0.4,0.4,0.632489446900922,"false"
"image-keyboard-response",228,207044,"0.0-3.72-1.72","fj66zq6xoaccc3k",1,"52.csv","","null","resources/maskTrios/BBA2.jpg","null","",NA,NA,NA,NA,""
"image-keyboard-response",229,208250,"0.0-3.72-2.72","fj66zq6xoaccc3k",1,"52.csv","","null","resources/images/fishbone.png","null","",NA,NA,NA,NA,""
"image-keyboard-response",230,208510,"0.0-3.73-0.73","fj66zq6xoaccc3k",1,"52.csv","","258.20000000298023","resources/trios/L2T2A3.jpg","37","restless",0.6,0.4,0.4,0.386788289656679,"true"
"image-keyboard-response",231,208916,"0.0-3.73-1.73","fj66zq6xoaccc3k",1,"52.csv","","null","resources/maskTrios/L2BB.jpg","null","",NA,NA,NA,NA,""
"image-keyboard-response",232,210120,"0.0-3.73-2.73","fj66zq6xoaccc3k",1,"52.csv","","null","resources/images/coin2.png","null","",NA,NA,NA,NA,""
"image-keyboard-response",233,210596,"0.0-3.74-0.74","fj66zq6xoaccc3k",1,"52.csv","","474.20000000298023","resources/trios/L2T4A3.jpg","38","restless",0.6,0.4,0.4,0.608418731742529,"false"
"image-keyboard-response",234,211002,"0.0-3.74-1.74","fj66zq6xoaccc3k",1,"52.csv","","null","resources/maskTrios/BT4B.jpg","null","",NA,NA,NA,NA,""
"image-keyboard-response",235,212207,"0.0-3.74-2.74","fj66zq6xoaccc3k",1,"52.csv","","null","resources/images/fishbone.png","null","",NA,NA,NA,NA,""
"image-keyboard-response",236,212539,"0.0-3.75-0.75","fj66zq6xoaccc3k",1,"52.csv","","330.30000000447035","resources/trios/L1T2A2.jpg","39","restless",0.6,0.4,0.4,0.0442062224987703,"true"
"image-keyboard-response",237,212943,"0.0-3.75-1.75","fj66zq6xoaccc3k",1,"52.csv","","null","resources/maskTrios/BBA2.jpg","null","",NA,NA,NA,NA,""
"image-keyboard-response",238,214148,"0.0-3.75-2.75","fj66zq6xoaccc3k",1,"52.csv","","null","resources/images/coin2.png","null","",NA,NA,NA,NA,""
"image-keyboard-response",239,214499,"0.0-3.76-0.76","fj66zq6xoaccc3k",1,"52.csv","","348.80000000447035","resources/trios/L2T4A2.jpg","37","restless",0.6,0.5,0.4,0.468390417437783,"true"
"image-keyboard-response",240,214905,"0.0-3.76-1.76","fj66zq6xoaccc3k",1,"52.csv","","null","resources/maskTrios/L2BB.jpg","null","",NA,NA,NA,NA,""
"image-keyboard-response",241,216111,"0.0-3.76-2.76","fj66zq6xoaccc3k",1,"52.csv","","null","resources/images/coin2.png","null","",NA,NA,NA,NA,""
"image-keyboard-response",242,216455,"0.0-3.77-0.77","fj66zq6xoaccc3k",1,"52.csv","","343","resources/trios/L1T4A3.jpg","39","restless",0.6,0.5,0.4,0.462451735064567,"false"
"image-keyboard-response",243,216859,"0.0-3.77-1.77","fj66zq6xoaccc3k",1,"52.csv","","null","resources/maskTrios/BBA3.jpg","null","",NA,NA,NA,NA,""
"image-keyboard-response",244,218063,"0.0-3.77-2.77","fj66zq6xoaccc3k",1,"52.csv","","null","resources/images/fishbone.png","null","",NA,NA,NA,NA,""
"image-keyboard-response",245,218350,"0.0-3.78-0.78","fj66zq6xoaccc3k",1,"52.csv","","285.8999999985099","resources/trios/L1T4A2.jpg","38","restless",0.6,0.5,0.4,0.718492105943574,"false"
"image-keyboard-response",246,218756,"0.0-3.78-1.78","fj66zq6xoaccc3k",1,"52.csv","","null","resources/maskTrios/BT4B.jpg","null","",NA,NA,NA,NA,""
"image-keyboard-response",247,219961,"0.0-3.78-2.78","fj66zq6xoaccc3k",1,"52.csv","","null","resources/images/fishbone.png","null","",NA,NA,NA,NA,""
"image-keyboard-response",248,220202,"0.0-3.79-0.79","fj66zq6xoaccc3k",1,"52.csv","","238.69999999552965","resources/trios/L2T4A2.jpg","37","restless",0.6,0.5,0.4,0.134783326899267,"true"
"image-keyboard-response",249,220604,"0.0-3.79-1.79","fj66zq6xoaccc3k",1,"52.csv","","null","resources/maskTrios/L2BB.jpg","null","",NA,NA,NA,NA,""
"image-keyboard-response",250,221809,"0.0-3.79-2.79","fj66zq6xoaccc3k",1,"52.csv","","null","resources/images/coin2.png","null","",NA,NA,NA,NA,""
"image-keyboard-response",251,222040,"0.0-3.80-0.80","fj66zq6xoaccc3k",1,"52.csv","","229.20000000298023","resources/trios/L1T4A2.jpg","37","restless",0.6,0.5,0.5,0.0296070972307971,"true"
"image-keyboard-response",252,222446,"0.0-3.80-1.80","fj66zq6xoaccc3k",1,"52.csv","","null","resources/maskTrios/L1BB.jpg","null","",NA,NA,NA,NA,""
"image-keyboard-response",253,223652,"0.0-3.80-2.80","fj66zq6xoaccc3k",1,"52.csv","","null","resources/images/coin2.png","null","",NA,NA,NA,NA,""
"image-keyboard-response",254,223992,"0.0-3.81-0.81","fj66zq6xoaccc3k",1,"52.csv","","338.79999999701977","resources/trios/L1T2A2.jpg","39","restless",0.6,0.5,0.5,0.737680021755418,"false"
"image-keyboard-response",255,224398,"0.0-3.81-1.81","fj66zq6xoaccc3k",1,"52.csv","","null","resources/maskTrios/BBA2.jpg","null","",NA,NA,NA,NA,""
"image-keyboard-response",256,225604,"0.0-3.81-2.81","fj66zq6xoaccc3k",1,"52.csv","","null","resources/images/fishbone.png","null","",NA,NA,NA,NA,""
"image-keyboard-response",257,226001,"0.0-3.82-0.82","fj66zq6xoaccc3k",1,"52.csv","","395.20000000298023","resources/trios/L2T2A3.jpg","37","restless",0.6,0.5,0.5,0.512931433938736,"true"
"image-keyboard-response",258,226404,"0.0-3.82-1.82","fj66zq6xoaccc3k",1,"52.csv","","null","resources/maskTrios/L2BB.jpg","null","",NA,NA,NA,NA,""
"image-keyboard-response",259,227608,"0.0-3.82-2.82","fj66zq6xoaccc3k",1,"52.csv","","null","resources/images/coin2.png","null","",NA,NA,NA,NA,""
"image-keyboard-response",260,227874,"0.0-3.83-0.83","fj66zq6xoaccc3k",1,"52.csv","","264.20000000298023","resources/trios/L2T2A3.jpg","37","restless",0.6,0.5,0.5,0.896632063792289,"false"
"image-keyboard-response",261,228281,"0.0-3.83-1.83","fj66zq6xoaccc3k",1,"52.csv","","null","resources/maskTrios/L2BB.jpg","null","",NA,NA,NA,NA,""
"image-keyboard-response",262,229486,"0.0-3.83-2.83","fj66zq6xoaccc3k",1,"52.csv","","null","resources/images/fishbone.png","null","",NA,NA,NA,NA,""
"image-keyboard-response",263,229742,"0.0-3.84-0.84","fj66zq6xoaccc3k",1,"52.csv","","255.20000000298023","resources/trios/L1T4A3.jpg","38","restless",0.6,0.5,0.5,0.157099463736455,"true"
"image-keyboard-response",264,230147,"0.0-3.84-1.84","fj66zq6xoaccc3k",1,"52.csv","","null","resources/maskTrios/BT4B.jpg","null","",NA,NA,NA,NA,""
"image-keyboard-response",265,231353,"0.0-3.84-2.84","fj66zq6xoaccc3k",1,"52.csv","","null","resources/images/coin2.png","null","",NA,NA,NA,NA,""
"image-keyboard-response",266,231684,"0.0-3.85-0.85","fj66zq6xoaccc3k",1,"52.csv","","329.69999999552965","resources/trios/L2T2A2.jpg","39","restless",0.6,0.5,0.6,0.246418558073094,"true"
"image-keyboard-response",267,232091,"0.0-3.85-1.85","fj66zq6xoaccc3k",1,"52.csv","","null","resources/maskTrios/BBA2.jpg","null","",NA,NA,NA,NA,""
"image-keyboard-response",268,233294,"0.0-3.85-2.85","fj66zq6xoaccc3k",1,"52.csv","","null","resources/images/coin2.png","null","",NA,NA,NA,NA,""
"image-keyboard-response",269,233597,"0.0-3.86-0.86","fj66zq6xoaccc3k",1,"52.csv","","300.6000000014901","resources/trios/L1T2A3.jpg","39","restless",0.6,0.4,0.6,0.248963122030697,"true"
"image-keyboard-response",270,233998,"0.0-3.86-1.86","fj66zq6xoaccc3k",1,"52.csv","","null","resources/maskTrios/BBA3.jpg","null","",NA,NA,NA,NA,""
"image-keyboard-response",271,235204,"0.0-3.86-2.86","fj66zq6xoaccc3k",1,"52.csv","","null","resources/images/coin2.png","null","",NA,NA,NA,NA,""
"image-keyboard-response",272,235729,"0.0-3.87-0.87","fj66zq6xoaccc3k",1,"52.csv","","524","resources/trios/L1T4A3.jpg","39","restless",0.7,0.4,0.6,0.589192031158024,"true"
"image-keyboard-response",273,236133,"0.0-3.87-1.87","fj66zq6xoaccc3k",1,"52.csv","","null","resources/maskTrios/BBA3.jpg","null","",NA,NA,NA,NA,""
"image-keyboard-response",274,237339,"0.0-3.87-2.87","fj66zq6xoaccc3k",1,"52.csv","","null","resources/images/coin2.png","null","",NA,NA,NA,NA,""
"image-keyboard-response",275,237668,"0.0-3.88-0.88","fj66zq6xoaccc3k",1,"52.csv","","327.20000000298023","resources/trios/L2T4A3.jpg","37","restless",0.7,0.4,0.6,0.936341599860513,"false"
"image-keyboard-response",276,238072,"0.0-3.88-1.88","fj66zq6xoaccc3k",1,"52.csv","","null","resources/maskTrios/L2BB.jpg","null","",NA,NA,NA,NA,""
"image-keyboard-response",277,239280,"0.0-3.88-2.88","fj66zq6xoaccc3k",1,"52.csv","","null","resources/images/fishbone.png","null","",NA,NA,NA,NA,""
"image-keyboard-response",278,239522,"0.0-3.89-0.89","fj66zq6xoaccc3k",1,"52.csv","","240.39999999850988","resources/trios/L1T4A2.jpg","38","restless",0.7,0.4,0.6,0.879194902037272,"false"
"image-keyboard-response",279,239928,"0.0-3.89-1.89","fj66zq6xoaccc3k",1,"52.csv","","null","resources/maskTrios/BT4B.jpg","null","",NA,NA,NA,NA,""
"image-keyboard-response",280,241133,"0.0-3.89-2.89","fj66zq6xoaccc3k",1,"52.csv","","null","resources/images/fishbone.png","null","",NA,NA,NA,NA,""
"image-keyboard-response",281,241395,"0.0-3.90-0.90","fj66zq6xoaccc3k",1,"52.csv","","260","resources/trios/L1T4A3.jpg","39","restless",0.7,0.4,0.6,0.921016851901259,"false"
"image-keyboard-response",282,241799,"0.0-3.90-1.90","fj66zq6xoaccc3k",1,"52.csv","","null","resources/maskTrios/BBA3.jpg","null","",NA,NA,NA,NA,""
"image-keyboard-response",283,243000,"0.0-3.90-2.90","fj66zq6xoaccc3k",1,"52.csv","","null","resources/images/fishbone.png","null","",NA,NA,NA,NA,""
"image-keyboard-response",284,243186,"0.0-3.91-0.91","fj66zq6xoaccc3k",1,"52.csv","","183.5","resources/trios/L2T2A2.jpg","37","restless",0.7,0.4,0.6,0.766686272490966,"false"
"image-keyboard-response",285,243592,"0.0-3.91-1.91","fj66zq6xoaccc3k",1,"52.csv","","null","resources/maskTrios/L2BB.jpg","null","",NA,NA,NA,NA,""
"image-keyboard-response",286,244794,"0.0-3.91-2.91","fj66zq6xoaccc3k",1,"52.csv","","null","resources/images/fishbone.png","null","",NA,NA,NA,NA,""
"image-keyboard-response",287,245084,"0.0-3.92-0.92","fj66zq6xoaccc3k",1,"52.csv","","289.1000000014901","resources/trios/L1T2A3.jpg","38","restless",0.7,0.4,0.6,0.60017004671348,"false"
"image-keyboard-response",288,245489,"0.0-3.92-1.92","fj66zq6xoaccc3k",1,"52.csv","","null","resources/maskTrios/BT2B.jpg","null","",NA,NA,NA,NA,""
"image-keyboard-response",289,246693,"0.0-3.92-2.92","fj66zq6xoaccc3k",1,"52.csv","","null","resources/images/fishbone.png","null","",NA,NA,NA,NA,""
"image-keyboard-response",290,247057,"0.0-3.93-0.93","fj66zq6xoaccc3k",1,"52.csv","","362.20000000298023","resources/trios/L2T4A2.jpg","38","restless",0.7,0.4,0.6,0.748526794631416,"false"
"image-keyboard-response",291,247461,"0.0-3.93-1.93","fj66zq6xoaccc3k",1,"52.csv","","null","resources/maskTrios/BT4B.jpg","null","",NA,NA,NA,NA,""
"image-keyboard-response",292,248666,"0.0-3.93-2.93","fj66zq6xoaccc3k",1,"52.csv","","null","resources/images/fishbone.png","null","",NA,NA,NA,NA,""
"image-keyboard-response",293,249038,"0.0-3.94-0.94","fj66zq6xoaccc3k",1,"52.csv","","369.5","resources/trios/L1T2A2.jpg","37","restless",0.7,0.4,0.6,0.213546836134428,"true"
"image-keyboard-response",294,249443,"0.0-3.94-1.94","fj66zq6xoaccc3k",1,"52.csv","","null","resources/maskTrios/L1BB.jpg","null","",NA,NA,NA,NA,""
"image-keyboard-response",295,250648,"0.0-3.94-2.94","fj66zq6xoaccc3k",1,"52.csv","","null","resources/images/coin2.png","null","",NA,NA,NA,NA,""
"image-keyboard-response",296,250771,"0.0-3.95-0.95","fj66zq6xoaccc3k",1,"52.csv","","121.10000000149012","resources/trios/L2T2A2.jpg","37","restless",0.8,0.4,0.6,0.834075129359793,"false"
"image-keyboard-response",297,251177,"0.0-3.95-1.95","fj66zq6xoaccc3k",1,"52.csv","","null","resources/maskTrios/L2BB.jpg","null","",NA,NA,NA,NA,""
"image-keyboard-response",298,252383,"0.0-3.95-2.95","fj66zq6xoaccc3k",1,"52.csv","","null","resources/images/fishbone.png","null","",NA,NA,NA,NA,""
"image-keyboard-response",299,252774,"0.0-3.96-0.96","fj66zq6xoaccc3k",1,"52.csv","","388.70000000298023","resources/trios/L2T2A3.jpg","39","restless",0.8,0.4,0.6,0.66617285264762,"false"
"image-keyboard-response",300,253178,"0.0-3.96-1.96","fj66zq6xoaccc3k",1,"52.csv","","null","resources/maskTrios/BBA3.jpg","null","",NA,NA,NA,NA,""
"image-keyboard-response",301,254383,"0.0-3.96-2.96","fj66zq6xoaccc3k",1,"52.csv","","null","resources/images/fishbone.png","null","",NA,NA,NA,NA,""
"image-keyboard-response",302,254770,"0.0-3.97-0.97","fj66zq6xoaccc3k",1,"52.csv","","385.79999999701977","resources/trios/L1T4A2.jpg","38","restless",0.8,0.4,0.6,0.453542673047814,"false"
"image-keyboard-response",303,255175,"0.0-3.97-1.97","fj66zq6xoaccc3k",1,"52.csv","","null","resources/maskTrios/BT4B.jpg","null","",NA,NA,NA,NA,""
"image-keyboard-response",304,256380,"0.0-3.97-2.97","fj66zq6xoaccc3k",1,"52.csv","","null","resources/images/fishbone.png","null","",NA,NA,NA,NA,""
"image-keyboard-response",305,256673,"0.0-3.98-0.98","fj66zq6xoaccc3k",1,"52.csv","","291.79999999701977","resources/trios/L2T4A2.jpg","37","restless",0.8,0.4,0.6,0.644940161720114,"true"
"image-keyboard-response",306,257080,"0.0-3.98-1.98","fj66zq6xoaccc3k",1,"52.csv","","null","resources/maskTrios/L2BB.jpg","null","",NA,NA,NA,NA,""
"image-keyboard-response",307,258285,"0.0-3.98-2.98","fj66zq6xoaccc3k",1,"52.csv","","null","resources/images/coin2.png","null","",NA,NA,NA,NA,""
"image-keyboard-response",308,258375,"0.0-3.99-0.99","fj66zq6xoaccc3k",1,"52.csv","","88.39999999850988","resources/trios/L1T2A3.jpg","37","restless",0.8,0.4,0.6,0.644980670452909,"true"
"image-keyboard-response",309,258780,"0.0-3.99-1.99","fj66zq6xoaccc3k",1,"52.csv","","null","resources/maskTrios/L1BB.jpg","null","",NA,NA,NA,NA,""
"image-keyboard-response",310,259986,"0.0-3.99-2.99","fj66zq6xoaccc3k",1,"52.csv","","null","resources/images/coin2.png","null","",NA,NA,NA,NA,""
"image-keyboard-response",311,260377,"0.0-3.100-0.100","fj66zq6xoaccc3k",1,"52.csv","","388.19999999552965","resources/trios/L2T4A2.jpg","37","restless",0.8,0.3,0.6,0.335474372663247,"true"
"image-keyboard-response",312,260783,"0.0-3.100-1.100","fj66zq6xoaccc3k",1,"52.csv","","null","resources/maskTrios/L2BB.jpg","null","",NA,NA,NA,NA,""
"image-keyboard-response",313,261986,"0.0-3.100-2.100","fj66zq6xoaccc3k",1,"52.csv","","null","resources/images/coin2.png","null","",NA,NA,NA,NA,""
"image-keyboard-response",314,262392,"0.0-3.101-0.101","fj66zq6xoaccc3k",1,"52.csv","","403.29999999701977","resources/trios/L1T4A3.jpg","39","restless",0.8,0.3,0.6,0.786203840950612,"false"
"image-keyboard-response",315,262797,"0.0-3.101-1.101","fj66zq6xoaccc3k",1,"52.csv","","null","resources/maskTrios/BBA3.jpg","null","",NA,NA,NA,NA,""
"image-keyboard-response",316,264004,"0.0-3.101-2.101","fj66zq6xoaccc3k",1,"52.csv","","null","resources/images/fishbone.png","null","",NA,NA,NA,NA,""
"image-keyboard-response",317,264418,"0.0-3.102-0.102","fj66zq6xoaccc3k",1,"52.csv","","412.70000000298023","resources/trios/L2T4A2.jpg","39","restless",0.8,0.2,0.6,0.885169252314342,"false"
"image-keyboard-response",318,264823,"0.0-3.102-1.102","fj66zq6xoaccc3k",1,"52.csv","","null","resources/maskTrios/BBA2.jpg","null","",NA,NA,NA,NA,""
"image-keyboard-response",319,266031,"0.0-3.102-2.102","fj66zq6xoaccc3k",1,"52.csv","","null","resources/images/fishbone.png","null","",NA,NA,NA,NA,""
"image-keyboard-response",320,266331,"0.0-3.103-0.103","fj66zq6xoaccc3k",1,"52.csv","","299","resources/trios/L1T2A3.jpg","38","restless",0.8,0.2,0.6,0.285147749609979,"false"
"image-keyboard-response",321,266737,"0.0-3.103-1.103","fj66zq6xoaccc3k",1,"52.csv","","null","resources/maskTrios/BT2B.jpg","null","",NA,NA,NA,NA,""
"image-keyboard-response",322,267941,"0.0-3.103-2.103","fj66zq6xoaccc3k",1,"52.csv","","null","resources/images/fishbone.png","null","",NA,NA,NA,NA,""
"image-keyboard-response",323,268225,"0.0-3.104-0.104","fj66zq6xoaccc3k",1,"52.csv","","281.69999999552965","resources/trios/L1T2A3.jpg","37","restless",0.8,0.2,0.6,0.264054428645833,"true"
"image-keyboard-response",324,268630,"0.0-3.104-1.104","fj66zq6xoaccc3k",1,"52.csv","","null","resources/maskTrios/L1BB.jpg","null","",NA,NA,NA,NA,""
"image-keyboard-response",325,269836,"0.0-3.104-2.104","fj66zq6xoaccc3k",1,"52.csv","","null","resources/images/coin2.png","null","",NA,NA,NA,NA,""
"image-keyboard-response",326,270127,"0.0-3.105-0.105","fj66zq6xoaccc3k",1,"52.csv","","289.3999999985099","resources/trios/L2T4A2.jpg","37","restless",0.8,0.2,0.6,0.243113699242752,"true"
"image-keyboard-response",327,270532,"0.0-3.105-1.105","fj66zq6xoaccc3k",1,"52.csv","","null","resources/maskTrios/L2BB.jpg","null","",NA,NA,NA,NA,""
"image-keyboard-response",328,271735,"0.0-3.105-2.105","fj66zq6xoaccc3k",1,"52.csv","","null","resources/images/coin2.png","null","",NA,NA,NA,NA,""
"image-keyboard-response",329,271802,"0.0-3.106-0.106","fj66zq6xoaccc3k",1,"52.csv","","65.79999999701977","resources/trios/L2T4A3.jpg","37","restless",0.8,0.2,0.6,0.544636778787351,"true"
"image-keyboard-response",330,272204,"0.0-3.106-1.106","fj66zq6xoaccc3k",1,"52.csv","","null","resources/maskTrios/L2BB.jpg","null","",NA,NA,NA,NA,""
"image-keyboard-response",331,273410,"0.0-3.106-2.106","fj66zq6xoaccc3k",1,"52.csv","","null","resources/images/coin2.png","null","",NA,NA,NA,NA,""
"image-keyboard-response",332,273735,"0.0-3.107-0.107","fj66zq6xoaccc3k",1,"52.csv","","323.70000000298023","resources/trios/L2T4A3.jpg","37","restless",0.8,0.2,0.6,0.323562994190006,"true"
"image-keyboard-response",333,274140,"0.0-3.107-1.107","fj66zq6xoaccc3k",1,"52.csv","","null","resources/maskTrios/L2BB.jpg","null","",NA,NA,NA,NA,""
"image-keyboard-response",334,275345,"0.0-3.107-2.107","fj66zq6xoaccc3k",1,"52.csv","","null","resources/images/coin2.png","null","",NA,NA,NA,NA,""
"image-keyboard-response",335,275657,"0.0-3.108-0.108","fj66zq6xoaccc3k",1,"52.csv","","310.1000000014901","resources/trios/L2T4A3.jpg","37","restless",0.9,0.2,0.6,0.384679305014664,"true"
"image-keyboard-response",336,276063,"0.0-3.108-1.108","fj66zq6xoaccc3k",1,"52.csv","","null","resources/maskTrios/L2BB.jpg","null","",NA,NA,NA,NA,""
"image-keyboard-response",337,277266,"0.0-3.108-2.108","fj66zq6xoaccc3k",1,"52.csv","","null","resources/images/coin2.png","null","",NA,NA,NA,NA,""
"image-keyboard-response",338,277335,"0.0-3.109-0.109","fj66zq6xoaccc3k",1,"52.csv","","66.90000000596046","resources/trios/L2T2A2.jpg","37","restless",0.9,0.3,0.6,0.117446513433272,"true"
"image-keyboard-response",339,277740,"0.0-3.109-1.109","fj66zq6xoaccc3k",1,"52.csv","","null","resources/maskTrios/L2BB.jpg","null","",NA,NA,NA,NA,""
"image-keyboard-response",340,278944,"0.0-3.109-2.109","fj66zq6xoaccc3k",1,"52.csv","","null","resources/images/coin2.png","null","",NA,NA,NA,NA,""
"image-keyboard-response",341,279272,"0.0-3.110-0.110","fj66zq6xoaccc3k",1,"52.csv","","325.69999999552965","resources/trios/L2T4A2.jpg","37","restless",0.9,0.3,0.6,0.575360356951673,"true"
"image-keyboard-response",342,279675,"0.0-3.110-1.110","fj66zq6xoaccc3k",1,"52.csv","","null","resources/maskTrios/L2BB.jpg","null","",NA,NA,NA,NA,""
"image-keyboard-response",343,280881,"0.0-3.110-2.110","fj66zq6xoaccc3k",1,"52.csv","","null","resources/images/coin2.png","null","",NA,NA,NA,NA,""
"image-keyboard-response",344,281158,"0.0-3.111-0.111","fj66zq6xoaccc3k",1,"52.csv","","275","resources/trios/L2T2A3.jpg","37","restless",0.9,0.4,0.6,0.0964744153149864,"true"
"image-keyboard-response",345,281563,"0.0-3.111-1.111","fj66zq6xoaccc3k",1,"52.csv","","null","resources/maskTrios/L2BB.jpg","null","",NA,NA,NA,NA,""
"image-keyboard-response",346,282767,"0.0-3.111-2.111","fj66zq6xoaccc3k",1,"52.csv","","null","resources/images/coin2.png","null","",NA,NA,NA,NA,""
"image-keyboard-response",347,283062,"0.0-3.112-0.112","fj66zq6xoaccc3k",1,"52.csv","","293.5","resources/trios/L2T4A2.jpg","37","restless",0.9,0.5,0.7,0.113710514433583,"true"
"image-keyboard-response",348,283468,"0.0-3.112-1.112","fj66zq6xoaccc3k",1,"52.csv","","null","resources/maskTrios/L2BB.jpg","null","",NA,NA,NA,NA,""
"image-keyboard-response",349,284674,"0.0-3.112-2.112","fj66zq6xoaccc3k",1,"52.csv","","null","resources/images/coin2.png","null","",NA,NA,NA,NA,""
"image-keyboard-response",350,284975,"0.0-3.113-0.113","fj66zq6xoaccc3k",1,"52.csv","","298.80000000447035","resources/trios/L1T2A3.jpg","37","restless",0.9,0.5,0.8,0.51973767443068,"true"
"image-keyboard-response",351,285379,"0.0-3.113-1.113","fj66zq6xoaccc3k",1,"52.csv","","null","resources/maskTrios/L1BB.jpg","null","",NA,NA,NA,NA,""
"image-keyboard-response",352,286582,"0.0-3.113-2.113","fj66zq6xoaccc3k",1,"52.csv","","null","resources/images/coin2.png","null","",NA,NA,NA,NA,""
"image-keyboard-response",353,286717,"0.0-3.114-0.114","fj66zq6xoaccc3k",1,"52.csv","","132.89999999850988","resources/trios/L2T4A2.jpg","37","restless",0.9,0.5,0.7,0.855031695712578,"true"
"image-keyboard-response",354,287126,"0.0-3.114-1.114","fj66zq6xoaccc3k",1,"52.csv","","null","resources/maskTrios/L2BB.jpg","null","",NA,NA,NA,NA,""
"image-keyboard-response",355,288332,"0.0-3.114-2.114","fj66zq6xoaccc3k",1,"52.csv","","null","resources/images/coin2.png","null","",NA,NA,NA,NA,""
"image-keyboard-response",356,288651,"0.0-3.115-0.115","fj66zq6xoaccc3k",1,"52.csv","","317.29999999701977","resources/trios/L1T2A3.jpg","37","restless",0.9,0.5,0.7,0.957133309636492,"false"
"image-keyboard-response",357,289057,"0.0-3.115-1.115","fj66zq6xoaccc3k",1,"52.csv","","null","resources/maskTrios/L1BB.jpg","null","",NA,NA,NA,NA,""
"image-keyboard-response",358,290261,"0.0-3.115-2.115","fj66zq6xoaccc3k",1,"52.csv","","null","resources/images/fishbone.png","null","",NA,NA,NA,NA,""
"image-keyboard-response",359,290263,"0.0-3.116-0.116","fj66zq6xoaccc3k",1,"52.csv","","1","resources/trios/L2T4A2.jpg","37","restless",0.9,0.5,0.8,0.605821432170784,"true"
"image-keyboard-response",360,290667,"0.0-3.116-1.116","fj66zq6xoaccc3k",1,"52.csv","","null","resources/maskTrios/L2BB.jpg","null","",NA,NA,NA,NA,""
"image-keyboard-response",361,291873,"0.0-3.116-2.116","fj66zq6xoaccc3k",1,"52.csv","","null","resources/images/coin2.png","null","",NA,NA,NA,NA,""
"image-keyboard-response",362,292497,"0.0-3.117-0.117","fj66zq6xoaccc3k",1,"52.csv","","621.7000000029802","resources/trios/L2T2A3.jpg","37","restless",0.9,0.5,0.9,0.616579838165812,"true"
"image-keyboard-response",363,292902,"0.0-3.117-1.117","fj66zq6xoaccc3k",1,"52.csv","","null","resources/maskTrios/L2BB.jpg","null","",NA,NA,NA,NA,""
"image-keyboard-response",364,294107,"0.0-3.117-2.117","fj66zq6xoaccc3k",1,"52.csv","","null","resources/images/coin2.png","null","",NA,NA,NA,NA,""
"image-keyboard-response",365,294859,"0.0-3.118-0.118","fj66zq6xoaccc3k",1,"52.csv","","749.9000000059605","resources/trios/L2T4A2.jpg","37","restless",0.9,0.5,0.9,0.737163877190291,"true"
"image-keyboard-response",366,295264,"0.0-3.118-1.118","fj66zq6xoaccc3k",1,"52.csv","","null","resources/maskTrios/L2BB.jpg","null","",NA,NA,NA,NA,""
"image-keyboard-response",367,296470,"0.0-3.118-2.118","fj66zq6xoaccc3k",1,"52.csv","","null","resources/images/coin2.png","null","",NA,NA,NA,NA,""
"image-keyboard-response",368,297187,"0.0-3.119-0.119","fj66zq6xoaccc3k",1,"52.csv","","715.2999999970198","resources/trios/L2T4A2.jpg","37","restless",0.9,0.5,0.9,0.506938671686856,"true"
"image-keyboard-response",369,297593,"0.0-3.119-1.119","fj66zq6xoaccc3k",1,"52.csv","","null","resources/maskTrios/L2BB.jpg","null","",NA,NA,NA,NA,""
"image-keyboard-response",370,298797,"0.0-3.119-2.119","fj66zq6xoaccc3k",1,"52.csv","","null","resources/images/coin2.png","null","",NA,NA,NA,NA,""
"image-keyboard-response",371,299138,"0.0-3.120-0.120","fj66zq6xoaccc3k",1,"52.csv","","338.69999999552965","resources/trios/L1T2A2.jpg","37","restless",0.9,0.5,0.9,0.361251220253471,"true"
"image-keyboard-response",372,299544,"0.0-3.120-1.120","fj66zq6xoaccc3k",1,"52.csv","","null","resources/maskTrios/L1BB.jpg","null","",NA,NA,NA,NA,""
"image-keyboard-response",373,300747,"0.0-3.120-2.120","fj66zq6xoaccc3k",1,"52.csv","","null","resources/images/coin2.png","null","",NA,NA,NA,NA,""
"image-keyboard-response",374,301437,"0.0-3.121-0.121","fj66zq6xoaccc3k",1,"52.csv","","689","resources/trios/L1T4A3.jpg","37","restless",0.9,0.5,0.9,0.984317050737565,"false"
"image-keyboard-response",375,301843,"0.0-3.121-1.121","fj66zq6xoaccc3k",1,"52.csv","","null","resources/maskTrios/L1BB.jpg","null","",NA,NA,NA,NA,""
"image-keyboard-response",376,303048,"0.0-3.121-2.121","fj66zq6xoaccc3k",1,"52.csv","","null","resources/images/fishbone.png","null","",NA,NA,NA,NA,""
"image-keyboard-response",377,303090,"0.0-3.122-0.122","fj66zq6xoaccc3k",1,"52.csv","","40.20000000298023","resources/trios/L1T2A3.jpg","37","restless",0.9,0.5,0.9,0.913358102772131,"false"
"image-keyboard-response",378,303496,"0.0-3.122-1.122","fj66zq6xoaccc3k",1,"52.csv","","null","resources/maskTrios/L1BB.jpg","null","",NA,NA,NA,NA,""
"image-keyboard-response",379,304703,"0.0-3.122-2.122","fj66zq6xoaccc3k",1,"52.csv","","null","resources/images/fishbone.png","null","",NA,NA,NA,NA,""
"image-keyboard-response",380,305019,"0.0-3.123-0.123","fj66zq6xoaccc3k",1,"52.csv","","313.59999999403954","resources/trios/L1T2A3.jpg","39","restless",0.9,0.5,0.9,0.849622863234342,"true"
"image-keyboard-response",381,305424,"0.0-3.123-1.123","fj66zq6xoaccc3k",1,"52.csv","","null","resources/maskTrios/BBA3.jpg","null","",NA,NA,NA,NA,""
"image-keyboard-response",382,306629,"0.0-3.123-2.123","fj66zq6xoaccc3k",1,"52.csv","","null","resources/images/coin2.png","null","",NA,NA,NA,NA,""
"image-keyboard-response",383,306963,"0.0-3.124-0.124","fj66zq6xoaccc3k",1,"52.csv","","332","resources/trios/L1T4A3.jpg","39","restless",0.9,0.5,0.9,0.342057319279696,"true"
"image-keyboard-response",384,307365,"0.0-3.124-1.124","fj66zq6xoaccc3k",1,"52.csv","","null","resources/maskTrios/BBA3.jpg","null","",NA,NA,NA,NA,""
"image-keyboard-response",385,308570,"0.0-3.124-2.124","fj66zq6xoaccc3k",1,"52.csv","","null","resources/images/coin2.png","null","",NA,NA,NA,NA,""
"image-keyboard-response",386,308936,"0.0-3.125-0.125","fj66zq6xoaccc3k",1,"52.csv","","363.80000000447035","resources/trios/L2T2A3.jpg","39","restless",0.9,0.5,0.9,0.974950933833043,"false"
"image-keyboard-response",387,309341,"0.0-3.125-1.125","fj66zq6xoaccc3k",1,"52.csv","","null","resources/maskTrios/BBA3.jpg","null","",NA,NA,NA,NA,""
"image-keyboard-response",388,310548,"0.0-3.125-2.125","fj66zq6xoaccc3k",1,"52.csv","","null","resources/images/fishbone.png","null","",NA,NA,NA,NA,""
"image-keyboard-response",389,310881,"0.0-3.126-0.126","fj66zq6xoaccc3k",1,"52.csv","","331.1000000014901","resources/trios/L2T2A2.jpg","38","restless",0.9,0.5,0.9,0.562854271037167,"false"
"image-keyboard-response",390,311285,"0.0-3.126-1.126","fj66zq6xoaccc3k",1,"52.csv","","null","resources/maskTrios/BT2B.jpg","null","",NA,NA,NA,NA,""
"image-keyboard-response",391,312490,"0.0-3.126-2.126","fj66zq6xoaccc3k",1,"52.csv","","null","resources/images/fishbone.png","null","",NA,NA,NA,NA,""
"image-keyboard-response",392,312771,"0.0-3.127-0.127","fj66zq6xoaccc3k",1,"52.csv","","278.70000000298023","resources/trios/L2T4A3.jpg","37","restless",0.9,0.5,0.9,0.0106923884439074,"true"
"image-keyboard-response",393,313172,"0.0-3.127-1.127","fj66zq6xoaccc3k",1,"52.csv","","null","resources/maskTrios/L2BB.jpg","null","",NA,NA,NA,NA,""
"image-keyboard-response",394,314379,"0.0-3.127-2.127","fj66zq6xoaccc3k",1,"52.csv","","null","resources/images/coin2.png","null","",NA,NA,NA,NA,""
"image-keyboard-response",395,315110,"0.0-3.128-0.128","fj66zq6xoaccc3k",1,"52.csv","","730","resources/trios/L1T2A2.jpg","37","restless",0.8,0.5,0.9,0.103152184656429,"true"
"image-keyboard-response",396,315514,"0.0-3.128-1.128","fj66zq6xoaccc3k",1,"52.csv","","null","resources/maskTrios/L1BB.jpg","null","",NA,NA,NA,NA,""
"image-keyboard-response",397,316718,"0.0-3.128-2.128","fj66zq6xoaccc3k",1,"52.csv","","null","resources/images/coin2.png","null","",NA,NA,NA,NA,""
"image-keyboard-response",398,317008,"0.0-3.129-0.129","fj66zq6xoaccc3k",1,"52.csv","","287.30000000447035","resources/trios/L1T2A2.jpg","37","restless",0.8,0.5,0.9,0.23825061749351,"true"
"image-keyboard-response",399,317410,"0.0-3.129-1.129","fj66zq6xoaccc3k",1,"52.csv","","null","resources/maskTrios/L1BB.jpg","null","",NA,NA,NA,NA,""
"image-keyboard-response",400,318615,"0.0-3.129-2.129","fj66zq6xoaccc3k",1,"52.csv","","null","resources/images/coin2.png","null","",NA,NA,NA,NA,""
"image-keyboard-response",401,319003,"0.0-3.130-0.130","fj66zq6xoaccc3k",1,"52.csv","","386.29999999701977","resources/trios/L1T4A2.jpg","37","restless",0.8,0.5,0.9,0.761458826517482,"true"
"image-keyboard-response",402,319407,"0.0-3.130-1.130","fj66zq6xoaccc3k",1,"52.csv","","null","resources/maskTrios/L1BB.jpg","null","",NA,NA,NA,NA,""
"image-keyboard-response",403,320613,"0.0-3.130-2.130","fj66zq6xoaccc3k",1,"52.csv","","null","resources/images/coin2.png","null","",NA,NA,NA,NA,""
"image-keyboard-response",404,320980,"0.0-3.131-0.131","fj66zq6xoaccc3k",1,"52.csv","","365.70000000298023","resources/trios/L1T4A3.jpg","37","restless",0.7,0.5,0.9,0.235986436499839,"true"
"image-keyboard-response",405,321386,"0.0-3.131-1.131","fj66zq6xoaccc3k",1,"52.csv","","null","resources/maskTrios/L1BB.jpg","null","",NA,NA,NA,NA,""
"image-keyboard-response",406,322592,"0.0-3.131-2.131","fj66zq6xoaccc3k",1,"52.csv","","null","resources/images/coin2.png","null","",NA,NA,NA,NA,""
"image-keyboard-response",407,322981,"0.0-3.132-0.132","fj66zq6xoaccc3k",1,"52.csv","","387.19999999552965","resources/trios/L2T4A3.jpg","37","restless",0.6,0.5,0.9,0.407383392476034,"true"
"image-keyboard-response",408,323387,"0.0-3.132-1.132","fj66zq6xoaccc3k",1,"52.csv","","null","resources/maskTrios/L2BB.jpg","null","",NA,NA,NA,NA,""
"image-keyboard-response",409,324594,"0.0-3.132-2.132","fj66zq6xoaccc3k",1,"52.csv","","null","resources/images/coin2.png","null","",NA,NA,NA,NA,""
"image-keyboard-response",410,325455,"0.0-3.133-0.133","fj66zq6xoaccc3k",1,"52.csv","","859.2000000029802","resources/trios/L2T2A2.jpg","37","restless",0.6,0.5,0.9,0.62131432328858,"false"
"image-keyboard-response",411,325861,"0.0-3.133-1.133","fj66zq6xoaccc3k",1,"52.csv","","null","resources/maskTrios/L2BB.jpg","null","",NA,NA,NA,NA,""
"image-keyboard-response",412,327065,"0.0-3.133-2.133","fj66zq6xoaccc3k",1,"52.csv","","null","resources/images/fishbone.png","null","",NA,NA,NA,NA,""
"image-keyboard-response",413,327420,"0.0-3.134-0.134","fj66zq6xoaccc3k",1,"52.csv","","352.70000000298023","resources/trios/L2T4A2.jpg","39","restless",0.6,0.5,0.9,0.474547625242729,"true"
"image-keyboard-response",414,327828,"0.0-3.134-1.134","fj66zq6xoaccc3k",1,"52.csv","","null","resources/maskTrios/BBA2.jpg","null","",NA,NA,NA,NA,""
"image-keyboard-response",415,329033,"0.0-3.134-2.134","fj66zq6xoaccc3k",1,"52.csv","","null","resources/images/coin2.png","null","",NA,NA,NA,NA,""
"image-keyboard-response",416,329376,"0.0-3.135-0.135","fj66zq6xoaccc3k",1,"52.csv","","340.19999999552965","resources/trios/L1T4A3.jpg","39","restless",0.6,0.5,0.9,0.104053881625689,"true"
"image-keyboard-response",417,329780,"0.0-3.135-1.135","fj66zq6xoaccc3k",1,"52.csv","","null","resources/maskTrios/BBA3.jpg","null","",NA,NA,NA,NA,""
"image-keyboard-response",418,330986,"0.0-3.135-2.135","fj66zq6xoaccc3k",1,"52.csv","","null","resources/images/coin2.png","null","",NA,NA,NA,NA,""
"image-keyboard-response",419,331330,"0.0-3.136-0.136","fj66zq6xoaccc3k",1,"52.csv","","342.40000000596046","resources/trios/L2T2A3.jpg","39","restless",0.5,0.5,0.8,0.30298242580112,"true"
"image-keyboard-response",420,331734,"0.0-3.136-1.136","fj66zq6xoaccc3k",1,"52.csv","","null","resources/maskTrios/BBA3.jpg","null","",NA,NA,NA,NA,""
"image-keyboard-response",421,332940,"0.0-3.136-2.136","fj66zq6xoaccc3k",1,"52.csv","","null","resources/images/coin2.png","null","",NA,NA,NA,NA,""
"image-keyboard-response",422,333385,"0.0-3.137-0.137","fj66zq6xoaccc3k",1,"52.csv","","443.3999999985099","resources/trios/L1T2A2.jpg","39","restless",0.5,0.5,0.8,0.618966206952185,"true"
"image-keyboard-response",423,333791,"0.0-3.137-1.137","fj66zq6xoaccc3k",1,"52.csv","","null","resources/maskTrios/BBA2.jpg","null","",NA,NA,NA,NA,""
"image-keyboard-response",424,334996,"0.0-3.137-2.137","fj66zq6xoaccc3k",1,"52.csv","","null","resources/images/coin2.png","null","",NA,NA,NA,NA,""
"image-keyboard-response",425,335529,"0.0-3.138-0.138","fj66zq6xoaccc3k",1,"52.csv","","531.0999999940395","resources/trios/L2T4A2.jpg","39","restless",0.5,0.5,0.8,0.647650105859027,"true"
"image-keyboard-response",426,335935,"0.0-3.138-1.138","fj66zq6xoaccc3k",1,"52.csv","","null","resources/maskTrios/BBA2.jpg","null","",NA,NA,NA,NA,""
"image-keyboard-response",427,337140,"0.0-3.138-2.138","fj66zq6xoaccc3k",1,"52.csv","","null","resources/images/coin2.png","null","",NA,NA,NA,NA,""
"image-keyboard-response",428,337503,"0.0-3.139-0.139","fj66zq6xoaccc3k",1,"52.csv","","361.3999999985099","resources/trios/L2T2A3.jpg","39","restless",0.5,0.5,0.8,0.139153136969787,"true"
"image-keyboard-response",429,337908,"0.0-3.139-1.139","fj66zq6xoaccc3k",1,"52.csv","","null","resources/maskTrios/BBA3.jpg","null","",NA,NA,NA,NA,""
"image-keyboard-response",430,339116,"0.0-3.139-2.139","fj66zq6xoaccc3k",1,"52.csv","","null","resources/images/coin2.png","null","",NA,NA,NA,NA,""
"image-keyboard-response",431,339890,"0.0-3.140-0.140","fj66zq6xoaccc3k",1,"52.csv","","772.1999999955297","resources/trios/L1T2A3.jpg","39","restless",0.5,0.5,0.8,0.843285202706574,"false"
"image-keyboard-response",432,340295,"0.0-3.140-1.140","fj66zq6xoaccc3k",1,"52.csv","","null","resources/maskTrios/BBA3.jpg","null","",NA,NA,NA,NA,""
"image-keyboard-response",433,341498,"0.0-3.140-2.140","fj66zq6xoaccc3k",1,"52.csv","","null","resources/images/fishbone.png","null","",NA,NA,NA,NA,""
"image-keyboard-response",434,341720,"0.0-3.141-0.141","fj66zq6xoaccc3k",1,"52.csv","","220","resources/trios/L2T4A2.jpg","38","restless",0.5,0.5,0.8,0.293151195887127,"true"
"image-keyboard-response",435,342126,"0.0-3.141-1.141","fj66zq6xoaccc3k",1,"52.csv","","null","resources/maskTrios/BT4B.jpg","null","",NA,NA,NA,NA,""
"image-keyboard-response",436,343328,"0.0-3.141-2.141","fj66zq6xoaccc3k",1,"52.csv","","null","resources/images/coin2.png","null","",NA,NA,NA,NA,""
"image-keyboard-response",437,343637,"0.0-3.142-0.142","fj66zq6xoaccc3k",1,"52.csv","","306.30000000447035","resources/trios/L2T4A3.jpg","38","restless",0.5,0.5,0.8,0.00551481355900485,"true"
"image-keyboard-response",438,344044,"0.0-3.142-1.142","fj66zq6xoaccc3k",1,"52.csv","","null","resources/maskTrios/BT4B.jpg","null","",NA,NA,NA,NA,""
"image-keyboard-response",439,345246,"0.0-3.142-2.142","fj66zq6xoaccc3k",1,"52.csv","","null","resources/images/coin2.png","null","",NA,NA,NA,NA,""
"image-keyboard-response",440,345553,"0.0-3.143-0.143","fj66zq6xoaccc3k",1,"52.csv","","304.80000000447035","resources/trios/L2T2A3.jpg","38","restless",0.5,0.5,0.8,0.915521786915116,"false"
"image-keyboard-response",441,345956,"0.0-3.143-1.143","fj66zq6xoaccc3k",1,"52.csv","","null","resources/maskTrios/BT2B.jpg","null","",NA,NA,NA,NA,""
"image-keyboard-response",442,347159,"0.0-3.143-2.143","fj66zq6xoaccc3k",1,"52.csv","","null","resources/images/fishbone.png","null","",NA,NA,NA,NA,""
"image-keyboard-response",443,347570,"0.0-3.144-0.144","fj66zq6xoaccc3k",1,"52.csv","","410","resources/trios/L1T2A2.jpg","37","restless",0.5,0.6,0.8,0.0406414061003735,"true"
"image-keyboard-response",444,347974,"0.0-3.144-1.144","fj66zq6xoaccc3k",1,"52.csv","","null","resources/maskTrios/L1BB.jpg","null","",NA,NA,NA,NA,""
"image-keyboard-response",445,349175,"0.0-3.144-2.144","fj66zq6xoaccc3k",1,"52.csv","","null","resources/images/coin2.png","null","",NA,NA,NA,NA,""
"image-keyboard-response",446,349358,"0.0-3.145-0.145","fj66zq6xoaccc3k",1,"52.csv","","181.90000000596046","resources/trios/L2T2A3.jpg","37","restless",0.5,0.6,0.8,0.491538277521225,"true"
"image-keyboard-response",447,349763,"0.0-3.145-1.145","fj66zq6xoaccc3k",1,"52.csv","","null","resources/maskTrios/L2BB.jpg","null","",NA,NA,NA,NA,""
"image-keyboard-response",448,350966,"0.0-3.145-2.145","fj66zq6xoaccc3k",1,"52.csv","","null","resources/images/coin2.png","null","",NA,NA,NA,NA,""
"image-keyboard-response",449,351501,"0.0-3.146-0.146","fj66zq6xoaccc3k",1,"52.csv","","533","resources/trios/L2T4A3.jpg","37","restless",0.5,0.6,0.8,0.0641590057306096,"true"
"image-keyboard-response",450,351904,"0.0-3.146-1.146","fj66zq6xoaccc3k",1,"52.csv","","null","resources/maskTrios/L2BB.jpg","null","",NA,NA,NA,NA,""
"image-keyboard-response",451,353109,"0.0-3.146-2.146","fj66zq6xoaccc3k",1,"52.csv","","null","resources/images/coin2.png","null","",NA,NA,NA,NA,""
"image-keyboard-response",452,353241,"0.0-3.147-0.147","fj66zq6xoaccc3k",1,"52.csv","","129.5","resources/trios/L2T4A3.jpg","37","restless",0.5,0.6,0.8,0.675469207385412,"false"
"image-keyboard-response",453,353646,"0.0-3.147-1.147","fj66zq6xoaccc3k",1,"52.csv","","null","resources/maskTrios/L2BB.jpg","null","",NA,NA,NA,NA,""
"image-keyboard-response",454,354854,"0.0-3.147-2.147","fj66zq6xoaccc3k",1,"52.csv","","null","resources/images/fishbone.png","null","",NA,NA,NA,NA,""
"image-keyboard-response",455,355033,"0.0-3.148-0.148","fj66zq6xoaccc3k",1,"52.csv","","177.29999999701977","resources/trios/L1T2A2.jpg","39","restless",0.5,0.6,0.8,0.886487476272537,"false"
"image-keyboard-response",456,355437,"0.0-3.148-1.148","fj66zq6xoaccc3k",1,"52.csv","","null","resources/maskTrios/BBA2.jpg","null","",NA,NA,NA,NA,""
"image-keyboard-response",457,356640,"0.0-3.148-2.148","fj66zq6xoaccc3k",1,"52.csv","","null","resources/images/fishbone.png","null","",NA,NA,NA,NA,""
"image-keyboard-response",458,356921,"0.0-3.149-0.149","fj66zq6xoaccc3k",1,"52.csv","","280.20000000298023","resources/trios/L1T2A3.jpg","38","restless",0.5,0.6,0.7,0.777817622846688,"false"
"image-keyboard-response",459,357325,"0.0-3.149-1.149","fj66zq6xoaccc3k",1,"52.csv","","null","resources/maskTrios/BT2B.jpg","null","",NA,NA,NA,NA,""
"image-keyboard-response",460,358530,"0.0-3.149-2.149","fj66zq6xoaccc3k",1,"52.csv","","null","resources/images/fishbone.png","null","",NA,NA,NA,NA,""
"image-keyboard-response",461,358911,"0.0-3.150-0.150","fj66zq6xoaccc3k",1,"52.csv","","378.59999999403954","resources/trios/L2T4A2.jpg","37","restless",0.5,0.6,0.8,0.554684000556684,"false"
"image-keyboard-response",462,359318,"0.0-3.150-1.150","fj66zq6xoaccc3k",1,"52.csv","","null","resources/maskTrios/L2BB.jpg","null","",NA,NA,NA,NA,""
"image-keyboard-response",463,360521,"0.0-3.150-2.150","fj66zq6xoaccc3k",1,"52.csv","","null","resources/images/fishbone.png","null","",NA,NA,NA,NA,""
"image-keyboard-response",464,360943,"0.0-3.151-0.151","fj66zq6xoaccc3k",1,"52.csv","","420.6000000014901","resources/trios/L1T4A3.jpg","39","restless",0.4,0.6,0.8,0.481742345797804,"true"
"image-keyboard-response",465,361350,"0.0-3.151-1.151","fj66zq6xoaccc3k",1,"52.csv","","null","resources/maskTrios/BBA3.jpg","null","",NA,NA,NA,NA,""
"image-keyboard-response",466,362552,"0.0-3.151-2.151","fj66zq6xoaccc3k",1,"52.csv","","null","resources/images/coin2.png","null","",NA,NA,NA,NA,""
"image-keyboard-response",467,362991,"0.0-3.152-0.152","fj66zq6xoaccc3k",1,"52.csv","","437.5","resources/trios/L1T2A3.jpg","39","restless",0.4,0.6,0.8,0.562700268993168,"true"
"image-keyboard-response",468,363398,"0.0-3.152-1.152","fj66zq6xoaccc3k",1,"52.csv","","null","resources/maskTrios/BBA3.jpg","null","",NA,NA,NA,NA,""
"image-keyboard-response",469,364605,"0.0-3.152-2.152","fj66zq6xoaccc3k",1,"52.csv","","null","resources/images/coin2.png","null","",NA,NA,NA,NA,""
"image-keyboard-response",470,365165,"0.0-3.153-0.153","fj66zq6xoaccc3k",1,"52.csv","","557.3999999985099","resources/trios/L2T4A2.jpg","39","restless",0.4,0.5,0.8,0.0287690735867283,"true"
"image-keyboard-response",471,365570,"0.0-3.153-1.153","fj66zq6xoaccc3k",1,"52.csv","","null","resources/maskTrios/BBA2.jpg","null","",NA,NA,NA,NA,""
"image-keyboard-response",472,366773,"0.0-3.153-2.153","fj66zq6xoaccc3k",1,"52.csv","","null","resources/images/coin2.png","null","",NA,NA,NA,NA,""
"image-keyboard-response",473,367495,"0.0-3.154-0.154","fj66zq6xoaccc3k",1,"52.csv","","719.3000000044703","resources/trios/L1T4A3.jpg","37","restless",0.4,0.5,0.8,0.157717875948141,"true"
"image-keyboard-response",474,367899,"0.0-3.154-1.154","fj66zq6xoaccc3k",1,"52.csv","","null","resources/maskTrios/L1BB.jpg","null","",NA,NA,NA,NA,""
"image-keyboard-response",475,369106,"0.0-3.154-2.154","fj66zq6xoaccc3k",1,"52.csv","","null","resources/images/coin2.png","null","",NA,NA,NA,NA,""
"image-keyboard-response",476,369686,"0.0-3.155-0.155","fj66zq6xoaccc3k",1,"52.csv","","578.5","resources/trios/L2T2A3.jpg","37","restless",0.4,0.5,0.8,0.395842060058069,"true"
"image-keyboard-response",477,370093,"0.0-3.155-1.155","fj66zq6xoaccc3k",1,"52.csv","","null","resources/maskTrios/L2BB.jpg","null","",NA,NA,NA,NA,""
"image-keyboard-response",478,371298,"0.0-3.155-2.155","fj66zq6xoaccc3k",1,"52.csv","","null","resources/images/coin2.png","null","",NA,NA,NA,NA,""
"image-keyboard-response",479,371699,"0.0-3.156-0.156","fj66zq6xoaccc3k",1,"52.csv","","399.1000000014901","resources/trios/L1T4A3.jpg","37","restless",0.4,0.5,0.8,0.525842746323969,"false"
"image-keyboard-response",480,372103,"0.0-3.156-1.156","fj66zq6xoaccc3k",1,"52.csv","","null","resources/maskTrios/L1BB.jpg","null","",NA,NA,NA,NA,""
"image-keyboard-response",481,373310,"0.0-3.156-2.156","fj66zq6xoaccc3k",1,"52.csv","","null","resources/images/fishbone.png","null","",NA,NA,NA,NA,""
"image-keyboard-response",482,373466,"0.0-3.157-0.157","fj66zq6xoaccc3k",1,"52.csv","","154.20000000298023","resources/trios/L2T2A3.jpg","37","restless",0.4,0.5,0.8,0.433114696336689,"false"
"image-keyboard-response",483,373871,"0.0-3.157-1.157","fj66zq6xoaccc3k",1,"52.csv","","null","resources/maskTrios/L2BB.jpg","null","",NA,NA,NA,NA,""
"image-keyboard-response",484,375078,"0.0-3.157-2.157","fj66zq6xoaccc3k",1,"52.csv","","null","resources/images/fishbone.png","null","",NA,NA,NA,NA,""
"image-keyboard-response",485,375373,"0.0-3.158-0.158","fj66zq6xoaccc3k",1,"52.csv","","293","resources/trios/L1T4A2.jpg","39","restless",0.4,0.5,0.8,0.928268418118127,"false"
"image-keyboard-response",486,375780,"0.0-3.158-1.158","fj66zq6xoaccc3k",1,"52.csv","","null","resources/maskTrios/BBA2.jpg","null","",NA,NA,NA,NA,""
"image-keyboard-response",487,376986,"0.0-3.158-2.158","fj66zq6xoaccc3k",1,"52.csv","","null","resources/images/fishbone.png","null","",NA,NA,NA,NA,""
"image-keyboard-response",488,377309,"0.0-3.159-0.159","fj66zq6xoaccc3k",1,"52.csv","","321.29999999701977","resources/trios/L1T2A3.jpg","38","restless",0.3,0.5,0.8,0.99203014990663,"false"
"image-keyboard-response",489,377714,"0.0-3.159-1.159","fj66zq6xoaccc3k",1,"52.csv","","null","resources/maskTrios/BT2B.jpg","null","",NA,NA,NA,NA,""
"image-keyboard-response",490,378916,"0.0-3.159-2.159","fj66zq6xoaccc3k",1,"52.csv","","null","resources/images/fishbone.png","null","",NA,NA,NA,NA,""
"image-keyboard-response",491,379331,"0.0-3.160-0.160","fj66zq6xoaccc3k",1,"52.csv","","413.29999999701977","resources/trios/L2T4A3.jpg","37","restless",0.3,0.5,0.8,0.9627895058154,"false"
"image-keyboard-response",492,379735,"0.0-3.160-1.160","fj66zq6xoaccc3k",1,"52.csv","","null","resources/maskTrios/L2BB.jpg","null","",NA,NA,NA,NA,""
"image-keyboard-response",493,380942,"0.0-3.160-2.160","fj66zq6xoaccc3k",1,"52.csv","","null","resources/images/fishbone.png","null","",NA,NA,NA,NA,""
"image-keyboard-response",494,381187,"0.0-3.161-0.161","fj66zq6xoaccc3k",1,"52.csv","","243.5","resources/trios/L2T4A3.jpg","39","restless",0.3,0.5,0.8,0.282926972417484,"true"
"image-keyboard-response",495,381594,"0.0-3.161-1.161","fj66zq6xoaccc3k",1,"52.csv","","null","resources/maskTrios/BBA3.jpg","null","",NA,NA,NA,NA,""
"image-keyboard-response",496,382796,"0.0-3.161-2.161","fj66zq6xoaccc3k",1,"52.csv","","null","resources/images/coin2.png","null","",NA,NA,NA,NA,""
"image-keyboard-response",497,383282,"0.0-3.162-0.162","fj66zq6xoaccc3k",1,"52.csv","","484.5","resources/trios/L1T4A2.jpg","39","restless",0.3,0.5,0.8,0.871940013706293,"false"
"image-keyboard-response",498,383687,"0.0-3.162-1.162","fj66zq6xoaccc3k",1,"52.csv","","null","resources/maskTrios/BBA2.jpg","null","",NA,NA,NA,NA,""
"image-keyboard-response",499,384893,"0.0-3.162-2.162","fj66zq6xoaccc3k",1,"52.csv","","null","resources/images/fishbone.png","null","",NA,NA,NA,NA,""
"image-keyboard-response",500,385263,"0.0-3.163-0.163","fj66zq6xoaccc3k",1,"52.csv","","368.90000000596046","resources/trios/L1T4A3.jpg","38","restless",0.3,0.5,0.8,0.994595453880175,"false"
"image-keyboard-response",501,385668,"0.0-3.163-1.163","fj66zq6xoaccc3k",1,"52.csv","","null","resources/maskTrios/BT4B.jpg","null","",NA,NA,NA,NA,""
"image-keyboard-response",502,386870,"0.0-3.163-2.163","fj66zq6xoaccc3k",1,"52.csv","","null","resources/images/fishbone.png","null","",NA,NA,NA,NA,""
"image-keyboard-response",503,387240,"0.0-3.164-0.164","fj66zq6xoaccc3k",1,"52.csv","","368.79999999701977","resources/trios/L2T2A3.jpg","38","restless",0.3,0.5,0.8,0.258902331953194,"true"
"image-keyboard-response",504,387644,"0.0-3.164-1.164","fj66zq6xoaccc3k",1,"52.csv","","null","resources/maskTrios/BT2B.jpg","null","",NA,NA,NA,NA,""
"image-keyboard-response",505,388850,"0.0-3.164-2.164","fj66zq6xoaccc3k",1,"52.csv","","null","resources/images/coin2.png","null","",NA,NA,NA,NA,""
"image-keyboard-response",506,389649,"0.0-3.165-0.165","fj66zq6xoaccc3k",1,"52.csv","","797.2999999970198","resources/trios/L2T4A3.jpg","38","restless",0.3,0.5,0.8,0.90786795787501,"false"
"image-keyboard-response",507,390055,"0.0-3.165-1.165","fj66zq6xoaccc3k",1,"52.csv","","null","resources/maskTrios/BT4B.jpg","null","",NA,NA,NA,NA,""
"image-keyboard-response",508,391261,"0.0-3.165-2.165","fj66zq6xoaccc3k",1,"52.csv","","null","resources/images/fishbone.png","null","",NA,NA,NA,NA,""
"image-keyboard-response",509,391531,"0.0-3.166-0.166","fj66zq6xoaccc3k",1,"52.csv","","268.6000000014901","resources/trios/L2T4A2.jpg","37","restless",0.3,0.5,0.8,0.724681580080011,"false"
"image-keyboard-response",510,391937,"0.0-3.166-1.166","fj66zq6xoaccc3k",1,"52.csv","","null","resources/maskTrios/L2BB.jpg","null","",NA,NA,NA,NA,""
"image-keyboard-response",511,393144,"0.0-3.166-2.166","fj66zq6xoaccc3k",1,"52.csv","","null","resources/images/fishbone.png","null","",NA,NA,NA,NA,""
"image-keyboard-response",512,393544,"0.0-3.167-0.167","fj66zq6xoaccc3k",1,"52.csv","","398.30000000447035","resources/trios/L2T4A2.jpg","37","restless",0.3,0.5,0.8,0.183932358377537,"true"
"image-keyboard-response",513,393948,"0.0-3.167-1.167","fj66zq6xoaccc3k",1,"52.csv","","null","resources/maskTrios/L2BB.jpg","null","",NA,NA,NA,NA,""
"image-keyboard-response",514,395154,"0.0-3.167-2.167","fj66zq6xoaccc3k",1,"52.csv","","null","resources/images/coin2.png","null","",NA,NA,NA,NA,""
"image-keyboard-response",515,395833,"0.0-3.168-0.168","fj66zq6xoaccc3k",1,"52.csv","","677.2999999970198","resources/trios/L2T4A3.jpg","37","restless",0.3,0.5,0.8,0.138457033732899,"true"
"image-keyboard-response",516,396238,"0.0-3.168-1.168","fj66zq6xoaccc3k",1,"52.csv","","null","resources/maskTrios/L2BB.jpg","null","",NA,NA,NA,NA,""
"image-keyboard-response",517,397444,"0.0-3.168-2.168","fj66zq6xoaccc3k",1,"52.csv","","null","resources/images/coin2.png","null","",NA,NA,NA,NA,""
"image-keyboard-response",518,398198,"0.0-3.169-0.169","fj66zq6xoaccc3k",1,"52.csv","","752.5","resources/trios/L2T4A3.jpg","37","restless",0.3,0.5,0.7,0.108004206117446,"true"
"image-keyboard-response",519,398605,"0.0-3.169-1.169","fj66zq6xoaccc3k",1,"52.csv","","null","resources/maskTrios/L2BB.jpg","null","",NA,NA,NA,NA,""
"image-keyboard-response",520,399812,"0.0-3.169-2.169","fj66zq6xoaccc3k",1,"52.csv","","null","resources/images/coin2.png","null","",NA,NA,NA,NA,""
"image-keyboard-response",521,400330,"0.0-3.170-0.170","fj66zq6xoaccc3k",1,"52.csv","","514.8999999985099","resources/trios/L1T4A2.jpg","37","restless",0.3,0.5,0.7,0.520783301817201,"false"
"image-keyboard-response",522,400732,"0.0-3.170-1.170","fj66zq6xoaccc3k",1,"52.csv","","null","resources/maskTrios/L1BB.jpg","null","",NA,NA,NA,NA,""
"image-keyboard-response",523,401937,"0.0-3.170-2.170","fj66zq6xoaccc3k",1,"52.csv","","null","resources/images/fishbone.png","null","",NA,NA,NA,NA,""
"image-keyboard-response",524,402290,"0.0-3.171-0.171","fj66zq6xoaccc3k",1,"52.csv","","350.6000000014901","resources/trios/L1T2A2.jpg","39","restless",0.3,0.5,0.7,0.940251985442794,"false"
"image-keyboard-response",525,402695,"0.0-3.171-1.171","fj66zq6xoaccc3k",1,"52.csv","","null","resources/maskTrios/BBA2.jpg","null","",NA,NA,NA,NA,""
"image-keyboard-response",526,403900,"0.0-3.171-2.171","fj66zq6xoaccc3k",1,"52.csv","","null","resources/images/fishbone.png","null","",NA,NA,NA,NA,""
"image-keyboard-response",527,404360,"0.0-3.172-0.172","fj66zq6xoaccc3k",1,"52.csv","","458.3999999985099","resources/trios/L1T4A2.jpg","39","restless",0.3,0.5,0.7,0.244325355853398,"true"
"image-keyboard-response",528,404766,"0.0-3.172-1.172","fj66zq6xoaccc3k",1,"52.csv","","null","resources/maskTrios/BBA2.jpg","null","",NA,NA,NA,NA,""
"image-keyboard-response",529,405971,"0.0-3.172-2.172","fj66zq6xoaccc3k",1,"52.csv","","null","resources/images/coin2.png","null","",NA,NA,NA,NA,""
"image-keyboard-response",530,406504,"0.0-3.173-0.173","fj66zq6xoaccc3k",1,"52.csv","","531.2999999970198","resources/trios/L2T4A2.jpg","39","restless",0.3,0.5,0.7,0.697403012036245,"true"
"image-keyboard-response",531,406910,"0.0-3.173-1.173","fj66zq6xoaccc3k",1,"52.csv","","null","resources/maskTrios/BBA2.jpg","null","",NA,NA,NA,NA,""
"image-keyboard-response",532,408113,"0.0-3.173-2.173","fj66zq6xoaccc3k",1,"52.csv","","null","resources/images/coin2.png","null","",NA,NA,NA,NA,""
"image-keyboard-response",533,408473,"0.0-3.174-0.174","fj66zq6xoaccc3k",1,"52.csv","","357.79999999701977","resources/trios/L2T2A3.jpg","39","restless",0.3,0.5,0.7,0.614246812685149,"true"
"image-keyboard-response",534,408878,"0.0-3.174-1.174","fj66zq6xoaccc3k",1,"52.csv","","null","resources/maskTrios/BBA3.jpg","null","",NA,NA,NA,NA,""
"image-keyboard-response",535,410083,"0.0-3.174-2.174","fj66zq6xoaccc3k",1,"52.csv","","null","resources/images/coin2.png","null","",NA,NA,NA,NA,""
"image-keyboard-response",536,410538,"0.0-3.175-0.175","fj66zq6xoaccc3k",1,"52.csv","","453.40000000596046","resources/trios/L1T4A3.jpg","39","restless",0.3,0.5,0.7,0.980299740748105,"false"
"image-keyboard-response",537,410942,"0.0-3.175-1.175","fj66zq6xoaccc3k",1,"52.csv","","null","resources/maskTrios/BBA3.jpg","null","",NA,NA,NA,NA,""
"image-keyboard-response",538,412145,"0.0-3.175-2.175","fj66zq6xoaccc3k",1,"52.csv","","null","resources/images/fishbone.png","null","",NA,NA,NA,NA,""
"image-keyboard-response",539,412461,"0.0-3.176-0.176","fj66zq6xoaccc3k",1,"52.csv","","314.5","resources/trios/L2T2A3.jpg","37","restless",0.4,0.5,0.7,0.648138497244925,"false"
"image-keyboard-response",540,412868,"0.0-3.176-1.176","fj66zq6xoaccc3k",1,"52.csv","","null","resources/maskTrios/L2BB.jpg","null","",NA,NA,NA,NA,""
"image-keyboard-response",541,414075,"0.0-3.176-2.176","fj66zq6xoaccc3k",1,"52.csv","","null","resources/images/fishbone.png","null","",NA,NA,NA,NA,""
"image-keyboard-response",542,414482,"0.0-3.177-0.177","fj66zq6xoaccc3k",1,"52.csv","","405.79999999701977","resources/trios/L2T4A3.jpg","37","restless",0.5,0.5,0.6,0.463576208768634,"true"
"image-keyboard-response",543,414889,"0.0-3.177-1.177","fj66zq6xoaccc3k",1,"52.csv","","null","resources/maskTrios/L2BB.jpg","null","",NA,NA,NA,NA,""
"image-keyboard-response",544,416091,"0.0-3.177-2.177","fj66zq6xoaccc3k",1,"52.csv","","null","resources/images/coin2.png","null","",NA,NA,NA,NA,""
"image-keyboard-response",545,416367,"0.0-3.178-0.178","fj66zq6xoaccc3k",1,"52.csv","","273.69999999552965","resources/trios/L1T2A3.jpg","37","restless",0.5,0.5,0.6,0.571265091866395,"false"
"image-keyboard-response",546,416771,"0.0-3.178-1.178","fj66zq6xoaccc3k",1,"52.csv","","null","resources/maskTrios/L1BB.jpg","null","",NA,NA,NA,NA,""
"image-keyboard-response",547,417977,"0.0-3.178-2.178","fj66zq6xoaccc3k",1,"52.csv","","null","resources/images/fishbone.png","null","",NA,NA,NA,NA,""
"image-keyboard-response",548,418398,"0.0-3.179-0.179","fj66zq6xoaccc3k",1,"52.csv","","419.20000000298023","resources/trios/L1T2A3.jpg","38","restless",0.5,0.5,0.6,0.921506462095085,"false"
"image-keyboard-response",549,418805,"0.0-3.179-1.179","fj66zq6xoaccc3k",1,"52.csv","","null","resources/maskTrios/BT2B.jpg","null","",NA,NA,NA,NA,""
"image-keyboard-response",550,420011,"0.0-3.179-2.179","fj66zq6xoaccc3k",1,"52.csv","","null","resources/images/fishbone.png","null","",NA,NA,NA,NA,""
"image-keyboard-response",551,420120,"0.0-3.180-0.180","fj66zq6xoaccc3k",1,"52.csv","","107.10000000149012","resources/trios/L1T4A3.jpg","38","restless",0.6,0.5,0.6,0.0631656725099448,"true"
"image-keyboard-response",552,420526,"0.0-3.180-1.180","fj66zq6xoaccc3k",1,"52.csv","","null","resources/maskTrios/BT4B.jpg","null","",NA,NA,NA,NA,""
"image-keyboard-response",553,421732,"0.0-3.180-2.180","fj66zq6xoaccc3k",1,"52.csv","","null","resources/images/coin2.png","null","",NA,NA,NA,NA,""
"image-keyboard-response",554,422278,"0.0-3.181-0.181","fj66zq6xoaccc3k",1,"52.csv","","544.1999999955297","resources/trios/L1T2A2.jpg","38","restless",0.6,0.5,0.6,0.506911591884376,"false"
"image-keyboard-response",555,422682,"0.0-3.181-1.181","fj66zq6xoaccc3k",1,"52.csv","","null","resources/maskTrios/BT2B.jpg","null","",NA,NA,NA,NA,""
"image-keyboard-response",556,423886,"0.0-3.181-2.181","fj66zq6xoaccc3k",1,"52.csv","","null","resources/images/fishbone.png","null","",NA,NA,NA,NA,""
"image-keyboard-response",557,424273,"0.0-3.182-0.182","fj66zq6xoaccc3k",1,"52.csv","","385.40000000596046","resources/trios/L2T4A3.jpg","37","restless",0.6,0.5,0.6,0.76778275628186,"false"
"image-keyboard-response",558,424678,"0.0-3.182-1.182","fj66zq6xoaccc3k",1,"52.csv","","null","resources/maskTrios/L2BB.jpg","null","",NA,NA,NA,NA,""
"image-keyboard-response",559,425880,"0.0-3.182-2.182","fj66zq6xoaccc3k",1,"52.csv","","null","resources/images/fishbone.png","null","",NA,NA,NA,NA,""
"image-keyboard-response",560,426153,"0.0-3.183-0.183","fj66zq6xoaccc3k",1,"52.csv","","270.6000000014901","resources/trios/L2T2A2.jpg","37","restless",0.6,0.5,0.6,0.835428445421834,"false"
"image-keyboard-response",561,426557,"0.0-3.183-1.183","fj66zq6xoaccc3k",1,"52.csv","","null","resources/maskTrios/L2BB.jpg","null","",NA,NA,NA,NA,""
"image-keyboard-response",562,427760,"0.0-3.183-2.183","fj66zq6xoaccc3k",1,"52.csv","","null","resources/images/fishbone.png","null","",NA,NA,NA,NA,""
"image-keyboard-response",563,428287,"0.0-3.184-0.184","fj66zq6xoaccc3k",1,"52.csv","","524.5","resources/trios/L1T2A3.jpg","39","restless",0.6,0.4,0.6,0.860056886432065,"false"
"image-keyboard-response",564,428693,"0.0-3.184-1.184","fj66zq6xoaccc3k",1,"52.csv","","null","resources/maskTrios/BBA3.jpg","null","",NA,NA,NA,NA,""
"image-keyboard-response",565,429896,"0.0-3.184-2.184","fj66zq6xoaccc3k",1,"52.csv","","null","resources/images/fishbone.png","null","",NA,NA,NA,NA,""
"image-keyboard-response",566,430297,"0.0-3.185-0.185","fj66zq6xoaccc3k",1,"52.csv","","399.6000000014901","resources/trios/L1T4A2.jpg","39","restless",0.6,0.4,0.5,0.039745047869326,"true"
"image-keyboard-response",567,430704,"0.0-3.185-1.185","fj66zq6xoaccc3k",1,"52.csv","","null","resources/maskTrios/BBA2.jpg","null","",NA,NA,NA,NA,""
"image-keyboard-response",568,431909,"0.0-3.185-2.185","fj66zq6xoaccc3k",1,"52.csv","","null","resources/images/coin2.png","null","",NA,NA,NA,NA,""
"image-keyboard-response",569,432275,"0.0-3.186-0.186","fj66zq6xoaccc3k",1,"52.csv","","364","resources/trios/L2T2A2.jpg","39","restless",0.6,0.4,0.5,0.543629544085982,"false"
"image-keyboard-response",570,432680,"0.0-3.186-1.186","fj66zq6xoaccc3k",1,"52.csv","","null","resources/maskTrios/BBA2.jpg","null","",NA,NA,NA,NA,""
"image-keyboard-response",571,433883,"0.0-3.186-2.186","fj66zq6xoaccc3k",1,"52.csv","","null","resources/images/fishbone.png","null","",NA,NA,NA,NA,""
"image-keyboard-response",572,434229,"0.0-3.187-0.187","fj66zq6xoaccc3k",1,"52.csv","","344.20000000298023","resources/trios/L2T4A3.jpg","37","restless",0.6,0.4,0.5,0.327000141847055,"true"
"image-keyboard-response",573,434634,"0.0-3.187-1.187","fj66zq6xoaccc3k",1,"52.csv","","null","resources/maskTrios/L2BB.jpg","null","",NA,NA,NA,NA,""
"image-keyboard-response",574,435839,"0.0-3.187-2.187","fj66zq6xoaccc3k",1,"52.csv","","null","resources/images/coin2.png","null","",NA,NA,NA,NA,""
"image-keyboard-response",575,436111,"0.0-3.188-0.188","fj66zq6xoaccc3k",1,"52.csv","","269.19999999552965","resources/trios/L1T2A2.jpg","37","restless",0.6,0.4,0.5,0.962318721852987,"false"
"image-keyboard-response",576,436517,"0.0-3.188-1.188","fj66zq6xoaccc3k",1,"52.csv","","null","resources/maskTrios/L1BB.jpg","null","",NA,NA,NA,NA,""
"image-keyboard-response",577,437722,"0.0-3.188-2.188","fj66zq6xoaccc3k",1,"52.csv","","null","resources/images/fishbone.png","null","",NA,NA,NA,NA,""
"image-keyboard-response",578,438208,"0.0-3.189-0.189","fj66zq6xoaccc3k",1,"52.csv","","483.30000000447035","resources/trios/L1T4A2.jpg","38","restless",0.5,0.4,0.4,0.841542753748628,"false"
"image-keyboard-response",579,438613,"0.0-3.189-1.189","fj66zq6xoaccc3k",1,"52.csv","","null","resources/maskTrios/BT4B.jpg","null","",NA,NA,NA,NA,""
"image-keyboard-response",580,439816,"0.0-3.189-2.189","fj66zq6xoaccc3k",1,"52.csv","","null","resources/images/fishbone.png","null","",NA,NA,NA,NA,""
"image-keyboard-response",581,440233,"0.0-3.190-0.190","fj66zq6xoaccc3k",1,"52.csv","","415.29999999701977","resources/trios/L1T4A2.jpg","38","restless",0.5,0.4,0.4,0.940829435415707,"false"
"image-keyboard-response",582,440639,"0.0-3.190-1.190","fj66zq6xoaccc3k",1,"52.csv","","null","resources/maskTrios/BT4B.jpg","null","",NA,NA,NA,NA,""
"image-keyboard-response",583,441843,"0.0-3.190-2.190","fj66zq6xoaccc3k",1,"52.csv","","null","resources/images/fishbone.png","null","",NA,NA,NA,NA,""
"image-keyboard-response",584,442207,"0.0-3.191-0.191","fj66zq6xoaccc3k",1,"52.csv","","362.5","resources/trios/L1T4A2.jpg","39","restless",0.5,0.4,0.4,0.767918988400175,"false"
"image-keyboard-response",585,442611,"0.0-3.191-1.191","fj66zq6xoaccc3k",1,"52.csv","","null","resources/maskTrios/BBA2.jpg","null","",NA,NA,NA,NA,""
"image-keyboard-response",586,443818,"0.0-3.191-2.191","fj66zq6xoaccc3k",1,"52.csv","","null","resources/images/fishbone.png","null","",NA,NA,NA,NA,""
"image-keyboard-response",587,444104,"0.0-3.192-0.192","fj66zq6xoaccc3k",1,"52.csv","","284.80000000447035","resources/trios/L1T4A3.jpg","39","restless",0.5,0.4,0.4,0.948574473821745,"false"
"image-keyboard-response",588,444506,"0.0-3.192-1.192","fj66zq6xoaccc3k",1,"52.csv","","null","resources/maskTrios/BBA3.jpg","null","",NA,NA,NA,NA,""
"image-keyboard-response",589,445714,"0.0-3.192-2.192","fj66zq6xoaccc3k",1,"52.csv","","null","resources/images/fishbone.png","null","",NA,NA,NA,NA,""
"image-keyboard-response",590,446054,"0.0-3.193-0.193","fj66zq6xoaccc3k",1,"52.csv","","339","resources/trios/L1T2A2.jpg","37","restless",0.6,0.4,0.4,0.312925883354268,"true"
"image-keyboard-response",591,446461,"0.0-3.193-1.193","fj66zq6xoaccc3k",1,"52.csv","","null","resources/maskTrios/L1BB.jpg","null","",NA,NA,NA,NA,""
"image-keyboard-response",592,447666,"0.0-3.193-2.193","fj66zq6xoaccc3k",1,"52.csv","","null","resources/images/coin2.png","null","",NA,NA,NA,NA,""
"image-keyboard-response",593,448009,"0.0-3.194-0.194","fj66zq6xoaccc3k",1,"52.csv","","340.8999999985099","resources/trios/L2T4A2.jpg","37","restless",0.6,0.4,0.4,0.386750194693784,"true"
"image-keyboard-response",594,448412,"0.0-3.194-1.194","fj66zq6xoaccc3k",1,"52.csv","","null","resources/maskTrios/L2BB.jpg","null","",NA,NA,NA,NA,""
"image-keyboard-response",595,449618,"0.0-3.194-2.194","fj66zq6xoaccc3k",1,"52.csv","","null","resources/images/coin2.png","null","",NA,NA,NA,NA,""
"image-keyboard-response",596,449914,"0.0-3.195-0.195","fj66zq6xoaccc3k",1,"52.csv","","293.79999999701977","resources/trios/L2T2A2.jpg","37","restless",0.6,0.4,0.4,0.706647574676741,"false"
"image-keyboard-response",597,450321,"0.0-3.195-1.195","fj66zq6xoaccc3k",1,"52.csv","","null","resources/maskTrios/L2BB.jpg","null","",NA,NA,NA,NA,""
"image-keyboard-response",598,451525,"0.0-3.195-2.195","fj66zq6xoaccc3k",1,"52.csv","","null","resources/images/fishbone.png","null","",NA,NA,NA,NA,""
"image-keyboard-response",599,454060,"0.0-3.196-0.196","fj66zq6xoaccc3k",1,"52.csv","","2533.1999999955297","resources/trios/L2T4A3.jpg","38","restless",0.6,0.4,0.4,0.644827337217232,"false"
"image-keyboard-response",600,454466,"0.0-3.196-1.196","fj66zq6xoaccc3k",1,"52.csv","","null","resources/maskTrios/BT4B.jpg","null","",NA,NA,NA,NA,""
"image-keyboard-response",601,455675,"0.0-3.196-2.196","fj66zq6xoaccc3k",1,"52.csv","","null","resources/images/fishbone.png","null","",NA,NA,NA,NA,""
"image-keyboard-response",602,456121,"0.0-3.197-0.197","fj66zq6xoaccc3k",1,"52.csv","","444.70000000298023","resources/trios/L2T4A2.jpg","37","restless",0.6,0.4,0.4,0.448109405346668,"true"
"image-keyboard-response",603,456529,"0.0-3.197-1.197","fj66zq6xoaccc3k",1,"52.csv","","null","resources/maskTrios/L2BB.jpg","null","",NA,NA,NA,NA,""
"image-keyboard-response",604,457732,"0.0-3.197-2.197","fj66zq6xoaccc3k",1,"52.csv","","null","resources/images/coin2.png","null","",NA,NA,NA,NA,""
"image-keyboard-response",605,458414,"0.0-3.198-0.198","fj66zq6xoaccc3k",1,"52.csv","","679.6999999955297","resources/trios/L1T4A3.jpg","39","restless",0.6,0.4,0.4,0.0951894778985307,"true"
"image-keyboard-response",606,458820,"0.0-3.198-1.198","fj66zq6xoaccc3k",1,"52.csv","","null","resources/maskTrios/BBA3.jpg","null","",NA,NA,NA,NA,""
"image-keyboard-response",607,460026,"0.0-3.198-2.198","fj66zq6xoaccc3k",1,"52.csv","","null","resources/images/coin2.png","null","",NA,NA,NA,NA,""
"image-keyboard-response",608,460811,"0.0-3.199-0.199","fj66zq6xoaccc3k",1,"52.csv","","783","resources/trios/L1T2A2.jpg","38","restless",0.6,0.5,0.4,0.364514406303809,"true"
"image-keyboard-response",609,461218,"0.0-3.199-1.199","fj66zq6xoaccc3k",1,"52.csv","","null","resources/maskTrios/BT2B.jpg","null","",NA,NA,NA,NA,""
"image-keyboard-response",610,462423,"0.0-3.199-2.199","fj66zq6xoaccc3k",1,"52.csv","","null","resources/images/coin2.png","null","",NA,NA,NA,NA,""
"image-keyboard-response",611,463017,"0.0-3.200-0.200","fj66zq6xoaccc3k",1,"52.csv","","592.7999999970198","resources/trios/L1T2A2.jpg","37","restless",0.6,0.5,0.5,0.501828061290584,"true"
"image-keyboard-response",612,463422,"0.0-3.200-1.200","fj66zq6xoaccc3k",1,"52.csv","","null","resources/maskTrios/L1BB.jpg","null","",NA,NA,NA,NA,""
"image-keyboard-response",613,464628,"0.0-3.200-2.200","fj66zq6xoaccc3k",1,"52.csv","","null","resources/images/coin2.png","null","",NA,NA,NA,NA,""
"image-keyboard-response",614,465028,"0.0-3.201-0.201","fj66zq6xoaccc3k",1,"52.csv","","397.8999999985099","resources/trios/L2T4A2.jpg","39","restless",0.6,0.5,0.5,0.335722468391596,"true"
"image-keyboard-response",615,465433,"0.0-3.201-1.201","fj66zq6xoaccc3k",1,"52.csv","","null","resources/maskTrios/BBA2.jpg","null","",NA,NA,NA,NA,""
"image-keyboard-response",616,466639,"0.0-3.201-2.201","fj66zq6xoaccc3k",1,"52.csv","","null","resources/images/coin2.png","null","",NA,NA,NA,NA,""
"image-keyboard-response",617,466945,"0.0-3.202-0.202","fj66zq6xoaccc3k",1,"52.csv","","304.8999999985099","resources/trios/L2T4A3.jpg","38","restless",0.6,0.5,0.5,0.957364380329459,"false"
