"trial_type","trial_index","time_elapsed","internal_node_id","subject","participantCode","walkNumber","success","rt","stimulus","key_press","test_part","leftProb","midProb","rightProb","generatedNum","correct"
"pavlovia",0,1039,"0.0-0.0","wnumbwgxr2cjy6y",767,"62.csv","","","","","",NA,NA,NA,NA,""
"fullscreen",1,5329,"0.0-1.0","wnumbwgxr2cjy6y",767,"62.csv","true","","","","",NA,NA,NA,NA,""
"html-keyboard-response",2,12488,"0.0-2.0-0.0","wnumbwgxr2cjy6y",767,"62.csv","","7158.200000286102","<p><font size='6'>Arrrgh!</p></font><p>Can you be the best pirate? Try to find lots of gold! But beware, some islands have more gold than others, and over time, the island with the most gold may change. Can YOU figure it out? </p><font size='6'>GOOD LUCK, CAPTAIN!!!</font><p>Press any key to begin</p>","32","",NA,NA,NA,NA,""
"image-keyboard-response",3,15502,"0.0-2.0-1.0","wnumbwgxr2cjy6y",767,"62.csv","","null","resources/image_sets/111.png","null","",NA,NA,NA,NA,""
"image-keyboard-response",4,21739,"0.0-2.0-2.0","wnumbwgxr2cjy6y",767,"62.csv","","6235.60000038147","resources/image_sets/left_highlight.png","37","",NA,NA,NA,NA,""
"image-keyboard-response",5,24116,"0.0-2.0-3.0","wnumbwgxr2cjy6y",767,"62.csv","","2375.5999999046326","resources/image_sets/mid_highlight.png","38","",NA,NA,NA,NA,""
"image-keyboard-response",6,25811,"0.0-2.0-4.0","wnumbwgxr2cjy6y",767,"62.csv","","1694.3000001907349","resources/image_sets/right_highlight.png","39","",NA,NA,NA,NA,""
"image-keyboard-response",7,27570,"0.0-2.0-5.0","wnumbwgxr2cjy6y",767,"62.csv","","1757.4000000953674","resources/image_sets/111.png","13","",NA,NA,NA,NA,""
"image-keyboard-response",8,31118,"0.0-2.0-6.0","wnumbwgxr2cjy6y",767,"62.csv","","3547.2000002861023","resources/images/coin2.png","13","",NA,NA,NA,NA,""
"image-keyboard-response",9,32873,"0.0-2.0-7.0","wnumbwgxr2cjy6y",767,"62.csv","","1754","resources/images/fishbone.png","13","",NA,NA,NA,NA,""
"html-keyboard-response",10,40363,"0.0-2.0-8.0","wnumbwgxr2cjy6y",767,"62.csv","","7488.699999809265","<p>Your first journey will be a long one, but you will get a well deserved break at the end</p><p>After the break you will have four more journeys, but each will be much shorter than the first, and you will have breaks in between each</p><p>Press Enter to begin</p>","13","",NA,NA,NA,NA,""
"image-keyboard-response",11,41610,"0.0-3.0-0.0","wnumbwgxr2cjy6y",767,"62.csv","","1245.3000001907349","resources/trios/L2T4A2.jpg","37","restless",0.3,0.7,0.9,0.67696322036164,"false"
"image-keyboard-response",12,42018,"0.0-3.0-1.0","wnumbwgxr2cjy6y",767,"62.csv","","null","resources/maskTrios/L2BB.jpg","null","",NA,NA,NA,NA,""
"image-keyboard-response",13,43219,"0.0-3.0-2.0","wnumbwgxr2cjy6y",767,"62.csv","","null","resources/images/fishbone.png","null","",NA,NA,NA,NA,""
"image-keyboard-response",14,46148,"0.0-3.1-0.1","wnumbwgxr2cjy6y",767,"62.csv","","2926.5999999046326","resources/trios/L2T4A2.jpg","39","restless",0.3,0.7,0.9,0.298758872856157,"true"
"image-keyboard-response",15,46558,"0.0-3.1-1.1","wnumbwgxr2cjy6y",767,"62.csv","","null","resources/maskTrios/BBA2.jpg","null","",NA,NA,NA,NA,""
"image-keyboard-response",16,47772,"0.0-3.1-2.1","wnumbwgxr2cjy6y",767,"62.csv","","null","resources/images/coin2.png","null","",NA,NA,NA,NA,""
"image-keyboard-response",17,53172,"0.0-3.2-0.2","wnumbwgxr2cjy6y",767,"62.csv","","5398.800000190735","resources/trios/L2T4A3.jpg","38","restless",0.3,0.7,0.9,0.883796022506902,"false"
"image-keyboard-response",18,53577,"0.0-3.2-1.2","wnumbwgxr2cjy6y",767,"62.csv","","null","resources/maskTrios/BT4B.jpg","null","",NA,NA,NA,NA,""
"image-keyboard-response",19,54781,"0.0-3.2-2.2","wnumbwgxr2cjy6y",767,"62.csv","","null","resources/images/fishbone.png","null","",NA,NA,NA,NA,""
"image-keyboard-response",20,55669,"0.0-3.3-0.3","wnumbwgxr2cjy6y",767,"62.csv","","886.3000001907349","resources/trios/L1T2A3.jpg","37","restless",0.3,0.8,0.8,0.740559017758574,"false"
"image-keyboard-response",21,56081,"0.0-3.3-1.3","wnumbwgxr2cjy6y",767,"62.csv","","null","resources/maskTrios/L1BB.jpg","null","",NA,NA,NA,NA,""
"image-keyboard-response",22,57296,"0.0-3.3-2.3","wnumbwgxr2cjy6y",767,"62.csv","","null","resources/images/fishbone.png","null","",NA,NA,NA,NA,""
"image-keyboard-response",23,57692,"0.0-3.4-0.4","wnumbwgxr2cjy6y",767,"62.csv","","394.7999997138977","resources/trios/L1T4A3.jpg","39","restless",0.3,0.8,0.8,0.133325193722366,"true"
"image-keyboard-response",24,58097,"0.0-3.4-1.4","wnumbwgxr2cjy6y",767,"62.csv","","null","resources/maskTrios/BBA3.jpg","null","",NA,NA,NA,NA,""
"image-keyboard-response",25,59312,"0.0-3.4-2.4","wnumbwgxr2cjy6y",767,"62.csv","","null","resources/images/coin2.png","null","",NA,NA,NA,NA,""
"image-keyboard-response",26,61752,"0.0-3.5-0.5","wnumbwgxr2cjy6y",767,"62.csv","","2438.800000190735","resources/trios/L1T4A3.jpg","38","restless",0.3,0.8,0.8,0.652872784091727,"true"
"image-keyboard-response",27,62164,"0.0-3.5-1.5","wnumbwgxr2cjy6y",767,"62.csv","","null","resources/maskTrios/BT4B.jpg","null","",NA,NA,NA,NA,""
"image-keyboard-response",28,63374,"0.0-3.5-2.5","wnumbwgxr2cjy6y",767,"62.csv","","null","resources/images/coin2.png","null","",NA,NA,NA,NA,""
"image-keyboard-response",29,63973,"0.0-3.6-0.6","wnumbwgxr2cjy6y",767,"62.csv","","597.3000001907349","resources/trios/L1T4A3.jpg","37","restless",0.3,0.8,0.8,0.568831132251386,"false"
"image-keyboard-response",30,64376,"0.0-3.6-1.6","wnumbwgxr2cjy6y",767,"62.csv","","null","resources/maskTrios/L1BB.jpg","null","",NA,NA,NA,NA,""
"image-keyboard-response",31,65588,"0.0-3.6-2.6","wnumbwgxr2cjy6y",767,"62.csv","","null","resources/images/fishbone.png","null","",NA,NA,NA,NA,""
"image-keyboard-response",32,66357,"0.0-3.7-0.7","wnumbwgxr2cjy6y",767,"62.csv","","767.5999999046326","resources/trios/L2T4A2.jpg","39","restless",0.2,0.7,0.8,0.944017126465526,"false"
"image-keyboard-response",33,66770,"0.0-3.7-1.7","wnumbwgxr2cjy6y",767,"62.csv","","null","resources/maskTrios/BBA2.jpg","null","",NA,NA,NA,NA,""
"image-keyboard-response",34,67986,"0.0-3.7-2.7","wnumbwgxr2cjy6y",767,"62.csv","","null","resources/images/fishbone.png","null","",NA,NA,NA,NA,""
"image-keyboard-response",35,68318,"0.0-3.8-0.8","wnumbwgxr2cjy6y",767,"62.csv","","330.40000009536743","resources/trios/L1T2A3.jpg","38","restless",0.2,0.7,0.8,0.877559190444249,"false"
"image-keyboard-response",36,68722,"0.0-3.8-1.8","wnumbwgxr2cjy6y",767,"62.csv","","null","resources/maskTrios/BT2B.jpg","null","",NA,NA,NA,NA,""
"image-keyboard-response",37,69937,"0.0-3.8-2.8","wnumbwgxr2cjy6y",767,"62.csv","","null","resources/images/fishbone.png","null","",NA,NA,NA,NA,""
"image-keyboard-response",38,77004,"0.0-3.9-0.9","wnumbwgxr2cjy6y",767,"62.csv","","7066","resources/trios/L2T4A2.jpg","37","restless",0.2,0.7,0.8,0.687334741796589,"false"
"image-keyboard-response",39,77408,"0.0-3.9-1.9","wnumbwgxr2cjy6y",767,"62.csv","","null","resources/maskTrios/L2BB.jpg","null","",NA,NA,NA,NA,""
"image-keyboard-response",40,78611,"0.0-3.9-2.9","wnumbwgxr2cjy6y",767,"62.csv","","null","resources/images/fishbone.png","null","",NA,NA,NA,NA,""
"image-keyboard-response",41,82023,"0.0-3.10-0.10","wnumbwgxr2cjy6y",767,"62.csv","","3410.699999809265","resources/trios/L2T2A2.jpg","38","restless",0.3,0.7,0.8,0.679203835363709,"true"
"image-keyboard-response",42,82426,"0.0-3.10-1.10","wnumbwgxr2cjy6y",767,"62.csv","","null","resources/maskTrios/BT2B.jpg","null","",NA,NA,NA,NA,""
"image-keyboard-response",43,83632,"0.0-3.10-2.10","wnumbwgxr2cjy6y",767,"62.csv","","null","resources/images/coin2.png","null","",NA,NA,NA,NA,""
"image-keyboard-response",44,88444,"0.0-3.11-0.11","wnumbwgxr2cjy6y",767,"62.csv","","4810.799999713898","resources/trios/L2T2A2.jpg","39","restless",0.3,0.7,0.8,0.83752976244482,"false"
"image-keyboard-response",45,88855,"0.0-3.11-1.11","wnumbwgxr2cjy6y",767,"62.csv","","null","resources/maskTrios/BBA2.jpg","null","",NA,NA,NA,NA,""
"image-keyboard-response",46,90062,"0.0-3.11-2.11","wnumbwgxr2cjy6y",767,"62.csv","","null","resources/images/fishbone.png","null","",NA,NA,NA,NA,""
"image-keyboard-response",47,90810,"0.0-3.12-0.12","wnumbwgxr2cjy6y",767,"62.csv","","745.5999999046326","resources/trios/L1T2A3.jpg","37","restless",0.3,0.7,0.8,0.979799174251944,"false"
"image-keyboard-response",48,91226,"0.0-3.12-1.12","wnumbwgxr2cjy6y",767,"62.csv","","null","resources/maskTrios/L1BB.jpg","null","",NA,NA,NA,NA,""
"image-keyboard-response",49,92443,"0.0-3.12-2.12","wnumbwgxr2cjy6y",767,"62.csv","","null","resources/images/fishbone.png","null","",NA,NA,NA,NA,""
"image-keyboard-response",50,94722,"0.0-3.13-0.13","wnumbwgxr2cjy6y",767,"62.csv","","2278","resources/trios/L2T4A2.jpg","38","restless",0.3,0.7,0.8,0.0322743669003653,"true"
"image-keyboard-response",51,95126,"0.0-3.13-1.13","wnumbwgxr2cjy6y",767,"62.csv","","null","resources/maskTrios/BT4B.jpg","null","",NA,NA,NA,NA,""
"image-keyboard-response",52,96332,"0.0-3.13-2.13","wnumbwgxr2cjy6y",767,"62.csv","","null","resources/images/coin2.png","null","",NA,NA,NA,NA,""
"image-keyboard-response",53,98704,"0.0-3.14-0.14","wnumbwgxr2cjy6y",767,"62.csv","","2370.4000000953674","resources/trios/L1T2A3.jpg","38","restless",0.4,0.7,0.8,0.687193237835614,"true"
"image-keyboard-response",54,99109,"0.0-3.14-1.14","wnumbwgxr2cjy6y",767,"62.csv","","null","resources/maskTrios/BT2B.jpg","null","",NA,NA,NA,NA,""
"image-keyboard-response",55,100311,"0.0-3.14-2.14","wnumbwgxr2cjy6y",767,"62.csv","","null","resources/images/coin2.png","null","",NA,NA,NA,NA,""
"image-keyboard-response",56,101992,"0.0-3.15-0.15","wnumbwgxr2cjy6y",767,"62.csv","","1675.2999997138977","resources/trios/L1T2A3.jpg","38","restless",0.4,0.7,0.8,0.0870005764888755,"true"
"image-keyboard-response",57,102396,"0.0-3.15-1.15","wnumbwgxr2cjy6y",767,"62.csv","","null","resources/maskTrios/BT2B.jpg","null","",NA,NA,NA,NA,""
"image-keyboard-response",58,103613,"0.0-3.15-2.15","wnumbwgxr2cjy6y",767,"62.csv","","null","resources/images/coin2.png","null","",NA,NA,NA,NA,""
"image-keyboard-response",59,104071,"0.0-3.16-0.16","wnumbwgxr2cjy6y",767,"62.csv","","457.2999997138977","resources/trios/L2T4A2.jpg","38","restless",0.3,0.7,0.8,0.641244813028189,"true"
"image-keyboard-response",60,104477,"0.0-3.16-1.16","wnumbwgxr2cjy6y",767,"62.csv","","null","resources/maskTrios/BT4B.jpg","null","",NA,NA,NA,NA,""
"image-keyboard-response",61,105694,"0.0-3.16-2.16","wnumbwgxr2cjy6y",767,"62.csv","","null","resources/images/coin2.png","null","",NA,NA,NA,NA,""
"image-keyboard-response",62,106275,"0.0-3.17-0.17","wnumbwgxr2cjy6y",767,"62.csv","","580.5999999046326","resources/trios/L2T4A2.jpg","38","restless",0.3,0.7,0.8,0.330054175587103,"true"
"image-keyboard-response",63,106689,"0.0-3.17-1.17","wnumbwgxr2cjy6y",767,"62.csv","","null","resources/maskTrios/BT4B.jpg","null","",NA,NA,NA,NA,""
"image-keyboard-response",64,107905,"0.0-3.17-2.17","wnumbwgxr2cjy6y",767,"62.csv","","null","resources/images/coin2.png","null","",NA,NA,NA,NA,""
"image-keyboard-response",65,108272,"0.0-3.18-0.18","wnumbwgxr2cjy6y",767,"62.csv","","364.7999997138977","resources/trios/L1T4A3.jpg","38","restless",0.3,0.7,0.7,0.18617321682148,"true"
"image-keyboard-response",66,108676,"0.0-3.18-1.18","wnumbwgxr2cjy6y",767,"62.csv","","null","resources/maskTrios/BT4B.jpg","null","",NA,NA,NA,NA,""
"image-keyboard-response",67,109880,"0.0-3.18-2.18","wnumbwgxr2cjy6y",767,"62.csv","","null","resources/images/coin2.png","null","",NA,NA,NA,NA,""
"image-keyboard-response",68,110186,"0.0-3.19-0.19","wnumbwgxr2cjy6y",767,"62.csv","","304.5","resources/trios/L1T4A2.jpg","38","restless",0.3,0.7,0.7,0.811040590880891,"false"
"image-keyboard-response",69,110607,"0.0-3.19-1.19","wnumbwgxr2cjy6y",767,"62.csv","","null","resources/maskTrios/BT4B.jpg","null","",NA,NA,NA,NA,""
"image-keyboard-response",70,111811,"0.0-3.19-2.19","wnumbwgxr2cjy6y",767,"62.csv","","null","resources/images/fishbone.png","null","",NA,NA,NA,NA,""
"image-keyboard-response",71,113573,"0.0-3.20-0.20","wnumbwgxr2cjy6y",767,"62.csv","","1761.1999998092651","resources/trios/L1T4A3.jpg","39","restless",0.3,0.7,0.7,0.865423916119361,"false"
"image-keyboard-response",72,113978,"0.0-3.20-1.20","wnumbwgxr2cjy6y",767,"62.csv","","null","resources/maskTrios/BBA3.jpg","null","",NA,NA,NA,NA,""
"image-keyboard-response",73,115192,"0.0-3.20-2.20","wnumbwgxr2cjy6y",767,"62.csv","","null","resources/images/fishbone.png","null","",NA,NA,NA,NA,""
"image-keyboard-response",74,115497,"0.0-3.21-0.21","wnumbwgxr2cjy6y",767,"62.csv","","303.90000009536743","resources/trios/L1T2A3.jpg","37","restless",0.3,0.7,0.7,0.510846295148693,"false"
"image-keyboard-response",75,115900,"0.0-3.21-1.21","wnumbwgxr2cjy6y",767,"62.csv","","null","resources/maskTrios/L1BB.jpg","null","",NA,NA,NA,NA,""
"image-keyboard-response",76,117109,"0.0-3.21-2.21","wnumbwgxr2cjy6y",767,"62.csv","","null","resources/images/fishbone.png","null","",NA,NA,NA,NA,""
"image-keyboard-response",77,117496,"0.0-3.22-0.22","wnumbwgxr2cjy6y",767,"62.csv","","387.80000019073486","resources/trios/L2T2A3.jpg","38","restless",0.3,0.8,0.7,0.205383327427556,"true"
"image-keyboard-response",78,117906,"0.0-3.22-1.22","wnumbwgxr2cjy6y",767,"62.csv","","null","resources/maskTrios/BT2B.jpg","null","",NA,NA,NA,NA,""
"image-keyboard-response",79,119109,"0.0-3.22-2.22","wnumbwgxr2cjy6y",767,"62.csv","","null","resources/images/coin2.png","null","",NA,NA,NA,NA,""
"image-keyboard-response",80,119653,"0.0-3.23-0.23","wnumbwgxr2cjy6y",767,"62.csv","","542.4000000953674","resources/trios/L1T4A2.jpg","38","restless",0.3,0.8,0.7,0.244072604053224,"true"
"image-keyboard-response",81,120057,"0.0-3.23-1.23","wnumbwgxr2cjy6y",767,"62.csv","","null","resources/maskTrios/BT4B.jpg","null","",NA,NA,NA,NA,""
"image-keyboard-response",82,121271,"0.0-3.23-2.23","wnumbwgxr2cjy6y",767,"62.csv","","null","resources/images/coin2.png","null","",NA,NA,NA,NA,""
"image-keyboard-response",83,122337,"0.0-3.24-0.24","wnumbwgxr2cjy6y",767,"62.csv","","1064.5999999046326","resources/trios/L2T2A3.jpg","38","restless",0.3,0.8,0.7,0.183278391951559,"true"
"image-keyboard-response",84,122741,"0.0-3.24-1.24","wnumbwgxr2cjy6y",767,"62.csv","","null","resources/maskTrios/BT2B.jpg","null","",NA,NA,NA,NA,""
"image-keyboard-response",85,123950,"0.0-3.24-2.24","wnumbwgxr2cjy6y",767,"62.csv","","null","resources/images/coin2.png","null","",NA,NA,NA,NA,""
"image-keyboard-response",86,127831,"0.0-3.25-0.25","wnumbwgxr2cjy6y",767,"62.csv","","3879.800000190735","resources/trios/L2T4A3.jpg","38","restless",0.4,0.8,0.8,0.205545876586898,"true"
"image-keyboard-response",87,128237,"0.0-3.25-1.25","wnumbwgxr2cjy6y",767,"62.csv","","null","resources/maskTrios/BT4B.jpg","null","",NA,NA,NA,NA,""
"image-keyboard-response",88,129453,"0.0-3.25-2.25","wnumbwgxr2cjy6y",767,"62.csv","","null","resources/images/coin2.png","null","",NA,NA,NA,NA,""
"image-keyboard-response",89,131581,"0.0-3.26-0.26","wnumbwgxr2cjy6y",767,"62.csv","","2126.7999997138977","resources/trios/L1T2A3.jpg","38","restless",0.4,0.8,0.7,0.141461616687225,"true"
"image-keyboard-response",90,131986,"0.0-3.26-1.26","wnumbwgxr2cjy6y",767,"62.csv","","null","resources/maskTrios/BT2B.jpg","null","",NA,NA,NA,NA,""
"image-keyboard-response",91,133204,"0.0-3.26-2.26","wnumbwgxr2cjy6y",767,"62.csv","","null","resources/images/coin2.png","null","",NA,NA,NA,NA,""
"image-keyboard-response",92,133598,"0.0-3.27-0.27","wnumbwgxr2cjy6y",767,"62.csv","","392.30000019073486","resources/trios/L1T4A3.jpg","38","restless",0.4,0.8,0.7,0.67045888466091,"true"
"image-keyboard-response",93,134003,"0.0-3.27-1.27","wnumbwgxr2cjy6y",767,"62.csv","","null","resources/maskTrios/BT4B.jpg","null","",NA,NA,NA,NA,""
"image-keyboard-response",94,135210,"0.0-3.27-2.27","wnumbwgxr2cjy6y",767,"62.csv","","null","resources/images/coin2.png","null","",NA,NA,NA,NA,""
"image-keyboard-response",95,135548,"0.0-3.28-0.28","wnumbwgxr2cjy6y",767,"62.csv","","336.7000002861023","resources/trios/L1T2A2.jpg","38","restless",0.4,0.8,0.7,0.693858171151639,"true"
"image-keyboard-response",96,135958,"0.0-3.28-1.28","wnumbwgxr2cjy6y",767,"62.csv","","null","resources/maskTrios/BT2B.jpg","null","",NA,NA,NA,NA,""
"image-keyboard-response",97,137162,"0.0-3.28-2.28","wnumbwgxr2cjy6y",767,"62.csv","","null","resources/images/coin2.png","null","",NA,NA,NA,NA,""
"image-keyboard-response",98,137498,"0.0-3.29-0.29","wnumbwgxr2cjy6y",767,"62.csv","","333.90000009536743","resources/trios/L2T4A3.jpg","38","restless",0.4,0.8,0.7,0.574286696815107,"true"
"image-keyboard-response",99,137901,"0.0-3.29-1.29","wnumbwgxr2cjy6y",767,"62.csv","","null","resources/maskTrios/BT4B.jpg","null","",NA,NA,NA,NA,""
"image-keyboard-response",100,139119,"0.0-3.29-2.29","wnumbwgxr2cjy6y",767,"62.csv","","null","resources/images/coin2.png","null","",NA,NA,NA,NA,""
"image-keyboard-response",101,141261,"0.0-3.30-0.30","wnumbwgxr2cjy6y",767,"62.csv","","2141.0999999046326","resources/trios/L2T2A2.jpg","38","restless",0.4,0.8,0.7,0.556588843745885,"true"
"image-keyboard-response",102,141672,"0.0-3.30-1.30","wnumbwgxr2cjy6y",767,"62.csv","","null","resources/maskTrios/BT2B.jpg","null","",NA,NA,NA,NA,""
"image-keyboard-response",103,142890,"0.0-3.30-2.30","wnumbwgxr2cjy6y",767,"62.csv","","null","resources/images/coin2.png","null","",NA,NA,NA,NA,""
"image-keyboard-response",104,143173,"0.0-3.31-0.31","wnumbwgxr2cjy6y",767,"62.csv","","281.09999990463257","resources/trios/L2T2A2.jpg","38","restless",0.4,0.8,0.7,0.882732608354245,"false"
"image-keyboard-response",105,143576,"0.0-3.31-1.31","wnumbwgxr2cjy6y",767,"62.csv","","null","resources/maskTrios/BT2B.jpg","null","",NA,NA,NA,NA,""
"image-keyboard-response",106,144783,"0.0-3.31-2.31","wnumbwgxr2cjy6y",767,"62.csv","","null","resources/images/fishbone.png","null","",NA,NA,NA,NA,""
"image-keyboard-response",107,147885,"0.0-3.32-0.32","wnumbwgxr2cjy6y",767,"62.csv","","3100.699999809265","resources/trios/L1T2A2.jpg","38","restless",0.4,0.8,0.7,0.230711213936619,"true"
"image-keyboard-response",108,148296,"0.0-3.32-1.32","wnumbwgxr2cjy6y",767,"62.csv","","null","resources/maskTrios/BT2B.jpg","null","",NA,NA,NA,NA,""
"image-keyboard-response",109,149501,"0.0-3.32-2.32","wnumbwgxr2cjy6y",767,"62.csv","","null","resources/images/coin2.png","null","",NA,NA,NA,NA,""
"image-keyboard-response",110,149880,"0.0-3.33-0.33","wnumbwgxr2cjy6y",767,"62.csv","","377.7999997138977","resources/trios/L2T4A3.jpg","38","restless",0.4,0.8,0.7,0.744633951864571,"true"
"image-keyboard-response",111,150284,"0.0-3.33-1.33","wnumbwgxr2cjy6y",767,"62.csv","","null","resources/maskTrios/BT4B.jpg","null","",NA,NA,NA,NA,""
"image-keyboard-response",112,151492,"0.0-3.33-2.33","wnumbwgxr2cjy6y",767,"62.csv","","null","resources/images/coin2.png","null","",NA,NA,NA,NA,""
"image-keyboard-response",113,151845,"0.0-3.34-0.34","wnumbwgxr2cjy6y",767,"62.csv","","351.80000019073486","resources/trios/L1T4A2.jpg","38","restless",0.4,0.8,0.6,0.210822806363745,"true"
"image-keyboard-response",114,152256,"0.0-3.34-1.34","wnumbwgxr2cjy6y",767,"62.csv","","null","resources/maskTrios/BT4B.jpg","null","",NA,NA,NA,NA,""
"image-keyboard-response",115,153473,"0.0-3.34-2.34","wnumbwgxr2cjy6y",767,"62.csv","","null","resources/images/coin2.png","null","",NA,NA,NA,NA,""
"image-keyboard-response",116,153644,"0.0-3.35-0.35","wnumbwgxr2cjy6y",767,"62.csv","","169.59999990463257","resources/trios/L1T2A2.jpg","38","restless",0.4,0.8,0.6,0.817799421952464,"false"
"image-keyboard-response",117,154059,"0.0-3.35-1.35","wnumbwgxr2cjy6y",767,"62.csv","","null","resources/maskTrios/BT2B.jpg","null","",NA,NA,NA,NA,""
"image-keyboard-response",118,155263,"0.0-3.35-2.35","wnumbwgxr2cjy6y",767,"62.csv","","null","resources/images/fishbone.png","null","",NA,NA,NA,NA,""
"image-keyboard-response",119,155695,"0.0-3.36-0.36","wnumbwgxr2cjy6y",767,"62.csv","","430.59999990463257","resources/trios/L2T2A3.jpg","38","restless",0.4,0.8,0.6,0.88223776215876,"false"
"image-keyboard-response",120,156100,"0.0-3.36-1.36","wnumbwgxr2cjy6y",767,"62.csv","","null","resources/maskTrios/BT2B.jpg","null","",NA,NA,NA,NA,""
"image-keyboard-response",121,157317,"0.0-3.36-2.36","wnumbwgxr2cjy6y",767,"62.csv","","null","resources/images/fishbone.png","null","",NA,NA,NA,NA,""
"image-keyboard-response",122,157802,"0.0-3.37-0.37","wnumbwgxr2cjy6y",767,"62.csv","","483.40000009536743","resources/trios/L2T2A2.jpg","37","restless",0.4,0.8,0.6,0.935257762346094,"false"
"image-keyboard-response",123,158205,"0.0-3.37-1.37","wnumbwgxr2cjy6y",767,"62.csv","","null","resources/maskTrios/L2BB.jpg","null","",NA,NA,NA,NA,""
"image-keyboard-response",124,159421,"0.0-3.37-2.37","wnumbwgxr2cjy6y",767,"62.csv","","null","resources/images/fishbone.png","null","",NA,NA,NA,NA,""
"image-keyboard-response",125,159804,"0.0-3.38-0.38","wnumbwgxr2cjy6y",767,"62.csv","","381.80000019073486","resources/trios/L1T2A2.jpg","38","restless",0.4,0.8,0.6,0.510689418520343,"true"
"image-keyboard-response",126,160209,"0.0-3.38-1.38","wnumbwgxr2cjy6y",767,"62.csv","","null","resources/maskTrios/BT2B.jpg","null","",NA,NA,NA,NA,""
"image-keyboard-response",127,161416,"0.0-3.38-2.38","wnumbwgxr2cjy6y",767,"62.csv","","null","resources/images/coin2.png","null","",NA,NA,NA,NA,""
"image-keyboard-response",128,161769,"0.0-3.39-0.39","wnumbwgxr2cjy6y",767,"62.csv","","351","resources/trios/L2T4A3.jpg","38","restless",0.4,0.8,0.6,0.889363727559129,"false"
"image-keyboard-response",129,162172,"0.0-3.39-1.39","wnumbwgxr2cjy6y",767,"62.csv","","null","resources/maskTrios/BT4B.jpg","null","",NA,NA,NA,NA,""
"image-keyboard-response",130,163388,"0.0-3.39-2.39","wnumbwgxr2cjy6y",767,"62.csv","","null","resources/images/fishbone.png","null","",NA,NA,NA,NA,""
"image-keyboard-response",131,163944,"0.0-3.40-0.40","wnumbwgxr2cjy6y",767,"62.csv","","554.5999999046326","resources/trios/L1T4A2.jpg","39","restless",0.3,0.8,0.6,0.223297085817791,"true"
"image-keyboard-response",132,164348,"0.0-3.40-1.40","wnumbwgxr2cjy6y",767,"62.csv","","null","resources/maskTrios/BBA2.jpg","null","",NA,NA,NA,NA,""
"image-keyboard-response",133,165565,"0.0-3.40-2.40","wnumbwgxr2cjy6y",767,"62.csv","","null","resources/images/coin2.png","null","",NA,NA,NA,NA,""
"image-keyboard-response",134,166048,"0.0-3.41-0.41","wnumbwgxr2cjy6y",767,"62.csv","","481.7000002861023","resources/trios/L2T2A3.jpg","38","restless",0.3,0.8,0.6,0.479534962614916,"true"
"image-keyboard-response",135,166451,"0.0-3.41-1.41","wnumbwgxr2cjy6y",767,"62.csv","","null","resources/maskTrios/BT2B.jpg","null","",NA,NA,NA,NA,""
"image-keyboard-response",136,167658,"0.0-3.41-2.41","wnumbwgxr2cjy6y",767,"62.csv","","null","resources/images/coin2.png","null","",NA,NA,NA,NA,""
"image-keyboard-response",137,168062,"0.0-3.42-0.42","wnumbwgxr2cjy6y",767,"62.csv","","403","resources/trios/L1T2A2.jpg","38","restless",0.3,0.8,0.6,0.633512614993635,"true"
"image-keyboard-response",138,168466,"0.0-3.42-1.42","wnumbwgxr2cjy6y",767,"62.csv","","null","resources/maskTrios/BT2B.jpg","null","",NA,NA,NA,NA,""
"image-keyboard-response",139,169673,"0.0-3.42-2.42","wnumbwgxr2cjy6y",767,"62.csv","","null","resources/images/coin2.png","null","",NA,NA,NA,NA,""
"image-keyboard-response",140,170023,"0.0-3.43-0.43","wnumbwgxr2cjy6y",767,"62.csv","","348.59999990463257","resources/trios/L2T2A2.jpg","38","restless",0.3,0.8,0.6,0.129002597750967,"true"
"image-keyboard-response",141,170428,"0.0-3.43-1.43","wnumbwgxr2cjy6y",767,"62.csv","","null","resources/maskTrios/BT2B.jpg","null","",NA,NA,NA,NA,""
"image-keyboard-response",142,171643,"0.0-3.43-2.43","wnumbwgxr2cjy6y",767,"62.csv","","null","resources/images/coin2.png","null","",NA,NA,NA,NA,""
"image-keyboard-response",143,172024,"0.0-3.44-0.44","wnumbwgxr2cjy6y",767,"62.csv","","379.19999980926514","resources/trios/L1T2A2.jpg","38","restless",0.3,0.8,0.6,0.881615874213372,"false"
"image-keyboard-response",144,172435,"0.0-3.44-1.44","wnumbwgxr2cjy6y",767,"62.csv","","null","resources/maskTrios/BT2B.jpg","null","",NA,NA,NA,NA,""
"image-keyboard-response",145,173642,"0.0-3.44-2.44","wnumbwgxr2cjy6y",767,"62.csv","","null","resources/images/fishbone.png","null","",NA,NA,NA,NA,""
"image-keyboard-response",146,175347,"0.0-3.45-0.45","wnumbwgxr2cjy6y",767,"62.csv","","1703.2999997138977","resources/trios/L1T2A3.jpg","39","restless",0.3,0.8,0.6,0.544272236313496,"true"
"image-keyboard-response",147,175751,"0.0-3.45-1.45","wnumbwgxr2cjy6y",767,"62.csv","","null","resources/maskTrios/BBA3.jpg","null","",NA,NA,NA,NA,""
"image-keyboard-response",148,176961,"0.0-3.45-2.45","wnumbwgxr2cjy6y",767,"62.csv","","null","resources/images/coin2.png","null","",NA,NA,NA,NA,""
"image-keyboard-response",149,178421,"0.0-3.46-0.46","wnumbwgxr2cjy6y",767,"62.csv","","1458.4000000953674","resources/trios/L2T4A3.jpg","38","restless",0.3,0.8,0.6,0.823152614002788,"false"
"image-keyboard-response",150,178824,"0.0-3.46-1.46","wnumbwgxr2cjy6y",767,"62.csv","","null","resources/maskTrios/BT4B.jpg","null","",NA,NA,NA,NA,""
"image-keyboard-response",151,180040,"0.0-3.46-2.46","wnumbwgxr2cjy6y",767,"62.csv","","null","resources/images/fishbone.png","null","",NA,NA,NA,NA,""
"image-keyboard-response",152,183443,"0.0-3.47-0.47","wnumbwgxr2cjy6y",767,"62.csv","","3402.199999809265","resources/trios/L1T4A3.jpg","38","restless",0.3,0.9,0.6,0.78941062562526,"true"
"image-keyboard-response",153,183846,"0.0-3.47-1.47","wnumbwgxr2cjy6y",767,"62.csv","","null","resources/maskTrios/BT4B.jpg","null","",NA,NA,NA,NA,""
"image-keyboard-response",154,185055,"0.0-3.47-2.47","wnumbwgxr2cjy6y",767,"62.csv","","null","resources/images/coin2.png","null","",NA,NA,NA,NA,""
"image-keyboard-response",155,206755,"0.0-3.48-0.48","wnumbwgxr2cjy6y",767,"62.csv","","21699.299999713898","resources/trios/L1T2A3.jpg","38","restless",0.3,0.9,0.6,0.50388053489621,"true"
"image-keyboard-response",156,207160,"0.0-3.48-1.48","wnumbwgxr2cjy6y",767,"62.csv","","null","resources/maskTrios/BT2B.jpg","null","",NA,NA,NA,NA,""
"image-keyboard-response",157,208372,"0.0-3.48-2.48","wnumbwgxr2cjy6y",767,"62.csv","","null","resources/images/coin2.png","null","",NA,NA,NA,NA,""
"image-keyboard-response",158,210352,"0.0-3.49-0.49","wnumbwgxr2cjy6y",767,"62.csv","","1978","resources/trios/L2T4A2.jpg","38","restless",0.3,0.9,0.6,0.0422939638128812,"true"
"image-keyboard-response",159,210754,"0.0-3.49-1.49","wnumbwgxr2cjy6y",767,"62.csv","","null","resources/maskTrios/BT4B.jpg","null","",NA,NA,NA,NA,""
"image-keyboard-response",160,211971,"0.0-3.49-2.49","wnumbwgxr2cjy6y",767,"62.csv","","null","resources/images/coin2.png","null","",NA,NA,NA,NA,""
"image-keyboard-response",161,212348,"0.0-3.50-0.50","wnumbwgxr2cjy6y",767,"62.csv","","375.69999980926514","resources/trios/L2T4A2.jpg","38","restless",0.2,0.9,0.6,0.483762217859451,"true"
"image-keyboard-response",162,212760,"0.0-3.50-1.50","wnumbwgxr2cjy6y",767,"62.csv","","null","resources/maskTrios/BT4B.jpg","null","",NA,NA,NA,NA,""
"image-keyboard-response",163,213969,"0.0-3.50-2.50","wnumbwgxr2cjy6y",767,"62.csv","","null","resources/images/coin2.png","null","",NA,NA,NA,NA,""
"image-keyboard-response",164,214730,"0.0-3.51-0.51","wnumbwgxr2cjy6y",767,"62.csv","","760.4000000953674","resources/trios/L2T2A3.jpg","38","restless",0.2,0.8,0.6,0.232634400185278,"true"
"image-keyboard-response",165,215134,"0.0-3.51-1.51","wnumbwgxr2cjy6y",767,"62.csv","","null","resources/maskTrios/BT2B.jpg","null","",NA,NA,NA,NA,""
"image-keyboard-response",166,216351,"0.0-3.51-2.51","wnumbwgxr2cjy6y",767,"62.csv","","null","resources/images/coin2.png","null","",NA,NA,NA,NA,""
"image-keyboard-response",167,216751,"0.0-3.52-0.52","wnumbwgxr2cjy6y",767,"62.csv","","398.40000009536743","resources/trios/L1T4A2.jpg","38","restless",0.2,0.8,0.6,0.253905553976824,"true"
"image-keyboard-response",168,217155,"0.0-3.52-1.52","wnumbwgxr2cjy6y",767,"62.csv","","null","resources/maskTrios/BT4B.jpg","null","",NA,NA,NA,NA,""
"image-keyboard-response",169,218367,"0.0-3.52-2.52","wnumbwgxr2cjy6y",767,"62.csv","","null","resources/images/coin2.png","null","",NA,NA,NA,NA,""
"image-keyboard-response",170,219130,"0.0-3.53-0.53","wnumbwgxr2cjy6y",767,"62.csv","","761.0999999046326","resources/trios/L2T4A2.jpg","38","restless",0.2,0.8,0.6,0.275744550763532,"true"
"image-keyboard-response",171,219542,"0.0-3.53-1.53","wnumbwgxr2cjy6y",767,"62.csv","","null","resources/maskTrios/BT4B.jpg","null","",NA,NA,NA,NA,""
"image-keyboard-response",172,220759,"0.0-3.53-2.53","wnumbwgxr2cjy6y",767,"62.csv","","null","resources/images/coin2.png","null","",NA,NA,NA,NA,""
"image-keyboard-response",173,221207,"0.0-3.54-0.54","wnumbwgxr2cjy6y",767,"62.csv","","446.1000003814697","resources/trios/L2T4A3.jpg","38","restless",0.2,0.7,0.6,0.34485659473246,"true"
"image-keyboard-response",174,221621,"0.0-3.54-1.54","wnumbwgxr2cjy6y",767,"62.csv","","null","resources/maskTrios/BT4B.jpg","null","",NA,NA,NA,NA,""
"image-keyboard-response",175,222827,"0.0-3.54-2.54","wnumbwgxr2cjy6y",767,"62.csv","","null","resources/images/coin2.png","null","",NA,NA,NA,NA,""
"image-keyboard-response",176,223150,"0.0-3.55-0.55","wnumbwgxr2cjy6y",767,"62.csv","","321","resources/trios/L2T2A2.jpg","38","restless",0.2,0.7,0.6,0.422400665963873,"true"
"image-keyboard-response",177,223553,"0.0-3.55-1.55","wnumbwgxr2cjy6y",767,"62.csv","","null","resources/maskTrios/BT2B.jpg","null","",NA,NA,NA,NA,""
"image-keyboard-response",178,224770,"0.0-3.55-2.55","wnumbwgxr2cjy6y",767,"62.csv","","null","resources/images/coin2.png","null","",NA,NA,NA,NA,""
"image-keyboard-response",179,225708,"0.0-3.56-0.56","wnumbwgxr2cjy6y",767,"62.csv","","936.2999997138977","resources/trios/L2T2A2.jpg","38","restless",0.2,0.7,0.6,0.88693788569814,"false"
"image-keyboard-response",180,226112,"0.0-3.56-1.56","wnumbwgxr2cjy6y",767,"62.csv","","null","resources/maskTrios/BT2B.jpg","null","",NA,NA,NA,NA,""
"image-keyboard-response",181,227318,"0.0-3.56-2.56","wnumbwgxr2cjy6y",767,"62.csv","","null","resources/images/fishbone.png","null","",NA,NA,NA,NA,""
"image-keyboard-response",182,228095,"0.0-3.57-0.57","wnumbwgxr2cjy6y",767,"62.csv","","775.8000001907349","resources/trios/L2T2A2.jpg","39","restless",0.3,0.7,0.6,0.933865512637805,"false"
"image-keyboard-response",183,228499,"0.0-3.57-1.57","wnumbwgxr2cjy6y",767,"62.csv","","null","resources/maskTrios/BBA2.jpg","null","",NA,NA,NA,NA,""
"image-keyboard-response",184,229706,"0.0-3.57-2.57","wnumbwgxr2cjy6y",767,"62.csv","","null","resources/images/fishbone.png","null","",NA,NA,NA,NA,""
"image-keyboard-response",185,230189,"0.0-3.58-0.58","wnumbwgxr2cjy6y",767,"62.csv","","482.3999996185303","resources/trios/L2T2A3.jpg","38","restless",0.3,0.7,0.6,0.150793594267269,"true"
"image-keyboard-response",186,230594,"0.0-3.58-1.58","wnumbwgxr2cjy6y",767,"62.csv","","null","resources/maskTrios/BT2B.jpg","null","",NA,NA,NA,NA,""
"image-keyboard-response",187,231809,"0.0-3.58-2.58","wnumbwgxr2cjy6y",767,"62.csv","","null","resources/images/coin2.png","null","",NA,NA,NA,NA,""
"image-keyboard-response",188,232306,"0.0-3.59-0.59","wnumbwgxr2cjy6y",767,"62.csv","","494.90000009536743","resources/trios/L2T2A2.jpg","38","restless",0.3,0.6,0.6,0.589941749292271,"true"
"image-keyboard-response",189,232710,"0.0-3.59-1.59","wnumbwgxr2cjy6y",767,"62.csv","","null","resources/maskTrios/BT2B.jpg","null","",NA,NA,NA,NA,""
"image-keyboard-response",190,233919,"0.0-3.59-2.59","wnumbwgxr2cjy6y",767,"62.csv","","null","resources/images/coin2.png","null","",NA,NA,NA,NA,""
"image-keyboard-response",191,235166,"0.0-3.60-0.60","wnumbwgxr2cjy6y",767,"62.csv","","1245.5999999046326","resources/trios/L1T2A2.jpg","38","restless",0.3,0.6,0.6,0.714544307191266,"false"
"image-keyboard-response",192,235582,"0.0-3.60-1.60","wnumbwgxr2cjy6y",767,"62.csv","","null","resources/maskTrios/BT2B.jpg","null","",NA,NA,NA,NA,""
"image-keyboard-response",193,236797,"0.0-3.60-2.60","wnumbwgxr2cjy6y",767,"62.csv","","null","resources/images/fishbone.png","null","",NA,NA,NA,NA,""
"image-keyboard-response",194,238159,"0.0-3.61-0.61","wnumbwgxr2cjy6y",767,"62.csv","","1360.5999999046326","resources/trios/L1T2A2.jpg","38","restless",0.4,0.6,0.7,0.49207876772327,"true"
"image-keyboard-response",195,238571,"0.0-3.61-1.61","wnumbwgxr2cjy6y",767,"62.csv","","null","resources/maskTrios/BT2B.jpg","null","",NA,NA,NA,NA,""
"image-keyboard-response",196,239778,"0.0-3.61-2.61","wnumbwgxr2cjy6y",767,"62.csv","","null","resources/images/coin2.png","null","",NA,NA,NA,NA,""
"image-keyboard-response",197,242440,"0.0-3.62-0.62","wnumbwgxr2cjy6y",767,"62.csv","","2660.8999996185303","resources/trios/L1T4A3.jpg","38","restless",0.4,0.6,0.7,0.682069365751115,"false"
"image-keyboard-response",198,242852,"0.0-3.62-1.62","wnumbwgxr2cjy6y",767,"62.csv","","null","resources/maskTrios/BT4B.jpg","null","",NA,NA,NA,NA,""
"image-keyboard-response",199,244054,"0.0-3.62-2.62","wnumbwgxr2cjy6y",767,"62.csv","","null","resources/images/fishbone.png","null","",NA,NA,NA,NA,""
"image-keyboard-response",200,245348,"0.0-3.63-0.63","wnumbwgxr2cjy6y",767,"62.csv","","1292.0999999046326","resources/trios/L1T2A2.jpg","38","restless",0.4,0.6,0.7,0.332490547668446,"true"
"image-keyboard-response",201,245752,"0.0-3.63-1.63","wnumbwgxr2cjy6y",767,"62.csv","","null","resources/maskTrios/BT2B.jpg","null","",NA,NA,NA,NA,""
"image-keyboard-response",202,246959,"0.0-3.63-2.63","wnumbwgxr2cjy6y",767,"62.csv","","null","resources/images/coin2.png","null","",NA,NA,NA,NA,""
"image-keyboard-response",203,247527,"0.0-3.64-0.64","wnumbwgxr2cjy6y",767,"62.csv","","565.7000002861023","resources/trios/L2T4A2.jpg","38","restless",0.4,0.6,0.7,0.394246314449487,"true"
"image-keyboard-response",204,247930,"0.0-3.64-1.64","wnumbwgxr2cjy6y",767,"62.csv","","null","resources/maskTrios/BT4B.jpg","null","",NA,NA,NA,NA,""
"image-keyboard-response",205,249144,"0.0-3.64-2.64","wnumbwgxr2cjy6y",767,"62.csv","","null","resources/images/coin2.png","null","",NA,NA,NA,NA,""
"image-keyboard-response",206,249635,"0.0-3.65-0.65","wnumbwgxr2cjy6y",767,"62.csv","","486.2000002861023","resources/trios/L1T2A2.jpg","38","restless",0.5,0.6,0.7,0.654555787103918,"false"
"image-keyboard-response",207,250039,"0.0-3.65-1.65","wnumbwgxr2cjy6y",767,"62.csv","","null","resources/maskTrios/BT2B.jpg","null","",NA,NA,NA,NA,""
"image-keyboard-response",208,251249,"0.0-3.65-2.65","wnumbwgxr2cjy6y",767,"62.csv","","null","resources/images/fishbone.png","null","",NA,NA,NA,NA,""
"image-keyboard-response",209,251621,"0.0-3.66-0.66","wnumbwgxr2cjy6y",767,"62.csv","","369.90000009536743","resources/trios/L1T2A3.jpg","39","restless",0.5,0.6,0.7,0.145210694729765,"true"
"image-keyboard-response",210,252024,"0.0-3.66-1.66","wnumbwgxr2cjy6y",767,"62.csv","","null","resources/maskTrios/BBA3.jpg","null","",NA,NA,NA,NA,""
"image-keyboard-response",211,253240,"0.0-3.66-2.66","wnumbwgxr2cjy6y",767,"62.csv","","null","resources/images/coin2.png","null","",NA,NA,NA,NA,""
"image-keyboard-response",212,253602,"0.0-3.67-0.67","wnumbwgxr2cjy6y",767,"62.csv","","360.40000009536743","resources/trios/L1T4A2.jpg","38","restless",0.5,0.6,0.7,0.150413212313402,"true"
"image-keyboard-response",213,254005,"0.0-3.67-1.67","wnumbwgxr2cjy6y",767,"62.csv","","null","resources/maskTrios/BT4B.jpg","null","",NA,NA,NA,NA,""
"image-keyboard-response",214,255209,"0.0-3.67-2.67","wnumbwgxr2cjy6y",767,"62.csv","","null","resources/images/coin2.png","null","",NA,NA,NA,NA,""
"image-keyboard-response",215,255642,"0.0-3.68-0.68","wnumbwgxr2cjy6y",767,"62.csv","","431.40000009536743","resources/trios/L2T4A2.jpg","38","restless",0.5,0.6,0.7,0.785693653280058,"false"
"image-keyboard-response",216,256047,"0.0-3.68-1.68","wnumbwgxr2cjy6y",767,"62.csv","","null","resources/maskTrios/BT4B.jpg","null","",NA,NA,NA,NA,""
"image-keyboard-response",217,257262,"0.0-3.68-2.68","wnumbwgxr2cjy6y",767,"62.csv","","null","resources/images/fishbone.png","null","",NA,NA,NA,NA,""
"image-keyboard-response",218,257668,"0.0-3.69-0.69","wnumbwgxr2cjy6y",767,"62.csv","","405","resources/trios/L1T2A3.jpg","37","restless",0.5,0.6,0.7,0.414679968416733,"true"
"image-keyboard-response",219,258072,"0.0-3.69-1.69","wnumbwgxr2cjy6y",767,"62.csv","","null","resources/maskTrios/L1BB.jpg","null","",NA,NA,NA,NA,""
"image-keyboard-response",220,259289,"0.0-3.69-2.69","wnumbwgxr2cjy6y",767,"62.csv","","null","resources/images/coin2.png","null","",NA,NA,NA,NA,""
"image-keyboard-response",221,259787,"0.0-3.70-0.70","wnumbwgxr2cjy6y",767,"62.csv","","497.2999997138977","resources/trios/L2T4A3.jpg","37","restless",0.5,0.6,0.7,0.51757921715279,"false"
"image-keyboard-response",222,260201,"0.0-3.70-1.70","wnumbwgxr2cjy6y",767,"62.csv","","null","resources/maskTrios/L2BB.jpg","null","",NA,NA,NA,NA,""
"image-keyboard-response",223,261408,"0.0-3.70-2.70","wnumbwgxr2cjy6y",767,"62.csv","","null","resources/images/fishbone.png","null","",NA,NA,NA,NA,""
"image-keyboard-response",224,261755,"0.0-3.71-0.71","wnumbwgxr2cjy6y",767,"62.csv","","346.40000009536743","resources/trios/L1T4A3.jpg","38","restless",0.5,0.6,0.7,0.838821781492957,"false"
"image-keyboard-response",225,262158,"0.0-3.71-1.71","wnumbwgxr2cjy6y",767,"62.csv","","null","resources/maskTrios/BT4B.jpg","null","",NA,NA,NA,NA,""
"image-keyboard-response",226,263372,"0.0-3.71-2.71","wnumbwgxr2cjy6y",767,"62.csv","","null","resources/images/fishbone.png","null","",NA,NA,NA,NA,""
"image-keyboard-response",227,263676,"0.0-3.72-0.72","wnumbwgxr2cjy6y",767,"62.csv","","302.7999997138977","resources/trios/L2T2A3.jpg","39","restless",0.5,0.6,0.6,0.68290328800227,"false"
"image-keyboard-response",228,264089,"0.0-3.72-1.72","wnumbwgxr2cjy6y",767,"62.csv","","null","resources/maskTrios/BBA3.jpg","null","",NA,NA,NA,NA,""
"image-keyboard-response",229,265297,"0.0-3.72-2.72","wnumbwgxr2cjy6y",767,"62.csv","","null","resources/images/fishbone.png","null","",NA,NA,NA,NA,""
"image-keyboard-response",230,265620,"0.0-3.73-0.73","wnumbwgxr2cjy6y",767,"62.csv","","321.90000009536743","resources/trios/L1T2A3.jpg","37","restless",0.5,0.6,0.6,0.345916978957276,"true"
"image-keyboard-response",231,266032,"0.0-3.73-1.73","wnumbwgxr2cjy6y",767,"62.csv","","null","resources/maskTrios/L1BB.jpg","null","",NA,NA,NA,NA,""
"image-keyboard-response",232,267239,"0.0-3.73-2.73","wnumbwgxr2cjy6y",767,"62.csv","","null","resources/images/coin2.png","null","",NA,NA,NA,NA,""
"image-keyboard-response",233,267524,"0.0-3.74-0.74","wnumbwgxr2cjy6y",767,"62.csv","","283.5","resources/trios/L2T2A2.jpg","37","restless",0.6,0.6,0.6,0.534499461171342,"true"
"image-keyboard-response",234,267927,"0.0-3.74-1.74","wnumbwgxr2cjy6y",767,"62.csv","","null","resources/maskTrios/L2BB.jpg","null","",NA,NA,NA,NA,""
"image-keyboard-response",235,269143,"0.0-3.74-2.74","wnumbwgxr2cjy6y",767,"62.csv","","null","resources/images/coin2.png","null","",NA,NA,NA,NA,""
"image-keyboard-response",236,269442,"0.0-3.75-0.75","wnumbwgxr2cjy6y",767,"62.csv","","297.40000009536743","resources/trios/L2T2A2.jpg","37","restless",0.6,0.6,0.6,0.90181515923843,"false"
"image-keyboard-response",237,269844,"0.0-3.75-1.75","wnumbwgxr2cjy6y",767,"62.csv","","null","resources/maskTrios/L2BB.jpg","null","",NA,NA,NA,NA,""
"image-keyboard-response",238,271051,"0.0-3.75-2.75","wnumbwgxr2cjy6y",767,"62.csv","","null","resources/images/fishbone.png","null","",NA,NA,NA,NA,""
"image-keyboard-response",239,271405,"0.0-3.76-0.76","wnumbwgxr2cjy6y",767,"62.csv","","351.40000009536743","resources/trios/L1T4A3.jpg","39","restless",0.6,0.6,0.6,0.123004521609034,"true"
"image-keyboard-response",240,271818,"0.0-3.76-1.76","wnumbwgxr2cjy6y",767,"62.csv","","null","resources/maskTrios/BBA3.jpg","null","",NA,NA,NA,NA,""
"image-keyboard-response",241,273026,"0.0-3.76-2.76","wnumbwgxr2cjy6y",767,"62.csv","","null","resources/images/coin2.png","null","",NA,NA,NA,NA,""
"image-keyboard-response",242,273393,"0.0-3.77-0.77","wnumbwgxr2cjy6y",767,"62.csv","","365.59999990463257","resources/trios/L2T4A2.jpg","39","restless",0.6,0.6,0.6,0.90998793895988,"false"
"image-keyboard-response",243,273796,"0.0-3.77-1.77","wnumbwgxr2cjy6y",767,"62.csv","","null","resources/maskTrios/BBA2.jpg","null","",NA,NA,NA,NA,""
"image-keyboard-response",244,275003,"0.0-3.77-2.77","wnumbwgxr2cjy6y",767,"62.csv","","null","resources/images/fishbone.png","null","",NA,NA,NA,NA,""
"image-keyboard-response",245,275317,"0.0-3.78-0.78","wnumbwgxr2cjy6y",767,"62.csv","","312.30000019073486","resources/trios/L1T2A3.jpg","38","restless",0.6,0.6,0.6,0.195905193470504,"true"
"image-keyboard-response",246,275720,"0.0-3.78-1.78","wnumbwgxr2cjy6y",767,"62.csv","","null","resources/maskTrios/BT2B.jpg","null","",NA,NA,NA,NA,""
"image-keyboard-response",247,276936,"0.0-3.78-2.78","wnumbwgxr2cjy6y",767,"62.csv","","null","resources/images/coin2.png","null","",NA,NA,NA,NA,""
"image-keyboard-response",248,277721,"0.0-3.79-0.79","wnumbwgxr2cjy6y",767,"62.csv","","783.1999998092651","resources/trios/L2T2A2.jpg","38","restless",0.6,0.5,0.6,0.280207016991961,"true"
"image-keyboard-response",249,278126,"0.0-3.79-1.79","wnumbwgxr2cjy6y",767,"62.csv","","null","resources/maskTrios/BT2B.jpg","null","",NA,NA,NA,NA,""
"image-keyboard-response",250,279343,"0.0-3.79-2.79","wnumbwgxr2cjy6y",767,"62.csv","","null","resources/images/coin2.png","null","",NA,NA,NA,NA,""
"image-keyboard-response",251,280651,"0.0-3.80-0.80","wnumbwgxr2cjy6y",767,"62.csv","","1304.9000000953674","resources/trios/L2T4A3.jpg","38","restless",0.6,0.5,0.6,0.584182147746801,"false"
"image-keyboard-response",252,281055,"0.0-3.80-1.80","wnumbwgxr2cjy6y",767,"62.csv","","null","resources/maskTrios/BT4B.jpg","null","",NA,NA,NA,NA,""
"image-keyboard-response",253,282263,"0.0-3.80-2.80","wnumbwgxr2cjy6y",767,"62.csv","","null","resources/images/fishbone.png","null","",NA,NA,NA,NA,""
"image-keyboard-response",254,282647,"0.0-3.81-0.81","wnumbwgxr2cjy6y",767,"62.csv","","383.2999997138977","resources/trios/L1T4A3.jpg","37","restless",0.7,0.5,0.6,0.324318590331232,"true"
"image-keyboard-response",255,283050,"0.0-3.81-1.81","wnumbwgxr2cjy6y",767,"62.csv","","null","resources/maskTrios/L1BB.jpg","null","",NA,NA,NA,NA,""
"image-keyboard-response",256,284258,"0.0-3.81-2.81","wnumbwgxr2cjy6y",767,"62.csv","","null","resources/images/coin2.png","null","",NA,NA,NA,NA,""
"image-keyboard-response",257,285202,"0.0-3.82-0.82","wnumbwgxr2cjy6y",767,"62.csv","","942","resources/trios/L1T4A2.jpg","37","restless",0.7,0.4,0.5,0.702675535697781,"false"
"image-keyboard-response",258,285604,"0.0-3.82-1.82","wnumbwgxr2cjy6y",767,"62.csv","","null","resources/maskTrios/L1BB.jpg","null","",NA,NA,NA,NA,""
"image-keyboard-response",259,286813,"0.0-3.82-2.82","wnumbwgxr2cjy6y",767,"62.csv","","null","resources/images/fishbone.png","null","",NA,NA,NA,NA,""
"image-keyboard-response",260,287602,"0.0-3.83-0.83","wnumbwgxr2cjy6y",767,"62.csv","","787.2000002861023","resources/trios/L2T4A3.jpg","38","restless",0.7,0.3,0.5,0.397086145167322,"false"
"image-keyboard-response",261,288014,"0.0-3.83-1.83","wnumbwgxr2cjy6y",767,"62.csv","","null","resources/maskTrios/BT4B.jpg","null","",NA,NA,NA,NA,""
"image-keyboard-response",262,289220,"0.0-3.83-2.83","wnumbwgxr2cjy6y",767,"62.csv","","null","resources/images/fishbone.png","null","",NA,NA,NA,NA,""
"image-keyboard-response",263,289550,"0.0-3.84-0.84","wnumbwgxr2cjy6y",767,"62.csv","","327.40000009536743","resources/trios/L1T2A3.jpg","39","restless",0.7,0.3,0.5,0.131111622532615,"true"
"image-keyboard-response",264,289955,"0.0-3.84-1.84","wnumbwgxr2cjy6y",767,"62.csv","","null","resources/maskTrios/BBA3.jpg","null","",NA,NA,NA,NA,""
"image-keyboard-response",265,291171,"0.0-3.84-2.84","wnumbwgxr2cjy6y",767,"62.csv","","null","resources/images/coin2.png","null","",NA,NA,NA,NA,""
"image-keyboard-response",266,291827,"0.0-3.85-0.85","wnumbwgxr2cjy6y",767,"62.csv","","654.6999998092651","resources/trios/L2T2A2.jpg","39","restless",0.7,0.3,0.5,0.615779525661515,"false"
"image-keyboard-response",267,292230,"0.0-3.85-1.85","wnumbwgxr2cjy6y",767,"62.csv","","null","resources/maskTrios/BBA2.jpg","null","",NA,NA,NA,NA,""
"image-keyboard-response",268,293433,"0.0-3.85-2.85","wnumbwgxr2cjy6y",767,"62.csv","","null","resources/images/fishbone.png","null","",NA,NA,NA,NA,""
"image-keyboard-response",269,293744,"0.0-3.86-0.86","wnumbwgxr2cjy6y",767,"62.csv","","309.40000009536743","resources/trios/L1T2A3.jpg","38","restless",0.6,0.3,0.5,0.374684072732205,"false"
"image-keyboard-response",270,294147,"0.0-3.86-1.86","wnumbwgxr2cjy6y",767,"62.csv","","null","resources/maskTrios/BT2B.jpg","null","",NA,NA,NA,NA,""
"image-keyboard-response",271,295357,"0.0-3.86-2.86","wnumbwgxr2cjy6y",767,"62.csv","","null","resources/images/fishbone.png","null","",NA,NA,NA,NA,""
"image-keyboard-response",272,295654,"0.0-3.87-0.87","wnumbwgxr2cjy6y",767,"62.csv","","294.90000009536743","resources/trios/L1T2A2.jpg","37","restless",0.6,0.3,0.5,0.825321040729521,"false"
"image-keyboard-response",273,296057,"0.0-3.87-1.87","wnumbwgxr2cjy6y",767,"62.csv","","null","resources/maskTrios/L1BB.jpg","null","",NA,NA,NA,NA,""
"image-keyboard-response",274,297271,"0.0-3.87-2.87","wnumbwgxr2cjy6y",767,"62.csv","","null","resources/images/fishbone.png","null","",NA,NA,NA,NA,""
"image-keyboard-response",275,297642,"0.0-3.88-0.88","wnumbwgxr2cjy6y",767,"62.csv","","370.2000002861023","resources/trios/L1T4A3.jpg","38","restless",0.6,0.3,0.5,0.234882200416089,"true"
"image-keyboard-response",276,298046,"0.0-3.88-1.88","wnumbwgxr2cjy6y",767,"62.csv","","null","resources/maskTrios/BT4B.jpg","null","",NA,NA,NA,NA,""
"image-keyboard-response",277,299253,"0.0-3.88-2.88","wnumbwgxr2cjy6y",767,"62.csv","","null","resources/images/coin2.png","null","",NA,NA,NA,NA,""
"image-keyboard-response",278,299644,"0.0-3.89-0.89","wnumbwgxr2cjy6y",767,"62.csv","","389.59999990463257","resources/trios/L2T2A3.jpg","38","restless",0.6,0.3,0.6,0.663916478513704,"false"
"image-keyboard-response",279,300050,"0.0-3.89-1.89","wnumbwgxr2cjy6y",767,"62.csv","","null","resources/maskTrios/BT2B.jpg","null","",NA,NA,NA,NA,""
"image-keyboard-response",280,301265,"0.0-3.89-2.89","wnumbwgxr2cjy6y",767,"62.csv","","null","resources/images/fishbone.png","null","",NA,NA,NA,NA,""
"image-keyboard-response",281,302379,"0.0-3.90-0.90","wnumbwgxr2cjy6y",767,"62.csv","","1111.9000000953674","resources/trios/L1T2A2.jpg","37","restless",0.6,0.4,0.5,0.494816887056731,"true"
"image-keyboard-response",282,302781,"0.0-3.90-1.90","wnumbwgxr2cjy6y",767,"62.csv","","null","resources/maskTrios/L1BB.jpg","null","",NA,NA,NA,NA,""
"image-keyboard-response",283,303997,"0.0-3.90-2.90","wnumbwgxr2cjy6y",767,"62.csv","","null","resources/images/coin2.png","null","",NA,NA,NA,NA,""
"image-keyboard-response",284,305209,"0.0-3.91-0.91","wnumbwgxr2cjy6y",767,"62.csv","","1210.0999999046326","resources/trios/L1T4A2.jpg","38","restless",0.6,0.4,0.5,0.909863221278022,"false"
"image-keyboard-response",285,305623,"0.0-3.91-1.91","wnumbwgxr2cjy6y",767,"62.csv","","null","resources/maskTrios/BT4B.jpg","null","",NA,NA,NA,NA,""
"image-keyboard-response",286,306841,"0.0-3.91-2.91","wnumbwgxr2cjy6y",767,"62.csv","","null","resources/images/fishbone.png","null","",NA,NA,NA,NA,""
"image-keyboard-response",287,307326,"0.0-3.92-0.92","wnumbwgxr2cjy6y",767,"62.csv","","484.09999990463257","resources/trios/L1T4A3.jpg","39","restless",0.6,0.4,0.5,0.974921859662401,"false"
"image-keyboard-response",288,307730,"0.0-3.92-1.92","wnumbwgxr2cjy6y",767,"62.csv","","null","resources/maskTrios/BBA3.jpg","null","",NA,NA,NA,NA,""
"image-keyboard-response",289,308948,"0.0-3.92-2.92","wnumbwgxr2cjy6y",767,"62.csv","","null","resources/images/fishbone.png","null","",NA,NA,NA,NA,""
"image-keyboard-response",290,309299,"0.0-3.93-0.93","wnumbwgxr2cjy6y",767,"62.csv","","349.19999980926514","resources/trios/L2T4A3.jpg","37","restless",0.6,0.4,0.4,0.378061694370103,"true"
"image-keyboard-response",291,309704,"0.0-3.93-1.93","wnumbwgxr2cjy6y",767,"62.csv","","null","resources/maskTrios/L2BB.jpg","null","",NA,NA,NA,NA,""
"image-keyboard-response",292,310911,"0.0-3.93-2.93","wnumbwgxr2cjy6y",767,"62.csv","","null","resources/images/coin2.png","null","",NA,NA,NA,NA,""
"image-keyboard-response",293,311594,"0.0-3.94-0.94","wnumbwgxr2cjy6y",767,"62.csv","","681.5","resources/trios/L2T2A2.jpg","37","restless",0.6,0.3,0.4,0.469570485582056,"true"
"image-keyboard-response",294,311997,"0.0-3.94-1.94","wnumbwgxr2cjy6y",767,"62.csv","","null","resources/maskTrios/L2BB.jpg","null","",NA,NA,NA,NA,""
"image-keyboard-response",295,313207,"0.0-3.94-2.94","wnumbwgxr2cjy6y",767,"62.csv","","null","resources/images/coin2.png","null","",NA,NA,NA,NA,""
"image-keyboard-response",296,314383,"0.0-3.95-0.95","wnumbwgxr2cjy6y",767,"62.csv","","1173.7000002861023","resources/trios/L1T4A3.jpg","37","restless",0.5,0.3,0.4,0.691298791818685,"false"
"image-keyboard-response",297,314797,"0.0-3.95-1.95","wnumbwgxr2cjy6y",767,"62.csv","","null","resources/maskTrios/L1BB.jpg","null","",NA,NA,NA,NA,""
"image-keyboard-response",298,315998,"0.0-3.95-2.95","wnumbwgxr2cjy6y",767,"62.csv","","null","resources/images/fishbone.png","null","",NA,NA,NA,NA,""
"image-keyboard-response",299,316535,"0.0-3.96-0.96","wnumbwgxr2cjy6y",767,"62.csv","","535.5999999046326","resources/trios/L2T4A2.jpg","38","restless",0.5,0.3,0.4,0.969051569604173,"false"
"image-keyboard-response",300,316939,"0.0-3.96-1.96","wnumbwgxr2cjy6y",767,"62.csv","","null","resources/maskTrios/BT4B.jpg","null","",NA,NA,NA,NA,""
"image-keyboard-response",301,318146,"0.0-3.96-2.96","wnumbwgxr2cjy6y",767,"62.csv","","null","resources/images/fishbone.png","null","",NA,NA,NA,NA,""
"image-keyboard-response",302,318753,"0.0-3.97-0.97","wnumbwgxr2cjy6y",767,"62.csv","","605.5999999046326","resources/trios/L1T4A3.jpg","39","restless",0.5,0.3,0.4,0.550451901255965,"false"
"image-keyboard-response",303,319158,"0.0-3.97-1.97","wnumbwgxr2cjy6y",767,"62.csv","","null","resources/maskTrios/BBA3.jpg","null","",NA,NA,NA,NA,""
"image-keyboard-response",304,320374,"0.0-3.97-2.97","wnumbwgxr2cjy6y",767,"62.csv","","null","resources/images/fishbone.png","null","",NA,NA,NA,NA,""
"image-keyboard-response",305,321438,"0.0-3.98-0.98","wnumbwgxr2cjy6y",767,"62.csv","","1062.5999999046326","resources/trios/L1T2A2.jpg","38","restless",0.5,0.3,0.4,0.269598482211527,"true"
"image-keyboard-response",306,321840,"0.0-3.98-1.98","wnumbwgxr2cjy6y",767,"62.csv","","null","resources/maskTrios/BT2B.jpg","null","",NA,NA,NA,NA,""
"image-keyboard-response",307,323054,"0.0-3.98-2.98","wnumbwgxr2cjy6y",767,"62.csv","","null","resources/images/coin2.png","null","",NA,NA,NA,NA,""
"image-keyboard-response",308,324604,"0.0-3.99-0.99","wnumbwgxr2cjy6y",767,"62.csv","","1547.8000001907349","resources/trios/L1T2A3.jpg","38","restless",0.5,0.3,0.4,0.0433705237981836,"true"
"image-keyboard-response",309,325020,"0.0-3.99-1.99","wnumbwgxr2cjy6y",767,"62.csv","","null","resources/maskTrios/BT2B.jpg","null","",NA,NA,NA,NA,""
"image-keyboard-response",310,326228,"0.0-3.99-2.99","wnumbwgxr2cjy6y",767,"62.csv","","null","resources/images/coin2.png","null","",NA,NA,NA,NA,""
"image-keyboard-response",311,327800,"0.0-3.100-0.100","wnumbwgxr2cjy6y",767,"62.csv","","1570.7999997138977","resources/trios/L1T4A3.jpg","38","restless",0.6,0.3,0.3,0.256210333724566,"true"
"image-keyboard-response",312,328207,"0.0-3.100-1.100","wnumbwgxr2cjy6y",767,"62.csv","","null","resources/maskTrios/BT4B.jpg","null","",NA,NA,NA,NA,""
"image-keyboard-response",313,329409,"0.0-3.100-2.100","wnumbwgxr2cjy6y",767,"62.csv","","null","resources/images/coin2.png","null","",NA,NA,NA,NA,""
"image-keyboard-response",314,330255,"0.0-3.101-0.101","wnumbwgxr2cjy6y",767,"62.csv","","843.1999998092651","resources/trios/L1T4A2.jpg","38","restless",0.6,0.3,0.3,0.760106432686422,"false"
"image-keyboard-response",315,330658,"0.0-3.101-1.101","wnumbwgxr2cjy6y",767,"62.csv","","null","resources/maskTrios/BT4B.jpg","null","",NA,NA,NA,NA,""
"image-keyboard-response",316,331873,"0.0-3.101-2.101","wnumbwgxr2cjy6y",767,"62.csv","","null","resources/images/fishbone.png","null","",NA,NA,NA,NA,""
"image-keyboard-response",317,333782,"0.0-3.102-0.102","wnumbwgxr2cjy6y",767,"62.csv","","1908.2000002861023","resources/trios/L1T4A3.jpg","37","restless",0.6,0.3,0.2,0.538818604786311,"true"
"image-keyboard-response",318,334186,"0.0-3.102-1.102","wnumbwgxr2cjy6y",767,"62.csv","","null","resources/maskTrios/L1BB.jpg","null","",NA,NA,NA,NA,""
"image-keyboard-response",319,335395,"0.0-3.102-2.102","wnumbwgxr2cjy6y",767,"62.csv","","null","resources/images/coin2.png","null","",NA,NA,NA,NA,""
"image-keyboard-response",320,336043,"0.0-3.103-0.103","wnumbwgxr2cjy6y",767,"62.csv","","647","resources/trios/L1T4A2.jpg","37","restless",0.6,0.3,0.2,0.660779745582303,"false"
"image-keyboard-response",321,336457,"0.0-3.103-1.103","wnumbwgxr2cjy6y",767,"62.csv","","null","resources/maskTrios/L1BB.jpg","null","",NA,NA,NA,NA,""
"image-keyboard-response",322,337672,"0.0-3.103-2.103","wnumbwgxr2cjy6y",767,"62.csv","","null","resources/images/fishbone.png","null","",NA,NA,NA,NA,""
"image-keyboard-response",323,337954,"0.0-3.104-0.104","wnumbwgxr2cjy6y",767,"62.csv","","281.5","resources/trios/L1T2A3.jpg","38","restless",0.6,0.3,0.2,0.488425709065194,"false"
"image-keyboard-response",324,338358,"0.0-3.104-1.104","wnumbwgxr2cjy6y",767,"62.csv","","null","resources/maskTrios/BT2B.jpg","null","",NA,NA,NA,NA,""
"image-keyboard-response",325,339564,"0.0-3.104-2.104","wnumbwgxr2cjy6y",767,"62.csv","","null","resources/images/fishbone.png","null","",NA,NA,NA,NA,""
"image-keyboard-response",326,339890,"0.0-3.105-0.105","wnumbwgxr2cjy6y",767,"62.csv","","324.8999996185303","resources/trios/L2T2A2.jpg","39","restless",0.6,0.3,0.2,0.352916308950947,"false"
"image-keyboard-response",327,340294,"0.0-3.105-1.105","wnumbwgxr2cjy6y",767,"62.csv","","null","resources/maskTrios/BBA2.jpg","null","",NA,NA,NA,NA,""
"image-keyboard-response",328,341499,"0.0-3.105-2.105","wnumbwgxr2cjy6y",767,"62.csv","","null","resources/images/fishbone.png","null","",NA,NA,NA,NA,""
"image-keyboard-response",329,341797,"0.0-3.106-0.106","wnumbwgxr2cjy6y",767,"62.csv","","296.7999997138977","resources/trios/L1T4A2.jpg","38","restless",0.6,0.3,0.2,0.730066367775046,"false"
"image-keyboard-response",330,342200,"0.0-3.106-1.106","wnumbwgxr2cjy6y",767,"62.csv","","null","resources/maskTrios/BT4B.jpg","null","",NA,NA,NA,NA,""
"image-keyboard-response",331,343415,"0.0-3.106-2.106","wnumbwgxr2cjy6y",767,"62.csv","","null","resources/images/fishbone.png","null","",NA,NA,NA,NA,""
"image-keyboard-response",332,343760,"0.0-3.107-0.107","wnumbwgxr2cjy6y",767,"62.csv","","343.2000002861023","resources/trios/L2T4A3.jpg","38","restless",0.6,0.3,0.2,0.548769703609994,"false"
"image-keyboard-response",333,344174,"0.0-3.107-1.107","wnumbwgxr2cjy6y",767,"62.csv","","null","resources/maskTrios/BT4B.jpg","null","",NA,NA,NA,NA,""
"image-keyboard-response",334,345389,"0.0-3.107-2.107","wnumbwgxr2cjy6y",767,"62.csv","","null","resources/images/fishbone.png","null","",NA,NA,NA,NA,""
"image-keyboard-response",335,345704,"0.0-3.108-0.108","wnumbwgxr2cjy6y",767,"62.csv","","312.90000009536743","resources/trios/L1T2A3.jpg","37","restless",0.6,0.2,0.2,0.813972867240813,"false"
"image-keyboard-response",336,346117,"0.0-3.108-1.108","wnumbwgxr2cjy6y",767,"62.csv","","null","resources/maskTrios/L1BB.jpg","null","",NA,NA,NA,NA,""
"image-keyboard-response",337,347323,"0.0-3.108-2.108","wnumbwgxr2cjy6y",767,"62.csv","","null","resources/images/fishbone.png","null","",NA,NA,NA,NA,""
"image-keyboard-response",338,347682,"0.0-3.109-0.109","wnumbwgxr2cjy6y",767,"62.csv","","356.5","resources/trios/L2T2A2.jpg","39","restless",0.6,0.2,0.2,0.0729376666858075,"true"
"image-keyboard-response",339,348085,"0.0-3.109-1.109","wnumbwgxr2cjy6y",767,"62.csv","","null","resources/maskTrios/BBA2.jpg","null","",NA,NA,NA,NA,""
"image-keyboard-response",340,349294,"0.0-3.109-2.109","wnumbwgxr2cjy6y",767,"62.csv","","null","resources/images/coin2.png","null","",NA,NA,NA,NA,""
"image-keyboard-response",341,349993,"0.0-3.110-0.110","wnumbwgxr2cjy6y",767,"62.csv","","698.3999996185303","resources/trios/L2T4A3.jpg","39","restless",0.6,0.2,0.2,0.692469411949851,"false"
"image-keyboard-response",342,350407,"0.0-3.110-1.110","wnumbwgxr2cjy6y",767,"62.csv","","null","resources/maskTrios/BBA3.jpg","null","",NA,NA,NA,NA,""
"image-keyboard-response",343,351618,"0.0-3.110-2.110","wnumbwgxr2cjy6y",767,"62.csv","","null","resources/images/fishbone.png","null","",NA,NA,NA,NA,""
"image-keyboard-response",344,352018,"0.0-3.111-0.111","wnumbwgxr2cjy6y",767,"62.csv","","397.80000019073486","resources/trios/L2T2A3.jpg","37","restless",0.6,0.2,0.2,0.864806765172852,"false"
"image-keyboard-response",345,352422,"0.0-3.111-1.111","wnumbwgxr2cjy6y",767,"62.csv","","null","resources/maskTrios/L2BB.jpg","null","",NA,NA,NA,NA,""
"image-keyboard-response",346,353637,"0.0-3.111-2.111","wnumbwgxr2cjy6y",767,"62.csv","","null","resources/images/fishbone.png","null","",NA,NA,NA,NA,""
"image-keyboard-response",347,353898,"0.0-3.112-0.112","wnumbwgxr2cjy6y",767,"62.csv","","259.30000019073486","resources/trios/L2T4A3.jpg","38","restless",0.6,0.2,0.2,0.549693773767038,"false"
"image-keyboard-response",348,354302,"0.0-3.112-1.112","wnumbwgxr2cjy6y",767,"62.csv","","null","resources/maskTrios/BT4B.jpg","null","",NA,NA,NA,NA,""
"image-keyboard-response",349,355504,"0.0-3.112-2.112","wnumbwgxr2cjy6y",767,"62.csv","","null","resources/images/fishbone.png","null","",NA,NA,NA,NA,""
"image-keyboard-response",350,355845,"0.0-3.113-0.113","wnumbwgxr2cjy6y",767,"62.csv","","340","resources/trios/L2T4A2.jpg","39","restless",0.6,0.2,0.2,0.288283487474596,"false"
"image-keyboard-response",351,356259,"0.0-3.113-1.113","wnumbwgxr2cjy6y",767,"62.csv","","null","resources/maskTrios/BBA2.jpg","null","",NA,NA,NA,NA,""
"image-keyboard-response",352,357468,"0.0-3.113-2.113","wnumbwgxr2cjy6y",767,"62.csv","","null","resources/images/fishbone.png","null","",NA,NA,NA,NA,""
"image-keyboard-response",353,357765,"0.0-3.114-0.114","wnumbwgxr2cjy6y",767,"62.csv","","296.30000019073486","resources/trios/L1T2A3.jpg","37","restless",0.6,0.2,0.2,0.062041440052961,"true"
"image-keyboard-response",354,358169,"0.0-3.114-1.114","wnumbwgxr2cjy6y",767,"62.csv","","null","resources/maskTrios/L1BB.jpg","null","",NA,NA,NA,NA,""
"image-keyboard-response",355,359384,"0.0-3.114-2.114","wnumbwgxr2cjy6y",767,"62.csv","","null","resources/images/coin2.png","null","",NA,NA,NA,NA,""
"image-keyboard-response",356,359896,"0.0-3.115-0.115","wnumbwgxr2cjy6y",767,"62.csv","","511.09999990463257","resources/trios/L2T2A2.jpg","37","restless",0.6,0.2,0.2,0.0852503424413009,"true"
"image-keyboard-response",357,360299,"0.0-3.115-1.115","wnumbwgxr2cjy6y",767,"62.csv","","null","resources/maskTrios/L2BB.jpg","null","",NA,NA,NA,NA,""
"image-keyboard-response",358,361516,"0.0-3.115-2.115","wnumbwgxr2cjy6y",767,"62.csv","","null","resources/images/coin2.png","null","",NA,NA,NA,NA,""
"image-keyboard-response",359,361876,"0.0-3.116-0.116","wnumbwgxr2cjy6y",767,"62.csv","","359","resources/trios/L2T4A2.jpg","37","restless",0.6,0.2,0.2,0.438295933311958,"true"
"image-keyboard-response",360,362281,"0.0-3.116-1.116","wnumbwgxr2cjy6y",767,"62.csv","","null","resources/maskTrios/L2BB.jpg","null","",NA,NA,NA,NA,""
"image-keyboard-response",361,363489,"0.0-3.116-2.116","wnumbwgxr2cjy6y",767,"62.csv","","null","resources/images/coin2.png","null","",NA,NA,NA,NA,""
"image-keyboard-response",362,363968,"0.0-3.117-0.117","wnumbwgxr2cjy6y",767,"62.csv","","477.19999980926514","resources/trios/L2T2A2.jpg","37","restless",0.5,0.2,0.2,0.642024804144962,"false"
"image-keyboard-response",363,364371,"0.0-3.117-1.117","wnumbwgxr2cjy6y",767,"62.csv","","null","resources/maskTrios/L2BB.jpg","null","",NA,NA,NA,NA,""
"image-keyboard-response",364,365577,"0.0-3.117-2.117","wnumbwgxr2cjy6y",767,"62.csv","","null","resources/images/fishbone.png","null","",NA,NA,NA,NA,""
"image-keyboard-response",365,366939,"0.0-3.118-0.118","wnumbwgxr2cjy6y",767,"62.csv","","1360.5","resources/trios/L2T2A2.jpg","38","restless",0.5,0.2,0.2,0.927148210259322,"false"
"image-keyboard-response",366,367351,"0.0-3.118-1.118","wnumbwgxr2cjy6y",767,"62.csv","","null","resources/maskTrios/BT2B.jpg","null","",NA,NA,NA,NA,""
"image-keyboard-response",367,368554,"0.0-3.118-2.118","wnumbwgxr2cjy6y",767,"62.csv","","null","resources/images/fishbone.png","null","",NA,NA,NA,NA,""
"image-keyboard-response",368,368957,"0.0-3.119-0.119","wnumbwgxr2cjy6y",767,"62.csv","","400.5","resources/trios/L2T2A3.jpg","39","restless",0.5,0.2,0.2,0.236813701530731,"false"
"image-keyboard-response",369,369361,"0.0-3.119-1.119","wnumbwgxr2cjy6y",767,"62.csv","","null","resources/maskTrios/BBA3.jpg","null","",NA,NA,NA,NA,""
"image-keyboard-response",370,370578,"0.0-3.119-2.119","wnumbwgxr2cjy6y",767,"62.csv","","null","resources/images/fishbone.png","null","",NA,NA,NA,NA,""
"image-keyboard-response",371,374483,"0.0-3.120-0.120","wnumbwgxr2cjy6y",767,"62.csv","","3903.7000002861023","resources/trios/L1T2A3.jpg","37","restless",0.5,0.2,0.3,0.232857358169528,"true"
"image-keyboard-response",372,374886,"0.0-3.120-1.120","wnumbwgxr2cjy6y",767,"62.csv","","null","resources/maskTrios/L1BB.jpg","null","",NA,NA,NA,NA,""
"image-keyboard-response",373,376102,"0.0-3.120-2.120","wnumbwgxr2cjy6y",767,"62.csv","","null","resources/images/coin2.png","null","",NA,NA,NA,NA,""
"image-keyboard-response",374,377053,"0.0-3.121-0.121","wnumbwgxr2cjy6y",767,"62.csv","","949.5","resources/trios/L1T2A3.jpg","37","restless",0.5,0.2,0.3,0.492006333912801,"true"
"image-keyboard-response",375,377458,"0.0-3.121-1.121","wnumbwgxr2cjy6y",767,"62.csv","","null","resources/maskTrios/L1BB.jpg","null","",NA,NA,NA,NA,""
"image-keyboard-response",376,378675,"0.0-3.121-2.121","wnumbwgxr2cjy6y",767,"62.csv","","null","resources/images/coin2.png","null","",NA,NA,NA,NA,""
"image-keyboard-response",377,383489,"0.0-3.122-0.122","wnumbwgxr2cjy6y",767,"62.csv","","4813","resources/trios/L1T4A2.jpg","37","restless",0.5,0.2,0.3,0.0392949668953613,"true"
"image-keyboard-response",378,383902,"0.0-3.122-1.122","wnumbwgxr2cjy6y",767,"62.csv","","null","resources/maskTrios/L1BB.jpg","null","",NA,NA,NA,NA,""
"image-keyboard-response",379,385114,"0.0-3.122-2.122","wnumbwgxr2cjy6y",767,"62.csv","","null","resources/images/coin2.png","null","",NA,NA,NA,NA,""
"image-keyboard-response",380,385452,"0.0-3.123-0.123","wnumbwgxr2cjy6y",767,"62.csv","","336.69999980926514","resources/trios/L1T2A2.jpg","37","restless",0.5,0.2,0.3,0.519535866324999,"false"
"image-keyboard-response",381,385868,"0.0-3.123-1.123","wnumbwgxr2cjy6y",767,"62.csv","","null","resources/maskTrios/L1BB.jpg","null","",NA,NA,NA,NA,""
"image-keyboard-response",382,387072,"0.0-3.123-2.123","wnumbwgxr2cjy6y",767,"62.csv","","null","resources/images/fishbone.png","null","",NA,NA,NA,NA,""
"image-keyboard-response",383,387555,"0.0-3.124-0.124","wnumbwgxr2cjy6y",767,"62.csv","","481.30000019073486","resources/trios/L1T4A3.jpg","38","restless",0.5,0.2,0.3,0.380583012253884,"false"
"image-keyboard-response",384,387958,"0.0-3.124-1.124","wnumbwgxr2cjy6y",767,"62.csv","","null","resources/maskTrios/BT4B.jpg","null","",NA,NA,NA,NA,""
"image-keyboard-response",385,389169,"0.0-3.124-2.124","wnumbwgxr2cjy6y",767,"62.csv","","null","resources/images/fishbone.png","null","",NA,NA,NA,NA,""
"image-keyboard-response",386,389522,"0.0-3.125-0.125","wnumbwgxr2cjy6y",767,"62.csv","","351","resources/trios/L2T4A2.jpg","39","restless",0.5,0.2,0.2,0.742791908731572,"false"
"image-keyboard-response",387,389933,"0.0-3.125-1.125","wnumbwgxr2cjy6y",767,"62.csv","","null","resources/maskTrios/BBA2.jpg","null","",NA,NA,NA,NA,""
"image-keyboard-response",388,391138,"0.0-3.125-2.125","wnumbwgxr2cjy6y",767,"62.csv","","null","resources/images/fishbone.png","null","",NA,NA,NA,NA,""
"image-keyboard-response",389,391452,"0.0-3.126-0.126","wnumbwgxr2cjy6y",767,"62.csv","","312.1000003814697","resources/trios/L1T4A2.jpg","38","restless",0.5,0.2,0.2,0.651830374919883,"false"
"image-keyboard-response",390,391867,"0.0-3.126-1.126","wnumbwgxr2cjy6y",767,"62.csv","","null","resources/maskTrios/BT4B.jpg","null","",NA,NA,NA,NA,""
"image-keyboard-response",391,393082,"0.0-3.126-2.126","wnumbwgxr2cjy6y",767,"62.csv","","null","resources/images/fishbone.png","null","",NA,NA,NA,NA,""
"image-keyboard-response",392,393362,"0.0-3.127-0.127","wnumbwgxr2cjy6y",767,"62.csv","","278.80000019073486","resources/trios/L1T4A3.jpg","37","restless",0.5,0.2,0.3,0.851686021901828,"false"
"image-keyboard-response",393,393776,"0.0-3.127-1.127","wnumbwgxr2cjy6y",767,"62.csv","","null","resources/maskTrios/L1BB.jpg","null","",NA,NA,NA,NA,""
"image-keyboard-response",394,394993,"0.0-3.127-2.127","wnumbwgxr2cjy6y",767,"62.csv","","null","resources/images/fishbone.png","null","",NA,NA,NA,NA,""
"image-keyboard-response",395,395275,"0.0-3.128-0.128","wnumbwgxr2cjy6y",767,"62.csv","","280.3999996185303","resources/trios/L2T2A2.jpg","37","restless",0.5,0.2,0.4,0.998597570259296,"false"
"image-keyboard-response",396,395690,"0.0-3.128-1.128","wnumbwgxr2cjy6y",767,"62.csv","","null","resources/maskTrios/L2BB.jpg","null","",NA,NA,NA,NA,""
"image-keyboard-response",397,396908,"0.0-3.128-2.128","wnumbwgxr2cjy6y",767,"62.csv","","null","resources/images/fishbone.png","null","",NA,NA,NA,NA,""
"image-keyboard-response",398,397143,"0.0-3.129-0.129","wnumbwgxr2cjy6y",767,"62.csv","","233.90000009536743","resources/trios/L2T4A2.jpg","38","restless",0.5,0.2,0.4,0.835717419425218,"false"
"image-keyboard-response",399,397550,"0.0-3.129-1.129","wnumbwgxr2cjy6y",767,"62.csv","","null","resources/maskTrios/BT4B.jpg","null","",NA,NA,NA,NA,""
"image-keyboard-response",400,398765,"0.0-3.129-2.129","wnumbwgxr2cjy6y",767,"62.csv","","null","resources/images/fishbone.png","null","",NA,NA,NA,NA,""
"image-keyboard-response",401,399202,"0.0-3.130-0.130","wnumbwgxr2cjy6y",767,"62.csv","","436.09999990463257","resources/trios/L1T4A2.jpg","39","restless",0.5,0.2,0.4,0.994558723115528,"false"
"image-keyboard-response",402,399605,"0.0-3.130-1.130","wnumbwgxr2cjy6y",767,"62.csv","","null","resources/maskTrios/BBA2.jpg","null","",NA,NA,NA,NA,""
"image-keyboard-response",403,400807,"0.0-3.130-2.130","wnumbwgxr2cjy6y",767,"62.csv","","null","resources/images/fishbone.png","null","",NA,NA,NA,NA,""
"image-keyboard-response",404,401442,"0.0-3.131-0.131","wnumbwgxr2cjy6y",767,"62.csv","","633.8000001907349","resources/trios/L1T2A2.jpg","38","restless",0.5,0.2,0.5,0.700326858819624,"false"
"image-keyboard-response",405,401845,"0.0-3.131-1.131","wnumbwgxr2cjy6y",767,"62.csv","","null","resources/maskTrios/BT2B.jpg","null","",NA,NA,NA,NA,""
"image-keyboard-response",406,403062,"0.0-3.131-2.131","wnumbwgxr2cjy6y",767,"62.csv","","null","resources/images/fishbone.png","null","",NA,NA,NA,NA,""
"image-keyboard-response",407,403479,"0.0-3.132-0.132","wnumbwgxr2cjy6y",767,"62.csv","","415.5","resources/trios/L2T2A3.jpg","38","restless",0.5,0.2,0.5,0.51694986203181,"false"
"image-keyboard-response",408,403884,"0.0-3.132-1.132","wnumbwgxr2cjy6y",767,"62.csv","","null","resources/maskTrios/BT2B.jpg","null","",NA,NA,NA,NA,""
"image-keyboard-response",409,405086,"0.0-3.132-2.132","wnumbwgxr2cjy6y",767,"62.csv","","null","resources/images/fishbone.png","null","",NA,NA,NA,NA,""
"image-keyboard-response",410,405849,"0.0-3.133-0.133","wnumbwgxr2cjy6y",767,"62.csv","","761.6999998092651","resources/trios/L2T4A2.jpg","37","restless",0.5,0.2,0.5,0.669361448254598,"false"
"image-keyboard-response",411,406252,"0.0-3.133-1.133","wnumbwgxr2cjy6y",767,"62.csv","","null","resources/maskTrios/L2BB.jpg","null","",NA,NA,NA,NA,""
"image-keyboard-response",412,407460,"0.0-3.133-2.133","wnumbwgxr2cjy6y",767,"62.csv","","null","resources/images/fishbone.png","null","",NA,NA,NA,NA,""
"image-keyboard-response",413,408480,"0.0-3.134-0.134","wnumbwgxr2cjy6y",767,"62.csv","","1019","resources/trios/L1T4A2.jpg","37","restless",0.4,0.2,0.5,0.122933243382784,"true"
"image-keyboard-response",414,408882,"0.0-3.134-1.134","wnumbwgxr2cjy6y",767,"62.csv","","null","resources/maskTrios/L1BB.jpg","null","",NA,NA,NA,NA,""
"image-keyboard-response",415,410094,"0.0-3.134-2.134","wnumbwgxr2cjy6y",767,"62.csv","","null","resources/images/coin2.png","null","",NA,NA,NA,NA,""
"image-keyboard-response",416,410607,"0.0-3.135-0.135","wnumbwgxr2cjy6y",767,"62.csv","","510.6000003814697","resources/trios/L1T4A2.jpg","37","restless",0.4,0.2,0.5,0.108982255208586,"true"
"image-keyboard-response",417,411010,"0.0-3.135-1.135","wnumbwgxr2cjy6y",767,"62.csv","","null","resources/maskTrios/L1BB.jpg","null","",NA,NA,NA,NA,""
"image-keyboard-response",418,412216,"0.0-3.135-2.135","wnumbwgxr2cjy6y",767,"62.csv","","null","resources/images/coin2.png","null","",NA,NA,NA,NA,""
"image-keyboard-response",419,413902,"0.0-3.136-0.136","wnumbwgxr2cjy6y",767,"62.csv","","1685.5999999046326","resources/trios/L2T2A3.jpg","38","restless",0.4,0.2,0.5,0.397225855545831,"false"
"image-keyboard-response",420,414306,"0.0-3.136-1.136","wnumbwgxr2cjy6y",767,"62.csv","","null","resources/maskTrios/BT2B.jpg","null","",NA,NA,NA,NA,""
"image-keyboard-response",421,415512,"0.0-3.136-2.136","wnumbwgxr2cjy6y",767,"62.csv","","null","resources/images/fishbone.png","null","",NA,NA,NA,NA,""
"image-keyboard-response",422,416260,"0.0-3.137-0.137","wnumbwgxr2cjy6y",767,"62.csv","","746.5","resources/trios/L2T2A2.jpg","37","restless",0.3,0.2,0.5,0.979998844975619,"false"
"image-keyboard-response",423,416663,"0.0-3.137-1.137","wnumbwgxr2cjy6y",767,"62.csv","","null","resources/maskTrios/L2BB.jpg","null","",NA,NA,NA,NA,""
"image-keyboard-response",424,417868,"0.0-3.137-2.137","wnumbwgxr2cjy6y",767,"62.csv","","null","resources/images/fishbone.png","null","",NA,NA,NA,NA,""
"image-keyboard-response",425,419277,"0.0-3.138-0.138","wnumbwgxr2cjy6y",767,"62.csv","","1407.5999999046326","resources/trios/L1T2A2.jpg","38","restless",0.3,0.2,0.5,0.826792130680624,"false"
"image-keyboard-response",426,419686,"0.0-3.138-1.138","wnumbwgxr2cjy6y",767,"62.csv","","null","resources/maskTrios/BT2B.jpg","null","",NA,NA,NA,NA,""
"image-keyboard-response",427,420893,"0.0-3.138-2.138","wnumbwgxr2cjy6y",767,"62.csv","","null","resources/images/fishbone.png","null","",NA,NA,NA,NA,""
"image-keyboard-response",428,421118,"0.0-3.139-0.139","wnumbwgxr2cjy6y",767,"62.csv","","223.09999990463257","resources/trios/L2T4A3.jpg","39","restless",0.3,0.2,0.5,0.108399033825435,"true"
"image-keyboard-response",429,421529,"0.0-3.139-1.139","wnumbwgxr2cjy6y",767,"62.csv","","null","resources/maskTrios/BBA3.jpg","null","",NA,NA,NA,NA,""
"image-keyboard-response",430,422741,"0.0-3.139-2.139","wnumbwgxr2cjy6y",767,"62.csv","","null","resources/images/coin2.png","null","",NA,NA,NA,NA,""
"image-keyboard-response",431,423129,"0.0-3.140-0.140","wnumbwgxr2cjy6y",767,"62.csv","","387.2000002861023","resources/trios/L2T4A2.jpg","39","restless",0.3,0.3,0.5,0.980716234269308,"false"
"image-keyboard-response",432,423542,"0.0-3.140-1.140","wnumbwgxr2cjy6y",767,"62.csv","","null","resources/maskTrios/BBA2.jpg","null","",NA,NA,NA,NA,""
"image-keyboard-response",433,424758,"0.0-3.140-2.140","wnumbwgxr2cjy6y",767,"62.csv","","null","resources/images/fishbone.png","null","",NA,NA,NA,NA,""
"image-keyboard-response",434,425080,"0.0-3.141-0.141","wnumbwgxr2cjy6y",767,"62.csv","","320.40000009536743","resources/trios/L2T4A2.jpg","37","restless",0.3,0.3,0.5,0.768523193913908,"false"
"image-keyboard-response",435,425492,"0.0-3.141-1.141","wnumbwgxr2cjy6y",767,"62.csv","","null","resources/maskTrios/L2BB.jpg","null","",NA,NA,NA,NA,""
"image-keyboard-response",436,426708,"0.0-3.141-2.141","wnumbwgxr2cjy6y",767,"62.csv","","null","resources/images/fishbone.png","null","",NA,NA,NA,NA,""
"image-keyboard-response",437,426983,"0.0-3.142-0.142","wnumbwgxr2cjy6y",767,"62.csv","","273.5","resources/trios/L2T2A2.jpg","38","restless",0.3,0.3,0.5,0.350866098551895,"false"
"image-keyboard-response",438,427397,"0.0-3.142-1.142","wnumbwgxr2cjy6y",767,"62.csv","","null","resources/maskTrios/BT2B.jpg","null","",NA,NA,NA,NA,""
"image-keyboard-response",439,428612,"0.0-3.142-2.142","wnumbwgxr2cjy6y",767,"62.csv","","null","resources/images/fishbone.png","null","",NA,NA,NA,NA,""
"image-keyboard-response",440,429035,"0.0-3.143-0.143","wnumbwgxr2cjy6y",767,"62.csv","","421.40000009536743","resources/trios/L1T2A2.jpg","37","restless",0.3,0.3,0.5,0.00963764839744474,"true"
"image-keyboard-response",441,429450,"0.0-3.143-1.143","wnumbwgxr2cjy6y",767,"62.csv","","null","resources/maskTrios/L1BB.jpg","null","",NA,NA,NA,NA,""
"image-keyboard-response",442,430663,"0.0-3.143-2.143","wnumbwgxr2cjy6y",767,"62.csv","","null","resources/images/coin2.png","null","",NA,NA,NA,NA,""
"image-keyboard-response",443,432408,"0.0-3.144-0.144","wnumbwgxr2cjy6y",767,"62.csv","","1743","resources/trios/L2T4A2.jpg","39","restless",0.3,0.3,0.5,0.537701653576555,"false"
"image-keyboard-response",444,432811,"0.0-3.144-1.144","wnumbwgxr2cjy6y",767,"62.csv","","null","resources/maskTrios/BBA2.jpg","null","",NA,NA,NA,NA,""
"image-keyboard-response",445,434013,"0.0-3.144-2.144","wnumbwgxr2cjy6y",767,"62.csv","","null","resources/images/fishbone.png","null","",NA,NA,NA,NA,""
"image-keyboard-response",446,434349,"0.0-3.145-0.145","wnumbwgxr2cjy6y",767,"62.csv","","334.2000002861023","resources/trios/L2T2A2.jpg","39","restless",0.4,0.3,0.5,0.388488688574692,"true"
"image-keyboard-response",447,434755,"0.0-3.145-1.145","wnumbwgxr2cjy6y",767,"62.csv","","null","resources/maskTrios/BBA2.jpg","null","",NA,NA,NA,NA,""
"image-keyboard-response",448,435964,"0.0-3.145-2.145","wnumbwgxr2cjy6y",767,"62.csv","","null","resources/images/coin2.png","null","",NA,NA,NA,NA,""
"image-keyboard-response",449,436371,"0.0-3.146-0.146","wnumbwgxr2cjy6y",767,"62.csv","","406.2000002861023","resources/trios/L1T2A3.jpg","39","restless",0.4,0.3,0.5,0.20776192577091,"true"
"image-keyboard-response",450,436776,"0.0-3.146-1.146","wnumbwgxr2cjy6y",767,"62.csv","","null","resources/maskTrios/BBA3.jpg","null","",NA,NA,NA,NA,""
"image-keyboard-response",451,437985,"0.0-3.146-2.146","wnumbwgxr2cjy6y",767,"62.csv","","null","resources/images/coin2.png","null","",NA,NA,NA,NA,""
"image-keyboard-response",452,438409,"0.0-3.147-0.147","wnumbwgxr2cjy6y",767,"62.csv","","422.90000009536743","resources/trios/L2T4A3.jpg","39","restless",0.4,0.3,0.5,0.242463453541939,"true"
"image-keyboard-response",453,438812,"0.0-3.147-1.147","wnumbwgxr2cjy6y",767,"62.csv","","null","resources/maskTrios/BBA3.jpg","null","",NA,NA,NA,NA,""
"image-keyboard-response",454,440020,"0.0-3.147-2.147","wnumbwgxr2cjy6y",767,"62.csv","","null","resources/images/coin2.png","null","",NA,NA,NA,NA,""
"image-keyboard-response",455,441227,"0.0-3.148-0.148","wnumbwgxr2cjy6y",767,"62.csv","","1205.9000000953674","resources/trios/L1T4A2.jpg","37","restless",0.5,0.3,0.5,0.601417422781696,"false"
"image-keyboard-response",456,441630,"0.0-3.148-1.148","wnumbwgxr2cjy6y",767,"62.csv","","null","resources/maskTrios/L1BB.jpg","null","",NA,NA,NA,NA,""
"image-keyboard-response",457,442833,"0.0-3.148-2.148","wnumbwgxr2cjy6y",767,"62.csv","","null","resources/images/fishbone.png","null","",NA,NA,NA,NA,""
"image-keyboard-response",458,443400,"0.0-3.149-0.149","wnumbwgxr2cjy6y",767,"62.csv","","565.5","resources/trios/L1T2A2.jpg","39","restless",0.5,0.3,0.5,0.587563887551828,"false"
"image-keyboard-response",459,443805,"0.0-3.149-1.149","wnumbwgxr2cjy6y",767,"62.csv","","null","resources/maskTrios/BBA2.jpg","null","",NA,NA,NA,NA,""
"image-keyboard-response",460,445020,"0.0-3.149-2.149","wnumbwgxr2cjy6y",767,"62.csv","","null","resources/images/fishbone.png","null","",NA,NA,NA,NA,""
"image-keyboard-response",461,445326,"0.0-3.150-0.150","wnumbwgxr2cjy6y",767,"62.csv","","304.40000009536743","resources/trios/L1T2A3.jpg","38","restless",0.5,0.3,0.5,0.462633120615656,"false"
"image-keyboard-response",462,445729,"0.0-3.150-1.150","wnumbwgxr2cjy6y",767,"62.csv","","null","resources/maskTrios/BT2B.jpg","null","",NA,NA,NA,NA,""
"image-keyboard-response",463,446937,"0.0-3.150-2.150","wnumbwgxr2cjy6y",767,"62.csv","","null","resources/images/fishbone.png","null","",NA,NA,NA,NA,""
"image-keyboard-response",464,447216,"0.0-3.151-0.151","wnumbwgxr2cjy6y",767,"62.csv","","277.90000009536743","resources/trios/L1T4A3.jpg","37","restless",0.5,0.3,0.5,0.116002938881423,"true"
"image-keyboard-response",465,447620,"0.0-3.151-1.151","wnumbwgxr2cjy6y",767,"62.csv","","null","resources/maskTrios/L1BB.jpg","null","",NA,NA,NA,NA,""
"image-keyboard-response",466,448827,"0.0-3.151-2.151","wnumbwgxr2cjy6y",767,"62.csv","","null","resources/images/coin2.png","null","",NA,NA,NA,NA,""
"image-keyboard-response",467,449901,"0.0-3.152-0.152","wnumbwgxr2cjy6y",767,"62.csv","","1073.2000002861023","resources/trios/L2T4A3.jpg","37","restless",0.5,0.2,0.5,0.897015597286557,"false"
"image-keyboard-response",468,450306,"0.0-3.152-1.152","wnumbwgxr2cjy6y",767,"62.csv","","null","resources/maskTrios/L2BB.jpg","null","",NA,NA,NA,NA,""
"image-keyboard-response",469,451518,"0.0-3.152-2.152","wnumbwgxr2cjy6y",767,"62.csv","","null","resources/images/fishbone.png","null","",NA,NA,NA,NA,""
"image-keyboard-response",470,452744,"0.0-3.153-0.153","wnumbwgxr2cjy6y",767,"62.csv","","1224.6999998092651","resources/trios/L1T4A3.jpg","39","restless",0.5,0.2,0.5,0.919171125710083,"false"
"image-keyboard-response",471,453148,"0.0-3.153-1.153","wnumbwgxr2cjy6y",767,"62.csv","","null","resources/maskTrios/BBA3.jpg","null","",NA,NA,NA,NA,""
"image-keyboard-response",472,454362,"0.0-3.153-2.153","wnumbwgxr2cjy6y",767,"62.csv","","null","resources/images/fishbone.png","null","",NA,NA,NA,NA,""
"image-keyboard-response",473,454686,"0.0-3.154-0.154","wnumbwgxr2cjy6y",767,"62.csv","","322.19999980926514","resources/trios/L1T2A2.jpg","38","restless",0.5,0.2,0.5,0.559424201136356,"false"
"image-keyboard-response",474,455105,"0.0-3.154-1.154","wnumbwgxr2cjy6y",767,"62.csv","","null","resources/maskTrios/BT2B.jpg","null","",NA,NA,NA,NA,""
"image-keyboard-response",475,456311,"0.0-3.154-2.154","wnumbwgxr2cjy6y",767,"62.csv","","null","resources/images/fishbone.png","null","",NA,NA,NA,NA,""
"image-keyboard-response",476,456734,"0.0-3.155-0.155","wnumbwgxr2cjy6y",767,"62.csv","","421.59999990463257","resources/trios/L2T4A3.jpg","37","restless",0.5,0.2,0.5,0.365757592006769,"true"
"image-keyboard-response",477,457139,"0.0-3.155-1.155","wnumbwgxr2cjy6y",767,"62.csv","","null","resources/maskTrios/L2BB.jpg","null","",NA,NA,NA,NA,""
"image-keyboard-response",478,458357,"0.0-3.155-2.155","wnumbwgxr2cjy6y",767,"62.csv","","null","resources/images/coin2.png","null","",NA,NA,NA,NA,""
"image-keyboard-response",479,458950,"0.0-3.156-0.156","wnumbwgxr2cjy6y",767,"62.csv","","591.6999998092651","resources/trios/L1T2A2.jpg","37","restless",0.5,0.2,0.5,0.660739881261429,"false"
"image-keyboard-response",480,459354,"0.0-3.156-1.156","wnumbwgxr2cjy6y",767,"62.csv","","null","resources/maskTrios/L1BB.jpg","null","",NA,NA,NA,NA,""
"image-keyboard-response",481,460571,"0.0-3.156-2.156","wnumbwgxr2cjy6y",767,"62.csv","","null","resources/images/fishbone.png","null","",NA,NA,NA,NA,""
"image-keyboard-response",482,460927,"0.0-3.157-0.157","wnumbwgxr2cjy6y",767,"62.csv","","354.59999990463257","resources/trios/L2T2A2.jpg","38","restless",0.5,0.2,0.5,0.958941213658301,"false"
"image-keyboard-response",483,461342,"0.0-3.157-1.157","wnumbwgxr2cjy6y",767,"62.csv","","null","resources/maskTrios/BT2B.jpg","null","",NA,NA,NA,NA,""
"image-keyboard-response",484,462557,"0.0-3.157-2.157","wnumbwgxr2cjy6y",767,"62.csv","","null","resources/images/fishbone.png","null","",NA,NA,NA,NA,""
"image-keyboard-response",485,462732,"0.0-3.158-0.158","wnumbwgxr2cjy6y",767,"62.csv","","172.7000002861023","resources/trios/L1T2A2.jpg","39","restless",0.5,0.2,0.5,0.759573231498258,"false"
"image-keyboard-response",486,463146,"0.0-3.158-1.158","wnumbwgxr2cjy6y",767,"62.csv","","null","resources/maskTrios/BBA2.jpg","null","",NA,NA,NA,NA,""
"image-keyboard-response",487,464356,"0.0-3.158-2.158","wnumbwgxr2cjy6y",767,"62.csv","","null","resources/images/fishbone.png","null","",NA,NA,NA,NA,""
"image-keyboard-response",488,465081,"0.0-3.159-0.159","wnumbwgxr2cjy6y",767,"62.csv","","722.9000000953674","resources/trios/L2T2A2.jpg","37","restless",0.5,0.2,0.5,0.802611188233444,"false"
"image-keyboard-response",489,465487,"0.0-3.159-1.159","wnumbwgxr2cjy6y",767,"62.csv","","null","resources/maskTrios/L2BB.jpg","null","",NA,NA,NA,NA,""
"image-keyboard-response",490,466695,"0.0-3.159-2.159","wnumbwgxr2cjy6y",767,"62.csv","","null","resources/images/fishbone.png","null","",NA,NA,NA,NA,""
"image-keyboard-response",491,467009,"0.0-3.160-0.160","wnumbwgxr2cjy6y",767,"62.csv","","312.30000019073486","resources/trios/L1T2A2.jpg","38","restless",0.6,0.2,0.6,0.506267364478351,"false"
"image-keyboard-response",492,467425,"0.0-3.160-1.160","wnumbwgxr2cjy6y",767,"62.csv","","null","resources/maskTrios/BT2B.jpg","null","",NA,NA,NA,NA,""
"image-keyboard-response",493,468627,"0.0-3.160-2.160","wnumbwgxr2cjy6y",767,"62.csv","","null","resources/images/fishbone.png","null","",NA,NA,NA,NA,""
"image-keyboard-response",494,469076,"0.0-3.161-0.161","wnumbwgxr2cjy6y",767,"62.csv","","447.30000019073486","resources/trios/L2T2A2.jpg","39","restless",0.6,0.2,0.6,0.576865638790803,"true"
"image-keyboard-response",495,469482,"0.0-3.161-1.161","wnumbwgxr2cjy6y",767,"62.csv","","null","resources/maskTrios/BBA2.jpg","null","",NA,NA,NA,NA,""
"image-keyboard-response",496,470691,"0.0-3.161-2.161","wnumbwgxr2cjy6y",767,"62.csv","","null","resources/images/coin2.png","null","",NA,NA,NA,NA,""
"image-keyboard-response",497,471700,"0.0-3.162-0.162","wnumbwgxr2cjy6y",767,"62.csv","","1006.8000001907349","resources/trios/L1T4A2.jpg","39","restless",0.6,0.2,0.6,0.829706931729219,"false"
"image-keyboard-response",498,472111,"0.0-3.162-1.162","wnumbwgxr2cjy6y",767,"62.csv","","null","resources/maskTrios/BBA2.jpg","null","",NA,NA,NA,NA,""
"image-keyboard-response",499,473316,"0.0-3.162-2.162","wnumbwgxr2cjy6y",767,"62.csv","","null","resources/images/fishbone.png","null","",NA,NA,NA,NA,""
"image-keyboard-response",500,475344,"0.0-3.163-0.163","wnumbwgxr2cjy6y",767,"62.csv","","2026.5","resources/trios/L1T2A3.jpg","38","restless",0.6,0.2,0.6,0.207419395399395,"false"
"image-keyboard-response",501,475746,"0.0-3.163-1.163","wnumbwgxr2cjy6y",767,"62.csv","","null","resources/maskTrios/BT2B.jpg","null","",NA,NA,NA,NA,""
"image-keyboard-response",502,476963,"0.0-3.163-2.163","wnumbwgxr2cjy6y",767,"62.csv","","null","resources/images/fishbone.png","null","",NA,NA,NA,NA,""
"image-keyboard-response",503,477257,"0.0-3.164-0.164","wnumbwgxr2cjy6y",767,"62.csv","","292.59999990463257","resources/trios/L2T2A2.jpg","37","restless",0.6,0.2,0.6,0.38785277814911,"true"
"image-keyboard-response",504,477672,"0.0-3.164-1.164","wnumbwgxr2cjy6y",767,"62.csv","","null","resources/maskTrios/L2BB.jpg","null","",NA,NA,NA,NA,""
"image-keyboard-response",505,478880,"0.0-3.164-2.164","wnumbwgxr2cjy6y",767,"62.csv","","null","resources/images/coin2.png","null","",NA,NA,NA,NA,""
"image-keyboard-response",506,479292,"0.0-3.165-0.165","wnumbwgxr2cjy6y",767,"62.csv","","410.40000009536743","resources/trios/L2T4A2.jpg","37","restless",0.6,0.2,0.6,0.375403283840533,"true"
"image-keyboard-response",507,479695,"0.0-3.165-1.165","wnumbwgxr2cjy6y",767,"62.csv","","null","resources/maskTrios/L2BB.jpg","null","",NA,NA,NA,NA,""
"image-keyboard-response",508,480913,"0.0-3.165-2.165","wnumbwgxr2cjy6y",767,"62.csv","","null","resources/images/coin2.png","null","",NA,NA,NA,NA,""
"image-keyboard-response",509,481298,"0.0-3.166-0.166","wnumbwgxr2cjy6y",767,"62.csv","","383.5","resources/trios/L1T4A2.jpg","37","restless",0.6,0.2,0.6,0.000106939413038853,"true"
"image-keyboard-response",510,481710,"0.0-3.166-1.166","wnumbwgxr2cjy6y",767,"62.csv","","null","resources/maskTrios/L1BB.jpg","null","",NA,NA,NA,NA,""
"image-keyboard-response",511,482915,"0.0-3.166-2.166","wnumbwgxr2cjy6y",767,"62.csv","","null","resources/images/coin2.png","null","",NA,NA,NA,NA,""
"image-keyboard-response",512,483280,"0.0-3.167-0.167","wnumbwgxr2cjy6y",767,"62.csv","","362.90000009536743","resources/trios/L1T4A2.jpg","37","restless",0.6,0.2,0.6,0.442309385129386,"true"
"image-keyboard-response",513,483697,"0.0-3.167-1.167","wnumbwgxr2cjy6y",767,"62.csv","","null","resources/maskTrios/L1BB.jpg","null","",NA,NA,NA,NA,""
"image-keyboard-response",514,484912,"0.0-3.167-2.167","wnumbwgxr2cjy6y",767,"62.csv","","null","resources/images/coin2.png","null","",NA,NA,NA,NA,""
"image-keyboard-response",515,485271,"0.0-3.168-0.168","wnumbwgxr2cjy6y",767,"62.csv","","357.59999990463257","resources/trios/L2T4A3.jpg","37","restless",0.6,0.2,0.6,0.713614711231836,"false"
"image-keyboard-response",516,485674,"0.0-3.168-1.168","wnumbwgxr2cjy6y",767,"62.csv","","null","resources/maskTrios/L2BB.jpg","null","",NA,NA,NA,NA,""
"image-keyboard-response",517,486881,"0.0-3.168-2.168","wnumbwgxr2cjy6y",767,"62.csv","","null","resources/images/fishbone.png","null","",NA,NA,NA,NA,""
"image-keyboard-response",518,487177,"0.0-3.169-0.169","wnumbwgxr2cjy6y",767,"62.csv","","294.09999990463257","resources/trios/L2T2A3.jpg","38","restless",0.6,0.3,0.6,0.105253474050782,"true"
"image-keyboard-response",519,487579,"0.0-3.169-1.169","wnumbwgxr2cjy6y",767,"62.csv","","null","resources/maskTrios/BT2B.jpg","null","",NA,NA,NA,NA,""
"image-keyboard-response",520,488782,"0.0-3.169-2.169","wnumbwgxr2cjy6y",767,"62.csv","","null","resources/images/coin2.png","null","",NA,NA,NA,NA,""
"image-keyboard-response",521,489066,"0.0-3.170-0.170","wnumbwgxr2cjy6y",767,"62.csv","","282.59999990463257","resources/trios/L1T4A2.jpg","38","restless",0.6,0.3,0.6,0.0234120377433531,"true"
"image-keyboard-response",522,489481,"0.0-3.170-1.170","wnumbwgxr2cjy6y",767,"62.csv","","null","resources/maskTrios/BT4B.jpg","null","",NA,NA,NA,NA,""
"image-keyboard-response",523,490699,"0.0-3.170-2.170","wnumbwgxr2cjy6y",767,"62.csv","","null","resources/images/coin2.png","null","",NA,NA,NA,NA,""
"image-keyboard-response",524,490975,"0.0-3.171-0.171","wnumbwgxr2cjy6y",767,"62.csv","","275.1000003814697","resources/trios/L2T2A3.jpg","38","restless",0.6,0.3,0.6,0.643854517936015,"false"
"image-keyboard-response",525,491389,"0.0-3.171-1.171","wnumbwgxr2cjy6y",767,"62.csv","","null","resources/maskTrios/BT2B.jpg","null","",NA,NA,NA,NA,""
"image-keyboard-response",526,492593,"0.0-3.171-2.171","wnumbwgxr2cjy6y",767,"62.csv","","null","resources/images/fishbone.png","null","",NA,NA,NA,NA,""
"image-keyboard-response",527,492851,"0.0-3.172-0.172","wnumbwgxr2cjy6y",767,"62.csv","","257.19999980926514","resources/trios/L2T4A3.jpg","37","restless",0.6,0.3,0.6,0.0328857198350618,"true"
"image-keyboard-response",528,493255,"0.0-3.172-1.172","wnumbwgxr2cjy6y",767,"62.csv","","null","resources/maskTrios/L2BB.jpg","null","",NA,NA,NA,NA,""
"image-keyboard-response",529,494469,"0.0-3.172-2.172","wnumbwgxr2cjy6y",767,"62.csv","","null","resources/images/coin2.png","null","",NA,NA,NA,NA,""
"image-keyboard-response",530,494799,"0.0-3.173-0.173","wnumbwgxr2cjy6y",767,"62.csv","","328.90000009536743","resources/trios/L1T2A3.jpg","37","restless",0.6,0.3,0.6,0.318005595488837,"true"
"image-keyboard-response",531,495201,"0.0-3.173-1.173","wnumbwgxr2cjy6y",767,"62.csv","","null","resources/maskTrios/L1BB.jpg","null","",NA,NA,NA,NA,""
"image-keyboard-response",532,496409,"0.0-3.173-2.173","wnumbwgxr2cjy6y",767,"62.csv","","null","resources/images/coin2.png","null","",NA,NA,NA,NA,""
"image-keyboard-response",533,496829,"0.0-3.174-0.174","wnumbwgxr2cjy6y",767,"62.csv","","418.2999997138977","resources/trios/L2T4A3.jpg","37","restless",0.6,0.4,0.6,0.46600400234468,"true"
"image-keyboard-response",534,497232,"0.0-3.174-1.174","wnumbwgxr2cjy6y",767,"62.csv","","null","resources/maskTrios/L2BB.jpg","null","",NA,NA,NA,NA,""
"image-keyboard-response",535,498441,"0.0-3.174-2.174","wnumbwgxr2cjy6y",767,"62.csv","","null","resources/images/coin2.png","null","",NA,NA,NA,NA,""
"image-keyboard-response",536,498791,"0.0-3.175-0.175","wnumbwgxr2cjy6y",767,"62.csv","","349","resources/trios/L1T4A3.jpg","37","restless",0.6,0.4,0.6,0.963052256934517,"false"
"image-keyboard-response",537,499202,"0.0-3.175-1.175","wnumbwgxr2cjy6y",767,"62.csv","","null","resources/maskTrios/L1BB.jpg","null","",NA,NA,NA,NA,""
"image-keyboard-response",538,500418,"0.0-3.175-2.175","wnumbwgxr2cjy6y",767,"62.csv","","null","resources/images/fishbone.png","null","",NA,NA,NA,NA,""
"image-keyboard-response",539,500757,"0.0-3.176-0.176","wnumbwgxr2cjy6y",767,"62.csv","","337.19999980926514","resources/trios/L1T2A2.jpg","38","restless",0.6,0.4,0.6,0.0691233637851187,"true"
"image-keyboard-response",540,501159,"0.0-3.176-1.176","wnumbwgxr2cjy6y",767,"62.csv","","null","resources/maskTrios/BT2B.jpg","null","",NA,NA,NA,NA,""
"image-keyboard-response",541,502366,"0.0-3.176-2.176","wnumbwgxr2cjy6y",767,"62.csv","","null","resources/images/coin2.png","null","",NA,NA,NA,NA,""
"image-keyboard-response",542,502697,"0.0-3.177-0.177","wnumbwgxr2cjy6y",767,"62.csv","","329","resources/trios/L2T2A2.jpg","38","restless",0.6,0.4,0.6,0.335442179255528,"true"
"image-keyboard-response",543,503102,"0.0-3.177-1.177","wnumbwgxr2cjy6y",767,"62.csv","","null","resources/maskTrios/BT2B.jpg","null","",NA,NA,NA,NA,""
"image-keyboard-response",544,504318,"0.0-3.177-2.177","wnumbwgxr2cjy6y",767,"62.csv","","null","resources/images/coin2.png","null","",NA,NA,NA,NA,""
"image-keyboard-response",545,504799,"0.0-3.178-0.178","wnumbwgxr2cjy6y",767,"62.csv","","479.30000019073486","resources/trios/L1T2A2.jpg","38","restless",0.5,0.4,0.7,0.932595323644803,"false"
"image-keyboard-response",546,505202,"0.0-3.178-1.178","wnumbwgxr2cjy6y",767,"62.csv","","null","resources/maskTrios/BT2B.jpg","null","",NA,NA,NA,NA,""
"image-keyboard-response",547,506419,"0.0-3.178-2.178","wnumbwgxr2cjy6y",767,"62.csv","","null","resources/images/fishbone.png","null","",NA,NA,NA,NA,""
"image-keyboard-response",548,506757,"0.0-3.179-0.179","wnumbwgxr2cjy6y",767,"62.csv","","336.2000002861023","resources/trios/L2T2A2.jpg","37","restless",0.5,0.4,0.7,0.372080101658719,"true"
"image-keyboard-response",549,507171,"0.0-3.179-1.179","wnumbwgxr2cjy6y",767,"62.csv","","null","resources/maskTrios/L2BB.jpg","null","",NA,NA,NA,NA,""
"image-keyboard-response",550,508373,"0.0-3.179-2.179","wnumbwgxr2cjy6y",767,"62.csv","","null","resources/images/coin2.png","null","",NA,NA,NA,NA,""
"image-keyboard-response",551,508897,"0.0-3.180-0.180","wnumbwgxr2cjy6y",767,"62.csv","","522.1999998092651","resources/trios/L2T4A3.jpg","37","restless",0.5,0.4,0.7,0.665854087982801,"false"
"image-keyboard-response",552,509300,"0.0-3.180-1.180","wnumbwgxr2cjy6y",767,"62.csv","","null","resources/maskTrios/L2BB.jpg","null","",NA,NA,NA,NA,""
"image-keyboard-response",553,510506,"0.0-3.180-2.180","wnumbwgxr2cjy6y",767,"62.csv","","null","resources/images/fishbone.png","null","",NA,NA,NA,NA,""
"image-keyboard-response",554,510947,"0.0-3.181-0.181","wnumbwgxr2cjy6y",767,"62.csv","","435.69999980926514","resources/trios/L1T4A3.jpg","38","restless",0.5,0.4,0.7,0.848056583147476,"false"
"image-keyboard-response",555,511359,"0.0-3.181-1.181","wnumbwgxr2cjy6y",767,"62.csv","","null","resources/maskTrios/BT4B.jpg","null","",NA,NA,NA,NA,""
"image-keyboard-response",556,512574,"0.0-3.181-2.181","wnumbwgxr2cjy6y",767,"62.csv","","null","resources/images/fishbone.png","null","",NA,NA,NA,NA,""
"image-keyboard-response",557,512927,"0.0-3.182-0.182","wnumbwgxr2cjy6y",767,"62.csv","","351.30000019073486","resources/trios/L1T2A3.jpg","39","restless",0.5,0.4,0.7,0.165696856789799,"true"
"image-keyboard-response",558,513332,"0.0-3.182-1.182","wnumbwgxr2cjy6y",767,"62.csv","","null","resources/maskTrios/BBA3.jpg","null","",NA,NA,NA,NA,""
"image-keyboard-response",559,514549,"0.0-3.182-2.182","wnumbwgxr2cjy6y",767,"62.csv","","null","resources/images/coin2.png","null","",NA,NA,NA,NA,""
"image-keyboard-response",560,514950,"0.0-3.183-0.183","wnumbwgxr2cjy6y",767,"62.csv","","400.2000002861023","resources/trios/L1T4A2.jpg","39","restless",0.5,0.4,0.7,0.529621333755414,"true"
"image-keyboard-response",561,515354,"0.0-3.183-1.183","wnumbwgxr2cjy6y",767,"62.csv","","null","resources/maskTrios/BBA2.jpg","null","",NA,NA,NA,NA,""
"image-keyboard-response",562,516570,"0.0-3.183-2.183","wnumbwgxr2cjy6y",767,"62.csv","","null","resources/images/coin2.png","null","",NA,NA,NA,NA,""
"image-keyboard-response",563,517085,"0.0-3.184-0.184","wnumbwgxr2cjy6y",767,"62.csv","","513.8999996185303","resources/trios/L1T4A2.jpg","39","restless",0.5,0.4,0.7,0.340002500420231,"true"
"image-keyboard-response",564,517488,"0.0-3.184-1.184","wnumbwgxr2cjy6y",767,"62.csv","","null","resources/maskTrios/BBA2.jpg","null","",NA,NA,NA,NA,""
"image-keyboard-response",565,518705,"0.0-3.184-2.184","wnumbwgxr2cjy6y",767,"62.csv","","null","resources/images/coin2.png","null","",NA,NA,NA,NA,""
"image-keyboard-response",566,519075,"0.0-3.185-0.185","wnumbwgxr2cjy6y",767,"62.csv","","368.80000019073486","resources/trios/L2T2A3.jpg","39","restless",0.5,0.3,0.7,0.434099036540214,"true"
"image-keyboard-response",567,519478,"0.0-3.185-1.185","wnumbwgxr2cjy6y",767,"62.csv","","null","resources/maskTrios/BBA3.jpg","null","",NA,NA,NA,NA,""
"image-keyboard-response",568,520683,"0.0-3.185-2.185","wnumbwgxr2cjy6y",767,"62.csv","","null","resources/images/coin2.png","null","",NA,NA,NA,NA,""
"image-keyboard-response",569,520950,"0.0-3.186-0.186","wnumbwgxr2cjy6y",767,"62.csv","","265.19999980926514","resources/trios/L2T2A3.jpg","39","restless",0.5,0.3,0.7,0.610687425742833,"true"
"image-keyboard-response",570,521355,"0.0-3.186-1.186","wnumbwgxr2cjy6y",767,"62.csv","","null","resources/maskTrios/BBA3.jpg","null","",NA,NA,NA,NA,""
"image-keyboard-response",571,522571,"0.0-3.186-2.186","wnumbwgxr2cjy6y",767,"62.csv","","null","resources/images/coin2.png","null","",NA,NA,NA,NA,""
"image-keyboard-response",572,522934,"0.0-3.187-0.187","wnumbwgxr2cjy6y",767,"62.csv","","361.90000009536743","resources/trios/L1T2A2.jpg","39","restless",0.5,0.3,0.7,0.386604760742761,"true"
"image-keyboard-response",573,523347,"0.0-3.187-1.187","wnumbwgxr2cjy6y",767,"62.csv","","null","resources/maskTrios/BBA2.jpg","null","",NA,NA,NA,NA,""
"image-keyboard-response",574,524556,"0.0-3.187-2.187","wnumbwgxr2cjy6y",767,"62.csv","","null","resources/images/coin2.png","null","",NA,NA,NA,NA,""
"image-keyboard-response",575,525000,"0.0-3.188-0.188","wnumbwgxr2cjy6y",767,"62.csv","","441.80000019073486","resources/trios/L2T4A2.jpg","39","restless",0.5,0.3,0.7,0.0949838851897622,"true"
"image-keyboard-response",576,525403,"0.0-3.188-1.188","wnumbwgxr2cjy6y",767,"62.csv","","null","resources/maskTrios/BBA2.jpg","null","",NA,NA,NA,NA,""
"image-keyboard-response",577,526610,"0.0-3.188-2.188","wnumbwgxr2cjy6y",767,"62.csv","","null","resources/images/coin2.png","null","",NA,NA,NA,NA,""
"image-keyboard-response",578,526990,"0.0-3.189-0.189","wnumbwgxr2cjy6y",767,"62.csv","","378.59999990463257","resources/trios/L2T2A2.jpg","39","restless",0.5,0.3,0.7,0.113308041767916,"true"
"image-keyboard-response",579,527405,"0.0-3.189-1.189","wnumbwgxr2cjy6y",767,"62.csv","","null","resources/maskTrios/BBA2.jpg","null","",NA,NA,NA,NA,""
"image-keyboard-response",580,528613,"0.0-3.189-2.189","wnumbwgxr2cjy6y",767,"62.csv","","null","resources/images/coin2.png","null","",NA,NA,NA,NA,""
"image-keyboard-response",581,528918,"0.0-3.190-0.190","wnumbwgxr2cjy6y",767,"62.csv","","303.59999990463257","resources/trios/L2T2A3.jpg","39","restless",0.5,0.3,0.6,0.453177213137235,"true"
"image-keyboard-response",582,529321,"0.0-3.190-1.190","wnumbwgxr2cjy6y",767,"62.csv","","null","resources/maskTrios/BBA3.jpg","null","",NA,NA,NA,NA,""
"image-keyboard-response",583,530537,"0.0-3.190-2.190","wnumbwgxr2cjy6y",767,"62.csv","","null","resources/images/coin2.png","null","",NA,NA,NA,NA,""
"image-keyboard-response",584,530913,"0.0-3.191-0.191","wnumbwgxr2cjy6y",767,"62.csv","","373.90000009536743","resources/trios/L1T2A2.jpg","39","restless",0.5,0.3,0.6,0.80549794751469,"false"
"image-keyboard-response",585,531322,"0.0-3.191-1.191","wnumbwgxr2cjy6y",767,"62.csv","","null","resources/maskTrios/BBA2.jpg","null","",NA,NA,NA,NA,""
"image-keyboard-response",586,532536,"0.0-3.191-2.191","wnumbwgxr2cjy6y",767,"62.csv","","null","resources/images/fishbone.png","null","",NA,NA,NA,NA,""
"image-keyboard-response",587,532875,"0.0-3.192-0.192","wnumbwgxr2cjy6y",767,"62.csv","","337.30000019073486","resources/trios/L1T2A3.jpg","37","restless",0.4,0.3,0.6,0.247976899034848,"true"
"image-keyboard-response",588,533292,"0.0-3.192-1.192","wnumbwgxr2cjy6y",767,"62.csv","","null","resources/maskTrios/L1BB.jpg","null","",NA,NA,NA,NA,""
"image-keyboard-response",589,534509,"0.0-3.192-2.192","wnumbwgxr2cjy6y",767,"62.csv","","null","resources/images/coin2.png","null","",NA,NA,NA,NA,""
"image-keyboard-response",590,534841,"0.0-3.193-0.193","wnumbwgxr2cjy6y",767,"62.csv","","330.2000002861023","resources/trios/L1T2A3.jpg","37","restless",0.4,0.3,0.6,0.868417260727518,"false"
"image-keyboard-response",591,535253,"0.0-3.193-1.193","wnumbwgxr2cjy6y",767,"62.csv","","null","resources/maskTrios/L1BB.jpg","null","",NA,NA,NA,NA,""
"image-keyboard-response",592,536455,"0.0-3.193-2.193","wnumbwgxr2cjy6y",767,"62.csv","","null","resources/images/fishbone.png","null","",NA,NA,NA,NA,""
"image-keyboard-response",593,536820,"0.0-3.194-0.194","wnumbwgxr2cjy6y",767,"62.csv","","364.09999990463257","resources/trios/L2T4A2.jpg","38","restless",0.4,0.3,0.6,0.969646787643956,"false"
"image-keyboard-response",594,537223,"0.0-3.194-1.194","wnumbwgxr2cjy6y",767,"62.csv","","null","resources/maskTrios/BT4B.jpg","null","",NA,NA,NA,NA,""
"image-keyboard-response",595,538432,"0.0-3.194-2.194","wnumbwgxr2cjy6y",767,"62.csv","","null","resources/images/fishbone.png","null","",NA,NA,NA,NA,""
"image-keyboard-response",596,538824,"0.0-3.195-0.195","wnumbwgxr2cjy6y",767,"62.csv","","390.7000002861023","resources/trios/L1T4A3.jpg","39","restless",0.4,0.3,0.6,0.325557695729368,"true"
"image-keyboard-response",597,539228,"0.0-3.195-1.195","wnumbwgxr2cjy6y",767,"62.csv","","null","resources/maskTrios/BBA3.jpg","null","",NA,NA,NA,NA,""
"image-keyboard-response",598,540435,"0.0-3.195-2.195","wnumbwgxr2cjy6y",767,"62.csv","","null","resources/images/coin2.png","null","",NA,NA,NA,NA,""
"image-keyboard-response",599,540796,"0.0-3.196-0.196","wnumbwgxr2cjy6y",767,"62.csv","","359.69999980926514","resources/trios/L1T4A3.jpg","39","restless",0.4,0.3,0.6,0.578222815303207,"true"
"image-keyboard-response",600,541199,"0.0-3.196-1.196","wnumbwgxr2cjy6y",767,"62.csv","","null","resources/maskTrios/BBA3.jpg","null","",NA,NA,NA,NA,""
"image-keyboard-response",601,542401,"0.0-3.196-2.196","wnumbwgxr2cjy6y",767,"62.csv","","null","resources/images/coin2.png","null","",NA,NA,NA,NA,""
"image-keyboard-response",602,542683,"0.0-3.197-0.197","wnumbwgxr2cjy6y",767,"62.csv","","280.2999997138977","resources/trios/L2T2A2.jpg","39","restless",0.4,0.3,0.6,0.396677644769259,"true"
"image-keyboard-response",603,543086,"0.0-3.197-1.197","wnumbwgxr2cjy6y",767,"62.csv","","null","resources/maskTrios/BBA2.jpg","null","",NA,NA,NA,NA,""
"image-keyboard-response",604,544288,"0.0-3.197-2.197","wnumbwgxr2cjy6y",767,"62.csv","","null","resources/images/coin2.png","null","",NA,NA,NA,NA,""
"image-keyboard-response",605,544856,"0.0-3.198-0.198","wnumbwgxr2cjy6y",767,"62.csv","","566.3999996185303","resources/trios/L2T2A2.jpg","39","restless",0.4,0.3,0.6,0.758408674829429,"false"
"image-keyboard-response",606,545270,"0.0-3.198-1.198","wnumbwgxr2cjy6y",767,"62.csv","","null","resources/maskTrios/BBA2.jpg","null","",NA,NA,NA,NA,""
"image-keyboard-response",607,546475,"0.0-3.198-2.198","wnumbwgxr2cjy6y",767,"62.csv","","null","resources/images/fishbone.png","null","",NA,NA,NA,NA,""
"image-keyboard-response",608,546686,"0.0-3.199-0.199","wnumbwgxr2cjy6y",767,"62.csv","","209.5","resources/trios/L2T2A2.jpg","37","restless",0.4,0.3,0.6,0.145395672259325,"true"
