"trial_type","trial_index","time_elapsed","internal_node_id","subject","participantCode","walkNumber","success","rt","stimulus","key_press","test_part","leftProb","midProb","rightProb","generatedNum","correct"
"pavlovia",0,933,"0.0-0.0","27vew4dgqp7ao2p",109,"103.csv","","","","","",NA,NA,NA,NA,""
"fullscreen",1,22381,"0.0-1.0","27vew4dgqp7ao2p",109,"103.csv","true","","","","",NA,NA,NA,NA,""
"html-keyboard-response",2,36747,"0.0-2.0-0.0","27vew4dgqp7ao2p",109,"103.csv","","14364.099999964237","<p><font size='6'>Arrrgh!</p></font><p>Can you be the best pirate? Try to find lots of gold! But beware, some islands have more gold than others, and over time, the island with the most gold may change. Can YOU figure it out? </p><font size='6'>GOOD LUCK, CAPTAIN!!!</font><p>Press any key to begin</p>","72","",NA,NA,NA,NA,""
"image-keyboard-response",3,39750,"0.0-2.0-1.0","27vew4dgqp7ao2p",109,"103.csv","","null","resources/image_sets/111.png","null","",NA,NA,NA,NA,""
"image-keyboard-response",4,55974,"0.0-2.0-2.0","27vew4dgqp7ao2p",109,"103.csv","","16221.5","resources/image_sets/left_highlight.png","37","",NA,NA,NA,NA,""
"image-keyboard-response",5,59167,"0.0-2.0-3.0","27vew4dgqp7ao2p",109,"103.csv","","3191","resources/image_sets/mid_highlight.png","38","",NA,NA,NA,NA,""
"image-keyboard-response",6,60139,"0.0-2.0-4.0","27vew4dgqp7ao2p",109,"103.csv","","969.5999999642372","resources/image_sets/right_highlight.png","39","",NA,NA,NA,NA,""
"image-keyboard-response",7,62898,"0.0-2.0-5.0","27vew4dgqp7ao2p",109,"103.csv","","2757.100000023842","resources/image_sets/111.png","13","",NA,NA,NA,NA,""
"image-keyboard-response",8,65531,"0.0-2.0-6.0","27vew4dgqp7ao2p",109,"103.csv","","2630.899999976158","resources/images/coin2.png","13","",NA,NA,NA,NA,""
"image-keyboard-response",9,67256,"0.0-2.0-7.0","27vew4dgqp7ao2p",109,"103.csv","","1723.8999999761581","resources/images/fishbone.png","13","",NA,NA,NA,NA,""
"html-keyboard-response",10,71780,"0.0-2.0-8.0","27vew4dgqp7ao2p",109,"103.csv","","4522.199999988079","<p>Your first journey will be a long one, but you will get a well deserved break at the end</p><p>After the break you will have four more journeys, but each will be much shorter than the first, and you will have breaks in between each</p><p>Press Enter to begin</p>","13","",NA,NA,NA,NA,""
"image-keyboard-response",11,73755,"0.0-3.0-0.0","27vew4dgqp7ao2p",109,"103.csv","","1970.9000000357628","resources/trios/L4T1A2.jpg","38","restless",0.3,0.9,0.7,0.676405164421685,"true"
"image-keyboard-response",12,74160,"0.0-3.0-1.0","27vew4dgqp7ao2p",109,"103.csv","","null","resources/maskTrios/BT1B.jpg","null","",NA,NA,NA,NA,""
"image-keyboard-response",13,75371,"0.0-3.0-2.0","27vew4dgqp7ao2p",109,"103.csv","","null","resources/images/coin2.png","null","",NA,NA,NA,NA,""
"image-keyboard-response",14,78184,"0.0-3.1-0.1","27vew4dgqp7ao2p",109,"103.csv","","2810.7999999523163","resources/trios/L1T4A2.jpg","38","restless",0.3,0.8,0.7,0.552639137516155,"true"
"image-keyboard-response",15,78588,"0.0-3.1-1.1","27vew4dgqp7ao2p",109,"103.csv","","null","resources/maskTrios/BT4B.jpg","null","",NA,NA,NA,NA,""
"image-keyboard-response",16,79790,"0.0-3.1-2.1","27vew4dgqp7ao2p",109,"103.csv","","null","resources/images/coin2.png","null","",NA,NA,NA,NA,""
"image-keyboard-response",17,84849,"0.0-3.2-0.2","27vew4dgqp7ao2p",109,"103.csv","","5056.899999976158","resources/trios/L4T4A3.jpg","37","restless",0.3,0.8,0.7,0.0070003343112377,"true"
"image-keyboard-response",18,85252,"0.0-3.2-1.2","27vew4dgqp7ao2p",109,"103.csv","","null","resources/maskTrios/L4BB.jpg","null","",NA,NA,NA,NA,""
"image-keyboard-response",19,86455,"0.0-3.2-2.2","27vew4dgqp7ao2p",109,"103.csv","","null","resources/images/coin2.png","null","",NA,NA,NA,NA,""
"image-keyboard-response",20,89417,"0.0-3.3-0.3","27vew4dgqp7ao2p",109,"103.csv","","2960.100000023842","resources/trios/L1T1A3.jpg","37","restless",0.3,0.8,0.7,0.0900352326477238,"true"
"image-keyboard-response",21,89823,"0.0-3.3-1.3","27vew4dgqp7ao2p",109,"103.csv","","null","resources/maskTrios/L1BB.jpg","null","",NA,NA,NA,NA,""
"image-keyboard-response",22,91025,"0.0-3.3-2.3","27vew4dgqp7ao2p",109,"103.csv","","null","resources/images/coin2.png","null","",NA,NA,NA,NA,""
"image-keyboard-response",23,95265,"0.0-3.4-0.4","27vew4dgqp7ao2p",109,"103.csv","","4238.300000011921","resources/trios/L4T1A3.jpg","39","restless",0.3,0.7,0.7,0.589223900817873,"true"
"image-keyboard-response",24,95669,"0.0-3.4-1.4","27vew4dgqp7ao2p",109,"103.csv","","null","resources/maskTrios/BBA3.jpg","null","",NA,NA,NA,NA,""
"image-keyboard-response",25,96872,"0.0-3.4-2.4","27vew4dgqp7ao2p",109,"103.csv","","null","resources/images/coin2.png","null","",NA,NA,NA,NA,""
"image-keyboard-response",26,98881,"0.0-3.5-0.5","27vew4dgqp7ao2p",109,"103.csv","","2007.199999988079","resources/trios/L1T4A2.jpg","39","restless",0.3,0.7,0.7,0.00779934637331481,"true"
"image-keyboard-response",27,99285,"0.0-3.5-1.5","27vew4dgqp7ao2p",109,"103.csv","","null","resources/maskTrios/BBA2.jpg","null","",NA,NA,NA,NA,""
"image-keyboard-response",28,100488,"0.0-3.5-2.5","27vew4dgqp7ao2p",109,"103.csv","","null","resources/images/coin2.png","null","",NA,NA,NA,NA,""
"image-keyboard-response",29,102578,"0.0-3.6-0.6","27vew4dgqp7ao2p",109,"103.csv","","2088.099999964237","resources/trios/L1T1A3.jpg","38","restless",0.3,0.7,0.8,0.786425539643413,"false"
"image-keyboard-response",30,102981,"0.0-3.6-1.6","27vew4dgqp7ao2p",109,"103.csv","","null","resources/maskTrios/BT1B.jpg","null","",NA,NA,NA,NA,""
"image-keyboard-response",31,104183,"0.0-3.6-2.6","27vew4dgqp7ao2p",109,"103.csv","","null","resources/images/fishbone.png","null","",NA,NA,NA,NA,""
"image-keyboard-response",32,106310,"0.0-3.7-0.7","27vew4dgqp7ao2p",109,"103.csv","","2125.2000000476837","resources/trios/L4T1A3.jpg","37","restless",0.2,0.7,0.8,0.444058106377586,"false"
"image-keyboard-response",33,106714,"0.0-3.7-1.7","27vew4dgqp7ao2p",109,"103.csv","","null","resources/maskTrios/L4BB.jpg","null","",NA,NA,NA,NA,""
"image-keyboard-response",34,107916,"0.0-3.7-2.7","27vew4dgqp7ao2p",109,"103.csv","","null","resources/images/fishbone.png","null","",NA,NA,NA,NA,""
"image-keyboard-response",35,111746,"0.0-3.8-0.8","27vew4dgqp7ao2p",109,"103.csv","","3827.5","resources/trios/L4T1A3.jpg","37","restless",0.2,0.7,0.8,0.272740480547882,"false"
"image-keyboard-response",36,112149,"0.0-3.8-1.8","27vew4dgqp7ao2p",109,"103.csv","","null","resources/maskTrios/L4BB.jpg","null","",NA,NA,NA,NA,""
"image-keyboard-response",37,113352,"0.0-3.8-2.8","27vew4dgqp7ao2p",109,"103.csv","","null","resources/images/fishbone.png","null","",NA,NA,NA,NA,""
"image-keyboard-response",38,114387,"0.0-3.9-0.9","27vew4dgqp7ao2p",109,"103.csv","","1033.4000000357628","resources/trios/L4T4A2.jpg","38","restless",0.2,0.7,0.8,0.99209929258482,"false"
"image-keyboard-response",39,114788,"0.0-3.9-1.9","27vew4dgqp7ao2p",109,"103.csv","","null","resources/maskTrios/BT4B.jpg","null","",NA,NA,NA,NA,""
"image-keyboard-response",40,115991,"0.0-3.9-2.9","27vew4dgqp7ao2p",109,"103.csv","","null","resources/images/fishbone.png","null","",NA,NA,NA,NA,""
"image-keyboard-response",41,116787,"0.0-3.10-0.10","27vew4dgqp7ao2p",109,"103.csv","","793.7999999523163","resources/trios/L1T4A3.jpg","39","restless",0.2,0.7,0.8,0.319870320394801,"true"
"image-keyboard-response",42,117191,"0.0-3.10-1.10","27vew4dgqp7ao2p",109,"103.csv","","null","resources/maskTrios/BBA3.jpg","null","",NA,NA,NA,NA,""
"image-keyboard-response",43,118394,"0.0-3.10-2.10","27vew4dgqp7ao2p",109,"103.csv","","null","resources/images/coin2.png","null","",NA,NA,NA,NA,""
"image-keyboard-response",44,122293,"0.0-3.11-0.11","27vew4dgqp7ao2p",109,"103.csv","","3896.400000035763","resources/trios/L1T4A2.jpg","38","restless",0.2,0.7,0.8,0.901436037081576,"false"
"image-keyboard-response",45,122696,"0.0-3.11-1.11","27vew4dgqp7ao2p",109,"103.csv","","null","resources/maskTrios/BT4B.jpg","null","",NA,NA,NA,NA,""
"image-keyboard-response",46,123900,"0.0-3.11-2.11","27vew4dgqp7ao2p",109,"103.csv","","null","resources/images/fishbone.png","null","",NA,NA,NA,NA,""
"image-keyboard-response",47,124430,"0.0-3.12-0.12","27vew4dgqp7ao2p",109,"103.csv","","528.8000000119209","resources/trios/L1T1A3.jpg","39","restless",0.2,0.7,0.8,0.263449426978724,"true"
"image-keyboard-response",48,124835,"0.0-3.12-1.12","27vew4dgqp7ao2p",109,"103.csv","","null","resources/maskTrios/BBA3.jpg","null","",NA,NA,NA,NA,""
"image-keyboard-response",49,126038,"0.0-3.12-2.12","27vew4dgqp7ao2p",109,"103.csv","","null","resources/images/coin2.png","null","",NA,NA,NA,NA,""
"image-keyboard-response",50,126377,"0.0-3.13-0.13","27vew4dgqp7ao2p",109,"103.csv","","337.4000000357628","resources/trios/L1T4A2.jpg","39","restless",0.2,0.7,0.8,0.773342327485306,"true"
"image-keyboard-response",51,126780,"0.0-3.13-1.13","27vew4dgqp7ao2p",109,"103.csv","","null","resources/maskTrios/BBA2.jpg","null","",NA,NA,NA,NA,""
"image-keyboard-response",52,127983,"0.0-3.13-2.13","27vew4dgqp7ao2p",109,"103.csv","","null","resources/images/coin2.png","null","",NA,NA,NA,NA,""
"image-keyboard-response",53,129017,"0.0-3.14-0.14","27vew4dgqp7ao2p",109,"103.csv","","1031.9000000357628","resources/trios/L1T4A3.jpg","39","restless",0.2,0.7,0.8,0.23125290228495,"true"
"image-keyboard-response",54,129421,"0.0-3.14-1.14","27vew4dgqp7ao2p",109,"103.csv","","null","resources/maskTrios/BBA3.jpg","null","",NA,NA,NA,NA,""
"image-keyboard-response",55,130623,"0.0-3.14-2.14","27vew4dgqp7ao2p",109,"103.csv","","null","resources/images/coin2.png","null","",NA,NA,NA,NA,""
"image-keyboard-response",56,131137,"0.0-3.15-0.15","27vew4dgqp7ao2p",109,"103.csv","","512.3000000119209","resources/trios/L4T1A3.jpg","39","restless",0.2,0.7,0.8,0.383035362727519,"true"
"image-keyboard-response",57,131541,"0.0-3.15-1.15","27vew4dgqp7ao2p",109,"103.csv","","null","resources/maskTrios/BBA3.jpg","null","",NA,NA,NA,NA,""
"image-keyboard-response",58,132743,"0.0-3.15-2.15","27vew4dgqp7ao2p",109,"103.csv","","null","resources/images/coin2.png","null","",NA,NA,NA,NA,""
"image-keyboard-response",59,133139,"0.0-3.16-0.16","27vew4dgqp7ao2p",109,"103.csv","","393","resources/trios/L1T4A2.jpg","39","restless",0.2,0.7,0.8,0.620787472864077,"true"
"image-keyboard-response",60,133542,"0.0-3.16-1.16","27vew4dgqp7ao2p",109,"103.csv","","null","resources/maskTrios/BBA2.jpg","null","",NA,NA,NA,NA,""
"image-keyboard-response",61,134745,"0.0-3.16-2.16","27vew4dgqp7ao2p",109,"103.csv","","null","resources/images/coin2.png","null","",NA,NA,NA,NA,""
"image-keyboard-response",62,135148,"0.0-3.17-0.17","27vew4dgqp7ao2p",109,"103.csv","","401","resources/trios/L4T4A2.jpg","39","restless",0.2,0.7,0.8,0.0846150092200266,"true"
"image-keyboard-response",63,135550,"0.0-3.17-1.17","27vew4dgqp7ao2p",109,"103.csv","","null","resources/maskTrios/BBA2.jpg","null","",NA,NA,NA,NA,""
"image-keyboard-response",64,136752,"0.0-3.17-2.17","27vew4dgqp7ao2p",109,"103.csv","","null","resources/images/coin2.png","null","",NA,NA,NA,NA,""
"image-keyboard-response",65,137041,"0.0-3.18-0.18","27vew4dgqp7ao2p",109,"103.csv","","286.30000001192093","resources/trios/L4T4A2.jpg","39","restless",0.2,0.7,0.9,0.0231609026376849,"true"
"image-keyboard-response",66,137444,"0.0-3.18-1.18","27vew4dgqp7ao2p",109,"103.csv","","null","resources/maskTrios/BBA2.jpg","null","",NA,NA,NA,NA,""
"image-keyboard-response",67,138647,"0.0-3.18-2.18","27vew4dgqp7ao2p",109,"103.csv","","null","resources/images/coin2.png","null","",NA,NA,NA,NA,""
"image-keyboard-response",68,138977,"0.0-3.19-0.19","27vew4dgqp7ao2p",109,"103.csv","","327.60000002384186","resources/trios/L1T4A3.jpg","39","restless",0.1,0.7,0.9,0.771372179432887,"true"
"image-keyboard-response",69,139380,"0.0-3.19-1.19","27vew4dgqp7ao2p",109,"103.csv","","null","resources/maskTrios/BBA3.jpg","null","",NA,NA,NA,NA,""
"image-keyboard-response",70,140584,"0.0-3.19-2.19","27vew4dgqp7ao2p",109,"103.csv","","null","resources/images/coin2.png","null","",NA,NA,NA,NA,""
"image-keyboard-response",71,140817,"0.0-3.20-0.20","27vew4dgqp7ao2p",109,"103.csv","","232","resources/trios/L4T4A3.jpg","39","restless",0.1,0.7,0.9,0.997311939423594,"false"
"image-keyboard-response",72,141219,"0.0-3.20-1.20","27vew4dgqp7ao2p",109,"103.csv","","null","resources/maskTrios/BBA3.jpg","null","",NA,NA,NA,NA,""
"image-keyboard-response",73,142422,"0.0-3.20-2.20","27vew4dgqp7ao2p",109,"103.csv","","null","resources/images/fishbone.png","null","",NA,NA,NA,NA,""
"image-keyboard-response",74,143014,"0.0-3.21-0.21","27vew4dgqp7ao2p",109,"103.csv","","589.5","resources/trios/L4T4A3.jpg","37","restless",0.1,0.7,0.9,0.674143174551873,"false"
"image-keyboard-response",75,143415,"0.0-3.21-1.21","27vew4dgqp7ao2p",109,"103.csv","","null","resources/maskTrios/L4BB.jpg","null","",NA,NA,NA,NA,""
"image-keyboard-response",76,144618,"0.0-3.21-2.21","27vew4dgqp7ao2p",109,"103.csv","","null","resources/images/fishbone.png","null","",NA,NA,NA,NA,""
"image-keyboard-response",77,144916,"0.0-3.22-0.22","27vew4dgqp7ao2p",109,"103.csv","","295.39999997615814","resources/trios/L4T1A2.jpg","38","restless",0.1,0.8,0.9,0.164171869430186,"true"
"image-keyboard-response",78,145320,"0.0-3.22-1.22","27vew4dgqp7ao2p",109,"103.csv","","null","resources/maskTrios/BT1B.jpg","null","",NA,NA,NA,NA,""
"image-keyboard-response",79,146523,"0.0-3.22-2.22","27vew4dgqp7ao2p",109,"103.csv","","null","resources/images/coin2.png","null","",NA,NA,NA,NA,""
"image-keyboard-response",80,146810,"0.0-3.23-0.23","27vew4dgqp7ao2p",109,"103.csv","","285.0999999642372","resources/trios/L1T1A3.jpg","38","restless",0.1,0.8,0.9,0.390326265934835,"true"
"image-keyboard-response",81,147214,"0.0-3.23-1.23","27vew4dgqp7ao2p",109,"103.csv","","null","resources/maskTrios/BT1B.jpg","null","",NA,NA,NA,NA,""
"image-keyboard-response",82,148417,"0.0-3.23-2.23","27vew4dgqp7ao2p",109,"103.csv","","null","resources/images/coin2.png","null","",NA,NA,NA,NA,""
"image-keyboard-response",83,148637,"0.0-3.24-0.24","27vew4dgqp7ao2p",109,"103.csv","","217","resources/trios/L1T1A2.jpg","38","restless",0.1,0.8,0.9,0.191588546118386,"true"
"image-keyboard-response",84,149040,"0.0-3.24-1.24","27vew4dgqp7ao2p",109,"103.csv","","null","resources/maskTrios/BT1B.jpg","null","",NA,NA,NA,NA,""
"image-keyboard-response",85,150243,"0.0-3.24-2.24","27vew4dgqp7ao2p",109,"103.csv","","null","resources/images/coin2.png","null","",NA,NA,NA,NA,""
"image-keyboard-response",86,151223,"0.0-3.25-0.25","27vew4dgqp7ao2p",109,"103.csv","","977.8000000119209","resources/trios/L1T4A3.jpg","38","restless",0.1,0.7,0.9,0.346165821009651,"true"
"image-keyboard-response",87,151626,"0.0-3.25-1.25","27vew4dgqp7ao2p",109,"103.csv","","null","resources/maskTrios/BT4B.jpg","null","",NA,NA,NA,NA,""
"image-keyboard-response",88,152829,"0.0-3.25-2.25","27vew4dgqp7ao2p",109,"103.csv","","null","resources/images/coin2.png","null","",NA,NA,NA,NA,""
"image-keyboard-response",89,153131,"0.0-3.26-0.26","27vew4dgqp7ao2p",109,"103.csv","","298.60000002384186","resources/trios/L4T1A3.jpg","38","restless",0.1,0.7,0.9,0.219033438280257,"true"
"image-keyboard-response",90,153534,"0.0-3.26-1.26","27vew4dgqp7ao2p",109,"103.csv","","null","resources/maskTrios/BT1B.jpg","null","",NA,NA,NA,NA,""
"image-keyboard-response",91,154737,"0.0-3.26-2.26","27vew4dgqp7ao2p",109,"103.csv","","null","resources/images/coin2.png","null","",NA,NA,NA,NA,""
"image-keyboard-response",92,154809,"0.0-3.27-0.27","27vew4dgqp7ao2p",109,"103.csv","","70.5","resources/trios/L1T4A3.jpg","38","restless",0.1,0.7,0.8,0.403467092788372,"true"
"image-keyboard-response",93,155213,"0.0-3.27-1.27","27vew4dgqp7ao2p",109,"103.csv","","null","resources/maskTrios/BT4B.jpg","null","",NA,NA,NA,NA,""
"image-keyboard-response",94,156416,"0.0-3.27-2.27","27vew4dgqp7ao2p",109,"103.csv","","null","resources/images/coin2.png","null","",NA,NA,NA,NA,""
"image-keyboard-response",95,156699,"0.0-3.28-0.28","27vew4dgqp7ao2p",109,"103.csv","","280.5","resources/trios/L4T4A2.jpg","38","restless",0.1,0.7,0.8,0.413469045904685,"true"
"image-keyboard-response",96,157103,"0.0-3.28-1.28","27vew4dgqp7ao2p",109,"103.csv","","null","resources/maskTrios/BT4B.jpg","null","",NA,NA,NA,NA,""
"image-keyboard-response",97,158306,"0.0-3.28-2.28","27vew4dgqp7ao2p",109,"103.csv","","null","resources/images/coin2.png","null","",NA,NA,NA,NA,""
"image-keyboard-response",98,158348,"0.0-3.29-0.29","27vew4dgqp7ao2p",109,"103.csv","","39.80000001192093","resources/trios/L1T4A3.jpg","38","restless",0.1,0.7,0.8,0.541889179504283,"true"
"image-keyboard-response",99,158751,"0.0-3.29-1.29","27vew4dgqp7ao2p",109,"103.csv","","null","resources/maskTrios/BT4B.jpg","null","",NA,NA,NA,NA,""
"image-keyboard-response",100,159954,"0.0-3.29-2.29","27vew4dgqp7ao2p",109,"103.csv","","null","resources/images/coin2.png","null","",NA,NA,NA,NA,""
"image-keyboard-response",101,160229,"0.0-3.30-0.30","27vew4dgqp7ao2p",109,"103.csv","","272.2999999523163","resources/trios/L4T4A3.jpg","38","restless",0.1,0.7,0.8,0.837921602591854,"false"
"image-keyboard-response",102,160632,"0.0-3.30-1.30","27vew4dgqp7ao2p",109,"103.csv","","null","resources/maskTrios/BT4B.jpg","null","",NA,NA,NA,NA,""
"image-keyboard-response",103,161833,"0.0-3.30-2.30","27vew4dgqp7ao2p",109,"103.csv","","null","resources/images/fishbone.png","null","",NA,NA,NA,NA,""
"image-keyboard-response",104,162251,"0.0-3.31-0.31","27vew4dgqp7ao2p",109,"103.csv","","414.69999998807907","resources/trios/L1T4A2.jpg","37","restless",0.1,0.6,0.8,0.859303265597086,"false"
"image-keyboard-response",105,162654,"0.0-3.31-1.31","27vew4dgqp7ao2p",109,"103.csv","","null","resources/maskTrios/L1BB.jpg","null","",NA,NA,NA,NA,""
"image-keyboard-response",106,163856,"0.0-3.31-2.31","27vew4dgqp7ao2p",109,"103.csv","","null","resources/images/fishbone.png","null","",NA,NA,NA,NA,""
"image-keyboard-response",107,164194,"0.0-3.32-0.32","27vew4dgqp7ao2p",109,"103.csv","","335.2000000476837","resources/trios/L1T4A3.jpg","39","restless",0.2,0.6,0.8,0.619894069238433,"true"
"image-keyboard-response",108,164595,"0.0-3.32-1.32","27vew4dgqp7ao2p",109,"103.csv","","null","resources/maskTrios/BBA3.jpg","null","",NA,NA,NA,NA,""
"image-keyboard-response",109,165801,"0.0-3.32-2.32","27vew4dgqp7ao2p",109,"103.csv","","null","resources/images/coin2.png","null","",NA,NA,NA,NA,""
"image-keyboard-response",110,166107,"0.0-3.33-0.33","27vew4dgqp7ao2p",109,"103.csv","","304.39999997615814","resources/trios/L4T4A2.jpg","39","restless",0.2,0.6,0.8,0.0447628697490385,"true"
"image-keyboard-response",111,166514,"0.0-3.33-1.33","27vew4dgqp7ao2p",109,"103.csv","","null","resources/maskTrios/BBA2.jpg","null","",NA,NA,NA,NA,""
"image-keyboard-response",112,167717,"0.0-3.33-2.33","27vew4dgqp7ao2p",109,"103.csv","","null","resources/images/coin2.png","null","",NA,NA,NA,NA,""
"image-keyboard-response",113,167963,"0.0-3.34-0.34","27vew4dgqp7ao2p",109,"103.csv","","243.19999998807907","resources/trios/L1T1A3.jpg","39","restless",0.2,0.6,0.8,0.270182381400162,"true"
"image-keyboard-response",114,168368,"0.0-3.34-1.34","27vew4dgqp7ao2p",109,"103.csv","","null","resources/maskTrios/BBA3.jpg","null","",NA,NA,NA,NA,""
"image-keyboard-response",115,169571,"0.0-3.34-2.34","27vew4dgqp7ao2p",109,"103.csv","","null","resources/images/coin2.png","null","",NA,NA,NA,NA,""
"image-keyboard-response",116,169862,"0.0-3.35-0.35","27vew4dgqp7ao2p",109,"103.csv","","288.5","resources/trios/L4T1A2.jpg","39","restless",0.2,0.6,0.8,0.508045578514572,"true"
"image-keyboard-response",117,170267,"0.0-3.35-1.35","27vew4dgqp7ao2p",109,"103.csv","","null","resources/maskTrios/BBA2.jpg","null","",NA,NA,NA,NA,""
"image-keyboard-response",118,171470,"0.0-3.35-2.35","27vew4dgqp7ao2p",109,"103.csv","","null","resources/images/coin2.png","null","",NA,NA,NA,NA,""
"image-keyboard-response",119,171741,"0.0-3.36-0.36","27vew4dgqp7ao2p",109,"103.csv","","268.30000001192093","resources/trios/L1T1A2.jpg","39","restless",0.2,0.6,0.8,0.612848813901718,"true"
"image-keyboard-response",120,172144,"0.0-3.36-1.36","27vew4dgqp7ao2p",109,"103.csv","","null","resources/maskTrios/BBA2.jpg","null","",NA,NA,NA,NA,""
"image-keyboard-response",121,173350,"0.0-3.36-2.36","27vew4dgqp7ao2p",109,"103.csv","","null","resources/images/coin2.png","null","",NA,NA,NA,NA,""
"image-keyboard-response",122,173643,"0.0-3.37-0.37","27vew4dgqp7ao2p",109,"103.csv","","292.0999999642372","resources/trios/L1T1A3.jpg","39","restless",0.2,0.5,0.8,0.311415261593598,"true"
"image-keyboard-response",123,174046,"0.0-3.37-1.37","27vew4dgqp7ao2p",109,"103.csv","","null","resources/maskTrios/BBA3.jpg","null","",NA,NA,NA,NA,""
"image-keyboard-response",124,175249,"0.0-3.37-2.37","27vew4dgqp7ao2p",109,"103.csv","","null","resources/images/coin2.png","null","",NA,NA,NA,NA,""
"image-keyboard-response",125,175765,"0.0-3.38-0.38","27vew4dgqp7ao2p",109,"103.csv","","513.3999999761581","resources/trios/L1T1A3.jpg","39","restless",0.2,0.5,0.7,0.685822685832324,"true"
"image-keyboard-response",126,176172,"0.0-3.38-1.38","27vew4dgqp7ao2p",109,"103.csv","","null","resources/maskTrios/BBA3.jpg","null","",NA,NA,NA,NA,""
"image-keyboard-response",127,177375,"0.0-3.38-2.38","27vew4dgqp7ao2p",109,"103.csv","","null","resources/images/coin2.png","null","",NA,NA,NA,NA,""
"image-keyboard-response",128,177652,"0.0-3.39-0.39","27vew4dgqp7ao2p",109,"103.csv","","274.80000001192093","resources/trios/L4T1A3.jpg","39","restless",0.2,0.4,0.7,0.00777463915022869,"true"
"image-keyboard-response",129,178058,"0.0-3.39-1.39","27vew4dgqp7ao2p",109,"103.csv","","null","resources/maskTrios/BBA3.jpg","null","",NA,NA,NA,NA,""
"image-keyboard-response",130,179260,"0.0-3.39-2.39","27vew4dgqp7ao2p",109,"103.csv","","null","resources/images/coin2.png","null","",NA,NA,NA,NA,""
"image-keyboard-response",131,179573,"0.0-3.40-0.40","27vew4dgqp7ao2p",109,"103.csv","","312","resources/trios/L4T1A3.jpg","39","restless",0.2,0.4,0.7,0.251953429426673,"true"
"image-keyboard-response",132,179976,"0.0-3.40-1.40","27vew4dgqp7ao2p",109,"103.csv","","null","resources/maskTrios/BBA3.jpg","null","",NA,NA,NA,NA,""
"image-keyboard-response",133,181179,"0.0-3.40-2.40","27vew4dgqp7ao2p",109,"103.csv","","null","resources/images/coin2.png","null","",NA,NA,NA,NA,""
"image-keyboard-response",134,181457,"0.0-3.41-0.41","27vew4dgqp7ao2p",109,"103.csv","","276.19999998807907","resources/trios/L1T4A2.jpg","39","restless",0.2,0.4,0.6,0.987850130954772,"false"
"image-keyboard-response",135,181859,"0.0-3.41-1.41","27vew4dgqp7ao2p",109,"103.csv","","null","resources/maskTrios/BBA2.jpg","null","",NA,NA,NA,NA,""
"image-keyboard-response",136,183061,"0.0-3.41-2.41","27vew4dgqp7ao2p",109,"103.csv","","null","resources/images/fishbone.png","null","",NA,NA,NA,NA,""
"image-keyboard-response",137,183595,"0.0-3.42-0.42","27vew4dgqp7ao2p",109,"103.csv","","532.9000000357628","resources/trios/L1T4A3.jpg","38","restless",0.2,0.4,0.6,0.757125159962174,"false"
"image-keyboard-response",138,183998,"0.0-3.42-1.42","27vew4dgqp7ao2p",109,"103.csv","","null","resources/maskTrios/BT4B.jpg","null","",NA,NA,NA,NA,""
"image-keyboard-response",139,185200,"0.0-3.42-2.42","27vew4dgqp7ao2p",109,"103.csv","","null","resources/images/fishbone.png","null","",NA,NA,NA,NA,""
"image-keyboard-response",140,186412,"0.0-3.43-0.43","27vew4dgqp7ao2p",109,"103.csv","","1210","resources/trios/L4T1A2.jpg","37","restless",0.2,0.3,0.5,0.934875224949373,"false"
"image-keyboard-response",141,186815,"0.0-3.43-1.43","27vew4dgqp7ao2p",109,"103.csv","","null","resources/maskTrios/L4BB.jpg","null","",NA,NA,NA,NA,""
"image-keyboard-response",142,188018,"0.0-3.43-2.43","27vew4dgqp7ao2p",109,"103.csv","","null","resources/images/fishbone.png","null","",NA,NA,NA,NA,""
"image-keyboard-response",143,188343,"0.0-3.44-0.44","27vew4dgqp7ao2p",109,"103.csv","","323","resources/trios/L4T1A2.jpg","39","restless",0.2,0.3,0.5,0.116904626903306,"true"
"image-keyboard-response",144,188744,"0.0-3.44-1.44","27vew4dgqp7ao2p",109,"103.csv","","null","resources/maskTrios/BBA2.jpg","null","",NA,NA,NA,NA,""
"image-keyboard-response",145,189946,"0.0-3.44-2.44","27vew4dgqp7ao2p",109,"103.csv","","null","resources/images/coin2.png","null","",NA,NA,NA,NA,""
"image-keyboard-response",146,190256,"0.0-3.45-0.45","27vew4dgqp7ao2p",109,"103.csv","","306.80000001192093","resources/trios/L4T1A2.jpg","39","restless",0.2,0.3,0.5,0.138539767302805,"true"
"image-keyboard-response",147,190659,"0.0-3.45-1.45","27vew4dgqp7ao2p",109,"103.csv","","null","resources/maskTrios/BBA2.jpg","null","",NA,NA,NA,NA,""
"image-keyboard-response",148,191861,"0.0-3.45-2.45","27vew4dgqp7ao2p",109,"103.csv","","null","resources/images/coin2.png","null","",NA,NA,NA,NA,""
"image-keyboard-response",149,192282,"0.0-3.46-0.46","27vew4dgqp7ao2p",109,"103.csv","","418.2000000476837","resources/trios/L4T4A3.jpg","39","restless",0.3,0.3,0.5,0.04495092036341,"true"
"image-keyboard-response",150,192684,"0.0-3.46-1.46","27vew4dgqp7ao2p",109,"103.csv","","null","resources/maskTrios/BBA3.jpg","null","",NA,NA,NA,NA,""
"image-keyboard-response",151,193886,"0.0-3.46-2.46","27vew4dgqp7ao2p",109,"103.csv","","null","resources/images/coin2.png","null","",NA,NA,NA,NA,""
"image-keyboard-response",152,194200,"0.0-3.47-0.47","27vew4dgqp7ao2p",109,"103.csv","","311.2000000476837","resources/trios/L4T4A3.jpg","39","restless",0.4,0.3,0.5,0.0640276170713192,"true"
"image-keyboard-response",153,194603,"0.0-3.47-1.47","27vew4dgqp7ao2p",109,"103.csv","","null","resources/maskTrios/BBA3.jpg","null","",NA,NA,NA,NA,""
"image-keyboard-response",154,195807,"0.0-3.47-2.47","27vew4dgqp7ao2p",109,"103.csv","","null","resources/images/coin2.png","null","",NA,NA,NA,NA,""
"image-keyboard-response",155,196120,"0.0-3.48-0.48","27vew4dgqp7ao2p",109,"103.csv","","310.69999998807907","resources/trios/L1T1A2.jpg","39","restless",0.4,0.2,0.5,0.767519670902423,"false"
"image-keyboard-response",156,196522,"0.0-3.48-1.48","27vew4dgqp7ao2p",109,"103.csv","","null","resources/maskTrios/BBA2.jpg","null","",NA,NA,NA,NA,""
"image-keyboard-response",157,197725,"0.0-3.48-2.48","27vew4dgqp7ao2p",109,"103.csv","","null","resources/images/fishbone.png","null","",NA,NA,NA,NA,""
"image-keyboard-response",158,198594,"0.0-3.49-0.49","27vew4dgqp7ao2p",109,"103.csv","","866.8000000119209","resources/trios/L1T4A3.jpg","38","restless",0.4,0.2,0.5,0.256070681045698,"false"
"image-keyboard-response",159,198997,"0.0-3.49-1.49","27vew4dgqp7ao2p",109,"103.csv","","null","resources/maskTrios/BT4B.jpg","null","",NA,NA,NA,NA,""
"image-keyboard-response",160,200200,"0.0-3.49-2.49","27vew4dgqp7ao2p",109,"103.csv","","null","resources/images/fishbone.png","null","",NA,NA,NA,NA,""
"image-keyboard-response",161,200551,"0.0-3.50-0.50","27vew4dgqp7ao2p",109,"103.csv","","348.10000002384186","resources/trios/L1T4A2.jpg","37","restless",0.4,0.2,0.4,0.211755673176758,"true"
"image-keyboard-response",162,200958,"0.0-3.50-1.50","27vew4dgqp7ao2p",109,"103.csv","","null","resources/maskTrios/L1BB.jpg","null","",NA,NA,NA,NA,""
"image-keyboard-response",163,202161,"0.0-3.50-2.50","27vew4dgqp7ao2p",109,"103.csv","","null","resources/images/coin2.png","null","",NA,NA,NA,NA,""
"image-keyboard-response",164,202491,"0.0-3.51-0.51","27vew4dgqp7ao2p",109,"103.csv","","327.5999999642372","resources/trios/L1T4A3.jpg","37","restless",0.3,0.3,0.4,0.664785575828151,"false"
"image-keyboard-response",165,202894,"0.0-3.51-1.51","27vew4dgqp7ao2p",109,"103.csv","","null","resources/maskTrios/L1BB.jpg","null","",NA,NA,NA,NA,""
"image-keyboard-response",166,204100,"0.0-3.51-2.51","27vew4dgqp7ao2p",109,"103.csv","","null","resources/images/fishbone.png","null","",NA,NA,NA,NA,""
"image-keyboard-response",167,204809,"0.0-3.52-0.52","27vew4dgqp7ao2p",109,"103.csv","","706.1999999880791","resources/trios/L1T4A2.jpg","38","restless",0.3,0.3,0.4,0.120276951086602,"true"
"image-keyboard-response",168,205212,"0.0-3.52-1.52","27vew4dgqp7ao2p",109,"103.csv","","null","resources/maskTrios/BT4B.jpg","null","",NA,NA,NA,NA,""
"image-keyboard-response",169,206419,"0.0-3.52-2.52","27vew4dgqp7ao2p",109,"103.csv","","null","resources/images/coin2.png","null","",NA,NA,NA,NA,""
"image-keyboard-response",170,207135,"0.0-3.53-0.53","27vew4dgqp7ao2p",109,"103.csv","","713.2999999523163","resources/trios/L1T4A3.jpg","39","restless",0.4,0.3,0.4,0.787497379519165,"false"
"image-keyboard-response",171,207538,"0.0-3.53-1.53","27vew4dgqp7ao2p",109,"103.csv","","null","resources/maskTrios/BBA3.jpg","null","",NA,NA,NA,NA,""
"image-keyboard-response",172,208741,"0.0-3.53-2.53","27vew4dgqp7ao2p",109,"103.csv","","null","resources/images/fishbone.png","null","",NA,NA,NA,NA,""
"image-keyboard-response",173,208980,"0.0-3.54-0.54","27vew4dgqp7ao2p",109,"103.csv","","237.5","resources/trios/L4T1A2.jpg","38","restless",0.4,0.3,0.4,0.720088310333061,"false"
"image-keyboard-response",174,209383,"0.0-3.54-1.54","27vew4dgqp7ao2p",109,"103.csv","","null","resources/maskTrios/BT1B.jpg","null","",NA,NA,NA,NA,""
"image-keyboard-response",175,210586,"0.0-3.54-2.54","27vew4dgqp7ao2p",109,"103.csv","","null","resources/images/fishbone.png","null","",NA,NA,NA,NA,""
"image-keyboard-response",176,211358,"0.0-3.55-0.55","27vew4dgqp7ao2p",109,"103.csv","","769.6000000238419","resources/trios/L4T4A2.jpg","37","restless",0.4,0.3,0.4,0.138437531283503,"true"
"image-keyboard-response",177,211764,"0.0-3.55-1.55","27vew4dgqp7ao2p",109,"103.csv","","null","resources/maskTrios/L4BB.jpg","null","",NA,NA,NA,NA,""
"image-keyboard-response",178,212966,"0.0-3.55-2.55","27vew4dgqp7ao2p",109,"103.csv","","null","resources/images/coin2.png","null","",NA,NA,NA,NA,""
"image-keyboard-response",179,213334,"0.0-3.56-0.56","27vew4dgqp7ao2p",109,"103.csv","","365.80000001192093","resources/trios/L1T1A3.jpg","37","restless",0.4,0.3,0.4,0.0822017715857983,"true"
"image-keyboard-response",180,213741,"0.0-3.56-1.56","27vew4dgqp7ao2p",109,"103.csv","","null","resources/maskTrios/L1BB.jpg","null","",NA,NA,NA,NA,""
"image-keyboard-response",181,214944,"0.0-3.56-2.56","27vew4dgqp7ao2p",109,"103.csv","","null","resources/images/coin2.png","null","",NA,NA,NA,NA,""
"image-keyboard-response",182,215192,"0.0-3.57-0.57","27vew4dgqp7ao2p",109,"103.csv","","246.39999997615814","resources/trios/L1T4A3.jpg","37","restless",0.4,0.3,0.4,0.482568435225563,"false"
"image-keyboard-response",183,215597,"0.0-3.57-1.57","27vew4dgqp7ao2p",109,"103.csv","","null","resources/maskTrios/L1BB.jpg","null","",NA,NA,NA,NA,""
"image-keyboard-response",184,216800,"0.0-3.57-2.57","27vew4dgqp7ao2p",109,"103.csv","","null","resources/images/fishbone.png","null","",NA,NA,NA,NA,""
"image-keyboard-response",185,219820,"0.0-3.58-0.58","27vew4dgqp7ao2p",109,"103.csv","","3017.800000011921","resources/trios/L1T4A2.jpg","37","restless",0.4,0.4,0.4,0.801644862759026,"false"
"image-keyboard-response",186,220224,"0.0-3.58-1.58","27vew4dgqp7ao2p",109,"103.csv","","null","resources/maskTrios/L1BB.jpg","null","",NA,NA,NA,NA,""
"image-keyboard-response",187,221428,"0.0-3.58-2.58","27vew4dgqp7ao2p",109,"103.csv","","null","resources/images/fishbone.png","null","",NA,NA,NA,NA,""
"image-keyboard-response",188,229538,"0.0-3.59-0.59","27vew4dgqp7ao2p",109,"103.csv","","8108.599999964237","resources/trios/L4T1A2.jpg","38","restless",0.4,0.4,0.4,0.656443301086181,"false"
"image-keyboard-response",189,229942,"0.0-3.59-1.59","27vew4dgqp7ao2p",109,"103.csv","","null","resources/maskTrios/BT1B.jpg","null","",NA,NA,NA,NA,""
"image-keyboard-response",190,231145,"0.0-3.59-2.59","27vew4dgqp7ao2p",109,"103.csv","","null","resources/images/fishbone.png","null","",NA,NA,NA,NA,""
"image-keyboard-response",191,231632,"0.0-3.60-0.60","27vew4dgqp7ao2p",109,"103.csv","","484.5","resources/trios/L4T1A3.jpg","37","restless",0.3,0.4,0.4,0.695135334484921,"false"
"image-keyboard-response",192,232036,"0.0-3.60-1.60","27vew4dgqp7ao2p",109,"103.csv","","null","resources/maskTrios/L4BB.jpg","null","",NA,NA,NA,NA,""
"image-keyboard-response",193,233239,"0.0-3.60-2.60","27vew4dgqp7ao2p",109,"103.csv","","null","resources/images/fishbone.png","null","",NA,NA,NA,NA,""
"image-keyboard-response",194,234067,"0.0-3.61-0.61","27vew4dgqp7ao2p",109,"103.csv","","825.5","resources/trios/L4T1A3.jpg","39","restless",0.3,0.4,0.4,0.573826301841334,"false"
"image-keyboard-response",195,234470,"0.0-3.61-1.61","27vew4dgqp7ao2p",109,"103.csv","","null","resources/maskTrios/BBA3.jpg","null","",NA,NA,NA,NA,""
"image-keyboard-response",196,235673,"0.0-3.61-2.61","27vew4dgqp7ao2p",109,"103.csv","","null","resources/images/fishbone.png","null","",NA,NA,NA,NA,""
"image-keyboard-response",197,236047,"0.0-3.62-0.62","27vew4dgqp7ao2p",109,"103.csv","","372.19999998807907","resources/trios/L1T4A2.jpg","38","restless",0.3,0.5,0.4,0.179474542944674,"true"
"image-keyboard-response",198,236451,"0.0-3.62-1.62","27vew4dgqp7ao2p",109,"103.csv","","null","resources/maskTrios/BT4B.jpg","null","",NA,NA,NA,NA,""
"image-keyboard-response",199,237654,"0.0-3.62-2.62","27vew4dgqp7ao2p",109,"103.csv","","null","resources/images/coin2.png","null","",NA,NA,NA,NA,""
"image-keyboard-response",200,237904,"0.0-3.63-0.63","27vew4dgqp7ao2p",109,"103.csv","","248.30000001192093","resources/trios/L1T4A2.jpg","38","restless",0.3,0.6,0.4,0.147292752346,"true"
"image-keyboard-response",201,238308,"0.0-3.63-1.63","27vew4dgqp7ao2p",109,"103.csv","","null","resources/maskTrios/BT4B.jpg","null","",NA,NA,NA,NA,""
"image-keyboard-response",202,239511,"0.0-3.63-2.63","27vew4dgqp7ao2p",109,"103.csv","","null","resources/images/coin2.png","null","",NA,NA,NA,NA,""
"image-keyboard-response",203,239742,"0.0-3.64-0.64","27vew4dgqp7ao2p",109,"103.csv","","226.69999998807907","resources/trios/L4T1A2.jpg","38","restless",0.3,0.6,0.4,0.448029484795936,"true"
"image-keyboard-response",204,240149,"0.0-3.64-1.64","27vew4dgqp7ao2p",109,"103.csv","","null","resources/maskTrios/BT1B.jpg","null","",NA,NA,NA,NA,""
"image-keyboard-response",205,241352,"0.0-3.64-2.64","27vew4dgqp7ao2p",109,"103.csv","","null","resources/images/coin2.png","null","",NA,NA,NA,NA,""
"image-keyboard-response",206,242567,"0.0-3.65-0.65","27vew4dgqp7ao2p",109,"103.csv","","1213.2000000476837","resources/trios/L4T1A3.jpg","38","restless",0.3,0.6,0.4,0.645504593963816,"false"
"image-keyboard-response",207,242971,"0.0-3.65-1.65","27vew4dgqp7ao2p",109,"103.csv","","null","resources/maskTrios/BT1B.jpg","null","",NA,NA,NA,NA,""
"image-keyboard-response",208,244172,"0.0-3.65-2.65","27vew4dgqp7ao2p",109,"103.csv","","null","resources/images/fishbone.png","null","",NA,NA,NA,NA,""
"image-keyboard-response",209,244533,"0.0-3.66-0.66","27vew4dgqp7ao2p",109,"103.csv","","358.30000001192093","resources/trios/L4T4A3.jpg","37","restless",0.4,0.6,0.4,0.965835675042745,"false"
"image-keyboard-response",210,244935,"0.0-3.66-1.66","27vew4dgqp7ao2p",109,"103.csv","","null","resources/maskTrios/L4BB.jpg","null","",NA,NA,NA,NA,""
"image-keyboard-response",211,246137,"0.0-3.66-2.66","27vew4dgqp7ao2p",109,"103.csv","","null","resources/images/fishbone.png","null","",NA,NA,NA,NA,""
"image-keyboard-response",212,246385,"0.0-3.67-0.67","27vew4dgqp7ao2p",109,"103.csv","","245.39999997615814","resources/trios/L1T1A2.jpg","39","restless",0.4,0.6,0.5,0.685267106022366,"false"
"image-keyboard-response",213,246787,"0.0-3.67-1.67","27vew4dgqp7ao2p",109,"103.csv","","null","resources/maskTrios/BBA2.jpg","null","",NA,NA,NA,NA,""
"image-keyboard-response",214,247993,"0.0-3.67-2.67","27vew4dgqp7ao2p",109,"103.csv","","null","resources/images/fishbone.png","null","",NA,NA,NA,NA,""
"image-keyboard-response",215,248289,"0.0-3.68-0.68","27vew4dgqp7ao2p",109,"103.csv","","293.2999999523163","resources/trios/L4T1A3.jpg","38","restless",0.4,0.6,0.4,0.529522171207857,"true"
"image-keyboard-response",216,248691,"0.0-3.68-1.68","27vew4dgqp7ao2p",109,"103.csv","","null","resources/maskTrios/BT1B.jpg","null","",NA,NA,NA,NA,""
"image-keyboard-response",217,249894,"0.0-3.68-2.68","27vew4dgqp7ao2p",109,"103.csv","","null","resources/images/coin2.png","null","",NA,NA,NA,NA,""
"image-keyboard-response",218,250649,"0.0-3.69-0.69","27vew4dgqp7ao2p",109,"103.csv","","753.6999999880791","resources/trios/L1T1A3.jpg","37","restless",0.4,0.6,0.4,0.950986997067778,"false"
"image-keyboard-response",219,251052,"0.0-3.69-1.69","27vew4dgqp7ao2p",109,"103.csv","","null","resources/maskTrios/L1BB.jpg","null","",NA,NA,NA,NA,""
"image-keyboard-response",220,252254,"0.0-3.69-2.69","27vew4dgqp7ao2p",109,"103.csv","","null","resources/images/fishbone.png","null","",NA,NA,NA,NA,""
"image-keyboard-response",221,252589,"0.0-3.70-0.70","27vew4dgqp7ao2p",109,"103.csv","","332.5999999642372","resources/trios/L1T1A2.jpg","38","restless",0.4,0.6,0.4,0.580364949332256,"true"
"image-keyboard-response",222,252991,"0.0-3.70-1.70","27vew4dgqp7ao2p",109,"103.csv","","null","resources/maskTrios/BT1B.jpg","null","",NA,NA,NA,NA,""
"image-keyboard-response",223,254194,"0.0-3.70-2.70","27vew4dgqp7ao2p",109,"103.csv","","null","resources/images/coin2.png","null","",NA,NA,NA,NA,""
"image-keyboard-response",224,254531,"0.0-3.71-0.71","27vew4dgqp7ao2p",109,"103.csv","","336","resources/trios/L1T1A2.jpg","39","restless",0.4,0.6,0.4,0.387052006545594,"true"
"image-keyboard-response",225,254934,"0.0-3.71-1.71","27vew4dgqp7ao2p",109,"103.csv","","null","resources/maskTrios/BBA2.jpg","null","",NA,NA,NA,NA,""
"image-keyboard-response",226,256137,"0.0-3.71-2.71","27vew4dgqp7ao2p",109,"103.csv","","null","resources/images/coin2.png","null","",NA,NA,NA,NA,""
"image-keyboard-response",227,257012,"0.0-3.72-0.72","27vew4dgqp7ao2p",109,"103.csv","","873.1999999880791","resources/trios/L4T4A2.jpg","37","restless",0.4,0.6,0.4,0.403748714116973,"false"
"image-keyboard-response",228,257414,"0.0-3.72-1.72","27vew4dgqp7ao2p",109,"103.csv","","null","resources/maskTrios/L4BB.jpg","null","",NA,NA,NA,NA,""
"image-keyboard-response",229,258616,"0.0-3.72-2.72","27vew4dgqp7ao2p",109,"103.csv","","null","resources/images/fishbone.png","null","",NA,NA,NA,NA,""
"image-keyboard-response",230,258879,"0.0-3.73-0.73","27vew4dgqp7ao2p",109,"103.csv","","260.5","resources/trios/L4T1A3.jpg","39","restless",0.4,0.6,0.4,0.355852601825111,"true"
"image-keyboard-response",231,259281,"0.0-3.73-1.73","27vew4dgqp7ao2p",109,"103.csv","","null","resources/maskTrios/BBA3.jpg","null","",NA,NA,NA,NA,""
"image-keyboard-response",232,260483,"0.0-3.73-2.73","27vew4dgqp7ao2p",109,"103.csv","","null","resources/images/coin2.png","null","",NA,NA,NA,NA,""
"image-keyboard-response",233,260795,"0.0-3.74-0.74","27vew4dgqp7ao2p",109,"103.csv","","310","resources/trios/L1T4A3.jpg","39","restless",0.4,0.6,0.4,0.278962736132942,"true"
"image-keyboard-response",234,261197,"0.0-3.74-1.74","27vew4dgqp7ao2p",109,"103.csv","","null","resources/maskTrios/BBA3.jpg","null","",NA,NA,NA,NA,""
"image-keyboard-response",235,262399,"0.0-3.74-2.74","27vew4dgqp7ao2p",109,"103.csv","","null","resources/images/coin2.png","null","",NA,NA,NA,NA,""
"image-keyboard-response",236,262711,"0.0-3.75-0.75","27vew4dgqp7ao2p",109,"103.csv","","309.9000000357628","resources/trios/L1T4A2.jpg","39","restless",0.4,0.5,0.4,0.093806555368231,"true"
"image-keyboard-response",237,263115,"0.0-3.75-1.75","27vew4dgqp7ao2p",109,"103.csv","","null","resources/maskTrios/BBA2.jpg","null","",NA,NA,NA,NA,""
"image-keyboard-response",238,264318,"0.0-3.75-2.75","27vew4dgqp7ao2p",109,"103.csv","","null","resources/images/coin2.png","null","",NA,NA,NA,NA,""
"image-keyboard-response",239,264586,"0.0-3.76-0.76","27vew4dgqp7ao2p",109,"103.csv","","265.80000001192093","resources/trios/L1T1A3.jpg","39","restless",0.4,0.5,0.4,0.111969621633285,"true"
"image-keyboard-response",240,264989,"0.0-3.76-1.76","27vew4dgqp7ao2p",109,"103.csv","","null","resources/maskTrios/BBA3.jpg","null","",NA,NA,NA,NA,""
"image-keyboard-response",241,266192,"0.0-3.76-2.76","27vew4dgqp7ao2p",109,"103.csv","","null","resources/images/coin2.png","null","",NA,NA,NA,NA,""
"image-keyboard-response",242,266460,"0.0-3.77-0.77","27vew4dgqp7ao2p",109,"103.csv","","266.19999998807907","resources/trios/L1T1A3.jpg","39","restless",0.4,0.6,0.4,0.977331008277414,"false"
"image-keyboard-response",243,266863,"0.0-3.77-1.77","27vew4dgqp7ao2p",109,"103.csv","","null","resources/maskTrios/BBA3.jpg","null","",NA,NA,NA,NA,""
"image-keyboard-response",244,268065,"0.0-3.77-2.77","27vew4dgqp7ao2p",109,"103.csv","","null","resources/images/fishbone.png","null","",NA,NA,NA,NA,""
"image-keyboard-response",245,268448,"0.0-3.78-0.78","27vew4dgqp7ao2p",109,"103.csv","","381","resources/trios/L1T4A2.jpg","38","restless",0.4,0.6,0.4,0.985587851297362,"false"
"image-keyboard-response",246,268852,"0.0-3.78-1.78","27vew4dgqp7ao2p",109,"103.csv","","null","resources/maskTrios/BT4B.jpg","null","",NA,NA,NA,NA,""
"image-keyboard-response",247,270053,"0.0-3.78-2.78","27vew4dgqp7ao2p",109,"103.csv","","null","resources/images/fishbone.png","null","",NA,NA,NA,NA,""
"image-keyboard-response",248,270506,"0.0-3.79-0.79","27vew4dgqp7ao2p",109,"103.csv","","449.89999997615814","resources/trios/L1T4A3.jpg","37","restless",0.4,0.6,0.4,0.458416053489153,"false"
"image-keyboard-response",249,270909,"0.0-3.79-1.79","27vew4dgqp7ao2p",109,"103.csv","","null","resources/maskTrios/L1BB.jpg","null","",NA,NA,NA,NA,""
"image-keyboard-response",250,272111,"0.0-3.79-2.79","27vew4dgqp7ao2p",109,"103.csv","","null","resources/images/fishbone.png","null","",NA,NA,NA,NA,""
"image-keyboard-response",251,272426,"0.0-3.80-0.80","27vew4dgqp7ao2p",109,"103.csv","","312.9000000357628","resources/trios/L4T1A2.jpg","39","restless",0.4,0.6,0.4,0.476650939006166,"false"
"image-keyboard-response",252,272829,"0.0-3.80-1.80","27vew4dgqp7ao2p",109,"103.csv","","null","resources/maskTrios/BBA2.jpg","null","",NA,NA,NA,NA,""
"image-keyboard-response",253,274031,"0.0-3.80-2.80","27vew4dgqp7ao2p",109,"103.csv","","null","resources/images/fishbone.png","null","",NA,NA,NA,NA,""
"image-keyboard-response",254,274321,"0.0-3.81-0.81","27vew4dgqp7ao2p",109,"103.csv","","287.80000001192093","resources/trios/L1T4A3.jpg","38","restless",0.4,0.6,0.5,0.0821043818310727,"true"
"image-keyboard-response",255,274725,"0.0-3.81-1.81","27vew4dgqp7ao2p",109,"103.csv","","null","resources/maskTrios/BT4B.jpg","null","",NA,NA,NA,NA,""
"image-keyboard-response",256,275928,"0.0-3.81-2.81","27vew4dgqp7ao2p",109,"103.csv","","null","resources/images/coin2.png","null","",NA,NA,NA,NA,""
"image-keyboard-response",257,276179,"0.0-3.82-0.82","27vew4dgqp7ao2p",109,"103.csv","","248.60000002384186","resources/trios/L4T1A3.jpg","38","restless",0.4,0.6,0.5,0.045870526606107,"true"
"image-keyboard-response",258,276582,"0.0-3.82-1.82","27vew4dgqp7ao2p",109,"103.csv","","null","resources/maskTrios/BT1B.jpg","null","",NA,NA,NA,NA,""
"image-keyboard-response",259,277785,"0.0-3.82-2.82","27vew4dgqp7ao2p",109,"103.csv","","null","resources/images/coin2.png","null","",NA,NA,NA,NA,""
"image-keyboard-response",260,278427,"0.0-3.83-0.83","27vew4dgqp7ao2p",109,"103.csv","","640.7999999523163","resources/trios/L4T1A3.jpg","38","restless",0.4,0.6,0.5,0.563108606448744,"true"
"image-keyboard-response",261,278833,"0.0-3.83-1.83","27vew4dgqp7ao2p",109,"103.csv","","null","resources/maskTrios/BT1B.jpg","null","",NA,NA,NA,NA,""
"image-keyboard-response",262,280035,"0.0-3.83-2.83","27vew4dgqp7ao2p",109,"103.csv","","null","resources/images/coin2.png","null","",NA,NA,NA,NA,""
"image-keyboard-response",263,280395,"0.0-3.84-0.84","27vew4dgqp7ao2p",109,"103.csv","","357.39999997615814","resources/trios/L4T1A3.jpg","38","restless",0.3,0.6,0.5,0.344923855050128,"true"
"image-keyboard-response",264,280797,"0.0-3.84-1.84","27vew4dgqp7ao2p",109,"103.csv","","null","resources/maskTrios/BT1B.jpg","null","",NA,NA,NA,NA,""
"image-keyboard-response",265,281999,"0.0-3.84-2.84","27vew4dgqp7ao2p",109,"103.csv","","null","resources/images/coin2.png","null","",NA,NA,NA,NA,""
"image-keyboard-response",266,282298,"0.0-3.85-0.85","27vew4dgqp7ao2p",109,"103.csv","","296.30000001192093","resources/trios/L1T4A3.jpg","38","restless",0.3,0.6,0.5,0.818985406589736,"false"
"image-keyboard-response",267,282702,"0.0-3.85-1.85","27vew4dgqp7ao2p",109,"103.csv","","null","resources/maskTrios/BT4B.jpg","null","",NA,NA,NA,NA,""
"image-keyboard-response",268,283904,"0.0-3.85-2.85","27vew4dgqp7ao2p",109,"103.csv","","null","resources/images/fishbone.png","null","",NA,NA,NA,NA,""
"image-keyboard-response",269,284190,"0.0-3.86-0.86","27vew4dgqp7ao2p",109,"103.csv","","284.39999997615814","resources/trios/L4T4A3.jpg","37","restless",0.3,0.6,0.4,0.711601481962066,"false"
"image-keyboard-response",270,284593,"0.0-3.86-1.86","27vew4dgqp7ao2p",109,"103.csv","","null","resources/maskTrios/L4BB.jpg","null","",NA,NA,NA,NA,""
"image-keyboard-response",271,285795,"0.0-3.86-2.86","27vew4dgqp7ao2p",109,"103.csv","","null","resources/images/fishbone.png","null","",NA,NA,NA,NA,""
"image-keyboard-response",272,286398,"0.0-3.87-0.87","27vew4dgqp7ao2p",109,"103.csv","","600.8000000119209","resources/trios/L4T4A3.jpg","39","restless",0.3,0.6,0.4,0.0177252455487877,"true"
"image-keyboard-response",273,286802,"0.0-3.87-1.87","27vew4dgqp7ao2p",109,"103.csv","","null","resources/maskTrios/BBA3.jpg","null","",NA,NA,NA,NA,""
"image-keyboard-response",274,288005,"0.0-3.87-2.87","27vew4dgqp7ao2p",109,"103.csv","","null","resources/images/coin2.png","null","",NA,NA,NA,NA,""
"image-keyboard-response",275,289131,"0.0-3.88-0.88","27vew4dgqp7ao2p",109,"103.csv","","1124.300000011921","resources/trios/L1T4A2.jpg","39","restless",0.3,0.6,0.4,0.314188897600317,"true"
"image-keyboard-response",276,289534,"0.0-3.88-1.88","27vew4dgqp7ao2p",109,"103.csv","","null","resources/maskTrios/BBA2.jpg","null","",NA,NA,NA,NA,""
"image-keyboard-response",277,290739,"0.0-3.88-2.88","27vew4dgqp7ao2p",109,"103.csv","","null","resources/images/coin2.png","null","",NA,NA,NA,NA,""
"image-keyboard-response",278,291190,"0.0-3.89-0.89","27vew4dgqp7ao2p",109,"103.csv","","448.69999998807907","resources/trios/L1T4A2.jpg","39","restless",0.3,0.6,0.4,0.809842548766041,"false"
"image-keyboard-response",279,291592,"0.0-3.89-1.89","27vew4dgqp7ao2p",109,"103.csv","","null","resources/maskTrios/BBA2.jpg","null","",NA,NA,NA,NA,""
"image-keyboard-response",280,292794,"0.0-3.89-2.89","27vew4dgqp7ao2p",109,"103.csv","","null","resources/images/fishbone.png","null","",NA,NA,NA,NA,""
"image-keyboard-response",281,293074,"0.0-3.90-0.90","27vew4dgqp7ao2p",109,"103.csv","","279.4000000357628","resources/trios/L1T4A3.jpg","38","restless",0.3,0.6,0.4,0.825101377033679,"false"
"image-keyboard-response",282,293478,"0.0-3.90-1.90","27vew4dgqp7ao2p",109,"103.csv","","null","resources/maskTrios/BT4B.jpg","null","",NA,NA,NA,NA,""
"image-keyboard-response",283,294680,"0.0-3.90-2.90","27vew4dgqp7ao2p",109,"103.csv","","null","resources/images/fishbone.png","null","",NA,NA,NA,NA,""
"image-keyboard-response",284,294974,"0.0-3.91-0.91","27vew4dgqp7ao2p",109,"103.csv","","291.9000000357628","resources/trios/L4T4A3.jpg","37","restless",0.3,0.5,0.4,0.971449224729993,"false"
"image-keyboard-response",285,295377,"0.0-3.91-1.91","27vew4dgqp7ao2p",109,"103.csv","","null","resources/maskTrios/L4BB.jpg","null","",NA,NA,NA,NA,""
"image-keyboard-response",286,296581,"0.0-3.91-2.91","27vew4dgqp7ao2p",109,"103.csv","","null","resources/images/fishbone.png","null","",NA,NA,NA,NA,""
"image-keyboard-response",287,296842,"0.0-3.92-0.92","27vew4dgqp7ao2p",109,"103.csv","","259","resources/trios/L1T1A3.jpg","38","restless",0.3,0.5,0.4,0.647506008827044,"false"
"image-keyboard-response",288,297245,"0.0-3.92-1.92","27vew4dgqp7ao2p",109,"103.csv","","null","resources/maskTrios/BT1B.jpg","null","",NA,NA,NA,NA,""
"image-keyboard-response",289,298446,"0.0-3.92-2.92","27vew4dgqp7ao2p",109,"103.csv","","null","resources/images/fishbone.png","null","",NA,NA,NA,NA,""
"image-keyboard-response",290,298726,"0.0-3.93-0.93","27vew4dgqp7ao2p",109,"103.csv","","278.4000000357628","resources/trios/L4T1A2.jpg","39","restless",0.3,0.5,0.4,0.898494445299255,"false"
"image-keyboard-response",291,299128,"0.0-3.93-1.93","27vew4dgqp7ao2p",109,"103.csv","","null","resources/maskTrios/BBA2.jpg","null","",NA,NA,NA,NA,""
"image-keyboard-response",292,300330,"0.0-3.93-2.93","27vew4dgqp7ao2p",109,"103.csv","","null","resources/images/fishbone.png","null","",NA,NA,NA,NA,""
"image-keyboard-response",293,300583,"0.0-3.94-0.94","27vew4dgqp7ao2p",109,"103.csv","","250.9000000357628","resources/trios/L1T4A3.jpg","39","restless",0.3,0.5,0.4,0.436624712270979,"false"
"image-keyboard-response",294,300985,"0.0-3.94-1.94","27vew4dgqp7ao2p",109,"103.csv","","null","resources/maskTrios/BBA3.jpg","null","",NA,NA,NA,NA,""
"image-keyboard-response",295,302187,"0.0-3.94-2.94","27vew4dgqp7ao2p",109,"103.csv","","null","resources/images/fishbone.png","null","",NA,NA,NA,NA,""
"image-keyboard-response",296,302499,"0.0-3.95-0.95","27vew4dgqp7ao2p",109,"103.csv","","309.19999998807907","resources/trios/L4T4A2.jpg","37","restless",0.3,0.5,0.4,0.679059194867961,"false"
"image-keyboard-response",297,302901,"0.0-3.95-1.95","27vew4dgqp7ao2p",109,"103.csv","","null","resources/maskTrios/L4BB.jpg","null","",NA,NA,NA,NA,""
"image-keyboard-response",298,304103,"0.0-3.95-2.95","27vew4dgqp7ao2p",109,"103.csv","","null","resources/images/fishbone.png","null","",NA,NA,NA,NA,""
"image-keyboard-response",299,304428,"0.0-3.96-0.96","27vew4dgqp7ao2p",109,"103.csv","","322.5","resources/trios/L4T1A2.jpg","38","restless",0.3,0.5,0.4,0.54334960823252,"false"
"image-keyboard-response",300,304831,"0.0-3.96-1.96","27vew4dgqp7ao2p",109,"103.csv","","null","resources/maskTrios/BT1B.jpg","null","",NA,NA,NA,NA,""
"image-keyboard-response",301,306034,"0.0-3.96-2.96","27vew4dgqp7ao2p",109,"103.csv","","null","resources/images/fishbone.png","null","",NA,NA,NA,NA,""
"image-keyboard-response",302,306509,"0.0-3.97-0.97","27vew4dgqp7ao2p",109,"103.csv","","472.5","resources/trios/L1T4A3.jpg","37","restless",0.2,0.5,0.4,0.511848215191087,"false"
"image-keyboard-response",303,306911,"0.0-3.97-1.97","27vew4dgqp7ao2p",109,"103.csv","","null","resources/maskTrios/L1BB.jpg","null","",NA,NA,NA,NA,""
"image-keyboard-response",304,308113,"0.0-3.97-2.97","27vew4dgqp7ao2p",109,"103.csv","","null","resources/images/fishbone.png","null","",NA,NA,NA,NA,""
"image-keyboard-response",305,308377,"0.0-3.98-0.98","27vew4dgqp7ao2p",109,"103.csv","","261.10000002384186","resources/trios/L1T1A3.jpg","39","restless",0.3,0.5,0.4,0.349557589752806,"true"
"image-keyboard-response",306,308778,"0.0-3.98-1.98","27vew4dgqp7ao2p",109,"103.csv","","null","resources/maskTrios/BBA3.jpg","null","",NA,NA,NA,NA,""
"image-keyboard-response",307,309982,"0.0-3.98-2.98","27vew4dgqp7ao2p",109,"103.csv","","null","resources/images/coin2.png","null","",NA,NA,NA,NA,""
"image-keyboard-response",308,310351,"0.0-3.99-0.99","27vew4dgqp7ao2p",109,"103.csv","","367.30000001192093","resources/trios/L1T4A2.jpg","39","restless",0.3,0.5,0.4,0.407545211805003,"false"
"image-keyboard-response",309,310754,"0.0-3.99-1.99","27vew4dgqp7ao2p",109,"103.csv","","null","resources/maskTrios/BBA2.jpg","null","",NA,NA,NA,NA,""
"image-keyboard-response",310,311959,"0.0-3.99-2.99","27vew4dgqp7ao2p",109,"103.csv","","null","resources/images/fishbone.png","null","",NA,NA,NA,NA,""
"image-keyboard-response",311,312633,"0.0-3.100-0.100","27vew4dgqp7ao2p",109,"103.csv","","671.8000000119209","resources/trios/L4T1A3.jpg","38","restless",0.4,0.5,0.4,0.836010027129416,"false"
"image-keyboard-response",312,313036,"0.0-3.100-1.100","27vew4dgqp7ao2p",109,"103.csv","","null","resources/maskTrios/BT1B.jpg","null","",NA,NA,NA,NA,""
"image-keyboard-response",313,314238,"0.0-3.100-2.100","27vew4dgqp7ao2p",109,"103.csv","","null","resources/images/fishbone.png","null","",NA,NA,NA,NA,""
"image-keyboard-response",314,316110,"0.0-3.101-0.101","27vew4dgqp7ao2p",109,"103.csv","","1869.5","resources/trios/L1T1A2.jpg","38","restless",0.5,0.5,0.4,0.485402198545157,"true"
"image-keyboard-response",315,316513,"0.0-3.101-1.101","27vew4dgqp7ao2p",109,"103.csv","","null","resources/maskTrios/BT1B.jpg","null","",NA,NA,NA,NA,""
"image-keyboard-response",316,317716,"0.0-3.101-2.101","27vew4dgqp7ao2p",109,"103.csv","","null","resources/images/coin2.png","null","",NA,NA,NA,NA,""
"image-keyboard-response",317,318522,"0.0-3.102-0.102","27vew4dgqp7ao2p",109,"103.csv","","803.6999999880791","resources/trios/L1T4A3.jpg","37","restless",0.6,0.5,0.4,0.745624169489876,"false"
"image-keyboard-response",318,318924,"0.0-3.102-1.102","27vew4dgqp7ao2p",109,"103.csv","","null","resources/maskTrios/L1BB.jpg","null","",NA,NA,NA,NA,""
"image-keyboard-response",319,320127,"0.0-3.102-2.102","27vew4dgqp7ao2p",109,"103.csv","","null","resources/images/fishbone.png","null","",NA,NA,NA,NA,""
"image-keyboard-response",320,320535,"0.0-3.103-0.103","27vew4dgqp7ao2p",109,"103.csv","","405.69999998807907","resources/trios/L1T4A3.jpg","39","restless",0.6,0.5,0.3,0.788167175187004,"false"
"image-keyboard-response",321,320938,"0.0-3.103-1.103","27vew4dgqp7ao2p",109,"103.csv","","null","resources/maskTrios/BBA3.jpg","null","",NA,NA,NA,NA,""
"image-keyboard-response",322,322143,"0.0-3.103-2.103","27vew4dgqp7ao2p",109,"103.csv","","null","resources/images/fishbone.png","null","",NA,NA,NA,NA,""
"image-keyboard-response",323,322407,"0.0-3.104-0.104","27vew4dgqp7ao2p",109,"103.csv","","261.60000002384186","resources/trios/L4T4A2.jpg","38","restless",0.6,0.5,0.2,0.640016419321377,"false"
"image-keyboard-response",324,322811,"0.0-3.104-1.104","27vew4dgqp7ao2p",109,"103.csv","","null","resources/maskTrios/BT4B.jpg","null","",NA,NA,NA,NA,""
"image-keyboard-response",325,324013,"0.0-3.104-2.104","27vew4dgqp7ao2p",109,"103.csv","","null","resources/images/fishbone.png","null","",NA,NA,NA,NA,""
"image-keyboard-response",326,324314,"0.0-3.105-0.105","27vew4dgqp7ao2p",109,"103.csv","","298.9000000357628","resources/trios/L1T1A3.jpg","37","restless",0.6,0.5,0.2,0.789935732193482,"false"
"image-keyboard-response",327,324717,"0.0-3.105-1.105","27vew4dgqp7ao2p",109,"103.csv","","null","resources/maskTrios/L1BB.jpg","null","",NA,NA,NA,NA,""
"image-keyboard-response",328,325919,"0.0-3.105-2.105","27vew4dgqp7ao2p",109,"103.csv","","null","resources/images/fishbone.png","null","",NA,NA,NA,NA,""
"image-keyboard-response",329,326302,"0.0-3.106-0.106","27vew4dgqp7ao2p",109,"103.csv","","381.30000001192093","resources/trios/L1T1A2.jpg","37","restless",0.6,0.5,0.2,0.837187701555749,"false"
"image-keyboard-response",330,326705,"0.0-3.106-1.106","27vew4dgqp7ao2p",109,"103.csv","","null","resources/maskTrios/L1BB.jpg","null","",NA,NA,NA,NA,""
"image-keyboard-response",331,327907,"0.0-3.106-2.106","27vew4dgqp7ao2p",109,"103.csv","","null","resources/images/fishbone.png","null","",NA,NA,NA,NA,""
"image-keyboard-response",332,328228,"0.0-3.107-0.107","27vew4dgqp7ao2p",109,"103.csv","","319","resources/trios/L4T4A3.jpg","38","restless",0.7,0.5,0.2,0.179463555099405,"true"
"image-keyboard-response",333,328631,"0.0-3.107-1.107","27vew4dgqp7ao2p",109,"103.csv","","null","resources/maskTrios/BT4B.jpg","null","",NA,NA,NA,NA,""
"image-keyboard-response",334,329833,"0.0-3.107-2.107","27vew4dgqp7ao2p",109,"103.csv","","null","resources/images/coin2.png","null","",NA,NA,NA,NA,""
"image-keyboard-response",335,330136,"0.0-3.108-0.108","27vew4dgqp7ao2p",109,"103.csv","","300.5","resources/trios/L4T1A2.jpg","38","restless",0.7,0.5,0.2,0.990098015895093,"false"
"image-keyboard-response",336,330538,"0.0-3.108-1.108","27vew4dgqp7ao2p",109,"103.csv","","null","resources/maskTrios/BT1B.jpg","null","",NA,NA,NA,NA,""
"image-keyboard-response",337,331740,"0.0-3.108-2.108","27vew4dgqp7ao2p",109,"103.csv","","null","resources/images/fishbone.png","null","",NA,NA,NA,NA,""
"image-keyboard-response",338,331994,"0.0-3.109-0.109","27vew4dgqp7ao2p",109,"103.csv","","251.19999998807907","resources/trios/L1T1A3.jpg","39","restless",0.7,0.5,0.2,0.284542553466843,"false"
"image-keyboard-response",339,332396,"0.0-3.109-1.109","27vew4dgqp7ao2p",109,"103.csv","","null","resources/maskTrios/BBA3.jpg","null","",NA,NA,NA,NA,""
"image-keyboard-response",340,333598,"0.0-3.109-2.109","27vew4dgqp7ao2p",109,"103.csv","","null","resources/images/fishbone.png","null","",NA,NA,NA,NA,""
"image-keyboard-response",341,333831,"0.0-3.110-0.110","27vew4dgqp7ao2p",109,"103.csv","","230.5999999642372","resources/trios/L4T1A2.jpg","37","restless",0.7,0.5,0.2,0.0131625818958574,"true"
"image-keyboard-response",342,334234,"0.0-3.110-1.110","27vew4dgqp7ao2p",109,"103.csv","","null","resources/maskTrios/L4BB.jpg","null","",NA,NA,NA,NA,""
"image-keyboard-response",343,335437,"0.0-3.110-2.110","27vew4dgqp7ao2p",109,"103.csv","","null","resources/images/coin2.png","null","",NA,NA,NA,NA,""
"image-keyboard-response",344,335528,"0.0-3.111-0.111","27vew4dgqp7ao2p",109,"103.csv","","88.5","resources/trios/L4T1A2.jpg","37","restless",0.7,0.5,0.2,0.484158460730051,"true"
"image-keyboard-response",345,335930,"0.0-3.111-1.111","27vew4dgqp7ao2p",109,"103.csv","","null","resources/maskTrios/L4BB.jpg","null","",NA,NA,NA,NA,""
"image-keyboard-response",346,337136,"0.0-3.111-2.111","27vew4dgqp7ao2p",109,"103.csv","","null","resources/images/coin2.png","null","",NA,NA,NA,NA,""
"image-keyboard-response",347,337441,"0.0-3.112-0.112","27vew4dgqp7ao2p",109,"103.csv","","302.0999999642372","resources/trios/L4T1A2.jpg","37","restless",0.7,0.5,0.2,0.486289375374375,"true"
"image-keyboard-response",348,337843,"0.0-3.112-1.112","27vew4dgqp7ao2p",109,"103.csv","","null","resources/maskTrios/L4BB.jpg","null","",NA,NA,NA,NA,""
"image-keyboard-response",349,339047,"0.0-3.112-2.112","27vew4dgqp7ao2p",109,"103.csv","","null","resources/images/coin2.png","null","",NA,NA,NA,NA,""
"image-keyboard-response",350,341380,"0.0-3.113-0.113","27vew4dgqp7ao2p",109,"103.csv","","2331","resources/trios/L1T1A3.jpg","37","restless",0.7,0.5,0.2,0.66034550595735,"true"
"image-keyboard-response",351,341783,"0.0-3.113-1.113","27vew4dgqp7ao2p",109,"103.csv","","null","resources/maskTrios/L1BB.jpg","null","",NA,NA,NA,NA,""
"image-keyboard-response",352,342990,"0.0-3.113-2.113","27vew4dgqp7ao2p",109,"103.csv","","null","resources/images/coin2.png","null","",NA,NA,NA,NA,""
"image-keyboard-response",353,343904,"0.0-3.114-0.114","27vew4dgqp7ao2p",109,"103.csv","","911.5","resources/trios/L4T4A3.jpg","37","restless",0.8,0.5,0.2,0.260535642827378,"true"
"image-keyboard-response",354,344307,"0.0-3.114-1.114","27vew4dgqp7ao2p",109,"103.csv","","null","resources/maskTrios/L4BB.jpg","null","",NA,NA,NA,NA,""
"image-keyboard-response",355,345512,"0.0-3.114-2.114","27vew4dgqp7ao2p",109,"103.csv","","null","resources/images/coin2.png","null","",NA,NA,NA,NA,""
"image-keyboard-response",356,345909,"0.0-3.115-0.115","27vew4dgqp7ao2p",109,"103.csv","","394.4000000357628","resources/trios/L4T1A3.jpg","37","restless",0.8,0.5,0.2,0.0165200856587482,"true"
"image-keyboard-response",357,346312,"0.0-3.115-1.115","27vew4dgqp7ao2p",109,"103.csv","","null","resources/maskTrios/L4BB.jpg","null","",NA,NA,NA,NA,""
"image-keyboard-response",358,347514,"0.0-3.115-2.115","27vew4dgqp7ao2p",109,"103.csv","","null","resources/images/coin2.png","null","",NA,NA,NA,NA,""
"image-keyboard-response",359,348478,"0.0-3.116-0.116","27vew4dgqp7ao2p",109,"103.csv","","961.9000000357628","resources/trios/L4T4A3.jpg","37","restless",0.8,0.5,0.1,0.802291456315682,"false"
"image-keyboard-response",360,348881,"0.0-3.116-1.116","27vew4dgqp7ao2p",109,"103.csv","","null","resources/maskTrios/L4BB.jpg","null","",NA,NA,NA,NA,""
"image-keyboard-response",361,350083,"0.0-3.116-2.116","27vew4dgqp7ao2p",109,"103.csv","","null","resources/images/fishbone.png","null","",NA,NA,NA,NA,""
"image-keyboard-response",362,350369,"0.0-3.117-0.117","27vew4dgqp7ao2p",109,"103.csv","","285.39999997615814","resources/trios/L4T4A3.jpg","38","restless",0.7,0.5,0.1,0.813044501333525,"false"
"image-keyboard-response",363,350772,"0.0-3.117-1.117","27vew4dgqp7ao2p",109,"103.csv","","null","resources/maskTrios/BT4B.jpg","null","",NA,NA,NA,NA,""
"image-keyboard-response",364,351974,"0.0-3.117-2.117","27vew4dgqp7ao2p",109,"103.csv","","null","resources/images/fishbone.png","null","",NA,NA,NA,NA,""
"image-keyboard-response",365,352161,"0.0-3.118-0.118","27vew4dgqp7ao2p",109,"103.csv","","185.4000000357628","resources/trios/L1T4A2.jpg","39","restless",0.7,0.5,0.1,0.79895641336034,"false"
"image-keyboard-response",366,352564,"0.0-3.118-1.118","27vew4dgqp7ao2p",109,"103.csv","","null","resources/maskTrios/BBA2.jpg","null","",NA,NA,NA,NA,""
"image-keyboard-response",367,353766,"0.0-3.118-2.118","27vew4dgqp7ao2p",109,"103.csv","","null","resources/images/fishbone.png","null","",NA,NA,NA,NA,""
"image-keyboard-response",368,354064,"0.0-3.119-0.119","27vew4dgqp7ao2p",109,"103.csv","","295.5","resources/trios/L4T1A2.jpg","37","restless",0.7,0.5,0.1,0.21526063423694,"true"
"image-keyboard-response",369,354466,"0.0-3.119-1.119","27vew4dgqp7ao2p",109,"103.csv","","null","resources/maskTrios/L4BB.jpg","null","",NA,NA,NA,NA,""
"image-keyboard-response",370,355669,"0.0-3.119-2.119","27vew4dgqp7ao2p",109,"103.csv","","null","resources/images/coin2.png","null","",NA,NA,NA,NA,""
"image-keyboard-response",371,356104,"0.0-3.120-0.120","27vew4dgqp7ao2p",109,"103.csv","","433","resources/trios/L4T1A2.jpg","37","restless",0.7,0.5,0.1,0.401745041137653,"true"
"image-keyboard-response",372,356509,"0.0-3.120-1.120","27vew4dgqp7ao2p",109,"103.csv","","null","resources/maskTrios/L4BB.jpg","null","",NA,NA,NA,NA,""
"image-keyboard-response",373,357711,"0.0-3.120-2.120","27vew4dgqp7ao2p",109,"103.csv","","null","resources/images/coin2.png","null","",NA,NA,NA,NA,""
"image-keyboard-response",374,358024,"0.0-3.121-0.121","27vew4dgqp7ao2p",109,"103.csv","","310.2000000476837","resources/trios/L1T4A2.jpg","37","restless",0.7,0.5,0.1,0.868370958013617,"false"
"image-keyboard-response",375,358427,"0.0-3.121-1.121","27vew4dgqp7ao2p",109,"103.csv","","null","resources/maskTrios/L1BB.jpg","null","",NA,NA,NA,NA,""
"image-keyboard-response",376,359628,"0.0-3.121-2.121","27vew4dgqp7ao2p",109,"103.csv","","null","resources/images/fishbone.png","null","",NA,NA,NA,NA,""
"image-keyboard-response",377,360306,"0.0-3.122-0.122","27vew4dgqp7ao2p",109,"103.csv","","675.6999999880791","resources/trios/L1T1A3.jpg","38","restless",0.7,0.5,0.1,0.0376013050594413,"true"
"image-keyboard-response",378,360710,"0.0-3.122-1.122","27vew4dgqp7ao2p",109,"103.csv","","null","resources/maskTrios/BT1B.jpg","null","",NA,NA,NA,NA,""
"image-keyboard-response",379,361914,"0.0-3.122-2.122","27vew4dgqp7ao2p",109,"103.csv","","null","resources/images/coin2.png","null","",NA,NA,NA,NA,""
"image-keyboard-response",380,363055,"0.0-3.123-0.123","27vew4dgqp7ao2p",109,"103.csv","","1139.300000011921","resources/trios/L1T4A2.jpg","38","restless",0.7,0.5,0.1,0.202228426963658,"true"
"image-keyboard-response",381,363457,"0.0-3.123-1.123","27vew4dgqp7ao2p",109,"103.csv","","null","resources/maskTrios/BT4B.jpg","null","",NA,NA,NA,NA,""
"image-keyboard-response",382,364660,"0.0-3.123-2.123","27vew4dgqp7ao2p",109,"103.csv","","null","resources/images/coin2.png","null","",NA,NA,NA,NA,""
"image-keyboard-response",383,365082,"0.0-3.124-0.124","27vew4dgqp7ao2p",109,"103.csv","","419.2000000476837","resources/trios/L4T4A2.jpg","38","restless",0.7,0.4,0.1,0.0922398117050425,"true"
"image-keyboard-response",384,365484,"0.0-3.124-1.124","27vew4dgqp7ao2p",109,"103.csv","","null","resources/maskTrios/BT4B.jpg","null","",NA,NA,NA,NA,""
"image-keyboard-response",385,366687,"0.0-3.124-2.124","27vew4dgqp7ao2p",109,"103.csv","","null","resources/images/coin2.png","null","",NA,NA,NA,NA,""
"image-keyboard-response",386,367520,"0.0-3.125-0.125","27vew4dgqp7ao2p",109,"103.csv","","830.1000000238419","resources/trios/L4T4A2.jpg","38","restless",0.7,0.4,0.1,0.702278140580713,"false"
"image-keyboard-response",387,367922,"0.0-3.125-1.125","27vew4dgqp7ao2p",109,"103.csv","","null","resources/maskTrios/BT4B.jpg","null","",NA,NA,NA,NA,""
"image-keyboard-response",388,369125,"0.0-3.125-2.125","27vew4dgqp7ao2p",109,"103.csv","","null","resources/images/fishbone.png","null","",NA,NA,NA,NA,""
"image-keyboard-response",389,369368,"0.0-3.126-0.126","27vew4dgqp7ao2p",109,"103.csv","","240.30000001192093","resources/trios/L1T4A3.jpg","39","restless",0.7,0.4,0.1,0.863028810771084,"false"
"image-keyboard-response",390,369770,"0.0-3.126-1.126","27vew4dgqp7ao2p",109,"103.csv","","null","resources/maskTrios/BBA3.jpg","null","",NA,NA,NA,NA,""
"image-keyboard-response",391,370972,"0.0-3.126-2.126","27vew4dgqp7ao2p",109,"103.csv","","null","resources/images/fishbone.png","null","",NA,NA,NA,NA,""
"image-keyboard-response",392,371252,"0.0-3.127-0.127","27vew4dgqp7ao2p",109,"103.csv","","277.80000001192093","resources/trios/L4T1A3.jpg","37","restless",0.7,0.4,0.1,0.0155510992161161,"true"
"image-keyboard-response",393,371655,"0.0-3.127-1.127","27vew4dgqp7ao2p",109,"103.csv","","null","resources/maskTrios/L4BB.jpg","null","",NA,NA,NA,NA,""
"image-keyboard-response",394,372858,"0.0-3.127-2.127","27vew4dgqp7ao2p",109,"103.csv","","null","resources/images/coin2.png","null","",NA,NA,NA,NA,""
"image-keyboard-response",395,373169,"0.0-3.128-0.128","27vew4dgqp7ao2p",109,"103.csv","","308.5","resources/trios/L4T1A3.jpg","37","restless",0.7,0.4,0.1,0.00177297218172479,"true"
"image-keyboard-response",396,373570,"0.0-3.128-1.128","27vew4dgqp7ao2p",109,"103.csv","","null","resources/maskTrios/L4BB.jpg","null","",NA,NA,NA,NA,""
"image-keyboard-response",397,374773,"0.0-3.128-2.128","27vew4dgqp7ao2p",109,"103.csv","","null","resources/images/coin2.png","null","",NA,NA,NA,NA,""
"image-keyboard-response",398,375462,"0.0-3.129-0.129","27vew4dgqp7ao2p",109,"103.csv","","686.8000000119209","resources/trios/L1T4A2.jpg","37","restless",0.7,0.4,0.2,0.303004668256488,"true"
"image-keyboard-response",399,375865,"0.0-3.129-1.129","27vew4dgqp7ao2p",109,"103.csv","","null","resources/maskTrios/L1BB.jpg","null","",NA,NA,NA,NA,""
"image-keyboard-response",400,377068,"0.0-3.129-2.129","27vew4dgqp7ao2p",109,"103.csv","","null","resources/images/coin2.png","null","",NA,NA,NA,NA,""
"image-keyboard-response",401,377408,"0.0-3.130-0.130","27vew4dgqp7ao2p",109,"103.csv","","338.5999999642372","resources/trios/L1T1A3.jpg","37","restless",0.7,0.4,0.2,0.178716687830647,"true"
"image-keyboard-response",402,377811,"0.0-3.130-1.130","27vew4dgqp7ao2p",109,"103.csv","","null","resources/maskTrios/L1BB.jpg","null","",NA,NA,NA,NA,""
"image-keyboard-response",403,379014,"0.0-3.130-2.130","27vew4dgqp7ao2p",109,"103.csv","","null","resources/images/coin2.png","null","",NA,NA,NA,NA,""
"image-keyboard-response",404,379343,"0.0-3.131-0.131","27vew4dgqp7ao2p",109,"103.csv","","327.19999998807907","resources/trios/L1T4A3.jpg","37","restless",0.7,0.4,0.2,0.774584994538405,"false"
"image-keyboard-response",405,379745,"0.0-3.131-1.131","27vew4dgqp7ao2p",109,"103.csv","","null","resources/maskTrios/L1BB.jpg","null","",NA,NA,NA,NA,""
"image-keyboard-response",406,380947,"0.0-3.131-2.131","27vew4dgqp7ao2p",109,"103.csv","","null","resources/images/fishbone.png","null","",NA,NA,NA,NA,""
"image-keyboard-response",407,381238,"0.0-3.132-0.132","27vew4dgqp7ao2p",109,"103.csv","","289","resources/trios/L4T4A3.jpg","38","restless",0.7,0.4,0.2,0.183967641390999,"true"
"image-keyboard-response",408,381641,"0.0-3.132-1.132","27vew4dgqp7ao2p",109,"103.csv","","null","resources/maskTrios/BT4B.jpg","null","",NA,NA,NA,NA,""
"image-keyboard-response",409,382844,"0.0-3.132-2.132","27vew4dgqp7ao2p",109,"103.csv","","null","resources/images/coin2.png","null","",NA,NA,NA,NA,""
"image-keyboard-response",410,383171,"0.0-3.133-0.133","27vew4dgqp7ao2p",109,"103.csv","","325.60000002384186","resources/trios/L1T4A3.jpg","38","restless",0.7,0.4,0.3,0.776307330498057,"false"
"image-keyboard-response",411,383574,"0.0-3.133-1.133","27vew4dgqp7ao2p",109,"103.csv","","null","resources/maskTrios/BT4B.jpg","null","",NA,NA,NA,NA,""
"image-keyboard-response",412,384777,"0.0-3.133-2.133","27vew4dgqp7ao2p",109,"103.csv","","null","resources/images/fishbone.png","null","",NA,NA,NA,NA,""
"image-keyboard-response",413,385341,"0.0-3.134-0.134","27vew4dgqp7ao2p",109,"103.csv","","561.6000000238419","resources/trios/L4T4A2.jpg","39","restless",0.7,0.4,0.3,0.996721098392979,"false"
"image-keyboard-response",414,385745,"0.0-3.134-1.134","27vew4dgqp7ao2p",109,"103.csv","","null","resources/maskTrios/BBA2.jpg","null","",NA,NA,NA,NA,""
"image-keyboard-response",415,386947,"0.0-3.134-2.134","27vew4dgqp7ao2p",109,"103.csv","","null","resources/images/fishbone.png","null","",NA,NA,NA,NA,""
"image-keyboard-response",416,387299,"0.0-3.135-0.135","27vew4dgqp7ao2p",109,"103.csv","","350.19999998807907","resources/trios/L4T1A3.jpg","37","restless",0.7,0.4,0.3,0.302642284139994,"true"
"image-keyboard-response",417,387701,"0.0-3.135-1.135","27vew4dgqp7ao2p",109,"103.csv","","null","resources/maskTrios/L4BB.jpg","null","",NA,NA,NA,NA,""
"image-keyboard-response",418,388904,"0.0-3.135-2.135","27vew4dgqp7ao2p",109,"103.csv","","null","resources/images/coin2.png","null","",NA,NA,NA,NA,""
"image-keyboard-response",419,389272,"0.0-3.136-0.136","27vew4dgqp7ao2p",109,"103.csv","","365.19999998807907","resources/trios/L4T1A3.jpg","37","restless",0.7,0.4,0.3,0.405299536232272,"true"
"image-keyboard-response",420,389674,"0.0-3.136-1.136","27vew4dgqp7ao2p",109,"103.csv","","null","resources/maskTrios/L4BB.jpg","null","",NA,NA,NA,NA,""
"image-keyboard-response",421,390877,"0.0-3.136-2.136","27vew4dgqp7ao2p",109,"103.csv","","null","resources/images/coin2.png","null","",NA,NA,NA,NA,""
"image-keyboard-response",422,391140,"0.0-3.137-0.137","27vew4dgqp7ao2p",109,"103.csv","","259.9000000357628","resources/trios/L1T4A3.jpg","37","restless",0.7,0.4,0.3,0.666902993761771,"true"
"image-keyboard-response",423,391542,"0.0-3.137-1.137","27vew4dgqp7ao2p",109,"103.csv","","null","resources/maskTrios/L1BB.jpg","null","",NA,NA,NA,NA,""
"image-keyboard-response",424,392746,"0.0-3.137-2.137","27vew4dgqp7ao2p",109,"103.csv","","null","resources/images/coin2.png","null","",NA,NA,NA,NA,""
"image-keyboard-response",425,393033,"0.0-3.138-0.138","27vew4dgqp7ao2p",109,"103.csv","","284.7000000476837","resources/trios/L1T4A3.jpg","37","restless",0.7,0.4,0.3,0.908354443253633,"false"
"image-keyboard-response",426,393436,"0.0-3.138-1.138","27vew4dgqp7ao2p",109,"103.csv","","null","resources/maskTrios/L1BB.jpg","null","",NA,NA,NA,NA,""
"image-keyboard-response",427,394638,"0.0-3.138-2.138","27vew4dgqp7ao2p",109,"103.csv","","null","resources/images/fishbone.png","null","",NA,NA,NA,NA,""
"image-keyboard-response",428,394926,"0.0-3.139-0.139","27vew4dgqp7ao2p",109,"103.csv","","285.19999998807907","resources/trios/L1T4A2.jpg","38","restless",0.7,0.4,0.3,0.670771060622287,"false"
"image-keyboard-response",429,395328,"0.0-3.139-1.139","27vew4dgqp7ao2p",109,"103.csv","","null","resources/maskTrios/BT4B.jpg","null","",NA,NA,NA,NA,""
"image-keyboard-response",430,396531,"0.0-3.139-2.139","27vew4dgqp7ao2p",109,"103.csv","","null","resources/images/fishbone.png","null","",NA,NA,NA,NA,""
"image-keyboard-response",431,396562,"0.0-3.140-0.140","27vew4dgqp7ao2p",109,"103.csv","","28.900000035762787","resources/trios/L4T4A3.jpg","39","restless",0.7,0.3,0.3,0.549365120856883,"false"
"image-keyboard-response",432,396965,"0.0-3.140-1.140","27vew4dgqp7ao2p",109,"103.csv","","null","resources/maskTrios/BBA3.jpg","null","",NA,NA,NA,NA,""
"image-keyboard-response",433,398168,"0.0-3.140-2.140","27vew4dgqp7ao2p",109,"103.csv","","null","resources/images/fishbone.png","null","",NA,NA,NA,NA,""
"image-keyboard-response",434,398479,"0.0-3.141-0.141","27vew4dgqp7ao2p",109,"103.csv","","308.89999997615814","resources/trios/L4T1A2.jpg","37","restless",0.7,0.3,0.3,0.454061876848011,"true"
"image-keyboard-response",435,398882,"0.0-3.141-1.141","27vew4dgqp7ao2p",109,"103.csv","","null","resources/maskTrios/L4BB.jpg","null","",NA,NA,NA,NA,""
"image-keyboard-response",436,400085,"0.0-3.141-2.141","27vew4dgqp7ao2p",109,"103.csv","","null","resources/images/coin2.png","null","",NA,NA,NA,NA,""
"image-keyboard-response",437,400378,"0.0-3.142-0.142","27vew4dgqp7ao2p",109,"103.csv","","290.5","resources/trios/L4T1A2.jpg","37","restless",0.7,0.3,0.3,0.381165376802167,"true"
"image-keyboard-response",438,400781,"0.0-3.142-1.142","27vew4dgqp7ao2p",109,"103.csv","","null","resources/maskTrios/L4BB.jpg","null","",NA,NA,NA,NA,""
"image-keyboard-response",439,401985,"0.0-3.142-2.142","27vew4dgqp7ao2p",109,"103.csv","","null","resources/images/coin2.png","null","",NA,NA,NA,NA,""
"image-keyboard-response",440,403037,"0.0-3.143-0.143","27vew4dgqp7ao2p",109,"103.csv","","1049.699999988079","resources/trios/L4T1A3.jpg","37","restless",0.7,0.3,0.3,0.258242487399605,"true"
"image-keyboard-response",441,403443,"0.0-3.143-1.143","27vew4dgqp7ao2p",109,"103.csv","","null","resources/maskTrios/L4BB.jpg","null","",NA,NA,NA,NA,""
"image-keyboard-response",442,404646,"0.0-3.143-2.143","27vew4dgqp7ao2p",109,"103.csv","","null","resources/images/coin2.png","null","",NA,NA,NA,NA,""
"image-keyboard-response",443,405083,"0.0-3.144-0.144","27vew4dgqp7ao2p",109,"103.csv","","434.7000000476837","resources/trios/L4T4A2.jpg","37","restless",0.7,0.3,0.3,0.44301183130122,"true"
"image-keyboard-response",444,405486,"0.0-3.144-1.144","27vew4dgqp7ao2p",109,"103.csv","","null","resources/maskTrios/L4BB.jpg","null","",NA,NA,NA,NA,""
"image-keyboard-response",445,406688,"0.0-3.144-2.144","27vew4dgqp7ao2p",109,"103.csv","","null","resources/images/coin2.png","null","",NA,NA,NA,NA,""
"image-keyboard-response",446,406992,"0.0-3.145-0.145","27vew4dgqp7ao2p",109,"103.csv","","301.10000002384186","resources/trios/L1T4A3.jpg","37","restless",0.7,0.3,0.3,0.00839929373185222,"true"
"image-keyboard-response",447,407394,"0.0-3.145-1.145","27vew4dgqp7ao2p",109,"103.csv","","null","resources/maskTrios/L1BB.jpg","null","",NA,NA,NA,NA,""
"image-keyboard-response",448,408597,"0.0-3.145-2.145","27vew4dgqp7ao2p",109,"103.csv","","null","resources/images/coin2.png","null","",NA,NA,NA,NA,""
"image-keyboard-response",449,409418,"0.0-3.146-0.146","27vew4dgqp7ao2p",109,"103.csv","","819.2000000476837","resources/trios/L1T4A2.jpg","37","restless",0.7,0.3,0.3,0.353143743915388,"true"
"image-keyboard-response",450,409822,"0.0-3.146-1.146","27vew4dgqp7ao2p",109,"103.csv","","null","resources/maskTrios/L1BB.jpg","null","",NA,NA,NA,NA,""
"image-keyboard-response",451,411025,"0.0-3.146-2.146","27vew4dgqp7ao2p",109,"103.csv","","null","resources/images/coin2.png","null","",NA,NA,NA,NA,""
"image-keyboard-response",452,412595,"0.0-3.147-0.147","27vew4dgqp7ao2p",109,"103.csv","","1567.7999999523163","resources/trios/L1T4A3.jpg","37","restless",0.7,0.3,0.3,0.531981685986213,"true"
"image-keyboard-response",453,412999,"0.0-3.147-1.147","27vew4dgqp7ao2p",109,"103.csv","","null","resources/maskTrios/L1BB.jpg","null","",NA,NA,NA,NA,""
"image-keyboard-response",454,414201,"0.0-3.147-2.147","27vew4dgqp7ao2p",109,"103.csv","","null","resources/images/coin2.png","null","",NA,NA,NA,NA,""
"image-keyboard-response",455,414508,"0.0-3.148-0.148","27vew4dgqp7ao2p",109,"103.csv","","301.19999998807907","resources/trios/L4T4A3.jpg","37","restless",0.6,0.3,0.3,0.419030747047792,"true"
"image-keyboard-response",456,414911,"0.0-3.148-1.148","27vew4dgqp7ao2p",109,"103.csv","","null","resources/maskTrios/L4BB.jpg","null","",NA,NA,NA,NA,""
"image-keyboard-response",457,416114,"0.0-3.148-2.148","27vew4dgqp7ao2p",109,"103.csv","","null","resources/images/coin2.png","null","",NA,NA,NA,NA,""
"image-keyboard-response",458,416872,"0.0-3.149-0.149","27vew4dgqp7ao2p",109,"103.csv","","756.5","resources/trios/L4T4A3.jpg","37","restless",0.7,0.4,0.3,0.805602578547102,"false"
"image-keyboard-response",459,417274,"0.0-3.149-1.149","27vew4dgqp7ao2p",109,"103.csv","","null","resources/maskTrios/L4BB.jpg","null","",NA,NA,NA,NA,""
"image-keyboard-response",460,418477,"0.0-3.149-2.149","27vew4dgqp7ao2p",109,"103.csv","","null","resources/images/fishbone.png","null","",NA,NA,NA,NA,""
"image-keyboard-response",461,418935,"0.0-3.150-0.150","27vew4dgqp7ao2p",109,"103.csv","","455","resources/trios/L1T1A3.jpg","39","restless",0.6,0.4,0.4,0.507784012720227,"false"
"image-keyboard-response",462,419338,"0.0-3.150-1.150","27vew4dgqp7ao2p",109,"103.csv","","null","resources/maskTrios/BBA3.jpg","null","",NA,NA,NA,NA,""
"image-keyboard-response",463,420541,"0.0-3.150-2.150","27vew4dgqp7ao2p",109,"103.csv","","null","resources/images/fishbone.png","null","",NA,NA,NA,NA,""
"image-keyboard-response",464,420831,"0.0-3.151-0.151","27vew4dgqp7ao2p",109,"103.csv","","287","resources/trios/L4T4A2.jpg","38","restless",0.5,0.4,0.4,0.971343012140327,"false"
"image-keyboard-response",465,421233,"0.0-3.151-1.151","27vew4dgqp7ao2p",109,"103.csv","","null","resources/maskTrios/BT4B.jpg","null","",NA,NA,NA,NA,""
"image-keyboard-response",466,422436,"0.0-3.151-2.151","27vew4dgqp7ao2p",109,"103.csv","","null","resources/images/fishbone.png","null","",NA,NA,NA,NA,""
"image-keyboard-response",467,422685,"0.0-3.152-0.152","27vew4dgqp7ao2p",109,"103.csv","","246.5","resources/trios/L1T1A3.jpg","37","restless",0.5,0.4,0.3,0.210470153849091,"true"
"image-keyboard-response",468,423087,"0.0-3.152-1.152","27vew4dgqp7ao2p",109,"103.csv","","null","resources/maskTrios/L1BB.jpg","null","",NA,NA,NA,NA,""
"image-keyboard-response",469,424291,"0.0-3.152-2.152","27vew4dgqp7ao2p",109,"103.csv","","null","resources/images/coin2.png","null","",NA,NA,NA,NA,""
"image-keyboard-response",470,424667,"0.0-3.153-0.153","27vew4dgqp7ao2p",109,"103.csv","","373.60000002384186","resources/trios/L1T1A3.jpg","37","restless",0.5,0.4,0.3,0.559907541290283,"false"
"image-keyboard-response",471,425071,"0.0-3.153-1.153","27vew4dgqp7ao2p",109,"103.csv","","null","resources/maskTrios/L1BB.jpg","null","",NA,NA,NA,NA,""
"image-keyboard-response",472,426274,"0.0-3.153-2.153","27vew4dgqp7ao2p",109,"103.csv","","null","resources/images/fishbone.png","null","",NA,NA,NA,NA,""
"image-keyboard-response",473,427534,"0.0-3.154-0.154","27vew4dgqp7ao2p",109,"103.csv","","1258.1000000238419","resources/trios/L1T4A3.jpg","38","restless",0.5,0.4,0.3,0.814175045494668,"false"
"image-keyboard-response",474,427936,"0.0-3.154-1.154","27vew4dgqp7ao2p",109,"103.csv","","null","resources/maskTrios/BT4B.jpg","null","",NA,NA,NA,NA,""
"image-keyboard-response",475,429139,"0.0-3.154-2.154","27vew4dgqp7ao2p",109,"103.csv","","null","resources/images/fishbone.png","null","",NA,NA,NA,NA,""
"image-keyboard-response",476,429428,"0.0-3.155-0.155","27vew4dgqp7ao2p",109,"103.csv","","287.39999997615814","resources/trios/L1T1A3.jpg","39","restless",0.5,0.4,0.3,0.415588373225508,"false"
"image-keyboard-response",477,429833,"0.0-3.155-1.155","27vew4dgqp7ao2p",109,"103.csv","","null","resources/maskTrios/BBA3.jpg","null","",NA,NA,NA,NA,""
"image-keyboard-response",478,431034,"0.0-3.155-2.155","27vew4dgqp7ao2p",109,"103.csv","","null","resources/images/fishbone.png","null","",NA,NA,NA,NA,""
"image-keyboard-response",479,431290,"0.0-3.156-0.156","27vew4dgqp7ao2p",109,"103.csv","","253.80000001192093","resources/trios/L4T1A3.jpg","37","restless",0.5,0.4,0.2,0.68442738749291,"false"
"image-keyboard-response",480,431693,"0.0-3.156-1.156","27vew4dgqp7ao2p",109,"103.csv","","null","resources/maskTrios/L4BB.jpg","null","",NA,NA,NA,NA,""
"image-keyboard-response",481,432895,"0.0-3.156-2.156","27vew4dgqp7ao2p",109,"103.csv","","null","resources/images/fishbone.png","null","",NA,NA,NA,NA,""
"image-keyboard-response",482,433278,"0.0-3.157-0.157","27vew4dgqp7ao2p",109,"103.csv","","380.5999999642372","resources/trios/L1T1A3.jpg","37","restless",0.5,0.4,0.2,0.137891030269516,"true"
"image-keyboard-response",483,433680,"0.0-3.157-1.157","27vew4dgqp7ao2p",109,"103.csv","","null","resources/maskTrios/L1BB.jpg","null","",NA,NA,NA,NA,""
"image-keyboard-response",484,434883,"0.0-3.157-2.157","27vew4dgqp7ao2p",109,"103.csv","","null","resources/images/coin2.png","null","",NA,NA,NA,NA,""
"image-keyboard-response",485,435195,"0.0-3.158-0.158","27vew4dgqp7ao2p",109,"103.csv","","309.7999999523163","resources/trios/L4T4A2.jpg","37","restless",0.6,0.4,0.2,0.0235705992459003,"true"
"image-keyboard-response",486,435598,"0.0-3.158-1.158","27vew4dgqp7ao2p",109,"103.csv","","null","resources/maskTrios/L4BB.jpg","null","",NA,NA,NA,NA,""
"image-keyboard-response",487,436801,"0.0-3.158-2.158","27vew4dgqp7ao2p",109,"103.csv","","null","resources/images/coin2.png","null","",NA,NA,NA,NA,""
"image-keyboard-response",488,437143,"0.0-3.159-0.159","27vew4dgqp7ao2p",109,"103.csv","","340.2000000476837","resources/trios/L1T1A2.jpg","37","restless",0.6,0.4,0.2,0.0511955556982258,"true"
"image-keyboard-response",489,437547,"0.0-3.159-1.159","27vew4dgqp7ao2p",109,"103.csv","","null","resources/maskTrios/L1BB.jpg","null","",NA,NA,NA,NA,""
"image-keyboard-response",490,438749,"0.0-3.159-2.159","27vew4dgqp7ao2p",109,"103.csv","","null","resources/images/coin2.png","null","",NA,NA,NA,NA,""
"image-keyboard-response",491,439069,"0.0-3.160-0.160","27vew4dgqp7ao2p",109,"103.csv","","318.39999997615814","resources/trios/L4T4A3.jpg","37","restless",0.6,0.4,0.2,0.250660868141959,"true"
"image-keyboard-response",492,439472,"0.0-3.160-1.160","27vew4dgqp7ao2p",109,"103.csv","","null","resources/maskTrios/L4BB.jpg","null","",NA,NA,NA,NA,""
"image-keyboard-response",493,440675,"0.0-3.160-2.160","27vew4dgqp7ao2p",109,"103.csv","","null","resources/images/coin2.png","null","",NA,NA,NA,NA,""
"image-keyboard-response",494,440999,"0.0-3.161-0.161","27vew4dgqp7ao2p",109,"103.csv","","322.30000001192093","resources/trios/L4T1A3.jpg","37","restless",0.6,0.4,0.2,0.165496307045226,"true"
"image-keyboard-response",495,441406,"0.0-3.161-1.161","27vew4dgqp7ao2p",109,"103.csv","","null","resources/maskTrios/L4BB.jpg","null","",NA,NA,NA,NA,""
"image-keyboard-response",496,442609,"0.0-3.161-2.161","27vew4dgqp7ao2p",109,"103.csv","","null","resources/images/coin2.png","null","",NA,NA,NA,NA,""
"image-keyboard-response",497,443664,"0.0-3.162-0.162","27vew4dgqp7ao2p",109,"103.csv","","1052.8999999761581","resources/trios/L1T1A2.jpg","37","restless",0.6,0.4,0.3,0.873159125443389,"false"
"image-keyboard-response",498,444067,"0.0-3.162-1.162","27vew4dgqp7ao2p",109,"103.csv","","null","resources/maskTrios/L1BB.jpg","null","",NA,NA,NA,NA,""
"image-keyboard-response",499,445270,"0.0-3.162-2.162","27vew4dgqp7ao2p",109,"103.csv","","null","resources/images/fishbone.png","null","",NA,NA,NA,NA,""
"image-keyboard-response",500,446592,"0.0-3.163-0.163","27vew4dgqp7ao2p",109,"103.csv","","1319.699999988079","resources/trios/L1T1A2.jpg","38","restless",0.6,0.4,0.3,0.914856593979329,"false"
"image-keyboard-response",501,446994,"0.0-3.163-1.163","27vew4dgqp7ao2p",109,"103.csv","","null","resources/maskTrios/BT1B.jpg","null","",NA,NA,NA,NA,""
"image-keyboard-response",502,448196,"0.0-3.163-2.163","27vew4dgqp7ao2p",109,"103.csv","","null","resources/images/fishbone.png","null","",NA,NA,NA,NA,""
"image-keyboard-response",503,449752,"0.0-3.164-0.164","27vew4dgqp7ao2p",109,"103.csv","","1552.9000000357628","resources/trios/L1T4A3.jpg","38","restless",0.7,0.4,0.3,0.397385301112098,"true"
"image-keyboard-response",504,450155,"0.0-3.164-1.164","27vew4dgqp7ao2p",109,"103.csv","","null","resources/maskTrios/BT4B.jpg","null","",NA,NA,NA,NA,""
"image-keyboard-response",505,451358,"0.0-3.164-2.164","27vew4dgqp7ao2p",109,"103.csv","","null","resources/images/coin2.png","null","",NA,NA,NA,NA,""
"image-keyboard-response",506,452541,"0.0-3.165-0.165","27vew4dgqp7ao2p",109,"103.csv","","1180.300000011921","resources/trios/L1T1A2.jpg","39","restless",0.7,0.4,0.3,0.149601363107536,"true"
"image-keyboard-response",507,452944,"0.0-3.165-1.165","27vew4dgqp7ao2p",109,"103.csv","","null","resources/maskTrios/BBA2.jpg","null","",NA,NA,NA,NA,""
"image-keyboard-response",508,454147,"0.0-3.165-2.165","27vew4dgqp7ao2p",109,"103.csv","","null","resources/images/coin2.png","null","",NA,NA,NA,NA,""
"image-keyboard-response",509,455948,"0.0-3.166-0.166","27vew4dgqp7ao2p",109,"103.csv","","1799.199999988079","resources/trios/L4T1A2.jpg","38","restless",0.7,0.4,0.3,0.254917809470521,"true"
"image-keyboard-response",510,456351,"0.0-3.166-1.166","27vew4dgqp7ao2p",109,"103.csv","","null","resources/maskTrios/BT1B.jpg","null","",NA,NA,NA,NA,""
"image-keyboard-response",511,457554,"0.0-3.166-2.166","27vew4dgqp7ao2p",109,"103.csv","","null","resources/images/coin2.png","null","",NA,NA,NA,NA,""
"image-keyboard-response",512,459598,"0.0-3.167-0.167","27vew4dgqp7ao2p",109,"103.csv","","2041.5999999642372","resources/trios/L4T4A2.jpg","39","restless",0.7,0.4,0.3,0.300181467934074,"false"
"image-keyboard-response",513,460001,"0.0-3.167-1.167","27vew4dgqp7ao2p",109,"103.csv","","null","resources/maskTrios/BBA2.jpg","null","",NA,NA,NA,NA,""
"image-keyboard-response",514,461208,"0.0-3.167-2.167","27vew4dgqp7ao2p",109,"103.csv","","null","resources/images/fishbone.png","null","",NA,NA,NA,NA,""
"image-keyboard-response",515,462672,"0.0-3.168-0.168","27vew4dgqp7ao2p",109,"103.csv","","1461.5","resources/trios/L1T4A2.jpg","37","restless",0.7,0.4,0.4,0.532369373962521,"true"
"image-keyboard-response",516,463075,"0.0-3.168-1.168","27vew4dgqp7ao2p",109,"103.csv","","null","resources/maskTrios/L1BB.jpg","null","",NA,NA,NA,NA,""
"image-keyboard-response",517,464278,"0.0-3.168-2.168","27vew4dgqp7ao2p",109,"103.csv","","null","resources/images/coin2.png","null","",NA,NA,NA,NA,""
"image-keyboard-response",518,465278,"0.0-3.169-0.169","27vew4dgqp7ao2p",109,"103.csv","","998.1999999880791","resources/trios/L1T1A2.jpg","38","restless",0.7,0.4,0.4,0.243181685069877,"true"
"image-keyboard-response",519,465681,"0.0-3.169-1.169","27vew4dgqp7ao2p",109,"103.csv","","null","resources/maskTrios/BT1B.jpg","null","",NA,NA,NA,NA,""
"image-keyboard-response",520,466884,"0.0-3.169-2.169","27vew4dgqp7ao2p",109,"103.csv","","null","resources/images/coin2.png","null","",NA,NA,NA,NA,""
"image-keyboard-response",521,470732,"0.0-3.170-0.170","27vew4dgqp7ao2p",109,"103.csv","","3846.800000011921","resources/trios/L4T4A2.jpg","39","restless",0.7,0.4,0.4,0.975626524992635,"false"
"image-keyboard-response",522,471135,"0.0-3.170-1.170","27vew4dgqp7ao2p",109,"103.csv","","null","resources/maskTrios/BBA2.jpg","null","",NA,NA,NA,NA,""
"image-keyboard-response",523,472337,"0.0-3.170-2.170","27vew4dgqp7ao2p",109,"103.csv","","null","resources/images/fishbone.png","null","",NA,NA,NA,NA,""
"image-keyboard-response",524,474054,"0.0-3.171-0.171","27vew4dgqp7ao2p",109,"103.csv","","1714.199999988079","resources/trios/L4T4A3.jpg","39","restless",0.7,0.4,0.4,0.324247378053852,"true"
"image-keyboard-response",525,474457,"0.0-3.171-1.171","27vew4dgqp7ao2p",109,"103.csv","","null","resources/maskTrios/BBA3.jpg","null","",NA,NA,NA,NA,""
"image-keyboard-response",526,475660,"0.0-3.171-2.171","27vew4dgqp7ao2p",109,"103.csv","","null","resources/images/coin2.png","null","",NA,NA,NA,NA,""
"image-keyboard-response",527,477552,"0.0-3.172-0.172","27vew4dgqp7ao2p",109,"103.csv","","1889.1000000238419","resources/trios/L1T4A2.jpg","37","restless",0.7,0.4,0.4,0.550023547431388,"true"
"image-keyboard-response",528,477954,"0.0-3.172-1.172","27vew4dgqp7ao2p",109,"103.csv","","null","resources/maskTrios/L1BB.jpg","null","",NA,NA,NA,NA,""
"image-keyboard-response",529,479157,"0.0-3.172-2.172","27vew4dgqp7ao2p",109,"103.csv","","null","resources/images/coin2.png","null","",NA,NA,NA,NA,""
"image-keyboard-response",530,480526,"0.0-3.173-0.173","27vew4dgqp7ao2p",109,"103.csv","","1366.300000011921","resources/trios/L1T1A2.jpg","38","restless",0.7,0.4,0.4,0.178426488230569,"true"
"image-keyboard-response",531,480929,"0.0-3.173-1.173","27vew4dgqp7ao2p",109,"103.csv","","null","resources/maskTrios/BT1B.jpg","null","",NA,NA,NA,NA,""
"image-keyboard-response",532,482132,"0.0-3.173-2.173","27vew4dgqp7ao2p",109,"103.csv","","null","resources/images/coin2.png","null","",NA,NA,NA,NA,""
"image-keyboard-response",533,482802,"0.0-3.174-0.174","27vew4dgqp7ao2p",109,"103.csv","","668","resources/trios/L4T1A3.jpg","39","restless",0.7,0.4,0.4,0.340878447931076,"true"
"image-keyboard-response",534,483205,"0.0-3.174-1.174","27vew4dgqp7ao2p",109,"103.csv","","null","resources/maskTrios/BBA3.jpg","null","",NA,NA,NA,NA,""
"image-keyboard-response",535,484407,"0.0-3.174-2.174","27vew4dgqp7ao2p",109,"103.csv","","null","resources/images/coin2.png","null","",NA,NA,NA,NA,""
"image-keyboard-response",536,485867,"0.0-3.175-0.175","27vew4dgqp7ao2p",109,"103.csv","","1457.3999999761581","resources/trios/L1T1A2.jpg","38","restless",0.8,0.4,0.4,0.424226792487542,"false"
"image-keyboard-response",537,486270,"0.0-3.175-1.175","27vew4dgqp7ao2p",109,"103.csv","","null","resources/maskTrios/BT1B.jpg","null","",NA,NA,NA,NA,""
"image-keyboard-response",538,487472,"0.0-3.175-2.175","27vew4dgqp7ao2p",109,"103.csv","","null","resources/images/fishbone.png","null","",NA,NA,NA,NA,""
"image-keyboard-response",539,489660,"0.0-3.176-0.176","27vew4dgqp7ao2p",109,"103.csv","","2185.599999964237","resources/trios/L4T4A2.jpg","37","restless",0.7,0.4,0.4,0.907997506916508,"false"
"image-keyboard-response",540,490063,"0.0-3.176-1.176","27vew4dgqp7ao2p",109,"103.csv","","null","resources/maskTrios/L4BB.jpg","null","",NA,NA,NA,NA,""
"image-keyboard-response",541,491266,"0.0-3.176-2.176","27vew4dgqp7ao2p",109,"103.csv","","null","resources/images/fishbone.png","null","",NA,NA,NA,NA,""
"image-keyboard-response",542,493080,"0.0-3.177-0.177","27vew4dgqp7ao2p",109,"103.csv","","1812.300000011921","resources/trios/L4T1A2.jpg","38","restless",0.7,0.4,0.4,0.931468004646359,"false"
"image-keyboard-response",543,493483,"0.0-3.177-1.177","27vew4dgqp7ao2p",109,"103.csv","","null","resources/maskTrios/BT1B.jpg","null","",NA,NA,NA,NA,""
"image-keyboard-response",544,494685,"0.0-3.177-2.177","27vew4dgqp7ao2p",109,"103.csv","","null","resources/images/fishbone.png","null","",NA,NA,NA,NA,""
"image-keyboard-response",545,496455,"0.0-3.178-0.178","27vew4dgqp7ao2p",109,"103.csv","","1768","resources/trios/L1T1A2.jpg","37","restless",0.7,0.5,0.4,0.215166062070253,"true"
"image-keyboard-response",546,496858,"0.0-3.178-1.178","27vew4dgqp7ao2p",109,"103.csv","","null","resources/maskTrios/L1BB.jpg","null","",NA,NA,NA,NA,""
"image-keyboard-response",547,498061,"0.0-3.178-2.178","27vew4dgqp7ao2p",109,"103.csv","","null","resources/images/coin2.png","null","",NA,NA,NA,NA,""
"image-keyboard-response",548,500298,"0.0-3.179-0.179","27vew4dgqp7ao2p",109,"103.csv","","2234.800000011921","resources/trios/L4T1A2.jpg","38","restless",0.7,0.5,0.4,0.832221633674552,"false"
"image-keyboard-response",549,500700,"0.0-3.179-1.179","27vew4dgqp7ao2p",109,"103.csv","","null","resources/maskTrios/BT1B.jpg","null","",NA,NA,NA,NA,""
"image-keyboard-response",550,501902,"0.0-3.179-2.179","27vew4dgqp7ao2p",109,"103.csv","","null","resources/images/fishbone.png","null","",NA,NA,NA,NA,""
"image-keyboard-response",551,502278,"0.0-3.180-0.180","27vew4dgqp7ao2p",109,"103.csv","","373.9000000357628","resources/trios/L4T4A3.jpg","37","restless",0.7,0.5,0.4,0.484933465859549,"true"
"image-keyboard-response",552,502681,"0.0-3.180-1.180","27vew4dgqp7ao2p",109,"103.csv","","null","resources/maskTrios/L4BB.jpg","null","",NA,NA,NA,NA,""
"image-keyboard-response",553,503885,"0.0-3.180-2.180","27vew4dgqp7ao2p",109,"103.csv","","null","resources/images/coin2.png","null","",NA,NA,NA,NA,""
"image-keyboard-response",554,504367,"0.0-3.181-0.181","27vew4dgqp7ao2p",109,"103.csv","","479.69999998807907","resources/trios/L1T4A2.jpg","37","restless",0.7,0.5,0.4,0.0779208363541777,"true"
"image-keyboard-response",555,504768,"0.0-3.181-1.181","27vew4dgqp7ao2p",109,"103.csv","","null","resources/maskTrios/L1BB.jpg","null","",NA,NA,NA,NA,""
"image-keyboard-response",556,505971,"0.0-3.181-2.181","27vew4dgqp7ao2p",109,"103.csv","","null","resources/images/coin2.png","null","",NA,NA,NA,NA,""
"image-keyboard-response",557,506331,"0.0-3.182-0.182","27vew4dgqp7ao2p",109,"103.csv","","357.19999998807907","resources/trios/L1T4A2.jpg","37","restless",0.7,0.5,0.4,0.849592798192852,"false"
"image-keyboard-response",558,506735,"0.0-3.182-1.182","27vew4dgqp7ao2p",109,"103.csv","","null","resources/maskTrios/L1BB.jpg","null","",NA,NA,NA,NA,""
"image-keyboard-response",559,507937,"0.0-3.182-2.182","27vew4dgqp7ao2p",109,"103.csv","","null","resources/images/fishbone.png","null","",NA,NA,NA,NA,""
"image-keyboard-response",560,508814,"0.0-3.183-0.183","27vew4dgqp7ao2p",109,"103.csv","","874.1999999880791","resources/trios/L1T1A2.jpg","38","restless",0.7,0.4,0.4,0.253565894620886,"true"
"image-keyboard-response",561,509216,"0.0-3.183-1.183","27vew4dgqp7ao2p",109,"103.csv","","null","resources/maskTrios/BT1B.jpg","null","",NA,NA,NA,NA,""
"image-keyboard-response",562,510418,"0.0-3.183-2.183","27vew4dgqp7ao2p",109,"103.csv","","null","resources/images/coin2.png","null","",NA,NA,NA,NA,""
"image-keyboard-response",563,511717,"0.0-3.184-0.184","27vew4dgqp7ao2p",109,"103.csv","","1296.4000000357628","resources/trios/L1T1A2.jpg","38","restless",0.7,0.3,0.4,0.939095479186536,"false"
"image-keyboard-response",564,512119,"0.0-3.184-1.184","27vew4dgqp7ao2p",109,"103.csv","","null","resources/maskTrios/BT1B.jpg","null","",NA,NA,NA,NA,""
"image-keyboard-response",565,513321,"0.0-3.184-2.184","27vew4dgqp7ao2p",109,"103.csv","","null","resources/images/fishbone.png","null","",NA,NA,NA,NA,""
"image-keyboard-response",566,513901,"0.0-3.185-0.185","27vew4dgqp7ao2p",109,"103.csv","","578","resources/trios/L4T1A3.jpg","39","restless",0.6,0.3,0.4,0.609998066287475,"false"
"image-keyboard-response",567,514304,"0.0-3.185-1.185","27vew4dgqp7ao2p",109,"103.csv","","null","resources/maskTrios/BBA3.jpg","null","",NA,NA,NA,NA,""
"image-keyboard-response",568,515510,"0.0-3.185-2.185","27vew4dgqp7ao2p",109,"103.csv","","null","resources/images/fishbone.png","null","",NA,NA,NA,NA,""
"image-keyboard-response",569,516505,"0.0-3.186-0.186","27vew4dgqp7ao2p",109,"103.csv","","993.1999999880791","resources/trios/L4T1A2.jpg","37","restless",0.6,0.3,0.4,0.376477729708015,"true"
"image-keyboard-response",570,516908,"0.0-3.186-1.186","27vew4dgqp7ao2p",109,"103.csv","","null","resources/maskTrios/L4BB.jpg","null","",NA,NA,NA,NA,""
"image-keyboard-response",571,518111,"0.0-3.186-2.186","27vew4dgqp7ao2p",109,"103.csv","","null","resources/images/coin2.png","null","",NA,NA,NA,NA,""
"image-keyboard-response",572,519139,"0.0-3.187-0.187","27vew4dgqp7ao2p",109,"103.csv","","1026.0999999642372","resources/trios/L1T1A3.jpg","37","restless",0.6,0.3,0.4,0.239626297812515,"true"
"image-keyboard-response",573,519543,"0.0-3.187-1.187","27vew4dgqp7ao2p",109,"103.csv","","null","resources/maskTrios/L1BB.jpg","null","",NA,NA,NA,NA,""
"image-keyboard-response",574,520746,"0.0-3.187-2.187","27vew4dgqp7ao2p",109,"103.csv","","null","resources/images/coin2.png","null","",NA,NA,NA,NA,""
"image-keyboard-response",575,521576,"0.0-3.188-0.188","27vew4dgqp7ao2p",109,"103.csv","","827.6999999880791","resources/trios/L1T1A2.jpg","37","restless",0.6,0.3,0.4,0.324094892363161,"true"
"image-keyboard-response",576,521979,"0.0-3.188-1.188","27vew4dgqp7ao2p",109,"103.csv","","null","resources/maskTrios/L1BB.jpg","null","",NA,NA,NA,NA,""
"image-keyboard-response",577,523182,"0.0-3.188-2.188","27vew4dgqp7ao2p",109,"103.csv","","null","resources/images/coin2.png","null","",NA,NA,NA,NA,""
"image-keyboard-response",578,523546,"0.0-3.189-0.189","27vew4dgqp7ao2p",109,"103.csv","","362.0999999642372","resources/trios/L4T1A3.jpg","37","restless",0.6,0.3,0.4,0.594448815684092,"true"
"image-keyboard-response",579,523949,"0.0-3.189-1.189","27vew4dgqp7ao2p",109,"103.csv","","null","resources/maskTrios/L4BB.jpg","null","",NA,NA,NA,NA,""
"image-keyboard-response",580,525152,"0.0-3.189-2.189","27vew4dgqp7ao2p",109,"103.csv","","null","resources/images/coin2.png","null","",NA,NA,NA,NA,""
"image-keyboard-response",581,525590,"0.0-3.190-0.190","27vew4dgqp7ao2p",109,"103.csv","","436.69999998807907","resources/trios/L4T1A3.jpg","37","restless",0.6,0.3,0.4,0.321815386146124,"true"
"image-keyboard-response",582,525994,"0.0-3.190-1.190","27vew4dgqp7ao2p",109,"103.csv","","null","resources/maskTrios/L4BB.jpg","null","",NA,NA,NA,NA,""
"image-keyboard-response",583,527197,"0.0-3.190-2.190","27vew4dgqp7ao2p",109,"103.csv","","null","resources/images/coin2.png","null","",NA,NA,NA,NA,""
"image-keyboard-response",584,527513,"0.0-3.191-0.191","27vew4dgqp7ao2p",109,"103.csv","","314.19999998807907","resources/trios/L4T4A3.jpg","37","restless",0.6,0.3,0.4,0.519683159519755,"true"
"image-keyboard-response",585,527917,"0.0-3.191-1.191","27vew4dgqp7ao2p",109,"103.csv","","null","resources/maskTrios/L4BB.jpg","null","",NA,NA,NA,NA,""
"image-keyboard-response",586,529119,"0.0-3.191-2.191","27vew4dgqp7ao2p",109,"103.csv","","null","resources/images/coin2.png","null","",NA,NA,NA,NA,""
"image-keyboard-response",587,529394,"0.0-3.192-0.192","27vew4dgqp7ao2p",109,"103.csv","","272.0999999642372","resources/trios/L4T4A3.jpg","37","restless",0.6,0.3,0.4,0.246203569457476,"true"
"image-keyboard-response",588,529796,"0.0-3.192-1.192","27vew4dgqp7ao2p",109,"103.csv","","null","resources/maskTrios/L4BB.jpg","null","",NA,NA,NA,NA,""
"image-keyboard-response",589,530999,"0.0-3.192-2.192","27vew4dgqp7ao2p",109,"103.csv","","null","resources/images/coin2.png","null","",NA,NA,NA,NA,""
"image-keyboard-response",590,531289,"0.0-3.193-0.193","27vew4dgqp7ao2p",109,"103.csv","","287.4000000357628","resources/trios/L4T4A2.jpg","37","restless",0.6,0.3,0.5,0.728808541758295,"false"
"image-keyboard-response",591,531692,"0.0-3.193-1.193","27vew4dgqp7ao2p",109,"103.csv","","null","resources/maskTrios/L4BB.jpg","null","",NA,NA,NA,NA,""
"image-keyboard-response",592,532895,"0.0-3.193-2.193","27vew4dgqp7ao2p",109,"103.csv","","null","resources/images/fishbone.png","null","",NA,NA,NA,NA,""
"image-keyboard-response",593,533272,"0.0-3.194-0.194","27vew4dgqp7ao2p",109,"103.csv","","375.80000001192093","resources/trios/L1T4A2.jpg","38","restless",0.6,0.3,0.5,0.465597150513928,"false"
"image-keyboard-response",594,533673,"0.0-3.194-1.194","27vew4dgqp7ao2p",109,"103.csv","","null","resources/maskTrios/BT4B.jpg","null","",NA,NA,NA,NA,""
"image-keyboard-response",595,534875,"0.0-3.194-2.194","27vew4dgqp7ao2p",109,"103.csv","","null","resources/images/fishbone.png","null","",NA,NA,NA,NA,""
"image-keyboard-response",596,535099,"0.0-3.195-0.195","27vew4dgqp7ao2p",109,"103.csv","","221.30000001192093","resources/trios/L4T4A3.jpg","39","restless",0.6,0.3,0.5,0.0216144206241473,"true"
"image-keyboard-response",597,535502,"0.0-3.195-1.195","27vew4dgqp7ao2p",109,"103.csv","","null","resources/maskTrios/BBA3.jpg","null","",NA,NA,NA,NA,""
"image-keyboard-response",598,536705,"0.0-3.195-2.195","27vew4dgqp7ao2p",109,"103.csv","","null","resources/images/coin2.png","null","",NA,NA,NA,NA,""
"image-keyboard-response",599,537086,"0.0-3.196-0.196","27vew4dgqp7ao2p",109,"103.csv","","378.60000002384186","resources/trios/L4T4A3.jpg","39","restless",0.6,0.3,0.5,0.67665745778234,"false"
"image-keyboard-response",600,537493,"0.0-3.196-1.196","27vew4dgqp7ao2p",109,"103.csv","","null","resources/maskTrios/BBA3.jpg","null","",NA,NA,NA,NA,""
"image-keyboard-response",601,538696,"0.0-3.196-2.196","27vew4dgqp7ao2p",109,"103.csv","","null","resources/images/fishbone.png","null","",NA,NA,NA,NA,""
"image-keyboard-response",602,539039,"0.0-3.197-0.197","27vew4dgqp7ao2p",109,"103.csv","","340.2000000476837","resources/trios/L4T1A2.jpg","37","restless",0.6,0.3,0.5,0.729034178939232,"false"
"image-keyboard-response",603,539441,"0.0-3.197-1.197","27vew4dgqp7ao2p",109,"103.csv","","null","resources/maskTrios/L4BB.jpg","null","",NA,NA,NA,NA,""
"image-keyboard-response",604,540644,"0.0-3.197-2.197","27vew4dgqp7ao2p",109,"103.csv","","null","resources/images/fishbone.png","null","",NA,NA,NA,NA,""
"image-keyboard-response",605,541363,"0.0-3.198-0.198","27vew4dgqp7ao2p",109,"103.csv","","715.8999999761581","resources/trios/L4T1A3.jpg","38","restless",0.6,0.3,0.5,0.252390527031437,"true"
