"trial_type","trial_index","time_elapsed","internal_node_id","subject","walkNumber","success","rt","stimulus","key_press","test_part","leftProb","midProb","rightProb","generatedNum","correct"
"pavlovia",0,891,"0.0-0.0","dbsrngrqgslyu6m","163.csv","","","","","",NA,NA,NA,NA,""
"fullscreen",1,10418,"0.0-1.0","dbsrngrqgslyu6m","163.csv","true","","","","",NA,NA,NA,NA,""
"html-keyboard-response",2,19053,"0.0-2.0-0.0","dbsrngrqgslyu6m","163.csv","","8633","<p><font size='6'>Arrrgh!</p></font><p>Can you be the best pirate? Try to find lots of gold! But beware, some islands have more gold than others, and over time, the island with the most gold may change. Can YOU figure it out? </p><font size='6'>GOOD LUCK, CAPTAIN!!!</font><p>Press any key to begin</p>","32","",NA,NA,NA,NA,""
"image-keyboard-response",3,22083,"0.0-2.0-1.0","dbsrngrqgslyu6m","163.csv","","null","resources/image_sets/111.png","null","",NA,NA,NA,NA,""
"image-keyboard-response",4,27459,"0.0-2.0-2.0","dbsrngrqgslyu6m","163.csv","","5374.5","resources/image_sets/left_highlight.png","37","",NA,NA,NA,NA,""
"image-keyboard-response",5,31416,"0.0-2.0-3.0","dbsrngrqgslyu6m","163.csv","","3957.600000023842","resources/image_sets/mid_highlight.png","38","",NA,NA,NA,NA,""
"image-keyboard-response",6,32336,"0.0-2.0-4.0","dbsrngrqgslyu6m","163.csv","","918.6000000238419","resources/image_sets/right_highlight.png","39","",NA,NA,NA,NA,""
"image-keyboard-response",7,35160,"0.0-2.0-5.0","dbsrngrqgslyu6m","163.csv","","2822.6999999284744","resources/image_sets/111.png","13","",NA,NA,NA,NA,""
"image-keyboard-response",8,38128,"0.0-2.0-6.0","dbsrngrqgslyu6m","163.csv","","2966.899999976158","resources/images/coin2.png","13","",NA,NA,NA,NA,""
"image-keyboard-response",9,40640,"0.0-2.0-7.0","dbsrngrqgslyu6m","163.csv","","2511","resources/images/fishbone.png","13","",NA,NA,NA,NA,""
"image-keyboard-response",10,42696,"0.0-3.0-0.0","dbsrngrqgslyu6m","163.csv","","2054.7000000476837","resources/trios/L4T1A1.jpg","37","restless",0.9,0.7,0.3,0.394385472537856,"true"
"image-keyboard-response",11,43103,"0.0-3.0-1.0","dbsrngrqgslyu6m","163.csv","","null","resources/maskTrios/L4BB.jpg","null","",NA,NA,NA,NA,""
"image-keyboard-response",12,44316,"0.0-3.0-2.0","dbsrngrqgslyu6m","163.csv","","null","resources/images/coin2.png","null","",NA,NA,NA,NA,""
"image-keyboard-response",13,44768,"0.0-3.1-0.1","dbsrngrqgslyu6m","163.csv","","450.2000000476837","resources/trios/L1T4A3.jpg","37","restless",0.9,0.7,0.4,0.377920871058494,"true"
"image-keyboard-response",14,45173,"0.0-3.1-1.1","dbsrngrqgslyu6m","163.csv","","null","resources/maskTrios/L1BB.jpg","null","",NA,NA,NA,NA,""
"image-keyboard-response",15,46385,"0.0-3.1-2.1","dbsrngrqgslyu6m","163.csv","","null","resources/images/coin2.png","null","",NA,NA,NA,NA,""
"image-keyboard-response",16,46808,"0.0-3.2-0.2","dbsrngrqgslyu6m","163.csv","","420.7999999523163","resources/trios/L4T1A1.jpg","37","restless",0.9,0.7,0.4,0.216951574346785,"true"
"image-keyboard-response",17,47212,"0.0-3.2-1.2","dbsrngrqgslyu6m","163.csv","","null","resources/maskTrios/L4BB.jpg","null","",NA,NA,NA,NA,""
"image-keyboard-response",18,48429,"0.0-3.2-2.2","dbsrngrqgslyu6m","163.csv","","null","resources/images/coin2.png","null","",NA,NA,NA,NA,""
"image-keyboard-response",19,48753,"0.0-3.3-0.3","dbsrngrqgslyu6m","163.csv","","321.5","resources/trios/L4T4A1.jpg","37","restless",0.9,0.7,0.4,0.650315064029854,"true"
"image-keyboard-response",20,49165,"0.0-3.3-1.3","dbsrngrqgslyu6m","163.csv","","null","resources/maskTrios/L4BB.jpg","null","",NA,NA,NA,NA,""
"image-keyboard-response",21,50377,"0.0-3.3-2.3","dbsrngrqgslyu6m","163.csv","","null","resources/images/coin2.png","null","",NA,NA,NA,NA,""
"image-keyboard-response",22,50680,"0.0-3.4-0.4","dbsrngrqgslyu6m","163.csv","","301.5","resources/trios/L1T1A1.jpg","37","restless",0.9,0.7,0.4,0.0844022989862172,"true"
"image-keyboard-response",23,51093,"0.0-3.4-1.4","dbsrngrqgslyu6m","163.csv","","null","resources/maskTrios/L1BB.jpg","null","",NA,NA,NA,NA,""
"image-keyboard-response",24,52303,"0.0-3.4-2.4","dbsrngrqgslyu6m","163.csv","","null","resources/images/coin2.png","null","",NA,NA,NA,NA,""
"image-keyboard-response",25,54080,"0.0-3.5-0.5","dbsrngrqgslyu6m","163.csv","","1775.7999999523163","resources/trios/L4T4A3.jpg","37","restless",0.9,0.7,0.3,0.352745980806546,"true"
"image-keyboard-response",26,54497,"0.0-3.5-1.5","dbsrngrqgslyu6m","163.csv","","null","resources/maskTrios/L4BB.jpg","null","",NA,NA,NA,NA,""
"image-keyboard-response",27,55705,"0.0-3.5-2.5","dbsrngrqgslyu6m","163.csv","","null","resources/images/coin2.png","null","",NA,NA,NA,NA,""
"image-keyboard-response",28,55912,"0.0-3.6-0.6","dbsrngrqgslyu6m","163.csv","","205","resources/trios/L1T4A1.jpg","37","restless",0.9,0.7,0.4,0.77903755248103,"true"
"image-keyboard-response",29,56329,"0.0-3.6-1.6","dbsrngrqgslyu6m","163.csv","","null","resources/maskTrios/L1BB.jpg","null","",NA,NA,NA,NA,""
"image-keyboard-response",30,57543,"0.0-3.6-2.6","dbsrngrqgslyu6m","163.csv","","null","resources/images/coin2.png","null","",NA,NA,NA,NA,""
"image-keyboard-response",31,57952,"0.0-3.7-0.7","dbsrngrqgslyu6m","163.csv","","407.39999997615814","resources/trios/L1T4A3.jpg","37","restless",0.8,0.7,0.5,0.866664656467985,"false"
"image-keyboard-response",32,58366,"0.0-3.7-1.7","dbsrngrqgslyu6m","163.csv","","null","resources/maskTrios/L1BB.jpg","null","",NA,NA,NA,NA,""
"image-keyboard-response",33,59576,"0.0-3.7-2.7","dbsrngrqgslyu6m","163.csv","","null","resources/images/fishbone.png","null","",NA,NA,NA,NA,""
"image-keyboard-response",34,59952,"0.0-3.8-0.8","dbsrngrqgslyu6m","163.csv","","375","resources/trios/L1T4A3.jpg","39","restless",0.8,0.7,0.5,0.0152443381346121,"true"
"image-keyboard-response",35,60356,"0.0-3.8-1.8","dbsrngrqgslyu6m","163.csv","","null","resources/maskTrios/BBA3.jpg","null","",NA,NA,NA,NA,""
"image-keyboard-response",36,61562,"0.0-3.8-2.8","dbsrngrqgslyu6m","163.csv","","null","resources/images/coin2.png","null","",NA,NA,NA,NA,""
"image-keyboard-response",37,62000,"0.0-3.9-0.9","dbsrngrqgslyu6m","163.csv","","435.89999997615814","resources/trios/L4T1A3.jpg","39","restless",0.8,0.8,0.5,0.753775957165923,"false"
"image-keyboard-response",38,62408,"0.0-3.9-1.9","dbsrngrqgslyu6m","163.csv","","null","resources/maskTrios/BBA3.jpg","null","",NA,NA,NA,NA,""
"image-keyboard-response",39,63620,"0.0-3.9-2.9","dbsrngrqgslyu6m","163.csv","","null","resources/images/fishbone.png","null","",NA,NA,NA,NA,""
"image-keyboard-response",40,63976,"0.0-3.10-0.10","dbsrngrqgslyu6m","163.csv","","354.2999999523163","resources/trios/L1T1A3.jpg","38","restless",0.8,0.7,0.5,0.896954587268127,"false"
"image-keyboard-response",41,64378,"0.0-3.10-1.10","dbsrngrqgslyu6m","163.csv","","null","resources/maskTrios/BT1B.jpg","null","",NA,NA,NA,NA,""
"image-keyboard-response",42,65595,"0.0-3.10-2.10","dbsrngrqgslyu6m","163.csv","","null","resources/images/fishbone.png","null","",NA,NA,NA,NA,""
"image-keyboard-response",43,65960,"0.0-3.11-0.11","dbsrngrqgslyu6m","163.csv","","363.7999999523163","resources/trios/L4T1A1.jpg","39","restless",0.8,0.7,0.5,0.0865873200024057,"true"
"image-keyboard-response",44,66369,"0.0-3.11-1.11","dbsrngrqgslyu6m","163.csv","","null","resources/maskTrios/BBA1.jpg","null","",NA,NA,NA,NA,""
"image-keyboard-response",45,67577,"0.0-3.11-2.11","dbsrngrqgslyu6m","163.csv","","null","resources/images/coin2.png","null","",NA,NA,NA,NA,""
"image-keyboard-response",46,67904,"0.0-3.12-0.12","dbsrngrqgslyu6m","163.csv","","324.7000000476837","resources/trios/L4T4A3.jpg","39","restless",0.8,0.7,0.5,0.794486681168989,"false"
"image-keyboard-response",47,68311,"0.0-3.12-1.12","dbsrngrqgslyu6m","163.csv","","null","resources/maskTrios/BBA3.jpg","null","",NA,NA,NA,NA,""
"image-keyboard-response",48,69522,"0.0-3.12-2.12","dbsrngrqgslyu6m","163.csv","","null","resources/images/fishbone.png","null","",NA,NA,NA,NA,""
"image-keyboard-response",49,69792,"0.0-3.13-0.13","dbsrngrqgslyu6m","163.csv","","268.59999990463257","resources/trios/L4T1A1.jpg","38","restless",0.8,0.7,0.5,0.0679849599044771,"true"
"image-keyboard-response",50,70201,"0.0-3.13-1.13","dbsrngrqgslyu6m","163.csv","","null","resources/maskTrios/BT1B.jpg","null","",NA,NA,NA,NA,""
"image-keyboard-response",51,71406,"0.0-3.13-2.13","dbsrngrqgslyu6m","163.csv","","null","resources/images/coin2.png","null","",NA,NA,NA,NA,""
"image-keyboard-response",52,71856,"0.0-3.14-0.14","dbsrngrqgslyu6m","163.csv","","449.2999999523163","resources/trios/L4T4A1.jpg","38","restless",0.8,0.7,0.6,0.981539769529318,"false"
"image-keyboard-response",53,72258,"0.0-3.14-1.14","dbsrngrqgslyu6m","163.csv","","null","resources/maskTrios/BT4B.jpg","null","",NA,NA,NA,NA,""
"image-keyboard-response",54,73461,"0.0-3.14-2.14","dbsrngrqgslyu6m","163.csv","","null","resources/images/fishbone.png","null","",NA,NA,NA,NA,""
"image-keyboard-response",55,73832,"0.0-3.15-0.15","dbsrngrqgslyu6m","163.csv","","368.90000009536743","resources/trios/L4T1A3.jpg","37","restless",0.8,0.7,0.6,0.899112559525382,"false"
"image-keyboard-response",56,74241,"0.0-3.15-1.15","dbsrngrqgslyu6m","163.csv","","null","resources/maskTrios/L4BB.jpg","null","",NA,NA,NA,NA,""
"image-keyboard-response",57,75444,"0.0-3.15-2.15","dbsrngrqgslyu6m","163.csv","","null","resources/images/fishbone.png","null","",NA,NA,NA,NA,""
"image-keyboard-response",58,75784,"0.0-3.16-0.16","dbsrngrqgslyu6m","163.csv","","338.39999997615814","resources/trios/L4T1A3.jpg","38","restless",0.8,0.7,0.5,0.507202343098249,"true"
"image-keyboard-response",59,76198,"0.0-3.16-1.16","dbsrngrqgslyu6m","163.csv","","null","resources/maskTrios/BT1B.jpg","null","",NA,NA,NA,NA,""
"image-keyboard-response",60,77414,"0.0-3.16-2.16","dbsrngrqgslyu6m","163.csv","","null","resources/images/coin2.png","null","",NA,NA,NA,NA,""
"image-keyboard-response",61,77801,"0.0-3.17-0.17","dbsrngrqgslyu6m","163.csv","","384.60000002384186","resources/trios/L4T4A1.jpg","38","restless",0.8,0.7,0.5,0.611880737887518,"true"
"image-keyboard-response",62,78206,"0.0-3.17-1.17","dbsrngrqgslyu6m","163.csv","","null","resources/maskTrios/BT4B.jpg","null","",NA,NA,NA,NA,""
"image-keyboard-response",63,79412,"0.0-3.17-2.17","dbsrngrqgslyu6m","163.csv","","null","resources/images/coin2.png","null","",NA,NA,NA,NA,""
"image-keyboard-response",64,79823,"0.0-3.18-0.18","dbsrngrqgslyu6m","163.csv","","410.1999999284744","resources/trios/L1T4A3.jpg","38","restless",0.7,0.8,0.5,0.258040283693101,"true"
"image-keyboard-response",65,80239,"0.0-3.18-1.18","dbsrngrqgslyu6m","163.csv","","null","resources/maskTrios/BT4B.jpg","null","",NA,NA,NA,NA,""
"image-keyboard-response",66,81445,"0.0-3.18-2.18","dbsrngrqgslyu6m","163.csv","","null","resources/images/coin2.png","null","",NA,NA,NA,NA,""
"image-keyboard-response",67,81832,"0.0-3.19-0.19","dbsrngrqgslyu6m","163.csv","","384.90000009536743","resources/trios/L1T4A3.jpg","38","restless",0.7,0.8,0.5,0.34548795803638,"true"
"image-keyboard-response",68,82249,"0.0-3.19-1.19","dbsrngrqgslyu6m","163.csv","","null","resources/maskTrios/BT4B.jpg","null","",NA,NA,NA,NA,""
"image-keyboard-response",69,83464,"0.0-3.19-2.19","dbsrngrqgslyu6m","163.csv","","null","resources/images/coin2.png","null","",NA,NA,NA,NA,""
"image-keyboard-response",70,83561,"0.0-3.20-0.20","dbsrngrqgslyu6m","163.csv","","93.10000002384186","resources/trios/L1T4A3.jpg","38","restless",0.7,0.8,0.5,0.443514789711493,"true"
"image-keyboard-response",71,83970,"0.0-3.20-1.20","dbsrngrqgslyu6m","163.csv","","null","resources/maskTrios/BT4B.jpg","null","",NA,NA,NA,NA,""
"image-keyboard-response",72,85179,"0.0-3.20-2.20","dbsrngrqgslyu6m","163.csv","","null","resources/images/coin2.png","null","",NA,NA,NA,NA,""
"image-keyboard-response",73,85623,"0.0-3.21-0.21","dbsrngrqgslyu6m","163.csv","","443.09999990463257","resources/trios/L1T4A1.jpg","38","restless",0.7,0.8,0.5,0.906848158602578,"false"
"image-keyboard-response",74,86036,"0.0-3.21-1.21","dbsrngrqgslyu6m","163.csv","","null","resources/maskTrios/BT4B.jpg","null","",NA,NA,NA,NA,""
"image-keyboard-response",75,87250,"0.0-3.21-2.21","dbsrngrqgslyu6m","163.csv","","null","resources/images/fishbone.png","null","",NA,NA,NA,NA,""
"image-keyboard-response",76,87624,"0.0-3.22-0.22","dbsrngrqgslyu6m","163.csv","","372.60000002384186","resources/trios/L4T1A1.jpg","39","restless",0.7,0.8,0.5,0.310395519797209,"true"
"image-keyboard-response",77,88040,"0.0-3.22-1.22","dbsrngrqgslyu6m","163.csv","","null","resources/maskTrios/BBA1.jpg","null","",NA,NA,NA,NA,""
"image-keyboard-response",78,89249,"0.0-3.22-2.22","dbsrngrqgslyu6m","163.csv","","null","resources/images/coin2.png","null","",NA,NA,NA,NA,""
"image-keyboard-response",79,89424,"0.0-3.23-0.23","dbsrngrqgslyu6m","163.csv","","173.19999992847443","resources/trios/L4T4A3.jpg","39","restless",0.7,0.8,0.5,0.428429927626855,"true"
"image-keyboard-response",80,89836,"0.0-3.23-1.23","dbsrngrqgslyu6m","163.csv","","null","resources/maskTrios/BBA3.jpg","null","",NA,NA,NA,NA,""
"image-keyboard-response",81,91047,"0.0-3.23-2.23","dbsrngrqgslyu6m","163.csv","","null","resources/images/coin2.png","null","",NA,NA,NA,NA,""
"image-keyboard-response",82,91232,"0.0-3.24-0.24","dbsrngrqgslyu6m","163.csv","","182","resources/trios/L4T1A1.jpg","39","restless",0.7,0.8,0.4,0.966663891855278,"false"
"image-keyboard-response",83,91651,"0.0-3.24-1.24","dbsrngrqgslyu6m","163.csv","","null","resources/maskTrios/BBA1.jpg","null","",NA,NA,NA,NA,""
"image-keyboard-response",84,92866,"0.0-3.24-2.24","dbsrngrqgslyu6m","163.csv","","null","resources/images/fishbone.png","null","",NA,NA,NA,NA,""
"image-keyboard-response",85,93202,"0.0-3.25-0.25","dbsrngrqgslyu6m","163.csv","","334.39999997615814","resources/trios/L1T4A1.jpg","38","restless",0.7,0.9,0.4,0.700647409727496,"true"
"image-keyboard-response",86,93604,"0.0-3.25-1.25","dbsrngrqgslyu6m","163.csv","","null","resources/maskTrios/BT4B.jpg","null","",NA,NA,NA,NA,""
"image-keyboard-response",87,94821,"0.0-3.25-2.25","dbsrngrqgslyu6m","163.csv","","null","resources/images/coin2.png","null","",NA,NA,NA,NA,""
"image-keyboard-response",88,95235,"0.0-3.26-0.26","dbsrngrqgslyu6m","163.csv","","412.5","resources/trios/L1T4A1.jpg","38","restless",0.6,0.9,0.4,0.558046114306907,"true"
"image-keyboard-response",89,95637,"0.0-3.26-1.26","dbsrngrqgslyu6m","163.csv","","null","resources/maskTrios/BT4B.jpg","null","",NA,NA,NA,NA,""
"image-keyboard-response",90,96842,"0.0-3.26-2.26","dbsrngrqgslyu6m","163.csv","","null","resources/images/coin2.png","null","",NA,NA,NA,NA,""
"image-keyboard-response",91,97202,"0.0-3.27-0.27","dbsrngrqgslyu6m","163.csv","","358","resources/trios/L4T4A3.jpg","38","restless",0.6,0.9,0.4,0.0565837714888564,"true"
"image-keyboard-response",92,97606,"0.0-3.27-1.27","dbsrngrqgslyu6m","163.csv","","null","resources/maskTrios/BT4B.jpg","null","",NA,NA,NA,NA,""
"image-keyboard-response",93,98816,"0.0-3.27-2.27","dbsrngrqgslyu6m","163.csv","","null","resources/images/coin2.png","null","",NA,NA,NA,NA,""
"image-keyboard-response",94,99122,"0.0-3.28-0.28","dbsrngrqgslyu6m","163.csv","","305.2000000476837","resources/trios/L4T1A1.jpg","38","restless",0.6,0.9,0.4,0.289958198358523,"true"
"image-keyboard-response",95,99535,"0.0-3.28-1.28","dbsrngrqgslyu6m","163.csv","","null","resources/maskTrios/BT1B.jpg","null","",NA,NA,NA,NA,""
"image-keyboard-response",96,100747,"0.0-3.28-2.28","dbsrngrqgslyu6m","163.csv","","null","resources/images/coin2.png","null","",NA,NA,NA,NA,""
"image-keyboard-response",97,101122,"0.0-3.29-0.29","dbsrngrqgslyu6m","163.csv","","373.60000002384186","resources/trios/L1T4A3.jpg","38","restless",0.6,0.8,0.5,0.27662933820451,"true"
"image-keyboard-response",98,101524,"0.0-3.29-1.29","dbsrngrqgslyu6m","163.csv","","null","resources/maskTrios/BT4B.jpg","null","",NA,NA,NA,NA,""
"image-keyboard-response",99,102734,"0.0-3.29-2.29","dbsrngrqgslyu6m","163.csv","","null","resources/images/coin2.png","null","",NA,NA,NA,NA,""
"image-keyboard-response",100,103098,"0.0-3.30-0.30","dbsrngrqgslyu6m","163.csv","","362.60000002384186","resources/trios/L1T1A1.jpg","38","restless",0.6,0.7,0.5,0.163060558142217,"true"
"image-keyboard-response",101,103500,"0.0-3.30-1.30","dbsrngrqgslyu6m","163.csv","","null","resources/maskTrios/BT1B.jpg","null","",NA,NA,NA,NA,""
"image-keyboard-response",102,104717,"0.0-3.30-2.30","dbsrngrqgslyu6m","163.csv","","null","resources/images/coin2.png","null","",NA,NA,NA,NA,""
"image-keyboard-response",103,105122,"0.0-3.31-0.31","dbsrngrqgslyu6m","163.csv","","404","resources/trios/L1T4A3.jpg","38","restless",0.6,0.7,0.6,0.40133933164096,"true"
"image-keyboard-response",104,105533,"0.0-3.31-1.31","dbsrngrqgslyu6m","163.csv","","null","resources/maskTrios/BT4B.jpg","null","",NA,NA,NA,NA,""
"image-keyboard-response",105,106735,"0.0-3.31-2.31","dbsrngrqgslyu6m","163.csv","","null","resources/images/coin2.png","null","",NA,NA,NA,NA,""
"image-keyboard-response",106,107187,"0.0-3.32-0.32","dbsrngrqgslyu6m","163.csv","","450.10000002384186","resources/trios/L4T1A1.jpg","38","restless",0.6,0.7,0.5,0.152635541980517,"true"
"image-keyboard-response",107,107598,"0.0-3.32-1.32","dbsrngrqgslyu6m","163.csv","","null","resources/maskTrios/BT1B.jpg","null","",NA,NA,NA,NA,""
"image-keyboard-response",108,108802,"0.0-3.32-2.32","dbsrngrqgslyu6m","163.csv","","null","resources/images/coin2.png","null","",NA,NA,NA,NA,""
"image-keyboard-response",109,109034,"0.0-3.33-0.33","dbsrngrqgslyu6m","163.csv","","230.29999995231628","resources/trios/L1T4A1.jpg","38","restless",0.5,0.7,0.5,0.560313890986702,"true"
"image-keyboard-response",110,109443,"0.0-3.33-1.33","dbsrngrqgslyu6m","163.csv","","null","resources/maskTrios/BT4B.jpg","null","",NA,NA,NA,NA,""
"image-keyboard-response",111,110653,"0.0-3.33-2.33","dbsrngrqgslyu6m","163.csv","","null","resources/images/coin2.png","null","",NA,NA,NA,NA,""
"image-keyboard-response",112,110722,"0.0-3.34-0.34","dbsrngrqgslyu6m","163.csv","","67.5","resources/trios/L1T1A1.jpg","38","restless",0.5,0.7,0.5,0.37874145099583,"true"
"image-keyboard-response",113,111136,"0.0-3.34-1.34","dbsrngrqgslyu6m","163.csv","","null","resources/maskTrios/BT1B.jpg","null","",NA,NA,NA,NA,""
"image-keyboard-response",114,112344,"0.0-3.34-2.34","dbsrngrqgslyu6m","163.csv","","null","resources/images/coin2.png","null","",NA,NA,NA,NA,""
"image-keyboard-response",115,112370,"0.0-3.35-0.35","dbsrngrqgslyu6m","163.csv","","25.300000071525574","resources/trios/L1T1A3.jpg","38","restless",0.5,0.7,0.5,0.635491199729274,"true"
"image-keyboard-response",116,112780,"0.0-3.35-1.35","dbsrngrqgslyu6m","163.csv","","null","resources/maskTrios/BT1B.jpg","null","",NA,NA,NA,NA,""
"image-keyboard-response",117,113996,"0.0-3.35-2.35","dbsrngrqgslyu6m","163.csv","","null","resources/images/coin2.png","null","",NA,NA,NA,NA,""
"image-keyboard-response",118,114730,"0.0-3.36-0.36","dbsrngrqgslyu6m","163.csv","","733","resources/trios/L1T4A1.jpg","38","restless",0.5,0.6,0.5,0.738097928785356,"false"
"image-keyboard-response",119,115140,"0.0-3.36-1.36","dbsrngrqgslyu6m","163.csv","","null","resources/maskTrios/BT4B.jpg","null","",NA,NA,NA,NA,""
"image-keyboard-response",120,116348,"0.0-3.36-2.36","dbsrngrqgslyu6m","163.csv","","null","resources/images/fishbone.png","null","",NA,NA,NA,NA,""
"image-keyboard-response",121,116802,"0.0-3.37-0.37","dbsrngrqgslyu6m","163.csv","","452.5","resources/trios/L4T1A3.jpg","37","restless",0.5,0.6,0.5,0.406883246036174,"true"
"image-keyboard-response",122,117209,"0.0-3.37-1.37","dbsrngrqgslyu6m","163.csv","","null","resources/maskTrios/L4BB.jpg","null","",NA,NA,NA,NA,""
"image-keyboard-response",123,118419,"0.0-3.37-2.37","dbsrngrqgslyu6m","163.csv","","null","resources/images/coin2.png","null","",NA,NA,NA,NA,""
"image-keyboard-response",124,118883,"0.0-3.38-0.38","dbsrngrqgslyu6m","163.csv","","462.2999999523163","resources/trios/L1T1A1.jpg","37","restless",0.4,0.6,0.5,0.190494564841786,"true"
"image-keyboard-response",125,119294,"0.0-3.38-1.38","dbsrngrqgslyu6m","163.csv","","null","resources/maskTrios/L1BB.jpg","null","",NA,NA,NA,NA,""
"image-keyboard-response",126,120508,"0.0-3.38-2.38","dbsrngrqgslyu6m","163.csv","","null","resources/images/coin2.png","null","",NA,NA,NA,NA,""
"image-keyboard-response",127,120922,"0.0-3.39-0.39","dbsrngrqgslyu6m","163.csv","","412.2000000476837","resources/trios/L4T4A1.jpg","37","restless",0.3,0.6,0.5,0.363749238960906,"false"
"image-keyboard-response",128,121331,"0.0-3.39-1.39","dbsrngrqgslyu6m","163.csv","","null","resources/maskTrios/L4BB.jpg","null","",NA,NA,NA,NA,""
"image-keyboard-response",129,122539,"0.0-3.39-2.39","dbsrngrqgslyu6m","163.csv","","null","resources/images/fishbone.png","null","",NA,NA,NA,NA,""
"image-keyboard-response",130,122794,"0.0-3.40-0.40","dbsrngrqgslyu6m","163.csv","","253.69999992847443","resources/trios/L4T4A3.jpg","39","restless",0.3,0.6,0.5,0.997870229300351,"false"
"image-keyboard-response",131,123210,"0.0-3.40-1.40","dbsrngrqgslyu6m","163.csv","","null","resources/maskTrios/BBA3.jpg","null","",NA,NA,NA,NA,""
"image-keyboard-response",132,124413,"0.0-3.40-2.40","dbsrngrqgslyu6m","163.csv","","null","resources/images/fishbone.png","null","",NA,NA,NA,NA,""
"image-keyboard-response",133,124874,"0.0-3.41-0.41","dbsrngrqgslyu6m","163.csv","","459.5","resources/trios/L4T1A3.jpg","38","restless",0.3,0.6,0.4,0.317859464559946,"true"
"image-keyboard-response",134,125282,"0.0-3.41-1.41","dbsrngrqgslyu6m","163.csv","","null","resources/maskTrios/BT1B.jpg","null","",NA,NA,NA,NA,""
"image-keyboard-response",135,126493,"0.0-3.41-2.41","dbsrngrqgslyu6m","163.csv","","null","resources/images/coin2.png","null","",NA,NA,NA,NA,""
"image-keyboard-response",136,126642,"0.0-3.42-0.42","dbsrngrqgslyu6m","163.csv","","147.59999990463257","resources/trios/L1T1A3.jpg","38","restless",0.3,0.6,0.4,0.278243820154349,"true"
"image-keyboard-response",137,127059,"0.0-3.42-1.42","dbsrngrqgslyu6m","163.csv","","null","resources/maskTrios/BT1B.jpg","null","",NA,NA,NA,NA,""
"image-keyboard-response",138,128277,"0.0-3.42-2.42","dbsrngrqgslyu6m","163.csv","","null","resources/images/coin2.png","null","",NA,NA,NA,NA,""
"image-keyboard-response",139,128730,"0.0-3.43-0.43","dbsrngrqgslyu6m","163.csv","","451.89999997615814","resources/trios/L1T1A1.jpg","38","restless",0.3,0.6,0.4,0.622048220482188,"false"
"image-keyboard-response",140,129134,"0.0-3.43-1.43","dbsrngrqgslyu6m","163.csv","","null","resources/maskTrios/BT1B.jpg","null","",NA,NA,NA,NA,""
"image-keyboard-response",141,130348,"0.0-3.43-2.43","dbsrngrqgslyu6m","163.csv","","null","resources/images/fishbone.png","null","",NA,NA,NA,NA,""
"image-keyboard-response",142,130939,"0.0-3.44-0.44","dbsrngrqgslyu6m","163.csv","","588.2999999523163","resources/trios/L4T1A3.jpg","37","restless",0.4,0.6,0.4,0.42386558415264,"false"
"image-keyboard-response",143,131349,"0.0-3.44-1.44","dbsrngrqgslyu6m","163.csv","","null","resources/maskTrios/L4BB.jpg","null","",NA,NA,NA,NA,""
"image-keyboard-response",144,132560,"0.0-3.44-2.44","dbsrngrqgslyu6m","163.csv","","null","resources/images/fishbone.png","null","",NA,NA,NA,NA,""
"image-keyboard-response",145,133178,"0.0-3.45-0.45","dbsrngrqgslyu6m","163.csv","","616.6999999284744","resources/trios/L4T4A3.jpg","38","restless",0.4,0.6,0.4,0.72007134914052,"false"
"image-keyboard-response",146,133591,"0.0-3.45-1.45","dbsrngrqgslyu6m","163.csv","","null","resources/maskTrios/BT4B.jpg","null","",NA,NA,NA,NA,""
"image-keyboard-response",147,134797,"0.0-3.45-2.45","dbsrngrqgslyu6m","163.csv","","null","resources/images/fishbone.png","null","",NA,NA,NA,NA,""
"image-keyboard-response",148,135066,"0.0-3.46-0.46","dbsrngrqgslyu6m","163.csv","","268","resources/trios/L4T4A3.jpg","39","restless",0.4,0.6,0.4,0.255531716435022,"true"
"image-keyboard-response",149,135473,"0.0-3.46-1.46","dbsrngrqgslyu6m","163.csv","","null","resources/maskTrios/BBA3.jpg","null","",NA,NA,NA,NA,""
"image-keyboard-response",150,136688,"0.0-3.46-2.46","dbsrngrqgslyu6m","163.csv","","null","resources/images/coin2.png","null","",NA,NA,NA,NA,""
"image-keyboard-response",151,137098,"0.0-3.47-0.47","dbsrngrqgslyu6m","163.csv","","408.1999999284744","resources/trios/L1T4A1.jpg","39","restless",0.4,0.6,0.4,0.913098051970615,"false"
"image-keyboard-response",152,137506,"0.0-3.47-1.47","dbsrngrqgslyu6m","163.csv","","null","resources/maskTrios/BBA1.jpg","null","",NA,NA,NA,NA,""
"image-keyboard-response",153,138717,"0.0-3.47-2.47","dbsrngrqgslyu6m","163.csv","","null","resources/images/fishbone.png","null","",NA,NA,NA,NA,""
"image-keyboard-response",154,138834,"0.0-3.48-0.48","dbsrngrqgslyu6m","163.csv","","115.79999995231628","resources/trios/L4T1A3.jpg","38","restless",0.4,0.6,0.4,0.430873787641021,"true"
"image-keyboard-response",155,139240,"0.0-3.48-1.48","dbsrngrqgslyu6m","163.csv","","null","resources/maskTrios/BT1B.jpg","null","",NA,NA,NA,NA,""
"image-keyboard-response",156,140449,"0.0-3.48-2.48","dbsrngrqgslyu6m","163.csv","","null","resources/images/coin2.png","null","",NA,NA,NA,NA,""
"image-keyboard-response",157,140930,"0.0-3.49-0.49","dbsrngrqgslyu6m","163.csv","","478.10000002384186","resources/trios/L1T4A1.jpg","37","restless",0.4,0.6,0.4,0.886194314187328,"false"
"image-keyboard-response",158,141344,"0.0-3.49-1.49","dbsrngrqgslyu6m","163.csv","","null","resources/maskTrios/L1BB.jpg","null","",NA,NA,NA,NA,""
"image-keyboard-response",159,142554,"0.0-3.49-2.49","dbsrngrqgslyu6m","163.csv","","null","resources/images/fishbone.png","null","",NA,NA,NA,NA,""
"image-keyboard-response",160,142835,"0.0-3.50-0.50","dbsrngrqgslyu6m","163.csv","","278.89999997615814","resources/trios/L1T4A1.jpg","38","restless",0.4,0.6,0.3,0.911028414632184,"false"
"image-keyboard-response",161,143243,"0.0-3.50-1.50","dbsrngrqgslyu6m","163.csv","","null","resources/maskTrios/BT4B.jpg","null","",NA,NA,NA,NA,""
"image-keyboard-response",162,144459,"0.0-3.50-2.50","dbsrngrqgslyu6m","163.csv","","null","resources/images/fishbone.png","null","",NA,NA,NA,NA,""
"image-keyboard-response",163,144490,"0.0-3.51-0.51","dbsrngrqgslyu6m","163.csv","","29.59999990463257","resources/trios/L1T4A1.jpg","37","restless",0.4,0.6,0.3,0.275449335616158,"true"
"image-keyboard-response",164,144892,"0.0-3.51-1.51","dbsrngrqgslyu6m","163.csv","","null","resources/maskTrios/L1BB.jpg","null","",NA,NA,NA,NA,""
"image-keyboard-response",165,146103,"0.0-3.51-2.51","dbsrngrqgslyu6m","163.csv","","null","resources/images/coin2.png","null","",NA,NA,NA,NA,""
"image-keyboard-response",166,146194,"0.0-3.52-0.52","dbsrngrqgslyu6m","163.csv","","89.09999990463257","resources/trios/L1T4A1.jpg","37","restless",0.4,0.6,0.3,0.684391389555631,"false"
"image-keyboard-response",167,146602,"0.0-3.52-1.52","dbsrngrqgslyu6m","163.csv","","null","resources/maskTrios/L1BB.jpg","null","",NA,NA,NA,NA,""
"image-keyboard-response",168,147813,"0.0-3.52-2.52","dbsrngrqgslyu6m","163.csv","","null","resources/images/fishbone.png","null","",NA,NA,NA,NA,""
"image-keyboard-response",169,148162,"0.0-3.53-0.53","dbsrngrqgslyu6m","163.csv","","347.2000000476837","resources/trios/L4T1A1.jpg","38","restless",0.5,0.6,0.3,0.496337905937409,"true"
"image-keyboard-response",170,148569,"0.0-3.53-1.53","dbsrngrqgslyu6m","163.csv","","null","resources/maskTrios/BT1B.jpg","null","",NA,NA,NA,NA,""
"image-keyboard-response",171,149784,"0.0-3.53-2.53","dbsrngrqgslyu6m","163.csv","","null","resources/images/coin2.png","null","",NA,NA,NA,NA,""
"image-keyboard-response",172,150162,"0.0-3.54-0.54","dbsrngrqgslyu6m","163.csv","","375.90000009536743","resources/trios/L4T1A1.jpg","38","restless",0.5,0.6,0.3,0.97956889067284,"false"
"image-keyboard-response",173,150579,"0.0-3.54-1.54","dbsrngrqgslyu6m","163.csv","","null","resources/maskTrios/BT1B.jpg","null","",NA,NA,NA,NA,""
"image-keyboard-response",174,151791,"0.0-3.54-2.54","dbsrngrqgslyu6m","163.csv","","null","resources/images/fishbone.png","null","",NA,NA,NA,NA,""
"image-keyboard-response",175,151874,"0.0-3.55-0.55","dbsrngrqgslyu6m","163.csv","","80.89999997615814","resources/trios/L1T4A3.jpg","39","restless",0.6,0.6,0.3,0.410629815186325,"false"
"image-keyboard-response",176,152284,"0.0-3.55-1.55","dbsrngrqgslyu6m","163.csv","","null","resources/maskTrios/BBA3.jpg","null","",NA,NA,NA,NA,""
"image-keyboard-response",177,153497,"0.0-3.55-2.55","dbsrngrqgslyu6m","163.csv","","null","resources/images/fishbone.png","null","",NA,NA,NA,NA,""
"image-keyboard-response",178,153891,"0.0-3.56-0.56","dbsrngrqgslyu6m","163.csv","","392.1999999284744","resources/trios/L1T1A1.jpg","38","restless",0.6,0.5,0.3,0.751978136322729,"false"
"image-keyboard-response",179,154299,"0.0-3.56-1.56","dbsrngrqgslyu6m","163.csv","","null","resources/maskTrios/BT1B.jpg","null","",NA,NA,NA,NA,""
"image-keyboard-response",180,155512,"0.0-3.56-2.56","dbsrngrqgslyu6m","163.csv","","null","resources/images/fishbone.png","null","",NA,NA,NA,NA,""
"image-keyboard-response",181,155842,"0.0-3.57-0.57","dbsrngrqgslyu6m","163.csv","","328.60000002384186","resources/trios/L4T1A1.jpg","37","restless",0.6,0.5,0.3,0.77502524025231,"false"
"image-keyboard-response",182,156257,"0.0-3.57-1.57","dbsrngrqgslyu6m","163.csv","","null","resources/maskTrios/L4BB.jpg","null","",NA,NA,NA,NA,""
"image-keyboard-response",183,157463,"0.0-3.57-2.57","dbsrngrqgslyu6m","163.csv","","null","resources/images/fishbone.png","null","",NA,NA,NA,NA,""
"image-keyboard-response",184,157890,"0.0-3.58-0.58","dbsrngrqgslyu6m","163.csv","","425.09999990463257","resources/trios/L1T4A1.jpg","38","restless",0.6,0.5,0.3,0.47806317289281,"true"
"image-keyboard-response",185,158299,"0.0-3.58-1.58","dbsrngrqgslyu6m","163.csv","","null","resources/maskTrios/BT4B.jpg","null","",NA,NA,NA,NA,""
"image-keyboard-response",186,159513,"0.0-3.58-2.58","dbsrngrqgslyu6m","163.csv","","null","resources/images/coin2.png","null","",NA,NA,NA,NA,""
"image-keyboard-response",187,159842,"0.0-3.59-0.59","dbsrngrqgslyu6m","163.csv","","327.39999997615814","resources/trios/L1T4A1.jpg","38","restless",0.6,0.5,0.3,0.238083654906621,"true"
"image-keyboard-response",188,160248,"0.0-3.59-1.59","dbsrngrqgslyu6m","163.csv","","null","resources/maskTrios/BT4B.jpg","null","",NA,NA,NA,NA,""
"image-keyboard-response",189,161456,"0.0-3.59-2.59","dbsrngrqgslyu6m","163.csv","","null","resources/images/coin2.png","null","",NA,NA,NA,NA,""
"image-keyboard-response",190,161802,"0.0-3.60-0.60","dbsrngrqgslyu6m","163.csv","","343.7000000476837","resources/trios/L1T4A1.jpg","38","restless",0.6,0.5,0.3,0.434312277537294,"true"
"image-keyboard-response",191,162214,"0.0-3.60-1.60","dbsrngrqgslyu6m","163.csv","","null","resources/maskTrios/BT4B.jpg","null","",NA,NA,NA,NA,""
"image-keyboard-response",192,163422,"0.0-3.60-2.60","dbsrngrqgslyu6m","163.csv","","null","resources/images/coin2.png","null","",NA,NA,NA,NA,""
"image-keyboard-response",193,163754,"0.0-3.61-0.61","dbsrngrqgslyu6m","163.csv","","329.7000000476837","resources/trios/L1T4A3.jpg","38","restless",0.6,0.5,0.4,0.622632616048911,"false"
"image-keyboard-response",194,164164,"0.0-3.61-1.61","dbsrngrqgslyu6m","163.csv","","null","resources/maskTrios/BT4B.jpg","null","",NA,NA,NA,NA,""
"image-keyboard-response",195,165376,"0.0-3.61-2.61","dbsrngrqgslyu6m","163.csv","","null","resources/images/fishbone.png","null","",NA,NA,NA,NA,""
"image-keyboard-response",196,165778,"0.0-3.62-0.62","dbsrngrqgslyu6m","163.csv","","400.3000000715256","resources/trios/L4T4A1.jpg","39","restless",0.6,0.5,0.4,0.365917729246332,"true"
"image-keyboard-response",197,166192,"0.0-3.62-1.62","dbsrngrqgslyu6m","163.csv","","null","resources/maskTrios/BBA1.jpg","null","",NA,NA,NA,NA,""
"image-keyboard-response",198,167396,"0.0-3.62-2.62","dbsrngrqgslyu6m","163.csv","","null","resources/images/coin2.png","null","",NA,NA,NA,NA,""
"image-keyboard-response",199,167778,"0.0-3.63-0.63","dbsrngrqgslyu6m","163.csv","","379.3000000715256","resources/trios/L4T4A1.jpg","39","restless",0.6,0.5,0.4,0.289761022055348,"true"
"image-keyboard-response",200,168180,"0.0-3.63-1.63","dbsrngrqgslyu6m","163.csv","","null","resources/maskTrios/BBA1.jpg","null","",NA,NA,NA,NA,""
"image-keyboard-response",201,169386,"0.0-3.63-2.63","dbsrngrqgslyu6m","163.csv","","null","resources/images/coin2.png","null","",NA,NA,NA,NA,""
"image-keyboard-response",202,169746,"0.0-3.64-0.64","dbsrngrqgslyu6m","163.csv","","358","resources/trios/L1T1A1.jpg","39","restless",0.6,0.5,0.4,0.8502397495943,"false"
"image-keyboard-response",203,170153,"0.0-3.64-1.64","dbsrngrqgslyu6m","163.csv","","null","resources/maskTrios/BBA1.jpg","null","",NA,NA,NA,NA,""
"image-keyboard-response",204,171359,"0.0-3.64-2.64","dbsrngrqgslyu6m","163.csv","","null","resources/images/fishbone.png","null","",NA,NA,NA,NA,""
"image-keyboard-response",205,171753,"0.0-3.65-0.65","dbsrngrqgslyu6m","163.csv","","393.10000002384186","resources/trios/L4T4A1.jpg","38","restless",0.6,0.5,0.4,0.320362950036674,"true"
"image-keyboard-response",206,172161,"0.0-3.65-1.65","dbsrngrqgslyu6m","163.csv","","null","resources/maskTrios/BT4B.jpg","null","",NA,NA,NA,NA,""
"image-keyboard-response",207,173371,"0.0-3.65-2.65","dbsrngrqgslyu6m","163.csv","","null","resources/images/coin2.png","null","",NA,NA,NA,NA,""
"image-keyboard-response",208,173706,"0.0-3.66-0.66","dbsrngrqgslyu6m","163.csv","","333.39999997615814","resources/trios/L4T4A3.jpg","38","restless",0.6,0.5,0.4,0.787323237431021,"false"
"image-keyboard-response",209,174111,"0.0-3.66-1.66","dbsrngrqgslyu6m","163.csv","","null","resources/maskTrios/BT4B.jpg","null","",NA,NA,NA,NA,""
"image-keyboard-response",210,175323,"0.0-3.66-2.66","dbsrngrqgslyu6m","163.csv","","null","resources/images/fishbone.png","null","",NA,NA,NA,NA,""
"image-keyboard-response",211,175554,"0.0-3.67-0.67","dbsrngrqgslyu6m","163.csv","","229.5","resources/trios/L1T4A1.jpg","37","restless",0.6,0.4,0.4,0.309665285628814,"true"
"image-keyboard-response",212,175960,"0.0-3.67-1.67","dbsrngrqgslyu6m","163.csv","","null","resources/maskTrios/L1BB.jpg","null","",NA,NA,NA,NA,""
"image-keyboard-response",213,177173,"0.0-3.67-2.67","dbsrngrqgslyu6m","163.csv","","null","resources/images/coin2.png","null","",NA,NA,NA,NA,""
"image-keyboard-response",214,177506,"0.0-3.68-0.68","dbsrngrqgslyu6m","163.csv","","331.5","resources/trios/L4T4A1.jpg","37","restless",0.6,0.4,0.4,0.323664748918711,"true"
"image-keyboard-response",215,177919,"0.0-3.68-1.68","dbsrngrqgslyu6m","163.csv","","null","resources/maskTrios/L4BB.jpg","null","",NA,NA,NA,NA,""
"image-keyboard-response",216,179127,"0.0-3.68-2.68","dbsrngrqgslyu6m","163.csv","","null","resources/images/coin2.png","null","",NA,NA,NA,NA,""
"image-keyboard-response",217,179522,"0.0-3.69-0.69","dbsrngrqgslyu6m","163.csv","","391.7000000476837","resources/trios/L1T1A1.jpg","37","restless",0.6,0.4,0.4,0.0532074188243143,"true"
"image-keyboard-response",218,179926,"0.0-3.69-1.69","dbsrngrqgslyu6m","163.csv","","null","resources/maskTrios/L1BB.jpg","null","",NA,NA,NA,NA,""
"image-keyboard-response",219,181141,"0.0-3.69-2.69","dbsrngrqgslyu6m","163.csv","","null","resources/images/coin2.png","null","",NA,NA,NA,NA,""
"image-keyboard-response",220,181602,"0.0-3.70-0.70","dbsrngrqgslyu6m","163.csv","","459.39999997615814","resources/trios/L4T1A1.jpg","37","restless",0.6,0.4,0.4,0.673907440954475,"false"
"image-keyboard-response",221,182007,"0.0-3.70-1.70","dbsrngrqgslyu6m","163.csv","","null","resources/maskTrios/L4BB.jpg","null","",NA,NA,NA,NA,""
"image-keyboard-response",222,183221,"0.0-3.70-2.70","dbsrngrqgslyu6m","163.csv","","null","resources/images/fishbone.png","null","",NA,NA,NA,NA,""
"image-keyboard-response",223,183562,"0.0-3.71-0.71","dbsrngrqgslyu6m","163.csv","","339.2000000476837","resources/trios/L4T4A3.jpg","39","restless",0.6,0.4,0.4,0.653037260671957,"false"
"image-keyboard-response",224,183967,"0.0-3.71-1.71","dbsrngrqgslyu6m","163.csv","","null","resources/maskTrios/BBA3.jpg","null","",NA,NA,NA,NA,""
"image-keyboard-response",225,185177,"0.0-3.71-2.71","dbsrngrqgslyu6m","163.csv","","null","resources/images/fishbone.png","null","",NA,NA,NA,NA,""
"image-keyboard-response",226,185569,"0.0-3.72-0.72","dbsrngrqgslyu6m","163.csv","","390.89999997615814","resources/trios/L1T4A3.jpg","38","restless",0.7,0.4,0.4,0.850352346187394,"false"
"image-keyboard-response",227,185974,"0.0-3.72-1.72","dbsrngrqgslyu6m","163.csv","","null","resources/maskTrios/BT4B.jpg","null","",NA,NA,NA,NA,""
"image-keyboard-response",228,187181,"0.0-3.72-2.72","dbsrngrqgslyu6m","163.csv","","null","resources/images/fishbone.png","null","",NA,NA,NA,NA,""
"image-keyboard-response",229,187570,"0.0-3.73-0.73","dbsrngrqgslyu6m","163.csv","","387.2999999523163","resources/trios/L4T4A1.jpg","37","restless",0.7,0.5,0.4,0.507666106592072,"true"
"image-keyboard-response",230,187972,"0.0-3.73-1.73","dbsrngrqgslyu6m","163.csv","","null","resources/maskTrios/L4BB.jpg","null","",NA,NA,NA,NA,""
"image-keyboard-response",231,189185,"0.0-3.73-2.73","dbsrngrqgslyu6m","163.csv","","null","resources/images/coin2.png","null","",NA,NA,NA,NA,""
"image-keyboard-response",232,189610,"0.0-3.74-0.74","dbsrngrqgslyu6m","163.csv","","422.89999997615814","resources/trios/L4T1A3.jpg","37","restless",0.7,0.5,0.4,0.886497814867955,"false"
"image-keyboard-response",233,190022,"0.0-3.74-1.74","dbsrngrqgslyu6m","163.csv","","null","resources/maskTrios/L4BB.jpg","null","",NA,NA,NA,NA,""
"image-keyboard-response",234,191233,"0.0-3.74-2.74","dbsrngrqgslyu6m","163.csv","","null","resources/images/fishbone.png","null","",NA,NA,NA,NA,""
"image-keyboard-response",235,192481,"0.0-3.75-0.75","dbsrngrqgslyu6m","163.csv","","1247.2999999523163","resources/trios/L1T4A1.jpg","38","restless",0.7,0.5,0.4,0.098337990133164,"true"
"image-keyboard-response",236,192888,"0.0-3.75-1.75","dbsrngrqgslyu6m","163.csv","","null","resources/maskTrios/BT4B.jpg","null","",NA,NA,NA,NA,""
"image-keyboard-response",237,194105,"0.0-3.75-2.75","dbsrngrqgslyu6m","163.csv","","null","resources/images/coin2.png","null","",NA,NA,NA,NA,""
"image-keyboard-response",238,194562,"0.0-3.76-0.76","dbsrngrqgslyu6m","163.csv","","455.5","resources/trios/L1T1A3.jpg","38","restless",0.7,0.5,0.4,0.14084737160475,"true"
"image-keyboard-response",239,194975,"0.0-3.76-1.76","dbsrngrqgslyu6m","163.csv","","null","resources/maskTrios/BT1B.jpg","null","",NA,NA,NA,NA,""
"image-keyboard-response",240,196179,"0.0-3.76-2.76","dbsrngrqgslyu6m","163.csv","","null","resources/images/coin2.png","null","",NA,NA,NA,NA,""
"image-keyboard-response",241,196761,"0.0-3.77-0.77","dbsrngrqgslyu6m","163.csv","","580.7999999523163","resources/trios/L4T1A1.jpg","38","restless",0.7,0.5,0.5,0.155732388506173,"true"
"image-keyboard-response",242,197169,"0.0-3.77-1.77","dbsrngrqgslyu6m","163.csv","","null","resources/maskTrios/BT1B.jpg","null","",NA,NA,NA,NA,""
"image-keyboard-response",243,198379,"0.0-3.77-2.77","dbsrngrqgslyu6m","163.csv","","null","resources/images/coin2.png","null","",NA,NA,NA,NA,""
"image-keyboard-response",244,198914,"0.0-3.78-0.78","dbsrngrqgslyu6m","163.csv","","533.6999999284744","resources/trios/L4T4A1.jpg","38","restless",0.7,0.5,0.5,0.570186380257439,"false"
"image-keyboard-response",245,199321,"0.0-3.78-1.78","dbsrngrqgslyu6m","163.csv","","null","resources/maskTrios/BT4B.jpg","null","",NA,NA,NA,NA,""
"image-keyboard-response",246,200535,"0.0-3.78-2.78","dbsrngrqgslyu6m","163.csv","","null","resources/images/fishbone.png","null","",NA,NA,NA,NA,""
"image-keyboard-response",247,201129,"0.0-3.79-0.79","dbsrngrqgslyu6m","163.csv","","593.2000000476837","resources/trios/L4T1A3.jpg","39","restless",0.7,0.5,0.4,0.964466410110188,"false"
"image-keyboard-response",248,201535,"0.0-3.79-1.79","dbsrngrqgslyu6m","163.csv","","null","resources/maskTrios/BBA3.jpg","null","",NA,NA,NA,NA,""
"image-keyboard-response",249,202744,"0.0-3.79-2.79","dbsrngrqgslyu6m","163.csv","","null","resources/images/fishbone.png","null","",NA,NA,NA,NA,""
"image-keyboard-response",250,202881,"0.0-3.80-0.80","dbsrngrqgslyu6m","163.csv","","135.5","resources/trios/L1T4A1.jpg","38","restless",0.6,0.5,0.5,0.690989778908532,"false"
"image-keyboard-response",251,203290,"0.0-3.80-1.80","dbsrngrqgslyu6m","163.csv","","null","resources/maskTrios/BT4B.jpg","null","",NA,NA,NA,NA,""
"image-keyboard-response",252,204501,"0.0-3.80-2.80","dbsrngrqgslyu6m","163.csv","","null","resources/images/fishbone.png","null","",NA,NA,NA,NA,""
"image-keyboard-response",253,204985,"0.0-3.81-0.81","dbsrngrqgslyu6m","163.csv","","482.7000000476837","resources/trios/L4T4A3.jpg","37","restless",0.5,0.5,0.5,0.628761591884847,"false"
"image-keyboard-response",254,205393,"0.0-3.81-1.81","dbsrngrqgslyu6m","163.csv","","null","resources/maskTrios/L4BB.jpg","null","",NA,NA,NA,NA,""
"image-keyboard-response",255,206598,"0.0-3.81-2.81","dbsrngrqgslyu6m","163.csv","","null","resources/images/fishbone.png","null","",NA,NA,NA,NA,""
"image-keyboard-response",256,207177,"0.0-3.82-0.82","dbsrngrqgslyu6m","163.csv","","577.6000000238419","resources/trios/L1T4A1.jpg","38","restless",0.4,0.5,0.5,0.80974117123492,"false"
"image-keyboard-response",257,207583,"0.0-3.82-1.82","dbsrngrqgslyu6m","163.csv","","null","resources/maskTrios/BT4B.jpg","null","",NA,NA,NA,NA,""
"image-keyboard-response",258,208792,"0.0-3.82-2.82","dbsrngrqgslyu6m","163.csv","","null","resources/images/fishbone.png","null","",NA,NA,NA,NA,""
"image-keyboard-response",259,209178,"0.0-3.83-0.83","dbsrngrqgslyu6m","163.csv","","384.60000002384186","resources/trios/L4T4A1.jpg","39","restless",0.4,0.5,0.5,0.115503962988966,"true"
"image-keyboard-response",260,209583,"0.0-3.83-1.83","dbsrngrqgslyu6m","163.csv","","null","resources/maskTrios/BBA1.jpg","null","",NA,NA,NA,NA,""
"image-keyboard-response",261,210794,"0.0-3.83-2.83","dbsrngrqgslyu6m","163.csv","","null","resources/images/coin2.png","null","",NA,NA,NA,NA,""
"image-keyboard-response",262,211417,"0.0-3.84-0.84","dbsrngrqgslyu6m","163.csv","","621.5","resources/trios/L4T1A3.jpg","39","restless",0.4,0.5,0.5,0.849202668752486,"false"
"image-keyboard-response",263,211831,"0.0-3.84-1.84","dbsrngrqgslyu6m","163.csv","","null","resources/maskTrios/BBA3.jpg","null","",NA,NA,NA,NA,""
"image-keyboard-response",264,213046,"0.0-3.84-2.84","dbsrngrqgslyu6m","163.csv","","null","resources/images/fishbone.png","null","",NA,NA,NA,NA,""
"image-keyboard-response",265,213393,"0.0-3.85-0.85","dbsrngrqgslyu6m","163.csv","","345.1999999284744","resources/trios/L1T4A1.jpg","38","restless",0.4,0.5,0.6,0.0226581063961173,"true"
"image-keyboard-response",266,213798,"0.0-3.85-1.85","dbsrngrqgslyu6m","163.csv","","null","resources/maskTrios/BT4B.jpg","null","",NA,NA,NA,NA,""
"image-keyboard-response",267,215014,"0.0-3.85-2.85","dbsrngrqgslyu6m","163.csv","","null","resources/images/coin2.png","null","",NA,NA,NA,NA,""
"image-keyboard-response",268,215233,"0.0-3.86-0.86","dbsrngrqgslyu6m","163.csv","","217.39999997615814","resources/trios/L1T1A1.jpg","38","restless",0.4,0.6,0.6,0.201714549014183,"true"
"image-keyboard-response",269,215646,"0.0-3.86-1.86","dbsrngrqgslyu6m","163.csv","","null","resources/maskTrios/BT1B.jpg","null","",NA,NA,NA,NA,""
"image-keyboard-response",270,216858,"0.0-3.86-2.86","dbsrngrqgslyu6m","163.csv","","null","resources/images/coin2.png","null","",NA,NA,NA,NA,""
"image-keyboard-response",271,217369,"0.0-3.87-0.87","dbsrngrqgslyu6m","163.csv","","509.2999999523163","resources/trios/L1T4A1.jpg","38","restless",0.4,0.6,0.6,0.737395135678373,"false"
"image-keyboard-response",272,217780,"0.0-3.87-1.87","dbsrngrqgslyu6m","163.csv","","null","resources/maskTrios/BT4B.jpg","null","",NA,NA,NA,NA,""
"image-keyboard-response",273,218985,"0.0-3.87-2.87","dbsrngrqgslyu6m","163.csv","","null","resources/images/fishbone.png","null","",NA,NA,NA,NA,""
"image-keyboard-response",274,219450,"0.0-3.88-0.88","dbsrngrqgslyu6m","163.csv","","463.89999997615814","resources/trios/L1T4A3.jpg","37","restless",0.4,0.6,0.6,0.296093104449542,"true"
"image-keyboard-response",275,219864,"0.0-3.88-1.88","dbsrngrqgslyu6m","163.csv","","null","resources/maskTrios/L1BB.jpg","null","",NA,NA,NA,NA,""
"image-keyboard-response",276,221075,"0.0-3.88-2.88","dbsrngrqgslyu6m","163.csv","","null","resources/images/coin2.png","null","",NA,NA,NA,NA,""
"image-keyboard-response",277,221281,"0.0-3.89-0.89","dbsrngrqgslyu6m","163.csv","","204.89999997615814","resources/trios/L4T1A3.jpg","37","restless",0.4,0.6,0.6,0.932769225831837,"false"
"image-keyboard-response",278,221695,"0.0-3.89-1.89","dbsrngrqgslyu6m","163.csv","","null","resources/maskTrios/L4BB.jpg","null","",NA,NA,NA,NA,""
"image-keyboard-response",279,222908,"0.0-3.89-2.89","dbsrngrqgslyu6m","163.csv","","null","resources/images/fishbone.png","null","",NA,NA,NA,NA,""
"image-keyboard-response",280,223177,"0.0-3.90-0.90","dbsrngrqgslyu6m","163.csv","","267.7000000476837","resources/trios/L4T4A1.jpg","38","restless",0.3,0.7,0.6,0.16550189047106,"true"
"image-keyboard-response",281,223579,"0.0-3.90-1.90","dbsrngrqgslyu6m","163.csv","","null","resources/maskTrios/BT4B.jpg","null","",NA,NA,NA,NA,""
"image-keyboard-response",282,224785,"0.0-3.90-2.90","dbsrngrqgslyu6m","163.csv","","null","resources/images/coin2.png","null","",NA,NA,NA,NA,""
"image-keyboard-response",283,225193,"0.0-3.91-0.91","dbsrngrqgslyu6m","163.csv","","406.39999997615814","resources/trios/L4T1A1.jpg","38","restless",0.3,0.7,0.6,0.81906474132428,"false"
"image-keyboard-response",284,225606,"0.0-3.91-1.91","dbsrngrqgslyu6m","163.csv","","null","resources/maskTrios/BT1B.jpg","null","",NA,NA,NA,NA,""
"image-keyboard-response",285,226812,"0.0-3.91-2.91","dbsrngrqgslyu6m","163.csv","","null","resources/images/fishbone.png","null","",NA,NA,NA,NA,""
"image-keyboard-response",286,227169,"0.0-3.92-0.92","dbsrngrqgslyu6m","163.csv","","355.7000000476837","resources/trios/L1T1A3.jpg","37","restless",0.3,0.7,0.6,0.0807707915515903,"true"
"image-keyboard-response",287,227576,"0.0-3.92-1.92","dbsrngrqgslyu6m","163.csv","","null","resources/maskTrios/L1BB.jpg","null","",NA,NA,NA,NA,""
"image-keyboard-response",288,228788,"0.0-3.92-2.92","dbsrngrqgslyu6m","163.csv","","null","resources/images/coin2.png","null","",NA,NA,NA,NA,""
"image-keyboard-response",289,229209,"0.0-3.93-0.93","dbsrngrqgslyu6m","163.csv","","420.2000000476837","resources/trios/L1T4A1.jpg","37","restless",0.3,0.7,0.6,0.733273209276121,"false"
"image-keyboard-response",290,229625,"0.0-3.93-1.93","dbsrngrqgslyu6m","163.csv","","null","resources/maskTrios/L1BB.jpg","null","",NA,NA,NA,NA,""
"image-keyboard-response",291,230836,"0.0-3.93-2.93","dbsrngrqgslyu6m","163.csv","","null","resources/images/fishbone.png","null","",NA,NA,NA,NA,""
"image-keyboard-response",292,231178,"0.0-3.94-0.94","dbsrngrqgslyu6m","163.csv","","339.90000009536743","resources/trios/L4T1A3.jpg","39","restless",0.3,0.8,0.6,0.710744002314041,"false"
"image-keyboard-response",293,231591,"0.0-3.94-1.94","dbsrngrqgslyu6m","163.csv","","null","resources/maskTrios/BBA3.jpg","null","",NA,NA,NA,NA,""
"image-keyboard-response",294,232793,"0.0-3.94-2.94","dbsrngrqgslyu6m","163.csv","","null","resources/images/fishbone.png","null","",NA,NA,NA,NA,""
"image-keyboard-response",295,234281,"0.0-3.95-0.95","dbsrngrqgslyu6m","163.csv","","1486.1000000238419","resources/trios/L4T4A1.jpg","38","restless",0.3,0.8,0.6,0.399632990208616,"true"
"image-keyboard-response",296,234693,"0.0-3.95-1.95","dbsrngrqgslyu6m","163.csv","","null","resources/maskTrios/BT4B.jpg","null","",NA,NA,NA,NA,""
"image-keyboard-response",297,235904,"0.0-3.95-2.95","dbsrngrqgslyu6m","163.csv","","null","resources/images/coin2.png","null","",NA,NA,NA,NA,""
"image-keyboard-response",298,236449,"0.0-3.96-0.96","dbsrngrqgslyu6m","163.csv","","542.8999999761581","resources/trios/L1T4A3.jpg","38","restless",0.3,0.8,0.6,0.456242693679294,"true"
"image-keyboard-response",299,236856,"0.0-3.96-1.96","dbsrngrqgslyu6m","163.csv","","null","resources/maskTrios/BT4B.jpg","null","",NA,NA,NA,NA,""
"image-keyboard-response",300,238060,"0.0-3.96-2.96","dbsrngrqgslyu6m","163.csv","","null","resources/images/coin2.png","null","",NA,NA,NA,NA,""
"image-keyboard-response",301,238521,"0.0-3.97-0.97","dbsrngrqgslyu6m","163.csv","","459.3000000715256","resources/trios/L1T4A1.jpg","38","restless",0.3,0.8,0.6,0.463208583729085,"true"
"image-keyboard-response",302,238923,"0.0-3.97-1.97","dbsrngrqgslyu6m","163.csv","","null","resources/maskTrios/BT4B.jpg","null","",NA,NA,NA,NA,""
"image-keyboard-response",303,240132,"0.0-3.97-2.97","dbsrngrqgslyu6m","163.csv","","null","resources/images/coin2.png","null","",NA,NA,NA,NA,""
"image-keyboard-response",304,240697,"0.0-3.98-0.98","dbsrngrqgslyu6m","163.csv","","563.6000000238419","resources/trios/L1T1A1.jpg","38","restless",0.3,0.8,0.6,0.61406106338519,"true"
"image-keyboard-response",305,241104,"0.0-3.98-1.98","dbsrngrqgslyu6m","163.csv","","null","resources/maskTrios/BT1B.jpg","null","",NA,NA,NA,NA,""
"image-keyboard-response",306,242316,"0.0-3.98-2.98","dbsrngrqgslyu6m","163.csv","","null","resources/images/coin2.png","null","",NA,NA,NA,NA,""
"image-keyboard-response",307,242346,"0.0-3.99-0.99","dbsrngrqgslyu6m","163.csv","","27.899999976158142","resources/trios/L1T1A1.jpg","38","restless",0.3,0.8,0.6,0.274694284942192,"true"
"image-keyboard-response",308,242755,"0.0-3.99-1.99","dbsrngrqgslyu6m","163.csv","","null","resources/maskTrios/BT1B.jpg","null","",NA,NA,NA,NA,""
"image-keyboard-response",309,243965,"0.0-3.99-2.99","dbsrngrqgslyu6m","163.csv","","null","resources/images/coin2.png","null","",NA,NA,NA,NA,""
"image-keyboard-response",310,245241,"0.0-3.100-0.100","dbsrngrqgslyu6m","163.csv","","1274","resources/trios/L4T4A3.jpg","38","restless",0.3,0.8,0.6,0.946111698373754,"false"
"image-keyboard-response",311,245654,"0.0-3.100-1.100","dbsrngrqgslyu6m","163.csv","","null","resources/maskTrios/BT4B.jpg","null","",NA,NA,NA,NA,""
"image-keyboard-response",312,246867,"0.0-3.100-2.100","dbsrngrqgslyu6m","163.csv","","null","resources/images/fishbone.png","null","",NA,NA,NA,NA,""
"image-keyboard-response",313,248889,"0.0-3.101-0.101","dbsrngrqgslyu6m","163.csv","","2020","resources/trios/L4T1A1.jpg","37","restless",0.3,0.8,0.6,0.000858550840865169,"true"
"image-keyboard-response",314,249302,"0.0-3.101-1.101","dbsrngrqgslyu6m","163.csv","","null","resources/maskTrios/L4BB.jpg","null","",NA,NA,NA,NA,""
"image-keyboard-response",315,250509,"0.0-3.101-2.101","dbsrngrqgslyu6m","163.csv","","null","resources/images/coin2.png","null","",NA,NA,NA,NA,""
"image-keyboard-response",316,250937,"0.0-3.102-0.102","dbsrngrqgslyu6m","163.csv","","426.2000000476837","resources/trios/L4T4A3.jpg","37","restless",0.3,0.8,0.5,0.17667075054792,"true"
"image-keyboard-response",317,251342,"0.0-3.102-1.102","dbsrngrqgslyu6m","163.csv","","null","resources/maskTrios/L4BB.jpg","null","",NA,NA,NA,NA,""
"image-keyboard-response",318,252553,"0.0-3.102-2.102","dbsrngrqgslyu6m","163.csv","","null","resources/images/coin2.png","null","",NA,NA,NA,NA,""
"image-keyboard-response",319,252905,"0.0-3.103-0.103","dbsrngrqgslyu6m","163.csv","","350.8000000715256","resources/trios/L1T4A3.jpg","37","restless",0.3,0.8,0.6,0.15548504840297,"true"
"image-keyboard-response",320,253318,"0.0-3.103-1.103","dbsrngrqgslyu6m","163.csv","","null","resources/maskTrios/L1BB.jpg","null","",NA,NA,NA,NA,""
"image-keyboard-response",321,254520,"0.0-3.103-2.103","dbsrngrqgslyu6m","163.csv","","null","resources/images/coin2.png","null","",NA,NA,NA,NA,""
"image-keyboard-response",322,255289,"0.0-3.104-0.104","dbsrngrqgslyu6m","163.csv","","767","resources/trios/L4T1A3.jpg","37","restless",0.2,0.8,0.6,0.0404367331402575,"true"
"image-keyboard-response",323,255700,"0.0-3.104-1.104","dbsrngrqgslyu6m","163.csv","","null","resources/maskTrios/L4BB.jpg","null","",NA,NA,NA,NA,""
"image-keyboard-response",324,256913,"0.0-3.104-2.104","dbsrngrqgslyu6m","163.csv","","null","resources/images/coin2.png","null","",NA,NA,NA,NA,""
"image-keyboard-response",325,257649,"0.0-3.105-0.105","dbsrngrqgslyu6m","163.csv","","734","resources/trios/L4T1A3.jpg","37","restless",0.2,0.8,0.6,0.149485455820461,"true"
"image-keyboard-response",326,258051,"0.0-3.105-1.105","dbsrngrqgslyu6m","163.csv","","null","resources/maskTrios/L4BB.jpg","null","",NA,NA,NA,NA,""
"image-keyboard-response",327,259256,"0.0-3.105-2.105","dbsrngrqgslyu6m","163.csv","","null","resources/images/coin2.png","null","",NA,NA,NA,NA,""
"image-keyboard-response",328,259673,"0.0-3.106-0.106","dbsrngrqgslyu6m","163.csv","","415.10000002384186","resources/trios/L4T4A3.jpg","37","restless",0.2,0.8,0.6,0.228508069943891,"false"
"image-keyboard-response",329,260083,"0.0-3.106-1.106","dbsrngrqgslyu6m","163.csv","","null","resources/maskTrios/L4BB.jpg","null","",NA,NA,NA,NA,""
"image-keyboard-response",330,261286,"0.0-3.106-2.106","dbsrngrqgslyu6m","163.csv","","null","resources/images/fishbone.png","null","",NA,NA,NA,NA,""
"image-keyboard-response",331,261729,"0.0-3.107-0.107","dbsrngrqgslyu6m","163.csv","","441.1999999284744","resources/trios/L1T1A1.jpg","37","restless",0.2,0.8,0.7,0.735072015284411,"false"
"image-keyboard-response",332,262132,"0.0-3.107-1.107","dbsrngrqgslyu6m","163.csv","","null","resources/maskTrios/L1BB.jpg","null","",NA,NA,NA,NA,""
"image-keyboard-response",333,263342,"0.0-3.107-2.107","dbsrngrqgslyu6m","163.csv","","null","resources/images/fishbone.png","null","",NA,NA,NA,NA,""
"image-keyboard-response",334,263929,"0.0-3.108-0.108","dbsrngrqgslyu6m","163.csv","","585.7999999523163","resources/trios/L1T1A1.jpg","39","restless",0.3,0.8,0.7,0.35469169719729,"true"
"image-keyboard-response",335,264347,"0.0-3.108-1.108","dbsrngrqgslyu6m","163.csv","","null","resources/maskTrios/BBA1.jpg","null","",NA,NA,NA,NA,""
"image-keyboard-response",336,265552,"0.0-3.108-2.108","dbsrngrqgslyu6m","163.csv","","null","resources/images/coin2.png","null","",NA,NA,NA,NA,""
"image-keyboard-response",337,265857,"0.0-3.109-0.109","dbsrngrqgslyu6m","163.csv","","303.39999997615814","resources/trios/L1T1A1.jpg","39","restless",0.3,0.8,0.7,0.170011046331046,"true"
"image-keyboard-response",338,266264,"0.0-3.109-1.109","dbsrngrqgslyu6m","163.csv","","null","resources/maskTrios/BBA1.jpg","null","",NA,NA,NA,NA,""
"image-keyboard-response",339,267472,"0.0-3.109-2.109","dbsrngrqgslyu6m","163.csv","","null","resources/images/coin2.png","null","",NA,NA,NA,NA,""
"image-keyboard-response",340,267753,"0.0-3.110-0.110","dbsrngrqgslyu6m","163.csv","","279.10000002384186","resources/trios/L1T4A1.jpg","39","restless",0.3,0.8,0.7,0.143160721605004,"true"
"image-keyboard-response",341,268163,"0.0-3.110-1.110","dbsrngrqgslyu6m","163.csv","","null","resources/maskTrios/BBA1.jpg","null","",NA,NA,NA,NA,""
"image-keyboard-response",342,269375,"0.0-3.110-2.110","dbsrngrqgslyu6m","163.csv","","null","resources/images/coin2.png","null","",NA,NA,NA,NA,""
"image-keyboard-response",343,269865,"0.0-3.111-0.111","dbsrngrqgslyu6m","163.csv","","487.7999999523163","resources/trios/L1T1A3.jpg","39","restless",0.3,0.8,0.6,0.0865998782994273,"true"
"image-keyboard-response",344,270278,"0.0-3.111-1.111","dbsrngrqgslyu6m","163.csv","","null","resources/maskTrios/BBA3.jpg","null","",NA,NA,NA,NA,""
"image-keyboard-response",345,271484,"0.0-3.111-2.111","dbsrngrqgslyu6m","163.csv","","null","resources/images/coin2.png","null","",NA,NA,NA,NA,""
"image-keyboard-response",346,273168,"0.0-3.112-0.112","dbsrngrqgslyu6m","163.csv","","1691.1999999284744","resources/trios/L1T4A1.jpg","39","restless",0.3,0.8,0.6,0.965020276192018,"false"
"image-keyboard-response",347,273585,"0.0-3.112-1.112","dbsrngrqgslyu6m","163.csv","","null","resources/maskTrios/BBA1.jpg","null","",NA,NA,NA,NA,""
"image-keyboard-response",348,274791,"0.0-3.112-2.112","dbsrngrqgslyu6m","163.csv","","null","resources/images/fishbone.png","null","",NA,NA,NA,NA,""
"image-keyboard-response",349,276288,"0.0-3.113-0.113","dbsrngrqgslyu6m","163.csv","","1495.0999999046326","resources/trios/L1T4A1.jpg","38","restless",0.4,0.8,0.6,0.515044733301723,"true"
"image-keyboard-response",350,276701,"0.0-3.113-1.113","dbsrngrqgslyu6m","163.csv","","null","resources/maskTrios/BT4B.jpg","null","",NA,NA,NA,NA,""
"image-keyboard-response",351,277913,"0.0-3.113-2.113","dbsrngrqgslyu6m","163.csv","","null","resources/images/coin2.png","null","",NA,NA,NA,NA,""
"image-keyboard-response",352,278320,"0.0-3.114-0.114","dbsrngrqgslyu6m","163.csv","","405.7000000476837","resources/trios/L1T4A3.jpg","38","restless",0.4,0.8,0.6,0.947132406480801,"false"
"image-keyboard-response",353,278733,"0.0-3.114-1.114","dbsrngrqgslyu6m","163.csv","","null","resources/maskTrios/BT4B.jpg","null","",NA,NA,NA,NA,""
"image-keyboard-response",354,279948,"0.0-3.114-2.114","dbsrngrqgslyu6m","163.csv","","null","resources/images/fishbone.png","null","",NA,NA,NA,NA,""
"image-keyboard-response",355,280344,"0.0-3.115-0.115","dbsrngrqgslyu6m","163.csv","","394.7999999523163","resources/trios/L1T1A1.jpg","37","restless",0.4,0.8,0.6,0.812259235606161,"false"
"image-keyboard-response",356,280750,"0.0-3.115-1.115","dbsrngrqgslyu6m","163.csv","","null","resources/maskTrios/L1BB.jpg","null","",NA,NA,NA,NA,""
"image-keyboard-response",357,281964,"0.0-3.115-2.115","dbsrngrqgslyu6m","163.csv","","null","resources/images/fishbone.png","null","",NA,NA,NA,NA,""
"image-keyboard-response",358,282328,"0.0-3.116-0.116","dbsrngrqgslyu6m","163.csv","","363","resources/trios/L1T1A1.jpg","38","restless",0.4,0.8,0.6,0.716377789443607,"true"
"image-keyboard-response",359,282733,"0.0-3.116-1.116","dbsrngrqgslyu6m","163.csv","","null","resources/maskTrios/BT1B.jpg","null","",NA,NA,NA,NA,""
"image-keyboard-response",360,283935,"0.0-3.116-2.116","dbsrngrqgslyu6m","163.csv","","null","resources/images/coin2.png","null","",NA,NA,NA,NA,""
"image-keyboard-response",361,284312,"0.0-3.117-0.117","dbsrngrqgslyu6m","163.csv","","375","resources/trios/L4T1A1.jpg","38","restless",0.4,0.8,0.6,0.145433244697986,"true"
"image-keyboard-response",362,284715,"0.0-3.117-1.117","dbsrngrqgslyu6m","163.csv","","null","resources/maskTrios/BT1B.jpg","null","",NA,NA,NA,NA,""
"image-keyboard-response",363,285929,"0.0-3.117-2.117","dbsrngrqgslyu6m","163.csv","","null","resources/images/coin2.png","null","",NA,NA,NA,NA,""
"image-keyboard-response",364,287048,"0.0-3.118-0.118","dbsrngrqgslyu6m","163.csv","","1117.7999999523163","resources/trios/L4T1A3.jpg","38","restless",0.4,0.8,0.6,0.901745089456814,"false"
"image-keyboard-response",365,287464,"0.0-3.118-1.118","dbsrngrqgslyu6m","163.csv","","null","resources/maskTrios/BT1B.jpg","null","",NA,NA,NA,NA,""
"image-keyboard-response",366,288673,"0.0-3.118-2.118","dbsrngrqgslyu6m","163.csv","","null","resources/images/fishbone.png","null","",NA,NA,NA,NA,""
"image-keyboard-response",367,289096,"0.0-3.119-0.119","dbsrngrqgslyu6m","163.csv","","420.7999999523163","resources/trios/L1T1A1.jpg","39","restless",0.4,0.8,0.5,0.917136240100862,"false"
"image-keyboard-response",368,289502,"0.0-3.119-1.119","dbsrngrqgslyu6m","163.csv","","null","resources/maskTrios/BBA1.jpg","null","",NA,NA,NA,NA,""
"image-keyboard-response",369,290717,"0.0-3.119-2.119","dbsrngrqgslyu6m","163.csv","","null","resources/images/fishbone.png","null","",NA,NA,NA,NA,""
"image-keyboard-response",370,291368,"0.0-3.120-0.120","dbsrngrqgslyu6m","163.csv","","649.7000000476837","resources/trios/L4T4A1.jpg","38","restless",0.4,0.8,0.5,0.978196340713964,"false"
"image-keyboard-response",371,291780,"0.0-3.120-1.120","dbsrngrqgslyu6m","163.csv","","null","resources/maskTrios/BT4B.jpg","null","",NA,NA,NA,NA,""
"image-keyboard-response",372,292989,"0.0-3.120-2.120","dbsrngrqgslyu6m","163.csv","","null","resources/images/fishbone.png","null","",NA,NA,NA,NA,""
"image-keyboard-response",373,293336,"0.0-3.121-0.121","dbsrngrqgslyu6m","163.csv","","345.2000000476837","resources/trios/L1T4A1.jpg","37","restless",0.4,0.7,0.5,0.253209538180369,"true"
"image-keyboard-response",374,293742,"0.0-3.121-1.121","dbsrngrqgslyu6m","163.csv","","null","resources/maskTrios/L1BB.jpg","null","",NA,NA,NA,NA,""
"image-keyboard-response",375,294947,"0.0-3.121-2.121","dbsrngrqgslyu6m","163.csv","","null","resources/images/coin2.png","null","",NA,NA,NA,NA,""
"image-keyboard-response",376,295264,"0.0-3.122-0.122","dbsrngrqgslyu6m","163.csv","","315.40000009536743","resources/trios/L4T1A3.jpg","37","restless",0.4,0.7,0.5,0.714910533067669,"false"
"image-keyboard-response",377,295678,"0.0-3.122-1.122","dbsrngrqgslyu6m","163.csv","","null","resources/maskTrios/L4BB.jpg","null","",NA,NA,NA,NA,""
"image-keyboard-response",378,296879,"0.0-3.122-2.122","dbsrngrqgslyu6m","163.csv","","null","resources/images/fishbone.png","null","",NA,NA,NA,NA,""
"image-keyboard-response",379,297192,"0.0-3.123-0.123","dbsrngrqgslyu6m","163.csv","","312.60000002384186","resources/trios/L4T4A3.jpg","38","restless",0.4,0.7,0.5,0.100988770172288,"true"
"image-keyboard-response",380,297596,"0.0-3.123-1.123","dbsrngrqgslyu6m","163.csv","","null","resources/maskTrios/BT4B.jpg","null","",NA,NA,NA,NA,""
"image-keyboard-response",381,298801,"0.0-3.123-2.123","dbsrngrqgslyu6m","163.csv","","null","resources/images/coin2.png","null","",NA,NA,NA,NA,""
"image-keyboard-response",382,299103,"0.0-3.124-0.124","dbsrngrqgslyu6m","163.csv","","301.7000000476837","resources/trios/L1T4A3.jpg","38","restless",0.4,0.7,0.5,0.192430037325329,"true"
"image-keyboard-response",383,299516,"0.0-3.124-1.124","dbsrngrqgslyu6m","163.csv","","null","resources/maskTrios/BT4B.jpg","null","",NA,NA,NA,NA,""
"image-keyboard-response",384,300731,"0.0-3.124-2.124","dbsrngrqgslyu6m","163.csv","","null","resources/images/coin2.png","null","",NA,NA,NA,NA,""
"image-keyboard-response",385,301080,"0.0-3.125-0.125","dbsrngrqgslyu6m","163.csv","","348","resources/trios/L1T1A3.jpg","38","restless",0.4,0.7,0.5,0.373814251510079,"true"
"image-keyboard-response",386,301493,"0.0-3.125-1.125","dbsrngrqgslyu6m","163.csv","","null","resources/maskTrios/BT1B.jpg","null","",NA,NA,NA,NA,""
"image-keyboard-response",387,302706,"0.0-3.125-2.125","dbsrngrqgslyu6m","163.csv","","null","resources/images/coin2.png","null","",NA,NA,NA,NA,""
"image-keyboard-response",388,303080,"0.0-3.126-0.126","dbsrngrqgslyu6m","163.csv","","371.90000009536743","resources/trios/L4T4A3.jpg","38","restless",0.5,0.6,0.5,0.179706922738863,"true"
"image-keyboard-response",389,303496,"0.0-3.126-1.126","dbsrngrqgslyu6m","163.csv","","null","resources/maskTrios/BT4B.jpg","null","",NA,NA,NA,NA,""
"image-keyboard-response",390,304715,"0.0-3.126-2.126","dbsrngrqgslyu6m","163.csv","","null","resources/images/coin2.png","null","",NA,NA,NA,NA,""
"image-keyboard-response",391,305096,"0.0-3.127-0.127","dbsrngrqgslyu6m","163.csv","","378.3000000715256","resources/trios/L1T1A1.jpg","38","restless",0.5,0.6,0.5,0.105646173046976,"true"
"image-keyboard-response",392,305508,"0.0-3.127-1.127","dbsrngrqgslyu6m","163.csv","","null","resources/maskTrios/BT1B.jpg","null","",NA,NA,NA,NA,""
"image-keyboard-response",393,306721,"0.0-3.127-2.127","dbsrngrqgslyu6m","163.csv","","null","resources/images/coin2.png","null","",NA,NA,NA,NA,""
"image-keyboard-response",394,307360,"0.0-3.128-0.128","dbsrngrqgslyu6m","163.csv","","638.4000000953674","resources/trios/L4T4A3.jpg","38","restless",0.5,0.6,0.5,0.941440627960845,"false"
"image-keyboard-response",395,307774,"0.0-3.128-1.128","dbsrngrqgslyu6m","163.csv","","null","resources/maskTrios/BT4B.jpg","null","",NA,NA,NA,NA,""
"image-keyboard-response",396,308988,"0.0-3.128-2.128","dbsrngrqgslyu6m","163.csv","","null","resources/images/fishbone.png","null","",NA,NA,NA,NA,""
"image-keyboard-response",397,309352,"0.0-3.129-0.129","dbsrngrqgslyu6m","163.csv","","362.39999997615814","resources/trios/L4T1A3.jpg","39","restless",0.5,0.6,0.5,0.435999548942576,"true"
"image-keyboard-response",398,309762,"0.0-3.129-1.129","dbsrngrqgslyu6m","163.csv","","null","resources/maskTrios/BBA3.jpg","null","",NA,NA,NA,NA,""
"image-keyboard-response",399,310972,"0.0-3.129-2.129","dbsrngrqgslyu6m","163.csv","","null","resources/images/coin2.png","null","",NA,NA,NA,NA,""
"image-keyboard-response",400,311464,"0.0-3.130-0.130","dbsrngrqgslyu6m","163.csv","","490","resources/trios/L1T4A1.jpg","39","restless",0.5,0.6,0.5,0.836855245536684,"false"
"image-keyboard-response",401,311867,"0.0-3.130-1.130","dbsrngrqgslyu6m","163.csv","","null","resources/maskTrios/BBA1.jpg","null","",NA,NA,NA,NA,""
"image-keyboard-response",402,313081,"0.0-3.130-2.130","dbsrngrqgslyu6m","163.csv","","null","resources/images/fishbone.png","null","",NA,NA,NA,NA,""
"image-keyboard-response",403,313976,"0.0-3.131-0.131","dbsrngrqgslyu6m","163.csv","","893.6000000238419","resources/trios/L1T1A1.jpg","38","restless",0.5,0.6,0.5,0.44380650619202,"true"
"image-keyboard-response",404,314389,"0.0-3.131-1.131","dbsrngrqgslyu6m","163.csv","","null","resources/maskTrios/BT1B.jpg","null","",NA,NA,NA,NA,""
"image-keyboard-response",405,315606,"0.0-3.131-2.131","dbsrngrqgslyu6m","163.csv","","null","resources/images/coin2.png","null","",NA,NA,NA,NA,""
"image-keyboard-response",406,316296,"0.0-3.132-0.132","dbsrngrqgslyu6m","163.csv","","687.7000000476837","resources/trios/L1T1A3.jpg","38","restless",0.5,0.6,0.5,0.746888946883229,"false"
"image-keyboard-response",407,316705,"0.0-3.132-1.132","dbsrngrqgslyu6m","163.csv","","null","resources/maskTrios/BT1B.jpg","null","",NA,NA,NA,NA,""
"image-keyboard-response",408,317918,"0.0-3.132-2.132","dbsrngrqgslyu6m","163.csv","","null","resources/images/fishbone.png","null","",NA,NA,NA,NA,""
"image-keyboard-response",409,318472,"0.0-3.133-0.133","dbsrngrqgslyu6m","163.csv","","553.2000000476837","resources/trios/L1T4A3.jpg","37","restless",0.5,0.6,0.5,0.0378305599676676,"true"
"image-keyboard-response",410,318887,"0.0-3.133-1.133","dbsrngrqgslyu6m","163.csv","","null","resources/maskTrios/L1BB.jpg","null","",NA,NA,NA,NA,""
"image-keyboard-response",411,320109,"0.0-3.133-2.133","dbsrngrqgslyu6m","163.csv","","null","resources/images/coin2.png","null","",NA,NA,NA,NA,""
"image-keyboard-response",412,320640,"0.0-3.134-0.134","dbsrngrqgslyu6m","163.csv","","529.1000000238419","resources/trios/L1T1A3.jpg","37","restless",0.5,0.6,0.5,0.760855735243975,"false"
"image-keyboard-response",413,321053,"0.0-3.134-1.134","dbsrngrqgslyu6m","163.csv","","null","resources/maskTrios/L1BB.jpg","null","",NA,NA,NA,NA,""
"image-keyboard-response",414,322261,"0.0-3.134-2.134","dbsrngrqgslyu6m","163.csv","","null","resources/images/fishbone.png","null","",NA,NA,NA,NA,""
"image-keyboard-response",415,326552,"0.0-3.135-0.135","dbsrngrqgslyu6m","163.csv","","4289","resources/trios/L1T4A3.jpg","37","restless",0.4,0.6,0.5,0.306472009152715,"true"
"image-keyboard-response",416,326968,"0.0-3.135-1.135","dbsrngrqgslyu6m","163.csv","","null","resources/maskTrios/L1BB.jpg","null","",NA,NA,NA,NA,""
"image-keyboard-response",417,328170,"0.0-3.135-2.135","dbsrngrqgslyu6m","163.csv","","null","resources/images/coin2.png","null","",NA,NA,NA,NA,""
"image-keyboard-response",418,328928,"0.0-3.136-0.136","dbsrngrqgslyu6m","163.csv","","757.1000000238419","resources/trios/L1T4A1.jpg","38","restless",0.5,0.6,0.5,0.758859601692445,"false"
"image-keyboard-response",419,329335,"0.0-3.136-1.136","dbsrngrqgslyu6m","163.csv","","null","resources/maskTrios/BT4B.jpg","null","",NA,NA,NA,NA,""
"image-keyboard-response",420,330549,"0.0-3.136-2.136","dbsrngrqgslyu6m","163.csv","","null","resources/images/fishbone.png","null","",NA,NA,NA,NA,""
"image-keyboard-response",421,330920,"0.0-3.137-0.137","dbsrngrqgslyu6m","163.csv","","369.60000002384186","resources/trios/L4T4A3.jpg","37","restless",0.5,0.6,0.5,0.19420927605202,"true"
"image-keyboard-response",422,331332,"0.0-3.137-1.137","dbsrngrqgslyu6m","163.csv","","null","resources/maskTrios/L4BB.jpg","null","",NA,NA,NA,NA,""
"image-keyboard-response",423,332545,"0.0-3.137-2.137","dbsrngrqgslyu6m","163.csv","","null","resources/images/coin2.png","null","",NA,NA,NA,NA,""
"image-keyboard-response",424,333104,"0.0-3.138-0.138","dbsrngrqgslyu6m","163.csv","","556.6000000238419","resources/trios/L4T4A3.jpg","37","restless",0.4,0.6,0.5,0.713333376151507,"false"
"image-keyboard-response",425,333526,"0.0-3.138-1.138","dbsrngrqgslyu6m","163.csv","","null","resources/maskTrios/L4BB.jpg","null","",NA,NA,NA,NA,""
"image-keyboard-response",426,334736,"0.0-3.138-2.138","dbsrngrqgslyu6m","163.csv","","null","resources/images/fishbone.png","null","",NA,NA,NA,NA,""
"image-keyboard-response",427,335168,"0.0-3.139-0.139","dbsrngrqgslyu6m","163.csv","","431","resources/trios/L1T1A3.jpg","38","restless",0.4,0.6,0.5,0.34411223964182,"true"
"image-keyboard-response",428,335575,"0.0-3.139-1.139","dbsrngrqgslyu6m","163.csv","","null","resources/maskTrios/BT1B.jpg","null","",NA,NA,NA,NA,""
"image-keyboard-response",429,336788,"0.0-3.139-2.139","dbsrngrqgslyu6m","163.csv","","null","resources/images/coin2.png","null","",NA,NA,NA,NA,""
"image-keyboard-response",430,337153,"0.0-3.140-0.140","dbsrngrqgslyu6m","163.csv","","363.6999999284744","resources/trios/L4T1A3.jpg","38","restless",0.4,0.6,0.5,0.63531567746804,"false"
"image-keyboard-response",431,337558,"0.0-3.140-1.140","dbsrngrqgslyu6m","163.csv","","null","resources/maskTrios/BT1B.jpg","null","",NA,NA,NA,NA,""
"image-keyboard-response",432,338770,"0.0-3.140-2.140","dbsrngrqgslyu6m","163.csv","","null","resources/images/fishbone.png","null","",NA,NA,NA,NA,""
"image-keyboard-response",433,339425,"0.0-3.141-0.141","dbsrngrqgslyu6m","163.csv","","653.6999999284744","resources/trios/L4T4A3.jpg","37","restless",0.4,0.6,0.4,0.472733293971167,"false"
"image-keyboard-response",434,339837,"0.0-3.141-1.141","dbsrngrqgslyu6m","163.csv","","null","resources/maskTrios/L4BB.jpg","null","",NA,NA,NA,NA,""
"image-keyboard-response",435,341039,"0.0-3.141-2.141","dbsrngrqgslyu6m","163.csv","","null","resources/images/fishbone.png","null","",NA,NA,NA,NA,""
"image-keyboard-response",436,341320,"0.0-3.142-0.142","dbsrngrqgslyu6m","163.csv","","280.2999999523163","resources/trios/L1T4A1.jpg","39","restless",0.4,0.6,0.4,0.369000805068689,"true"
"image-keyboard-response",437,341724,"0.0-3.142-1.142","dbsrngrqgslyu6m","163.csv","","null","resources/maskTrios/BBA1.jpg","null","",NA,NA,NA,NA,""
"image-keyboard-response",438,342934,"0.0-3.142-2.142","dbsrngrqgslyu6m","163.csv","","null","resources/images/coin2.png","null","",NA,NA,NA,NA,""
"image-keyboard-response",439,343448,"0.0-3.143-0.143","dbsrngrqgslyu6m","163.csv","","512.3999999761581","resources/trios/L1T4A1.jpg","39","restless",0.4,0.6,0.4,0.698652595739561,"false"
"image-keyboard-response",440,343854,"0.0-3.143-1.143","dbsrngrqgslyu6m","163.csv","","null","resources/maskTrios/BBA1.jpg","null","",NA,NA,NA,NA,""
"image-keyboard-response",441,345057,"0.0-3.143-2.143","dbsrngrqgslyu6m","163.csv","","null","resources/images/fishbone.png","null","",NA,NA,NA,NA,""
"image-keyboard-response",442,345624,"0.0-3.144-0.144","dbsrngrqgslyu6m","163.csv","","566","resources/trios/L1T4A3.jpg","38","restless",0.4,0.6,0.4,0.175128531728056,"true"
"image-keyboard-response",443,346037,"0.0-3.144-1.144","dbsrngrqgslyu6m","163.csv","","null","resources/maskTrios/BT4B.jpg","null","",NA,NA,NA,NA,""
"image-keyboard-response",444,347250,"0.0-3.144-2.144","dbsrngrqgslyu6m","163.csv","","null","resources/images/coin2.png","null","",NA,NA,NA,NA,""
"image-keyboard-response",445,347616,"0.0-3.145-0.145","dbsrngrqgslyu6m","163.csv","","365.2000000476837","resources/trios/L1T1A3.jpg","38","restless",0.4,0.6,0.4,0.339374211352466,"true"
"image-keyboard-response",446,348021,"0.0-3.145-1.145","dbsrngrqgslyu6m","163.csv","","null","resources/maskTrios/BT1B.jpg","null","",NA,NA,NA,NA,""
"image-keyboard-response",447,349226,"0.0-3.145-2.145","dbsrngrqgslyu6m","163.csv","","null","resources/images/coin2.png","null","",NA,NA,NA,NA,""
"image-keyboard-response",448,349585,"0.0-3.146-0.146","dbsrngrqgslyu6m","163.csv","","357.60000002384186","resources/trios/L1T1A3.jpg","38","restless",0.4,0.6,0.4,0.65777024240825,"false"
"image-keyboard-response",449,349987,"0.0-3.146-1.146","dbsrngrqgslyu6m","163.csv","","null","resources/maskTrios/BT1B.jpg","null","",NA,NA,NA,NA,""
"image-keyboard-response",450,351190,"0.0-3.146-2.146","dbsrngrqgslyu6m","163.csv","","null","resources/images/fishbone.png","null","",NA,NA,NA,NA,""
"image-keyboard-response",451,351760,"0.0-3.147-0.147","dbsrngrqgslyu6m","163.csv","","568.3999999761581","resources/trios/L4T1A1.jpg","37","restless",0.4,0.6,0.4,0.224326189341544,"true"
"image-keyboard-response",452,352164,"0.0-3.147-1.147","dbsrngrqgslyu6m","163.csv","","null","resources/maskTrios/L4BB.jpg","null","",NA,NA,NA,NA,""
"image-keyboard-response",453,353365,"0.0-3.147-2.147","dbsrngrqgslyu6m","163.csv","","null","resources/images/coin2.png","null","",NA,NA,NA,NA,""
"image-keyboard-response",454,353840,"0.0-3.148-0.148","dbsrngrqgslyu6m","163.csv","","474.2999999523163","resources/trios/L4T4A1.jpg","37","restless",0.5,0.6,0.4,0.657117447525612,"false"
"image-keyboard-response",455,354252,"0.0-3.148-1.148","dbsrngrqgslyu6m","163.csv","","null","resources/maskTrios/L4BB.jpg","null","",NA,NA,NA,NA,""
"image-keyboard-response",456,355460,"0.0-3.148-2.148","dbsrngrqgslyu6m","163.csv","","null","resources/images/fishbone.png","null","",NA,NA,NA,NA,""
"image-keyboard-response",457,355896,"0.0-3.149-0.149","dbsrngrqgslyu6m","163.csv","","435","resources/trios/L4T4A3.jpg","38","restless",0.5,0.6,0.4,0.989760613824174,"false"
"image-keyboard-response",458,356299,"0.0-3.149-1.149","dbsrngrqgslyu6m","163.csv","","null","resources/maskTrios/BT4B.jpg","null","",NA,NA,NA,NA,""
"image-keyboard-response",459,357513,"0.0-3.149-2.149","dbsrngrqgslyu6m","163.csv","","null","resources/images/fishbone.png","null","",NA,NA,NA,NA,""
"image-keyboard-response",460,358024,"0.0-3.150-0.150","dbsrngrqgslyu6m","163.csv","","510","resources/trios/L4T4A1.jpg","39","restless",0.5,0.6,0.4,0.291703590211641,"true"
"image-keyboard-response",461,358439,"0.0-3.150-1.150","dbsrngrqgslyu6m","163.csv","","null","resources/maskTrios/BBA1.jpg","null","",NA,NA,NA,NA,""
"image-keyboard-response",462,359647,"0.0-3.150-2.150","dbsrngrqgslyu6m","163.csv","","null","resources/images/coin2.png","null","",NA,NA,NA,NA,""
"image-keyboard-response",463,360161,"0.0-3.151-0.151","dbsrngrqgslyu6m","163.csv","","512.8000000715256","resources/trios/L1T4A3.jpg","39","restless",0.4,0.6,0.4,0.923692068520218,"false"
"image-keyboard-response",464,360566,"0.0-3.151-1.151","dbsrngrqgslyu6m","163.csv","","null","resources/maskTrios/BBA3.jpg","null","",NA,NA,NA,NA,""
"image-keyboard-response",465,361780,"0.0-3.151-2.151","dbsrngrqgslyu6m","163.csv","","null","resources/images/fishbone.png","null","",NA,NA,NA,NA,""
"image-keyboard-response",466,362224,"0.0-3.152-0.152","dbsrngrqgslyu6m","163.csv","","443.1999999284744","resources/trios/L4T1A3.jpg","38","restless",0.4,0.6,0.4,0.0599177051934194,"true"
"image-keyboard-response",467,362632,"0.0-3.152-1.152","dbsrngrqgslyu6m","163.csv","","null","resources/maskTrios/BT1B.jpg","null","",NA,NA,NA,NA,""
"image-keyboard-response",468,363837,"0.0-3.152-2.152","dbsrngrqgslyu6m","163.csv","","null","resources/images/coin2.png","null","",NA,NA,NA,NA,""
"image-keyboard-response",469,364408,"0.0-3.153-0.153","dbsrngrqgslyu6m","163.csv","","569.4000000953674","resources/trios/L1T1A3.jpg","38","restless",0.5,0.5,0.4,0.986762016044271,"false"
"image-keyboard-response",470,364816,"0.0-3.153-1.153","dbsrngrqgslyu6m","163.csv","","null","resources/maskTrios/BT1B.jpg","null","",NA,NA,NA,NA,""
"image-keyboard-response",471,366028,"0.0-3.153-2.153","dbsrngrqgslyu6m","163.csv","","null","resources/images/fishbone.png","null","",NA,NA,NA,NA,""
"image-keyboard-response",472,366368,"0.0-3.154-0.154","dbsrngrqgslyu6m","163.csv","","338.40000009536743","resources/trios/L4T4A1.jpg","37","restless",0.5,0.5,0.4,0.821821759779084,"false"
"image-keyboard-response",473,366780,"0.0-3.154-1.154","dbsrngrqgslyu6m","163.csv","","null","resources/maskTrios/L4BB.jpg","null","",NA,NA,NA,NA,""
"image-keyboard-response",474,367984,"0.0-3.154-2.154","dbsrngrqgslyu6m","163.csv","","null","resources/images/fishbone.png","null","",NA,NA,NA,NA,""
"image-keyboard-response",475,368568,"0.0-3.155-0.155","dbsrngrqgslyu6m","163.csv","","583","resources/trios/L1T4A3.jpg","38","restless",0.5,0.5,0.4,0.637727782396304,"false"
"image-keyboard-response",476,368981,"0.0-3.155-1.155","dbsrngrqgslyu6m","163.csv","","null","resources/maskTrios/BT4B.jpg","null","",NA,NA,NA,NA,""
"image-keyboard-response",477,370183,"0.0-3.155-2.155","dbsrngrqgslyu6m","163.csv","","null","resources/images/fishbone.png","null","",NA,NA,NA,NA,""
"image-keyboard-response",478,370769,"0.0-3.156-0.156","dbsrngrqgslyu6m","163.csv","","583.6000000238419","resources/trios/L4T1A3.jpg","38","restless",0.6,0.5,0.4,0.563984977038503,"false"
"image-keyboard-response",479,371172,"0.0-3.156-1.156","dbsrngrqgslyu6m","163.csv","","null","resources/maskTrios/BT1B.jpg","null","",NA,NA,NA,NA,""
"image-keyboard-response",480,372384,"0.0-3.156-2.156","dbsrngrqgslyu6m","163.csv","","null","resources/images/fishbone.png","null","",NA,NA,NA,NA,""
"image-keyboard-response",481,372889,"0.0-3.157-0.157","dbsrngrqgslyu6m","163.csv","","503.10000002384186","resources/trios/L1T1A1.jpg","39","restless",0.6,0.5,0.4,0.660526666036465,"false"
"image-keyboard-response",482,373291,"0.0-3.157-1.157","dbsrngrqgslyu6m","163.csv","","null","resources/maskTrios/BBA1.jpg","null","",NA,NA,NA,NA,""
"image-keyboard-response",483,374508,"0.0-3.157-2.157","dbsrngrqgslyu6m","163.csv","","null","resources/images/fishbone.png","null","",NA,NA,NA,NA,""
"image-keyboard-response",484,374784,"0.0-3.158-0.158","dbsrngrqgslyu6m","163.csv","","274.39999997615814","resources/trios/L4T4A1.jpg","38","restless",0.6,0.5,0.4,0.117277633953947,"true"
"image-keyboard-response",485,375195,"0.0-3.158-1.158","dbsrngrqgslyu6m","163.csv","","null","resources/maskTrios/BT4B.jpg","null","",NA,NA,NA,NA,""
"image-keyboard-response",486,376403,"0.0-3.158-2.158","dbsrngrqgslyu6m","163.csv","","null","resources/images/coin2.png","null","",NA,NA,NA,NA,""
"image-keyboard-response",487,376824,"0.0-3.159-0.159","dbsrngrqgslyu6m","163.csv","","419","resources/trios/L1T4A3.jpg","38","restless",0.6,0.5,0.4,0.231029294494495,"true"
"image-keyboard-response",488,377229,"0.0-3.159-1.159","dbsrngrqgslyu6m","163.csv","","null","resources/maskTrios/BT4B.jpg","null","",NA,NA,NA,NA,""
"image-keyboard-response",489,378433,"0.0-3.159-2.159","dbsrngrqgslyu6m","163.csv","","null","resources/images/coin2.png","null","",NA,NA,NA,NA,""
"image-keyboard-response",490,378920,"0.0-3.160-0.160","dbsrngrqgslyu6m","163.csv","","485.5","resources/trios/L4T4A3.jpg","38","restless",0.6,0.4,0.4,0.01890249873524,"true"
"image-keyboard-response",491,379326,"0.0-3.160-1.160","dbsrngrqgslyu6m","163.csv","","null","resources/maskTrios/BT4B.jpg","null","",NA,NA,NA,NA,""
"image-keyboard-response",492,380539,"0.0-3.160-2.160","dbsrngrqgslyu6m","163.csv","","null","resources/images/coin2.png","null","",NA,NA,NA,NA,""
"image-keyboard-response",493,380793,"0.0-3.161-0.161","dbsrngrqgslyu6m","163.csv","","252.5","resources/trios/L1T1A3.jpg","38","restless",0.6,0.4,0.4,0.448812871301704,"false"
"image-keyboard-response",494,381209,"0.0-3.161-1.161","dbsrngrqgslyu6m","163.csv","","null","resources/maskTrios/BT1B.jpg","null","",NA,NA,NA,NA,""
"image-keyboard-response",495,382422,"0.0-3.161-2.161","dbsrngrqgslyu6m","163.csv","","null","resources/images/fishbone.png","null","",NA,NA,NA,NA,""
"image-keyboard-response",496,383480,"0.0-3.162-0.162","dbsrngrqgslyu6m","163.csv","","1056.7000000476837","resources/trios/L4T1A3.jpg","37","restless",0.6,0.4,0.4,0.4309165191484,"true"
"image-keyboard-response",497,383892,"0.0-3.162-1.162","dbsrngrqgslyu6m","163.csv","","null","resources/maskTrios/L4BB.jpg","null","",NA,NA,NA,NA,""
"image-keyboard-response",498,385105,"0.0-3.162-2.162","dbsrngrqgslyu6m","163.csv","","null","resources/images/coin2.png","null","",NA,NA,NA,NA,""
"image-keyboard-response",499,385576,"0.0-3.163-0.163","dbsrngrqgslyu6m","163.csv","","469.5","resources/trios/L1T1A1.jpg","37","restless",0.6,0.4,0.4,0.341538711993328,"true"
"image-keyboard-response",500,385991,"0.0-3.163-1.163","dbsrngrqgslyu6m","163.csv","","null","resources/maskTrios/L1BB.jpg","null","",NA,NA,NA,NA,""
"image-keyboard-response",501,387204,"0.0-3.163-2.163","dbsrngrqgslyu6m","163.csv","","null","resources/images/coin2.png","null","",NA,NA,NA,NA,""
"image-keyboard-response",502,387657,"0.0-3.164-0.164","dbsrngrqgslyu6m","163.csv","","451.10000002384186","resources/trios/L1T1A3.jpg","37","restless",0.6,0.4,0.4,0.66750319960479,"false"
"image-keyboard-response",503,388058,"0.0-3.164-1.164","dbsrngrqgslyu6m","163.csv","","null","resources/maskTrios/L1BB.jpg","null","",NA,NA,NA,NA,""
"image-keyboard-response",504,389265,"0.0-3.164-2.164","dbsrngrqgslyu6m","163.csv","","null","resources/images/fishbone.png","null","",NA,NA,NA,NA,""
"image-keyboard-response",505,389680,"0.0-3.165-0.165","dbsrngrqgslyu6m","163.csv","","413.10000002384186","resources/trios/L1T4A3.jpg","38","restless",0.6,0.4,0.4,0.982017549184859,"false"
"image-keyboard-response",506,390090,"0.0-3.165-1.165","dbsrngrqgslyu6m","163.csv","","null","resources/maskTrios/BT4B.jpg","null","",NA,NA,NA,NA,""
"image-keyboard-response",507,391304,"0.0-3.165-2.165","dbsrngrqgslyu6m","163.csv","","null","resources/images/fishbone.png","null","",NA,NA,NA,NA,""
"image-keyboard-response",508,391865,"0.0-3.166-0.166","dbsrngrqgslyu6m","163.csv","","558.8999999761581","resources/trios/L1T1A1.jpg","39","restless",0.6,0.4,0.4,0.0809738077049729,"true"
"image-keyboard-response",509,392275,"0.0-3.166-1.166","dbsrngrqgslyu6m","163.csv","","null","resources/maskTrios/BBA1.jpg","null","",NA,NA,NA,NA,""
"image-keyboard-response",510,393485,"0.0-3.166-2.166","dbsrngrqgslyu6m","163.csv","","null","resources/images/coin2.png","null","",NA,NA,NA,NA,""
"image-keyboard-response",511,394069,"0.0-3.167-0.167","dbsrngrqgslyu6m","163.csv","","593.2999999523163","resources/trios/L4T4A1.jpg","39","restless",0.6,0.4,0.4,0.489355773930163,"false"
"image-keyboard-response",512,394477,"0.0-3.167-1.167","dbsrngrqgslyu6m","163.csv","","null","resources/maskTrios/BBA1.jpg","null","",NA,NA,NA,NA,""
"image-keyboard-response",513,395692,"0.0-3.167-2.167","dbsrngrqgslyu6m","163.csv","","null","resources/images/fishbone.png","null","",NA,NA,NA,NA,""
"image-keyboard-response",514,396093,"0.0-3.168-0.168","dbsrngrqgslyu6m","163.csv","","400.1999999284744","resources/trios/L1T1A1.jpg","38","restless",0.6,0.4,0.4,0.407017400775887,"false"
"image-keyboard-response",515,396501,"0.0-3.168-1.168","dbsrngrqgslyu6m","163.csv","","null","resources/maskTrios/BT1B.jpg","null","",NA,NA,NA,NA,""
"image-keyboard-response",516,397717,"0.0-3.168-2.168","dbsrngrqgslyu6m","163.csv","","null","resources/images/fishbone.png","null","",NA,NA,NA,NA,""
"image-keyboard-response",517,398101,"0.0-3.169-0.169","dbsrngrqgslyu6m","163.csv","","382.39999997615814","resources/trios/L1T4A3.jpg","37","restless",0.6,0.4,0.4,0.771861866950428,"false"
"image-keyboard-response",518,398505,"0.0-3.169-1.169","dbsrngrqgslyu6m","163.csv","","null","resources/maskTrios/L1BB.jpg","null","",NA,NA,NA,NA,""
"image-keyboard-response",519,399722,"0.0-3.169-2.169","dbsrngrqgslyu6m","163.csv","","null","resources/images/fishbone.png","null","",NA,NA,NA,NA,""
"image-keyboard-response",520,400053,"0.0-3.170-0.170","dbsrngrqgslyu6m","163.csv","","329.89999997615814","resources/trios/L1T4A3.jpg","38","restless",0.6,0.4,0.4,0.363975469583209,"true"
"image-keyboard-response",521,400458,"0.0-3.170-1.170","dbsrngrqgslyu6m","163.csv","","null","resources/maskTrios/BT4B.jpg","null","",NA,NA,NA,NA,""
"image-keyboard-response",522,401670,"0.0-3.170-2.170","dbsrngrqgslyu6m","163.csv","","null","resources/images/coin2.png","null","",NA,NA,NA,NA,""
"image-keyboard-response",523,402085,"0.0-3.171-0.171","dbsrngrqgslyu6m","163.csv","","413.09999990463257","resources/trios/L1T4A1.jpg","38","restless",0.6,0.4,0.4,0.552337870428935,"false"
"image-keyboard-response",524,402492,"0.0-3.171-1.171","dbsrngrqgslyu6m","163.csv","","null","resources/maskTrios/BT4B.jpg","null","",NA,NA,NA,NA,""
"image-keyboard-response",525,403706,"0.0-3.171-2.171","dbsrngrqgslyu6m","163.csv","","null","resources/images/fishbone.png","null","",NA,NA,NA,NA,""
"image-keyboard-response",526,404308,"0.0-3.172-0.172","dbsrngrqgslyu6m","163.csv","","601.5","resources/trios/L1T4A1.jpg","39","restless",0.6,0.4,0.4,0.807253173095986,"false"
"image-keyboard-response",527,404714,"0.0-3.172-1.172","dbsrngrqgslyu6m","163.csv","","null","resources/maskTrios/BBA1.jpg","null","",NA,NA,NA,NA,""
"image-keyboard-response",528,405921,"0.0-3.172-2.172","dbsrngrqgslyu6m","163.csv","","null","resources/images/fishbone.png","null","",NA,NA,NA,NA,""
"image-keyboard-response",529,406349,"0.0-3.173-0.173","dbsrngrqgslyu6m","163.csv","","426.89999997615814","resources/trios/L1T4A3.jpg","38","restless",0.6,0.4,0.4,0.592351355495272,"false"
"image-keyboard-response",530,406756,"0.0-3.173-1.173","dbsrngrqgslyu6m","163.csv","","null","resources/maskTrios/BT4B.jpg","null","",NA,NA,NA,NA,""
"image-keyboard-response",531,407970,"0.0-3.173-2.173","dbsrngrqgslyu6m","163.csv","","null","resources/images/fishbone.png","null","",NA,NA,NA,NA,""
"image-keyboard-response",532,408085,"0.0-3.174-0.174","dbsrngrqgslyu6m","163.csv","","113.19999992847443","resources/trios/L1T4A3.jpg","37","restless",0.6,0.4,0.4,0.71529116047531,"false"
"image-keyboard-response",533,408491,"0.0-3.174-1.174","dbsrngrqgslyu6m","163.csv","","null","resources/maskTrios/L1BB.jpg","null","",NA,NA,NA,NA,""
"image-keyboard-response",534,409699,"0.0-3.174-2.174","dbsrngrqgslyu6m","163.csv","","null","resources/images/fishbone.png","null","",NA,NA,NA,NA,""
"image-keyboard-response",535,410845,"0.0-3.175-0.175","dbsrngrqgslyu6m","163.csv","","1144","resources/trios/L4T1A3.jpg","37","restless",0.6,0.4,0.4,0.210390479061248,"true"
"image-keyboard-response",536,411256,"0.0-3.175-1.175","dbsrngrqgslyu6m","163.csv","","null","resources/maskTrios/L4BB.jpg","null","",NA,NA,NA,NA,""
"image-keyboard-response",537,412468,"0.0-3.175-2.175","dbsrngrqgslyu6m","163.csv","","null","resources/images/coin2.png","null","",NA,NA,NA,NA,""
"image-keyboard-response",538,412973,"0.0-3.176-0.176","dbsrngrqgslyu6m","163.csv","","503.5","resources/trios/L4T4A1.jpg","37","restless",0.6,0.4,0.3,0.186628424479554,"true"
"image-keyboard-response",539,413379,"0.0-3.176-1.176","dbsrngrqgslyu6m","163.csv","","null","resources/maskTrios/L4BB.jpg","null","",NA,NA,NA,NA,""
"image-keyboard-response",540,414585,"0.0-3.176-2.176","dbsrngrqgslyu6m","163.csv","","null","resources/images/coin2.png","null","",NA,NA,NA,NA,""
"image-keyboard-response",541,414805,"0.0-3.177-0.177","dbsrngrqgslyu6m","163.csv","","218.59999990463257","resources/trios/L1T4A1.jpg","37","restless",0.6,0.4,0.3,0.954978098376563,"false"
"image-keyboard-response",542,415223,"0.0-3.177-1.177","dbsrngrqgslyu6m","163.csv","","null","resources/maskTrios/L1BB.jpg","null","",NA,NA,NA,NA,""
"image-keyboard-response",543,416431,"0.0-3.177-2.177","dbsrngrqgslyu6m","163.csv","","null","resources/images/fishbone.png","null","",NA,NA,NA,NA,""
"image-keyboard-response",544,416853,"0.0-3.178-0.178","dbsrngrqgslyu6m","163.csv","","420.59999990463257","resources/trios/L4T4A3.jpg","38","restless",0.6,0.3,0.3,0.741083955625928,"false"
"image-keyboard-response",545,417268,"0.0-3.178-1.178","dbsrngrqgslyu6m","163.csv","","null","resources/maskTrios/BT4B.jpg","null","",NA,NA,NA,NA,""
"image-keyboard-response",546,418482,"0.0-3.178-2.178","dbsrngrqgslyu6m","163.csv","","null","resources/images/fishbone.png","null","",NA,NA,NA,NA,""
"image-keyboard-response",547,419093,"0.0-3.179-0.179","dbsrngrqgslyu6m","163.csv","","609.4000000953674","resources/trios/L1T1A1.jpg","39","restless",0.6,0.3,0.3,0.25609559500057,"true"
"image-keyboard-response",548,419506,"0.0-3.179-1.179","dbsrngrqgslyu6m","163.csv","","null","resources/maskTrios/BBA1.jpg","null","",NA,NA,NA,NA,""
"image-keyboard-response",549,420709,"0.0-3.179-2.179","dbsrngrqgslyu6m","163.csv","","null","resources/images/coin2.png","null","",NA,NA,NA,NA,""
"image-keyboard-response",550,421973,"0.0-3.180-0.180","dbsrngrqgslyu6m","163.csv","","1262","resources/trios/L4T4A3.jpg","39","restless",0.6,0.3,0.3,0.609726676615272,"false"
"image-keyboard-response",551,422384,"0.0-3.180-1.180","dbsrngrqgslyu6m","163.csv","","null","resources/maskTrios/BBA3.jpg","null","",NA,NA,NA,NA,""
"image-keyboard-response",552,423598,"0.0-3.180-2.180","dbsrngrqgslyu6m","163.csv","","null","resources/images/fishbone.png","null","",NA,NA,NA,NA,""
"image-keyboard-response",553,424885,"0.0-3.181-0.181","dbsrngrqgslyu6m","163.csv","","1285.7999999523163","resources/trios/L1T1A1.jpg","38","restless",0.6,0.3,0.2,0.537470035450951,"false"
"image-keyboard-response",554,425297,"0.0-3.181-1.181","dbsrngrqgslyu6m","163.csv","","null","resources/maskTrios/BT1B.jpg","null","",NA,NA,NA,NA,""
"image-keyboard-response",555,426513,"0.0-3.181-2.181","dbsrngrqgslyu6m","163.csv","","null","resources/images/fishbone.png","null","",NA,NA,NA,NA,""
"image-keyboard-response",556,426957,"0.0-3.182-0.182","dbsrngrqgslyu6m","163.csv","","442.6999999284744","resources/trios/L1T1A3.jpg","37","restless",0.5,0.4,0.2,0.958040373046735,"false"
"image-keyboard-response",557,427366,"0.0-3.182-1.182","dbsrngrqgslyu6m","163.csv","","null","resources/maskTrios/L1BB.jpg","null","",NA,NA,NA,NA,""
"image-keyboard-response",558,428581,"0.0-3.182-2.182","dbsrngrqgslyu6m","163.csv","","null","resources/images/fishbone.png","null","",NA,NA,NA,NA,""
"image-keyboard-response",559,429141,"0.0-3.183-0.183","dbsrngrqgslyu6m","163.csv","","558.1999999284744","resources/trios/L4T1A3.jpg","38","restless",0.5,0.5,0.2,0.979138714342536,"false"
"image-keyboard-response",560,429550,"0.0-3.183-1.183","dbsrngrqgslyu6m","163.csv","","null","resources/maskTrios/BT1B.jpg","null","",NA,NA,NA,NA,""
"image-keyboard-response",561,430760,"0.0-3.183-2.183","dbsrngrqgslyu6m","163.csv","","null","resources/images/fishbone.png","null","",NA,NA,NA,NA,""
"image-keyboard-response",562,431229,"0.0-3.184-0.184","dbsrngrqgslyu6m","163.csv","","467.10000002384186","resources/trios/L4T4A3.jpg","39","restless",0.5,0.5,0.1,0.824837769893275,"false"
"image-keyboard-response",563,431632,"0.0-3.184-1.184","dbsrngrqgslyu6m","163.csv","","null","resources/maskTrios/BBA3.jpg","null","",NA,NA,NA,NA,""
"image-keyboard-response",564,432845,"0.0-3.184-2.184","dbsrngrqgslyu6m","163.csv","","null","resources/images/fishbone.png","null","",NA,NA,NA,NA,""
"image-keyboard-response",565,433341,"0.0-3.185-0.185","dbsrngrqgslyu6m","163.csv","","494.2999999523163","resources/trios/L1T4A3.jpg","38","restless",0.5,0.5,0.1,0.79315854495086,"false"
"image-keyboard-response",566,433748,"0.0-3.185-1.185","dbsrngrqgslyu6m","163.csv","","null","resources/maskTrios/BT4B.jpg","null","",NA,NA,NA,NA,""
"image-keyboard-response",567,434960,"0.0-3.185-2.185","dbsrngrqgslyu6m","163.csv","","null","resources/images/fishbone.png","null","",NA,NA,NA,NA,""
"image-keyboard-response",568,435357,"0.0-3.186-0.186","dbsrngrqgslyu6m","163.csv","","395.59999990463257","resources/trios/L1T4A1.jpg","37","restless",0.5,0.5,0.1,0.19836983354014,"true"
"image-keyboard-response",569,435765,"0.0-3.186-1.186","dbsrngrqgslyu6m","163.csv","","null","resources/maskTrios/L1BB.jpg","null","",NA,NA,NA,NA,""
"image-keyboard-response",570,436980,"0.0-3.186-2.186","dbsrngrqgslyu6m","163.csv","","null","resources/images/coin2.png","null","",NA,NA,NA,NA,""
"image-keyboard-response",571,437373,"0.0-3.187-0.187","dbsrngrqgslyu6m","163.csv","","391.2000000476837","resources/trios/L4T4A1.jpg","37","restless",0.5,0.5,0.1,0.169741594106561,"true"
"image-keyboard-response",572,437781,"0.0-3.187-1.187","dbsrngrqgslyu6m","163.csv","","null","resources/maskTrios/L4BB.jpg","null","",NA,NA,NA,NA,""
"image-keyboard-response",573,438993,"0.0-3.187-2.187","dbsrngrqgslyu6m","163.csv","","null","resources/images/coin2.png","null","",NA,NA,NA,NA,""
"image-keyboard-response",574,439469,"0.0-3.188-0.188","dbsrngrqgslyu6m","163.csv","","474.1999999284744","resources/trios/L1T1A3.jpg","37","restless",0.5,0.5,0.1,0.583804248166359,"false"
"image-keyboard-response",575,439882,"0.0-3.188-1.188","dbsrngrqgslyu6m","163.csv","","null","resources/maskTrios/L1BB.jpg","null","",NA,NA,NA,NA,""
"image-keyboard-response",576,441086,"0.0-3.188-2.188","dbsrngrqgslyu6m","163.csv","","null","resources/images/fishbone.png","null","",NA,NA,NA,NA,""
"image-keyboard-response",577,441397,"0.0-3.189-0.189","dbsrngrqgslyu6m","163.csv","","308.7000000476837","resources/trios/L1T1A3.jpg","38","restless",0.4,0.5,0.1,0.706885383710025,"false"
"image-keyboard-response",578,441812,"0.0-3.189-1.189","dbsrngrqgslyu6m","163.csv","","null","resources/maskTrios/BT1B.jpg","null","",NA,NA,NA,NA,""
"image-keyboard-response",579,443025,"0.0-3.189-2.189","dbsrngrqgslyu6m","163.csv","","null","resources/images/fishbone.png","null","",NA,NA,NA,NA,""
"image-keyboard-response",580,443437,"0.0-3.190-0.190","dbsrngrqgslyu6m","163.csv","","410.10000002384186","resources/trios/L1T4A1.jpg","39","restless",0.4,0.5,0,0.39284037413264,"false"
"image-keyboard-response",581,443845,"0.0-3.190-1.190","dbsrngrqgslyu6m","163.csv","","null","resources/maskTrios/BBA1.jpg","null","",NA,NA,NA,NA,""
"image-keyboard-response",582,445056,"0.0-3.190-2.190","dbsrngrqgslyu6m","163.csv","","null","resources/images/fishbone.png","null","",NA,NA,NA,NA,""
"image-keyboard-response",583,445517,"0.0-3.191-0.191","dbsrngrqgslyu6m","163.csv","","460","resources/trios/L1T4A1.jpg","38","restless",0.3,0.5,0.1,0.335010293137364,"true"
"image-keyboard-response",584,445930,"0.0-3.191-1.191","dbsrngrqgslyu6m","163.csv","","null","resources/maskTrios/BT4B.jpg","null","",NA,NA,NA,NA,""
"image-keyboard-response",585,447144,"0.0-3.191-2.191","dbsrngrqgslyu6m","163.csv","","null","resources/images/coin2.png","null","",NA,NA,NA,NA,""
"image-keyboard-response",586,447533,"0.0-3.192-0.192","dbsrngrqgslyu6m","163.csv","","386.60000002384186","resources/trios/L1T1A1.jpg","38","restless",0.3,0.5,0.1,0.767436252491793,"false"
"image-keyboard-response",587,447943,"0.0-3.192-1.192","dbsrngrqgslyu6m","163.csv","","null","resources/maskTrios/BT1B.jpg","null","",NA,NA,NA,NA,""
"image-keyboard-response",588,449155,"0.0-3.192-2.192","dbsrngrqgslyu6m","163.csv","","null","resources/images/fishbone.png","null","",NA,NA,NA,NA,""
"image-keyboard-response",589,449613,"0.0-3.193-0.193","dbsrngrqgslyu6m","163.csv","","456.10000002384186","resources/trios/L1T1A3.jpg","37","restless",0.3,0.5,0.1,0.967835959572011,"false"
"image-keyboard-response",590,450025,"0.0-3.193-1.193","dbsrngrqgslyu6m","163.csv","","null","resources/maskTrios/L1BB.jpg","null","",NA,NA,NA,NA,""
"image-keyboard-response",591,451239,"0.0-3.193-2.193","dbsrngrqgslyu6m","163.csv","","null","resources/images/fishbone.png","null","",NA,NA,NA,NA,""
"image-keyboard-response",592,451677,"0.0-3.194-0.194","dbsrngrqgslyu6m","163.csv","","435.60000002384186","resources/trios/L1T4A3.jpg","38","restless",0.3,0.4,0.1,0.982646108043555,"false"
"image-keyboard-response",593,452092,"0.0-3.194-1.194","dbsrngrqgslyu6m","163.csv","","null","resources/maskTrios/BT4B.jpg","null","",NA,NA,NA,NA,""
"image-keyboard-response",594,453305,"0.0-3.194-2.194","dbsrngrqgslyu6m","163.csv","","null","resources/images/fishbone.png","null","",NA,NA,NA,NA,""
"image-keyboard-response",595,453669,"0.0-3.195-0.195","dbsrngrqgslyu6m","163.csv","","362.2000000476837","resources/trios/L4T4A1.jpg","39","restless",0.3,0.4,0.1,0.640111197957707,"false"
"image-keyboard-response",596,454086,"0.0-3.195-1.195","dbsrngrqgslyu6m","163.csv","","null","resources/maskTrios/BBA1.jpg","null","",NA,NA,NA,NA,""
"image-keyboard-response",597,455292,"0.0-3.195-2.195","dbsrngrqgslyu6m","163.csv","","null","resources/images/fishbone.png","null","",NA,NA,NA,NA,""
"image-keyboard-response",598,455824,"0.0-3.196-0.196","dbsrngrqgslyu6m","163.csv","","530.1000000238419","resources/trios/L1T1A1.jpg","37","restless",0.3,0.4,0.1,0.865511184858857,"false"
"image-keyboard-response",599,456234,"0.0-3.196-1.196","dbsrngrqgslyu6m","163.csv","","null","resources/maskTrios/L1BB.jpg","null","",NA,NA,NA,NA,""
"image-keyboard-response",600,457449,"0.0-3.196-2.196","dbsrngrqgslyu6m","163.csv","","null","resources/images/fishbone.png","null","",NA,NA,NA,NA,""
"image-keyboard-response",601,457887,"0.0-3.197-0.197","dbsrngrqgslyu6m","163.csv","","437.2000000476837","resources/trios/L4T4A3.jpg","38","restless",0.3,0.4,0.2,0.875748357418656,"false"
"image-keyboard-response",602,458300,"0.0-3.197-1.197","dbsrngrqgslyu6m","163.csv","","null","resources/maskTrios/BT4B.jpg","null","",NA,NA,NA,NA,""
"image-keyboard-response",603,459507,"0.0-3.197-2.197","dbsrngrqgslyu6m","163.csv","","null","resources/images/fishbone.png","null","",NA,NA,NA,NA,""
"image-keyboard-response",604,460463,"0.0-3.198-0.198","dbsrngrqgslyu6m","163.csv","","955","resources/trios/L4T4A1.jpg","37","restless",0.3,0.4,0.2,0.321494221985713,"false"
"image-keyboard-response",605,460872,"0.0-3.198-1.198","dbsrngrqgslyu6m","163.csv","","null","resources/maskTrios/L4BB.jpg","null","",NA,NA,NA,NA,""
"image-keyboard-response",606,462082,"0.0-3.198-2.198","dbsrngrqgslyu6m","163.csv","","null","resources/images/fishbone.png","null","",NA,NA,NA,NA,""
"image-keyboard-response",607,462687,"0.0-3.199-0.199","dbsrngrqgslyu6m","163.csv","","604.1000000238419","resources/trios/L4T1A1.jpg","39","restless",0.3,0.4,0.2,0.213597252059169,"false"
"image-keyboard-response",608,463100,"0.0-3.199-1.199","dbsrngrqgslyu6m","163.csv","","null","resources/maskTrios/BBA1.jpg","null","",NA,NA,NA,NA,""
"image-keyboard-response",609,464310,"0.0-3.199-2.199","dbsrngrqgslyu6m","163.csv","","null","resources/images/fishbone.png","null","",NA,NA,NA,NA,""
"image-keyboard-response",610,464312,"0.0-3.200-0.200","dbsrngrqgslyu6m","163.csv","","0","resources/trios/L1T1A1.jpg","38","restless",0.3,0.3,0.2,0.396109003079799,"false"
"image-keyboard-response",611,464716,"0.0-3.200-1.200","dbsrngrqgslyu6m","163.csv","","null","resources/maskTrios/BT1B.jpg","null","",NA,NA,NA,NA,""
"image-keyboard-response",612,465929,"0.0-3.200-2.200","dbsrngrqgslyu6m","163.csv","","null","resources/images/fishbone.png","null","",NA,NA,NA,NA,""
"image-keyboard-response",613,466344,"0.0-3.201-0.201","dbsrngrqgslyu6m","163.csv","","412.7999999523163","resources/trios/L1T4A3.jpg","37","restless",0.4,0.3,0.2,0.647702079901461,"false"
"image-keyboard-response",614,466749,"0.0-3.201-1.201","dbsrngrqgslyu6m","163.csv","","null","resources/maskTrios/L1BB.jpg","null","",NA,NA,NA,NA,""
"image-keyboard-response",615,467953,"0.0-3.201-2.201","dbsrngrqgslyu6m","163.csv","","null","resources/images/fishbone.png","null","",NA,NA,NA,NA,""
"image-keyboard-response",616,468815,"0.0-3.202-0.202","dbsrngrqgslyu6m","163.csv","","860.3999999761581","resources/trios/L1T1A3.jpg","38","restless",0.4,0.3,0.2,0.952494989211477,"false"
"image-keyboard-response",617,469230,"0.0-3.202-1.202","dbsrngrqgslyu6m","163.csv","","null","resources/maskTrios/BT1B.jpg","null","",NA,NA,NA,NA,""
"image-keyboard-response",618,470433,"0.0-3.202-2.202","dbsrngrqgslyu6m","163.csv","","null","resources/images/fishbone.png","null","",NA,NA,NA,NA,""
"image-keyboard-response",619,470871,"0.0-3.203-0.203","dbsrngrqgslyu6m","163.csv","","436.59999990463257","resources/trios/L1T1A1.jpg","39","restless",0.4,0.3,0.2,0.178213087806894,"true"
"image-keyboard-response",620,471280,"0.0-3.203-1.203","dbsrngrqgslyu6m","163.csv","","null","resources/maskTrios/BBA1.jpg","null","",NA,NA,NA,NA,""
"image-keyboard-response",621,472493,"0.0-3.203-2.203","dbsrngrqgslyu6m","163.csv","","null","resources/images/coin2.png","null","",NA,NA,NA,NA,""
"image-keyboard-response",622,473039,"0.0-3.204-0.204","dbsrngrqgslyu6m","163.csv","","544.7999999523163","resources/trios/L1T1A3.jpg","39","restless",0.4,0.3,0.3,0.659010027723053,"false"
"image-keyboard-response",623,473455,"0.0-3.204-1.204","dbsrngrqgslyu6m","163.csv","","null","resources/maskTrios/BBA3.jpg","null","",NA,NA,NA,NA,""
