"trial_type","trial_index","time_elapsed","internal_node_id","subject","participantCode","walkNumber","success","rt","stimulus","key_press","test_part","leftProb","midProb","rightProb","generatedNum","correct"
"pavlovia",0,1111,"0.0-0.0","v1o6t0jehsdv12w",251,"107.csv","","","","","",NA,NA,NA,NA,""
"fullscreen",1,6479,"0.0-1.0","v1o6t0jehsdv12w",251,"107.csv","true","","","","",NA,NA,NA,NA,""
"html-keyboard-response",2,19888,"0.0-2.0-0.0","v1o6t0jehsdv12w",251,"107.csv","","13407.70000000298","<p><font size='6'>Arrrgh!</p></font><p>Can you be the best pirate? Try to find lots of gold! But beware, some islands have more gold than others, and over time, the island with the most gold may change. Can YOU figure it out? </p><font size='6'>GOOD LUCK, CAPTAIN!!!</font><p>Press any key to begin</p>","32","",NA,NA,NA,NA,""
"image-keyboard-response",3,22892,"0.0-2.0-1.0","v1o6t0jehsdv12w",251,"107.csv","","null","resources/image_sets/111.png","null","",NA,NA,NA,NA,""
"image-keyboard-response",4,38042,"0.0-2.0-2.0","v1o6t0jehsdv12w",251,"107.csv","","15148.29999999702","resources/image_sets/left_highlight.png","37","",NA,NA,NA,NA,""
"image-keyboard-response",5,40498,"0.0-2.0-3.0","v1o6t0jehsdv12w",251,"107.csv","","2453.7999999970198","resources/image_sets/mid_highlight.png","38","",NA,NA,NA,NA,""
"image-keyboard-response",6,41237,"0.0-2.0-4.0","v1o6t0jehsdv12w",251,"107.csv","","737.2999999970198","resources/image_sets/right_highlight.png","39","",NA,NA,NA,NA,""
"image-keyboard-response",7,49390,"0.0-2.0-5.0","v1o6t0jehsdv12w",251,"107.csv","","8150.5","resources/image_sets/111.png","13","",NA,NA,NA,NA,""
"image-keyboard-response",8,52789,"0.0-2.0-6.0","v1o6t0jehsdv12w",251,"107.csv","","3397.4000000059605","resources/images/coin2.png","13","",NA,NA,NA,NA,""
"image-keyboard-response",9,54685,"0.0-2.0-7.0","v1o6t0jehsdv12w",251,"107.csv","","1894.5999999940395","resources/images/fishbone.png","13","",NA,NA,NA,NA,""
"html-keyboard-response",10,68580,"0.0-2.0-8.0","v1o6t0jehsdv12w",251,"107.csv","","13893.89999999106","<p>Your first journey will be a long one, but you will get a well deserved break at the end</p><p>After the break you will have four more journeys, but each will be much shorter than the first, and you will have breaks in between each</p><p>Press Enter to begin</p>","13","",NA,NA,NA,NA,""
"image-keyboard-response",11,71519,"0.0-3.0-0.0","v1o6t0jehsdv12w",251,"107.csv","","2936.300000011921","resources/trios/L2T1A1.jpg","38","restless",0.9,0.7,0.3,0.776714758981342,"false"
"image-keyboard-response",12,71927,"0.0-3.0-1.0","v1o6t0jehsdv12w",251,"107.csv","","null","resources/maskTrios/BT1B.jpg","null","",NA,NA,NA,NA,""
"image-keyboard-response",13,73131,"0.0-3.0-2.0","v1o6t0jehsdv12w",251,"107.csv","","null","resources/images/fishbone.png","null","",NA,NA,NA,NA,""
"image-keyboard-response",14,76255,"0.0-3.1-0.1","v1o6t0jehsdv12w",251,"107.csv","","3120.5","resources/trios/L4T1A3.jpg","38","restless",0.9,0.7,0.3,0.097514461554447,"true"
"image-keyboard-response",15,76662,"0.0-3.1-1.1","v1o6t0jehsdv12w",251,"107.csv","","null","resources/maskTrios/BT1B.jpg","null","",NA,NA,NA,NA,""
"image-keyboard-response",16,77870,"0.0-3.1-2.1","v1o6t0jehsdv12w",251,"107.csv","","null","resources/images/coin2.png","null","",NA,NA,NA,NA,""
"image-keyboard-response",17,79448,"0.0-3.2-0.2","v1o6t0jehsdv12w",251,"107.csv","","1574.7000000029802","resources/trios/L2T1A1.jpg","37","restless",0.9,0.7,0.3,0.158840157229034,"true"
"image-keyboard-response",18,79855,"0.0-3.2-1.2","v1o6t0jehsdv12w",251,"107.csv","","null","resources/maskTrios/L2BB.jpg","null","",NA,NA,NA,NA,""
"image-keyboard-response",19,81059,"0.0-3.2-2.2","v1o6t0jehsdv12w",251,"107.csv","","null","resources/images/coin2.png","null","",NA,NA,NA,NA,""
"image-keyboard-response",20,82245,"0.0-3.3-0.3","v1o6t0jehsdv12w",251,"107.csv","","1183.0999999940395","resources/trios/L4T1A1.jpg","38","restless",0.9,0.7,0.3,0.559912180803426,"true"
"image-keyboard-response",21,82652,"0.0-3.3-1.3","v1o6t0jehsdv12w",251,"107.csv","","null","resources/maskTrios/BT1B.jpg","null","",NA,NA,NA,NA,""
"image-keyboard-response",22,83859,"0.0-3.3-2.3","v1o6t0jehsdv12w",251,"107.csv","","null","resources/images/coin2.png","null","",NA,NA,NA,NA,""
"image-keyboard-response",23,84777,"0.0-3.4-0.4","v1o6t0jehsdv12w",251,"107.csv","","915.0999999940395","resources/trios/L4T4A3.jpg","37","restless",0.8,0.7,0.3,0.399956456205093,"true"
"image-keyboard-response",24,85184,"0.0-3.4-1.4","v1o6t0jehsdv12w",251,"107.csv","","null","resources/maskTrios/L4BB.jpg","null","",NA,NA,NA,NA,""
"image-keyboard-response",25,86392,"0.0-3.4-2.4","v1o6t0jehsdv12w",251,"107.csv","","null","resources/images/coin2.png","null","",NA,NA,NA,NA,""
"image-keyboard-response",26,90567,"0.0-3.5-0.5","v1o6t0jehsdv12w",251,"107.csv","","4173.20000000298","resources/trios/L4T4A3.jpg","39","restless",0.8,0.7,0.3,0.46249926790777,"false"
"image-keyboard-response",27,90974,"0.0-3.5-1.5","v1o6t0jehsdv12w",251,"107.csv","","null","resources/maskTrios/BBA3.jpg","null","",NA,NA,NA,NA,""
"image-keyboard-response",28,92181,"0.0-3.5-2.5","v1o6t0jehsdv12w",251,"107.csv","","null","resources/images/fishbone.png","null","",NA,NA,NA,NA,""
"image-keyboard-response",29,93601,"0.0-3.6-0.6","v1o6t0jehsdv12w",251,"107.csv","","1417.4000000059605","resources/trios/L4T1A1.jpg","37","restless",0.8,0.7,0.3,0.872143599093368,"false"
"image-keyboard-response",30,94007,"0.0-3.6-1.6","v1o6t0jehsdv12w",251,"107.csv","","null","resources/maskTrios/L4BB.jpg","null","",NA,NA,NA,NA,""
"image-keyboard-response",31,95214,"0.0-3.6-2.6","v1o6t0jehsdv12w",251,"107.csv","","null","resources/images/fishbone.png","null","",NA,NA,NA,NA,""
"image-keyboard-response",32,96556,"0.0-3.7-0.7","v1o6t0jehsdv12w",251,"107.csv","","1339.7000000029802","resources/trios/L2T4A1.jpg","37","restless",0.8,0.7,0.3,0.797368011835385,"true"
"image-keyboard-response",33,96963,"0.0-3.7-1.7","v1o6t0jehsdv12w",251,"107.csv","","null","resources/maskTrios/L2BB.jpg","null","",NA,NA,NA,NA,""
"image-keyboard-response",34,98170,"0.0-3.7-2.7","v1o6t0jehsdv12w",251,"107.csv","","null","resources/images/coin2.png","null","",NA,NA,NA,NA,""
"image-keyboard-response",35,99231,"0.0-3.8-0.8","v1o6t0jehsdv12w",251,"107.csv","","1058.1000000089407","resources/trios/L4T4A3.jpg","38","restless",0.8,0.7,0.3,0.693545628324205,"true"
"image-keyboard-response",36,99634,"0.0-3.8-1.8","v1o6t0jehsdv12w",251,"107.csv","","null","resources/maskTrios/BT4B.jpg","null","",NA,NA,NA,NA,""
"image-keyboard-response",37,100841,"0.0-3.8-2.8","v1o6t0jehsdv12w",251,"107.csv","","null","resources/images/coin2.png","null","",NA,NA,NA,NA,""
"image-keyboard-response",38,101530,"0.0-3.9-0.9","v1o6t0jehsdv12w",251,"107.csv","","686.4000000059605","resources/trios/L4T1A1.jpg","37","restless",0.8,0.7,0.2,0.220889561347038,"true"
"image-keyboard-response",39,101937,"0.0-3.9-1.9","v1o6t0jehsdv12w",251,"107.csv","","null","resources/maskTrios/L4BB.jpg","null","",NA,NA,NA,NA,""
"image-keyboard-response",40,103144,"0.0-3.9-2.9","v1o6t0jehsdv12w",251,"107.csv","","null","resources/images/coin2.png","null","",NA,NA,NA,NA,""
"image-keyboard-response",41,103891,"0.0-3.10-0.10","v1o6t0jehsdv12w",251,"107.csv","","744.2000000029802","resources/trios/L2T4A3.jpg","38","restless",0.8,0.7,0.2,0.61633183340841,"true"
"image-keyboard-response",42,104298,"0.0-3.10-1.10","v1o6t0jehsdv12w",251,"107.csv","","null","resources/maskTrios/BT4B.jpg","null","",NA,NA,NA,NA,""
"image-keyboard-response",43,105501,"0.0-3.10-2.10","v1o6t0jehsdv12w",251,"107.csv","","null","resources/images/coin2.png","null","",NA,NA,NA,NA,""
"image-keyboard-response",44,106297,"0.0-3.11-0.11","v1o6t0jehsdv12w",251,"107.csv","","794","resources/trios/L4T4A1.jpg","37","restless",0.8,0.7,0.2,0.706291798323885,"true"
"image-keyboard-response",45,106701,"0.0-3.11-1.11","v1o6t0jehsdv12w",251,"107.csv","","null","resources/maskTrios/L4BB.jpg","null","",NA,NA,NA,NA,""
"image-keyboard-response",46,107908,"0.0-3.11-2.11","v1o6t0jehsdv12w",251,"107.csv","","null","resources/images/coin2.png","null","",NA,NA,NA,NA,""
"image-keyboard-response",47,109122,"0.0-3.12-0.12","v1o6t0jehsdv12w",251,"107.csv","","1211","resources/trios/L2T1A3.jpg","38","restless",0.8,0.7,0.2,0.615873324906834,"true"
"image-keyboard-response",48,109529,"0.0-3.12-1.12","v1o6t0jehsdv12w",251,"107.csv","","null","resources/maskTrios/BT1B.jpg","null","",NA,NA,NA,NA,""
"image-keyboard-response",49,110734,"0.0-3.12-2.12","v1o6t0jehsdv12w",251,"107.csv","","null","resources/images/coin2.png","null","",NA,NA,NA,NA,""
"image-keyboard-response",50,111977,"0.0-3.13-0.13","v1o6t0jehsdv12w",251,"107.csv","","1241.2999999970198","resources/trios/L4T1A1.jpg","37","restless",0.8,0.7,0.2,0.965445166099241,"false"
"image-keyboard-response",51,112381,"0.0-3.13-1.13","v1o6t0jehsdv12w",251,"107.csv","","null","resources/maskTrios/L4BB.jpg","null","",NA,NA,NA,NA,""
"image-keyboard-response",52,113587,"0.0-3.13-2.13","v1o6t0jehsdv12w",251,"107.csv","","null","resources/images/fishbone.png","null","",NA,NA,NA,NA,""
"image-keyboard-response",53,114918,"0.0-3.14-0.14","v1o6t0jehsdv12w",251,"107.csv","","1328.6000000089407","resources/trios/L2T4A1.jpg","38","restless",0.8,0.7,0.2,0.922945826220626,"false"
"image-keyboard-response",54,115326,"0.0-3.14-1.14","v1o6t0jehsdv12w",251,"107.csv","","null","resources/maskTrios/BT4B.jpg","null","",NA,NA,NA,NA,""
"image-keyboard-response",55,116533,"0.0-3.14-2.14","v1o6t0jehsdv12w",251,"107.csv","","null","resources/images/fishbone.png","null","",NA,NA,NA,NA,""
"image-keyboard-response",56,118137,"0.0-3.15-0.15","v1o6t0jehsdv12w",251,"107.csv","","1601.9000000059605","resources/trios/L4T1A3.jpg","38","restless",0.7,0.7,0.2,0.811605748332658,"false"
"image-keyboard-response",57,118541,"0.0-3.15-1.15","v1o6t0jehsdv12w",251,"107.csv","","null","resources/maskTrios/BT1B.jpg","null","",NA,NA,NA,NA,""
"image-keyboard-response",58,119748,"0.0-3.15-2.15","v1o6t0jehsdv12w",251,"107.csv","","null","resources/images/fishbone.png","null","",NA,NA,NA,NA,""
"image-keyboard-response",59,122156,"0.0-3.16-0.16","v1o6t0jehsdv12w",251,"107.csv","","2406","resources/trios/L4T1A3.jpg","37","restless",0.7,0.7,0.2,0.424481499600002,"true"
"image-keyboard-response",60,122560,"0.0-3.16-1.16","v1o6t0jehsdv12w",251,"107.csv","","null","resources/maskTrios/L4BB.jpg","null","",NA,NA,NA,NA,""
"image-keyboard-response",61,123767,"0.0-3.16-2.16","v1o6t0jehsdv12w",251,"107.csv","","null","resources/images/coin2.png","null","",NA,NA,NA,NA,""
"image-keyboard-response",62,124808,"0.0-3.17-0.17","v1o6t0jehsdv12w",251,"107.csv","","1039.199999988079","resources/trios/L2T4A3.jpg","37","restless",0.7,0.7,0.3,0.789560582019637,"false"
"image-keyboard-response",63,125215,"0.0-3.17-1.17","v1o6t0jehsdv12w",251,"107.csv","","null","resources/maskTrios/L2BB.jpg","null","",NA,NA,NA,NA,""
"image-keyboard-response",64,126419,"0.0-3.17-2.17","v1o6t0jehsdv12w",251,"107.csv","","null","resources/images/fishbone.png","null","",NA,NA,NA,NA,""
"image-keyboard-response",65,126964,"0.0-3.18-0.18","v1o6t0jehsdv12w",251,"107.csv","","542.2000000029802","resources/trios/L4T1A1.jpg","37","restless",0.7,0.7,0.3,0.66478837079176,"true"
"image-keyboard-response",66,127371,"0.0-3.18-1.18","v1o6t0jehsdv12w",251,"107.csv","","null","resources/maskTrios/L4BB.jpg","null","",NA,NA,NA,NA,""
"image-keyboard-response",67,128578,"0.0-3.18-2.18","v1o6t0jehsdv12w",251,"107.csv","","null","resources/images/coin2.png","null","",NA,NA,NA,NA,""
"image-keyboard-response",68,128992,"0.0-3.19-0.19","v1o6t0jehsdv12w",251,"107.csv","","412.1000000089407","resources/trios/L4T1A3.jpg","39","restless",0.7,0.7,0.2,0.175309512788097,"true"
"image-keyboard-response",69,129400,"0.0-3.19-1.19","v1o6t0jehsdv12w",251,"107.csv","","null","resources/maskTrios/BBA3.jpg","null","",NA,NA,NA,NA,""
"image-keyboard-response",70,130607,"0.0-3.19-2.19","v1o6t0jehsdv12w",251,"107.csv","","null","resources/images/coin2.png","null","",NA,NA,NA,NA,""
"image-keyboard-response",71,131266,"0.0-3.20-0.20","v1o6t0jehsdv12w",251,"107.csv","","656.6000000089407","resources/trios/L2T1A3.jpg","37","restless",0.7,0.6,0.2,0.947427138001907,"false"
"image-keyboard-response",72,131673,"0.0-3.20-1.20","v1o6t0jehsdv12w",251,"107.csv","","null","resources/maskTrios/L2BB.jpg","null","",NA,NA,NA,NA,""
"image-keyboard-response",73,132880,"0.0-3.20-2.20","v1o6t0jehsdv12w",251,"107.csv","","null","resources/images/fishbone.png","null","",NA,NA,NA,NA,""
"image-keyboard-response",74,133712,"0.0-3.21-0.21","v1o6t0jehsdv12w",251,"107.csv","","829.6999999880791","resources/trios/L4T1A3.jpg","39","restless",0.6,0.5,0.2,0.614837069139139,"false"
"image-keyboard-response",75,134117,"0.0-3.21-1.21","v1o6t0jehsdv12w",251,"107.csv","","null","resources/maskTrios/BBA3.jpg","null","",NA,NA,NA,NA,""
"image-keyboard-response",76,135323,"0.0-3.21-2.21","v1o6t0jehsdv12w",251,"107.csv","","null","resources/images/fishbone.png","null","",NA,NA,NA,NA,""
"image-keyboard-response",77,137099,"0.0-3.22-0.22","v1o6t0jehsdv12w",251,"107.csv","","1773.6000000089407","resources/trios/L4T1A3.jpg","38","restless",0.7,0.5,0.3,0.731260344655087,"false"
"image-keyboard-response",78,137506,"0.0-3.22-1.22","v1o6t0jehsdv12w",251,"107.csv","","null","resources/maskTrios/BT1B.jpg","null","",NA,NA,NA,NA,""
"image-keyboard-response",79,138712,"0.0-3.22-2.22","v1o6t0jehsdv12w",251,"107.csv","","null","resources/images/fishbone.png","null","",NA,NA,NA,NA,""
"image-keyboard-response",80,140540,"0.0-3.23-0.23","v1o6t0jehsdv12w",251,"107.csv","","1826.199999988079","resources/trios/L2T4A1.jpg","38","restless",0.7,0.5,0.3,0.368980080335231,"true"
"image-keyboard-response",81,140944,"0.0-3.23-1.23","v1o6t0jehsdv12w",251,"107.csv","","null","resources/maskTrios/BT4B.jpg","null","",NA,NA,NA,NA,""
"image-keyboard-response",82,142151,"0.0-3.23-2.23","v1o6t0jehsdv12w",251,"107.csv","","null","resources/images/coin2.png","null","",NA,NA,NA,NA,""
"image-keyboard-response",83,143428,"0.0-3.24-0.24","v1o6t0jehsdv12w",251,"107.csv","","1274.2999999970198","resources/trios/L4T4A3.jpg","38","restless",0.7,0.5,0.3,0.420513772810236,"true"
"image-keyboard-response",84,143835,"0.0-3.24-1.24","v1o6t0jehsdv12w",251,"107.csv","","null","resources/maskTrios/BT4B.jpg","null","",NA,NA,NA,NA,""
"image-keyboard-response",85,145043,"0.0-3.24-2.24","v1o6t0jehsdv12w",251,"107.csv","","null","resources/images/coin2.png","null","",NA,NA,NA,NA,""
"image-keyboard-response",86,145941,"0.0-3.25-0.25","v1o6t0jehsdv12w",251,"107.csv","","896.5999999940395","resources/trios/L2T4A3.jpg","38","restless",0.7,0.5,0.3,0.796939866038874,"false"
"image-keyboard-response",87,146349,"0.0-3.25-1.25","v1o6t0jehsdv12w",251,"107.csv","","null","resources/maskTrios/BT4B.jpg","null","",NA,NA,NA,NA,""
"image-keyboard-response",88,147556,"0.0-3.25-2.25","v1o6t0jehsdv12w",251,"107.csv","","null","resources/images/fishbone.png","null","",NA,NA,NA,NA,""
"image-keyboard-response",89,148533,"0.0-3.26-0.26","v1o6t0jehsdv12w",251,"107.csv","","975.0999999940395","resources/trios/L4T1A3.jpg","39","restless",0.7,0.5,0.3,0.38652442618525,"false"
"image-keyboard-response",90,148941,"0.0-3.26-1.26","v1o6t0jehsdv12w",251,"107.csv","","null","resources/maskTrios/BBA3.jpg","null","",NA,NA,NA,NA,""
"image-keyboard-response",91,150148,"0.0-3.26-2.26","v1o6t0jehsdv12w",251,"107.csv","","null","resources/images/fishbone.png","null","",NA,NA,NA,NA,""
"image-keyboard-response",92,150844,"0.0-3.27-0.27","v1o6t0jehsdv12w",251,"107.csv","","694.2999999970198","resources/trios/L4T4A1.jpg","37","restless",0.7,0.5,0.3,0.346888318437609,"true"
"image-keyboard-response",93,151251,"0.0-3.27-1.27","v1o6t0jehsdv12w",251,"107.csv","","null","resources/maskTrios/L4BB.jpg","null","",NA,NA,NA,NA,""
"image-keyboard-response",94,152459,"0.0-3.27-2.27","v1o6t0jehsdv12w",251,"107.csv","","null","resources/images/coin2.png","null","",NA,NA,NA,NA,""
"image-keyboard-response",95,153494,"0.0-3.28-0.28","v1o6t0jehsdv12w",251,"107.csv","","1033","resources/trios/L4T4A1.jpg","39","restless",0.7,0.5,0.4,0.721157289116933,"false"
"image-keyboard-response",96,153899,"0.0-3.28-1.28","v1o6t0jehsdv12w",251,"107.csv","","null","resources/maskTrios/BBA1.jpg","null","",NA,NA,NA,NA,""
"image-keyboard-response",97,155106,"0.0-3.28-2.28","v1o6t0jehsdv12w",251,"107.csv","","null","resources/images/fishbone.png","null","",NA,NA,NA,NA,""
"image-keyboard-response",98,156045,"0.0-3.29-0.29","v1o6t0jehsdv12w",251,"107.csv","","936.7000000029802","resources/trios/L2T1A3.jpg","38","restless",0.7,0.5,0.4,0.00196295341398378,"true"
"image-keyboard-response",99,156451,"0.0-3.29-1.29","v1o6t0jehsdv12w",251,"107.csv","","null","resources/maskTrios/BT1B.jpg","null","",NA,NA,NA,NA,""
"image-keyboard-response",100,157658,"0.0-3.29-2.29","v1o6t0jehsdv12w",251,"107.csv","","null","resources/images/coin2.png","null","",NA,NA,NA,NA,""
"image-keyboard-response",101,159504,"0.0-3.30-0.30","v1o6t0jehsdv12w",251,"107.csv","","1843.2999999970198","resources/trios/L2T1A1.jpg","38","restless",0.7,0.4,0.4,0.123721478528087,"true"
"image-keyboard-response",102,159911,"0.0-3.30-1.30","v1o6t0jehsdv12w",251,"107.csv","","null","resources/maskTrios/BT1B.jpg","null","",NA,NA,NA,NA,""
"image-keyboard-response",103,161118,"0.0-3.30-2.30","v1o6t0jehsdv12w",251,"107.csv","","null","resources/images/coin2.png","null","",NA,NA,NA,NA,""
"image-keyboard-response",104,162927,"0.0-3.31-0.31","v1o6t0jehsdv12w",251,"107.csv","","1807","resources/trios/L2T4A3.jpg","38","restless",0.7,0.4,0.4,0.833757556449501,"false"
"image-keyboard-response",105,163331,"0.0-3.31-1.31","v1o6t0jehsdv12w",251,"107.csv","","null","resources/maskTrios/BT4B.jpg","null","",NA,NA,NA,NA,""
"image-keyboard-response",106,164538,"0.0-3.31-2.31","v1o6t0jehsdv12w",251,"107.csv","","null","resources/images/fishbone.png","null","",NA,NA,NA,NA,""
"image-keyboard-response",107,165807,"0.0-3.32-0.32","v1o6t0jehsdv12w",251,"107.csv","","1267","resources/trios/L2T4A1.jpg","38","restless",0.7,0.4,0.4,0.0471493477645666,"true"
"image-keyboard-response",108,166214,"0.0-3.32-1.32","v1o6t0jehsdv12w",251,"107.csv","","null","resources/maskTrios/BT4B.jpg","null","",NA,NA,NA,NA,""
"image-keyboard-response",109,167422,"0.0-3.32-2.32","v1o6t0jehsdv12w",251,"107.csv","","null","resources/images/coin2.png","null","",NA,NA,NA,NA,""
"image-keyboard-response",110,167809,"0.0-3.33-0.33","v1o6t0jehsdv12w",251,"107.csv","","384.80000001192093","resources/trios/L2T4A3.jpg","38","restless",0.7,0.4,0.4,0.638433243794813,"false"
"image-keyboard-response",111,168216,"0.0-3.33-1.33","v1o6t0jehsdv12w",251,"107.csv","","null","resources/maskTrios/BT4B.jpg","null","",NA,NA,NA,NA,""
"image-keyboard-response",112,169423,"0.0-3.33-2.33","v1o6t0jehsdv12w",251,"107.csv","","null","resources/images/fishbone.png","null","",NA,NA,NA,NA,""
"image-keyboard-response",113,169937,"0.0-3.34-0.34","v1o6t0jehsdv12w",251,"107.csv","","511.29999999701977","resources/trios/L4T4A3.jpg","37","restless",0.7,0.4,0.4,0.355392098381482,"true"
"image-keyboard-response",114,170344,"0.0-3.34-1.34","v1o6t0jehsdv12w",251,"107.csv","","null","resources/maskTrios/L4BB.jpg","null","",NA,NA,NA,NA,""
"image-keyboard-response",115,171552,"0.0-3.34-2.34","v1o6t0jehsdv12w",251,"107.csv","","null","resources/images/coin2.png","null","",NA,NA,NA,NA,""
"image-keyboard-response",116,173042,"0.0-3.35-0.35","v1o6t0jehsdv12w",251,"107.csv","","1487.5","resources/trios/L4T1A1.jpg","38","restless",0.7,0.4,0.3,0.821613776445187,"false"
"image-keyboard-response",117,173449,"0.0-3.35-1.35","v1o6t0jehsdv12w",251,"107.csv","","null","resources/maskTrios/BT1B.jpg","null","",NA,NA,NA,NA,""
"image-keyboard-response",118,174656,"0.0-3.35-2.35","v1o6t0jehsdv12w",251,"107.csv","","null","resources/images/fishbone.png","null","",NA,NA,NA,NA,""
"image-keyboard-response",119,175290,"0.0-3.36-0.36","v1o6t0jehsdv12w",251,"107.csv","","632.2999999970198","resources/trios/L2T1A3.jpg","37","restless",0.7,0.4,0.2,0.596544691891423,"true"
"image-keyboard-response",120,175697,"0.0-3.36-1.36","v1o6t0jehsdv12w",251,"107.csv","","null","resources/maskTrios/L2BB.jpg","null","",NA,NA,NA,NA,""
"image-keyboard-response",121,176899,"0.0-3.36-2.36","v1o6t0jehsdv12w",251,"107.csv","","null","resources/images/coin2.png","null","",NA,NA,NA,NA,""
"image-keyboard-response",122,177903,"0.0-3.37-0.37","v1o6t0jehsdv12w",251,"107.csv","","1001.9000000059605","resources/trios/L2T1A3.jpg","37","restless",0.7,0.4,0.2,0.990066612811257,"false"
"image-keyboard-response",123,178306,"0.0-3.37-1.37","v1o6t0jehsdv12w",251,"107.csv","","null","resources/maskTrios/L2BB.jpg","null","",NA,NA,NA,NA,""
"image-keyboard-response",124,179510,"0.0-3.37-2.37","v1o6t0jehsdv12w",251,"107.csv","","null","resources/images/fishbone.png","null","",NA,NA,NA,NA,""
"image-keyboard-response",125,180174,"0.0-3.38-0.38","v1o6t0jehsdv12w",251,"107.csv","","661.6999999880791","resources/trios/L4T1A3.jpg","38","restless",0.7,0.4,0.3,0.988108079703498,"false"
"image-keyboard-response",126,180581,"0.0-3.38-1.38","v1o6t0jehsdv12w",251,"107.csv","","null","resources/maskTrios/BT1B.jpg","null","",NA,NA,NA,NA,""
"image-keyboard-response",127,181785,"0.0-3.38-2.38","v1o6t0jehsdv12w",251,"107.csv","","null","resources/images/fishbone.png","null","",NA,NA,NA,NA,""
"image-keyboard-response",128,182265,"0.0-3.39-0.39","v1o6t0jehsdv12w",251,"107.csv","","478.5","resources/trios/L4T1A1.jpg","39","restless",0.7,0.4,0.3,0.651831167859535,"false"
"image-keyboard-response",129,182673,"0.0-3.39-1.39","v1o6t0jehsdv12w",251,"107.csv","","null","resources/maskTrios/BBA1.jpg","null","",NA,NA,NA,NA,""
"image-keyboard-response",130,183879,"0.0-3.39-2.39","v1o6t0jehsdv12w",251,"107.csv","","null","resources/images/fishbone.png","null","",NA,NA,NA,NA,""
"image-keyboard-response",131,184230,"0.0-3.40-0.40","v1o6t0jehsdv12w",251,"107.csv","","348.5","resources/trios/L4T1A3.jpg","38","restless",0.7,0.4,0.3,0.25060983640936,"true"
"image-keyboard-response",132,184637,"0.0-3.40-1.40","v1o6t0jehsdv12w",251,"107.csv","","null","resources/maskTrios/BT1B.jpg","null","",NA,NA,NA,NA,""
"image-keyboard-response",133,185844,"0.0-3.40-2.40","v1o6t0jehsdv12w",251,"107.csv","","null","resources/images/coin2.png","null","",NA,NA,NA,NA,""
"image-keyboard-response",134,186618,"0.0-3.41-0.41","v1o6t0jehsdv12w",251,"107.csv","","771.1000000089407","resources/trios/L2T4A1.jpg","37","restless",0.6,0.4,0.3,0.369209965316781,"true"
"image-keyboard-response",135,187025,"0.0-3.41-1.41","v1o6t0jehsdv12w",251,"107.csv","","null","resources/maskTrios/L2BB.jpg","null","",NA,NA,NA,NA,""
"image-keyboard-response",136,188232,"0.0-3.41-2.41","v1o6t0jehsdv12w",251,"107.csv","","null","resources/images/coin2.png","null","",NA,NA,NA,NA,""
"image-keyboard-response",137,188670,"0.0-3.42-0.42","v1o6t0jehsdv12w",251,"107.csv","","435.5","resources/trios/L2T1A3.jpg","38","restless",0.6,0.4,0.3,0.0977850615844378,"true"
"image-keyboard-response",138,189077,"0.0-3.42-1.42","v1o6t0jehsdv12w",251,"107.csv","","null","resources/maskTrios/BT1B.jpg","null","",NA,NA,NA,NA,""
"image-keyboard-response",139,190284,"0.0-3.42-2.42","v1o6t0jehsdv12w",251,"107.csv","","null","resources/images/coin2.png","null","",NA,NA,NA,NA,""
"image-keyboard-response",140,190678,"0.0-3.43-0.43","v1o6t0jehsdv12w",251,"107.csv","","391.6000000089407","resources/trios/L2T4A3.jpg","37","restless",0.6,0.4,0.3,0.849931520246891,"false"
"image-keyboard-response",141,191083,"0.0-3.43-1.43","v1o6t0jehsdv12w",251,"107.csv","","null","resources/maskTrios/L2BB.jpg","null","",NA,NA,NA,NA,""
"image-keyboard-response",142,192291,"0.0-3.43-2.43","v1o6t0jehsdv12w",251,"107.csv","","null","resources/images/fishbone.png","null","",NA,NA,NA,NA,""
"image-keyboard-response",143,192710,"0.0-3.44-0.44","v1o6t0jehsdv12w",251,"107.csv","","417.59999999403954","resources/trios/L2T1A3.jpg","38","restless",0.6,0.4,0.3,0.491445111209911,"false"
"image-keyboard-response",144,193117,"0.0-3.44-1.44","v1o6t0jehsdv12w",251,"107.csv","","null","resources/maskTrios/BT1B.jpg","null","",NA,NA,NA,NA,""
"image-keyboard-response",145,194321,"0.0-3.44-2.44","v1o6t0jehsdv12w",251,"107.csv","","null","resources/images/fishbone.png","null","",NA,NA,NA,NA,""
"image-keyboard-response",146,195176,"0.0-3.45-0.45","v1o6t0jehsdv12w",251,"107.csv","","853.1000000089407","resources/trios/L4T4A1.jpg","38","restless",0.6,0.4,0.3,0.544155581687556,"false"
"image-keyboard-response",147,195583,"0.0-3.45-1.45","v1o6t0jehsdv12w",251,"107.csv","","null","resources/maskTrios/BT4B.jpg","null","",NA,NA,NA,NA,""
"image-keyboard-response",148,196790,"0.0-3.45-2.45","v1o6t0jehsdv12w",251,"107.csv","","null","resources/images/fishbone.png","null","",NA,NA,NA,NA,""
"image-keyboard-response",149,197293,"0.0-3.46-0.46","v1o6t0jehsdv12w",251,"107.csv","","500.20000000298023","resources/trios/L4T4A1.jpg","37","restless",0.6,0.4,0.3,0.14859838334446,"true"
"image-keyboard-response",150,197700,"0.0-3.46-1.46","v1o6t0jehsdv12w",251,"107.csv","","null","resources/maskTrios/L4BB.jpg","null","",NA,NA,NA,NA,""
"image-keyboard-response",151,198907,"0.0-3.46-2.46","v1o6t0jehsdv12w",251,"107.csv","","null","resources/images/coin2.png","null","",NA,NA,NA,NA,""
"image-keyboard-response",152,199344,"0.0-3.47-0.47","v1o6t0jehsdv12w",251,"107.csv","","435.3999999910593","resources/trios/L2T1A3.jpg","39","restless",0.6,0.4,0.3,0.446438380737714,"false"
"image-keyboard-response",153,199751,"0.0-3.47-1.47","v1o6t0jehsdv12w",251,"107.csv","","null","resources/maskTrios/BBA3.jpg","null","",NA,NA,NA,NA,""
"image-keyboard-response",154,200958,"0.0-3.47-2.47","v1o6t0jehsdv12w",251,"107.csv","","null","resources/images/fishbone.png","null","",NA,NA,NA,NA,""
"image-keyboard-response",155,201860,"0.0-3.48-0.48","v1o6t0jehsdv12w",251,"107.csv","","899.2999999970198","resources/trios/L2T1A3.jpg","38","restless",0.7,0.4,0.3,0.425593229945344,"false"
"image-keyboard-response",156,202267,"0.0-3.48-1.48","v1o6t0jehsdv12w",251,"107.csv","","null","resources/maskTrios/BT1B.jpg","null","",NA,NA,NA,NA,""
"image-keyboard-response",157,203474,"0.0-3.48-2.48","v1o6t0jehsdv12w",251,"107.csv","","null","resources/images/fishbone.png","null","",NA,NA,NA,NA,""
"image-keyboard-response",158,203908,"0.0-3.49-0.49","v1o6t0jehsdv12w",251,"107.csv","","431.5","resources/trios/L4T4A1.jpg","37","restless",0.7,0.4,0.3,0.345889695477725,"true"
"image-keyboard-response",159,204315,"0.0-3.49-1.49","v1o6t0jehsdv12w",251,"107.csv","","null","resources/maskTrios/L4BB.jpg","null","",NA,NA,NA,NA,""
"image-keyboard-response",160,205518,"0.0-3.49-2.49","v1o6t0jehsdv12w",251,"107.csv","","null","resources/images/coin2.png","null","",NA,NA,NA,NA,""
"image-keyboard-response",161,205882,"0.0-3.50-0.50","v1o6t0jehsdv12w",251,"107.csv","","362.40000000596046","resources/trios/L4T4A3.jpg","37","restless",0.7,0.4,0.3,0.505040382782141,"true"
"image-keyboard-response",162,206290,"0.0-3.50-1.50","v1o6t0jehsdv12w",251,"107.csv","","null","resources/maskTrios/L4BB.jpg","null","",NA,NA,NA,NA,""
"image-keyboard-response",163,207495,"0.0-3.50-2.50","v1o6t0jehsdv12w",251,"107.csv","","null","resources/images/coin2.png","null","",NA,NA,NA,NA,""
"image-keyboard-response",164,208153,"0.0-3.51-0.51","v1o6t0jehsdv12w",251,"107.csv","","655.7999999970198","resources/trios/L4T4A1.jpg","37","restless",0.7,0.5,0.3,0.447839838480555,"true"
"image-keyboard-response",165,208556,"0.0-3.51-1.51","v1o6t0jehsdv12w",251,"107.csv","","null","resources/maskTrios/L4BB.jpg","null","",NA,NA,NA,NA,""
"image-keyboard-response",166,209758,"0.0-3.51-2.51","v1o6t0jehsdv12w",251,"107.csv","","null","resources/images/coin2.png","null","",NA,NA,NA,NA,""
"image-keyboard-response",167,210344,"0.0-3.52-0.52","v1o6t0jehsdv12w",251,"107.csv","","584.0999999940395","resources/trios/L2T4A3.jpg","37","restless",0.7,0.5,0.4,0.797282968491889,"false"
"image-keyboard-response",168,210751,"0.0-3.52-1.52","v1o6t0jehsdv12w",251,"107.csv","","null","resources/maskTrios/L2BB.jpg","null","",NA,NA,NA,NA,""
"image-keyboard-response",169,211958,"0.0-3.52-2.52","v1o6t0jehsdv12w",251,"107.csv","","null","resources/images/fishbone.png","null","",NA,NA,NA,NA,""
"image-keyboard-response",170,212239,"0.0-3.53-0.53","v1o6t0jehsdv12w",251,"107.csv","","279.20000000298023","resources/trios/L2T1A1.jpg","38","restless",0.7,0.5,0.4,0.466891923745716,"true"
"image-keyboard-response",171,212645,"0.0-3.53-1.53","v1o6t0jehsdv12w",251,"107.csv","","null","resources/maskTrios/BT1B.jpg","null","",NA,NA,NA,NA,""
"image-keyboard-response",172,213852,"0.0-3.53-2.53","v1o6t0jehsdv12w",251,"107.csv","","null","resources/images/coin2.png","null","",NA,NA,NA,NA,""
"image-keyboard-response",173,214168,"0.0-3.54-0.54","v1o6t0jehsdv12w",251,"107.csv","","314.09999999403954","resources/trios/L4T1A1.jpg","38","restless",0.7,0.5,0.4,0.385265515616379,"true"
"image-keyboard-response",174,214573,"0.0-3.54-1.54","v1o6t0jehsdv12w",251,"107.csv","","null","resources/maskTrios/BT1B.jpg","null","",NA,NA,NA,NA,""
"image-keyboard-response",175,215779,"0.0-3.54-2.54","v1o6t0jehsdv12w",251,"107.csv","","null","resources/images/coin2.png","null","",NA,NA,NA,NA,""
"image-keyboard-response",176,216142,"0.0-3.55-0.55","v1o6t0jehsdv12w",251,"107.csv","","361.29999999701977","resources/trios/L2T1A3.jpg","38","restless",0.7,0.5,0.4,0.0415374880764674,"true"
"image-keyboard-response",177,216549,"0.0-3.55-1.55","v1o6t0jehsdv12w",251,"107.csv","","null","resources/maskTrios/BT1B.jpg","null","",NA,NA,NA,NA,""
"image-keyboard-response",178,217756,"0.0-3.55-2.55","v1o6t0jehsdv12w",251,"107.csv","","null","resources/images/coin2.png","null","",NA,NA,NA,NA,""
"image-keyboard-response",179,218049,"0.0-3.56-0.56","v1o6t0jehsdv12w",251,"107.csv","","290.29999999701977","resources/trios/L4T1A3.jpg","39","restless",0.7,0.5,0.4,0.216911013032811,"true"
"image-keyboard-response",180,218455,"0.0-3.56-1.56","v1o6t0jehsdv12w",251,"107.csv","","null","resources/maskTrios/BBA3.jpg","null","",NA,NA,NA,NA,""
"image-keyboard-response",181,219662,"0.0-3.56-2.56","v1o6t0jehsdv12w",251,"107.csv","","null","resources/images/coin2.png","null","",NA,NA,NA,NA,""
"image-keyboard-response",182,220055,"0.0-3.57-0.57","v1o6t0jehsdv12w",251,"107.csv","","390.90000000596046","resources/trios/L2T1A1.jpg","39","restless",0.7,0.5,0.4,0.806700959037028,"false"
"image-keyboard-response",183,220459,"0.0-3.57-1.57","v1o6t0jehsdv12w",251,"107.csv","","null","resources/maskTrios/BBA1.jpg","null","",NA,NA,NA,NA,""
"image-keyboard-response",184,221663,"0.0-3.57-2.57","v1o6t0jehsdv12w",251,"107.csv","","null","resources/images/fishbone.png","null","",NA,NA,NA,NA,""
"image-keyboard-response",185,222074,"0.0-3.58-0.58","v1o6t0jehsdv12w",251,"107.csv","","408.20000000298023","resources/trios/L2T1A3.jpg","37","restless",0.7,0.5,0.4,0.740723685616694,"false"
"image-keyboard-response",186,222481,"0.0-3.58-1.58","v1o6t0jehsdv12w",251,"107.csv","","null","resources/maskTrios/L2BB.jpg","null","",NA,NA,NA,NA,""
"image-keyboard-response",187,223684,"0.0-3.58-2.58","v1o6t0jehsdv12w",251,"107.csv","","null","resources/images/fishbone.png","null","",NA,NA,NA,NA,""
"image-keyboard-response",188,223985,"0.0-3.59-0.59","v1o6t0jehsdv12w",251,"107.csv","","299","resources/trios/L4T4A3.jpg","38","restless",0.7,0.5,0.4,0.099735943953863,"true"
"image-keyboard-response",189,224392,"0.0-3.59-1.59","v1o6t0jehsdv12w",251,"107.csv","","null","resources/maskTrios/BT4B.jpg","null","",NA,NA,NA,NA,""
"image-keyboard-response",190,225599,"0.0-3.59-2.59","v1o6t0jehsdv12w",251,"107.csv","","null","resources/images/coin2.png","null","",NA,NA,NA,NA,""
"image-keyboard-response",191,225997,"0.0-3.60-0.60","v1o6t0jehsdv12w",251,"107.csv","","395.59999999403954","resources/trios/L2T1A3.jpg","38","restless",0.7,0.5,0.4,0.618853957163038,"false"
"image-keyboard-response",192,226404,"0.0-3.60-1.60","v1o6t0jehsdv12w",251,"107.csv","","null","resources/maskTrios/BT1B.jpg","null","",NA,NA,NA,NA,""
"image-keyboard-response",193,227609,"0.0-3.60-2.60","v1o6t0jehsdv12w",251,"107.csv","","null","resources/images/fishbone.png","null","",NA,NA,NA,NA,""
"image-keyboard-response",194,228141,"0.0-3.61-0.61","v1o6t0jehsdv12w",251,"107.csv","","529.8999999910593","resources/trios/L2T1A1.jpg","39","restless",0.6,0.5,0.4,0.890580845084756,"false"
"image-keyboard-response",195,228548,"0.0-3.61-1.61","v1o6t0jehsdv12w",251,"107.csv","","null","resources/maskTrios/BBA1.jpg","null","",NA,NA,NA,NA,""
"image-keyboard-response",196,229755,"0.0-3.61-2.61","v1o6t0jehsdv12w",251,"107.csv","","null","resources/images/fishbone.png","null","",NA,NA,NA,NA,""
"image-keyboard-response",197,230110,"0.0-3.62-0.62","v1o6t0jehsdv12w",251,"107.csv","","352.90000000596046","resources/trios/L2T4A1.jpg","37","restless",0.6,0.5,0.4,0.987410146055297,"false"
"image-keyboard-response",198,230517,"0.0-3.62-1.62","v1o6t0jehsdv12w",251,"107.csv","","null","resources/maskTrios/L2BB.jpg","null","",NA,NA,NA,NA,""
"image-keyboard-response",199,231724,"0.0-3.62-2.62","v1o6t0jehsdv12w",251,"107.csv","","null","resources/images/fishbone.png","null","",NA,NA,NA,NA,""
"image-keyboard-response",200,232251,"0.0-3.63-0.63","v1o6t0jehsdv12w",251,"107.csv","","524.6000000089407","resources/trios/L2T4A1.jpg","38","restless",0.6,0.5,0.4,0.469435830972583,"true"
"image-keyboard-response",201,232657,"0.0-3.63-1.63","v1o6t0jehsdv12w",251,"107.csv","","null","resources/maskTrios/BT4B.jpg","null","",NA,NA,NA,NA,""
"image-keyboard-response",202,233864,"0.0-3.63-2.63","v1o6t0jehsdv12w",251,"107.csv","","null","resources/images/coin2.png","null","",NA,NA,NA,NA,""
"image-keyboard-response",203,234231,"0.0-3.64-0.64","v1o6t0jehsdv12w",251,"107.csv","","365.20000000298023","resources/trios/L2T1A3.jpg","38","restless",0.6,0.5,0.4,0.0790760140151472,"true"
"image-keyboard-response",204,234637,"0.0-3.64-1.64","v1o6t0jehsdv12w",251,"107.csv","","null","resources/maskTrios/BT1B.jpg","null","",NA,NA,NA,NA,""
"image-keyboard-response",205,235844,"0.0-3.64-2.64","v1o6t0jehsdv12w",251,"107.csv","","null","resources/images/coin2.png","null","",NA,NA,NA,NA,""
"image-keyboard-response",206,236160,"0.0-3.65-0.65","v1o6t0jehsdv12w",251,"107.csv","","313.80000001192093","resources/trios/L2T1A3.jpg","38","restless",0.6,0.5,0.4,0.356588790708638,"true"
"image-keyboard-response",207,236567,"0.0-3.65-1.65","v1o6t0jehsdv12w",251,"107.csv","","null","resources/maskTrios/BT1B.jpg","null","",NA,NA,NA,NA,""
"image-keyboard-response",208,237771,"0.0-3.65-2.65","v1o6t0jehsdv12w",251,"107.csv","","null","resources/images/coin2.png","null","",NA,NA,NA,NA,""
"image-keyboard-response",209,238233,"0.0-3.66-0.66","v1o6t0jehsdv12w",251,"107.csv","","460.09999999403954","resources/trios/L4T1A1.jpg","39","restless",0.6,0.5,0.5,0.622826064714223,"false"
"image-keyboard-response",210,238640,"0.0-3.66-1.66","v1o6t0jehsdv12w",251,"107.csv","","null","resources/maskTrios/BBA1.jpg","null","",NA,NA,NA,NA,""
"image-keyboard-response",211,239847,"0.0-3.66-2.66","v1o6t0jehsdv12w",251,"107.csv","","null","resources/images/fishbone.png","null","",NA,NA,NA,NA,""
"image-keyboard-response",212,240564,"0.0-3.67-0.67","v1o6t0jehsdv12w",251,"107.csv","","714.7000000029802","resources/trios/L4T1A3.jpg","38","restless",0.6,0.5,0.5,0.494579748831865,"true"
"image-keyboard-response",213,240967,"0.0-3.67-1.67","v1o6t0jehsdv12w",251,"107.csv","","null","resources/maskTrios/BT1B.jpg","null","",NA,NA,NA,NA,""
"image-keyboard-response",214,242174,"0.0-3.67-2.67","v1o6t0jehsdv12w",251,"107.csv","","null","resources/images/coin2.png","null","",NA,NA,NA,NA,""
"image-keyboard-response",215,243281,"0.0-3.68-0.68","v1o6t0jehsdv12w",251,"107.csv","","1104.7999999970198","resources/trios/L4T4A3.jpg","38","restless",0.6,0.5,0.5,0.105135734420669,"true"
"image-keyboard-response",216,243688,"0.0-3.68-1.68","v1o6t0jehsdv12w",251,"107.csv","","null","resources/maskTrios/BT4B.jpg","null","",NA,NA,NA,NA,""
"image-keyboard-response",217,244895,"0.0-3.68-2.68","v1o6t0jehsdv12w",251,"107.csv","","null","resources/images/coin2.png","null","",NA,NA,NA,NA,""
"image-keyboard-response",218,244931,"0.0-3.69-0.69","v1o6t0jehsdv12w",251,"107.csv","","33.3999999910593","resources/trios/L2T4A3.jpg","38","restless",0.6,0.5,0.5,0.170939051456257,"true"
"image-keyboard-response",219,245338,"0.0-3.69-1.69","v1o6t0jehsdv12w",251,"107.csv","","null","resources/maskTrios/BT4B.jpg","null","",NA,NA,NA,NA,""
"image-keyboard-response",220,246545,"0.0-3.69-2.69","v1o6t0jehsdv12w",251,"107.csv","","null","resources/images/coin2.png","null","",NA,NA,NA,NA,""
"image-keyboard-response",221,246870,"0.0-3.70-0.70","v1o6t0jehsdv12w",251,"107.csv","","322.8999999910593","resources/trios/L2T4A3.jpg","38","restless",0.6,0.5,0.5,0.0770772254940442,"true"
"image-keyboard-response",222,247278,"0.0-3.70-1.70","v1o6t0jehsdv12w",251,"107.csv","","null","resources/maskTrios/BT4B.jpg","null","",NA,NA,NA,NA,""
"image-keyboard-response",223,248485,"0.0-3.70-2.70","v1o6t0jehsdv12w",251,"107.csv","","null","resources/images/coin2.png","null","",NA,NA,NA,NA,""
"image-keyboard-response",224,248816,"0.0-3.71-0.71","v1o6t0jehsdv12w",251,"107.csv","","329","resources/trios/L2T1A3.jpg","38","restless",0.6,0.5,0.5,0.53351512853206,"false"
"image-keyboard-response",225,249223,"0.0-3.71-1.71","v1o6t0jehsdv12w",251,"107.csv","","null","resources/maskTrios/BT1B.jpg","null","",NA,NA,NA,NA,""
"image-keyboard-response",226,250430,"0.0-3.71-2.71","v1o6t0jehsdv12w",251,"107.csv","","null","resources/images/fishbone.png","null","",NA,NA,NA,NA,""
"image-keyboard-response",227,250769,"0.0-3.72-0.72","v1o6t0jehsdv12w",251,"107.csv","","336.5","resources/trios/L4T1A3.jpg","37","restless",0.6,0.5,0.5,0.932157900346549,"false"
"image-keyboard-response",228,251176,"0.0-3.72-1.72","v1o6t0jehsdv12w",251,"107.csv","","null","resources/maskTrios/L4BB.jpg","null","",NA,NA,NA,NA,""
"image-keyboard-response",229,252383,"0.0-3.72-2.72","v1o6t0jehsdv12w",251,"107.csv","","null","resources/images/fishbone.png","null","",NA,NA,NA,NA,""
"image-keyboard-response",230,253708,"0.0-3.73-0.73","v1o6t0jehsdv12w",251,"107.csv","","1323.199999988079","resources/trios/L4T4A1.jpg","39","restless",0.6,0.5,0.5,0.363440705651902,"true"
"image-keyboard-response",231,254111,"0.0-3.73-1.73","v1o6t0jehsdv12w",251,"107.csv","","null","resources/maskTrios/BBA1.jpg","null","",NA,NA,NA,NA,""
"image-keyboard-response",232,255318,"0.0-3.73-2.73","v1o6t0jehsdv12w",251,"107.csv","","null","resources/images/coin2.png","null","",NA,NA,NA,NA,""
"image-keyboard-response",233,256482,"0.0-3.74-0.74","v1o6t0jehsdv12w",251,"107.csv","","1162.1000000089407","resources/trios/L4T1A3.jpg","38","restless",0.6,0.5,0.5,0.74438627686311,"false"
"image-keyboard-response",234,256890,"0.0-3.74-1.74","v1o6t0jehsdv12w",251,"107.csv","","null","resources/maskTrios/BT1B.jpg","null","",NA,NA,NA,NA,""
"image-keyboard-response",235,258096,"0.0-3.74-2.74","v1o6t0jehsdv12w",251,"107.csv","","null","resources/images/fishbone.png","null","",NA,NA,NA,NA,""
"image-keyboard-response",236,258890,"0.0-3.75-0.75","v1o6t0jehsdv12w",251,"107.csv","","791.3999999910593","resources/trios/L4T4A1.jpg","37","restless",0.6,0.5,0.5,0.403951749618392,"true"
"image-keyboard-response",237,259297,"0.0-3.75-1.75","v1o6t0jehsdv12w",251,"107.csv","","null","resources/maskTrios/L4BB.jpg","null","",NA,NA,NA,NA,""
"image-keyboard-response",238,260504,"0.0-3.75-2.75","v1o6t0jehsdv12w",251,"107.csv","","null","resources/images/coin2.png","null","",NA,NA,NA,NA,""
"image-keyboard-response",239,262065,"0.0-3.76-0.76","v1o6t0jehsdv12w",251,"107.csv","","1558.6000000089407","resources/trios/L2T4A1.jpg","39","restless",0.6,0.5,0.5,0.427673780471955,"true"
"image-keyboard-response",240,262473,"0.0-3.76-1.76","v1o6t0jehsdv12w",251,"107.csv","","null","resources/maskTrios/BBA1.jpg","null","",NA,NA,NA,NA,""
"image-keyboard-response",241,263680,"0.0-3.76-2.76","v1o6t0jehsdv12w",251,"107.csv","","null","resources/images/coin2.png","null","",NA,NA,NA,NA,""
"image-keyboard-response",242,265265,"0.0-3.77-0.77","v1o6t0jehsdv12w",251,"107.csv","","1583.2999999970198","resources/trios/L2T4A1.jpg","38","restless",0.6,0.5,0.5,0.212891684211572,"true"
"image-keyboard-response",243,265673,"0.0-3.77-1.77","v1o6t0jehsdv12w",251,"107.csv","","null","resources/maskTrios/BT4B.jpg","null","",NA,NA,NA,NA,""
"image-keyboard-response",244,266880,"0.0-3.77-2.77","v1o6t0jehsdv12w",251,"107.csv","","null","resources/images/coin2.png","null","",NA,NA,NA,NA,""
"image-keyboard-response",245,267897,"0.0-3.78-0.78","v1o6t0jehsdv12w",251,"107.csv","","1015","resources/trios/L4T1A3.jpg","37","restless",0.6,0.5,0.5,0.656575660289298,"false"
"image-keyboard-response",246,268304,"0.0-3.78-1.78","v1o6t0jehsdv12w",251,"107.csv","","null","resources/maskTrios/L4BB.jpg","null","",NA,NA,NA,NA,""
"image-keyboard-response",247,269511,"0.0-3.78-2.78","v1o6t0jehsdv12w",251,"107.csv","","null","resources/images/fishbone.png","null","",NA,NA,NA,NA,""
"image-keyboard-response",248,271115,"0.0-3.79-0.79","v1o6t0jehsdv12w",251,"107.csv","","1602.5","resources/trios/L4T4A1.jpg","39","restless",0.6,0.5,0.5,0.866748845737127,"false"
"image-keyboard-response",249,271523,"0.0-3.79-1.79","v1o6t0jehsdv12w",251,"107.csv","","null","resources/maskTrios/BBA1.jpg","null","",NA,NA,NA,NA,""
"image-keyboard-response",250,272730,"0.0-3.79-2.79","v1o6t0jehsdv12w",251,"107.csv","","null","resources/images/fishbone.png","null","",NA,NA,NA,NA,""
"image-keyboard-response",251,273404,"0.0-3.80-0.80","v1o6t0jehsdv12w",251,"107.csv","","672.7000000029802","resources/trios/L4T4A3.jpg","38","restless",0.6,0.5,0.5,0.425920453034043,"true"
"image-keyboard-response",252,273812,"0.0-3.80-1.80","v1o6t0jehsdv12w",251,"107.csv","","null","resources/maskTrios/BT4B.jpg","null","",NA,NA,NA,NA,""
"image-keyboard-response",253,275015,"0.0-3.80-2.80","v1o6t0jehsdv12w",251,"107.csv","","null","resources/images/coin2.png","null","",NA,NA,NA,NA,""
"image-keyboard-response",254,276079,"0.0-3.81-0.81","v1o6t0jehsdv12w",251,"107.csv","","1061.3999999910593","resources/trios/L4T4A1.jpg","38","restless",0.6,0.5,0.5,0.195244834343892,"true"
"image-keyboard-response",255,276486,"0.0-3.81-1.81","v1o6t0jehsdv12w",251,"107.csv","","null","resources/maskTrios/BT4B.jpg","null","",NA,NA,NA,NA,""
"image-keyboard-response",256,277693,"0.0-3.81-2.81","v1o6t0jehsdv12w",251,"107.csv","","null","resources/images/coin2.png","null","",NA,NA,NA,NA,""
"image-keyboard-response",257,278940,"0.0-3.82-0.82","v1o6t0jehsdv12w",251,"107.csv","","1244.5999999940395","resources/trios/L4T1A1.jpg","39","restless",0.6,0.5,0.5,0.624358747778863,"false"
"image-keyboard-response",258,279345,"0.0-3.82-1.82","v1o6t0jehsdv12w",251,"107.csv","","null","resources/maskTrios/BBA1.jpg","null","",NA,NA,NA,NA,""
"image-keyboard-response",259,280551,"0.0-3.82-2.82","v1o6t0jehsdv12w",251,"107.csv","","null","resources/images/fishbone.png","null","",NA,NA,NA,NA,""
"image-keyboard-response",260,281399,"0.0-3.83-0.83","v1o6t0jehsdv12w",251,"107.csv","","844.8999999910593","resources/trios/L4T1A1.jpg","37","restless",0.6,0.5,0.5,0.893311145930752,"false"
"image-keyboard-response",261,281806,"0.0-3.83-1.83","v1o6t0jehsdv12w",251,"107.csv","","null","resources/maskTrios/L4BB.jpg","null","",NA,NA,NA,NA,""
"image-keyboard-response",262,283013,"0.0-3.83-2.83","v1o6t0jehsdv12w",251,"107.csv","","null","resources/images/fishbone.png","null","",NA,NA,NA,NA,""
"image-keyboard-response",263,283674,"0.0-3.84-0.84","v1o6t0jehsdv12w",251,"107.csv","","658.7000000029802","resources/trios/L4T4A1.jpg","38","restless",0.7,0.5,0.5,0.897810716119748,"false"
"image-keyboard-response",264,284076,"0.0-3.84-1.84","v1o6t0jehsdv12w",251,"107.csv","","null","resources/maskTrios/BT4B.jpg","null","",NA,NA,NA,NA,""
"image-keyboard-response",265,285283,"0.0-3.84-2.84","v1o6t0jehsdv12w",251,"107.csv","","null","resources/images/fishbone.png","null","",NA,NA,NA,NA,""
"image-keyboard-response",266,286776,"0.0-3.85-0.85","v1o6t0jehsdv12w",251,"107.csv","","1490.2999999970198","resources/trios/L2T1A1.jpg","37","restless",0.7,0.5,0.5,0.0728222217182428,"true"
"image-keyboard-response",267,287183,"0.0-3.85-1.85","v1o6t0jehsdv12w",251,"107.csv","","null","resources/maskTrios/L2BB.jpg","null","",NA,NA,NA,NA,""
"image-keyboard-response",268,288388,"0.0-3.85-2.85","v1o6t0jehsdv12w",251,"107.csv","","null","resources/images/coin2.png","null","",NA,NA,NA,NA,""
"image-keyboard-response",269,289505,"0.0-3.86-0.86","v1o6t0jehsdv12w",251,"107.csv","","1115","resources/trios/L4T1A1.jpg","38","restless",0.7,0.5,0.5,0.600674855427334,"false"
"image-keyboard-response",270,289913,"0.0-3.86-1.86","v1o6t0jehsdv12w",251,"107.csv","","null","resources/maskTrios/BT1B.jpg","null","",NA,NA,NA,NA,""
"image-keyboard-response",271,291120,"0.0-3.86-2.86","v1o6t0jehsdv12w",251,"107.csv","","null","resources/images/fishbone.png","null","",NA,NA,NA,NA,""
"image-keyboard-response",272,291826,"0.0-3.87-0.87","v1o6t0jehsdv12w",251,"107.csv","","704.5","resources/trios/L4T1A3.jpg","37","restless",0.7,0.5,0.5,0.429301701814548,"true"
"image-keyboard-response",273,292234,"0.0-3.87-1.87","v1o6t0jehsdv12w",251,"107.csv","","null","resources/maskTrios/L4BB.jpg","null","",NA,NA,NA,NA,""
"image-keyboard-response",274,293441,"0.0-3.87-2.87","v1o6t0jehsdv12w",251,"107.csv","","null","resources/images/coin2.png","null","",NA,NA,NA,NA,""
"image-keyboard-response",275,293838,"0.0-3.88-0.88","v1o6t0jehsdv12w",251,"107.csv","","395","resources/trios/L4T4A3.jpg","37","restless",0.7,0.5,0.5,0.202576786651107,"true"
"image-keyboard-response",276,294246,"0.0-3.88-1.88","v1o6t0jehsdv12w",251,"107.csv","","null","resources/maskTrios/L4BB.jpg","null","",NA,NA,NA,NA,""
"image-keyboard-response",277,295453,"0.0-3.88-2.88","v1o6t0jehsdv12w",251,"107.csv","","null","resources/images/coin2.png","null","",NA,NA,NA,NA,""
"image-keyboard-response",278,296544,"0.0-3.89-0.89","v1o6t0jehsdv12w",251,"107.csv","","1089.2999999970198","resources/trios/L2T4A1.jpg","37","restless",0.7,0.5,0.5,0.780130301364838,"false"
"image-keyboard-response",279,296951,"0.0-3.89-1.89","v1o6t0jehsdv12w",251,"107.csv","","null","resources/maskTrios/L2BB.jpg","null","",NA,NA,NA,NA,""
"image-keyboard-response",280,298158,"0.0-3.89-2.89","v1o6t0jehsdv12w",251,"107.csv","","null","resources/images/fishbone.png","null","",NA,NA,NA,NA,""
"image-keyboard-response",281,298502,"0.0-3.90-0.90","v1o6t0jehsdv12w",251,"107.csv","","341.59999999403954","resources/trios/L4T4A3.jpg","38","restless",0.7,0.6,0.5,0.244431722575964,"true"
"image-keyboard-response",282,298909,"0.0-3.90-1.90","v1o6t0jehsdv12w",251,"107.csv","","null","resources/maskTrios/BT4B.jpg","null","",NA,NA,NA,NA,""
"image-keyboard-response",283,300116,"0.0-3.90-2.90","v1o6t0jehsdv12w",251,"107.csv","","null","resources/images/coin2.png","null","",NA,NA,NA,NA,""
"image-keyboard-response",284,301058,"0.0-3.91-0.91","v1o6t0jehsdv12w",251,"107.csv","","939.5999999940395","resources/trios/L2T1A1.jpg","39","restless",0.7,0.6,0.5,0.722595857652187,"false"
"image-keyboard-response",285,301465,"0.0-3.91-1.91","v1o6t0jehsdv12w",251,"107.csv","","null","resources/maskTrios/BBA1.jpg","null","",NA,NA,NA,NA,""
"image-keyboard-response",286,302672,"0.0-3.91-2.91","v1o6t0jehsdv12w",251,"107.csv","","null","resources/images/fishbone.png","null","",NA,NA,NA,NA,""
"image-keyboard-response",287,303070,"0.0-3.92-0.92","v1o6t0jehsdv12w",251,"107.csv","","395.40000000596046","resources/trios/L4T4A3.jpg","38","restless",0.7,0.6,0.5,0.3107051716982,"true"
"image-keyboard-response",288,303477,"0.0-3.92-1.92","v1o6t0jehsdv12w",251,"107.csv","","null","resources/maskTrios/BT4B.jpg","null","",NA,NA,NA,NA,""
"image-keyboard-response",289,304683,"0.0-3.92-2.92","v1o6t0jehsdv12w",251,"107.csv","","null","resources/images/coin2.png","null","",NA,NA,NA,NA,""
"image-keyboard-response",290,305371,"0.0-3.93-0.93","v1o6t0jehsdv12w",251,"107.csv","","685.7000000029802","resources/trios/L2T4A1.jpg","38","restless",0.7,0.7,0.5,0.562633209506263,"true"
"image-keyboard-response",291,305779,"0.0-3.93-1.93","v1o6t0jehsdv12w",251,"107.csv","","null","resources/maskTrios/BT4B.jpg","null","",NA,NA,NA,NA,""
"image-keyboard-response",292,306985,"0.0-3.93-2.93","v1o6t0jehsdv12w",251,"107.csv","","null","resources/images/coin2.png","null","",NA,NA,NA,NA,""
"image-keyboard-response",293,308684,"0.0-3.94-0.94","v1o6t0jehsdv12w",251,"107.csv","","1697.4000000059605","resources/trios/L2T1A3.jpg","37","restless",0.7,0.8,0.5,0.780022692445452,"false"
"image-keyboard-response",294,309089,"0.0-3.94-1.94","v1o6t0jehsdv12w",251,"107.csv","","null","resources/maskTrios/L2BB.jpg","null","",NA,NA,NA,NA,""
"image-keyboard-response",295,310296,"0.0-3.94-2.94","v1o6t0jehsdv12w",251,"107.csv","","null","resources/images/fishbone.png","null","",NA,NA,NA,NA,""
"image-keyboard-response",296,311031,"0.0-3.95-0.95","v1o6t0jehsdv12w",251,"107.csv","","733.4000000059605","resources/trios/L4T4A1.jpg","38","restless",0.7,0.8,0.5,0.211459017590989,"true"
"image-keyboard-response",297,311439,"0.0-3.95-1.95","v1o6t0jehsdv12w",251,"107.csv","","null","resources/maskTrios/BT4B.jpg","null","",NA,NA,NA,NA,""
"image-keyboard-response",298,312646,"0.0-3.95-2.95","v1o6t0jehsdv12w",251,"107.csv","","null","resources/images/coin2.png","null","",NA,NA,NA,NA,""
"image-keyboard-response",299,313001,"0.0-3.96-0.96","v1o6t0jehsdv12w",251,"107.csv","","352.6000000089407","resources/trios/L2T4A1.jpg","38","restless",0.7,0.9,0.5,0.259250856830629,"true"
"image-keyboard-response",300,313403,"0.0-3.96-1.96","v1o6t0jehsdv12w",251,"107.csv","","null","resources/maskTrios/BT4B.jpg","null","",NA,NA,NA,NA,""
"image-keyboard-response",301,314610,"0.0-3.96-2.96","v1o6t0jehsdv12w",251,"107.csv","","null","resources/images/coin2.png","null","",NA,NA,NA,NA,""
"image-keyboard-response",302,315652,"0.0-3.97-0.97","v1o6t0jehsdv12w",251,"107.csv","","1039","resources/trios/L4T4A3.jpg","38","restless",0.7,0.9,0.5,0.0655078129985198,"true"
"image-keyboard-response",303,316058,"0.0-3.97-1.97","v1o6t0jehsdv12w",251,"107.csv","","null","resources/maskTrios/BT4B.jpg","null","",NA,NA,NA,NA,""
"image-keyboard-response",304,317265,"0.0-3.97-2.97","v1o6t0jehsdv12w",251,"107.csv","","null","resources/images/coin2.png","null","",NA,NA,NA,NA,""
"image-keyboard-response",305,318720,"0.0-3.98-0.98","v1o6t0jehsdv12w",251,"107.csv","","1452.6000000089407","resources/trios/L4T1A1.jpg","37","restless",0.7,0.9,0.5,0.883617353334236,"false"
"image-keyboard-response",306,319127,"0.0-3.98-1.98","v1o6t0jehsdv12w",251,"107.csv","","null","resources/maskTrios/L4BB.jpg","null","",NA,NA,NA,NA,""
"image-keyboard-response",307,320334,"0.0-3.98-2.98","v1o6t0jehsdv12w",251,"107.csv","","null","resources/images/fishbone.png","null","",NA,NA,NA,NA,""
"image-keyboard-response",308,321108,"0.0-3.99-0.99","v1o6t0jehsdv12w",251,"107.csv","","771.7999999970198","resources/trios/L4T1A3.jpg","39","restless",0.7,0.9,0.5,0.0463280343012116,"true"
"image-keyboard-response",309,321515,"0.0-3.99-1.99","v1o6t0jehsdv12w",251,"107.csv","","null","resources/maskTrios/BBA3.jpg","null","",NA,NA,NA,NA,""
"image-keyboard-response",310,322719,"0.0-3.99-2.99","v1o6t0jehsdv12w",251,"107.csv","","null","resources/images/coin2.png","null","",NA,NA,NA,NA,""
"image-keyboard-response",311,323589,"0.0-3.100-0.100","v1o6t0jehsdv12w",251,"107.csv","","867.2000000029802","resources/trios/L4T4A1.jpg","38","restless",0.7,0.9,0.5,0.749986232014122,"true"
"image-keyboard-response",312,323996,"0.0-3.100-1.100","v1o6t0jehsdv12w",251,"107.csv","","null","resources/maskTrios/BT4B.jpg","null","",NA,NA,NA,NA,""
"image-keyboard-response",313,325203,"0.0-3.100-2.100","v1o6t0jehsdv12w",251,"107.csv","","null","resources/images/coin2.png","null","",NA,NA,NA,NA,""
"image-keyboard-response",314,325913,"0.0-3.101-0.101","v1o6t0jehsdv12w",251,"107.csv","","708.0999999940395","resources/trios/L4T4A3.jpg","37","restless",0.7,0.9,0.5,0.109540073695682,"true"
"image-keyboard-response",315,326321,"0.0-3.101-1.101","v1o6t0jehsdv12w",251,"107.csv","","null","resources/maskTrios/L4BB.jpg","null","",NA,NA,NA,NA,""
"image-keyboard-response",316,327526,"0.0-3.101-2.101","v1o6t0jehsdv12w",251,"107.csv","","null","resources/images/coin2.png","null","",NA,NA,NA,NA,""
"image-keyboard-response",317,328126,"0.0-3.102-0.102","v1o6t0jehsdv12w",251,"107.csv","","598.0999999940395","resources/trios/L4T4A3.jpg","38","restless",0.7,0.9,0.6,0.895880927762429,"true"
"image-keyboard-response",318,328533,"0.0-3.102-1.102","v1o6t0jehsdv12w",251,"107.csv","","null","resources/maskTrios/BT4B.jpg","null","",NA,NA,NA,NA,""
"image-keyboard-response",319,329736,"0.0-3.102-2.102","v1o6t0jehsdv12w",251,"107.csv","","null","resources/images/coin2.png","null","",NA,NA,NA,NA,""
"image-keyboard-response",320,330065,"0.0-3.103-0.103","v1o6t0jehsdv12w",251,"107.csv","","326.70000000298023","resources/trios/L4T4A3.jpg","37","restless",0.7,0.9,0.6,0.15671239183539,"true"
"image-keyboard-response",321,330472,"0.0-3.103-1.103","v1o6t0jehsdv12w",251,"107.csv","","null","resources/maskTrios/L4BB.jpg","null","",NA,NA,NA,NA,""
"image-keyboard-response",322,331679,"0.0-3.103-2.103","v1o6t0jehsdv12w",251,"107.csv","","null","resources/images/coin2.png","null","",NA,NA,NA,NA,""
"image-keyboard-response",323,332013,"0.0-3.104-0.104","v1o6t0jehsdv12w",251,"107.csv","","332.1000000089407","resources/trios/L2T4A1.jpg","38","restless",0.7,0.8,0.6,0.441935053046025,"true"
"image-keyboard-response",324,332417,"0.0-3.104-1.104","v1o6t0jehsdv12w",251,"107.csv","","null","resources/maskTrios/BT4B.jpg","null","",NA,NA,NA,NA,""
"image-keyboard-response",325,333625,"0.0-3.104-2.104","v1o6t0jehsdv12w",251,"107.csv","","null","resources/images/coin2.png","null","",NA,NA,NA,NA,""
"image-keyboard-response",326,333920,"0.0-3.105-0.105","v1o6t0jehsdv12w",251,"107.csv","","293.5","resources/trios/L2T1A1.jpg","37","restless",0.7,0.7,0.6,0.695735833020356,"true"
"image-keyboard-response",327,334328,"0.0-3.105-1.105","v1o6t0jehsdv12w",251,"107.csv","","null","resources/maskTrios/L2BB.jpg","null","",NA,NA,NA,NA,""
"image-keyboard-response",328,335534,"0.0-3.105-2.105","v1o6t0jehsdv12w",251,"107.csv","","null","resources/images/coin2.png","null","",NA,NA,NA,NA,""
"image-keyboard-response",329,335982,"0.0-3.106-0.106","v1o6t0jehsdv12w",251,"107.csv","","445.40000000596046","resources/trios/L4T1A1.jpg","38","restless",0.7,0.7,0.6,0.306885424457939,"true"
"image-keyboard-response",330,336390,"0.0-3.106-1.106","v1o6t0jehsdv12w",251,"107.csv","","null","resources/maskTrios/BT1B.jpg","null","",NA,NA,NA,NA,""
"image-keyboard-response",331,337592,"0.0-3.106-2.106","v1o6t0jehsdv12w",251,"107.csv","","null","resources/images/coin2.png","null","",NA,NA,NA,NA,""
"image-keyboard-response",332,337887,"0.0-3.107-0.107","v1o6t0jehsdv12w",251,"107.csv","","292.30000001192093","resources/trios/L4T4A3.jpg","37","restless",0.7,0.7,0.6,0.543254108004687,"true"
"image-keyboard-response",333,338294,"0.0-3.107-1.107","v1o6t0jehsdv12w",251,"107.csv","","null","resources/maskTrios/L4BB.jpg","null","",NA,NA,NA,NA,""
"image-keyboard-response",334,339501,"0.0-3.107-2.107","v1o6t0jehsdv12w",251,"107.csv","","null","resources/images/coin2.png","null","",NA,NA,NA,NA,""
"image-keyboard-response",335,339832,"0.0-3.108-0.108","v1o6t0jehsdv12w",251,"107.csv","","328.70000000298023","resources/trios/L2T4A3.jpg","38","restless",0.7,0.7,0.6,0.82530520834793,"false"
"image-keyboard-response",336,340240,"0.0-3.108-1.108","v1o6t0jehsdv12w",251,"107.csv","","null","resources/maskTrios/BT4B.jpg","null","",NA,NA,NA,NA,""
"image-keyboard-response",337,341444,"0.0-3.108-2.108","v1o6t0jehsdv12w",251,"107.csv","","null","resources/images/fishbone.png","null","",NA,NA,NA,NA,""
"image-keyboard-response",338,341869,"0.0-3.109-0.109","v1o6t0jehsdv12w",251,"107.csv","","422.5","resources/trios/L4T1A1.jpg","39","restless",0.7,0.7,0.6,0.0803993556893239,"true"
"image-keyboard-response",339,342276,"0.0-3.109-1.109","v1o6t0jehsdv12w",251,"107.csv","","null","resources/maskTrios/BBA1.jpg","null","",NA,NA,NA,NA,""
"image-keyboard-response",340,343483,"0.0-3.109-2.109","v1o6t0jehsdv12w",251,"107.csv","","null","resources/images/coin2.png","null","",NA,NA,NA,NA,""
"image-keyboard-response",341,343935,"0.0-3.110-0.110","v1o6t0jehsdv12w",251,"107.csv","","449.29999999701977","resources/trios/L4T4A1.jpg","38","restless",0.7,0.7,0.6,0.497471005847884,"true"
"image-keyboard-response",342,344342,"0.0-3.110-1.110","v1o6t0jehsdv12w",251,"107.csv","","null","resources/maskTrios/BT4B.jpg","null","",NA,NA,NA,NA,""
"image-keyboard-response",343,345546,"0.0-3.110-2.110","v1o6t0jehsdv12w",251,"107.csv","","null","resources/images/coin2.png","null","",NA,NA,NA,NA,""
"image-keyboard-response",344,345892,"0.0-3.111-0.111","v1o6t0jehsdv12w",251,"107.csv","","344.59999999403954","resources/trios/L4T4A1.jpg","37","restless",0.7,0.7,0.6,0.422455934874051,"true"
"image-keyboard-response",345,346299,"0.0-3.111-1.111","v1o6t0jehsdv12w",251,"107.csv","","null","resources/maskTrios/L4BB.jpg","null","",NA,NA,NA,NA,""
"image-keyboard-response",346,347507,"0.0-3.111-2.111","v1o6t0jehsdv12w",251,"107.csv","","null","resources/images/coin2.png","null","",NA,NA,NA,NA,""
"image-keyboard-response",347,347842,"0.0-3.112-0.112","v1o6t0jehsdv12w",251,"107.csv","","333","resources/trios/L2T1A3.jpg","38","restless",0.7,0.7,0.6,0.718461526494674,"false"
"image-keyboard-response",348,348247,"0.0-3.112-1.112","v1o6t0jehsdv12w",251,"107.csv","","null","resources/maskTrios/BT1B.jpg","null","",NA,NA,NA,NA,""
"image-keyboard-response",349,349454,"0.0-3.112-2.112","v1o6t0jehsdv12w",251,"107.csv","","null","resources/images/fishbone.png","null","",NA,NA,NA,NA,""
"image-keyboard-response",350,349847,"0.0-3.113-0.113","v1o6t0jehsdv12w",251,"107.csv","","390.59999999403954","resources/trios/L4T4A3.jpg","39","restless",0.7,0.7,0.6,0.212312877485322,"true"
"image-keyboard-response",351,350253,"0.0-3.113-1.113","v1o6t0jehsdv12w",251,"107.csv","","null","resources/maskTrios/BBA3.jpg","null","",NA,NA,NA,NA,""
"image-keyboard-response",352,351461,"0.0-3.113-2.113","v1o6t0jehsdv12w",251,"107.csv","","null","resources/images/coin2.png","null","",NA,NA,NA,NA,""
"image-keyboard-response",353,351824,"0.0-3.114-0.114","v1o6t0jehsdv12w",251,"107.csv","","361.19999998807907","resources/trios/L4T4A3.jpg","39","restless",0.7,0.7,0.6,0.899043303171424,"false"
"image-keyboard-response",354,352232,"0.0-3.114-1.114","v1o6t0jehsdv12w",251,"107.csv","","null","resources/maskTrios/BBA3.jpg","null","",NA,NA,NA,NA,""
"image-keyboard-response",355,353434,"0.0-3.114-2.114","v1o6t0jehsdv12w",251,"107.csv","","null","resources/images/fishbone.png","null","",NA,NA,NA,NA,""
"image-keyboard-response",356,354714,"0.0-3.115-0.115","v1o6t0jehsdv12w",251,"107.csv","","1278.0999999940395","resources/trios/L4T1A1.jpg","37","restless",0.7,0.7,0.6,0.11128706517546,"true"
"image-keyboard-response",357,355121,"0.0-3.115-1.115","v1o6t0jehsdv12w",251,"107.csv","","null","resources/maskTrios/L4BB.jpg","null","",NA,NA,NA,NA,""
"image-keyboard-response",358,356328,"0.0-3.115-2.115","v1o6t0jehsdv12w",251,"107.csv","","null","resources/images/coin2.png","null","",NA,NA,NA,NA,""
"image-keyboard-response",359,357973,"0.0-3.116-0.116","v1o6t0jehsdv12w",251,"107.csv","","1642.7000000029802","resources/trios/L4T1A3.jpg","39","restless",0.7,0.7,0.7,0.202251158144709,"true"
"image-keyboard-response",360,358381,"0.0-3.116-1.116","v1o6t0jehsdv12w",251,"107.csv","","null","resources/maskTrios/BBA3.jpg","null","",NA,NA,NA,NA,""
"image-keyboard-response",361,359588,"0.0-3.116-2.116","v1o6t0jehsdv12w",251,"107.csv","","null","resources/images/coin2.png","null","",NA,NA,NA,NA,""
"image-keyboard-response",362,360447,"0.0-3.117-0.117","v1o6t0jehsdv12w",251,"107.csv","","857","resources/trios/L2T1A3.jpg","37","restless",0.6,0.6,0.7,0.628163845881882,"false"
"image-keyboard-response",363,360854,"0.0-3.117-1.117","v1o6t0jehsdv12w",251,"107.csv","","null","resources/maskTrios/L2BB.jpg","null","",NA,NA,NA,NA,""
"image-keyboard-response",364,362061,"0.0-3.117-2.117","v1o6t0jehsdv12w",251,"107.csv","","null","resources/images/fishbone.png","null","",NA,NA,NA,NA,""
"image-keyboard-response",365,362485,"0.0-3.118-0.118","v1o6t0jehsdv12w",251,"107.csv","","422","resources/trios/L2T1A3.jpg","38","restless",0.6,0.6,0.7,0.571329589436817,"true"
"image-keyboard-response",366,362893,"0.0-3.118-1.118","v1o6t0jehsdv12w",251,"107.csv","","null","resources/maskTrios/BT1B.jpg","null","",NA,NA,NA,NA,""
"image-keyboard-response",367,364100,"0.0-3.118-2.118","v1o6t0jehsdv12w",251,"107.csv","","null","resources/images/coin2.png","null","",NA,NA,NA,NA,""
"image-keyboard-response",368,365042,"0.0-3.119-0.119","v1o6t0jehsdv12w",251,"107.csv","","939.7999999970198","resources/trios/L2T4A1.jpg","38","restless",0.6,0.6,0.7,0.463227788967322,"true"
"image-keyboard-response",369,365449,"0.0-3.119-1.119","v1o6t0jehsdv12w",251,"107.csv","","null","resources/maskTrios/BT4B.jpg","null","",NA,NA,NA,NA,""
"image-keyboard-response",370,366656,"0.0-3.119-2.119","v1o6t0jehsdv12w",251,"107.csv","","null","resources/images/coin2.png","null","",NA,NA,NA,NA,""
"image-keyboard-response",371,367963,"0.0-3.120-0.120","v1o6t0jehsdv12w",251,"107.csv","","1305.0999999940395","resources/trios/L4T4A1.jpg","38","restless",0.6,0.6,0.7,0.687119230900856,"false"
"image-keyboard-response",372,368371,"0.0-3.120-1.120","v1o6t0jehsdv12w",251,"107.csv","","null","resources/maskTrios/BT4B.jpg","null","",NA,NA,NA,NA,""
"image-keyboard-response",373,369578,"0.0-3.120-2.120","v1o6t0jehsdv12w",251,"107.csv","","null","resources/images/fishbone.png","null","",NA,NA,NA,NA,""
"image-keyboard-response",374,370160,"0.0-3.121-0.121","v1o6t0jehsdv12w",251,"107.csv","","580.1999999880791","resources/trios/L4T1A1.jpg","39","restless",0.6,0.6,0.7,0.304056709157597,"true"
"image-keyboard-response",375,370568,"0.0-3.121-1.121","v1o6t0jehsdv12w",251,"107.csv","","null","resources/maskTrios/BBA1.jpg","null","",NA,NA,NA,NA,""
"image-keyboard-response",376,371775,"0.0-3.121-2.121","v1o6t0jehsdv12w",251,"107.csv","","null","resources/images/coin2.png","null","",NA,NA,NA,NA,""
"image-keyboard-response",377,372765,"0.0-3.122-0.122","v1o6t0jehsdv12w",251,"107.csv","","988.0999999940395","resources/trios/L4T4A3.jpg","37","restless",0.6,0.6,0.7,0.942340695861781,"false"
"image-keyboard-response",378,373172,"0.0-3.122-1.122","v1o6t0jehsdv12w",251,"107.csv","","null","resources/maskTrios/L4BB.jpg","null","",NA,NA,NA,NA,""
"image-keyboard-response",379,374376,"0.0-3.122-2.122","v1o6t0jehsdv12w",251,"107.csv","","null","resources/images/fishbone.png","null","",NA,NA,NA,NA,""
"image-keyboard-response",380,374979,"0.0-3.123-0.123","v1o6t0jehsdv12w",251,"107.csv","","600.7000000029802","resources/trios/L4T1A3.jpg","39","restless",0.7,0.6,0.7,0.869034107479594,"false"
"image-keyboard-response",381,375382,"0.0-3.123-1.123","v1o6t0jehsdv12w",251,"107.csv","","null","resources/maskTrios/BBA3.jpg","null","",NA,NA,NA,NA,""
"image-keyboard-response",382,376589,"0.0-3.123-2.123","v1o6t0jehsdv12w",251,"107.csv","","null","resources/images/fishbone.png","null","",NA,NA,NA,NA,""
"image-keyboard-response",383,376956,"0.0-3.124-0.124","v1o6t0jehsdv12w",251,"107.csv","","365.19999998807907","resources/trios/L2T4A1.jpg","38","restless",0.7,0.5,0.7,0.845947468544043,"false"
"image-keyboard-response",384,377363,"0.0-3.124-1.124","v1o6t0jehsdv12w",251,"107.csv","","null","resources/maskTrios/BT4B.jpg","null","",NA,NA,NA,NA,""
"image-keyboard-response",385,378568,"0.0-3.124-2.124","v1o6t0jehsdv12w",251,"107.csv","","null","resources/images/fishbone.png","null","",NA,NA,NA,NA,""
"image-keyboard-response",386,379128,"0.0-3.125-0.125","v1o6t0jehsdv12w",251,"107.csv","","558.3999999910593","resources/trios/L2T4A1.jpg","37","restless",0.7,0.5,0.7,0.133055005524932,"true"
"image-keyboard-response",387,379536,"0.0-3.125-1.125","v1o6t0jehsdv12w",251,"107.csv","","null","resources/maskTrios/L2BB.jpg","null","",NA,NA,NA,NA,""
"image-keyboard-response",388,380743,"0.0-3.125-2.125","v1o6t0jehsdv12w",251,"107.csv","","null","resources/images/coin2.png","null","",NA,NA,NA,NA,""
"image-keyboard-response",389,381836,"0.0-3.126-0.126","v1o6t0jehsdv12w",251,"107.csv","","1090.2999999970198","resources/trios/L4T1A3.jpg","39","restless",0.7,0.5,0.7,0.821530070391568,"false"
"image-keyboard-response",390,382239,"0.0-3.126-1.126","v1o6t0jehsdv12w",251,"107.csv","","null","resources/maskTrios/BBA3.jpg","null","",NA,NA,NA,NA,""
"image-keyboard-response",391,383445,"0.0-3.126-2.126","v1o6t0jehsdv12w",251,"107.csv","","null","resources/images/fishbone.png","null","",NA,NA,NA,NA,""
"image-keyboard-response",392,383740,"0.0-3.127-0.127","v1o6t0jehsdv12w",251,"107.csv","","292.20000000298023","resources/trios/L4T1A3.jpg","38","restless",0.6,0.5,0.7,0.00573511244986458,"true"
"image-keyboard-response",393,384147,"0.0-3.127-1.127","v1o6t0jehsdv12w",251,"107.csv","","null","resources/maskTrios/BT1B.jpg","null","",NA,NA,NA,NA,""
"image-keyboard-response",394,385354,"0.0-3.127-2.127","v1o6t0jehsdv12w",251,"107.csv","","null","resources/images/coin2.png","null","",NA,NA,NA,NA,""
"image-keyboard-response",395,386232,"0.0-3.128-0.128","v1o6t0jehsdv12w",251,"107.csv","","876","resources/trios/L4T1A3.jpg","38","restless",0.6,0.5,0.7,0.392401485821,"true"
"image-keyboard-response",396,386635,"0.0-3.128-1.128","v1o6t0jehsdv12w",251,"107.csv","","null","resources/maskTrios/BT1B.jpg","null","",NA,NA,NA,NA,""
"image-keyboard-response",397,387839,"0.0-3.128-2.128","v1o6t0jehsdv12w",251,"107.csv","","null","resources/images/coin2.png","null","",NA,NA,NA,NA,""
"image-keyboard-response",398,388171,"0.0-3.129-0.129","v1o6t0jehsdv12w",251,"107.csv","","329.69999998807907","resources/trios/L4T1A1.jpg","38","restless",0.6,0.5,0.7,0.89691780763017,"false"
"image-keyboard-response",399,388578,"0.0-3.129-1.129","v1o6t0jehsdv12w",251,"107.csv","","null","resources/maskTrios/BT1B.jpg","null","",NA,NA,NA,NA,""
"image-keyboard-response",400,389783,"0.0-3.129-2.129","v1o6t0jehsdv12w",251,"107.csv","","null","resources/images/fishbone.png","null","",NA,NA,NA,NA,""
"image-keyboard-response",401,390054,"0.0-3.130-0.130","v1o6t0jehsdv12w",251,"107.csv","","268.70000000298023","resources/trios/L4T4A3.jpg","37","restless",0.6,0.5,0.7,0.861347107859532,"false"
"image-keyboard-response",402,390461,"0.0-3.130-1.130","v1o6t0jehsdv12w",251,"107.csv","","null","resources/maskTrios/L4BB.jpg","null","",NA,NA,NA,NA,""
"image-keyboard-response",403,391668,"0.0-3.130-2.130","v1o6t0jehsdv12w",251,"107.csv","","null","resources/images/fishbone.png","null","",NA,NA,NA,NA,""
"image-keyboard-response",404,391712,"0.0-3.131-0.131","v1o6t0jehsdv12w",251,"107.csv","","41.6000000089407","resources/trios/L2T1A3.jpg","38","restless",0.5,0.5,0.8,0.00178194755858296,"true"
"image-keyboard-response",405,392119,"0.0-3.131-1.131","v1o6t0jehsdv12w",251,"107.csv","","null","resources/maskTrios/BT1B.jpg","null","",NA,NA,NA,NA,""
"image-keyboard-response",406,393327,"0.0-3.131-2.131","v1o6t0jehsdv12w",251,"107.csv","","null","resources/images/coin2.png","null","",NA,NA,NA,NA,""
"image-keyboard-response",407,393781,"0.0-3.132-0.132","v1o6t0jehsdv12w",251,"107.csv","","452.40000000596046","resources/trios/L4T4A1.jpg","38","restless",0.5,0.5,0.8,0.15765691109873,"true"
"image-keyboard-response",408,394189,"0.0-3.132-1.132","v1o6t0jehsdv12w",251,"107.csv","","null","resources/maskTrios/BT4B.jpg","null","",NA,NA,NA,NA,""
"image-keyboard-response",409,395393,"0.0-3.132-2.132","v1o6t0jehsdv12w",251,"107.csv","","null","resources/images/coin2.png","null","",NA,NA,NA,NA,""
"image-keyboard-response",410,395701,"0.0-3.133-0.133","v1o6t0jehsdv12w",251,"107.csv","","306.5","resources/trios/L2T1A1.jpg","38","restless",0.5,0.5,0.8,0.588913710328439,"false"
"image-keyboard-response",411,396109,"0.0-3.133-1.133","v1o6t0jehsdv12w",251,"107.csv","","null","resources/maskTrios/BT1B.jpg","null","",NA,NA,NA,NA,""
"image-keyboard-response",412,397314,"0.0-3.133-2.133","v1o6t0jehsdv12w",251,"107.csv","","null","resources/images/fishbone.png","null","",NA,NA,NA,NA,""
"image-keyboard-response",413,397511,"0.0-3.134-0.134","v1o6t0jehsdv12w",251,"107.csv","","194.69999998807907","resources/trios/L2T1A1.jpg","39","restless",0.5,0.5,0.8,0.72219631318942,"true"
"image-keyboard-response",414,397918,"0.0-3.134-1.134","v1o6t0jehsdv12w",251,"107.csv","","null","resources/maskTrios/BBA1.jpg","null","",NA,NA,NA,NA,""
"image-keyboard-response",415,399125,"0.0-3.134-2.134","v1o6t0jehsdv12w",251,"107.csv","","null","resources/images/coin2.png","null","",NA,NA,NA,NA,""
"image-keyboard-response",416,399340,"0.0-3.135-0.135","v1o6t0jehsdv12w",251,"107.csv","","212.40000000596046","resources/trios/L2T1A1.jpg","39","restless",0.5,0.5,0.8,0.216023618412987,"true"
"image-keyboard-response",417,399744,"0.0-3.135-1.135","v1o6t0jehsdv12w",251,"107.csv","","null","resources/maskTrios/BBA1.jpg","null","",NA,NA,NA,NA,""
"image-keyboard-response",418,400951,"0.0-3.135-2.135","v1o6t0jehsdv12w",251,"107.csv","","null","resources/images/coin2.png","null","",NA,NA,NA,NA,""
"image-keyboard-response",419,401183,"0.0-3.136-0.136","v1o6t0jehsdv12w",251,"107.csv","","229.3999999910593","resources/trios/L2T4A3.jpg","39","restless",0.5,0.5,0.8,0.7542053961713,"true"
"image-keyboard-response",420,401590,"0.0-3.136-1.136","v1o6t0jehsdv12w",251,"107.csv","","null","resources/maskTrios/BBA3.jpg","null","",NA,NA,NA,NA,""
"image-keyboard-response",421,402797,"0.0-3.136-2.136","v1o6t0jehsdv12w",251,"107.csv","","null","resources/images/coin2.png","null","",NA,NA,NA,NA,""
"image-keyboard-response",422,403115,"0.0-3.137-0.137","v1o6t0jehsdv12w",251,"107.csv","","315.29999999701977","resources/trios/L2T1A1.jpg","39","restless",0.5,0.5,0.8,0.79779791808572,"true"
"image-keyboard-response",423,403522,"0.0-3.137-1.137","v1o6t0jehsdv12w",251,"107.csv","","null","resources/maskTrios/BBA1.jpg","null","",NA,NA,NA,NA,""
"image-keyboard-response",424,404729,"0.0-3.137-2.137","v1o6t0jehsdv12w",251,"107.csv","","null","resources/images/coin2.png","null","",NA,NA,NA,NA,""
"image-keyboard-response",425,405162,"0.0-3.138-0.138","v1o6t0jehsdv12w",251,"107.csv","","430","resources/trios/L2T1A3.jpg","39","restless",0.5,0.5,0.8,0.283952389208542,"true"
"image-keyboard-response",426,405569,"0.0-3.138-1.138","v1o6t0jehsdv12w",251,"107.csv","","null","resources/maskTrios/BBA3.jpg","null","",NA,NA,NA,NA,""
"image-keyboard-response",427,406776,"0.0-3.138-2.138","v1o6t0jehsdv12w",251,"107.csv","","null","resources/images/coin2.png","null","",NA,NA,NA,NA,""
"image-keyboard-response",428,407140,"0.0-3.139-0.139","v1o6t0jehsdv12w",251,"107.csv","","361.5","resources/trios/L2T1A3.jpg","39","restless",0.5,0.4,0.8,0.675859715549985,"true"
"image-keyboard-response",429,407547,"0.0-3.139-1.139","v1o6t0jehsdv12w",251,"107.csv","","null","resources/maskTrios/BBA3.jpg","null","",NA,NA,NA,NA,""
"image-keyboard-response",430,408751,"0.0-3.139-2.139","v1o6t0jehsdv12w",251,"107.csv","","null","resources/images/coin2.png","null","",NA,NA,NA,NA,""
"image-keyboard-response",431,409279,"0.0-3.140-0.140","v1o6t0jehsdv12w",251,"107.csv","","526.4000000059605","resources/trios/L4T4A1.jpg","39","restless",0.5,0.4,0.8,0.13762219992499,"true"
"image-keyboard-response",432,409682,"0.0-3.140-1.140","v1o6t0jehsdv12w",251,"107.csv","","null","resources/maskTrios/BBA1.jpg","null","",NA,NA,NA,NA,""
"image-keyboard-response",433,410889,"0.0-3.140-2.140","v1o6t0jehsdv12w",251,"107.csv","","null","resources/images/coin2.png","null","",NA,NA,NA,NA,""
"image-keyboard-response",434,410913,"0.0-3.141-0.141","v1o6t0jehsdv12w",251,"107.csv","","21.399999991059303","resources/trios/L4T4A3.jpg","39","restless",0.5,0.4,0.8,0.012408990540455,"true"
"image-keyboard-response",435,411317,"0.0-3.141-1.141","v1o6t0jehsdv12w",251,"107.csv","","null","resources/maskTrios/BBA3.jpg","null","",NA,NA,NA,NA,""
"image-keyboard-response",436,412524,"0.0-3.141-2.141","v1o6t0jehsdv12w",251,"107.csv","","null","resources/images/coin2.png","null","",NA,NA,NA,NA,""
"image-keyboard-response",437,412786,"0.0-3.142-0.142","v1o6t0jehsdv12w",251,"107.csv","","259.8999999910593","resources/trios/L4T1A3.jpg","39","restless",0.4,0.4,0.8,0.793957068122558,"true"
"image-keyboard-response",438,413193,"0.0-3.142-1.142","v1o6t0jehsdv12w",251,"107.csv","","null","resources/maskTrios/BBA3.jpg","null","",NA,NA,NA,NA,""
"image-keyboard-response",439,414400,"0.0-3.142-2.142","v1o6t0jehsdv12w",251,"107.csv","","null","resources/images/coin2.png","null","",NA,NA,NA,NA,""
"image-keyboard-response",440,414649,"0.0-3.143-0.143","v1o6t0jehsdv12w",251,"107.csv","","246.6000000089407","resources/trios/L4T4A3.jpg","39","restless",0.4,0.4,0.8,0.209369409069553,"true"
"image-keyboard-response",441,415053,"0.0-3.143-1.143","v1o6t0jehsdv12w",251,"107.csv","","null","resources/maskTrios/BBA3.jpg","null","",NA,NA,NA,NA,""
"image-keyboard-response",442,416260,"0.0-3.143-2.143","v1o6t0jehsdv12w",251,"107.csv","","null","resources/images/coin2.png","null","",NA,NA,NA,NA,""
"image-keyboard-response",443,416741,"0.0-3.144-0.144","v1o6t0jehsdv12w",251,"107.csv","","478.79999999701977","resources/trios/L4T4A3.jpg","39","restless",0.4,0.4,0.8,0.58370777532428,"true"
"image-keyboard-response",444,417148,"0.0-3.144-1.144","v1o6t0jehsdv12w",251,"107.csv","","null","resources/maskTrios/BBA3.jpg","null","",NA,NA,NA,NA,""
"image-keyboard-response",445,418352,"0.0-3.144-2.144","v1o6t0jehsdv12w",251,"107.csv","","null","resources/images/coin2.png","null","",NA,NA,NA,NA,""
"image-keyboard-response",446,419357,"0.0-3.145-0.145","v1o6t0jehsdv12w",251,"107.csv","","1002","resources/trios/L4T1A1.jpg","39","restless",0.4,0.4,0.8,0.064222919029074,"true"
"image-keyboard-response",447,419762,"0.0-3.145-1.145","v1o6t0jehsdv12w",251,"107.csv","","null","resources/maskTrios/BBA1.jpg","null","",NA,NA,NA,NA,""
"image-keyboard-response",448,420968,"0.0-3.145-2.145","v1o6t0jehsdv12w",251,"107.csv","","null","resources/images/coin2.png","null","",NA,NA,NA,NA,""
"image-keyboard-response",449,420993,"0.0-3.146-0.146","v1o6t0jehsdv12w",251,"107.csv","","22.700000002980232","resources/trios/L4T1A1.jpg","39","restless",0.4,0.4,0.8,0.495686299035087,"true"
"image-keyboard-response",450,421395,"0.0-3.146-1.146","v1o6t0jehsdv12w",251,"107.csv","","null","resources/maskTrios/BBA1.jpg","null","",NA,NA,NA,NA,""
"image-keyboard-response",451,422597,"0.0-3.146-2.146","v1o6t0jehsdv12w",251,"107.csv","","null","resources/images/coin2.png","null","",NA,NA,NA,NA,""
"image-keyboard-response",452,423149,"0.0-3.147-0.147","v1o6t0jehsdv12w",251,"107.csv","","549.1999999880791","resources/trios/L2T4A1.jpg","39","restless",0.4,0.4,0.8,0.991412061719903,"false"
"image-keyboard-response",453,423556,"0.0-3.147-1.147","v1o6t0jehsdv12w",251,"107.csv","","null","resources/maskTrios/BBA1.jpg","null","",NA,NA,NA,NA,""
"image-keyboard-response",454,424763,"0.0-3.147-2.147","v1o6t0jehsdv12w",251,"107.csv","","null","resources/images/fishbone.png","null","",NA,NA,NA,NA,""
"image-keyboard-response",455,425144,"0.0-3.148-0.148","v1o6t0jehsdv12w",251,"107.csv","","379.29999999701977","resources/trios/L2T1A1.jpg","38","restless",0.4,0.4,0.8,0.555293004895246,"false"
"image-keyboard-response",456,425551,"0.0-3.148-1.148","v1o6t0jehsdv12w",251,"107.csv","","null","resources/maskTrios/BT1B.jpg","null","",NA,NA,NA,NA,""
"image-keyboard-response",457,426758,"0.0-3.148-2.148","v1o6t0jehsdv12w",251,"107.csv","","null","resources/images/fishbone.png","null","",NA,NA,NA,NA,""
"image-keyboard-response",458,427125,"0.0-3.149-0.149","v1o6t0jehsdv12w",251,"107.csv","","364.5","resources/trios/L4T4A3.jpg","39","restless",0.4,0.4,0.8,0.885056548663778,"false"
"image-keyboard-response",459,427533,"0.0-3.149-1.149","v1o6t0jehsdv12w",251,"107.csv","","null","resources/maskTrios/BBA3.jpg","null","",NA,NA,NA,NA,""
"image-keyboard-response",460,428740,"0.0-3.149-2.149","v1o6t0jehsdv12w",251,"107.csv","","null","resources/images/fishbone.png","null","",NA,NA,NA,NA,""
"image-keyboard-response",461,429014,"0.0-3.150-0.150","v1o6t0jehsdv12w",251,"107.csv","","272.29999999701977","resources/trios/L4T1A3.jpg","37","restless",0.4,0.4,0.8,0.312529675425266,"true"
"image-keyboard-response",462,429422,"0.0-3.150-1.150","v1o6t0jehsdv12w",251,"107.csv","","null","resources/maskTrios/L4BB.jpg","null","",NA,NA,NA,NA,""
"image-keyboard-response",463,430629,"0.0-3.150-2.150","v1o6t0jehsdv12w",251,"107.csv","","null","resources/images/coin2.png","null","",NA,NA,NA,NA,""
"image-keyboard-response",464,430910,"0.0-3.151-0.151","v1o6t0jehsdv12w",251,"107.csv","","278.3999999910593","resources/trios/L2T4A1.jpg","37","restless",0.4,0.4,0.8,0.277267783118714,"true"
"image-keyboard-response",465,431317,"0.0-3.151-1.151","v1o6t0jehsdv12w",251,"107.csv","","null","resources/maskTrios/L2BB.jpg","null","",NA,NA,NA,NA,""
"image-keyboard-response",466,432522,"0.0-3.151-2.151","v1o6t0jehsdv12w",251,"107.csv","","null","resources/images/coin2.png","null","",NA,NA,NA,NA,""
"image-keyboard-response",467,432833,"0.0-3.152-0.152","v1o6t0jehsdv12w",251,"107.csv","","308.30000001192093","resources/trios/L4T1A3.jpg","37","restless",0.3,0.4,0.8,0.163357285690078,"true"
"image-keyboard-response",468,433235,"0.0-3.152-1.152","v1o6t0jehsdv12w",251,"107.csv","","null","resources/maskTrios/L4BB.jpg","null","",NA,NA,NA,NA,""
"image-keyboard-response",469,434443,"0.0-3.152-2.152","v1o6t0jehsdv12w",251,"107.csv","","null","resources/images/coin2.png","null","",NA,NA,NA,NA,""
"image-keyboard-response",470,434610,"0.0-3.153-0.153","v1o6t0jehsdv12w",251,"107.csv","","164.59999999403954","resources/trios/L2T1A3.jpg","37","restless",0.3,0.4,0.7,0.00744913798741531,"true"
"image-keyboard-response",471,435017,"0.0-3.153-1.153","v1o6t0jehsdv12w",251,"107.csv","","null","resources/maskTrios/L2BB.jpg","null","",NA,NA,NA,NA,""
"image-keyboard-response",472,436223,"0.0-3.153-2.153","v1o6t0jehsdv12w",251,"107.csv","","null","resources/images/coin2.png","null","",NA,NA,NA,NA,""
"image-keyboard-response",473,436450,"0.0-3.154-0.154","v1o6t0jehsdv12w",251,"107.csv","","224.59999999403954","resources/trios/L4T1A1.jpg","37","restless",0.3,0.4,0.7,0.632517310057734,"false"
"image-keyboard-response",474,436858,"0.0-3.154-1.154","v1o6t0jehsdv12w",251,"107.csv","","null","resources/maskTrios/L4BB.jpg","null","",NA,NA,NA,NA,""
"image-keyboard-response",475,438064,"0.0-3.154-2.154","v1o6t0jehsdv12w",251,"107.csv","","null","resources/images/fishbone.png","null","",NA,NA,NA,NA,""
"image-keyboard-response",476,438461,"0.0-3.155-0.155","v1o6t0jehsdv12w",251,"107.csv","","395.40000000596046","resources/trios/L2T1A1.jpg","37","restless",0.3,0.4,0.7,0.264088991730344,"true"
"image-keyboard-response",477,438866,"0.0-3.155-1.155","v1o6t0jehsdv12w",251,"107.csv","","null","resources/maskTrios/L2BB.jpg","null","",NA,NA,NA,NA,""
"image-keyboard-response",478,440073,"0.0-3.155-2.155","v1o6t0jehsdv12w",251,"107.csv","","null","resources/images/coin2.png","null","",NA,NA,NA,NA,""
"image-keyboard-response",479,440292,"0.0-3.156-0.156","v1o6t0jehsdv12w",251,"107.csv","","216.90000000596046","resources/trios/L4T4A1.jpg","37","restless",0.3,0.4,0.7,0.291279217328622,"true"
"image-keyboard-response",480,440696,"0.0-3.156-1.156","v1o6t0jehsdv12w",251,"107.csv","","null","resources/maskTrios/L4BB.jpg","null","",NA,NA,NA,NA,""
"image-keyboard-response",481,441903,"0.0-3.156-2.156","v1o6t0jehsdv12w",251,"107.csv","","null","resources/images/coin2.png","null","",NA,NA,NA,NA,""
"image-keyboard-response",482,442312,"0.0-3.157-0.157","v1o6t0jehsdv12w",251,"107.csv","","406.6000000089407","resources/trios/L4T4A1.jpg","37","restless",0.3,0.4,0.6,0.506811136638941,"false"
"image-keyboard-response",483,442719,"0.0-3.157-1.157","v1o6t0jehsdv12w",251,"107.csv","","null","resources/maskTrios/L4BB.jpg","null","",NA,NA,NA,NA,""
"image-keyboard-response",484,443924,"0.0-3.157-2.157","v1o6t0jehsdv12w",251,"107.csv","","null","resources/images/fishbone.png","null","",NA,NA,NA,NA,""
"image-keyboard-response",485,444439,"0.0-3.158-0.158","v1o6t0jehsdv12w",251,"107.csv","","512.9000000059605","resources/trios/L4T1A1.jpg","39","restless",0.3,0.4,0.6,0.317770558285853,"true"
"image-keyboard-response",486,444846,"0.0-3.158-1.158","v1o6t0jehsdv12w",251,"107.csv","","null","resources/maskTrios/BBA1.jpg","null","",NA,NA,NA,NA,""
"image-keyboard-response",487,446053,"0.0-3.158-2.158","v1o6t0jehsdv12w",251,"107.csv","","null","resources/images/coin2.png","null","",NA,NA,NA,NA,""
"image-keyboard-response",488,446356,"0.0-3.159-0.159","v1o6t0jehsdv12w",251,"107.csv","","300.40000000596046","resources/trios/L2T4A3.jpg","39","restless",0.3,0.4,0.7,0.109618050509232,"true"
"image-keyboard-response",489,446763,"0.0-3.159-1.159","v1o6t0jehsdv12w",251,"107.csv","","null","resources/maskTrios/BBA3.jpg","null","",NA,NA,NA,NA,""
"image-keyboard-response",490,447971,"0.0-3.159-2.159","v1o6t0jehsdv12w",251,"107.csv","","null","resources/images/coin2.png","null","",NA,NA,NA,NA,""
"image-keyboard-response",491,448381,"0.0-3.160-0.160","v1o6t0jehsdv12w",251,"107.csv","","408.29999999701977","resources/trios/L2T4A1.jpg","39","restless",0.3,0.4,0.6,0.0784074848248033,"true"
"image-keyboard-response",492,448789,"0.0-3.160-1.160","v1o6t0jehsdv12w",251,"107.csv","","null","resources/maskTrios/BBA1.jpg","null","",NA,NA,NA,NA,""
"image-keyboard-response",493,449996,"0.0-3.160-2.160","v1o6t0jehsdv12w",251,"107.csv","","null","resources/images/coin2.png","null","",NA,NA,NA,NA,""
"image-keyboard-response",494,450330,"0.0-3.161-0.161","v1o6t0jehsdv12w",251,"107.csv","","331.59999999403954","resources/trios/L2T1A1.jpg","39","restless",0.3,0.4,0.6,0.288207011073905,"true"
"image-keyboard-response",495,450737,"0.0-3.161-1.161","v1o6t0jehsdv12w",251,"107.csv","","null","resources/maskTrios/BBA1.jpg","null","",NA,NA,NA,NA,""
"image-keyboard-response",496,451942,"0.0-3.161-2.161","v1o6t0jehsdv12w",251,"107.csv","","null","resources/images/coin2.png","null","",NA,NA,NA,NA,""
"image-keyboard-response",497,452311,"0.0-3.162-0.162","v1o6t0jehsdv12w",251,"107.csv","","366.40000000596046","resources/trios/L4T4A3.jpg","39","restless",0.3,0.4,0.6,0.0826014713254357,"true"
"image-keyboard-response",498,452715,"0.0-3.162-1.162","v1o6t0jehsdv12w",251,"107.csv","","null","resources/maskTrios/BBA3.jpg","null","",NA,NA,NA,NA,""
"image-keyboard-response",499,453918,"0.0-3.162-2.162","v1o6t0jehsdv12w",251,"107.csv","","null","resources/images/coin2.png","null","",NA,NA,NA,NA,""
"image-keyboard-response",500,454293,"0.0-3.163-0.163","v1o6t0jehsdv12w",251,"107.csv","","372.90000000596046","resources/trios/L4T1A3.jpg","39","restless",0.3,0.4,0.6,0.91368563629159,"false"
"image-keyboard-response",501,454700,"0.0-3.163-1.163","v1o6t0jehsdv12w",251,"107.csv","","null","resources/maskTrios/BBA3.jpg","null","",NA,NA,NA,NA,""
"image-keyboard-response",502,455906,"0.0-3.163-2.163","v1o6t0jehsdv12w",251,"107.csv","","null","resources/images/fishbone.png","null","",NA,NA,NA,NA,""
"image-keyboard-response",503,456236,"0.0-3.164-0.164","v1o6t0jehsdv12w",251,"107.csv","","327","resources/trios/L4T4A3.jpg","38","restless",0.3,0.4,0.5,0.454836323746426,"false"
"image-keyboard-response",504,456643,"0.0-3.164-1.164","v1o6t0jehsdv12w",251,"107.csv","","null","resources/maskTrios/BT4B.jpg","null","",NA,NA,NA,NA,""
"image-keyboard-response",505,457850,"0.0-3.164-2.164","v1o6t0jehsdv12w",251,"107.csv","","null","resources/images/fishbone.png","null","",NA,NA,NA,NA,""
"image-keyboard-response",506,458086,"0.0-3.165-0.165","v1o6t0jehsdv12w",251,"107.csv","","233.59999999403954","resources/trios/L4T4A3.jpg","37","restless",0.3,0.4,0.5,0.348245519629703,"false"
"image-keyboard-response",507,458493,"0.0-3.165-1.165","v1o6t0jehsdv12w",251,"107.csv","","null","resources/maskTrios/L4BB.jpg","null","",NA,NA,NA,NA,""
"image-keyboard-response",508,459699,"0.0-3.165-2.165","v1o6t0jehsdv12w",251,"107.csv","","null","resources/images/fishbone.png","null","",NA,NA,NA,NA,""
"image-keyboard-response",509,459950,"0.0-3.166-0.166","v1o6t0jehsdv12w",251,"107.csv","","249.20000000298023","resources/trios/L2T1A1.jpg","38","restless",0.3,0.4,0.5,0.269217358333378,"true"
"image-keyboard-response",510,460356,"0.0-3.166-1.166","v1o6t0jehsdv12w",251,"107.csv","","null","resources/maskTrios/BT1B.jpg","null","",NA,NA,NA,NA,""
"image-keyboard-response",511,461560,"0.0-3.166-2.166","v1o6t0jehsdv12w",251,"107.csv","","null","resources/images/coin2.png","null","",NA,NA,NA,NA,""
"image-keyboard-response",512,461967,"0.0-3.167-0.167","v1o6t0jehsdv12w",251,"107.csv","","404","resources/trios/L2T4A3.jpg","38","restless",0.3,0.4,0.5,0.260390590210068,"true"
"image-keyboard-response",513,462374,"0.0-3.167-1.167","v1o6t0jehsdv12w",251,"107.csv","","null","resources/maskTrios/BT4B.jpg","null","",NA,NA,NA,NA,""
"image-keyboard-response",514,463577,"0.0-3.167-2.167","v1o6t0jehsdv12w",251,"107.csv","","null","resources/images/coin2.png","null","",NA,NA,NA,NA,""
"image-keyboard-response",515,463938,"0.0-3.168-0.168","v1o6t0jehsdv12w",251,"107.csv","","359.1000000089407","resources/trios/L2T4A1.jpg","38","restless",0.3,0.4,0.5,0.925201059549399,"false"
"image-keyboard-response",516,464346,"0.0-3.168-1.168","v1o6t0jehsdv12w",251,"107.csv","","null","resources/maskTrios/BT4B.jpg","null","",NA,NA,NA,NA,""
"image-keyboard-response",517,465552,"0.0-3.168-2.168","v1o6t0jehsdv12w",251,"107.csv","","null","resources/images/fishbone.png","null","",NA,NA,NA,NA,""
"image-keyboard-response",518,465679,"0.0-3.169-0.169","v1o6t0jehsdv12w",251,"107.csv","","124.6000000089407","resources/trios/L2T4A1.jpg","39","restless",0.4,0.4,0.5,0.55298552747337,"false"
"image-keyboard-response",519,466087,"0.0-3.169-1.169","v1o6t0jehsdv12w",251,"107.csv","","null","resources/maskTrios/BBA1.jpg","null","",NA,NA,NA,NA,""
"image-keyboard-response",520,467294,"0.0-3.169-2.169","v1o6t0jehsdv12w",251,"107.csv","","null","resources/images/fishbone.png","null","",NA,NA,NA,NA,""
"image-keyboard-response",521,467309,"0.0-3.170-0.170","v1o6t0jehsdv12w",251,"107.csv","","13.800000011920929","resources/trios/L4T1A3.jpg","37","restless",0.4,0.4,0.5,0.151961080235101,"true"
"image-keyboard-response",522,467716,"0.0-3.170-1.170","v1o6t0jehsdv12w",251,"107.csv","","null","resources/maskTrios/L4BB.jpg","null","",NA,NA,NA,NA,""
"image-keyboard-response",523,468923,"0.0-3.170-2.170","v1o6t0jehsdv12w",251,"107.csv","","null","resources/images/coin2.png","null","",NA,NA,NA,NA,""
"image-keyboard-response",524,469169,"0.0-3.171-0.171","v1o6t0jehsdv12w",251,"107.csv","","243.59999999403954","resources/trios/L2T4A3.jpg","37","restless",0.4,0.5,0.5,0.865043339392197,"false"
"image-keyboard-response",525,469576,"0.0-3.171-1.171","v1o6t0jehsdv12w",251,"107.csv","","null","resources/maskTrios/L2BB.jpg","null","",NA,NA,NA,NA,""
"image-keyboard-response",526,470783,"0.0-3.171-2.171","v1o6t0jehsdv12w",251,"107.csv","","null","resources/images/fishbone.png","null","",NA,NA,NA,NA,""
"image-keyboard-response",527,471032,"0.0-3.172-0.172","v1o6t0jehsdv12w",251,"107.csv","","247.09999999403954","resources/trios/L2T4A3.jpg","38","restless",0.4,0.5,0.4,0.991105882254993,"false"
"image-keyboard-response",528,471440,"0.0-3.172-1.172","v1o6t0jehsdv12w",251,"107.csv","","null","resources/maskTrios/BT4B.jpg","null","",NA,NA,NA,NA,""
"image-keyboard-response",529,472643,"0.0-3.172-2.172","v1o6t0jehsdv12w",251,"107.csv","","null","resources/images/fishbone.png","null","",NA,NA,NA,NA,""
"image-keyboard-response",530,473200,"0.0-3.173-0.173","v1o6t0jehsdv12w",251,"107.csv","","555.2999999970198","resources/trios/L4T4A3.jpg","39","restless",0.4,0.5,0.4,0.871503620425667,"false"
"image-keyboard-response",531,473607,"0.0-3.173-1.173","v1o6t0jehsdv12w",251,"107.csv","","null","resources/maskTrios/BBA3.jpg","null","",NA,NA,NA,NA,""
"image-keyboard-response",532,474814,"0.0-3.173-2.173","v1o6t0jehsdv12w",251,"107.csv","","null","resources/images/fishbone.png","null","",NA,NA,NA,NA,""
"image-keyboard-response",533,475090,"0.0-3.174-0.174","v1o6t0jehsdv12w",251,"107.csv","","273.69999998807907","resources/trios/L4T1A3.jpg","38","restless",0.4,0.5,0.4,0.102474751175544,"true"
"image-keyboard-response",534,475498,"0.0-3.174-1.174","v1o6t0jehsdv12w",251,"107.csv","","null","resources/maskTrios/BT1B.jpg","null","",NA,NA,NA,NA,""
"image-keyboard-response",535,476705,"0.0-3.174-2.174","v1o6t0jehsdv12w",251,"107.csv","","null","resources/images/coin2.png","null","",NA,NA,NA,NA,""
"image-keyboard-response",536,476936,"0.0-3.175-0.175","v1o6t0jehsdv12w",251,"107.csv","","229.09999999403954","resources/trios/L2T1A1.jpg","38","restless",0.4,0.5,0.4,0.406712247257128,"true"
"image-keyboard-response",537,477339,"0.0-3.175-1.175","v1o6t0jehsdv12w",251,"107.csv","","null","resources/maskTrios/BT1B.jpg","null","",NA,NA,NA,NA,""
"image-keyboard-response",538,478547,"0.0-3.175-2.175","v1o6t0jehsdv12w",251,"107.csv","","null","resources/images/coin2.png","null","",NA,NA,NA,NA,""
"image-keyboard-response",539,478943,"0.0-3.176-0.176","v1o6t0jehsdv12w",251,"107.csv","","394.20000000298023","resources/trios/L4T4A1.jpg","38","restless",0.4,0.5,0.4,0.428648976209867,"true"
"image-keyboard-response",540,479346,"0.0-3.176-1.176","v1o6t0jehsdv12w",251,"107.csv","","null","resources/maskTrios/BT4B.jpg","null","",NA,NA,NA,NA,""
"image-keyboard-response",541,480553,"0.0-3.176-2.176","v1o6t0jehsdv12w",251,"107.csv","","null","resources/images/coin2.png","null","",NA,NA,NA,NA,""
"image-keyboard-response",542,480974,"0.0-3.177-0.177","v1o6t0jehsdv12w",251,"107.csv","","419","resources/trios/L2T4A3.jpg","38","restless",0.4,0.6,0.4,0.186383112196832,"true"
"image-keyboard-response",543,481382,"0.0-3.177-1.177","v1o6t0jehsdv12w",251,"107.csv","","null","resources/maskTrios/BT4B.jpg","null","",NA,NA,NA,NA,""
"image-keyboard-response",544,482589,"0.0-3.177-2.177","v1o6t0jehsdv12w",251,"107.csv","","null","resources/images/coin2.png","null","",NA,NA,NA,NA,""
"image-keyboard-response",545,482879,"0.0-3.178-0.178","v1o6t0jehsdv12w",251,"107.csv","","288.19999998807907","resources/trios/L2T4A3.jpg","38","restless",0.3,0.6,0.4,0.891006859351657,"false"
"image-keyboard-response",546,483287,"0.0-3.178-1.178","v1o6t0jehsdv12w",251,"107.csv","","null","resources/maskTrios/BT4B.jpg","null","",NA,NA,NA,NA,""
"image-keyboard-response",547,484494,"0.0-3.178-2.178","v1o6t0jehsdv12w",251,"107.csv","","null","resources/images/fishbone.png","null","",NA,NA,NA,NA,""
"image-keyboard-response",548,484701,"0.0-3.179-0.179","v1o6t0jehsdv12w",251,"107.csv","","205.29999999701977","resources/trios/L2T1A3.jpg","37","restless",0.3,0.6,0.4,0.853532183385669,"false"
"image-keyboard-response",549,485109,"0.0-3.179-1.179","v1o6t0jehsdv12w",251,"107.csv","","null","resources/maskTrios/L2BB.jpg","null","",NA,NA,NA,NA,""
"image-keyboard-response",550,486313,"0.0-3.179-2.179","v1o6t0jehsdv12w",251,"107.csv","","null","resources/images/fishbone.png","null","",NA,NA,NA,NA,""
"image-keyboard-response",551,487154,"0.0-3.180-0.180","v1o6t0jehsdv12w",251,"107.csv","","839.4000000059605","resources/trios/L2T1A3.jpg","39","restless",0.3,0.6,0.4,0.482819633268414,"false"
"image-keyboard-response",552,487558,"0.0-3.180-1.180","v1o6t0jehsdv12w",251,"107.csv","","null","resources/maskTrios/BBA3.jpg","null","",NA,NA,NA,NA,""
"image-keyboard-response",553,488765,"0.0-3.180-2.180","v1o6t0jehsdv12w",251,"107.csv","","null","resources/images/fishbone.png","null","",NA,NA,NA,NA,""
"image-keyboard-response",554,489051,"0.0-3.181-0.181","v1o6t0jehsdv12w",251,"107.csv","","283.69999998807907","resources/trios/L2T1A1.jpg","38","restless",0.3,0.6,0.4,0.833741458512943,"false"
"image-keyboard-response",555,489454,"0.0-3.181-1.181","v1o6t0jehsdv12w",251,"107.csv","","null","resources/maskTrios/BT1B.jpg","null","",NA,NA,NA,NA,""
"image-keyboard-response",556,490660,"0.0-3.181-2.181","v1o6t0jehsdv12w",251,"107.csv","","null","resources/images/fishbone.png","null","",NA,NA,NA,NA,""
"image-keyboard-response",557,491452,"0.0-3.182-0.182","v1o6t0jehsdv12w",251,"107.csv","","789.2999999970198","resources/trios/L4T1A1.jpg","37","restless",0.3,0.6,0.4,0.420527677968733,"false"
"image-keyboard-response",558,491859,"0.0-3.182-1.182","v1o6t0jehsdv12w",251,"107.csv","","null","resources/maskTrios/L4BB.jpg","null","",NA,NA,NA,NA,""
"image-keyboard-response",559,493066,"0.0-3.182-2.182","v1o6t0jehsdv12w",251,"107.csv","","null","resources/images/fishbone.png","null","",NA,NA,NA,NA,""
"image-keyboard-response",560,494194,"0.0-3.183-0.183","v1o6t0jehsdv12w",251,"107.csv","","1126.7999999970198","resources/trios/L2T1A1.jpg","39","restless",0.3,0.5,0.5,0.880654151009269,"false"
"image-keyboard-response",561,494601,"0.0-3.183-1.183","v1o6t0jehsdv12w",251,"107.csv","","null","resources/maskTrios/BBA1.jpg","null","",NA,NA,NA,NA,""
"image-keyboard-response",562,495808,"0.0-3.183-2.183","v1o6t0jehsdv12w",251,"107.csv","","null","resources/images/fishbone.png","null","",NA,NA,NA,NA,""
"image-keyboard-response",563,496165,"0.0-3.184-0.184","v1o6t0jehsdv12w",251,"107.csv","","354.59999999403954","resources/trios/L4T1A3.jpg","38","restless",0.3,0.5,0.5,0.194808549678818,"true"
"image-keyboard-response",564,496572,"0.0-3.184-1.184","v1o6t0jehsdv12w",251,"107.csv","","null","resources/maskTrios/BT1B.jpg","null","",NA,NA,NA,NA,""
"image-keyboard-response",565,497778,"0.0-3.184-2.184","v1o6t0jehsdv12w",251,"107.csv","","null","resources/images/coin2.png","null","",NA,NA,NA,NA,""
"image-keyboard-response",566,506060,"0.0-3.185-0.185","v1o6t0jehsdv12w",251,"107.csv","","8280.90000000596","resources/trios/L4T4A1.jpg","38","restless",0.3,0.5,0.5,0.798850044383199,"false"
"image-keyboard-response",567,506467,"0.0-3.185-1.185","v1o6t0jehsdv12w",251,"107.csv","","null","resources/maskTrios/BT4B.jpg","null","",NA,NA,NA,NA,""
"image-keyboard-response",568,507674,"0.0-3.185-2.185","v1o6t0jehsdv12w",251,"107.csv","","null","resources/images/fishbone.png","null","",NA,NA,NA,NA,""
"image-keyboard-response",569,508111,"0.0-3.186-0.186","v1o6t0jehsdv12w",251,"107.csv","","435.5","resources/trios/L2T1A3.jpg","39","restless",0.3,0.5,0.5,0.695566738622851,"false"
"image-keyboard-response",570,508517,"0.0-3.186-1.186","v1o6t0jehsdv12w",251,"107.csv","","null","resources/maskTrios/BBA3.jpg","null","",NA,NA,NA,NA,""
"image-keyboard-response",571,509723,"0.0-3.186-2.186","v1o6t0jehsdv12w",251,"107.csv","","null","resources/images/fishbone.png","null","",NA,NA,NA,NA,""
"image-keyboard-response",572,510139,"0.0-3.187-0.187","v1o6t0jehsdv12w",251,"107.csv","","414","resources/trios/L2T4A3.jpg","38","restless",0.3,0.5,0.5,0.980114435782229,"false"
"image-keyboard-response",573,510543,"0.0-3.187-1.187","v1o6t0jehsdv12w",251,"107.csv","","null","resources/maskTrios/BT4B.jpg","null","",NA,NA,NA,NA,""
"image-keyboard-response",574,511749,"0.0-3.187-2.187","v1o6t0jehsdv12w",251,"107.csv","","null","resources/images/fishbone.png","null","",NA,NA,NA,NA,""
"image-keyboard-response",575,512066,"0.0-3.188-0.188","v1o6t0jehsdv12w",251,"107.csv","","314.59999999403954","resources/trios/L4T4A1.jpg","37","restless",0.2,0.5,0.5,0.235607021906913,"false"
"image-keyboard-response",576,512474,"0.0-3.188-1.188","v1o6t0jehsdv12w",251,"107.csv","","null","resources/maskTrios/L4BB.jpg","null","",NA,NA,NA,NA,""
"image-keyboard-response",577,513681,"0.0-3.188-2.188","v1o6t0jehsdv12w",251,"107.csv","","null","resources/images/fishbone.png","null","",NA,NA,NA,NA,""
"image-keyboard-response",578,514049,"0.0-3.189-0.189","v1o6t0jehsdv12w",251,"107.csv","","365.79999999701977","resources/trios/L4T1A1.jpg","38","restless",0.2,0.5,0.5,0.762691204575053,"false"
"image-keyboard-response",579,514456,"0.0-3.189-1.189","v1o6t0jehsdv12w",251,"107.csv","","null","resources/maskTrios/BT1B.jpg","null","",NA,NA,NA,NA,""
"image-keyboard-response",580,515663,"0.0-3.189-2.189","v1o6t0jehsdv12w",251,"107.csv","","null","resources/images/fishbone.png","null","",NA,NA,NA,NA,""
"image-keyboard-response",581,516042,"0.0-3.190-0.190","v1o6t0jehsdv12w",251,"107.csv","","376.70000000298023","resources/trios/L2T1A1.jpg","39","restless",0.2,0.5,0.5,0.461526427247392,"true"
"image-keyboard-response",582,516446,"0.0-3.190-1.190","v1o6t0jehsdv12w",251,"107.csv","","null","resources/maskTrios/BBA1.jpg","null","",NA,NA,NA,NA,""
"image-keyboard-response",583,517653,"0.0-3.190-2.190","v1o6t0jehsdv12w",251,"107.csv","","null","resources/images/coin2.png","null","",NA,NA,NA,NA,""
"image-keyboard-response",584,518111,"0.0-3.191-0.191","v1o6t0jehsdv12w",251,"107.csv","","455.8999999910593","resources/trios/L4T1A3.jpg","39","restless",0.2,0.5,0.5,0.754018652411768,"false"
"image-keyboard-response",585,518518,"0.0-3.191-1.191","v1o6t0jehsdv12w",251,"107.csv","","null","resources/maskTrios/BBA3.jpg","null","",NA,NA,NA,NA,""
"image-keyboard-response",586,519725,"0.0-3.191-2.191","v1o6t0jehsdv12w",251,"107.csv","","null","resources/images/fishbone.png","null","",NA,NA,NA,NA,""
"image-keyboard-response",587,520286,"0.0-3.192-0.192","v1o6t0jehsdv12w",251,"107.csv","","559","resources/trios/L2T1A3.jpg","37","restless",0.2,0.5,0.5,0.703126626998957,"false"
"image-keyboard-response",588,520694,"0.0-3.192-1.192","v1o6t0jehsdv12w",251,"107.csv","","null","resources/maskTrios/L2BB.jpg","null","",NA,NA,NA,NA,""
"image-keyboard-response",589,521901,"0.0-3.192-2.192","v1o6t0jehsdv12w",251,"107.csv","","null","resources/images/fishbone.png","null","",NA,NA,NA,NA,""
"image-keyboard-response",590,522194,"0.0-3.193-0.193","v1o6t0jehsdv12w",251,"107.csv","","291","resources/trios/L2T1A3.jpg","38","restless",0.2,0.5,0.5,0.910955261895764,"false"
"image-keyboard-response",591,522601,"0.0-3.193-1.193","v1o6t0jehsdv12w",251,"107.csv","","null","resources/maskTrios/BT1B.jpg","null","",NA,NA,NA,NA,""
"image-keyboard-response",592,523808,"0.0-3.193-2.193","v1o6t0jehsdv12w",251,"107.csv","","null","resources/images/fishbone.png","null","",NA,NA,NA,NA,""
"image-keyboard-response",593,524254,"0.0-3.194-0.194","v1o6t0jehsdv12w",251,"107.csv","","444.19999998807907","resources/trios/L2T1A1.jpg","38","restless",0.2,0.5,0.5,0.625724761912202,"false"
"image-keyboard-response",594,524661,"0.0-3.194-1.194","v1o6t0jehsdv12w",251,"107.csv","","null","resources/maskTrios/BT1B.jpg","null","",NA,NA,NA,NA,""
"image-keyboard-response",595,525868,"0.0-3.194-2.194","v1o6t0jehsdv12w",251,"107.csv","","null","resources/images/fishbone.png","null","",NA,NA,NA,NA,""
"image-keyboard-response",596,526161,"0.0-3.195-0.195","v1o6t0jehsdv12w",251,"107.csv","","290.90000000596046","resources/trios/L4T4A1.jpg","39","restless",0.2,0.5,0.5,0.36875293957852,"true"
"image-keyboard-response",597,526568,"0.0-3.195-1.195","v1o6t0jehsdv12w",251,"107.csv","","null","resources/maskTrios/BBA1.jpg","null","",NA,NA,NA,NA,""
"image-keyboard-response",598,527775,"0.0-3.195-2.195","v1o6t0jehsdv12w",251,"107.csv","","null","resources/images/coin2.png","null","",NA,NA,NA,NA,""
"image-keyboard-response",599,528705,"0.0-3.196-0.196","v1o6t0jehsdv12w",251,"107.csv","","928","resources/trios/L2T1A1.jpg","39","restless",0.2,0.5,0.5,0.658864035297567,"false"
"image-keyboard-response",600,529113,"0.0-3.196-1.196","v1o6t0jehsdv12w",251,"107.csv","","null","resources/maskTrios/BBA1.jpg","null","",NA,NA,NA,NA,""
"image-keyboard-response",601,530316,"0.0-3.196-2.196","v1o6t0jehsdv12w",251,"107.csv","","null","resources/images/fishbone.png","null","",NA,NA,NA,NA,""
"image-keyboard-response",602,532869,"0.0-3.197-0.197","v1o6t0jehsdv12w",251,"107.csv","","2550.2000000029802","resources/trios/L4T1A1.jpg","37","restless",0.2,0.5,0.5,0.940486220135462,"false"
"image-keyboard-response",603,533276,"0.0-3.197-1.197","v1o6t0jehsdv12w",251,"107.csv","","null","resources/maskTrios/L4BB.jpg","null","",NA,NA,NA,NA,""
"image-keyboard-response",604,534483,"0.0-3.197-2.197","v1o6t0jehsdv12w",251,"107.csv","","null","resources/images/fishbone.png","null","",NA,NA,NA,NA,""
"image-keyboard-response",605,534994,"0.0-3.198-0.198","v1o6t0jehsdv12w",251,"107.csv","","508.8999999910593","resources/trios/L2T1A3.jpg","38","restless",0.2,0.4,0.5,0.934048875179287,"false"
