"trial_type","trial_index","time_elapsed","internal_node_id","subject","participantCode","walkNumber","success","rt","stimulus","key_press","test_part","leftProb","midProb","rightProb","generatedNum","correct"
"pavlovia",0,1390,"0.0-0.0","ogyu25hclg72vak",260,"97.csv","","","","","",NA,NA,NA,NA,""
"fullscreen",1,5950,"0.0-1.0","ogyu25hclg72vak",260,"97.csv","true","","","","",NA,NA,NA,NA,""
"html-keyboard-response",2,11731,"0.0-2.0-0.0","ogyu25hclg72vak",260,"97.csv","","5779.5","<p><font size='6'>Arrrgh!</p></font><p>Can you be the best pirate? Try to find lots of gold! But beware, some islands have more gold than others, and over time, the island with the most gold may change. Can YOU figure it out? </p><font size='6'>GOOD LUCK, CAPTAIN!!!</font><p>Press any key to begin</p>","32","",NA,NA,NA,NA,""
"image-keyboard-response",3,14735,"0.0-2.0-1.0","ogyu25hclg72vak",260,"97.csv","","null","resources/image_sets/111.png","null","",NA,NA,NA,NA,""
"image-keyboard-response",4,17550,"0.0-2.0-2.0","ogyu25hclg72vak",260,"97.csv","","2812.6000003814697","resources/image_sets/left_highlight.png","37","",NA,NA,NA,NA,""
"image-keyboard-response",5,21311,"0.0-2.0-3.0","ogyu25hclg72vak",260,"97.csv","","3758.6000003814697","resources/image_sets/mid_highlight.png","38","",NA,NA,NA,NA,""
"image-keyboard-response",6,22245,"0.0-2.0-4.0","ogyu25hclg72vak",260,"97.csv","","930.5","resources/image_sets/right_highlight.png","39","",NA,NA,NA,NA,""
"image-keyboard-response",7,25217,"0.0-2.0-5.0","ogyu25hclg72vak",260,"97.csv","","2970.0999994277954","resources/image_sets/111.png","13","",NA,NA,NA,NA,""
"image-keyboard-response",8,26489,"0.0-2.0-6.0","ogyu25hclg72vak",260,"97.csv","","1271","resources/images/coin2.png","13","",NA,NA,NA,NA,""
"image-keyboard-response",9,33611,"0.0-2.0-7.0","ogyu25hclg72vak",260,"97.csv","","7119.800000190735","resources/images/fishbone.png","13","",NA,NA,NA,NA,""
"html-keyboard-response",10,37486,"0.0-2.0-8.0","ogyu25hclg72vak",260,"97.csv","","3873.800000190735","<p>Your first journey will be a long one, but you will get a well deserved break at the end</p><p>After the break you will have four more journeys, but each will be much shorter than the first, and you will have breaks in between each</p><p>Press Enter to begin</p>","13","",NA,NA,NA,NA,""
"image-keyboard-response",11,39847,"0.0-3.0-0.0","ogyu25hclg72vak",260,"97.csv","","2356","resources/trios/L2T4A2.jpg","38","restless",0.7,0.3,0.9,0.562434340255872,"false"
"image-keyboard-response",12,40255,"0.0-3.0-1.0","ogyu25hclg72vak",260,"97.csv","","null","resources/maskTrios/BT4B.jpg","null","",NA,NA,NA,NA,""
"image-keyboard-response",13,41463,"0.0-3.0-2.0","ogyu25hclg72vak",260,"97.csv","","null","resources/images/fishbone.png","null","",NA,NA,NA,NA,""
"image-keyboard-response",14,42948,"0.0-3.1-0.1","ogyu25hclg72vak",260,"97.csv","","1481.3000001907349","resources/trios/L2T2A1.jpg","37","restless",0.7,0.3,0.9,0.549034562876119,"true"
"image-keyboard-response",15,43355,"0.0-3.1-1.1","ogyu25hclg72vak",260,"97.csv","","null","resources/maskTrios/L2BB.jpg","null","",NA,NA,NA,NA,""
"image-keyboard-response",16,44563,"0.0-3.1-2.1","ogyu25hclg72vak",260,"97.csv","","null","resources/images/coin2.png","null","",NA,NA,NA,NA,""
"image-keyboard-response",17,45924,"0.0-3.2-0.2","ogyu25hclg72vak",260,"97.csv","","1357.6000003814697","resources/trios/L2T4A1.jpg","37","restless",0.7,0.3,0.8,0.765459017758315,"false"
"image-keyboard-response",18,46330,"0.0-3.2-1.2","ogyu25hclg72vak",260,"97.csv","","null","resources/maskTrios/L2BB.jpg","null","",NA,NA,NA,NA,""
"image-keyboard-response",19,47533,"0.0-3.2-2.2","ogyu25hclg72vak",260,"97.csv","","null","resources/images/fishbone.png","null","",NA,NA,NA,NA,""
"image-keyboard-response",20,47933,"0.0-3.3-0.3","ogyu25hclg72vak",260,"97.csv","","397.4000005722046","resources/trios/L2T2A1.jpg","39","restless",0.7,0.3,0.8,0.710787866898795,"true"
"image-keyboard-response",21,48338,"0.0-3.3-1.3","ogyu25hclg72vak",260,"97.csv","","null","resources/maskTrios/BBA1.jpg","null","",NA,NA,NA,NA,""
"image-keyboard-response",22,49546,"0.0-3.3-2.3","ogyu25hclg72vak",260,"97.csv","","null","resources/images/coin2.png","null","",NA,NA,NA,NA,""
"image-keyboard-response",23,51599,"0.0-3.4-0.4","ogyu25hclg72vak",260,"97.csv","","2050.1000003814697","resources/trios/L4T4A1.jpg","37","restless",0.7,0.3,0.8,0.814849265876192,"false"
"image-keyboard-response",24,52005,"0.0-3.4-1.4","ogyu25hclg72vak",260,"97.csv","","null","resources/maskTrios/L4BB.jpg","null","",NA,NA,NA,NA,""
"image-keyboard-response",25,53213,"0.0-3.4-2.4","ogyu25hclg72vak",260,"97.csv","","null","resources/images/fishbone.png","null","",NA,NA,NA,NA,""
"image-keyboard-response",26,53524,"0.0-3.5-0.5","ogyu25hclg72vak",260,"97.csv","","308.80000019073486","resources/trios/L4T2A2.jpg","38","restless",0.6,0.3,0.8,0.784364705156193,"false"
"image-keyboard-response",27,53930,"0.0-3.5-1.5","ogyu25hclg72vak",260,"97.csv","","null","resources/maskTrios/BT2B.jpg","null","",NA,NA,NA,NA,""
"image-keyboard-response",28,55135,"0.0-3.5-2.5","ogyu25hclg72vak",260,"97.csv","","null","resources/images/fishbone.png","null","",NA,NA,NA,NA,""
"image-keyboard-response",29,55457,"0.0-3.6-0.6","ogyu25hclg72vak",260,"97.csv","","318.1000003814697","resources/trios/L2T2A2.jpg","39","restless",0.6,0.3,0.8,0.652871358404255,"true"
"image-keyboard-response",30,55863,"0.0-3.6-1.6","ogyu25hclg72vak",260,"97.csv","","null","resources/maskTrios/BBA2.jpg","null","",NA,NA,NA,NA,""
"image-keyboard-response",31,57072,"0.0-3.6-2.6","ogyu25hclg72vak",260,"97.csv","","null","resources/images/coin2.png","null","",NA,NA,NA,NA,""
"image-keyboard-response",32,1387817,"0.0-3.7-0.7","ogyu25hclg72vak",260,"97.csv","","80396.69999980927","resources/trios/L2T2A1.jpg","38","restless",0.6,0.3,0.8,0.894754399213476,"false"
"image-keyboard-response",33,1388224,"0.0-3.7-1.7","ogyu25hclg72vak",260,"97.csv","","null","resources/maskTrios/BT2B.jpg","null","",NA,NA,NA,NA,""
"image-keyboard-response",34,1389432,"0.0-3.7-2.7","ogyu25hclg72vak",260,"97.csv","","null","resources/images/fishbone.png","null","",NA,NA,NA,NA,""
"image-keyboard-response",35,1389886,"0.0-3.8-0.8","ogyu25hclg72vak",260,"97.csv","","451.19999980926514","resources/trios/L2T4A1.jpg","38","restless",0.7,0.3,0.8,0.590130879568812,"false"
"image-keyboard-response",36,1390292,"0.0-3.8-1.8","ogyu25hclg72vak",260,"97.csv","","null","resources/maskTrios/BT4B.jpg","null","",NA,NA,NA,NA,""
"image-keyboard-response",37,1391500,"0.0-3.8-2.8","ogyu25hclg72vak",260,"97.csv","","null","resources/images/fishbone.png","null","",NA,NA,NA,NA,""
"image-keyboard-response",38,1391845,"0.0-3.9-0.9","ogyu25hclg72vak",260,"97.csv","","343.5999994277954","resources/trios/L2T4A2.jpg","39","restless",0.7,0.3,0.8,0.462734604066929,"true"
"image-keyboard-response",39,1392251,"0.0-3.9-1.9","ogyu25hclg72vak",260,"97.csv","","null","resources/maskTrios/BBA2.jpg","null","",NA,NA,NA,NA,""
"image-keyboard-response",40,1393460,"0.0-3.9-2.9","ogyu25hclg72vak",260,"97.csv","","null","resources/images/coin2.png","null","",NA,NA,NA,NA,""
"image-keyboard-response",41,1394286,"0.0-3.10-0.10","ogyu25hclg72vak",260,"97.csv","","822.8000001907349","resources/trios/L2T4A2.jpg","37","restless",0.7,0.3,0.8,0.480056146831961,"true"
"image-keyboard-response",42,1394692,"0.0-3.10-1.10","ogyu25hclg72vak",260,"97.csv","","null","resources/maskTrios/L2BB.jpg","null","",NA,NA,NA,NA,""
"image-keyboard-response",43,1395901,"0.0-3.10-2.10","ogyu25hclg72vak",260,"97.csv","","null","resources/images/coin2.png","null","",NA,NA,NA,NA,""
"image-keyboard-response",44,1396228,"0.0-3.11-0.11","ogyu25hclg72vak",260,"97.csv","","326.19999980926514","resources/trios/L2T2A1.jpg","38","restless",0.7,0.3,0.8,0.893528846251702,"false"
"image-keyboard-response",45,1396636,"0.0-3.11-1.11","ogyu25hclg72vak",260,"97.csv","","null","resources/maskTrios/BT2B.jpg","null","",NA,NA,NA,NA,""
"image-keyboard-response",46,1397839,"0.0-3.11-2.11","ogyu25hclg72vak",260,"97.csv","","null","resources/images/fishbone.png","null","",NA,NA,NA,NA,""
"image-keyboard-response",47,1398157,"0.0-3.12-0.12","ogyu25hclg72vak",260,"97.csv","","315.5999994277954","resources/trios/L2T4A2.jpg","37","restless",0.7,0.3,0.7,0.442750495533203,"true"
"image-keyboard-response",48,1398561,"0.0-3.12-1.12","ogyu25hclg72vak",260,"97.csv","","null","resources/maskTrios/L2BB.jpg","null","",NA,NA,NA,NA,""
"image-keyboard-response",49,1399769,"0.0-3.12-2.12","ogyu25hclg72vak",260,"97.csv","","null","resources/images/coin2.png","null","",NA,NA,NA,NA,""
"image-keyboard-response",50,1400137,"0.0-3.13-0.13","ogyu25hclg72vak",260,"97.csv","","365","resources/trios/L4T2A2.jpg","39","restless",0.7,0.3,0.7,0.7056139461838,"false"
"image-keyboard-response",51,1400543,"0.0-3.13-1.13","ogyu25hclg72vak",260,"97.csv","","null","resources/maskTrios/BBA2.jpg","null","",NA,NA,NA,NA,""
"image-keyboard-response",52,1401747,"0.0-3.13-2.13","ogyu25hclg72vak",260,"97.csv","","null","resources/images/fishbone.png","null","",NA,NA,NA,NA,""
"image-keyboard-response",53,1402071,"0.0-3.14-0.14","ogyu25hclg72vak",260,"97.csv","","321.1000003814697","resources/trios/L2T4A2.jpg","38","restless",0.7,0.2,0.7,0.534083837650293,"false"
"image-keyboard-response",54,1402479,"0.0-3.14-1.14","ogyu25hclg72vak",260,"97.csv","","null","resources/maskTrios/BT4B.jpg","null","",NA,NA,NA,NA,""
"image-keyboard-response",55,1403686,"0.0-3.14-2.14","ogyu25hclg72vak",260,"97.csv","","null","resources/images/fishbone.png","null","",NA,NA,NA,NA,""
"image-keyboard-response",56,1404076,"0.0-3.15-0.15","ogyu25hclg72vak",260,"97.csv","","387.19999980926514","resources/trios/L2T2A1.jpg","37","restless",0.7,0.2,0.7,0.0645785564160573,"true"
"image-keyboard-response",57,1404480,"0.0-3.15-1.15","ogyu25hclg72vak",260,"97.csv","","null","resources/maskTrios/L2BB.jpg","null","",NA,NA,NA,NA,""
"image-keyboard-response",58,1405687,"0.0-3.15-2.15","ogyu25hclg72vak",260,"97.csv","","null","resources/images/coin2.png","null","",NA,NA,NA,NA,""
"image-keyboard-response",59,1406076,"0.0-3.16-0.16","ogyu25hclg72vak",260,"97.csv","","386.19999980926514","resources/trios/L4T2A2.jpg","38","restless",0.7,0.2,0.7,0.97291671655955,"false"
"image-keyboard-response",60,1406482,"0.0-3.16-1.16","ogyu25hclg72vak",260,"97.csv","","null","resources/maskTrios/BT2B.jpg","null","",NA,NA,NA,NA,""
"image-keyboard-response",61,1407686,"0.0-3.16-2.16","ogyu25hclg72vak",260,"97.csv","","null","resources/images/fishbone.png","null","",NA,NA,NA,NA,""
"image-keyboard-response",62,1407951,"0.0-3.17-0.17","ogyu25hclg72vak",260,"97.csv","","262.79999923706055","resources/trios/L4T2A1.jpg","37","restless",0.7,0.2,0.6,0.615921418709374,"true"
"image-keyboard-response",63,1408358,"0.0-3.17-1.17","ogyu25hclg72vak",260,"97.csv","","null","resources/maskTrios/L4BB.jpg","null","",NA,NA,NA,NA,""
"image-keyboard-response",64,1409562,"0.0-3.17-2.17","ogyu25hclg72vak",260,"97.csv","","null","resources/images/coin2.png","null","",NA,NA,NA,NA,""
"image-keyboard-response",65,1409858,"0.0-3.18-0.18","ogyu25hclg72vak",260,"97.csv","","292.8999996185303","resources/trios/L4T4A2.jpg","39","restless",0.7,0.2,0.6,0.494669761681119,"true"
"image-keyboard-response",66,1410262,"0.0-3.18-1.18","ogyu25hclg72vak",260,"97.csv","","null","resources/maskTrios/BBA2.jpg","null","",NA,NA,NA,NA,""
"image-keyboard-response",67,1411471,"0.0-3.18-2.18","ogyu25hclg72vak",260,"97.csv","","null","resources/images/coin2.png","null","",NA,NA,NA,NA,""
"image-keyboard-response",68,1412484,"0.0-3.19-0.19","ogyu25hclg72vak",260,"97.csv","","1010.3999996185303","resources/trios/L4T2A2.jpg","38","restless",0.6,0.3,0.6,0.0496938809645391,"true"
"image-keyboard-response",69,1412887,"0.0-3.19-1.19","ogyu25hclg72vak",260,"97.csv","","null","resources/maskTrios/BT2B.jpg","null","",NA,NA,NA,NA,""
"image-keyboard-response",70,1414096,"0.0-3.19-2.19","ogyu25hclg72vak",260,"97.csv","","null","resources/images/coin2.png","null","",NA,NA,NA,NA,""
"image-keyboard-response",71,1414390,"0.0-3.20-0.20","ogyu25hclg72vak",260,"97.csv","","291.69999980926514","resources/trios/L4T4A1.jpg","39","restless",0.6,0.3,0.6,0.22940436431101,"true"
"image-keyboard-response",72,1414796,"0.0-3.20-1.20","ogyu25hclg72vak",260,"97.csv","","null","resources/maskTrios/BBA1.jpg","null","",NA,NA,NA,NA,""
"image-keyboard-response",73,1416002,"0.0-3.20-2.20","ogyu25hclg72vak",260,"97.csv","","null","resources/images/coin2.png","null","",NA,NA,NA,NA,""
"image-keyboard-response",74,1416261,"0.0-3.21-0.21","ogyu25hclg72vak",260,"97.csv","","255.80000019073486","resources/trios/L2T2A2.jpg","37","restless",0.6,0.3,0.6,0.803234384763516,"false"
"image-keyboard-response",75,1416668,"0.0-3.21-1.21","ogyu25hclg72vak",260,"97.csv","","null","resources/maskTrios/L2BB.jpg","null","",NA,NA,NA,NA,""
"image-keyboard-response",76,1417872,"0.0-3.21-2.21","ogyu25hclg72vak",260,"97.csv","","null","resources/images/fishbone.png","null","",NA,NA,NA,NA,""
"image-keyboard-response",77,1418103,"0.0-3.22-0.22","ogyu25hclg72vak",260,"97.csv","","228.69999980926514","resources/trios/L4T2A2.jpg","38","restless",0.6,0.3,0.6,0.942965167872543,"false"
"image-keyboard-response",78,1418506,"0.0-3.22-1.22","ogyu25hclg72vak",260,"97.csv","","null","resources/maskTrios/BT2B.jpg","null","",NA,NA,NA,NA,""
"image-keyboard-response",79,1419713,"0.0-3.22-2.22","ogyu25hclg72vak",260,"97.csv","","null","resources/images/fishbone.png","null","",NA,NA,NA,NA,""
"image-keyboard-response",80,1419845,"0.0-3.23-0.23","ogyu25hclg72vak",260,"97.csv","","129","resources/trios/L4T4A1.jpg","39","restless",0.6,0.3,0.6,0.947882818656825,"false"
"image-keyboard-response",81,1420247,"0.0-3.23-1.23","ogyu25hclg72vak",260,"97.csv","","null","resources/maskTrios/BBA1.jpg","null","",NA,NA,NA,NA,""
"image-keyboard-response",82,1421455,"0.0-3.23-2.23","ogyu25hclg72vak",260,"97.csv","","null","resources/images/fishbone.png","null","",NA,NA,NA,NA,""
"image-keyboard-response",83,1421953,"0.0-3.24-0.24","ogyu25hclg72vak",260,"97.csv","","495.6000003814697","resources/trios/L4T2A2.jpg","39","restless",0.6,0.3,0.6,0.074998736344954,"true"
"image-keyboard-response",84,1422356,"0.0-3.24-1.24","ogyu25hclg72vak",260,"97.csv","","null","resources/maskTrios/BBA2.jpg","null","",NA,NA,NA,NA,""
"image-keyboard-response",85,1423563,"0.0-3.24-2.24","ogyu25hclg72vak",260,"97.csv","","null","resources/images/coin2.png","null","",NA,NA,NA,NA,""
"image-keyboard-response",86,1423974,"0.0-3.25-0.25","ogyu25hclg72vak",260,"97.csv","","408.30000019073486","resources/trios/L4T4A1.jpg","38","restless",0.6,0.3,0.6,0.521840331963119,"false"
"image-keyboard-response",87,1424380,"0.0-3.25-1.25","ogyu25hclg72vak",260,"97.csv","","null","resources/maskTrios/BT4B.jpg","null","",NA,NA,NA,NA,""
"image-keyboard-response",88,1425584,"0.0-3.25-2.25","ogyu25hclg72vak",260,"97.csv","","null","resources/images/fishbone.png","null","",NA,NA,NA,NA,""
"image-keyboard-response",89,1425825,"0.0-3.26-0.26","ogyu25hclg72vak",260,"97.csv","","238.5","resources/trios/L4T2A1.jpg","39","restless",0.6,0.3,0.6,0.187659331435878,"true"
"image-keyboard-response",90,1426229,"0.0-3.26-1.26","ogyu25hclg72vak",260,"97.csv","","null","resources/maskTrios/BBA1.jpg","null","",NA,NA,NA,NA,""
"image-keyboard-response",91,1427437,"0.0-3.26-2.26","ogyu25hclg72vak",260,"97.csv","","null","resources/images/coin2.png","null","",NA,NA,NA,NA,""
"image-keyboard-response",92,1427883,"0.0-3.27-0.27","ogyu25hclg72vak",260,"97.csv","","443.4000005722046","resources/trios/L4T2A1.jpg","38","restless",0.6,0.3,0.6,0.909906493326382,"false"
"image-keyboard-response",93,1428290,"0.0-3.27-1.27","ogyu25hclg72vak",260,"97.csv","","null","resources/maskTrios/BT2B.jpg","null","",NA,NA,NA,NA,""
"image-keyboard-response",94,1429496,"0.0-3.27-2.27","ogyu25hclg72vak",260,"97.csv","","null","resources/images/fishbone.png","null","",NA,NA,NA,NA,""
"image-keyboard-response",95,1429760,"0.0-3.28-0.28","ogyu25hclg72vak",260,"97.csv","","260.79999923706055","resources/trios/L2T4A2.jpg","39","restless",0.6,0.3,0.6,0.0801168844231088,"true"
"image-keyboard-response",96,1430163,"0.0-3.28-1.28","ogyu25hclg72vak",260,"97.csv","","null","resources/maskTrios/BBA2.jpg","null","",NA,NA,NA,NA,""
"image-keyboard-response",97,1431372,"0.0-3.28-2.28","ogyu25hclg72vak",260,"97.csv","","null","resources/images/coin2.png","null","",NA,NA,NA,NA,""
"image-keyboard-response",98,1431620,"0.0-3.29-0.29","ogyu25hclg72vak",260,"97.csv","","246","resources/trios/L2T2A1.jpg","37","restless",0.6,0.4,0.6,0.302357068021126,"true"
"image-keyboard-response",99,1432027,"0.0-3.29-1.29","ogyu25hclg72vak",260,"97.csv","","null","resources/maskTrios/L2BB.jpg","null","",NA,NA,NA,NA,""
"image-keyboard-response",100,1433230,"0.0-3.29-2.29","ogyu25hclg72vak",260,"97.csv","","null","resources/images/coin2.png","null","",NA,NA,NA,NA,""
"image-keyboard-response",101,1433487,"0.0-3.30-0.30","ogyu25hclg72vak",260,"97.csv","","253.5999994277954","resources/trios/L4T4A1.jpg","38","restless",0.6,0.4,0.6,0.987402894198663,"false"
"image-keyboard-response",102,1433893,"0.0-3.30-1.30","ogyu25hclg72vak",260,"97.csv","","null","resources/maskTrios/BT4B.jpg","null","",NA,NA,NA,NA,""
"image-keyboard-response",103,1435097,"0.0-3.30-2.30","ogyu25hclg72vak",260,"97.csv","","null","resources/images/fishbone.png","null","",NA,NA,NA,NA,""
"image-keyboard-response",104,1435336,"0.0-3.31-0.31","ogyu25hclg72vak",260,"97.csv","","236.4000005722046","resources/trios/L4T4A1.jpg","37","restless",0.6,0.4,0.6,0.791805060192034,"false"
"image-keyboard-response",105,1435744,"0.0-3.31-1.31","ogyu25hclg72vak",260,"97.csv","","null","resources/maskTrios/L4BB.jpg","null","",NA,NA,NA,NA,""
"image-keyboard-response",106,1436948,"0.0-3.31-2.31","ogyu25hclg72vak",260,"97.csv","","null","resources/images/fishbone.png","null","",NA,NA,NA,NA,""
"image-keyboard-response",107,1437190,"0.0-3.32-0.32","ogyu25hclg72vak",260,"97.csv","","239.30000019073486","resources/trios/L2T2A2.jpg","37","restless",0.6,0.4,0.6,0.903713195848108,"false"
"image-keyboard-response",108,1437597,"0.0-3.32-1.32","ogyu25hclg72vak",260,"97.csv","","null","resources/maskTrios/L2BB.jpg","null","",NA,NA,NA,NA,""
"image-keyboard-response",109,1438804,"0.0-3.32-2.32","ogyu25hclg72vak",260,"97.csv","","null","resources/images/fishbone.png","null","",NA,NA,NA,NA,""
"image-keyboard-response",110,1439032,"0.0-3.33-0.33","ogyu25hclg72vak",260,"97.csv","","225","resources/trios/L4T4A2.jpg","38","restless",0.6,0.4,0.6,0.0264498874999171,"true"
"image-keyboard-response",111,1439438,"0.0-3.33-1.33","ogyu25hclg72vak",260,"97.csv","","null","resources/maskTrios/BT4B.jpg","null","",NA,NA,NA,NA,""
"image-keyboard-response",112,1440642,"0.0-3.33-2.33","ogyu25hclg72vak",260,"97.csv","","null","resources/images/coin2.png","null","",NA,NA,NA,NA,""
"image-keyboard-response",113,1440896,"0.0-3.34-0.34","ogyu25hclg72vak",260,"97.csv","","251.79999923706055","resources/trios/L4T2A2.jpg","39","restless",0.6,0.4,0.6,0.786048028327851,"false"
"image-keyboard-response",114,1441303,"0.0-3.34-1.34","ogyu25hclg72vak",260,"97.csv","","null","resources/maskTrios/BBA2.jpg","null","",NA,NA,NA,NA,""
"image-keyboard-response",115,1442511,"0.0-3.34-2.34","ogyu25hclg72vak",260,"97.csv","","null","resources/images/fishbone.png","null","",NA,NA,NA,NA,""
"image-keyboard-response",116,1442831,"0.0-3.35-0.35","ogyu25hclg72vak",260,"97.csv","","316.5","resources/trios/L2T2A1.jpg","37","restless",0.6,0.5,0.6,0.763173303708944,"false"
"image-keyboard-response",117,1443237,"0.0-3.35-1.35","ogyu25hclg72vak",260,"97.csv","","null","resources/maskTrios/L2BB.jpg","null","",NA,NA,NA,NA,""
"image-keyboard-response",118,1444440,"0.0-3.35-2.35","ogyu25hclg72vak",260,"97.csv","","null","resources/images/fishbone.png","null","",NA,NA,NA,NA,""
"image-keyboard-response",119,1445128,"0.0-3.36-0.36","ogyu25hclg72vak",260,"97.csv","","684.6999998092651","resources/trios/L4T2A1.jpg","38","restless",0.6,0.6,0.6,0.706503671733545,"false"
"image-keyboard-response",120,1445532,"0.0-3.36-1.36","ogyu25hclg72vak",260,"97.csv","","null","resources/maskTrios/BT2B.jpg","null","",NA,NA,NA,NA,""
"image-keyboard-response",121,1446738,"0.0-3.36-2.36","ogyu25hclg72vak",260,"97.csv","","null","resources/images/fishbone.png","null","",NA,NA,NA,NA,""
"image-keyboard-response",122,1447055,"0.0-3.37-0.37","ogyu25hclg72vak",260,"97.csv","","313.3999996185303","resources/trios/L2T4A1.jpg","37","restless",0.6,0.6,0.6,0.52377699285763,"true"
"image-keyboard-response",123,1447459,"0.0-3.37-1.37","ogyu25hclg72vak",260,"97.csv","","null","resources/maskTrios/L2BB.jpg","null","",NA,NA,NA,NA,""
"image-keyboard-response",124,1448663,"0.0-3.37-2.37","ogyu25hclg72vak",260,"97.csv","","null","resources/images/coin2.png","null","",NA,NA,NA,NA,""
"image-keyboard-response",125,1448999,"0.0-3.38-0.38","ogyu25hclg72vak",260,"97.csv","","333.3999996185303","resources/trios/L2T2A2.jpg","39","restless",0.6,0.6,0.6,0.559280827385958,"true"
"image-keyboard-response",126,1449405,"0.0-3.38-1.38","ogyu25hclg72vak",260,"97.csv","","null","resources/maskTrios/BBA2.jpg","null","",NA,NA,NA,NA,""
"image-keyboard-response",127,1450610,"0.0-3.38-2.38","ogyu25hclg72vak",260,"97.csv","","null","resources/images/coin2.png","null","",NA,NA,NA,NA,""
"image-keyboard-response",128,1451304,"0.0-3.39-0.39","ogyu25hclg72vak",260,"97.csv","","691.3000001907349","resources/trios/L2T4A2.jpg","39","restless",0.6,0.6,0.5,0.82418949131843,"false"
"image-keyboard-response",129,1451707,"0.0-3.39-1.39","ogyu25hclg72vak",260,"97.csv","","null","resources/maskTrios/BBA2.jpg","null","",NA,NA,NA,NA,""
"image-keyboard-response",130,1452913,"0.0-3.39-2.39","ogyu25hclg72vak",260,"97.csv","","null","resources/images/fishbone.png","null","",NA,NA,NA,NA,""
"image-keyboard-response",131,1453270,"0.0-3.40-0.40","ogyu25hclg72vak",260,"97.csv","","354.29999923706055","resources/trios/L4T4A1.jpg","37","restless",0.6,0.6,0.5,0.335262171528111,"true"
"image-keyboard-response",132,1453677,"0.0-3.40-1.40","ogyu25hclg72vak",260,"97.csv","","null","resources/maskTrios/L4BB.jpg","null","",NA,NA,NA,NA,""
"image-keyboard-response",133,1454885,"0.0-3.40-2.40","ogyu25hclg72vak",260,"97.csv","","null","resources/images/coin2.png","null","",NA,NA,NA,NA,""
"image-keyboard-response",134,1455470,"0.0-3.41-0.41","ogyu25hclg72vak",260,"97.csv","","581.5","resources/trios/L4T4A1.jpg","39","restless",0.6,0.6,0.5,0.646779239784821,"false"
"image-keyboard-response",135,1455873,"0.0-3.41-1.41","ogyu25hclg72vak",260,"97.csv","","null","resources/maskTrios/BBA1.jpg","null","",NA,NA,NA,NA,""
"image-keyboard-response",136,1457080,"0.0-3.41-2.41","ogyu25hclg72vak",260,"97.csv","","null","resources/images/fishbone.png","null","",NA,NA,NA,NA,""
"image-keyboard-response",137,1457316,"0.0-3.42-0.42","ogyu25hclg72vak",260,"97.csv","","233","resources/trios/L4T2A2.jpg","37","restless",0.6,0.6,0.5,0.238131704687085,"true"
"image-keyboard-response",138,1457722,"0.0-3.42-1.42","ogyu25hclg72vak",260,"97.csv","","null","resources/maskTrios/L4BB.jpg","null","",NA,NA,NA,NA,""
"image-keyboard-response",139,1458930,"0.0-3.42-2.42","ogyu25hclg72vak",260,"97.csv","","null","resources/images/coin2.png","null","",NA,NA,NA,NA,""
"image-keyboard-response",140,1459350,"0.0-3.43-0.43","ogyu25hclg72vak",260,"97.csv","","416.6000003814697","resources/trios/L4T4A1.jpg","38","restless",0.5,0.6,0.5,0.564197400110809,"true"
"image-keyboard-response",141,1459757,"0.0-3.43-1.43","ogyu25hclg72vak",260,"97.csv","","null","resources/maskTrios/BT4B.jpg","null","",NA,NA,NA,NA,""
"image-keyboard-response",142,1460964,"0.0-3.43-2.43","ogyu25hclg72vak",260,"97.csv","","null","resources/images/coin2.png","null","",NA,NA,NA,NA,""
"image-keyboard-response",143,1461237,"0.0-3.44-0.44","ogyu25hclg72vak",260,"97.csv","","270.5","resources/trios/L2T4A1.jpg","39","restless",0.5,0.5,0.6,0.297254707590114,"true"
"image-keyboard-response",144,1461642,"0.0-3.44-1.44","ogyu25hclg72vak",260,"97.csv","","null","resources/maskTrios/BBA1.jpg","null","",NA,NA,NA,NA,""
"image-keyboard-response",145,1462847,"0.0-3.44-2.44","ogyu25hclg72vak",260,"97.csv","","null","resources/images/coin2.png","null","",NA,NA,NA,NA,""
"image-keyboard-response",146,1463283,"0.0-3.45-0.45","ogyu25hclg72vak",260,"97.csv","","433.1000003814697","resources/trios/L4T2A1.jpg","37","restless",0.5,0.5,0.6,0.474787719366051,"true"
"image-keyboard-response",147,1463688,"0.0-3.45-1.45","ogyu25hclg72vak",260,"97.csv","","null","resources/maskTrios/L4BB.jpg","null","",NA,NA,NA,NA,""
"image-keyboard-response",148,1464895,"0.0-3.45-2.45","ogyu25hclg72vak",260,"97.csv","","null","resources/images/coin2.png","null","",NA,NA,NA,NA,""
"image-keyboard-response",149,1465157,"0.0-3.46-0.46","ogyu25hclg72vak",260,"97.csv","","258.19999980926514","resources/trios/L4T4A2.jpg","38","restless",0.5,0.5,0.6,0.659669582236938,"false"
"image-keyboard-response",150,1465564,"0.0-3.46-1.46","ogyu25hclg72vak",260,"97.csv","","null","resources/maskTrios/BT4B.jpg","null","",NA,NA,NA,NA,""
"image-keyboard-response",151,1466771,"0.0-3.46-2.46","ogyu25hclg72vak",260,"97.csv","","null","resources/images/fishbone.png","null","",NA,NA,NA,NA,""
"image-keyboard-response",152,1467008,"0.0-3.47-0.47","ogyu25hclg72vak",260,"97.csv","","233.39999961853027","resources/trios/L2T4A2.jpg","39","restless",0.5,0.5,0.6,0.611896740832637,"false"
"image-keyboard-response",153,1467413,"0.0-3.47-1.47","ogyu25hclg72vak",260,"97.csv","","null","resources/maskTrios/BBA2.jpg","null","",NA,NA,NA,NA,""
"image-keyboard-response",154,1468621,"0.0-3.47-2.47","ogyu25hclg72vak",260,"97.csv","","null","resources/images/fishbone.png","null","",NA,NA,NA,NA,""
"image-keyboard-response",155,1469035,"0.0-3.48-0.48","ogyu25hclg72vak",260,"97.csv","","410.80000019073486","resources/trios/L2T2A2.jpg","39","restless",0.5,0.5,0.5,0.577745616647708,"false"
"image-keyboard-response",156,1469439,"0.0-3.48-1.48","ogyu25hclg72vak",260,"97.csv","","null","resources/maskTrios/BBA2.jpg","null","",NA,NA,NA,NA,""
"image-keyboard-response",157,1470646,"0.0-3.48-2.48","ogyu25hclg72vak",260,"97.csv","","null","resources/images/fishbone.png","null","",NA,NA,NA,NA,""
"image-keyboard-response",158,1470992,"0.0-3.49-0.49","ogyu25hclg72vak",260,"97.csv","","342.8999996185303","resources/trios/L4T4A2.jpg","38","restless",0.5,0.5,0.5,0.0555228957122746,"true"
"image-keyboard-response",159,1471400,"0.0-3.49-1.49","ogyu25hclg72vak",260,"97.csv","","null","resources/maskTrios/BT4B.jpg","null","",NA,NA,NA,NA,""
"image-keyboard-response",160,1472605,"0.0-3.49-2.49","ogyu25hclg72vak",260,"97.csv","","null","resources/images/coin2.png","null","",NA,NA,NA,NA,""
"image-keyboard-response",161,1472884,"0.0-3.50-0.50","ogyu25hclg72vak",260,"97.csv","","276.19999980926514","resources/trios/L4T2A1.jpg","37","restless",0.5,0.6,0.4,0.0110055357251635,"true"
"image-keyboard-response",162,1473288,"0.0-3.50-1.50","ogyu25hclg72vak",260,"97.csv","","null","resources/maskTrios/L4BB.jpg","null","",NA,NA,NA,NA,""
"image-keyboard-response",163,1474497,"0.0-3.50-2.50","ogyu25hclg72vak",260,"97.csv","","null","resources/images/coin2.png","null","",NA,NA,NA,NA,""
"image-keyboard-response",164,1474856,"0.0-3.51-0.51","ogyu25hclg72vak",260,"97.csv","","356.80000019073486","resources/trios/L4T4A2.jpg","39","restless",0.6,0.6,0.4,0.642916555818121,"false"
"image-keyboard-response",165,1475263,"0.0-3.51-1.51","ogyu25hclg72vak",260,"97.csv","","null","resources/maskTrios/BBA2.jpg","null","",NA,NA,NA,NA,""
"image-keyboard-response",166,1476472,"0.0-3.51-2.51","ogyu25hclg72vak",260,"97.csv","","null","resources/images/fishbone.png","null","",NA,NA,NA,NA,""
"image-keyboard-response",167,1476809,"0.0-3.52-0.52","ogyu25hclg72vak",260,"97.csv","","334.19999980926514","resources/trios/L2T4A1.jpg","38","restless",0.6,0.6,0.4,0.880697731640526,"false"
"image-keyboard-response",168,1477213,"0.0-3.52-1.52","ogyu25hclg72vak",260,"97.csv","","null","resources/maskTrios/BT4B.jpg","null","",NA,NA,NA,NA,""
"image-keyboard-response",169,1478421,"0.0-3.52-2.52","ogyu25hclg72vak",260,"97.csv","","null","resources/images/fishbone.png","null","",NA,NA,NA,NA,""
"image-keyboard-response",170,1478639,"0.0-3.53-0.53","ogyu25hclg72vak",260,"97.csv","","215.5","resources/trios/L2T4A2.jpg","39","restless",0.6,0.6,0.4,0.998225076024811,"false"
"image-keyboard-response",171,1479047,"0.0-3.53-1.53","ogyu25hclg72vak",260,"97.csv","","null","resources/maskTrios/BBA2.jpg","null","",NA,NA,NA,NA,""
"image-keyboard-response",172,1480255,"0.0-3.53-2.53","ogyu25hclg72vak",260,"97.csv","","null","resources/images/fishbone.png","null","",NA,NA,NA,NA,""
"image-keyboard-response",173,1480348,"0.0-3.54-0.54","ogyu25hclg72vak",260,"97.csv","","90.40000057220459","resources/trios/L4T4A2.jpg","38","restless",0.6,0.6,0.4,0.745851647116468,"false"
"image-keyboard-response",174,1480755,"0.0-3.54-1.54","ogyu25hclg72vak",260,"97.csv","","null","resources/maskTrios/BT4B.jpg","null","",NA,NA,NA,NA,""
"image-keyboard-response",175,1481963,"0.0-3.54-2.54","ogyu25hclg72vak",260,"97.csv","","null","resources/images/fishbone.png","null","",NA,NA,NA,NA,""
"image-keyboard-response",176,1482186,"0.0-3.55-0.55","ogyu25hclg72vak",260,"97.csv","","219.89999961853027","resources/trios/L4T4A1.jpg","37","restless",0.6,0.6,0.4,0.550147219171972,"true"
"image-keyboard-response",177,1482594,"0.0-3.55-1.55","ogyu25hclg72vak",260,"97.csv","","null","resources/maskTrios/L4BB.jpg","null","",NA,NA,NA,NA,""
"image-keyboard-response",178,1483798,"0.0-3.55-2.55","ogyu25hclg72vak",260,"97.csv","","null","resources/images/coin2.png","null","",NA,NA,NA,NA,""
"image-keyboard-response",179,1484241,"0.0-3.56-0.56","ogyu25hclg72vak",260,"97.csv","","439.4000005722046","resources/trios/L2T4A1.jpg","37","restless",0.6,0.6,0.4,0.749370440467866,"false"
"image-keyboard-response",180,1484647,"0.0-3.56-1.56","ogyu25hclg72vak",260,"97.csv","","null","resources/maskTrios/L2BB.jpg","null","",NA,NA,NA,NA,""
"image-keyboard-response",181,1485854,"0.0-3.56-2.56","ogyu25hclg72vak",260,"97.csv","","null","resources/images/fishbone.png","null","",NA,NA,NA,NA,""
"image-keyboard-response",182,1485996,"0.0-3.57-0.57","ogyu25hclg72vak",260,"97.csv","","138.60000038146973","resources/trios/L2T2A1.jpg","38","restless",0.5,0.6,0.3,0.984368082598495,"false"
"image-keyboard-response",183,1486405,"0.0-3.57-1.57","ogyu25hclg72vak",260,"97.csv","","null","resources/maskTrios/BT2B.jpg","null","",NA,NA,NA,NA,""
"image-keyboard-response",184,1487608,"0.0-3.57-2.57","ogyu25hclg72vak",260,"97.csv","","null","resources/images/fishbone.png","null","",NA,NA,NA,NA,""
"image-keyboard-response",185,1487796,"0.0-3.58-0.58","ogyu25hclg72vak",260,"97.csv","","184.5999994277954","resources/trios/L4T4A2.jpg","37","restless",0.4,0.6,0.3,0.631062753231736,"false"
"image-keyboard-response",186,1488204,"0.0-3.58-1.58","ogyu25hclg72vak",260,"97.csv","","null","resources/maskTrios/L4BB.jpg","null","",NA,NA,NA,NA,""
"image-keyboard-response",187,1489411,"0.0-3.58-2.58","ogyu25hclg72vak",260,"97.csv","","null","resources/images/fishbone.png","null","",NA,NA,NA,NA,""
"image-keyboard-response",188,1489665,"0.0-3.59-0.59","ogyu25hclg72vak",260,"97.csv","","251.80000019073486","resources/trios/L4T4A1.jpg","38","restless",0.4,0.7,0.3,0.994513655814564,"false"
"image-keyboard-response",189,1490072,"0.0-3.59-1.59","ogyu25hclg72vak",260,"97.csv","","null","resources/maskTrios/BT4B.jpg","null","",NA,NA,NA,NA,""
"image-keyboard-response",190,1491279,"0.0-3.59-2.59","ogyu25hclg72vak",260,"97.csv","","null","resources/images/fishbone.png","null","",NA,NA,NA,NA,""
"image-keyboard-response",191,1491504,"0.0-3.60-0.60","ogyu25hclg72vak",260,"97.csv","","221.5","resources/trios/L4T2A1.jpg","37","restless",0.3,0.8,0.3,0.0855396693359365,"true"
"image-keyboard-response",192,1491911,"0.0-3.60-1.60","ogyu25hclg72vak",260,"97.csv","","null","resources/maskTrios/L4BB.jpg","null","",NA,NA,NA,NA,""
"image-keyboard-response",193,1493119,"0.0-3.60-2.60","ogyu25hclg72vak",260,"97.csv","","null","resources/images/coin2.png","null","",NA,NA,NA,NA,""
"image-keyboard-response",194,1493562,"0.0-3.61-0.61","ogyu25hclg72vak",260,"97.csv","","438.69999980926514","resources/trios/L2T2A2.jpg","39","restless",0.3,0.8,0.3,0.354515049753971,"false"
"image-keyboard-response",195,1493966,"0.0-3.61-1.61","ogyu25hclg72vak",260,"97.csv","","null","resources/maskTrios/BBA2.jpg","null","",NA,NA,NA,NA,""
"image-keyboard-response",196,1495172,"0.0-3.61-2.61","ogyu25hclg72vak",260,"97.csv","","null","resources/images/fishbone.png","null","",NA,NA,NA,NA,""
"image-keyboard-response",197,1495455,"0.0-3.62-0.62","ogyu25hclg72vak",260,"97.csv","","280.70000076293945","resources/trios/L2T2A1.jpg","38","restless",0.3,0.8,0.3,0.17058406037247,"true"
"image-keyboard-response",198,1495861,"0.0-3.62-1.62","ogyu25hclg72vak",260,"97.csv","","null","resources/maskTrios/BT2B.jpg","null","",NA,NA,NA,NA,""
"image-keyboard-response",199,1497069,"0.0-3.62-2.62","ogyu25hclg72vak",260,"97.csv","","null","resources/images/coin2.png","null","",NA,NA,NA,NA,""
"image-keyboard-response",200,1497449,"0.0-3.63-0.63","ogyu25hclg72vak",260,"97.csv","","376.5","resources/trios/L4T4A1.jpg","38","restless",0.3,0.8,0.3,0.664723858408682,"true"
"image-keyboard-response",201,1497855,"0.0-3.63-1.63","ogyu25hclg72vak",260,"97.csv","","null","resources/maskTrios/BT4B.jpg","null","",NA,NA,NA,NA,""
"image-keyboard-response",202,1499059,"0.0-3.63-2.63","ogyu25hclg72vak",260,"97.csv","","null","resources/images/coin2.png","null","",NA,NA,NA,NA,""
"image-keyboard-response",203,1499327,"0.0-3.64-0.64","ogyu25hclg72vak",260,"97.csv","","264.80000019073486","resources/trios/L4T2A1.jpg","37","restless",0.3,0.8,0.3,0.27833984117236,"true"
"image-keyboard-response",204,1499730,"0.0-3.64-1.64","ogyu25hclg72vak",260,"97.csv","","null","resources/maskTrios/L4BB.jpg","null","",NA,NA,NA,NA,""
"image-keyboard-response",205,1500936,"0.0-3.64-2.64","ogyu25hclg72vak",260,"97.csv","","null","resources/images/coin2.png","null","",NA,NA,NA,NA,""
"image-keyboard-response",206,1501240,"0.0-3.65-0.65","ogyu25hclg72vak",260,"97.csv","","300.8999996185303","resources/trios/L2T2A2.jpg","39","restless",0.3,0.8,0.3,0.483914093093304,"false"
"image-keyboard-response",207,1501647,"0.0-3.65-1.65","ogyu25hclg72vak",260,"97.csv","","null","resources/maskTrios/BBA2.jpg","null","",NA,NA,NA,NA,""
"image-keyboard-response",208,1502855,"0.0-3.65-2.65","ogyu25hclg72vak",260,"97.csv","","null","resources/images/fishbone.png","null","",NA,NA,NA,NA,""
"image-keyboard-response",209,1503203,"0.0-3.66-0.66","ogyu25hclg72vak",260,"97.csv","","345.80000019073486","resources/trios/L2T4A2.jpg","38","restless",0.3,0.7,0.3,0.0457454527199297,"true"
"image-keyboard-response",210,1503610,"0.0-3.66-1.66","ogyu25hclg72vak",260,"97.csv","","null","resources/maskTrios/BT4B.jpg","null","",NA,NA,NA,NA,""
"image-keyboard-response",211,1504814,"0.0-3.66-2.66","ogyu25hclg72vak",260,"97.csv","","null","resources/images/coin2.png","null","",NA,NA,NA,NA,""
"image-keyboard-response",212,1505194,"0.0-3.67-0.67","ogyu25hclg72vak",260,"97.csv","","377.19999980926514","resources/trios/L4T2A1.jpg","37","restless",0.3,0.7,0.3,0.673503229926148,"false"
"image-keyboard-response",213,1505598,"0.0-3.67-1.67","ogyu25hclg72vak",260,"97.csv","","null","resources/maskTrios/L4BB.jpg","null","",NA,NA,NA,NA,""
"image-keyboard-response",214,1506805,"0.0-3.67-2.67","ogyu25hclg72vak",260,"97.csv","","null","resources/images/fishbone.png","null","",NA,NA,NA,NA,""
"image-keyboard-response",215,1507078,"0.0-3.68-0.68","ogyu25hclg72vak",260,"97.csv","","270.3999996185303","resources/trios/L4T4A1.jpg","38","restless",0.3,0.7,0.3,0.439448792199203,"true"
"image-keyboard-response",216,1507486,"0.0-3.68-1.68","ogyu25hclg72vak",260,"97.csv","","null","resources/maskTrios/BT4B.jpg","null","",NA,NA,NA,NA,""
"image-keyboard-response",217,1508694,"0.0-3.68-2.68","ogyu25hclg72vak",260,"97.csv","","null","resources/images/coin2.png","null","",NA,NA,NA,NA,""
"image-keyboard-response",218,1509150,"0.0-3.69-0.69","ogyu25hclg72vak",260,"97.csv","","453.3999996185303","resources/trios/L4T4A2.jpg","38","restless",0.3,0.7,0.3,0.104929827890432,"true"
"image-keyboard-response",219,1509555,"0.0-3.69-1.69","ogyu25hclg72vak",260,"97.csv","","null","resources/maskTrios/BT4B.jpg","null","",NA,NA,NA,NA,""
"image-keyboard-response",220,1510763,"0.0-3.69-2.69","ogyu25hclg72vak",260,"97.csv","","null","resources/images/coin2.png","null","",NA,NA,NA,NA,""
"image-keyboard-response",221,1511424,"0.0-3.70-0.70","ogyu25hclg72vak",260,"97.csv","","658","resources/trios/L4T4A1.jpg","38","restless",0.3,0.7,0.3,0.819268301645602,"false"
"image-keyboard-response",222,1511831,"0.0-3.70-1.70","ogyu25hclg72vak",260,"97.csv","","null","resources/maskTrios/BT4B.jpg","null","",NA,NA,NA,NA,""
"image-keyboard-response",223,1513039,"0.0-3.70-2.70","ogyu25hclg72vak",260,"97.csv","","null","resources/images/fishbone.png","null","",NA,NA,NA,NA,""
"image-keyboard-response",224,1513333,"0.0-3.71-0.71","ogyu25hclg72vak",260,"97.csv","","291.1000003814697","resources/trios/L4T2A1.jpg","39","restless",0.3,0.7,0.3,0.868475938165396,"false"
"image-keyboard-response",225,1513739,"0.0-3.71-1.71","ogyu25hclg72vak",260,"97.csv","","null","resources/maskTrios/BBA1.jpg","null","",NA,NA,NA,NA,""
"image-keyboard-response",226,1514946,"0.0-3.71-2.71","ogyu25hclg72vak",260,"97.csv","","null","resources/images/fishbone.png","null","",NA,NA,NA,NA,""
"image-keyboard-response",227,1515133,"0.0-3.72-0.72","ogyu25hclg72vak",260,"97.csv","","184.30000019073486","resources/trios/L4T4A2.jpg","37","restless",0.4,0.6,0.3,0.226194459156131,"true"
"image-keyboard-response",228,1515538,"0.0-3.72-1.72","ogyu25hclg72vak",260,"97.csv","","null","resources/maskTrios/L4BB.jpg","null","",NA,NA,NA,NA,""
"image-keyboard-response",229,1516746,"0.0-3.72-2.72","ogyu25hclg72vak",260,"97.csv","","null","resources/images/coin2.png","null","",NA,NA,NA,NA,""
"image-keyboard-response",230,1517493,"0.0-3.73-0.73","ogyu25hclg72vak",260,"97.csv","","743.9000005722046","resources/trios/L4T2A1.jpg","38","restless",0.4,0.6,0.3,0.199350742992708,"true"
"image-keyboard-response",231,1517897,"0.0-3.73-1.73","ogyu25hclg72vak",260,"97.csv","","null","resources/maskTrios/BT2B.jpg","null","",NA,NA,NA,NA,""
"image-keyboard-response",232,1519105,"0.0-3.73-2.73","ogyu25hclg72vak",260,"97.csv","","null","resources/images/coin2.png","null","",NA,NA,NA,NA,""
"image-keyboard-response",233,1519623,"0.0-3.74-0.74","ogyu25hclg72vak",260,"97.csv","","514.3999996185303","resources/trios/L2T4A2.jpg","39","restless",0.4,0.6,0.3,0.567251383642377,"false"
"image-keyboard-response",234,1520030,"0.0-3.74-1.74","ogyu25hclg72vak",260,"97.csv","","null","resources/maskTrios/BBA2.jpg","null","",NA,NA,NA,NA,""
"image-keyboard-response",235,1521238,"0.0-3.74-2.74","ogyu25hclg72vak",260,"97.csv","","null","resources/images/fishbone.png","null","",NA,NA,NA,NA,""
"image-keyboard-response",236,1521464,"0.0-3.75-0.75","ogyu25hclg72vak",260,"97.csv","","223.39999961853027","resources/trios/L4T2A1.jpg","38","restless",0.4,0.6,0.3,0.575053710689074,"true"
"image-keyboard-response",237,1521872,"0.0-3.75-1.75","ogyu25hclg72vak",260,"97.csv","","null","resources/maskTrios/BT2B.jpg","null","",NA,NA,NA,NA,""
"image-keyboard-response",238,1523075,"0.0-3.75-2.75","ogyu25hclg72vak",260,"97.csv","","null","resources/images/coin2.png","null","",NA,NA,NA,NA,""
"image-keyboard-response",239,1525613,"0.0-3.76-0.76","ogyu25hclg72vak",260,"97.csv","","2534.800000190735","resources/trios/L2T2A1.jpg","37","restless",0.4,0.6,0.3,0.294546530638485,"true"
"image-keyboard-response",240,1526018,"0.0-3.76-1.76","ogyu25hclg72vak",260,"97.csv","","null","resources/maskTrios/L2BB.jpg","null","",NA,NA,NA,NA,""
"image-keyboard-response",241,1527222,"0.0-3.76-2.76","ogyu25hclg72vak",260,"97.csv","","null","resources/images/coin2.png","null","",NA,NA,NA,NA,""
"image-keyboard-response",242,1536174,"0.0-3.77-0.77","ogyu25hclg72vak",260,"97.csv","","8949.300000190735","resources/trios/L4T2A1.jpg","39","restless",0.4,0.6,0.3,0.685352306466079,"false"
"image-keyboard-response",243,1536581,"0.0-3.77-1.77","ogyu25hclg72vak",260,"97.csv","","null","resources/maskTrios/BBA1.jpg","null","",NA,NA,NA,NA,""
"image-keyboard-response",244,1537786,"0.0-3.77-2.77","ogyu25hclg72vak",260,"97.csv","","null","resources/images/fishbone.png","null","",NA,NA,NA,NA,""
"image-keyboard-response",245,1538081,"0.0-3.78-0.78","ogyu25hclg72vak",260,"97.csv","","291.8999996185303","resources/trios/L2T2A1.jpg","37","restless",0.4,0.6,0.3,0.00672770160347835,"true"
"image-keyboard-response",246,1538489,"0.0-3.78-1.78","ogyu25hclg72vak",260,"97.csv","","null","resources/maskTrios/L2BB.jpg","null","",NA,NA,NA,NA,""
"image-keyboard-response",247,1539697,"0.0-3.78-2.78","ogyu25hclg72vak",260,"97.csv","","null","resources/images/coin2.png","null","",NA,NA,NA,NA,""
"image-keyboard-response",248,1539965,"0.0-3.79-0.79","ogyu25hclg72vak",260,"97.csv","","264.6000003814697","resources/trios/L4T2A2.jpg","37","restless",0.4,0.6,0.4,0.909858452245635,"false"
"image-keyboard-response",249,1540372,"0.0-3.79-1.79","ogyu25hclg72vak",260,"97.csv","","null","resources/maskTrios/L4BB.jpg","null","",NA,NA,NA,NA,""
"image-keyboard-response",250,1541578,"0.0-3.79-2.79","ogyu25hclg72vak",260,"97.csv","","null","resources/images/fishbone.png","null","",NA,NA,NA,NA,""
"image-keyboard-response",251,1541778,"0.0-3.80-0.80","ogyu25hclg72vak",260,"97.csv","","196.4000005722046","resources/trios/L4T2A2.jpg","37","restless",0.4,0.6,0.4,0.438759752413729,"false"
"image-keyboard-response",252,1542185,"0.0-3.80-1.80","ogyu25hclg72vak",260,"97.csv","","null","resources/maskTrios/L4BB.jpg","null","",NA,NA,NA,NA,""
"image-keyboard-response",253,1543389,"0.0-3.80-2.80","ogyu25hclg72vak",260,"97.csv","","null","resources/images/fishbone.png","null","",NA,NA,NA,NA,""
"image-keyboard-response",254,1543745,"0.0-3.81-0.81","ogyu25hclg72vak",260,"97.csv","","353.30000019073486","resources/trios/L2T4A2.jpg","38","restless",0.4,0.6,0.4,0.231514040400433,"true"
"image-keyboard-response",255,1544149,"0.0-3.81-1.81","ogyu25hclg72vak",260,"97.csv","","null","resources/maskTrios/BT4B.jpg","null","",NA,NA,NA,NA,""
"image-keyboard-response",256,1545355,"0.0-3.81-2.81","ogyu25hclg72vak",260,"97.csv","","null","resources/images/coin2.png","null","",NA,NA,NA,NA,""
"image-keyboard-response",257,1546116,"0.0-3.82-0.82","ogyu25hclg72vak",260,"97.csv","","757.6999998092651","resources/trios/L2T4A1.jpg","39","restless",0.4,0.6,0.4,0.801091554196653,"false"
"image-keyboard-response",258,1546522,"0.0-3.82-1.82","ogyu25hclg72vak",260,"97.csv","","null","resources/maskTrios/BBA1.jpg","null","",NA,NA,NA,NA,""
"image-keyboard-response",259,1547730,"0.0-3.82-2.82","ogyu25hclg72vak",260,"97.csv","","null","resources/images/fishbone.png","null","",NA,NA,NA,NA,""
"image-keyboard-response",260,1549797,"0.0-3.83-0.83","ogyu25hclg72vak",260,"97.csv","","2064.699999809265","resources/trios/L2T4A2.jpg","38","restless",0.4,0.6,0.3,0.0360338756886749,"true"
"image-keyboard-response",261,1550200,"0.0-3.83-1.83","ogyu25hclg72vak",260,"97.csv","","null","resources/maskTrios/BT4B.jpg","null","",NA,NA,NA,NA,""
"image-keyboard-response",262,1551405,"0.0-3.83-2.83","ogyu25hclg72vak",260,"97.csv","","null","resources/images/coin2.png","null","",NA,NA,NA,NA,""
"image-keyboard-response",263,1553170,"0.0-3.84-0.84","ogyu25hclg72vak",260,"97.csv","","1761.6999998092651","resources/trios/L2T4A1.jpg","37","restless",0.4,0.5,0.3,0.614710683772919,"false"
"image-keyboard-response",264,1553574,"0.0-3.84-1.84","ogyu25hclg72vak",260,"97.csv","","null","resources/maskTrios/L2BB.jpg","null","",NA,NA,NA,NA,""
"image-keyboard-response",265,1554780,"0.0-3.84-2.84","ogyu25hclg72vak",260,"97.csv","","null","resources/images/fishbone.png","null","",NA,NA,NA,NA,""
"image-keyboard-response",266,1555444,"0.0-3.85-0.85","ogyu25hclg72vak",260,"97.csv","","660.9000005722046","resources/trios/L2T2A2.jpg","38","restless",0.5,0.5,0.3,0.698641982312256,"false"
"image-keyboard-response",267,1555852,"0.0-3.85-1.85","ogyu25hclg72vak",260,"97.csv","","null","resources/maskTrios/BT2B.jpg","null","",NA,NA,NA,NA,""
"image-keyboard-response",268,1557055,"0.0-3.85-2.85","ogyu25hclg72vak",260,"97.csv","","null","resources/images/fishbone.png","null","",NA,NA,NA,NA,""
"image-keyboard-response",269,1557537,"0.0-3.86-0.86","ogyu25hclg72vak",260,"97.csv","","478.29999923706055","resources/trios/L2T2A2.jpg","39","restless",0.5,0.5,0.3,0.493676823566948,"false"
"image-keyboard-response",270,1557945,"0.0-3.86-1.86","ogyu25hclg72vak",260,"97.csv","","null","resources/maskTrios/BBA2.jpg","null","",NA,NA,NA,NA,""
"image-keyboard-response",271,1559149,"0.0-3.86-2.86","ogyu25hclg72vak",260,"97.csv","","null","resources/images/fishbone.png","null","",NA,NA,NA,NA,""
"image-keyboard-response",272,1559491,"0.0-3.87-0.87","ogyu25hclg72vak",260,"97.csv","","339.5999994277954","resources/trios/L4T4A2.jpg","37","restless",0.6,0.5,0.3,0.937828641098078,"false"
"image-keyboard-response",273,1559897,"0.0-3.87-1.87","ogyu25hclg72vak",260,"97.csv","","null","resources/maskTrios/L4BB.jpg","null","",NA,NA,NA,NA,""
"image-keyboard-response",274,1561102,"0.0-3.87-2.87","ogyu25hclg72vak",260,"97.csv","","null","resources/images/fishbone.png","null","",NA,NA,NA,NA,""
"image-keyboard-response",275,1561363,"0.0-3.88-0.88","ogyu25hclg72vak",260,"97.csv","","258.6000003814697","resources/trios/L2T2A2.jpg","38","restless",0.6,0.5,0.3,0.70734463167308,"false"
"image-keyboard-response",276,1561771,"0.0-3.88-1.88","ogyu25hclg72vak",260,"97.csv","","null","resources/maskTrios/BT2B.jpg","null","",NA,NA,NA,NA,""
"image-keyboard-response",277,1562977,"0.0-3.88-2.88","ogyu25hclg72vak",260,"97.csv","","null","resources/images/fishbone.png","null","",NA,NA,NA,NA,""
"image-keyboard-response",278,1563228,"0.0-3.89-0.89","ogyu25hclg72vak",260,"97.csv","","247.80000019073486","resources/trios/L2T2A2.jpg","38","restless",0.6,0.5,0.3,0.33415322962222,"true"
"image-keyboard-response",279,1563636,"0.0-3.89-1.89","ogyu25hclg72vak",260,"97.csv","","null","resources/maskTrios/BT2B.jpg","null","",NA,NA,NA,NA,""
"image-keyboard-response",280,1564844,"0.0-3.89-2.89","ogyu25hclg72vak",260,"97.csv","","null","resources/images/coin2.png","null","",NA,NA,NA,NA,""
"image-keyboard-response",281,1565162,"0.0-3.90-0.90","ogyu25hclg72vak",260,"97.csv","","315.19999980926514","resources/trios/L4T2A2.jpg","39","restless",0.6,0.5,0.3,0.889661517115114,"false"
"image-keyboard-response",282,1565570,"0.0-3.90-1.90","ogyu25hclg72vak",260,"97.csv","","null","resources/maskTrios/BBA2.jpg","null","",NA,NA,NA,NA,""
"image-keyboard-response",283,1566778,"0.0-3.90-2.90","ogyu25hclg72vak",260,"97.csv","","null","resources/images/fishbone.png","null","",NA,NA,NA,NA,""
"image-keyboard-response",284,1567351,"0.0-3.91-0.91","ogyu25hclg72vak",260,"97.csv","","569.7999992370605","resources/trios/L2T2A1.jpg","37","restless",0.6,0.5,0.3,0.0971044631907492,"true"
"image-keyboard-response",285,1567755,"0.0-3.91-1.91","ogyu25hclg72vak",260,"97.csv","","null","resources/maskTrios/L2BB.jpg","null","",NA,NA,NA,NA,""
"image-keyboard-response",286,1568964,"0.0-3.91-2.91","ogyu25hclg72vak",260,"97.csv","","null","resources/images/coin2.png","null","",NA,NA,NA,NA,""
"image-keyboard-response",287,1569835,"0.0-3.92-0.92","ogyu25hclg72vak",260,"97.csv","","868.5","resources/trios/L4T2A2.jpg","38","restless",0.6,0.5,0.3,0.943016159798659,"false"
"image-keyboard-response",288,1570239,"0.0-3.92-1.92","ogyu25hclg72vak",260,"97.csv","","null","resources/maskTrios/BT2B.jpg","null","",NA,NA,NA,NA,""
"image-keyboard-response",289,1571447,"0.0-3.92-2.92","ogyu25hclg72vak",260,"97.csv","","null","resources/images/fishbone.png","null","",NA,NA,NA,NA,""
"image-keyboard-response",290,1572219,"0.0-3.93-0.93","ogyu25hclg72vak",260,"97.csv","","769","resources/trios/L4T4A2.jpg","39","restless",0.6,0.5,0.3,0.632875574866003,"false"
"image-keyboard-response",291,1572622,"0.0-3.93-1.93","ogyu25hclg72vak",260,"97.csv","","null","resources/maskTrios/BBA2.jpg","null","",NA,NA,NA,NA,""
"image-keyboard-response",292,1573829,"0.0-3.93-2.93","ogyu25hclg72vak",260,"97.csv","","null","resources/images/fishbone.png","null","",NA,NA,NA,NA,""
"image-keyboard-response",293,1575523,"0.0-3.94-0.94","ogyu25hclg72vak",260,"97.csv","","1690.5","resources/trios/L2T2A1.jpg","39","restless",0.7,0.5,0.3,0.606660068616453,"false"
"image-keyboard-response",294,1575930,"0.0-3.94-1.94","ogyu25hclg72vak",260,"97.csv","","null","resources/maskTrios/BBA1.jpg","null","",NA,NA,NA,NA,""
"image-keyboard-response",295,1577133,"0.0-3.94-2.94","ogyu25hclg72vak",260,"97.csv","","null","resources/images/fishbone.png","null","",NA,NA,NA,NA,""
"image-keyboard-response",296,1577557,"0.0-3.95-0.95","ogyu25hclg72vak",260,"97.csv","","421.19999980926514","resources/trios/L2T2A2.jpg","37","restless",0.7,0.5,0.3,0.404328642121477,"true"
"image-keyboard-response",297,1577964,"0.0-3.95-1.95","ogyu25hclg72vak",260,"97.csv","","null","resources/maskTrios/L2BB.jpg","null","",NA,NA,NA,NA,""
"image-keyboard-response",298,1579170,"0.0-3.95-2.95","ogyu25hclg72vak",260,"97.csv","","null","resources/images/coin2.png","null","",NA,NA,NA,NA,""
"image-keyboard-response",299,1582671,"0.0-3.96-0.96","ogyu25hclg72vak",260,"97.csv","","3497.7000007629395","resources/trios/L4T4A1.jpg","37","restless",0.7,0.5,0.3,0.341385990459123,"true"
"image-keyboard-response",300,1583079,"0.0-3.96-1.96","ogyu25hclg72vak",260,"97.csv","","null","resources/maskTrios/L4BB.jpg","null","",NA,NA,NA,NA,""
"image-keyboard-response",301,1584286,"0.0-3.96-2.96","ogyu25hclg72vak",260,"97.csv","","null","resources/images/coin2.png","null","",NA,NA,NA,NA,""
"image-keyboard-response",302,1584728,"0.0-3.97-0.97","ogyu25hclg72vak",260,"97.csv","","440.5999994277954","resources/trios/L4T2A2.jpg","38","restless",0.7,0.5,0.3,0.59679577247174,"false"
"image-keyboard-response",303,1585132,"0.0-3.97-1.97","ogyu25hclg72vak",260,"97.csv","","null","resources/maskTrios/BT2B.jpg","null","",NA,NA,NA,NA,""
"image-keyboard-response",304,1586339,"0.0-3.97-2.97","ogyu25hclg72vak",260,"97.csv","","null","resources/images/fishbone.png","null","",NA,NA,NA,NA,""
"image-keyboard-response",305,1587010,"0.0-3.98-0.98","ogyu25hclg72vak",260,"97.csv","","668.3999996185303","resources/trios/L4T4A2.jpg","38","restless",0.7,0.5,0.3,0.382192927522245,"true"
"image-keyboard-response",306,1587414,"0.0-3.98-1.98","ogyu25hclg72vak",260,"97.csv","","null","resources/maskTrios/BT4B.jpg","null","",NA,NA,NA,NA,""
"image-keyboard-response",307,1588622,"0.0-3.98-2.98","ogyu25hclg72vak",260,"97.csv","","null","resources/images/coin2.png","null","",NA,NA,NA,NA,""
"image-keyboard-response",308,1602671,"0.0-3.99-0.99","ogyu25hclg72vak",260,"97.csv","","14045.900000572205","resources/trios/L4T2A1.jpg","37","restless",0.7,0.5,0.3,0.112025298477645,"true"
"image-keyboard-response",309,1603078,"0.0-3.99-1.99","ogyu25hclg72vak",260,"97.csv","","null","resources/maskTrios/L4BB.jpg","null","",NA,NA,NA,NA,""
"image-keyboard-response",310,1604286,"0.0-3.99-2.99","ogyu25hclg72vak",260,"97.csv","","null","resources/images/coin2.png","null","",NA,NA,NA,NA,""
"image-keyboard-response",311,1604554,"0.0-3.100-0.100","ogyu25hclg72vak",260,"97.csv","","266.20000076293945","resources/trios/L4T2A1.jpg","39","restless",0.7,0.5,0.3,0.865433093399061,"false"
"image-keyboard-response",312,1604962,"0.0-3.100-1.100","ogyu25hclg72vak",260,"97.csv","","null","resources/maskTrios/BBA1.jpg","null","",NA,NA,NA,NA,""
"image-keyboard-response",313,1606170,"0.0-3.100-2.100","ogyu25hclg72vak",260,"97.csv","","null","resources/images/fishbone.png","null","",NA,NA,NA,NA,""
"image-keyboard-response",314,1606419,"0.0-3.101-0.101","ogyu25hclg72vak",260,"97.csv","","245.39999961853027","resources/trios/L2T2A1.jpg","37","restless",0.7,0.5,0.3,0.679634309144836,"true"
"image-keyboard-response",315,1606822,"0.0-3.101-1.101","ogyu25hclg72vak",260,"97.csv","","null","resources/maskTrios/L2BB.jpg","null","",NA,NA,NA,NA,""
"image-keyboard-response",316,1608030,"0.0-3.101-2.101","ogyu25hclg72vak",260,"97.csv","","null","resources/images/coin2.png","null","",NA,NA,NA,NA,""
"image-keyboard-response",317,1608586,"0.0-3.102-0.102","ogyu25hclg72vak",260,"97.csv","","552.9000005722046","resources/trios/L2T4A1.jpg","38","restless",0.7,0.5,0.4,0.942147927344979,"false"
"image-keyboard-response",318,1608990,"0.0-3.102-1.102","ogyu25hclg72vak",260,"97.csv","","null","resources/maskTrios/BT4B.jpg","null","",NA,NA,NA,NA,""
"image-keyboard-response",319,1610197,"0.0-3.102-2.102","ogyu25hclg72vak",260,"97.csv","","null","resources/images/fishbone.png","null","",NA,NA,NA,NA,""
"image-keyboard-response",320,1610446,"0.0-3.103-0.103","ogyu25hclg72vak",260,"97.csv","","245.30000019073486","resources/trios/L2T4A2.jpg","37","restless",0.7,0.6,0.3,0.224371562299799,"true"
"image-keyboard-response",321,1610854,"0.0-3.103-1.103","ogyu25hclg72vak",260,"97.csv","","null","resources/maskTrios/L2BB.jpg","null","",NA,NA,NA,NA,""
"image-keyboard-response",322,1612059,"0.0-3.103-2.103","ogyu25hclg72vak",260,"97.csv","","null","resources/images/coin2.png","null","",NA,NA,NA,NA,""
"image-keyboard-response",323,1612970,"0.0-3.104-0.104","ogyu25hclg72vak",260,"97.csv","","908.1000003814697","resources/trios/L4T4A1.jpg","38","restless",0.7,0.6,0.2,0.160142478777479,"true"
"image-keyboard-response",324,1613375,"0.0-3.104-1.104","ogyu25hclg72vak",260,"97.csv","","null","resources/maskTrios/BT4B.jpg","null","",NA,NA,NA,NA,""
"image-keyboard-response",325,1614581,"0.0-3.104-2.104","ogyu25hclg72vak",260,"97.csv","","null","resources/images/coin2.png","null","",NA,NA,NA,NA,""
"image-keyboard-response",326,1614835,"0.0-3.105-0.105","ogyu25hclg72vak",260,"97.csv","","251.5","resources/trios/L2T2A1.jpg","37","restless",0.7,0.6,0.2,0.855224643815022,"false"
"image-keyboard-response",327,1615241,"0.0-3.105-1.105","ogyu25hclg72vak",260,"97.csv","","null","resources/maskTrios/L2BB.jpg","null","",NA,NA,NA,NA,""
"image-keyboard-response",328,1616447,"0.0-3.105-2.105","ogyu25hclg72vak",260,"97.csv","","null","resources/images/fishbone.png","null","",NA,NA,NA,NA,""
"image-keyboard-response",329,1616739,"0.0-3.106-0.106","ogyu25hclg72vak",260,"97.csv","","288.69999980926514","resources/trios/L4T4A1.jpg","38","restless",0.7,0.6,0.2,0.659514797949746,"false"
"image-keyboard-response",330,1617148,"0.0-3.106-1.106","ogyu25hclg72vak",260,"97.csv","","null","resources/maskTrios/BT4B.jpg","null","",NA,NA,NA,NA,""
"image-keyboard-response",331,1618353,"0.0-3.106-2.106","ogyu25hclg72vak",260,"97.csv","","null","resources/images/fishbone.png","null","",NA,NA,NA,NA,""
"image-keyboard-response",332,1618604,"0.0-3.107-0.107","ogyu25hclg72vak",260,"97.csv","","247.80000019073486","resources/trios/L4T4A1.jpg","37","restless",0.7,0.6,0.2,0.321771688221305,"true"
"image-keyboard-response",333,1619013,"0.0-3.107-1.107","ogyu25hclg72vak",260,"97.csv","","null","resources/maskTrios/L4BB.jpg","null","",NA,NA,NA,NA,""
"image-keyboard-response",334,1620222,"0.0-3.107-2.107","ogyu25hclg72vak",260,"97.csv","","null","resources/images/coin2.png","null","",NA,NA,NA,NA,""
"image-keyboard-response",335,1620466,"0.0-3.108-0.108","ogyu25hclg72vak",260,"97.csv","","240.80000019073486","resources/trios/L2T4A2.jpg","38","restless",0.7,0.6,0.3,0.906225848910452,"false"
"image-keyboard-response",336,1620872,"0.0-3.108-1.108","ogyu25hclg72vak",260,"97.csv","","null","resources/maskTrios/BT4B.jpg","null","",NA,NA,NA,NA,""
"image-keyboard-response",337,1622079,"0.0-3.108-2.108","ogyu25hclg72vak",260,"97.csv","","null","resources/images/fishbone.png","null","",NA,NA,NA,NA,""
"image-keyboard-response",338,1622491,"0.0-3.109-0.109","ogyu25hclg72vak",260,"97.csv","","408.9000005722046","resources/trios/L2T4A1.jpg","37","restless",0.7,0.6,0.3,0.294569655541475,"true"
"image-keyboard-response",339,1622897,"0.0-3.109-1.109","ogyu25hclg72vak",260,"97.csv","","null","resources/maskTrios/L2BB.jpg","null","",NA,NA,NA,NA,""
"image-keyboard-response",340,1624104,"0.0-3.109-2.109","ogyu25hclg72vak",260,"97.csv","","null","resources/images/coin2.png","null","",NA,NA,NA,NA,""
"image-keyboard-response",341,1624413,"0.0-3.110-0.110","ogyu25hclg72vak",260,"97.csv","","306.1000003814697","resources/trios/L4T2A2.jpg","38","restless",0.7,0.6,0.3,0.589994281974225,"true"
"image-keyboard-response",342,1624820,"0.0-3.110-1.110","ogyu25hclg72vak",260,"97.csv","","null","resources/maskTrios/BT2B.jpg","null","",NA,NA,NA,NA,""
"image-keyboard-response",343,1626025,"0.0-3.110-2.110","ogyu25hclg72vak",260,"97.csv","","null","resources/images/coin2.png","null","",NA,NA,NA,NA,""
"image-keyboard-response",344,1626379,"0.0-3.111-0.111","ogyu25hclg72vak",260,"97.csv","","351.1000003814697","resources/trios/L4T4A2.jpg","37","restless",0.7,0.6,0.3,0.199211595658672,"true"
"image-keyboard-response",345,1626787,"0.0-3.111-1.111","ogyu25hclg72vak",260,"97.csv","","null","resources/maskTrios/L4BB.jpg","null","",NA,NA,NA,NA,""
"image-keyboard-response",346,1627994,"0.0-3.111-2.111","ogyu25hclg72vak",260,"97.csv","","null","resources/images/coin2.png","null","",NA,NA,NA,NA,""
"image-keyboard-response",347,1628324,"0.0-3.112-0.112","ogyu25hclg72vak",260,"97.csv","","327.3999996185303","resources/trios/L2T4A2.jpg","38","restless",0.7,0.6,0.3,0.589997575924574,"true"
"image-keyboard-response",348,1628730,"0.0-3.112-1.112","ogyu25hclg72vak",260,"97.csv","","null","resources/maskTrios/BT4B.jpg","null","",NA,NA,NA,NA,""
"image-keyboard-response",349,1629938,"0.0-3.112-2.112","ogyu25hclg72vak",260,"97.csv","","null","resources/images/coin2.png","null","",NA,NA,NA,NA,""
"image-keyboard-response",350,1630532,"0.0-3.113-0.113","ogyu25hclg72vak",260,"97.csv","","591.6999998092651","resources/trios/L2T2A1.jpg","37","restless",0.7,0.6,0.4,0.477737219968725,"true"
"image-keyboard-response",351,1630938,"0.0-3.113-1.113","ogyu25hclg72vak",260,"97.csv","","null","resources/maskTrios/L2BB.jpg","null","",NA,NA,NA,NA,""
"image-keyboard-response",352,1632146,"0.0-3.113-2.113","ogyu25hclg72vak",260,"97.csv","","null","resources/images/coin2.png","null","",NA,NA,NA,NA,""
"image-keyboard-response",353,1632374,"0.0-3.114-0.114","ogyu25hclg72vak",260,"97.csv","","225.30000019073486","resources/trios/L2T4A1.jpg","38","restless",0.7,0.7,0.4,0.923848675108459,"false"
"image-keyboard-response",354,1632780,"0.0-3.114-1.114","ogyu25hclg72vak",260,"97.csv","","null","resources/maskTrios/BT4B.jpg","null","",NA,NA,NA,NA,""
"image-keyboard-response",355,1633987,"0.0-3.114-2.114","ogyu25hclg72vak",260,"97.csv","","null","resources/images/fishbone.png","null","",NA,NA,NA,NA,""
"image-keyboard-response",356,1635602,"0.0-3.115-0.115","ogyu25hclg72vak",260,"97.csv","","1612.6000003814697","resources/trios/L2T2A1.jpg","37","restless",0.7,0.7,0.4,0.0438989809767734,"true"
"image-keyboard-response",357,1636005,"0.0-3.115-1.115","ogyu25hclg72vak",260,"97.csv","","null","resources/maskTrios/L2BB.jpg","null","",NA,NA,NA,NA,""
"image-keyboard-response",358,1637213,"0.0-3.115-2.115","ogyu25hclg72vak",260,"97.csv","","null","resources/images/coin2.png","null","",NA,NA,NA,NA,""
"image-keyboard-response",359,1640221,"0.0-3.116-0.116","ogyu25hclg72vak",260,"97.csv","","3005","resources/trios/L2T2A2.jpg","38","restless",0.7,0.7,0.4,0.361028621809356,"true"
"image-keyboard-response",360,1640629,"0.0-3.116-1.116","ogyu25hclg72vak",260,"97.csv","","null","resources/maskTrios/BT2B.jpg","null","",NA,NA,NA,NA,""
"image-keyboard-response",361,1641837,"0.0-3.116-2.116","ogyu25hclg72vak",260,"97.csv","","null","resources/images/coin2.png","null","",NA,NA,NA,NA,""
"image-keyboard-response",362,1642141,"0.0-3.117-0.117","ogyu25hclg72vak",260,"97.csv","","301","resources/trios/L2T4A2.jpg","37","restless",0.7,0.7,0.4,0.614020589207505,"true"
"image-keyboard-response",363,1642547,"0.0-3.117-1.117","ogyu25hclg72vak",260,"97.csv","","null","resources/maskTrios/L2BB.jpg","null","",NA,NA,NA,NA,""
"image-keyboard-response",364,1643750,"0.0-3.117-2.117","ogyu25hclg72vak",260,"97.csv","","null","resources/images/coin2.png","null","",NA,NA,NA,NA,""
"image-keyboard-response",365,1644311,"0.0-3.118-0.118","ogyu25hclg72vak",260,"97.csv","","557.8000001907349","resources/trios/L4T2A2.jpg","38","restless",0.7,0.7,0.4,0.87734585822463,"false"
"image-keyboard-response",366,1644719,"0.0-3.118-1.118","ogyu25hclg72vak",260,"97.csv","","null","resources/maskTrios/BT2B.jpg","null","",NA,NA,NA,NA,""
"image-keyboard-response",367,1645922,"0.0-3.118-2.118","ogyu25hclg72vak",260,"97.csv","","null","resources/images/fishbone.png","null","",NA,NA,NA,NA,""
"image-keyboard-response",368,1646714,"0.0-3.119-0.119","ogyu25hclg72vak",260,"97.csv","","789.9000005722046","resources/trios/L2T2A1.jpg","37","restless",0.7,0.7,0.4,0.17547910827731,"true"
"image-keyboard-response",369,1647122,"0.0-3.119-1.119","ogyu25hclg72vak",260,"97.csv","","null","resources/maskTrios/L2BB.jpg","null","",NA,NA,NA,NA,""
"image-keyboard-response",370,1648328,"0.0-3.119-2.119","ogyu25hclg72vak",260,"97.csv","","null","resources/images/coin2.png","null","",NA,NA,NA,NA,""
"image-keyboard-response",371,1648838,"0.0-3.120-0.120","ogyu25hclg72vak",260,"97.csv","","505.5","resources/trios/L4T2A1.jpg","37","restless",0.7,0.6,0.4,0.493295839013184,"true"
"image-keyboard-response",372,1649246,"0.0-3.120-1.120","ogyu25hclg72vak",260,"97.csv","","null","resources/maskTrios/L4BB.jpg","null","",NA,NA,NA,NA,""
"image-keyboard-response",373,1650452,"0.0-3.120-2.120","ogyu25hclg72vak",260,"97.csv","","null","resources/images/coin2.png","null","",NA,NA,NA,NA,""
"image-keyboard-response",374,1652607,"0.0-3.121-0.121","ogyu25hclg72vak",260,"97.csv","","2152.699999809265","resources/trios/L4T2A1.jpg","37","restless",0.7,0.6,0.4,0.476325171035351,"true"
"image-keyboard-response",375,1653013,"0.0-3.121-1.121","ogyu25hclg72vak",260,"97.csv","","null","resources/maskTrios/L4BB.jpg","null","",NA,NA,NA,NA,""
"image-keyboard-response",376,1654221,"0.0-3.121-2.121","ogyu25hclg72vak",260,"97.csv","","null","resources/images/coin2.png","null","",NA,NA,NA,NA,""
"image-keyboard-response",377,1656224,"0.0-3.122-0.122","ogyu25hclg72vak",260,"97.csv","","2000","resources/trios/L4T2A1.jpg","38","restless",0.7,0.6,0.4,0.410836964799271,"true"
"image-keyboard-response",378,1656630,"0.0-3.122-1.122","ogyu25hclg72vak",260,"97.csv","","null","resources/maskTrios/BT2B.jpg","null","",NA,NA,NA,NA,""
"image-keyboard-response",379,1657838,"0.0-3.122-2.122","ogyu25hclg72vak",260,"97.csv","","null","resources/images/coin2.png","null","",NA,NA,NA,NA,""
"image-keyboard-response",380,1660483,"0.0-3.123-0.123","ogyu25hclg72vak",260,"97.csv","","2641.9000005722046","resources/trios/L2T2A1.jpg","37","restless",0.7,0.6,0.4,0.190736520607725,"true"
"image-keyboard-response",381,1660889,"0.0-3.123-1.123","ogyu25hclg72vak",260,"97.csv","","null","resources/maskTrios/L2BB.jpg","null","",NA,NA,NA,NA,""
"image-keyboard-response",382,1662096,"0.0-3.123-2.123","ogyu25hclg72vak",260,"97.csv","","null","resources/images/coin2.png","null","",NA,NA,NA,NA,""
"image-keyboard-response",383,1662645,"0.0-3.124-0.124","ogyu25hclg72vak",260,"97.csv","","546.3000001907349","resources/trios/L2T2A1.jpg","37","restless",0.7,0.6,0.4,0.0474258180729872,"true"
"image-keyboard-response",384,1663054,"0.0-3.124-1.124","ogyu25hclg72vak",260,"97.csv","","null","resources/maskTrios/L2BB.jpg","null","",NA,NA,NA,NA,""
"image-keyboard-response",385,1664259,"0.0-3.124-2.124","ogyu25hclg72vak",260,"97.csv","","null","resources/images/coin2.png","null","",NA,NA,NA,NA,""
"image-keyboard-response",386,1664609,"0.0-3.125-0.125","ogyu25hclg72vak",260,"97.csv","","347.4000005722046","resources/trios/L4T2A1.jpg","37","restless",0.7,0.6,0.4,0.257447416911283,"true"
"image-keyboard-response",387,1665013,"0.0-3.125-1.125","ogyu25hclg72vak",260,"97.csv","","null","resources/maskTrios/L4BB.jpg","null","",NA,NA,NA,NA,""
"image-keyboard-response",388,1666222,"0.0-3.125-2.125","ogyu25hclg72vak",260,"97.csv","","null","resources/images/coin2.png","null","",NA,NA,NA,NA,""
"image-keyboard-response",389,1666582,"0.0-3.126-0.126","ogyu25hclg72vak",260,"97.csv","","357.5","resources/trios/L4T2A1.jpg","38","restless",0.7,0.6,0.4,0.54607211970959,"true"
"image-keyboard-response",390,1666989,"0.0-3.126-1.126","ogyu25hclg72vak",260,"97.csv","","null","resources/maskTrios/BT2B.jpg","null","",NA,NA,NA,NA,""
"image-keyboard-response",391,1668197,"0.0-3.126-2.126","ogyu25hclg72vak",260,"97.csv","","null","resources/images/coin2.png","null","",NA,NA,NA,NA,""
"image-keyboard-response",392,1668852,"0.0-3.127-0.127","ogyu25hclg72vak",260,"97.csv","","652.1000003814697","resources/trios/L2T4A1.jpg","37","restless",0.7,0.6,0.4,0.545220135031636,"true"
"image-keyboard-response",393,1669255,"0.0-3.127-1.127","ogyu25hclg72vak",260,"97.csv","","null","resources/maskTrios/L2BB.jpg","null","",NA,NA,NA,NA,""
"image-keyboard-response",394,1670463,"0.0-3.127-2.127","ogyu25hclg72vak",260,"97.csv","","null","resources/images/coin2.png","null","",NA,NA,NA,NA,""
"image-keyboard-response",395,1670873,"0.0-3.128-0.128","ogyu25hclg72vak",260,"97.csv","","407.1000003814697","resources/trios/L2T2A2.jpg","38","restless",0.7,0.6,0.4,0.142288949383401,"true"
"image-keyboard-response",396,1671280,"0.0-3.128-1.128","ogyu25hclg72vak",260,"97.csv","","null","resources/maskTrios/BT2B.jpg","null","",NA,NA,NA,NA,""
"image-keyboard-response",397,1672488,"0.0-3.128-2.128","ogyu25hclg72vak",260,"97.csv","","null","resources/images/coin2.png","null","",NA,NA,NA,NA,""
"image-keyboard-response",398,1672799,"0.0-3.129-0.129","ogyu25hclg72vak",260,"97.csv","","307.69999980926514","resources/trios/L2T2A1.jpg","37","restless",0.7,0.6,0.4,0.897367057594091,"false"
"image-keyboard-response",399,1673205,"0.0-3.129-1.129","ogyu25hclg72vak",260,"97.csv","","null","resources/maskTrios/L2BB.jpg","null","",NA,NA,NA,NA,""
"image-keyboard-response",400,1674413,"0.0-3.129-2.129","ogyu25hclg72vak",260,"97.csv","","null","resources/images/fishbone.png","null","",NA,NA,NA,NA,""
"image-keyboard-response",401,1674868,"0.0-3.130-0.130","ogyu25hclg72vak",260,"97.csv","","451.3999996185303","resources/trios/L4T2A1.jpg","38","restless",0.7,0.6,0.4,0.135908955879305,"true"
"image-keyboard-response",402,1675276,"0.0-3.130-1.130","ogyu25hclg72vak",260,"97.csv","","null","resources/maskTrios/BT2B.jpg","null","",NA,NA,NA,NA,""
"image-keyboard-response",403,1676480,"0.0-3.130-2.130","ogyu25hclg72vak",260,"97.csv","","null","resources/images/coin2.png","null","",NA,NA,NA,NA,""
"image-keyboard-response",404,1677227,"0.0-3.131-0.131","ogyu25hclg72vak",260,"97.csv","","744.0999994277954","resources/trios/L2T4A2.jpg","37","restless",0.7,0.6,0.4,0.690801655197717,"true"
"image-keyboard-response",405,1677633,"0.0-3.131-1.131","ogyu25hclg72vak",260,"97.csv","","null","resources/maskTrios/L2BB.jpg","null","",NA,NA,NA,NA,""
"image-keyboard-response",406,1678839,"0.0-3.131-2.131","ogyu25hclg72vak",260,"97.csv","","null","resources/images/coin2.png","null","",NA,NA,NA,NA,""
"image-keyboard-response",407,1679143,"0.0-3.132-0.132","ogyu25hclg72vak",260,"97.csv","","301.6000003814697","resources/trios/L4T2A1.jpg","37","restless",0.7,0.6,0.4,0.710241215196058,"false"
"image-keyboard-response",408,1679547,"0.0-3.132-1.132","ogyu25hclg72vak",260,"97.csv","","null","resources/maskTrios/L4BB.jpg","null","",NA,NA,NA,NA,""
"image-keyboard-response",409,1680754,"0.0-3.132-2.132","ogyu25hclg72vak",260,"97.csv","","null","resources/images/fishbone.png","null","",NA,NA,NA,NA,""
"image-keyboard-response",410,1681027,"0.0-3.133-0.133","ogyu25hclg72vak",260,"97.csv","","269.70000076293945","resources/trios/L2T2A2.jpg","37","restless",0.7,0.6,0.4,0.948940972749229,"false"
"image-keyboard-response",411,1681430,"0.0-3.133-1.133","ogyu25hclg72vak",260,"97.csv","","null","resources/maskTrios/L2BB.jpg","null","",NA,NA,NA,NA,""
"image-keyboard-response",412,1682637,"0.0-3.133-2.133","ogyu25hclg72vak",260,"97.csv","","null","resources/images/fishbone.png","null","",NA,NA,NA,NA,""
"image-keyboard-response",413,1682913,"0.0-3.134-0.134","ogyu25hclg72vak",260,"97.csv","","272.1000003814697","resources/trios/L4T4A1.jpg","38","restless",0.7,0.6,0.4,0.647546677929527,"false"
"image-keyboard-response",414,1683322,"0.0-3.134-1.134","ogyu25hclg72vak",260,"97.csv","","null","resources/maskTrios/BT4B.jpg","null","",NA,NA,NA,NA,""
"image-keyboard-response",415,1684529,"0.0-3.134-2.134","ogyu25hclg72vak",260,"97.csv","","null","resources/images/fishbone.png","null","",NA,NA,NA,NA,""
"image-keyboard-response",416,1684832,"0.0-3.135-0.135","ogyu25hclg72vak",260,"97.csv","","300.0999994277954","resources/trios/L4T4A1.jpg","37","restless",0.8,0.6,0.4,0.920389549677235,"false"
"image-keyboard-response",417,1685239,"0.0-3.135-1.135","ogyu25hclg72vak",260,"97.csv","","null","resources/maskTrios/L4BB.jpg","null","",NA,NA,NA,NA,""
"image-keyboard-response",418,1686443,"0.0-3.135-2.135","ogyu25hclg72vak",260,"97.csv","","null","resources/images/fishbone.png","null","",NA,NA,NA,NA,""
"image-keyboard-response",419,1686627,"0.0-3.136-0.136","ogyu25hclg72vak",260,"97.csv","","181.4000005722046","resources/trios/L2T4A2.jpg","38","restless",0.8,0.6,0.4,0.518504937724759,"true"
"image-keyboard-response",420,1687030,"0.0-3.136-1.136","ogyu25hclg72vak",260,"97.csv","","null","resources/maskTrios/BT4B.jpg","null","",NA,NA,NA,NA,""
"image-keyboard-response",421,1688238,"0.0-3.136-2.136","ogyu25hclg72vak",260,"97.csv","","null","resources/images/coin2.png","null","",NA,NA,NA,NA,""
"image-keyboard-response",422,1688543,"0.0-3.137-0.137","ogyu25hclg72vak",260,"97.csv","","302.19999980926514","resources/trios/L4T2A2.jpg","37","restless",0.8,0.6,0.4,0.833490403281844,"false"
"image-keyboard-response",423,1688947,"0.0-3.137-1.137","ogyu25hclg72vak",260,"97.csv","","null","resources/maskTrios/L4BB.jpg","null","",NA,NA,NA,NA,""
"image-keyboard-response",424,1690154,"0.0-3.137-2.137","ogyu25hclg72vak",260,"97.csv","","null","resources/images/fishbone.png","null","",NA,NA,NA,NA,""
"image-keyboard-response",425,1690618,"0.0-3.138-0.138","ogyu25hclg72vak",260,"97.csv","","461.30000019073486","resources/trios/L2T2A1.jpg","38","restless",0.8,0.6,0.4,0.790254315332929,"false"
"image-keyboard-response",426,1691022,"0.0-3.138-1.138","ogyu25hclg72vak",260,"97.csv","","null","resources/maskTrios/BT2B.jpg","null","",NA,NA,NA,NA,""
"image-keyboard-response",427,1692229,"0.0-3.138-2.138","ogyu25hclg72vak",260,"97.csv","","null","resources/images/fishbone.png","null","",NA,NA,NA,NA,""
"image-keyboard-response",428,1692560,"0.0-3.139-0.139","ogyu25hclg72vak",260,"97.csv","","327.4000005722046","resources/trios/L4T4A2.jpg","39","restless",0.8,0.6,0.4,0.422519678691462,"false"
"image-keyboard-response",429,1692964,"0.0-3.139-1.139","ogyu25hclg72vak",260,"97.csv","","null","resources/maskTrios/BBA2.jpg","null","",NA,NA,NA,NA,""
"image-keyboard-response",430,1694169,"0.0-3.139-2.139","ogyu25hclg72vak",260,"97.csv","","null","resources/images/fishbone.png","null","",NA,NA,NA,NA,""
"image-keyboard-response",431,1694426,"0.0-3.140-0.140","ogyu25hclg72vak",260,"97.csv","","253.69999980926514","resources/trios/L4T2A1.jpg","37","restless",0.8,0.6,0.4,0.728396650876644,"true"
"image-keyboard-response",432,1694830,"0.0-3.140-1.140","ogyu25hclg72vak",260,"97.csv","","null","resources/maskTrios/L4BB.jpg","null","",NA,NA,NA,NA,""
"image-keyboard-response",433,1696038,"0.0-3.140-2.140","ogyu25hclg72vak",260,"97.csv","","null","resources/images/coin2.png","null","",NA,NA,NA,NA,""
"image-keyboard-response",434,1696411,"0.0-3.141-0.141","ogyu25hclg72vak",260,"97.csv","","369.80000019073486","resources/trios/L2T4A2.jpg","38","restless",0.8,0.6,0.4,0.603835210765862,"false"
"image-keyboard-response",435,1696815,"0.0-3.141-1.141","ogyu25hclg72vak",260,"97.csv","","null","resources/maskTrios/BT4B.jpg","null","",NA,NA,NA,NA,""
"image-keyboard-response",436,1698022,"0.0-3.141-2.141","ogyu25hclg72vak",260,"97.csv","","null","resources/images/fishbone.png","null","",NA,NA,NA,NA,""
"image-keyboard-response",437,1701112,"0.0-3.142-0.142","ogyu25hclg72vak",260,"97.csv","","3087.3999996185303","resources/trios/L4T2A2.jpg","37","restless",0.8,0.7,0.4,0.634760527509703,"true"
"image-keyboard-response",438,1701519,"0.0-3.142-1.142","ogyu25hclg72vak",260,"97.csv","","null","resources/maskTrios/L4BB.jpg","null","",NA,NA,NA,NA,""
"image-keyboard-response",439,1702722,"0.0-3.142-2.142","ogyu25hclg72vak",260,"97.csv","","null","resources/images/coin2.png","null","",NA,NA,NA,NA,""
"image-keyboard-response",440,1703387,"0.0-3.143-0.143","ogyu25hclg72vak",260,"97.csv","","661.8000001907349","resources/trios/L2T4A2.jpg","38","restless",0.9,0.7,0.4,0.8865808850711,"false"
"image-keyboard-response",441,1703793,"0.0-3.143-1.143","ogyu25hclg72vak",260,"97.csv","","null","resources/maskTrios/BT4B.jpg","null","",NA,NA,NA,NA,""
"image-keyboard-response",442,1704997,"0.0-3.143-2.143","ogyu25hclg72vak",260,"97.csv","","null","resources/images/fishbone.png","null","",NA,NA,NA,NA,""
"image-keyboard-response",443,1705325,"0.0-3.144-0.144","ogyu25hclg72vak",260,"97.csv","","325.19999980926514","resources/trios/L2T2A2.jpg","37","restless",0.9,0.7,0.4,0.976845689504189,"false"
"image-keyboard-response",444,1705730,"0.0-3.144-1.144","ogyu25hclg72vak",260,"97.csv","","null","resources/maskTrios/L2BB.jpg","null","",NA,NA,NA,NA,""
"image-keyboard-response",445,1706938,"0.0-3.144-2.144","ogyu25hclg72vak",260,"97.csv","","null","resources/images/fishbone.png","null","",NA,NA,NA,NA,""
"image-keyboard-response",446,1707665,"0.0-3.145-0.145","ogyu25hclg72vak",260,"97.csv","","724.3000001907349","resources/trios/L2T2A1.jpg","37","restless",0.9,0.7,0.4,0.670353049486554,"true"
"image-keyboard-response",447,1708072,"0.0-3.145-1.145","ogyu25hclg72vak",260,"97.csv","","null","resources/maskTrios/L2BB.jpg","null","",NA,NA,NA,NA,""
"image-keyboard-response",448,1709276,"0.0-3.145-2.145","ogyu25hclg72vak",260,"97.csv","","null","resources/images/coin2.png","null","",NA,NA,NA,NA,""
"image-keyboard-response",449,1709686,"0.0-3.146-0.146","ogyu25hclg72vak",260,"97.csv","","407","resources/trios/L2T2A2.jpg","38","restless",0.9,0.7,0.4,0.25253562794752,"true"
"image-keyboard-response",450,1710090,"0.0-3.146-1.146","ogyu25hclg72vak",260,"97.csv","","null","resources/maskTrios/BT2B.jpg","null","",NA,NA,NA,NA,""
"image-keyboard-response",451,1711293,"0.0-3.146-2.146","ogyu25hclg72vak",260,"97.csv","","null","resources/images/coin2.png","null","",NA,NA,NA,NA,""
"image-keyboard-response",452,1711663,"0.0-3.147-0.147","ogyu25hclg72vak",260,"97.csv","","367","resources/trios/L4T4A1.jpg","37","restless",0.8,0.7,0.4,0.551779353311852,"true"
"image-keyboard-response",453,1712070,"0.0-3.147-1.147","ogyu25hclg72vak",260,"97.csv","","null","resources/maskTrios/L4BB.jpg","null","",NA,NA,NA,NA,""
"image-keyboard-response",454,1713278,"0.0-3.147-2.147","ogyu25hclg72vak",260,"97.csv","","null","resources/images/coin2.png","null","",NA,NA,NA,NA,""
"image-keyboard-response",455,1713839,"0.0-3.148-0.148","ogyu25hclg72vak",260,"97.csv","","559.3999996185303","resources/trios/L2T2A2.jpg","38","restless",0.8,0.7,0.4,0.654497097021951,"true"
"image-keyboard-response",456,1714242,"0.0-3.148-1.148","ogyu25hclg72vak",260,"97.csv","","null","resources/maskTrios/BT2B.jpg","null","",NA,NA,NA,NA,""
"image-keyboard-response",457,1715447,"0.0-3.148-2.148","ogyu25hclg72vak",260,"97.csv","","null","resources/images/coin2.png","null","",NA,NA,NA,NA,""
"image-keyboard-response",458,1715791,"0.0-3.149-0.149","ogyu25hclg72vak",260,"97.csv","","341.3999996185303","resources/trios/L4T4A2.jpg","37","restless",0.8,0.6,0.4,0.326795776734158,"true"
"image-keyboard-response",459,1716197,"0.0-3.149-1.149","ogyu25hclg72vak",260,"97.csv","","null","resources/maskTrios/L4BB.jpg","null","",NA,NA,NA,NA,""
"image-keyboard-response",460,1717405,"0.0-3.149-2.149","ogyu25hclg72vak",260,"97.csv","","null","resources/images/coin2.png","null","",NA,NA,NA,NA,""
"image-keyboard-response",461,1721216,"0.0-3.150-0.150","ogyu25hclg72vak",260,"97.csv","","3808.5","resources/trios/L4T4A2.jpg","37","restless",0.8,0.6,0.4,0.123580824000294,"true"
"image-keyboard-response",462,1721622,"0.0-3.150-1.150","ogyu25hclg72vak",260,"97.csv","","null","resources/maskTrios/L4BB.jpg","null","",NA,NA,NA,NA,""
"image-keyboard-response",463,1722828,"0.0-3.150-2.150","ogyu25hclg72vak",260,"97.csv","","null","resources/images/coin2.png","null","",NA,NA,NA,NA,""
"image-keyboard-response",464,1723266,"0.0-3.151-0.151","ogyu25hclg72vak",260,"97.csv","","433.9000005722046","resources/trios/L4T2A2.jpg","38","restless",0.8,0.6,0.4,0.121661320053963,"true"
"image-keyboard-response",465,1723672,"0.0-3.151-1.151","ogyu25hclg72vak",260,"97.csv","","null","resources/maskTrios/BT2B.jpg","null","",NA,NA,NA,NA,""
"image-keyboard-response",466,1724880,"0.0-3.151-2.151","ogyu25hclg72vak",260,"97.csv","","null","resources/images/coin2.png","null","",NA,NA,NA,NA,""
"image-keyboard-response",467,1725366,"0.0-3.152-0.152","ogyu25hclg72vak",260,"97.csv","","483.1000003814697","resources/trios/L4T4A1.jpg","37","restless",0.8,0.6,0.4,0.323263314400272,"true"
"image-keyboard-response",468,1725772,"0.0-3.152-1.152","ogyu25hclg72vak",260,"97.csv","","null","resources/maskTrios/L4BB.jpg","null","",NA,NA,NA,NA,""
"image-keyboard-response",469,1726980,"0.0-3.152-2.152","ogyu25hclg72vak",260,"97.csv","","null","resources/images/coin2.png","null","",NA,NA,NA,NA,""
"image-keyboard-response",470,1727462,"0.0-3.153-0.153","ogyu25hclg72vak",260,"97.csv","","478.70000076293945","resources/trios/L4T2A1.jpg","38","restless",0.7,0.5,0.4,0.34765829163661,"true"
"image-keyboard-response",471,1727870,"0.0-3.153-1.153","ogyu25hclg72vak",260,"97.csv","","null","resources/maskTrios/BT2B.jpg","null","",NA,NA,NA,NA,""
"image-keyboard-response",472,1729078,"0.0-3.153-2.153","ogyu25hclg72vak",260,"97.csv","","null","resources/images/coin2.png","null","",NA,NA,NA,NA,""
"image-keyboard-response",473,1729724,"0.0-3.154-0.154","ogyu25hclg72vak",260,"97.csv","","643.7999992370605","resources/trios/L2T4A1.jpg","37","restless",0.7,0.5,0.4,0.81780307212858,"false"
"image-keyboard-response",474,1730130,"0.0-3.154-1.154","ogyu25hclg72vak",260,"97.csv","","null","resources/maskTrios/L2BB.jpg","null","",NA,NA,NA,NA,""
"image-keyboard-response",475,1731337,"0.0-3.154-2.154","ogyu25hclg72vak",260,"97.csv","","null","resources/images/fishbone.png","null","",NA,NA,NA,NA,""
"image-keyboard-response",476,1731633,"0.0-3.155-0.155","ogyu25hclg72vak",260,"97.csv","","293.19999980926514","resources/trios/L4T4A1.jpg","38","restless",0.6,0.5,0.4,0.312336563465374,"true"
"image-keyboard-response",477,1732040,"0.0-3.155-1.155","ogyu25hclg72vak",260,"97.csv","","null","resources/maskTrios/BT4B.jpg","null","",NA,NA,NA,NA,""
"image-keyboard-response",478,1733247,"0.0-3.155-2.155","ogyu25hclg72vak",260,"97.csv","","null","resources/images/coin2.png","null","",NA,NA,NA,NA,""
"image-keyboard-response",479,1733587,"0.0-3.156-0.156","ogyu25hclg72vak",260,"97.csv","","336.5","resources/trios/L2T4A2.jpg","37","restless",0.6,0.6,0.4,0.192790955021426,"true"
"image-keyboard-response",480,1733990,"0.0-3.156-1.156","ogyu25hclg72vak",260,"97.csv","","null","resources/maskTrios/L2BB.jpg","null","",NA,NA,NA,NA,""
"image-keyboard-response",481,1735197,"0.0-3.156-2.156","ogyu25hclg72vak",260,"97.csv","","null","resources/images/coin2.png","null","",NA,NA,NA,NA,""
"image-keyboard-response",482,1735653,"0.0-3.157-0.157","ogyu25hclg72vak",260,"97.csv","","452.80000019073486","resources/trios/L4T2A1.jpg","38","restless",0.6,0.6,0.4,0.447156606835289,"true"
"image-keyboard-response",483,1736057,"0.0-3.157-1.157","ogyu25hclg72vak",260,"97.csv","","null","resources/maskTrios/BT2B.jpg","null","",NA,NA,NA,NA,""
"image-keyboard-response",484,1737264,"0.0-3.157-2.157","ogyu25hclg72vak",260,"97.csv","","null","resources/images/coin2.png","null","",NA,NA,NA,NA,""
"image-keyboard-response",485,1737670,"0.0-3.158-0.158","ogyu25hclg72vak",260,"97.csv","","403.6000003814697","resources/trios/L2T2A2.jpg","37","restless",0.6,0.6,0.4,0.48258741061239,"true"
"image-keyboard-response",486,1738078,"0.0-3.158-1.158","ogyu25hclg72vak",260,"97.csv","","null","resources/maskTrios/L2BB.jpg","null","",NA,NA,NA,NA,""
"image-keyboard-response",487,1739283,"0.0-3.158-2.158","ogyu25hclg72vak",260,"97.csv","","null","resources/images/coin2.png","null","",NA,NA,NA,NA,""
"image-keyboard-response",488,1739903,"0.0-3.159-0.159","ogyu25hclg72vak",260,"97.csv","","617.5","resources/trios/L4T4A1.jpg","38","restless",0.6,0.5,0.4,0.048673396067153,"true"
"image-keyboard-response",489,1740312,"0.0-3.159-1.159","ogyu25hclg72vak",260,"97.csv","","null","resources/maskTrios/BT4B.jpg","null","",NA,NA,NA,NA,""
"image-keyboard-response",490,1741520,"0.0-3.159-2.159","ogyu25hclg72vak",260,"97.csv","","null","resources/images/coin2.png","null","",NA,NA,NA,NA,""
"image-keyboard-response",491,1744182,"0.0-3.160-0.160","ogyu25hclg72vak",260,"97.csv","","2659","resources/trios/L4T4A1.jpg","37","restless",0.6,0.5,0.4,0.896843019405555,"false"
"image-keyboard-response",492,1744589,"0.0-3.160-1.160","ogyu25hclg72vak",260,"97.csv","","null","resources/maskTrios/L4BB.jpg","null","",NA,NA,NA,NA,""
"image-keyboard-response",493,1745797,"0.0-3.160-2.160","ogyu25hclg72vak",260,"97.csv","","null","resources/images/fishbone.png","null","",NA,NA,NA,NA,""
"image-keyboard-response",494,1746342,"0.0-3.161-0.161","ogyu25hclg72vak",260,"97.csv","","542.2000007629395","resources/trios/L2T2A2.jpg","38","restless",0.6,0.5,0.4,0.997376752707439,"false"
"image-keyboard-response",495,1746747,"0.0-3.161-1.161","ogyu25hclg72vak",260,"97.csv","","null","resources/maskTrios/BT2B.jpg","null","",NA,NA,NA,NA,""
"image-keyboard-response",496,1747955,"0.0-3.161-2.161","ogyu25hclg72vak",260,"97.csv","","null","resources/images/fishbone.png","null","",NA,NA,NA,NA,""
"image-keyboard-response",497,1748203,"0.0-3.162-0.162","ogyu25hclg72vak",260,"97.csv","","245","resources/trios/L2T4A1.jpg","37","restless",0.6,0.5,0.4,0.161054151618147,"true"
"image-keyboard-response",498,1748611,"0.0-3.162-1.162","ogyu25hclg72vak",260,"97.csv","","null","resources/maskTrios/L2BB.jpg","null","",NA,NA,NA,NA,""
"image-keyboard-response",499,1749814,"0.0-3.162-2.162","ogyu25hclg72vak",260,"97.csv","","null","resources/images/coin2.png","null","",NA,NA,NA,NA,""
"image-keyboard-response",500,1750062,"0.0-3.163-0.163","ogyu25hclg72vak",260,"97.csv","","245.5999994277954","resources/trios/L4T4A1.jpg","38","restless",0.6,0.5,0.4,0.802370738522092,"false"
"image-keyboard-response",501,1750471,"0.0-3.163-1.163","ogyu25hclg72vak",260,"97.csv","","null","resources/maskTrios/BT4B.jpg","null","",NA,NA,NA,NA,""
"image-keyboard-response",502,1751678,"0.0-3.163-2.163","ogyu25hclg72vak",260,"97.csv","","null","resources/images/fishbone.png","null","",NA,NA,NA,NA,""
"image-keyboard-response",503,1751958,"0.0-3.164-0.164","ogyu25hclg72vak",260,"97.csv","","276.69999980926514","resources/trios/L4T2A1.jpg","37","restless",0.6,0.5,0.4,0.00439440696530191,"true"
"image-keyboard-response",504,1752364,"0.0-3.164-1.164","ogyu25hclg72vak",260,"97.csv","","null","resources/maskTrios/L4BB.jpg","null","",NA,NA,NA,NA,""
"image-keyboard-response",505,1753572,"0.0-3.164-2.164","ogyu25hclg72vak",260,"97.csv","","null","resources/images/coin2.png","null","",NA,NA,NA,NA,""
"image-keyboard-response",506,1753859,"0.0-3.165-0.165","ogyu25hclg72vak",260,"97.csv","","283.5999994277954","resources/trios/L2T4A2.jpg","38","restless",0.6,0.5,0.4,0.862472666386534,"false"
"image-keyboard-response",507,1754268,"0.0-3.165-1.165","ogyu25hclg72vak",260,"97.csv","","null","resources/maskTrios/BT4B.jpg","null","",NA,NA,NA,NA,""
"image-keyboard-response",508,1755472,"0.0-3.165-2.165","ogyu25hclg72vak",260,"97.csv","","null","resources/images/fishbone.png","null","",NA,NA,NA,NA,""
"image-keyboard-response",509,1755816,"0.0-3.166-0.166","ogyu25hclg72vak",260,"97.csv","","341.0999994277954","resources/trios/L2T4A2.jpg","37","restless",0.6,0.5,0.4,0.831219768443845,"false"
"image-keyboard-response",510,1756222,"0.0-3.166-1.166","ogyu25hclg72vak",260,"97.csv","","null","resources/maskTrios/L2BB.jpg","null","",NA,NA,NA,NA,""
"image-keyboard-response",511,1757429,"0.0-3.166-2.166","ogyu25hclg72vak",260,"97.csv","","null","resources/images/fishbone.png","null","",NA,NA,NA,NA,""
"image-keyboard-response",512,1757755,"0.0-3.167-0.167","ogyu25hclg72vak",260,"97.csv","","322.19999980926514","resources/trios/L4T2A1.jpg","38","restless",0.6,0.5,0.4,0.926118384046643,"false"
"image-keyboard-response",513,1758157,"0.0-3.167-1.167","ogyu25hclg72vak",260,"97.csv","","null","resources/maskTrios/BT2B.jpg","null","",NA,NA,NA,NA,""
"image-keyboard-response",514,1759364,"0.0-3.167-2.167","ogyu25hclg72vak",260,"97.csv","","null","resources/images/fishbone.png","null","",NA,NA,NA,NA,""
"image-keyboard-response",515,1759677,"0.0-3.168-0.168","ogyu25hclg72vak",260,"97.csv","","310.8999996185303","resources/trios/L2T4A2.jpg","37","restless",0.6,0.5,0.4,0.353690678228121,"true"
"image-keyboard-response",516,1760081,"0.0-3.168-1.168","ogyu25hclg72vak",260,"97.csv","","null","resources/maskTrios/L2BB.jpg","null","",NA,NA,NA,NA,""
"image-keyboard-response",517,1761289,"0.0-3.168-2.168","ogyu25hclg72vak",260,"97.csv","","null","resources/images/coin2.png","null","",NA,NA,NA,NA,""
"image-keyboard-response",518,1763709,"0.0-3.169-0.169","ogyu25hclg72vak",260,"97.csv","","2417.199999809265","resources/trios/L2T2A2.jpg","38","restless",0.6,0.5,0.4,0.0521551213305065,"true"
"image-keyboard-response",519,1764114,"0.0-3.169-1.169","ogyu25hclg72vak",260,"97.csv","","null","resources/maskTrios/BT2B.jpg","null","",NA,NA,NA,NA,""
"image-keyboard-response",520,1765319,"0.0-3.169-2.169","ogyu25hclg72vak",260,"97.csv","","null","resources/images/coin2.png","null","",NA,NA,NA,NA,""
"image-keyboard-response",521,1765641,"0.0-3.170-0.170","ogyu25hclg72vak",260,"97.csv","","318.5","resources/trios/L2T2A1.jpg","37","restless",0.6,0.5,0.4,0.959388169630078,"false"
"image-keyboard-response",522,1766047,"0.0-3.170-1.170","ogyu25hclg72vak",260,"97.csv","","null","resources/maskTrios/L2BB.jpg","null","",NA,NA,NA,NA,""
"image-keyboard-response",523,1767255,"0.0-3.170-2.170","ogyu25hclg72vak",260,"97.csv","","null","resources/images/fishbone.png","null","",NA,NA,NA,NA,""
"image-keyboard-response",524,1768525,"0.0-3.171-0.171","ogyu25hclg72vak",260,"97.csv","","1267.1000003814697","resources/trios/L2T4A2.jpg","38","restless",0.6,0.5,0.4,0.379597694202084,"true"
"image-keyboard-response",525,1768928,"0.0-3.171-1.171","ogyu25hclg72vak",260,"97.csv","","null","resources/maskTrios/BT4B.jpg","null","",NA,NA,NA,NA,""
"image-keyboard-response",526,1770133,"0.0-3.171-2.171","ogyu25hclg72vak",260,"97.csv","","null","resources/images/coin2.png","null","",NA,NA,NA,NA,""
"image-keyboard-response",527,1770484,"0.0-3.172-0.172","ogyu25hclg72vak",260,"97.csv","","347.69999980926514","resources/trios/L4T4A2.jpg","37","restless",0.6,0.5,0.4,0.275525150901806,"true"
"image-keyboard-response",528,1770889,"0.0-3.172-1.172","ogyu25hclg72vak",260,"97.csv","","null","resources/maskTrios/L4BB.jpg","null","",NA,NA,NA,NA,""
"image-keyboard-response",529,1772097,"0.0-3.172-2.172","ogyu25hclg72vak",260,"97.csv","","null","resources/images/coin2.png","null","",NA,NA,NA,NA,""
"image-keyboard-response",530,1772446,"0.0-3.173-0.173","ogyu25hclg72vak",260,"97.csv","","346","resources/trios/L4T4A2.jpg","38","restless",0.5,0.5,0.4,0.00737416818437264,"true"
"image-keyboard-response",531,1772854,"0.0-3.173-1.173","ogyu25hclg72vak",260,"97.csv","","null","resources/maskTrios/BT4B.jpg","null","",NA,NA,NA,NA,""
"image-keyboard-response",532,1774060,"0.0-3.173-2.173","ogyu25hclg72vak",260,"97.csv","","null","resources/images/coin2.png","null","",NA,NA,NA,NA,""
"image-keyboard-response",533,1774320,"0.0-3.174-0.174","ogyu25hclg72vak",260,"97.csv","","257.80000019073486","resources/trios/L4T4A1.jpg","37","restless",0.5,0.4,0.4,0.678732604160894,"false"
"image-keyboard-response",534,1774723,"0.0-3.174-1.174","ogyu25hclg72vak",260,"97.csv","","null","resources/maskTrios/L4BB.jpg","null","",NA,NA,NA,NA,""
"image-keyboard-response",535,1775930,"0.0-3.174-2.174","ogyu25hclg72vak",260,"97.csv","","null","resources/images/fishbone.png","null","",NA,NA,NA,NA,""
"image-keyboard-response",536,1775977,"0.0-3.175-0.175","ogyu25hclg72vak",260,"97.csv","","44","resources/trios/L2T2A2.jpg","38","restless",0.5,0.3,0.4,0.916046353881093,"false"
"image-keyboard-response",537,1776380,"0.0-3.175-1.175","ogyu25hclg72vak",260,"97.csv","","null","resources/maskTrios/BT2B.jpg","null","",NA,NA,NA,NA,""
"image-keyboard-response",538,1777588,"0.0-3.175-2.175","ogyu25hclg72vak",260,"97.csv","","null","resources/images/fishbone.png","null","",NA,NA,NA,NA,""
"image-keyboard-response",539,1777684,"0.0-3.176-0.176","ogyu25hclg72vak",260,"97.csv","","92.69999980926514","resources/trios/L4T2A1.jpg","37","restless",0.5,0.3,0.4,0.864078286984709,"false"
"image-keyboard-response",540,1778089,"0.0-3.176-1.176","ogyu25hclg72vak",260,"97.csv","","null","resources/maskTrios/L4BB.jpg","null","",NA,NA,NA,NA,""
"image-keyboard-response",541,1779292,"0.0-3.176-2.176","ogyu25hclg72vak",260,"97.csv","","null","resources/images/fishbone.png","null","",NA,NA,NA,NA,""
"image-keyboard-response",542,1779484,"0.0-3.177-0.177","ogyu25hclg72vak",260,"97.csv","","189.19999980926514","resources/trios/L2T2A1.jpg","38","restless",0.5,0.3,0.4,0.927326029791015,"false"
"image-keyboard-response",543,1779889,"0.0-3.177-1.177","ogyu25hclg72vak",260,"97.csv","","null","resources/maskTrios/BT2B.jpg","null","",NA,NA,NA,NA,""
"image-keyboard-response",544,1781096,"0.0-3.177-2.177","ogyu25hclg72vak",260,"97.csv","","null","resources/images/fishbone.png","null","",NA,NA,NA,NA,""
"image-keyboard-response",545,1781266,"0.0-3.178-0.178","ogyu25hclg72vak",260,"97.csv","","166.69999980926514","resources/trios/L2T4A2.jpg","39","restless",0.5,0.3,0.4,0.261099507158567,"true"
"image-keyboard-response",546,1781672,"0.0-3.178-1.178","ogyu25hclg72vak",260,"97.csv","","null","resources/maskTrios/BBA2.jpg","null","",NA,NA,NA,NA,""
"image-keyboard-response",547,1782880,"0.0-3.178-2.178","ogyu25hclg72vak",260,"97.csv","","null","resources/images/coin2.png","null","",NA,NA,NA,NA,""
"image-keyboard-response",548,1783889,"0.0-3.179-0.179","ogyu25hclg72vak",260,"97.csv","","1005.3000001907349","resources/trios/L4T4A2.jpg","37","restless",0.4,0.3,0.4,0.309550205397062,"true"
"image-keyboard-response",549,1784293,"0.0-3.179-1.179","ogyu25hclg72vak",260,"97.csv","","null","resources/maskTrios/L4BB.jpg","null","",NA,NA,NA,NA,""
"image-keyboard-response",550,1785497,"0.0-3.179-2.179","ogyu25hclg72vak",260,"97.csv","","null","resources/images/coin2.png","null","",NA,NA,NA,NA,""
"image-keyboard-response",551,1785654,"0.0-3.180-0.180","ogyu25hclg72vak",260,"97.csv","","154.19999980926514","resources/trios/L2T4A1.jpg","38","restless",0.4,0.3,0.4,0.0562234910471207,"true"
"image-keyboard-response",552,1786062,"0.0-3.180-1.180","ogyu25hclg72vak",260,"97.csv","","null","resources/maskTrios/BT4B.jpg","null","",NA,NA,NA,NA,""
"image-keyboard-response",553,1787272,"0.0-3.180-2.180","ogyu25hclg72vak",260,"97.csv","","null","resources/images/coin2.png","null","",NA,NA,NA,NA,""
"image-keyboard-response",554,1788025,"0.0-3.181-0.181","ogyu25hclg72vak",260,"97.csv","","749.8999996185303","resources/trios/L2T4A2.jpg","37","restless",0.3,0.3,0.4,0.107065534263497,"true"
"image-keyboard-response",555,1788431,"0.0-3.181-1.181","ogyu25hclg72vak",260,"97.csv","","null","resources/maskTrios/L2BB.jpg","null","",NA,NA,NA,NA,""
"image-keyboard-response",556,1789639,"0.0-3.181-2.181","ogyu25hclg72vak",260,"97.csv","","null","resources/images/coin2.png","null","",NA,NA,NA,NA,""
"image-keyboard-response",557,1789925,"0.0-3.182-0.182","ogyu25hclg72vak",260,"97.csv","","282.79999923706055","resources/trios/L2T2A1.jpg","38","restless",0.3,0.3,0.4,0.724116217858546,"false"
"image-keyboard-response",558,1790330,"0.0-3.182-1.182","ogyu25hclg72vak",260,"97.csv","","null","resources/maskTrios/BT2B.jpg","null","",NA,NA,NA,NA,""
"image-keyboard-response",559,1791538,"0.0-3.182-2.182","ogyu25hclg72vak",260,"97.csv","","null","resources/images/fishbone.png","null","",NA,NA,NA,NA,""
"image-keyboard-response",560,1791779,"0.0-3.183-0.183","ogyu25hclg72vak",260,"97.csv","","237.5","resources/trios/L4T4A2.jpg","37","restless",0.2,0.3,0.4,0.886500602983826,"false"
"image-keyboard-response",561,1792187,"0.0-3.183-1.183","ogyu25hclg72vak",260,"97.csv","","null","resources/maskTrios/L4BB.jpg","null","",NA,NA,NA,NA,""
"image-keyboard-response",562,1793394,"0.0-3.183-2.183","ogyu25hclg72vak",260,"97.csv","","null","resources/images/fishbone.png","null","",NA,NA,NA,NA,""
"image-keyboard-response",563,1793643,"0.0-3.184-0.184","ogyu25hclg72vak",260,"97.csv","","246.19999980926514","resources/trios/L2T2A1.jpg","38","restless",0.2,0.3,0.4,0.0344620074286888,"true"
"image-keyboard-response",564,1794047,"0.0-3.184-1.184","ogyu25hclg72vak",260,"97.csv","","null","resources/maskTrios/BT2B.jpg","null","",NA,NA,NA,NA,""
"image-keyboard-response",565,1795251,"0.0-3.184-2.184","ogyu25hclg72vak",260,"97.csv","","null","resources/images/coin2.png","null","",NA,NA,NA,NA,""
"image-keyboard-response",566,1795685,"0.0-3.185-0.185","ogyu25hclg72vak",260,"97.csv","","430.69999980926514","resources/trios/L4T4A2.jpg","37","restless",0.2,0.3,0.4,0.990889030272515,"false"
"image-keyboard-response",567,1796090,"0.0-3.185-1.185","ogyu25hclg72vak",260,"97.csv","","null","resources/maskTrios/L4BB.jpg","null","",NA,NA,NA,NA,""
"image-keyboard-response",568,1797297,"0.0-3.185-2.185","ogyu25hclg72vak",260,"97.csv","","null","resources/images/fishbone.png","null","",NA,NA,NA,NA,""
"image-keyboard-response",569,1797691,"0.0-3.186-0.186","ogyu25hclg72vak",260,"97.csv","","390.4000005722046","resources/trios/L4T2A2.jpg","38","restless",0.2,0.3,0.5,0.577457837249116,"false"
"image-keyboard-response",570,1798097,"0.0-3.186-1.186","ogyu25hclg72vak",260,"97.csv","","null","resources/maskTrios/BT2B.jpg","null","",NA,NA,NA,NA,""
"image-keyboard-response",571,1799305,"0.0-3.186-2.186","ogyu25hclg72vak",260,"97.csv","","null","resources/images/fishbone.png","null","",NA,NA,NA,NA,""
"image-keyboard-response",572,1799661,"0.0-3.187-0.187","ogyu25hclg72vak",260,"97.csv","","353.30000019073486","resources/trios/L2T4A1.jpg","39","restless",0.2,0.4,0.6,0.36142685788853,"true"
"image-keyboard-response",573,1800065,"0.0-3.187-1.187","ogyu25hclg72vak",260,"97.csv","","null","resources/maskTrios/BBA1.jpg","null","",NA,NA,NA,NA,""
"image-keyboard-response",574,1801272,"0.0-3.187-2.187","ogyu25hclg72vak",260,"97.csv","","null","resources/images/coin2.png","null","",NA,NA,NA,NA,""
"image-keyboard-response",575,1801569,"0.0-3.188-0.188","ogyu25hclg72vak",260,"97.csv","","293.5","resources/trios/L4T4A1.jpg","37","restless",0.2,0.5,0.6,0.75493632947426,"false"
"image-keyboard-response",576,1801974,"0.0-3.188-1.188","ogyu25hclg72vak",260,"97.csv","","null","resources/maskTrios/L4BB.jpg","null","",NA,NA,NA,NA,""
"image-keyboard-response",577,1803181,"0.0-3.188-2.188","ogyu25hclg72vak",260,"97.csv","","null","resources/images/fishbone.png","null","",NA,NA,NA,NA,""
"image-keyboard-response",578,1803416,"0.0-3.189-0.189","ogyu25hclg72vak",260,"97.csv","","232.5","resources/trios/L4T4A2.jpg","37","restless",0.2,0.5,0.5,0.613193512685219,"false"
"image-keyboard-response",579,1803822,"0.0-3.189-1.189","ogyu25hclg72vak",260,"97.csv","","null","resources/maskTrios/L4BB.jpg","null","",NA,NA,NA,NA,""
"image-keyboard-response",580,1805030,"0.0-3.189-2.189","ogyu25hclg72vak",260,"97.csv","","null","resources/images/fishbone.png","null","",NA,NA,NA,NA,""
"image-keyboard-response",581,1805866,"0.0-3.190-0.190","ogyu25hclg72vak",260,"97.csv","","832.8999996185303","resources/trios/L2T4A1.jpg","37","restless",0.2,0.5,0.6,0.832779728091065,"false"
"image-keyboard-response",582,1806272,"0.0-3.190-1.190","ogyu25hclg72vak",260,"97.csv","","null","resources/maskTrios/L2BB.jpg","null","",NA,NA,NA,NA,""
"image-keyboard-response",583,1807480,"0.0-3.190-2.190","ogyu25hclg72vak",260,"97.csv","","null","resources/images/fishbone.png","null","",NA,NA,NA,NA,""
"image-keyboard-response",584,1807586,"0.0-3.191-0.191","ogyu25hclg72vak",260,"97.csv","","102.89999961853027","resources/trios/L4T4A2.jpg","38","restless",0.2,0.5,0.6,0.637074008764916,"false"
"image-keyboard-response",585,1807989,"0.0-3.191-1.191","ogyu25hclg72vak",260,"97.csv","","null","resources/maskTrios/BT4B.jpg","null","",NA,NA,NA,NA,""
"image-keyboard-response",586,1809196,"0.0-3.191-2.191","ogyu25hclg72vak",260,"97.csv","","null","resources/images/fishbone.png","null","",NA,NA,NA,NA,""
"image-keyboard-response",587,1809449,"0.0-3.192-0.192","ogyu25hclg72vak",260,"97.csv","","250.39999961853027","resources/trios/L4T2A2.jpg","37","restless",0.2,0.5,0.6,0.916782529869122,"false"
"image-keyboard-response",588,1809855,"0.0-3.192-1.192","ogyu25hclg72vak",260,"97.csv","","null","resources/maskTrios/L4BB.jpg","null","",NA,NA,NA,NA,""
"image-keyboard-response",589,1811063,"0.0-3.192-2.192","ogyu25hclg72vak",260,"97.csv","","null","resources/images/fishbone.png","null","",NA,NA,NA,NA,""
"image-keyboard-response",590,1811340,"0.0-3.193-0.193","ogyu25hclg72vak",260,"97.csv","","274","resources/trios/L2T4A2.jpg","37","restless",0.2,0.5,0.6,0.411299855648649,"false"
"image-keyboard-response",591,1811742,"0.0-3.193-1.193","ogyu25hclg72vak",260,"97.csv","","null","resources/maskTrios/L2BB.jpg","null","",NA,NA,NA,NA,""
"image-keyboard-response",592,1812947,"0.0-3.193-2.193","ogyu25hclg72vak",260,"97.csv","","null","resources/images/fishbone.png","null","",NA,NA,NA,NA,""
"image-keyboard-response",593,1813420,"0.0-3.194-0.194","ogyu25hclg72vak",260,"97.csv","","469.4000005722046","resources/trios/L2T4A2.jpg","38","restless",0.2,0.5,0.6,0.616102476635503,"false"
"image-keyboard-response",594,1813827,"0.0-3.194-1.194","ogyu25hclg72vak",260,"97.csv","","null","resources/maskTrios/BT4B.jpg","null","",NA,NA,NA,NA,""
"image-keyboard-response",595,1815031,"0.0-3.194-2.194","ogyu25hclg72vak",260,"97.csv","","null","resources/images/fishbone.png","null","",NA,NA,NA,NA,""
"image-keyboard-response",596,1816163,"0.0-3.195-0.195","ogyu25hclg72vak",260,"97.csv","","1129.3999996185303","resources/trios/L4T2A2.jpg","37","restless",0.2,0.5,0.6,0.568903930267026,"false"
"image-keyboard-response",597,1816568,"0.0-3.195-1.195","ogyu25hclg72vak",260,"97.csv","","null","resources/maskTrios/L4BB.jpg","null","",NA,NA,NA,NA,""
"image-keyboard-response",598,1817772,"0.0-3.195-2.195","ogyu25hclg72vak",260,"97.csv","","null","resources/images/fishbone.png","null","",NA,NA,NA,NA,""
"image-keyboard-response",599,1818275,"0.0-3.196-0.196","ogyu25hclg72vak",260,"97.csv","","499.69999980926514","resources/trios/L4T2A1.jpg","38","restless",0.2,0.5,0.6,0.74045610974942,"false"
"image-keyboard-response",600,1818680,"0.0-3.196-1.196","ogyu25hclg72vak",260,"97.csv","","null","resources/maskTrios/BT2B.jpg","null","",NA,NA,NA,NA,""
"image-keyboard-response",601,1819888,"0.0-3.196-2.196","ogyu25hclg72vak",260,"97.csv","","null","resources/images/fishbone.png","null","",NA,NA,NA,NA,""
"image-keyboard-response",602,1820220,"0.0-3.197-0.197","ogyu25hclg72vak",260,"97.csv","","328.79999923706055","resources/trios/L2T4A2.jpg","37","restless",0.2,0.5,0.6,0.560533993713449,"false"
"image-keyboard-response",603,1820624,"0.0-3.197-1.197","ogyu25hclg72vak",260,"97.csv","","null","resources/maskTrios/L2BB.jpg","null","",NA,NA,NA,NA,""
"image-keyboard-response",604,1821831,"0.0-3.197-2.197","ogyu25hclg72vak",260,"97.csv","","null","resources/images/fishbone.png","null","",NA,NA,NA,NA,""
"image-keyboard-response",605,1821850,"0.0-3.198-0.198","ogyu25hclg72vak",260,"97.csv","","17.09999942779541","resources/trios/L4T2A2.jpg","38","restless",0.2,0.5,0.6,0.287522409816311,"true"
