"trial_type","trial_index","time_elapsed","internal_node_id","subject","participantCode","walkNumber","success","rt","stimulus","key_press","test_part","leftProb","midProb","rightProb","generatedNum","correct"
"pavlovia",0,949,"0.0-0.0","cs0gy2ea8ojqlxf",927,"146.csv","","","","","",NA,NA,NA,NA,""
"fullscreen",1,4894,"0.0-1.0","cs0gy2ea8ojqlxf",927,"146.csv","true","","","","",NA,NA,NA,NA,""
"html-keyboard-response",2,10477,"0.0-2.0-0.0","cs0gy2ea8ojqlxf",927,"146.csv","","5580.899999856949","<p><font size='6'>Arrrgh!</p></font><p>Can you be the best pirate? Try to find lots of gold! But beware, some islands have more gold than others, and over time, the island with the most gold may change. Can YOU figure it out? </p><font size='6'>GOOD LUCK, CAPTAIN!!!</font><p>Press any key to begin</p>","32","",NA,NA,NA,NA,""
"image-keyboard-response",3,13481,"0.0-2.0-1.0","cs0gy2ea8ojqlxf",927,"146.csv","","null","resources/image_sets/111.png","null","",NA,NA,NA,NA,""
"image-keyboard-response",4,22580,"0.0-2.0-2.0","cs0gy2ea8ojqlxf",927,"146.csv","","9097.700000047684","resources/image_sets/left_highlight.png","37","",NA,NA,NA,NA,""
"image-keyboard-response",5,28291,"0.0-2.0-3.0","cs0gy2ea8ojqlxf",927,"146.csv","","5709.5","resources/image_sets/mid_highlight.png","38","",NA,NA,NA,NA,""
"image-keyboard-response",6,32468,"0.0-2.0-4.0","cs0gy2ea8ojqlxf",927,"146.csv","","4175.600000143051","resources/image_sets/right_highlight.png","39","",NA,NA,NA,NA,""
"image-keyboard-response",7,35359,"0.0-2.0-5.0","cs0gy2ea8ojqlxf",927,"146.csv","","2889.5999999046326","resources/image_sets/111.png","13","",NA,NA,NA,NA,""
"image-keyboard-response",8,37686,"0.0-2.0-6.0","cs0gy2ea8ojqlxf",927,"146.csv","","2325.600000143051","resources/images/coin2.png","13","",NA,NA,NA,NA,""
"image-keyboard-response",9,39600,"0.0-2.0-7.0","cs0gy2ea8ojqlxf",927,"146.csv","","1913.5","resources/images/fishbone.png","13","",NA,NA,NA,NA,""
"html-keyboard-response",10,44570,"0.0-2.0-8.0","cs0gy2ea8ojqlxf",927,"146.csv","","4969.299999952316","<p>Your first journey will be a long one, but you will get a well deserved break at the end</p><p>After the break you will have four more journeys, but each will be much shorter than the first, and you will have breaks in between each</p><p>Press Enter to begin</p>","13","",NA,NA,NA,NA,""
"image-keyboard-response",11,49227,"0.0-3.0-0.0","cs0gy2ea8ojqlxf",927,"146.csv","","4655.700000047684","resources/trios/L1T2A2.jpg","38","restless",0.7,0.3,0.9,0.509141450050883,"false"
"image-keyboard-response",12,49637,"0.0-3.0-1.0","cs0gy2ea8ojqlxf",927,"146.csv","","null","resources/maskTrios/BT2B.jpg","null","",NA,NA,NA,NA,""
"image-keyboard-response",13,50848,"0.0-3.0-2.0","cs0gy2ea8ojqlxf",927,"146.csv","","null","resources/images/fishbone.png","null","",NA,NA,NA,NA,""
"image-keyboard-response",14,53024,"0.0-3.1-0.1","cs0gy2ea8ojqlxf",927,"146.csv","","2174.199999809265","resources/trios/L1T1A3.jpg","37","restless",0.7,0.4,0.9,0.390474278582596,"true"
"image-keyboard-response",15,53427,"0.0-3.1-1.1","cs0gy2ea8ojqlxf",927,"146.csv","","null","resources/maskTrios/L1BB.jpg","null","",NA,NA,NA,NA,""
"image-keyboard-response",16,54638,"0.0-3.1-2.1","cs0gy2ea8ojqlxf",927,"146.csv","","null","resources/images/coin2.png","null","",NA,NA,NA,NA,""
"image-keyboard-response",17,56838,"0.0-3.2-0.2","cs0gy2ea8ojqlxf",927,"146.csv","","2209.5","resources/trios/L2T2A2.jpg","37","restless",0.7,0.4,0.9,0.398881041593562,"true"
"image-keyboard-response",18,57255,"0.0-3.2-1.2","cs0gy2ea8ojqlxf",927,"146.csv","","null","resources/maskTrios/L2BB.jpg","null","",NA,NA,NA,NA,""
"image-keyboard-response",19,58467,"0.0-3.2-2.2","cs0gy2ea8ojqlxf",927,"146.csv","","null","resources/images/coin2.png","null","",NA,NA,NA,NA,""
"image-keyboard-response",20,60303,"0.0-3.3-0.3","cs0gy2ea8ojqlxf",927,"146.csv","","1834.9000000953674","resources/trios/L2T1A2.jpg","37","restless",0.7,0.4,0.8,0.654684332147427,"true"
"image-keyboard-response",21,60713,"0.0-3.3-1.3","cs0gy2ea8ojqlxf",927,"146.csv","","null","resources/maskTrios/L2BB.jpg","null","",NA,NA,NA,NA,""
"image-keyboard-response",22,61926,"0.0-3.3-2.3","cs0gy2ea8ojqlxf",927,"146.csv","","null","resources/images/coin2.png","null","",NA,NA,NA,NA,""
"image-keyboard-response",23,63254,"0.0-3.4-0.4","cs0gy2ea8ojqlxf",927,"146.csv","","1326.7999999523163","resources/trios/L1T1A2.jpg","37","restless",0.7,0.4,0.8,0.602281009491776,"true"
"image-keyboard-response",24,63670,"0.0-3.4-1.4","cs0gy2ea8ojqlxf",927,"146.csv","","null","resources/maskTrios/L1BB.jpg","null","",NA,NA,NA,NA,""
"image-keyboard-response",25,64887,"0.0-3.4-2.4","cs0gy2ea8ojqlxf",927,"146.csv","","null","resources/images/coin2.png","null","",NA,NA,NA,NA,""
"image-keyboard-response",26,66628,"0.0-3.5-0.5","cs0gy2ea8ojqlxf",927,"146.csv","","1739.6999998092651","resources/trios/L2T1A2.jpg","37","restless",0.7,0.4,0.8,0.91358776300834,"false"
"image-keyboard-response",27,67045,"0.0-3.5-1.5","cs0gy2ea8ojqlxf",927,"146.csv","","null","resources/maskTrios/L2BB.jpg","null","",NA,NA,NA,NA,""
"image-keyboard-response",28,68257,"0.0-3.5-2.5","cs0gy2ea8ojqlxf",927,"146.csv","","null","resources/images/fishbone.png","null","",NA,NA,NA,NA,""
"image-keyboard-response",29,70384,"0.0-3.6-0.6","cs0gy2ea8ojqlxf",927,"146.csv","","2126.2999999523163","resources/trios/L2T2A3.jpg","37","restless",0.7,0.5,0.8,0.483967192242133,"true"
"image-keyboard-response",30,70801,"0.0-3.6-1.6","cs0gy2ea8ojqlxf",927,"146.csv","","null","resources/maskTrios/L2BB.jpg","null","",NA,NA,NA,NA,""
"image-keyboard-response",31,72014,"0.0-3.6-2.6","cs0gy2ea8ojqlxf",927,"146.csv","","null","resources/images/coin2.png","null","",NA,NA,NA,NA,""
"image-keyboard-response",32,73512,"0.0-3.7-0.7","cs0gy2ea8ojqlxf",927,"146.csv","","1496.3000001907349","resources/trios/L2T1A2.jpg","37","restless",0.7,0.5,0.8,0.362757540745851,"true"
"image-keyboard-response",33,73926,"0.0-3.7-1.7","cs0gy2ea8ojqlxf",927,"146.csv","","null","resources/maskTrios/L2BB.jpg","null","",NA,NA,NA,NA,""
"image-keyboard-response",34,75138,"0.0-3.7-2.7","cs0gy2ea8ojqlxf",927,"146.csv","","null","resources/images/coin2.png","null","",NA,NA,NA,NA,""
"image-keyboard-response",35,77385,"0.0-3.8-0.8","cs0gy2ea8ojqlxf",927,"146.csv","","2245.4000000953674","resources/trios/L1T1A3.jpg","37","restless",0.6,0.5,0.8,0.584975906797686,"true"
"image-keyboard-response",36,77800,"0.0-3.8-1.8","cs0gy2ea8ojqlxf",927,"146.csv","","null","resources/maskTrios/L1BB.jpg","null","",NA,NA,NA,NA,""
"image-keyboard-response",37,79012,"0.0-3.8-2.8","cs0gy2ea8ojqlxf",927,"146.csv","","null","resources/images/coin2.png","null","",NA,NA,NA,NA,""
"image-keyboard-response",38,80014,"0.0-3.9-0.9","cs0gy2ea8ojqlxf",927,"146.csv","","1000.5","resources/trios/L2T1A3.jpg","37","restless",0.6,0.5,0.7,0.255703694968249,"true"
"image-keyboard-response",39,80426,"0.0-3.9-1.9","cs0gy2ea8ojqlxf",927,"146.csv","","null","resources/maskTrios/L2BB.jpg","null","",NA,NA,NA,NA,""
"image-keyboard-response",40,81636,"0.0-3.9-2.9","cs0gy2ea8ojqlxf",927,"146.csv","","null","resources/images/coin2.png","null","",NA,NA,NA,NA,""
"image-keyboard-response",41,82627,"0.0-3.10-0.10","cs0gy2ea8ojqlxf",927,"146.csv","","989.1000001430511","resources/trios/L1T1A2.jpg","37","restless",0.7,0.5,0.7,0.231228000617189,"true"
"image-keyboard-response",42,83038,"0.0-3.10-1.10","cs0gy2ea8ojqlxf",927,"146.csv","","null","resources/maskTrios/L1BB.jpg","null","",NA,NA,NA,NA,""
"image-keyboard-response",43,84247,"0.0-3.10-2.10","cs0gy2ea8ojqlxf",927,"146.csv","","null","resources/images/coin2.png","null","",NA,NA,NA,NA,""
"image-keyboard-response",44,85724,"0.0-3.11-0.11","cs0gy2ea8ojqlxf",927,"146.csv","","1474.7999999523163","resources/trios/L2T2A3.jpg","37","restless",0.7,0.5,0.7,0.633979203566816,"true"
"image-keyboard-response",45,86127,"0.0-3.11-1.11","cs0gy2ea8ojqlxf",927,"146.csv","","null","resources/maskTrios/L2BB.jpg","null","",NA,NA,NA,NA,""
"image-keyboard-response",46,87339,"0.0-3.11-2.11","cs0gy2ea8ojqlxf",927,"146.csv","","null","resources/images/coin2.png","null","",NA,NA,NA,NA,""
"image-keyboard-response",47,88387,"0.0-3.12-0.12","cs0gy2ea8ojqlxf",927,"146.csv","","1046.7000000476837","resources/trios/L1T2A2.jpg","37","restless",0.7,0.5,0.7,0.0538943452183196,"true"
"image-keyboard-response",48,88801,"0.0-3.12-1.12","cs0gy2ea8ojqlxf",927,"146.csv","","null","resources/maskTrios/L1BB.jpg","null","",NA,NA,NA,NA,""
"image-keyboard-response",49,90014,"0.0-3.12-2.12","cs0gy2ea8ojqlxf",927,"146.csv","","null","resources/images/coin2.png","null","",NA,NA,NA,NA,""
"image-keyboard-response",50,90624,"0.0-3.13-0.13","cs0gy2ea8ojqlxf",927,"146.csv","","608.5","resources/trios/L1T2A2.jpg","37","restless",0.7,0.5,0.6,0.16203905602653,"true"
"image-keyboard-response",51,91030,"0.0-3.13-1.13","cs0gy2ea8ojqlxf",927,"146.csv","","null","resources/maskTrios/L1BB.jpg","null","",NA,NA,NA,NA,""
"image-keyboard-response",52,92243,"0.0-3.13-2.13","cs0gy2ea8ojqlxf",927,"146.csv","","null","resources/images/coin2.png","null","",NA,NA,NA,NA,""
"image-keyboard-response",53,93880,"0.0-3.14-0.14","cs0gy2ea8ojqlxf",927,"146.csv","","1635.7999999523163","resources/trios/L2T2A2.jpg","37","restless",0.7,0.5,0.6,0.870541974199551,"false"
"image-keyboard-response",54,94289,"0.0-3.14-1.14","cs0gy2ea8ojqlxf",927,"146.csv","","null","resources/maskTrios/L2BB.jpg","null","",NA,NA,NA,NA,""
"image-keyboard-response",55,95501,"0.0-3.14-2.14","cs0gy2ea8ojqlxf",927,"146.csv","","null","resources/images/fishbone.png","null","",NA,NA,NA,NA,""
"image-keyboard-response",56,96447,"0.0-3.15-0.15","cs0gy2ea8ojqlxf",927,"146.csv","","943.7999999523163","resources/trios/L1T2A2.jpg","38","restless",0.7,0.5,0.6,0.512728153527743,"false"
"image-keyboard-response",57,96863,"0.0-3.15-1.15","cs0gy2ea8ojqlxf",927,"146.csv","","null","resources/maskTrios/BT2B.jpg","null","",NA,NA,NA,NA,""
"image-keyboard-response",58,98077,"0.0-3.15-2.15","cs0gy2ea8ojqlxf",927,"146.csv","","null","resources/images/fishbone.png","null","",NA,NA,NA,NA,""
"image-keyboard-response",59,98627,"0.0-3.16-0.16","cs0gy2ea8ojqlxf",927,"146.csv","","548.4000000953674","resources/trios/L2T2A3.jpg","37","restless",0.8,0.5,0.5,0.697354870756942,"true"
"image-keyboard-response",60,99040,"0.0-3.16-1.16","cs0gy2ea8ojqlxf",927,"146.csv","","null","resources/maskTrios/L2BB.jpg","null","",NA,NA,NA,NA,""
"image-keyboard-response",61,100253,"0.0-3.16-2.16","cs0gy2ea8ojqlxf",927,"146.csv","","null","resources/images/coin2.png","null","",NA,NA,NA,NA,""
"image-keyboard-response",62,100659,"0.0-3.17-0.17","cs0gy2ea8ojqlxf",927,"146.csv","","405.5","resources/trios/L2T2A2.jpg","37","restless",0.8,0.5,0.5,0.588619298661565,"true"
"image-keyboard-response",63,101070,"0.0-3.17-1.17","cs0gy2ea8ojqlxf",927,"146.csv","","null","resources/maskTrios/L2BB.jpg","null","",NA,NA,NA,NA,""
"image-keyboard-response",64,102281,"0.0-3.17-2.17","cs0gy2ea8ojqlxf",927,"146.csv","","null","resources/images/coin2.png","null","",NA,NA,NA,NA,""
"image-keyboard-response",65,102889,"0.0-3.18-0.18","cs0gy2ea8ojqlxf",927,"146.csv","","606.2999999523163","resources/trios/L1T2A2.jpg","37","restless",0.8,0.5,0.5,0.963261762369209,"false"
"image-keyboard-response",66,103297,"0.0-3.18-1.18","cs0gy2ea8ojqlxf",927,"146.csv","","null","resources/maskTrios/L1BB.jpg","null","",NA,NA,NA,NA,""
"image-keyboard-response",67,104508,"0.0-3.18-2.18","cs0gy2ea8ojqlxf",927,"146.csv","","null","resources/images/fishbone.png","null","",NA,NA,NA,NA,""
"image-keyboard-response",68,105155,"0.0-3.19-0.19","cs0gy2ea8ojqlxf",927,"146.csv","","646","resources/trios/L2T1A3.jpg","37","restless",0.8,0.5,0.5,0.573659024505246,"true"
"image-keyboard-response",69,105557,"0.0-3.19-1.19","cs0gy2ea8ojqlxf",927,"146.csv","","null","resources/maskTrios/L2BB.jpg","null","",NA,NA,NA,NA,""
"image-keyboard-response",70,106769,"0.0-3.19-2.19","cs0gy2ea8ojqlxf",927,"146.csv","","null","resources/images/coin2.png","null","",NA,NA,NA,NA,""
"image-keyboard-response",71,107365,"0.0-3.20-0.20","cs0gy2ea8ojqlxf",927,"146.csv","","594.7999999523163","resources/trios/L2T1A2.jpg","37","restless",0.8,0.5,0.5,0.411027610037868,"true"
"image-keyboard-response",72,107768,"0.0-3.20-1.20","cs0gy2ea8ojqlxf",927,"146.csv","","null","resources/maskTrios/L2BB.jpg","null","",NA,NA,NA,NA,""
"image-keyboard-response",73,108979,"0.0-3.20-2.20","cs0gy2ea8ojqlxf",927,"146.csv","","null","resources/images/coin2.png","null","",NA,NA,NA,NA,""
"image-keyboard-response",74,109897,"0.0-3.21-0.21","cs0gy2ea8ojqlxf",927,"146.csv","","916.7000000476837","resources/trios/L2T1A3.jpg","37","restless",0.8,0.5,0.5,0.167858436509034,"true"
"image-keyboard-response",75,110310,"0.0-3.21-1.21","cs0gy2ea8ojqlxf",927,"146.csv","","null","resources/maskTrios/L2BB.jpg","null","",NA,NA,NA,NA,""
"image-keyboard-response",76,111522,"0.0-3.21-2.21","cs0gy2ea8ojqlxf",927,"146.csv","","null","resources/images/coin2.png","null","",NA,NA,NA,NA,""
"image-keyboard-response",77,112081,"0.0-3.22-0.22","cs0gy2ea8ojqlxf",927,"146.csv","","557.2999999523163","resources/trios/L2T2A2.jpg","37","restless",0.8,0.5,0.5,0.764609013100331,"true"
"image-keyboard-response",78,112488,"0.0-3.22-1.22","cs0gy2ea8ojqlxf",927,"146.csv","","null","resources/maskTrios/L2BB.jpg","null","",NA,NA,NA,NA,""
"image-keyboard-response",79,113699,"0.0-3.22-2.22","cs0gy2ea8ojqlxf",927,"146.csv","","null","resources/images/coin2.png","null","",NA,NA,NA,NA,""
"image-keyboard-response",80,114259,"0.0-3.23-0.23","cs0gy2ea8ojqlxf",927,"146.csv","","558.5","resources/trios/L2T2A2.jpg","37","restless",0.9,0.5,0.5,0.307435778948546,"true"
"image-keyboard-response",81,114665,"0.0-3.23-1.23","cs0gy2ea8ojqlxf",927,"146.csv","","null","resources/maskTrios/L2BB.jpg","null","",NA,NA,NA,NA,""
"image-keyboard-response",82,115877,"0.0-3.23-2.23","cs0gy2ea8ojqlxf",927,"146.csv","","null","resources/images/coin2.png","null","",NA,NA,NA,NA,""
"image-keyboard-response",83,116432,"0.0-3.24-0.24","cs0gy2ea8ojqlxf",927,"146.csv","","553.5","resources/trios/L2T2A2.jpg","37","restless",0.9,0.5,0.5,0.70717576380274,"true"
"image-keyboard-response",84,116855,"0.0-3.24-1.24","cs0gy2ea8ojqlxf",927,"146.csv","","null","resources/maskTrios/L2BB.jpg","null","",NA,NA,NA,NA,""
"image-keyboard-response",85,118066,"0.0-3.24-2.24","cs0gy2ea8ojqlxf",927,"146.csv","","null","resources/images/coin2.png","null","",NA,NA,NA,NA,""
"image-keyboard-response",86,118628,"0.0-3.25-0.25","cs0gy2ea8ojqlxf",927,"146.csv","","560.6000001430511","resources/trios/L2T2A3.jpg","37","restless",0.9,0.5,0.5,0.506626092342276,"true"
"image-keyboard-response",87,119032,"0.0-3.25-1.25","cs0gy2ea8ojqlxf",927,"146.csv","","null","resources/maskTrios/L2BB.jpg","null","",NA,NA,NA,NA,""
"image-keyboard-response",88,120243,"0.0-3.25-2.25","cs0gy2ea8ojqlxf",927,"146.csv","","null","resources/images/coin2.png","null","",NA,NA,NA,NA,""
"image-keyboard-response",89,120954,"0.0-3.26-0.26","cs0gy2ea8ojqlxf",927,"146.csv","","709.7999999523163","resources/trios/L2T1A2.jpg","37","restless",0.9,0.5,0.5,0.727295370432441,"true"
"image-keyboard-response",90,121359,"0.0-3.26-1.26","cs0gy2ea8ojqlxf",927,"146.csv","","null","resources/maskTrios/L2BB.jpg","null","",NA,NA,NA,NA,""
"image-keyboard-response",91,122570,"0.0-3.26-2.26","cs0gy2ea8ojqlxf",927,"146.csv","","null","resources/images/coin2.png","null","",NA,NA,NA,NA,""
"image-keyboard-response",92,123022,"0.0-3.27-0.27","cs0gy2ea8ojqlxf",927,"146.csv","","451.30000019073486","resources/trios/L2T1A2.jpg","37","restless",0.9,0.5,0.5,0.484259390570117,"true"
"image-keyboard-response",93,123437,"0.0-3.27-1.27","cs0gy2ea8ojqlxf",927,"146.csv","","null","resources/maskTrios/L2BB.jpg","null","",NA,NA,NA,NA,""
"image-keyboard-response",94,124645,"0.0-3.27-2.27","cs0gy2ea8ojqlxf",927,"146.csv","","null","resources/images/coin2.png","null","",NA,NA,NA,NA,""
"image-keyboard-response",95,124991,"0.0-3.28-0.28","cs0gy2ea8ojqlxf",927,"146.csv","","344.7999999523163","resources/trios/L2T1A2.jpg","37","restless",0.9,0.5,0.5,0.534487375172147,"true"
"image-keyboard-response",96,125397,"0.0-3.28-1.28","cs0gy2ea8ojqlxf",927,"146.csv","","null","resources/maskTrios/L2BB.jpg","null","",NA,NA,NA,NA,""
"image-keyboard-response",97,126611,"0.0-3.28-2.28","cs0gy2ea8ojqlxf",927,"146.csv","","null","resources/images/coin2.png","null","",NA,NA,NA,NA,""
"image-keyboard-response",98,127340,"0.0-3.29-0.29","cs0gy2ea8ojqlxf",927,"146.csv","","725.5","resources/trios/L1T2A2.jpg","37","restless",0.9,0.5,0.5,0.0482579150029099,"true"
"image-keyboard-response",99,127745,"0.0-3.29-1.29","cs0gy2ea8ojqlxf",927,"146.csv","","null","resources/maskTrios/L1BB.jpg","null","",NA,NA,NA,NA,""
"image-keyboard-response",100,128956,"0.0-3.29-2.29","cs0gy2ea8ojqlxf",927,"146.csv","","null","resources/images/coin2.png","null","",NA,NA,NA,NA,""
"image-keyboard-response",101,129527,"0.0-3.30-0.30","cs0gy2ea8ojqlxf",927,"146.csv","","570.0999999046326","resources/trios/L2T2A3.jpg","37","restless",0.9,0.5,0.5,0.172922093046372,"true"
"image-keyboard-response",102,129935,"0.0-3.30-1.30","cs0gy2ea8ojqlxf",927,"146.csv","","null","resources/maskTrios/L2BB.jpg","null","",NA,NA,NA,NA,""
"image-keyboard-response",103,131147,"0.0-3.30-2.30","cs0gy2ea8ojqlxf",927,"146.csv","","null","resources/images/coin2.png","null","",NA,NA,NA,NA,""
"image-keyboard-response",104,132169,"0.0-3.31-0.31","cs0gy2ea8ojqlxf",927,"146.csv","","1020.3000001907349","resources/trios/L1T1A2.jpg","37","restless",0.9,0.5,0.4,0.219473769122637,"true"
"image-keyboard-response",105,132580,"0.0-3.31-1.31","cs0gy2ea8ojqlxf",927,"146.csv","","null","resources/maskTrios/L1BB.jpg","null","",NA,NA,NA,NA,""
"image-keyboard-response",106,133792,"0.0-3.31-2.31","cs0gy2ea8ojqlxf",927,"146.csv","","null","resources/images/coin2.png","null","",NA,NA,NA,NA,""
"image-keyboard-response",107,134185,"0.0-3.32-0.32","cs0gy2ea8ojqlxf",927,"146.csv","","391.59999990463257","resources/trios/L2T1A2.jpg","37","restless",0.9,0.5,0.4,0.472343891084149,"true"
"image-keyboard-response",108,134589,"0.0-3.32-1.32","cs0gy2ea8ojqlxf",927,"146.csv","","null","resources/maskTrios/L2BB.jpg","null","",NA,NA,NA,NA,""
"image-keyboard-response",109,135800,"0.0-3.32-2.32","cs0gy2ea8ojqlxf",927,"146.csv","","null","resources/images/coin2.png","null","",NA,NA,NA,NA,""
"image-keyboard-response",110,135858,"0.0-3.33-0.33","cs0gy2ea8ojqlxf",927,"146.csv","","57","resources/trios/L2T1A2.jpg","37","restless",0.9,0.5,0.4,0.957164337019455,"false"
"image-keyboard-response",111,136268,"0.0-3.33-1.33","cs0gy2ea8ojqlxf",927,"146.csv","","null","resources/maskTrios/L2BB.jpg","null","",NA,NA,NA,NA,""
"image-keyboard-response",112,137479,"0.0-3.33-2.33","cs0gy2ea8ojqlxf",927,"146.csv","","null","resources/images/fishbone.png","null","",NA,NA,NA,NA,""
"image-keyboard-response",113,137617,"0.0-3.34-0.34","cs0gy2ea8ojqlxf",927,"146.csv","","136.5","resources/trios/L1T1A2.jpg","37","restless",0.8,0.5,0.4,0.927328994909886,"false"
"image-keyboard-response",114,138023,"0.0-3.34-1.34","cs0gy2ea8ojqlxf",927,"146.csv","","null","resources/maskTrios/L1BB.jpg","null","",NA,NA,NA,NA,""
"image-keyboard-response",115,139227,"0.0-3.34-2.34","cs0gy2ea8ojqlxf",927,"146.csv","","null","resources/images/fishbone.png","null","",NA,NA,NA,NA,""
"image-keyboard-response",116,139592,"0.0-3.35-0.35","cs0gy2ea8ojqlxf",927,"146.csv","","363.2999999523163","resources/trios/L2T2A2.jpg","37","restless",0.8,0.5,0.4,0.149553358232032,"true"
"image-keyboard-response",117,140006,"0.0-3.35-1.35","cs0gy2ea8ojqlxf",927,"146.csv","","null","resources/maskTrios/L2BB.jpg","null","",NA,NA,NA,NA,""
"image-keyboard-response",118,141219,"0.0-3.35-2.35","cs0gy2ea8ojqlxf",927,"146.csv","","null","resources/images/coin2.png","null","",NA,NA,NA,NA,""
"image-keyboard-response",119,141466,"0.0-3.36-0.36","cs0gy2ea8ojqlxf",927,"146.csv","","244.89999985694885","resources/trios/L1T1A3.jpg","37","restless",0.8,0.5,0.4,0.830227807784771,"false"
"image-keyboard-response",120,141869,"0.0-3.36-1.36","cs0gy2ea8ojqlxf",927,"146.csv","","null","resources/maskTrios/L1BB.jpg","null","",NA,NA,NA,NA,""
"image-keyboard-response",121,143081,"0.0-3.36-2.36","cs0gy2ea8ojqlxf",927,"146.csv","","null","resources/images/fishbone.png","null","",NA,NA,NA,NA,""
"image-keyboard-response",122,143619,"0.0-3.37-0.37","cs0gy2ea8ojqlxf",927,"146.csv","","537","resources/trios/L2T1A2.jpg","37","restless",0.9,0.5,0.4,0.132629408148347,"true"
"image-keyboard-response",123,144030,"0.0-3.37-1.37","cs0gy2ea8ojqlxf",927,"146.csv","","null","resources/maskTrios/L2BB.jpg","null","",NA,NA,NA,NA,""
"image-keyboard-response",124,145241,"0.0-3.37-2.37","cs0gy2ea8ojqlxf",927,"146.csv","","null","resources/images/coin2.png","null","",NA,NA,NA,NA,""
"image-keyboard-response",125,145710,"0.0-3.38-0.38","cs0gy2ea8ojqlxf",927,"146.csv","","468.10000014305115","resources/trios/L1T2A3.jpg","37","restless",0.9,0.5,0.4,0.103368778273651,"true"
"image-keyboard-response",126,146125,"0.0-3.38-1.38","cs0gy2ea8ojqlxf",927,"146.csv","","null","resources/maskTrios/L1BB.jpg","null","",NA,NA,NA,NA,""
"image-keyboard-response",127,147336,"0.0-3.38-2.38","cs0gy2ea8ojqlxf",927,"146.csv","","null","resources/images/coin2.png","null","",NA,NA,NA,NA,""
"image-keyboard-response",128,147878,"0.0-3.39-0.39","cs0gy2ea8ojqlxf",927,"146.csv","","540.1999998092651","resources/trios/L2T1A3.jpg","37","restless",0.9,0.5,0.4,0.0665197086145755,"true"
"image-keyboard-response",129,148284,"0.0-3.39-1.39","cs0gy2ea8ojqlxf",927,"146.csv","","null","resources/maskTrios/L2BB.jpg","null","",NA,NA,NA,NA,""
"image-keyboard-response",130,149497,"0.0-3.39-2.39","cs0gy2ea8ojqlxf",927,"146.csv","","null","resources/images/coin2.png","null","",NA,NA,NA,NA,""
"image-keyboard-response",131,149692,"0.0-3.40-0.40","cs0gy2ea8ojqlxf",927,"146.csv","","193.20000004768372","resources/trios/L2T2A3.jpg","37","restless",0.9,0.5,0.4,0.138991081073863,"true"
"image-keyboard-response",132,150097,"0.0-3.40-1.40","cs0gy2ea8ojqlxf",927,"146.csv","","null","resources/maskTrios/L2BB.jpg","null","",NA,NA,NA,NA,""
"image-keyboard-response",133,151308,"0.0-3.40-2.40","cs0gy2ea8ojqlxf",927,"146.csv","","null","resources/images/coin2.png","null","",NA,NA,NA,NA,""
"image-keyboard-response",134,152094,"0.0-3.41-0.41","cs0gy2ea8ojqlxf",927,"146.csv","","784.5","resources/trios/L2T1A3.jpg","37","restless",0.8,0.5,0.4,0.762438565482226,"true"
"image-keyboard-response",135,152507,"0.0-3.41-1.41","cs0gy2ea8ojqlxf",927,"146.csv","","null","resources/maskTrios/L2BB.jpg","null","",NA,NA,NA,NA,""
"image-keyboard-response",136,153719,"0.0-3.41-2.41","cs0gy2ea8ojqlxf",927,"146.csv","","null","resources/images/coin2.png","null","",NA,NA,NA,NA,""
"image-keyboard-response",137,154058,"0.0-3.42-0.42","cs0gy2ea8ojqlxf",927,"146.csv","","337.09999990463257","resources/trios/L1T2A3.jpg","37","restless",0.8,0.5,0.4,0.910202640501623,"false"
"image-keyboard-response",138,154469,"0.0-3.42-1.42","cs0gy2ea8ojqlxf",927,"146.csv","","null","resources/maskTrios/L1BB.jpg","null","",NA,NA,NA,NA,""
"image-keyboard-response",139,155678,"0.0-3.42-2.42","cs0gy2ea8ojqlxf",927,"146.csv","","null","resources/images/fishbone.png","null","",NA,NA,NA,NA,""
"image-keyboard-response",140,155944,"0.0-3.43-0.43","cs0gy2ea8ojqlxf",927,"146.csv","","264.19999980926514","resources/trios/L2T1A2.jpg","37","restless",0.8,0.5,0.4,0.252393994204759,"true"
"image-keyboard-response",141,156346,"0.0-3.43-1.43","cs0gy2ea8ojqlxf",927,"146.csv","","null","resources/maskTrios/L2BB.jpg","null","",NA,NA,NA,NA,""
"image-keyboard-response",142,157557,"0.0-3.43-2.43","cs0gy2ea8ojqlxf",927,"146.csv","","null","resources/images/coin2.png","null","",NA,NA,NA,NA,""
"image-keyboard-response",143,158117,"0.0-3.44-0.44","cs0gy2ea8ojqlxf",927,"146.csv","","559.1000001430511","resources/trios/L1T1A3.jpg","37","restless",0.7,0.5,0.4,0.583260844731367,"true"
"image-keyboard-response",144,158525,"0.0-3.44-1.44","cs0gy2ea8ojqlxf",927,"146.csv","","null","resources/maskTrios/L1BB.jpg","null","",NA,NA,NA,NA,""
"image-keyboard-response",145,159735,"0.0-3.44-2.44","cs0gy2ea8ojqlxf",927,"146.csv","","null","resources/images/coin2.png","null","",NA,NA,NA,NA,""
"image-keyboard-response",146,160162,"0.0-3.45-0.45","cs0gy2ea8ojqlxf",927,"146.csv","","425.2999999523163","resources/trios/L1T1A3.jpg","37","restless",0.7,0.5,0.4,0.694339209424392,"true"
"image-keyboard-response",147,160568,"0.0-3.45-1.45","cs0gy2ea8ojqlxf",927,"146.csv","","null","resources/maskTrios/L1BB.jpg","null","",NA,NA,NA,NA,""
"image-keyboard-response",148,161780,"0.0-3.45-2.45","cs0gy2ea8ojqlxf",927,"146.csv","","null","resources/images/coin2.png","null","",NA,NA,NA,NA,""
"image-keyboard-response",149,162883,"0.0-3.46-0.46","cs0gy2ea8ojqlxf",927,"146.csv","","1100.6999998092651","resources/trios/L1T2A3.jpg","38","restless",0.7,0.5,0.4,0.784109042362352,"false"
"image-keyboard-response",150,163294,"0.0-3.46-1.46","cs0gy2ea8ojqlxf",927,"146.csv","","null","resources/maskTrios/BT2B.jpg","null","",NA,NA,NA,NA,""
"image-keyboard-response",151,164506,"0.0-3.46-2.46","cs0gy2ea8ojqlxf",927,"146.csv","","null","resources/images/fishbone.png","null","",NA,NA,NA,NA,""
"image-keyboard-response",152,165595,"0.0-3.47-0.47","cs0gy2ea8ojqlxf",927,"146.csv","","1087.2000000476837","resources/trios/L2T2A3.jpg","37","restless",0.7,0.5,0.4,0.828262520507245,"false"
"image-keyboard-response",153,166005,"0.0-3.47-1.47","cs0gy2ea8ojqlxf",927,"146.csv","","null","resources/maskTrios/L2BB.jpg","null","",NA,NA,NA,NA,""
"image-keyboard-response",154,167214,"0.0-3.47-2.47","cs0gy2ea8ojqlxf",927,"146.csv","","null","resources/images/fishbone.png","null","",NA,NA,NA,NA,""
"image-keyboard-response",155,167723,"0.0-3.48-0.48","cs0gy2ea8ojqlxf",927,"146.csv","","507.39999985694885","resources/trios/L1T1A2.jpg","37","restless",0.7,0.5,0.4,0.866624042950064,"false"
"image-keyboard-response",156,168131,"0.0-3.48-1.48","cs0gy2ea8ojqlxf",927,"146.csv","","null","resources/maskTrios/L1BB.jpg","null","",NA,NA,NA,NA,""
"image-keyboard-response",157,169343,"0.0-3.48-2.48","cs0gy2ea8ojqlxf",927,"146.csv","","null","resources/images/fishbone.png","null","",NA,NA,NA,NA,""
"image-keyboard-response",158,170586,"0.0-3.49-0.49","cs0gy2ea8ojqlxf",927,"146.csv","","1241.5999999046326","resources/trios/L2T2A2.jpg","37","restless",0.7,0.5,0.3,0.491044645567452,"true"
"image-keyboard-response",159,170990,"0.0-3.49-1.49","cs0gy2ea8ojqlxf",927,"146.csv","","null","resources/maskTrios/L2BB.jpg","null","",NA,NA,NA,NA,""
"image-keyboard-response",160,172202,"0.0-3.49-2.49","cs0gy2ea8ojqlxf",927,"146.csv","","null","resources/images/coin2.png","null","",NA,NA,NA,NA,""
"image-keyboard-response",161,173251,"0.0-3.50-0.50","cs0gy2ea8ojqlxf",927,"146.csv","","1047.2999999523163","resources/trios/L2T2A2.jpg","38","restless",0.7,0.4,0.3,0.0118165912677217,"true"
"image-keyboard-response",162,173666,"0.0-3.50-1.50","cs0gy2ea8ojqlxf",927,"146.csv","","null","resources/maskTrios/BT2B.jpg","null","",NA,NA,NA,NA,""
"image-keyboard-response",163,174876,"0.0-3.50-2.50","cs0gy2ea8ojqlxf",927,"146.csv","","null","resources/images/coin2.png","null","",NA,NA,NA,NA,""
"image-keyboard-response",164,175611,"0.0-3.51-0.51","cs0gy2ea8ojqlxf",927,"146.csv","","733.1000001430511","resources/trios/L1T1A3.jpg","37","restless",0.6,0.4,0.3,0.568442917989092,"true"
"image-keyboard-response",165,176024,"0.0-3.51-1.51","cs0gy2ea8ojqlxf",927,"146.csv","","null","resources/maskTrios/L1BB.jpg","null","",NA,NA,NA,NA,""
"image-keyboard-response",166,177237,"0.0-3.51-2.51","cs0gy2ea8ojqlxf",927,"146.csv","","null","resources/images/coin2.png","null","",NA,NA,NA,NA,""
"image-keyboard-response",167,178585,"0.0-3.52-0.52","cs0gy2ea8ojqlxf",927,"146.csv","","1346.2000000476837","resources/trios/L1T1A2.jpg","37","restless",0.6,0.4,0.2,0.599116781124057,"true"
"image-keyboard-response",168,178999,"0.0-3.52-1.52","cs0gy2ea8ojqlxf",927,"146.csv","","null","resources/maskTrios/L1BB.jpg","null","",NA,NA,NA,NA,""
"image-keyboard-response",169,180213,"0.0-3.52-2.52","cs0gy2ea8ojqlxf",927,"146.csv","","null","resources/images/coin2.png","null","",NA,NA,NA,NA,""
"image-keyboard-response",170,180718,"0.0-3.53-0.53","cs0gy2ea8ojqlxf",927,"146.csv","","503.40000009536743","resources/trios/L1T1A3.jpg","37","restless",0.5,0.4,0.2,0.774942040830579,"false"
"image-keyboard-response",171,181131,"0.0-3.53-1.53","cs0gy2ea8ojqlxf",927,"146.csv","","null","resources/maskTrios/L1BB.jpg","null","",NA,NA,NA,NA,""
"image-keyboard-response",172,182342,"0.0-3.53-2.53","cs0gy2ea8ojqlxf",927,"146.csv","","null","resources/images/fishbone.png","null","",NA,NA,NA,NA,""
"image-keyboard-response",173,184147,"0.0-3.54-0.54","cs0gy2ea8ojqlxf",927,"146.csv","","1803.9000000953674","resources/trios/L2T2A2.jpg","37","restless",0.5,0.4,0.2,0.697682961048127,"false"
"image-keyboard-response",174,184552,"0.0-3.54-1.54","cs0gy2ea8ojqlxf",927,"146.csv","","null","resources/maskTrios/L2BB.jpg","null","",NA,NA,NA,NA,""
"image-keyboard-response",175,185764,"0.0-3.54-2.54","cs0gy2ea8ojqlxf",927,"146.csv","","null","resources/images/fishbone.png","null","",NA,NA,NA,NA,""
"image-keyboard-response",176,186623,"0.0-3.55-0.55","cs0gy2ea8ojqlxf",927,"146.csv","","858.2999999523163","resources/trios/L2T1A3.jpg","37","restless",0.4,0.4,0.2,0.29624809870214,"true"
"image-keyboard-response",177,187029,"0.0-3.55-1.55","cs0gy2ea8ojqlxf",927,"146.csv","","null","resources/maskTrios/L2BB.jpg","null","",NA,NA,NA,NA,""
"image-keyboard-response",178,188240,"0.0-3.55-2.55","cs0gy2ea8ojqlxf",927,"146.csv","","null","resources/images/coin2.png","null","",NA,NA,NA,NA,""
"image-keyboard-response",179,189196,"0.0-3.56-0.56","cs0gy2ea8ojqlxf",927,"146.csv","","954.3999998569489","resources/trios/L1T1A3.jpg","37","restless",0.4,0.4,0.2,0.856312968111975,"false"
"image-keyboard-response",180,189607,"0.0-3.56-1.56","cs0gy2ea8ojqlxf",927,"146.csv","","null","resources/maskTrios/L1BB.jpg","null","",NA,NA,NA,NA,""
"image-keyboard-response",181,190817,"0.0-3.56-2.56","cs0gy2ea8ojqlxf",927,"146.csv","","null","resources/images/fishbone.png","null","",NA,NA,NA,NA,""
"image-keyboard-response",182,191563,"0.0-3.57-0.57","cs0gy2ea8ojqlxf",927,"146.csv","","744.8000001907349","resources/trios/L1T1A2.jpg","38","restless",0.4,0.4,0.2,0.600094099551866,"false"
"image-keyboard-response",183,191980,"0.0-3.57-1.57","cs0gy2ea8ojqlxf",927,"146.csv","","null","resources/maskTrios/BT1B.jpg","null","",NA,NA,NA,NA,""
"image-keyboard-response",184,193193,"0.0-3.57-2.57","cs0gy2ea8ojqlxf",927,"146.csv","","null","resources/images/fishbone.png","null","",NA,NA,NA,NA,""
"image-keyboard-response",185,193453,"0.0-3.58-0.58","cs0gy2ea8ojqlxf",927,"146.csv","","258.40000009536743","resources/trios/L2T1A2.jpg","37","restless",0.4,0.4,0.2,0.537488218431359,"false"
"image-keyboard-response",186,193862,"0.0-3.58-1.58","cs0gy2ea8ojqlxf",927,"146.csv","","null","resources/maskTrios/L2BB.jpg","null","",NA,NA,NA,NA,""
"image-keyboard-response",187,195071,"0.0-3.58-2.58","cs0gy2ea8ojqlxf",927,"146.csv","","null","resources/images/fishbone.png","null","",NA,NA,NA,NA,""
"image-keyboard-response",188,195665,"0.0-3.59-0.59","cs0gy2ea8ojqlxf",927,"146.csv","","593.0999999046326","resources/trios/L1T2A2.jpg","38","restless",0.3,0.4,0.2,0.775477109133258,"false"
"image-keyboard-response",189,196071,"0.0-3.59-1.59","cs0gy2ea8ojqlxf",927,"146.csv","","null","resources/maskTrios/BT2B.jpg","null","",NA,NA,NA,NA,""
"image-keyboard-response",190,197284,"0.0-3.59-2.59","cs0gy2ea8ojqlxf",927,"146.csv","","null","resources/images/fishbone.png","null","",NA,NA,NA,NA,""
"image-keyboard-response",191,197554,"0.0-3.60-0.60","cs0gy2ea8ojqlxf",927,"146.csv","","269.2000000476837","resources/trios/L2T2A3.jpg","37","restless",0.3,0.4,0.3,0.840367379543923,"false"
"image-keyboard-response",192,197968,"0.0-3.60-1.60","cs0gy2ea8ojqlxf",927,"146.csv","","null","resources/maskTrios/L2BB.jpg","null","",NA,NA,NA,NA,""
"image-keyboard-response",193,199179,"0.0-3.60-2.60","cs0gy2ea8ojqlxf",927,"146.csv","","null","resources/images/fishbone.png","null","",NA,NA,NA,NA,""
"image-keyboard-response",194,199368,"0.0-3.61-0.61","cs0gy2ea8ojqlxf",927,"146.csv","","187.5","resources/trios/L2T2A2.jpg","37","restless",0.3,0.4,0.4,0.0506713880731182,"true"
"image-keyboard-response",195,199778,"0.0-3.61-1.61","cs0gy2ea8ojqlxf",927,"146.csv","","null","resources/maskTrios/L2BB.jpg","null","",NA,NA,NA,NA,""
"image-keyboard-response",196,200989,"0.0-3.61-2.61","cs0gy2ea8ojqlxf",927,"146.csv","","null","resources/images/coin2.png","null","",NA,NA,NA,NA,""
"image-keyboard-response",197,201548,"0.0-3.62-0.62","cs0gy2ea8ojqlxf",927,"146.csv","","557.8000001907349","resources/trios/L1T1A3.jpg","37","restless",0.3,0.3,0.4,0.704766151501985,"false"
"image-keyboard-response",198,201956,"0.0-3.62-1.62","cs0gy2ea8ojqlxf",927,"146.csv","","null","resources/maskTrios/L1BB.jpg","null","",NA,NA,NA,NA,""
"image-keyboard-response",199,203167,"0.0-3.62-2.62","cs0gy2ea8ojqlxf",927,"146.csv","","null","resources/images/fishbone.png","null","",NA,NA,NA,NA,""
"image-keyboard-response",200,203414,"0.0-3.63-0.63","cs0gy2ea8ojqlxf",927,"146.csv","","245.59999990463257","resources/trios/L1T2A2.jpg","38","restless",0.3,0.3,0.4,0.445160977015633,"false"
"image-keyboard-response",201,203832,"0.0-3.63-1.63","cs0gy2ea8ojqlxf",927,"146.csv","","null","resources/maskTrios/BT2B.jpg","null","",NA,NA,NA,NA,""
"image-keyboard-response",202,205045,"0.0-3.63-2.63","cs0gy2ea8ojqlxf",927,"146.csv","","null","resources/images/fishbone.png","null","",NA,NA,NA,NA,""
"image-keyboard-response",203,205257,"0.0-3.64-0.64","cs0gy2ea8ojqlxf",927,"146.csv","","210.79999995231628","resources/trios/L2T2A2.jpg","38","restless",0.3,0.3,0.4,0.254397584559554,"true"
"image-keyboard-response",204,205661,"0.0-3.64-1.64","cs0gy2ea8ojqlxf",927,"146.csv","","null","resources/maskTrios/BT2B.jpg","null","",NA,NA,NA,NA,""
"image-keyboard-response",205,206872,"0.0-3.64-2.64","cs0gy2ea8ojqlxf",927,"146.csv","","null","resources/images/coin2.png","null","",NA,NA,NA,NA,""
"image-keyboard-response",206,207050,"0.0-3.65-0.65","cs0gy2ea8ojqlxf",927,"146.csv","","176","resources/trios/L1T1A2.jpg","37","restless",0.3,0.3,0.4,0.501706199826084,"false"
"image-keyboard-response",207,207458,"0.0-3.65-1.65","cs0gy2ea8ojqlxf",927,"146.csv","","null","resources/maskTrios/L1BB.jpg","null","",NA,NA,NA,NA,""
"image-keyboard-response",208,208668,"0.0-3.65-2.65","cs0gy2ea8ojqlxf",927,"146.csv","","null","resources/images/fishbone.png","null","",NA,NA,NA,NA,""
"image-keyboard-response",209,208694,"0.0-3.66-0.66","cs0gy2ea8ojqlxf",927,"146.csv","","25","resources/trios/L1T2A2.jpg","38","restless",0.3,0.3,0.4,0.270621296134633,"true"
"image-keyboard-response",210,209103,"0.0-3.66-1.66","cs0gy2ea8ojqlxf",927,"146.csv","","null","resources/maskTrios/BT2B.jpg","null","",NA,NA,NA,NA,""
"image-keyboard-response",211,210313,"0.0-3.66-2.66","cs0gy2ea8ojqlxf",927,"146.csv","","null","resources/images/coin2.png","null","",NA,NA,NA,NA,""
"image-keyboard-response",212,210549,"0.0-3.67-0.67","cs0gy2ea8ojqlxf",927,"146.csv","","234.70000004768372","resources/trios/L2T1A2.jpg","38","restless",0.3,0.3,0.5,0.656507139480649,"false"
"image-keyboard-response",213,210963,"0.0-3.67-1.67","cs0gy2ea8ojqlxf",927,"146.csv","","null","resources/maskTrios/BT1B.jpg","null","",NA,NA,NA,NA,""
"image-keyboard-response",214,212175,"0.0-3.67-2.67","cs0gy2ea8ojqlxf",927,"146.csv","","null","resources/images/fishbone.png","null","",NA,NA,NA,NA,""
"image-keyboard-response",215,212269,"0.0-3.68-0.68","cs0gy2ea8ojqlxf",927,"146.csv","","92.70000004768372","resources/trios/L2T1A3.jpg","38","restless",0.3,0.3,0.5,0.234526668776045,"true"
"image-keyboard-response",216,212677,"0.0-3.68-1.68","cs0gy2ea8ojqlxf",927,"146.csv","","null","resources/maskTrios/BT1B.jpg","null","",NA,NA,NA,NA,""
"image-keyboard-response",217,213888,"0.0-3.68-2.68","cs0gy2ea8ojqlxf",927,"146.csv","","null","resources/images/coin2.png","null","",NA,NA,NA,NA,""
"image-keyboard-response",218,213995,"0.0-3.69-0.69","cs0gy2ea8ojqlxf",927,"146.csv","","106.29999995231628","resources/trios/L1T1A2.jpg","38","restless",0.3,0.3,0.5,0.0418482148362995,"true"
"image-keyboard-response",219,214404,"0.0-3.69-1.69","cs0gy2ea8ojqlxf",927,"146.csv","","null","resources/maskTrios/BT1B.jpg","null","",NA,NA,NA,NA,""
"image-keyboard-response",220,215616,"0.0-3.69-2.69","cs0gy2ea8ojqlxf",927,"146.csv","","null","resources/images/coin2.png","null","",NA,NA,NA,NA,""
"image-keyboard-response",221,215652,"0.0-3.70-0.70","cs0gy2ea8ojqlxf",927,"146.csv","","35.299999952316284","resources/trios/L1T1A3.jpg","37","restless",0.3,0.3,0.5,0.883441051400704,"false"
"image-keyboard-response",222,216067,"0.0-3.70-1.70","cs0gy2ea8ojqlxf",927,"146.csv","","null","resources/maskTrios/L1BB.jpg","null","",NA,NA,NA,NA,""
"image-keyboard-response",223,217279,"0.0-3.70-2.70","cs0gy2ea8ojqlxf",927,"146.csv","","null","resources/images/fishbone.png","null","",NA,NA,NA,NA,""
"image-keyboard-response",224,217306,"0.0-3.71-0.71","cs0gy2ea8ojqlxf",927,"146.csv","","25.799999952316284","resources/trios/L2T1A3.jpg","38","restless",0.2,0.3,0.5,0.693192427576716,"false"
"image-keyboard-response",225,217714,"0.0-3.71-1.71","cs0gy2ea8ojqlxf",927,"146.csv","","null","resources/maskTrios/BT1B.jpg","null","",NA,NA,NA,NA,""
"image-keyboard-response",226,218926,"0.0-3.71-2.71","cs0gy2ea8ojqlxf",927,"146.csv","","null","resources/images/fishbone.png","null","",NA,NA,NA,NA,""
"image-keyboard-response",227,219076,"0.0-3.72-0.72","cs0gy2ea8ojqlxf",927,"146.csv","","148.5","resources/trios/L2T1A2.jpg","37","restless",0.2,0.3,0.5,0.253561745905869,"false"
"image-keyboard-response",228,219489,"0.0-3.72-1.72","cs0gy2ea8ojqlxf",927,"146.csv","","null","resources/maskTrios/L2BB.jpg","null","",NA,NA,NA,NA,""
"image-keyboard-response",229,220702,"0.0-3.72-2.72","cs0gy2ea8ojqlxf",927,"146.csv","","null","resources/images/fishbone.png","null","",NA,NA,NA,NA,""
"image-keyboard-response",230,221220,"0.0-3.73-0.73","cs0gy2ea8ojqlxf",927,"146.csv","","515.7000000476837","resources/trios/L2T2A2.jpg","37","restless",0.2,0.3,0.5,0.867444416201514,"false"
"image-keyboard-response",231,221634,"0.0-3.73-1.73","cs0gy2ea8ojqlxf",927,"146.csv","","null","resources/maskTrios/L2BB.jpg","null","",NA,NA,NA,NA,""
"image-keyboard-response",232,222848,"0.0-3.73-2.73","cs0gy2ea8ojqlxf",927,"146.csv","","null","resources/images/fishbone.png","null","",NA,NA,NA,NA,""
"image-keyboard-response",233,223511,"0.0-3.74-0.74","cs0gy2ea8ojqlxf",927,"146.csv","","662.5999999046326","resources/trios/L2T2A3.jpg","37","restless",0.1,0.3,0.5,0.884507029488736,"false"
"image-keyboard-response",234,223927,"0.0-3.74-1.74","cs0gy2ea8ojqlxf",927,"146.csv","","null","resources/maskTrios/L2BB.jpg","null","",NA,NA,NA,NA,""
"image-keyboard-response",235,225140,"0.0-3.74-2.74","cs0gy2ea8ojqlxf",927,"146.csv","","null","resources/images/fishbone.png","null","",NA,NA,NA,NA,""
"image-keyboard-response",236,225403,"0.0-3.75-0.75","cs0gy2ea8ojqlxf",927,"146.csv","","262","resources/trios/L2T2A2.jpg","38","restless",0.1,0.4,0.5,0.731312513109494,"false"
"image-keyboard-response",237,225807,"0.0-3.75-1.75","cs0gy2ea8ojqlxf",927,"146.csv","","null","resources/maskTrios/BT2B.jpg","null","",NA,NA,NA,NA,""
"image-keyboard-response",238,227019,"0.0-3.75-2.75","cs0gy2ea8ojqlxf",927,"146.csv","","null","resources/images/fishbone.png","null","",NA,NA,NA,NA,""
"image-keyboard-response",239,227237,"0.0-3.76-0.76","cs0gy2ea8ojqlxf",927,"146.csv","","216.90000009536743","resources/trios/L1T2A3.jpg","39","restless",0.1,0.4,0.5,0.00322922200971032,"true"
"image-keyboard-response",240,227652,"0.0-3.76-1.76","cs0gy2ea8ojqlxf",927,"146.csv","","null","resources/maskTrios/BBA3.jpg","null","",NA,NA,NA,NA,""
"image-keyboard-response",241,228863,"0.0-3.76-2.76","cs0gy2ea8ojqlxf",927,"146.csv","","null","resources/images/coin2.png","null","",NA,NA,NA,NA,""
"image-keyboard-response",242,229117,"0.0-3.77-0.77","cs0gy2ea8ojqlxf",927,"146.csv","","251.70000004768372","resources/trios/L2T1A3.jpg","39","restless",0.1,0.4,0.5,0.656063605891597,"false"
"image-keyboard-response",243,229530,"0.0-3.77-1.77","cs0gy2ea8ojqlxf",927,"146.csv","","null","resources/maskTrios/BBA3.jpg","null","",NA,NA,NA,NA,""
"image-keyboard-response",244,230744,"0.0-3.77-2.77","cs0gy2ea8ojqlxf",927,"146.csv","","null","resources/images/fishbone.png","null","",NA,NA,NA,NA,""
"image-keyboard-response",245,231047,"0.0-3.78-0.78","cs0gy2ea8ojqlxf",927,"146.csv","","302.30000019073486","resources/trios/L1T2A3.jpg","38","restless",0.1,0.3,0.5,0.177835406408991,"true"
"image-keyboard-response",246,231460,"0.0-3.78-1.78","cs0gy2ea8ojqlxf",927,"146.csv","","null","resources/maskTrios/BT2B.jpg","null","",NA,NA,NA,NA,""
"image-keyboard-response",247,232672,"0.0-3.78-2.78","cs0gy2ea8ojqlxf",927,"146.csv","","null","resources/images/coin2.png","null","",NA,NA,NA,NA,""
"image-keyboard-response",248,232711,"0.0-3.79-0.79","cs0gy2ea8ojqlxf",927,"146.csv","","38","resources/trios/L2T1A2.jpg","38","restless",0.1,0.3,0.5,0.423979244402407,"false"
"image-keyboard-response",249,233122,"0.0-3.79-1.79","cs0gy2ea8ojqlxf",927,"146.csv","","null","resources/maskTrios/BT1B.jpg","null","",NA,NA,NA,NA,""
"image-keyboard-response",250,234332,"0.0-3.79-2.79","cs0gy2ea8ojqlxf",927,"146.csv","","null","resources/images/fishbone.png","null","",NA,NA,NA,NA,""
"image-keyboard-response",251,234384,"0.0-3.80-0.80","cs0gy2ea8ojqlxf",927,"146.csv","","50.700000047683716","resources/trios/L1T1A2.jpg","37","restless",0.1,0.2,0.5,0.797850701237878,"false"
"image-keyboard-response",252,234799,"0.0-3.80-1.80","cs0gy2ea8ojqlxf",927,"146.csv","","null","resources/maskTrios/L1BB.jpg","null","",NA,NA,NA,NA,""
"image-keyboard-response",253,236006,"0.0-3.80-2.80","cs0gy2ea8ojqlxf",927,"146.csv","","null","resources/images/fishbone.png","null","",NA,NA,NA,NA,""
"image-keyboard-response",254,236157,"0.0-3.81-0.81","cs0gy2ea8ojqlxf",927,"146.csv","","150.10000014305115","resources/trios/L1T2A2.jpg","39","restless",0.1,0.2,0.5,0.624103240277918,"false"
"image-keyboard-response",255,236560,"0.0-3.81-1.81","cs0gy2ea8ojqlxf",927,"146.csv","","null","resources/maskTrios/BBA2.jpg","null","",NA,NA,NA,NA,""
"image-keyboard-response",256,237773,"0.0-3.81-2.81","cs0gy2ea8ojqlxf",927,"146.csv","","null","resources/images/fishbone.png","null","",NA,NA,NA,NA,""
"image-keyboard-response",257,238016,"0.0-3.82-0.82","cs0gy2ea8ojqlxf",927,"146.csv","","240.5","resources/trios/L2T1A2.jpg","38","restless",0.2,0.2,0.5,0.407303701253365,"false"
"image-keyboard-response",258,238422,"0.0-3.82-1.82","cs0gy2ea8ojqlxf",927,"146.csv","","null","resources/maskTrios/BT1B.jpg","null","",NA,NA,NA,NA,""
"image-keyboard-response",259,239633,"0.0-3.82-2.82","cs0gy2ea8ojqlxf",927,"146.csv","","null","resources/images/fishbone.png","null","",NA,NA,NA,NA,""
"image-keyboard-response",260,240189,"0.0-3.83-0.83","cs0gy2ea8ojqlxf",927,"146.csv","","554.7000000476837","resources/trios/L2T1A3.jpg","38","restless",0.2,0.2,0.5,0.878628761407388,"false"
"image-keyboard-response",261,240600,"0.0-3.83-1.83","cs0gy2ea8ojqlxf",927,"146.csv","","null","resources/maskTrios/BT1B.jpg","null","",NA,NA,NA,NA,""
"image-keyboard-response",262,241811,"0.0-3.83-2.83","cs0gy2ea8ojqlxf",927,"146.csv","","null","resources/images/fishbone.png","null","",NA,NA,NA,NA,""
"image-keyboard-response",263,243800,"0.0-3.84-0.84","cs0gy2ea8ojqlxf",927,"146.csv","","1988.1000001430511","resources/trios/L2T1A3.jpg","38","restless",0.2,0.1,0.5,0.245536373469519,"false"
"image-keyboard-response",264,244208,"0.0-3.84-1.84","cs0gy2ea8ojqlxf",927,"146.csv","","null","resources/maskTrios/BT1B.jpg","null","",NA,NA,NA,NA,""
"image-keyboard-response",265,245419,"0.0-3.84-2.84","cs0gy2ea8ojqlxf",927,"146.csv","","null","resources/images/fishbone.png","null","",NA,NA,NA,NA,""
"image-keyboard-response",266,245575,"0.0-3.85-0.85","cs0gy2ea8ojqlxf",927,"146.csv","","154.90000009536743","resources/trios/L1T2A3.jpg","37","restless",0.2,0.1,0.5,0.717841340395736,"false"
"image-keyboard-response",267,245986,"0.0-3.85-1.85","cs0gy2ea8ojqlxf",927,"146.csv","","null","resources/maskTrios/L1BB.jpg","null","",NA,NA,NA,NA,""
"image-keyboard-response",268,247198,"0.0-3.85-2.85","cs0gy2ea8ojqlxf",927,"146.csv","","null","resources/images/fishbone.png","null","",NA,NA,NA,NA,""
"image-keyboard-response",269,249132,"0.0-3.86-0.86","cs0gy2ea8ojqlxf",927,"146.csv","","1932.5","resources/trios/L1T2A2.jpg","39","restless",0.2,0.1,0.5,0.627964285425442,"false"
"image-keyboard-response",270,249542,"0.0-3.86-1.86","cs0gy2ea8ojqlxf",927,"146.csv","","null","resources/maskTrios/BBA2.jpg","null","",NA,NA,NA,NA,""
"image-keyboard-response",271,250753,"0.0-3.86-2.86","cs0gy2ea8ojqlxf",927,"146.csv","","null","resources/images/fishbone.png","null","",NA,NA,NA,NA,""
"image-keyboard-response",272,254530,"0.0-3.87-0.87","cs0gy2ea8ojqlxf",927,"146.csv","","3775.5","resources/trios/L1T1A3.jpg","37","restless",0.2,0.1,0.5,0.34400209618524,"false"
"image-keyboard-response",273,254943,"0.0-3.87-1.87","cs0gy2ea8ojqlxf",927,"146.csv","","null","resources/maskTrios/L1BB.jpg","null","",NA,NA,NA,NA,""
"image-keyboard-response",274,256155,"0.0-3.87-2.87","cs0gy2ea8ojqlxf",927,"146.csv","","null","resources/images/fishbone.png","null","",NA,NA,NA,NA,""
"image-keyboard-response",275,256261,"0.0-3.88-0.88","cs0gy2ea8ojqlxf",927,"146.csv","","104.20000004768372","resources/trios/L1T2A3.jpg","39","restless",0.2,0.1,0.6,0.74330090400923,"false"
"image-keyboard-response",276,256674,"0.0-3.88-1.88","cs0gy2ea8ojqlxf",927,"146.csv","","null","resources/maskTrios/BBA3.jpg","null","",NA,NA,NA,NA,""
"image-keyboard-response",277,257889,"0.0-3.88-2.88","cs0gy2ea8ojqlxf",927,"146.csv","","null","resources/images/fishbone.png","null","",NA,NA,NA,NA,""
"image-keyboard-response",278,258021,"0.0-3.89-0.89","cs0gy2ea8ojqlxf",927,"146.csv","","130.79999995231628","resources/trios/L2T2A3.jpg","38","restless",0.1,0.1,0.6,0.64890368049098,"false"
"image-keyboard-response",279,258434,"0.0-3.89-1.89","cs0gy2ea8ojqlxf",927,"146.csv","","null","resources/maskTrios/BT2B.jpg","null","",NA,NA,NA,NA,""
"image-keyboard-response",280,259647,"0.0-3.89-2.89","cs0gy2ea8ojqlxf",927,"146.csv","","null","resources/images/fishbone.png","null","",NA,NA,NA,NA,""
"image-keyboard-response",281,259695,"0.0-3.90-0.90","cs0gy2ea8ojqlxf",927,"146.csv","","47","resources/trios/L2T1A3.jpg","39","restless",0.1,0.2,0.6,0.549378143047265,"true"
"image-keyboard-response",282,260098,"0.0-3.90-1.90","cs0gy2ea8ojqlxf",927,"146.csv","","null","resources/maskTrios/BBA3.jpg","null","",NA,NA,NA,NA,""
"image-keyboard-response",283,261308,"0.0-3.90-2.90","cs0gy2ea8ojqlxf",927,"146.csv","","null","resources/images/coin2.png","null","",NA,NA,NA,NA,""
"image-keyboard-response",284,261402,"0.0-3.91-0.91","cs0gy2ea8ojqlxf",927,"146.csv","","92.5","resources/trios/L2T2A3.jpg","37","restless",0.1,0.2,0.6,0.0906168366025544,"true"
"image-keyboard-response",285,261808,"0.0-3.91-1.91","cs0gy2ea8ojqlxf",927,"146.csv","","null","resources/maskTrios/L2BB.jpg","null","",NA,NA,NA,NA,""
"image-keyboard-response",286,263022,"0.0-3.91-2.91","cs0gy2ea8ojqlxf",927,"146.csv","","null","resources/images/coin2.png","null","",NA,NA,NA,NA,""
"image-keyboard-response",287,263029,"0.0-3.92-0.92","cs0gy2ea8ojqlxf",927,"146.csv","","5.200000047683716","resources/trios/L2T2A3.jpg","38","restless",0.1,0.2,0.7,0.768823425942964,"false"
"image-keyboard-response",288,263437,"0.0-3.92-1.92","cs0gy2ea8ojqlxf",927,"146.csv","","null","resources/maskTrios/BT2B.jpg","null","",NA,NA,NA,NA,""
"image-keyboard-response",289,264650,"0.0-3.92-2.92","cs0gy2ea8ojqlxf",927,"146.csv","","null","resources/images/fishbone.png","null","",NA,NA,NA,NA,""
"image-keyboard-response",290,264902,"0.0-3.93-0.93","cs0gy2ea8ojqlxf",927,"146.csv","","250.70000004768372","resources/trios/L2T1A3.jpg","37","restless",0.2,0.3,0.7,0.478121931556051,"false"
"image-keyboard-response",291,265315,"0.0-3.93-1.93","cs0gy2ea8ojqlxf",927,"146.csv","","null","resources/maskTrios/L2BB.jpg","null","",NA,NA,NA,NA,""
"image-keyboard-response",292,266526,"0.0-3.93-2.93","cs0gy2ea8ojqlxf",927,"146.csv","","null","resources/images/fishbone.png","null","",NA,NA,NA,NA,""
"image-keyboard-response",293,266598,"0.0-3.94-0.94","cs0gy2ea8ojqlxf",927,"146.csv","","70.79999995231628","resources/trios/L2T2A3.jpg","38","restless",0.2,0.3,0.7,0.682728925584859,"false"
"image-keyboard-response",294,267012,"0.0-3.94-1.94","cs0gy2ea8ojqlxf",927,"146.csv","","null","resources/maskTrios/BT2B.jpg","null","",NA,NA,NA,NA,""
"image-keyboard-response",295,268223,"0.0-3.94-2.94","cs0gy2ea8ojqlxf",927,"146.csv","","null","resources/images/fishbone.png","null","",NA,NA,NA,NA,""
"image-keyboard-response",296,268299,"0.0-3.95-0.95","cs0gy2ea8ojqlxf",927,"146.csv","","74.29999995231628","resources/trios/L2T1A2.jpg","38","restless",0.2,0.3,0.7,0.00121275582508718,"true"
"image-keyboard-response",297,268706,"0.0-3.95-1.95","cs0gy2ea8ojqlxf",927,"146.csv","","null","resources/maskTrios/BT1B.jpg","null","",NA,NA,NA,NA,""
"image-keyboard-response",298,269913,"0.0-3.95-2.95","cs0gy2ea8ojqlxf",927,"146.csv","","null","resources/images/coin2.png","null","",NA,NA,NA,NA,""
"image-keyboard-response",299,270201,"0.0-3.96-0.96","cs0gy2ea8ojqlxf",927,"146.csv","","286.5","resources/trios/L1T2A3.jpg","38","restless",0.3,0.3,0.7,4.18533312465108e-05,"true"
"image-keyboard-response",300,270615,"0.0-3.96-1.96","cs0gy2ea8ojqlxf",927,"146.csv","","null","resources/maskTrios/BT2B.jpg","null","",NA,NA,NA,NA,""
"image-keyboard-response",301,271829,"0.0-3.96-2.96","cs0gy2ea8ojqlxf",927,"146.csv","","null","resources/images/coin2.png","null","",NA,NA,NA,NA,""
"image-keyboard-response",302,272152,"0.0-3.97-0.97","cs0gy2ea8ojqlxf",927,"146.csv","","321.5","resources/trios/L2T2A2.jpg","38","restless",0.3,0.3,0.7,0.0992856797071544,"true"
"image-keyboard-response",303,272564,"0.0-3.97-1.97","cs0gy2ea8ojqlxf",927,"146.csv","","null","resources/maskTrios/BT2B.jpg","null","",NA,NA,NA,NA,""
"image-keyboard-response",304,273775,"0.0-3.97-2.97","cs0gy2ea8ojqlxf",927,"146.csv","","null","resources/images/coin2.png","null","",NA,NA,NA,NA,""
"image-keyboard-response",305,273820,"0.0-3.98-0.98","cs0gy2ea8ojqlxf",927,"146.csv","","42.299999952316284","resources/trios/L2T1A2.jpg","39","restless",0.2,0.3,0.6,0.367350776063076,"true"
"image-keyboard-response",306,274226,"0.0-3.98-1.98","cs0gy2ea8ojqlxf",927,"146.csv","","null","resources/maskTrios/BBA2.jpg","null","",NA,NA,NA,NA,""
"image-keyboard-response",307,275435,"0.0-3.98-2.98","cs0gy2ea8ojqlxf",927,"146.csv","","null","resources/images/coin2.png","null","",NA,NA,NA,NA,""
"image-keyboard-response",308,275599,"0.0-3.99-0.99","cs0gy2ea8ojqlxf",927,"146.csv","","162.29999995231628","resources/trios/L2T1A2.jpg","38","restless",0.2,0.3,0.6,0.0392676244959729,"true"
"image-keyboard-response",309,276004,"0.0-3.99-1.99","cs0gy2ea8ojqlxf",927,"146.csv","","null","resources/maskTrios/BT1B.jpg","null","",NA,NA,NA,NA,""
"image-keyboard-response",310,277214,"0.0-3.99-2.99","cs0gy2ea8ojqlxf",927,"146.csv","","null","resources/images/coin2.png","null","",NA,NA,NA,NA,""
"image-keyboard-response",311,277281,"0.0-3.100-0.100","cs0gy2ea8ojqlxf",927,"146.csv","","65.40000009536743","resources/trios/L1T2A3.jpg","37","restless",0.1,0.3,0.6,0.300736224755303,"false"
"image-keyboard-response",312,277698,"0.0-3.100-1.100","cs0gy2ea8ojqlxf",927,"146.csv","","null","resources/maskTrios/L1BB.jpg","null","",NA,NA,NA,NA,""
"image-keyboard-response",313,278910,"0.0-3.100-2.100","cs0gy2ea8ojqlxf",927,"146.csv","","null","resources/images/fishbone.png","null","",NA,NA,NA,NA,""
"image-keyboard-response",314,279098,"0.0-3.101-0.101","cs0gy2ea8ojqlxf",927,"146.csv","","186.90000009536743","resources/trios/L2T1A3.jpg","38","restless",0.1,0.3,0.6,0.413211226257952,"false"
"image-keyboard-response",315,279511,"0.0-3.101-1.101","cs0gy2ea8ojqlxf",927,"146.csv","","null","resources/maskTrios/BT1B.jpg","null","",NA,NA,NA,NA,""
"image-keyboard-response",316,280721,"0.0-3.101-2.101","cs0gy2ea8ojqlxf",927,"146.csv","","null","resources/images/fishbone.png","null","",NA,NA,NA,NA,""
"image-keyboard-response",317,280804,"0.0-3.102-0.102","cs0gy2ea8ojqlxf",927,"146.csv","","81.90000009536743","resources/trios/L2T1A2.jpg","38","restless",0.1,0.3,0.5,0.612839947318505,"false"
"image-keyboard-response",318,281221,"0.0-3.102-1.102","cs0gy2ea8ojqlxf",927,"146.csv","","null","resources/maskTrios/BT1B.jpg","null","",NA,NA,NA,NA,""
"image-keyboard-response",319,282434,"0.0-3.102-2.102","cs0gy2ea8ojqlxf",927,"146.csv","","null","resources/images/fishbone.png","null","",NA,NA,NA,NA,""
"image-keyboard-response",320,282480,"0.0-3.103-0.103","cs0gy2ea8ojqlxf",927,"146.csv","","44.89999985694885","resources/trios/L2T1A3.jpg","39","restless",0.1,0.3,0.5,0.394179014180415,"true"
"image-keyboard-response",321,282886,"0.0-3.103-1.103","cs0gy2ea8ojqlxf",927,"146.csv","","null","resources/maskTrios/BBA3.jpg","null","",NA,NA,NA,NA,""
"image-keyboard-response",322,284095,"0.0-3.103-2.103","cs0gy2ea8ojqlxf",927,"146.csv","","null","resources/images/coin2.png","null","",NA,NA,NA,NA,""
"image-keyboard-response",323,284101,"0.0-3.104-0.104","cs0gy2ea8ojqlxf",927,"146.csv","","4.799999952316284","resources/trios/L2T2A3.jpg","39","restless",0.1,0.3,0.5,0.917942889763223,"false"
"image-keyboard-response",324,284513,"0.0-3.104-1.104","cs0gy2ea8ojqlxf",927,"146.csv","","null","resources/maskTrios/BBA3.jpg","null","",NA,NA,NA,NA,""
"image-keyboard-response",325,285724,"0.0-3.104-2.104","cs0gy2ea8ojqlxf",927,"146.csv","","null","resources/images/fishbone.png","null","",NA,NA,NA,NA,""
"image-keyboard-response",326,286042,"0.0-3.105-0.105","cs0gy2ea8ojqlxf",927,"146.csv","","316.2999999523163","resources/trios/L2T1A3.jpg","39","restless",0.1,0.3,0.5,0.540785391096046,"false"
"image-keyboard-response",327,286457,"0.0-3.105-1.105","cs0gy2ea8ojqlxf",927,"146.csv","","null","resources/maskTrios/BBA3.jpg","null","",NA,NA,NA,NA,""
"image-keyboard-response",328,287670,"0.0-3.105-2.105","cs0gy2ea8ojqlxf",927,"146.csv","","null","resources/images/fishbone.png","null","",NA,NA,NA,NA,""
"image-keyboard-response",329,288901,"0.0-3.106-0.106","cs0gy2ea8ojqlxf",927,"146.csv","","1230.5999999046326","resources/trios/L2T2A2.jpg","39","restless",0.1,0.3,0.5,0.655509660544146,"false"
"image-keyboard-response",330,289315,"0.0-3.106-1.106","cs0gy2ea8ojqlxf",927,"146.csv","","null","resources/maskTrios/BBA2.jpg","null","",NA,NA,NA,NA,""
"image-keyboard-response",331,290528,"0.0-3.106-2.106","cs0gy2ea8ojqlxf",927,"146.csv","","null","resources/images/fishbone.png","null","",NA,NA,NA,NA,""
"image-keyboard-response",332,290721,"0.0-3.107-0.107","cs0gy2ea8ojqlxf",927,"146.csv","","191.60000014305115","resources/trios/L1T2A2.jpg","39","restless",0.1,0.3,0.5,0.688341394509687,"false"
"image-keyboard-response",333,291128,"0.0-3.107-1.107","cs0gy2ea8ojqlxf",927,"146.csv","","null","resources/maskTrios/BBA2.jpg","null","",NA,NA,NA,NA,""
"image-keyboard-response",334,292340,"0.0-3.107-2.107","cs0gy2ea8ojqlxf",927,"146.csv","","null","resources/images/fishbone.png","null","",NA,NA,NA,NA,""
"image-keyboard-response",335,292638,"0.0-3.108-0.108","cs0gy2ea8ojqlxf",927,"146.csv","","297","resources/trios/L1T1A3.jpg","39","restless",0.1,0.3,0.5,0.0876878434881558,"true"
"image-keyboard-response",336,293040,"0.0-3.108-1.108","cs0gy2ea8ojqlxf",927,"146.csv","","null","resources/maskTrios/BBA3.jpg","null","",NA,NA,NA,NA,""
"image-keyboard-response",337,294251,"0.0-3.108-2.108","cs0gy2ea8ojqlxf",927,"146.csv","","null","resources/images/coin2.png","null","",NA,NA,NA,NA,""
"image-keyboard-response",338,294785,"0.0-3.109-0.109","cs0gy2ea8ojqlxf",927,"146.csv","","532.1999998092651","resources/trios/L1T1A2.jpg","37","restless",0.1,0.3,0.5,0.296599052376417,"false"
"image-keyboard-response",339,295199,"0.0-3.109-1.109","cs0gy2ea8ojqlxf",927,"146.csv","","null","resources/maskTrios/L1BB.jpg","null","",NA,NA,NA,NA,""
"image-keyboard-response",340,296414,"0.0-3.109-2.109","cs0gy2ea8ojqlxf",927,"146.csv","","null","resources/images/fishbone.png","null","",NA,NA,NA,NA,""
"image-keyboard-response",341,296728,"0.0-3.110-0.110","cs0gy2ea8ojqlxf",927,"146.csv","","312.60000014305115","resources/trios/L2T1A3.jpg","38","restless",0.1,0.3,0.5,0.56073213446523,"false"
"image-keyboard-response",342,297130,"0.0-3.110-1.110","cs0gy2ea8ojqlxf",927,"146.csv","","null","resources/maskTrios/BT1B.jpg","null","",NA,NA,NA,NA,""
"image-keyboard-response",343,298342,"0.0-3.110-2.110","cs0gy2ea8ojqlxf",927,"146.csv","","null","resources/images/fishbone.png","null","",NA,NA,NA,NA,""
"image-keyboard-response",344,300753,"0.0-3.111-0.111","cs0gy2ea8ojqlxf",927,"146.csv","","2409.5","resources/trios/L2T2A2.jpg","38","restless",0.1,0.3,0.5,0.95629857134995,"false"
"image-keyboard-response",345,301166,"0.0-3.111-1.111","cs0gy2ea8ojqlxf",927,"146.csv","","null","resources/maskTrios/BT2B.jpg","null","",NA,NA,NA,NA,""
"image-keyboard-response",346,302379,"0.0-3.111-2.111","cs0gy2ea8ojqlxf",927,"146.csv","","null","resources/images/fishbone.png","null","",NA,NA,NA,NA,""
"image-keyboard-response",347,302465,"0.0-3.112-0.112","cs0gy2ea8ojqlxf",927,"146.csv","","85","resources/trios/L2T1A3.jpg","39","restless",0.1,0.3,0.5,0.469654715653257,"true"
"image-keyboard-response",348,302879,"0.0-3.112-1.112","cs0gy2ea8ojqlxf",927,"146.csv","","null","resources/maskTrios/BBA3.jpg","null","",NA,NA,NA,NA,""
"image-keyboard-response",349,304091,"0.0-3.112-2.112","cs0gy2ea8ojqlxf",927,"146.csv","","null","resources/images/coin2.png","null","",NA,NA,NA,NA,""
"image-keyboard-response",350,304201,"0.0-3.113-0.113","cs0gy2ea8ojqlxf",927,"146.csv","","109.5","resources/trios/L1T1A2.jpg","39","restless",0.2,0.3,0.5,0.192286745220879,"true"
"image-keyboard-response",351,304608,"0.0-3.113-1.113","cs0gy2ea8ojqlxf",927,"146.csv","","null","resources/maskTrios/BBA2.jpg","null","",NA,NA,NA,NA,""
"image-keyboard-response",352,305818,"0.0-3.113-2.113","cs0gy2ea8ojqlxf",927,"146.csv","","null","resources/images/coin2.png","null","",NA,NA,NA,NA,""
"image-keyboard-response",353,305937,"0.0-3.114-0.114","cs0gy2ea8ojqlxf",927,"146.csv","","116.70000004768372","resources/trios/L1T2A3.jpg","39","restless",0.2,0.3,0.5,0.107421893601288,"true"
"image-keyboard-response",354,306352,"0.0-3.114-1.114","cs0gy2ea8ojqlxf",927,"146.csv","","null","resources/maskTrios/BBA3.jpg","null","",NA,NA,NA,NA,""
"image-keyboard-response",355,307565,"0.0-3.114-2.114","cs0gy2ea8ojqlxf",927,"146.csv","","null","resources/images/coin2.png","null","",NA,NA,NA,NA,""
"image-keyboard-response",356,307708,"0.0-3.115-0.115","cs0gy2ea8ojqlxf",927,"146.csv","","141.59999990463257","resources/trios/L2T1A2.jpg","38","restless",0.2,0.4,0.5,0.151142929651226,"true"
"image-keyboard-response",357,308115,"0.0-3.115-1.115","cs0gy2ea8ojqlxf",927,"146.csv","","null","resources/maskTrios/BT1B.jpg","null","",NA,NA,NA,NA,""
"image-keyboard-response",358,309327,"0.0-3.115-2.115","cs0gy2ea8ojqlxf",927,"146.csv","","null","resources/images/coin2.png","null","",NA,NA,NA,NA,""
"image-keyboard-response",359,310754,"0.0-3.116-0.116","cs0gy2ea8ojqlxf",927,"146.csv","","1425.5","resources/trios/L2T1A3.jpg","39","restless",0.2,0.4,0.5,0.369255558254723,"true"
"image-keyboard-response",360,311157,"0.0-3.116-1.116","cs0gy2ea8ojqlxf",927,"146.csv","","null","resources/maskTrios/BBA3.jpg","null","",NA,NA,NA,NA,""
"image-keyboard-response",361,312370,"0.0-3.116-2.116","cs0gy2ea8ojqlxf",927,"146.csv","","null","resources/images/coin2.png","null","",NA,NA,NA,NA,""
"image-keyboard-response",362,312850,"0.0-3.117-0.117","cs0gy2ea8ojqlxf",927,"146.csv","","478.5","resources/trios/L1T1A3.jpg","38","restless",0.2,0.4,0.5,0.872855882561528,"false"
"image-keyboard-response",363,313267,"0.0-3.117-1.117","cs0gy2ea8ojqlxf",927,"146.csv","","null","resources/maskTrios/BT1B.jpg","null","",NA,NA,NA,NA,""
"image-keyboard-response",364,314479,"0.0-3.117-2.117","cs0gy2ea8ojqlxf",927,"146.csv","","null","resources/images/fishbone.png","null","",NA,NA,NA,NA,""
"image-keyboard-response",365,315048,"0.0-3.118-0.118","cs0gy2ea8ojqlxf",927,"146.csv","","567.3000001907349","resources/trios/L1T2A3.jpg","39","restless",0.2,0.5,0.5,0.184489235753761,"true"
"image-keyboard-response",366,315460,"0.0-3.118-1.118","cs0gy2ea8ojqlxf",927,"146.csv","","null","resources/maskTrios/BBA3.jpg","null","",NA,NA,NA,NA,""
"image-keyboard-response",367,316670,"0.0-3.118-2.118","cs0gy2ea8ojqlxf",927,"146.csv","","null","resources/images/coin2.png","null","",NA,NA,NA,NA,""
"image-keyboard-response",368,317137,"0.0-3.119-0.119","cs0gy2ea8ojqlxf",927,"146.csv","","464.90000009536743","resources/trios/L2T1A2.jpg","37","restless",0.2,0.5,0.5,0.735608392311238,"false"
"image-keyboard-response",369,317542,"0.0-3.119-1.119","cs0gy2ea8ojqlxf",927,"146.csv","","null","resources/maskTrios/L2BB.jpg","null","",NA,NA,NA,NA,""
"image-keyboard-response",370,318750,"0.0-3.119-2.119","cs0gy2ea8ojqlxf",927,"146.csv","","null","resources/images/fishbone.png","null","",NA,NA,NA,NA,""
"image-keyboard-response",371,318967,"0.0-3.120-0.120","cs0gy2ea8ojqlxf",927,"146.csv","","214.90000009536743","resources/trios/L1T2A3.jpg","37","restless",0.3,0.5,0.5,0.129991004381636,"true"
"image-keyboard-response",372,319376,"0.0-3.120-1.120","cs0gy2ea8ojqlxf",927,"146.csv","","null","resources/maskTrios/L1BB.jpg","null","",NA,NA,NA,NA,""
"image-keyboard-response",373,320578,"0.0-3.120-2.120","cs0gy2ea8ojqlxf",927,"146.csv","","null","resources/images/coin2.png","null","",NA,NA,NA,NA,""
"image-keyboard-response",374,320651,"0.0-3.121-0.121","cs0gy2ea8ojqlxf",927,"146.csv","","71.59999990463257","resources/trios/L1T1A2.jpg","38","restless",0.3,0.5,0.5,0.954247911891014,"false"
"image-keyboard-response",375,321059,"0.0-3.121-1.121","cs0gy2ea8ojqlxf",927,"146.csv","","null","resources/maskTrios/BT1B.jpg","null","",NA,NA,NA,NA,""
"image-keyboard-response",376,322276,"0.0-3.121-2.121","cs0gy2ea8ojqlxf",927,"146.csv","","null","resources/images/fishbone.png","null","",NA,NA,NA,NA,""
"image-keyboard-response",377,322313,"0.0-3.122-0.122","cs0gy2ea8ojqlxf",927,"146.csv","","36.09999990463257","resources/trios/L2T1A2.jpg","39","restless",0.3,0.5,0.6,0.433102301291476,"true"
"image-keyboard-response",378,322723,"0.0-3.122-1.122","cs0gy2ea8ojqlxf",927,"146.csv","","null","resources/maskTrios/BBA2.jpg","null","",NA,NA,NA,NA,""
"image-keyboard-response",379,323940,"0.0-3.122-2.122","cs0gy2ea8ojqlxf",927,"146.csv","","null","resources/images/coin2.png","null","",NA,NA,NA,NA,""
"image-keyboard-response",380,323967,"0.0-3.123-0.123","cs0gy2ea8ojqlxf",927,"146.csv","","25.59999990463257","resources/trios/L1T2A3.jpg","38","restless",0.4,0.5,0.6,0.47777403588127,"true"
"image-keyboard-response",381,324376,"0.0-3.123-1.123","cs0gy2ea8ojqlxf",927,"146.csv","","null","resources/maskTrios/BT2B.jpg","null","",NA,NA,NA,NA,""
"image-keyboard-response",382,325579,"0.0-3.123-2.123","cs0gy2ea8ojqlxf",927,"146.csv","","null","resources/images/coin2.png","null","",NA,NA,NA,NA,""
"image-keyboard-response",383,325628,"0.0-3.124-0.124","cs0gy2ea8ojqlxf",927,"146.csv","","47.09999990463257","resources/trios/L1T2A2.jpg","38","restless",0.4,0.5,0.6,0.903344591696608,"false"
"image-keyboard-response",384,326032,"0.0-3.124-1.124","cs0gy2ea8ojqlxf",927,"146.csv","","null","resources/maskTrios/BT2B.jpg","null","",NA,NA,NA,NA,""
"image-keyboard-response",385,327243,"0.0-3.124-2.124","cs0gy2ea8ojqlxf",927,"146.csv","","null","resources/images/fishbone.png","null","",NA,NA,NA,NA,""
"image-keyboard-response",386,327475,"0.0-3.125-0.125","cs0gy2ea8ojqlxf",927,"146.csv","","230.5","resources/trios/L1T1A2.jpg","38","restless",0.4,0.5,0.6,0.348450275892004,"true"
"image-keyboard-response",387,327878,"0.0-3.125-1.125","cs0gy2ea8ojqlxf",927,"146.csv","","null","resources/maskTrios/BT1B.jpg","null","",NA,NA,NA,NA,""
"image-keyboard-response",388,329091,"0.0-3.125-2.125","cs0gy2ea8ojqlxf",927,"146.csv","","null","resources/images/coin2.png","null","",NA,NA,NA,NA,""
"image-keyboard-response",389,331016,"0.0-3.126-0.126","cs0gy2ea8ojqlxf",927,"146.csv","","1923.5","resources/trios/L1T1A2.jpg","39","restless",0.4,0.5,0.6,0.279360224656763,"true"
"image-keyboard-response",390,331419,"0.0-3.126-1.126","cs0gy2ea8ojqlxf",927,"146.csv","","null","resources/maskTrios/BBA2.jpg","null","",NA,NA,NA,NA,""
"image-keyboard-response",391,332633,"0.0-3.126-2.126","cs0gy2ea8ojqlxf",927,"146.csv","","null","resources/images/coin2.png","null","",NA,NA,NA,NA,""
"image-keyboard-response",392,333117,"0.0-3.127-0.127","cs0gy2ea8ojqlxf",927,"146.csv","","482.60000014305115","resources/trios/L1T1A2.jpg","38","restless",0.4,0.5,0.6,0.273480111642458,"true"
"image-keyboard-response",393,333530,"0.0-3.127-1.127","cs0gy2ea8ojqlxf",927,"146.csv","","null","resources/maskTrios/BT1B.jpg","null","",NA,NA,NA,NA,""
"image-keyboard-response",394,334740,"0.0-3.127-2.127","cs0gy2ea8ojqlxf",927,"146.csv","","null","resources/images/coin2.png","null","",NA,NA,NA,NA,""
"image-keyboard-response",395,334855,"0.0-3.128-0.128","cs0gy2ea8ojqlxf",927,"146.csv","","113.70000004768372","resources/trios/L1T2A3.jpg","38","restless",0.4,0.5,0.6,0.729367844515434,"false"
"image-keyboard-response",396,335258,"0.0-3.128-1.128","cs0gy2ea8ojqlxf",927,"146.csv","","null","resources/maskTrios/BT2B.jpg","null","",NA,NA,NA,NA,""
"image-keyboard-response",397,336470,"0.0-3.128-2.128","cs0gy2ea8ojqlxf",927,"146.csv","","null","resources/images/fishbone.png","null","",NA,NA,NA,NA,""
"image-keyboard-response",398,336605,"0.0-3.129-0.129","cs0gy2ea8ojqlxf",927,"146.csv","","133.40000009536743","resources/trios/L1T2A2.jpg","38","restless",0.4,0.5,0.7,0.690163991518942,"false"
"image-keyboard-response",399,337018,"0.0-3.129-1.129","cs0gy2ea8ojqlxf",927,"146.csv","","null","resources/maskTrios/BT2B.jpg","null","",NA,NA,NA,NA,""
"image-keyboard-response",400,338233,"0.0-3.129-2.129","cs0gy2ea8ojqlxf",927,"146.csv","","null","resources/images/fishbone.png","null","",NA,NA,NA,NA,""
"image-keyboard-response",401,338311,"0.0-3.130-0.130","cs0gy2ea8ojqlxf",927,"146.csv","","77","resources/trios/L1T2A2.jpg","38","restless",0.4,0.5,0.7,0.84450010424274,"false"
"image-keyboard-response",402,338715,"0.0-3.130-1.130","cs0gy2ea8ojqlxf",927,"146.csv","","null","resources/maskTrios/BT2B.jpg","null","",NA,NA,NA,NA,""
"image-keyboard-response",403,339926,"0.0-3.130-2.130","cs0gy2ea8ojqlxf",927,"146.csv","","null","resources/images/fishbone.png","null","",NA,NA,NA,NA,""
"image-keyboard-response",404,339958,"0.0-3.131-0.131","cs0gy2ea8ojqlxf",927,"146.csv","","29.600000143051147","resources/trios/L2T1A2.jpg","38","restless",0.4,0.5,0.7,0.0980841126328635,"true"
"image-keyboard-response",405,340361,"0.0-3.131-1.131","cs0gy2ea8ojqlxf",927,"146.csv","","null","resources/maskTrios/BT1B.jpg","null","",NA,NA,NA,NA,""
"image-keyboard-response",406,341571,"0.0-3.131-2.131","cs0gy2ea8ojqlxf",927,"146.csv","","null","resources/images/coin2.png","null","",NA,NA,NA,NA,""
"image-keyboard-response",407,341685,"0.0-3.132-0.132","cs0gy2ea8ojqlxf",927,"146.csv","","112.79999995231628","resources/trios/L1T2A2.jpg","38","restless",0.4,0.5,0.7,0.810036525585643,"false"
"image-keyboard-response",408,342089,"0.0-3.132-1.132","cs0gy2ea8ojqlxf",927,"146.csv","","null","resources/maskTrios/BT2B.jpg","null","",NA,NA,NA,NA,""
"image-keyboard-response",409,343301,"0.0-3.132-2.132","cs0gy2ea8ojqlxf",927,"146.csv","","null","resources/images/fishbone.png","null","",NA,NA,NA,NA,""
"image-keyboard-response",410,343438,"0.0-3.133-0.133","cs0gy2ea8ojqlxf",927,"146.csv","","135.29999995231628","resources/trios/L2T1A2.jpg","39","restless",0.5,0.5,0.7,0.658526485896392,"true"
"image-keyboard-response",411,343851,"0.0-3.133-1.133","cs0gy2ea8ojqlxf",927,"146.csv","","null","resources/maskTrios/BBA2.jpg","null","",NA,NA,NA,NA,""
"image-keyboard-response",412,345065,"0.0-3.133-2.133","cs0gy2ea8ojqlxf",927,"146.csv","","null","resources/images/coin2.png","null","",NA,NA,NA,NA,""
"image-keyboard-response",413,345091,"0.0-3.134-0.134","cs0gy2ea8ojqlxf",927,"146.csv","","24.59999990463257","resources/trios/L2T1A2.jpg","38","restless",0.5,0.5,0.7,0.0514091651072361,"true"
"image-keyboard-response",414,345498,"0.0-3.134-1.134","cs0gy2ea8ojqlxf",927,"146.csv","","null","resources/maskTrios/BT1B.jpg","null","",NA,NA,NA,NA,""
"image-keyboard-response",415,346702,"0.0-3.134-2.134","cs0gy2ea8ojqlxf",927,"146.csv","","null","resources/images/coin2.png","null","",NA,NA,NA,NA,""
"image-keyboard-response",416,346730,"0.0-3.135-0.135","cs0gy2ea8ojqlxf",927,"146.csv","","25.899999856948853","resources/trios/L2T1A3.jpg","38","restless",0.5,0.5,0.7,0.751301409217954,"false"
"image-keyboard-response",417,347135,"0.0-3.135-1.135","cs0gy2ea8ojqlxf",927,"146.csv","","null","resources/maskTrios/BT1B.jpg","null","",NA,NA,NA,NA,""
"image-keyboard-response",418,348340,"0.0-3.135-2.135","cs0gy2ea8ojqlxf",927,"146.csv","","null","resources/images/fishbone.png","null","",NA,NA,NA,NA,""
"image-keyboard-response",419,348419,"0.0-3.136-0.136","cs0gy2ea8ojqlxf",927,"146.csv","","77.39999985694885","resources/trios/L2T2A3.jpg","38","restless",0.5,0.5,0.7,0.316946516205603,"true"
"image-keyboard-response",420,348823,"0.0-3.136-1.136","cs0gy2ea8ojqlxf",927,"146.csv","","null","resources/maskTrios/BT2B.jpg","null","",NA,NA,NA,NA,""
"image-keyboard-response",421,350033,"0.0-3.136-2.136","cs0gy2ea8ojqlxf",927,"146.csv","","null","resources/images/coin2.png","null","",NA,NA,NA,NA,""
"image-keyboard-response",422,350202,"0.0-3.137-0.137","cs0gy2ea8ojqlxf",927,"146.csv","","167.29999995231628","resources/trios/L1T1A3.jpg","38","restless",0.5,0.5,0.7,0.701977214803424,"false"
"image-keyboard-response",423,350616,"0.0-3.137-1.137","cs0gy2ea8ojqlxf",927,"146.csv","","null","resources/maskTrios/BT1B.jpg","null","",NA,NA,NA,NA,""
"image-keyboard-response",424,351827,"0.0-3.137-2.137","cs0gy2ea8ojqlxf",927,"146.csv","","null","resources/images/fishbone.png","null","",NA,NA,NA,NA,""
"image-keyboard-response",425,351937,"0.0-3.138-0.138","cs0gy2ea8ojqlxf",927,"146.csv","","108.09999990463257","resources/trios/L2T1A3.jpg","38","restless",0.5,0.5,0.7,0.629212947259458,"false"
"image-keyboard-response",426,352345,"0.0-3.138-1.138","cs0gy2ea8ojqlxf",927,"146.csv","","null","resources/maskTrios/BT1B.jpg","null","",NA,NA,NA,NA,""
"image-keyboard-response",427,353555,"0.0-3.138-2.138","cs0gy2ea8ojqlxf",927,"146.csv","","null","resources/images/fishbone.png","null","",NA,NA,NA,NA,""
"image-keyboard-response",428,353761,"0.0-3.139-0.139","cs0gy2ea8ojqlxf",927,"146.csv","","204.79999995231628","resources/trios/L2T2A3.jpg","38","restless",0.5,0.5,0.7,0.997899388819687,"false"
"image-keyboard-response",429,354176,"0.0-3.139-1.139","cs0gy2ea8ojqlxf",927,"146.csv","","null","resources/maskTrios/BT2B.jpg","null","",NA,NA,NA,NA,""
"image-keyboard-response",430,355385,"0.0-3.139-2.139","cs0gy2ea8ojqlxf",927,"146.csv","","null","resources/images/fishbone.png","null","",NA,NA,NA,NA,""
"image-keyboard-response",431,355528,"0.0-3.140-0.140","cs0gy2ea8ojqlxf",927,"146.csv","","141.5","resources/trios/L1T2A2.jpg","38","restless",0.5,0.5,0.7,0.90616478744395,"false"
"image-keyboard-response",432,355935,"0.0-3.140-1.140","cs0gy2ea8ojqlxf",927,"146.csv","","null","resources/maskTrios/BT2B.jpg","null","",NA,NA,NA,NA,""
"image-keyboard-response",433,357146,"0.0-3.140-2.140","cs0gy2ea8ojqlxf",927,"146.csv","","null","resources/images/fishbone.png","null","",NA,NA,NA,NA,""
"image-keyboard-response",434,357175,"0.0-3.141-0.141","cs0gy2ea8ojqlxf",927,"146.csv","","27.700000047683716","resources/trios/L1T1A3.jpg","38","restless",0.5,0.5,0.7,0.215182854112822,"true"
"image-keyboard-response",435,357581,"0.0-3.141-1.141","cs0gy2ea8ojqlxf",927,"146.csv","","null","resources/maskTrios/BT1B.jpg","null","",NA,NA,NA,NA,""
"image-keyboard-response",436,358793,"0.0-3.141-2.141","cs0gy2ea8ojqlxf",927,"146.csv","","null","resources/images/coin2.png","null","",NA,NA,NA,NA,""
"image-keyboard-response",437,358917,"0.0-3.142-0.142","cs0gy2ea8ojqlxf",927,"146.csv","","122.70000004768372","resources/trios/L2T2A2.jpg","38","restless",0.5,0.5,0.7,0.600843200892485,"false"
"image-keyboard-response",438,359326,"0.0-3.142-1.142","cs0gy2ea8ojqlxf",927,"146.csv","","null","resources/maskTrios/BT2B.jpg","null","",NA,NA,NA,NA,""
"image-keyboard-response",439,360537,"0.0-3.142-2.142","cs0gy2ea8ojqlxf",927,"146.csv","","null","resources/images/fishbone.png","null","",NA,NA,NA,NA,""
"image-keyboard-response",440,360590,"0.0-3.143-0.143","cs0gy2ea8ojqlxf",927,"146.csv","","51.90000009536743","resources/trios/L2T1A3.jpg","38","restless",0.5,0.5,0.7,0.709875807781632,"false"
"image-keyboard-response",441,361005,"0.0-3.143-1.143","cs0gy2ea8ojqlxf",927,"146.csv","","null","resources/maskTrios/BT1B.jpg","null","",NA,NA,NA,NA,""
"image-keyboard-response",442,362215,"0.0-3.143-2.143","cs0gy2ea8ojqlxf",927,"146.csv","","null","resources/images/fishbone.png","null","",NA,NA,NA,NA,""
"image-keyboard-response",443,362402,"0.0-3.144-0.144","cs0gy2ea8ojqlxf",927,"146.csv","","185.20000004768372","resources/trios/L1T1A2.jpg","38","restless",0.5,0.5,0.7,0.464791143030996,"true"
"image-keyboard-response",444,362817,"0.0-3.144-1.144","cs0gy2ea8ojqlxf",927,"146.csv","","null","resources/maskTrios/BT1B.jpg","null","",NA,NA,NA,NA,""
"image-keyboard-response",445,364026,"0.0-3.144-2.144","cs0gy2ea8ojqlxf",927,"146.csv","","null","resources/images/coin2.png","null","",NA,NA,NA,NA,""
"image-keyboard-response",446,364136,"0.0-3.145-0.145","cs0gy2ea8ojqlxf",927,"146.csv","","108.79999995231628","resources/trios/L1T1A2.jpg","38","restless",0.5,0.5,0.8,0.809880823510092,"false"
"image-keyboard-response",447,364545,"0.0-3.145-1.145","cs0gy2ea8ojqlxf",927,"146.csv","","null","resources/maskTrios/BT1B.jpg","null","",NA,NA,NA,NA,""
"image-keyboard-response",448,365750,"0.0-3.145-2.145","cs0gy2ea8ojqlxf",927,"146.csv","","null","resources/images/fishbone.png","null","",NA,NA,NA,NA,""
"image-keyboard-response",449,365894,"0.0-3.146-0.146","cs0gy2ea8ojqlxf",927,"146.csv","","142.5","resources/trios/L2T1A2.jpg","38","restless",0.5,0.5,0.8,0.233790764225868,"true"
"image-keyboard-response",450,366306,"0.0-3.146-1.146","cs0gy2ea8ojqlxf",927,"146.csv","","null","resources/maskTrios/BT1B.jpg","null","",NA,NA,NA,NA,""
"image-keyboard-response",451,367519,"0.0-3.146-2.146","cs0gy2ea8ojqlxf",927,"146.csv","","null","resources/images/coin2.png","null","",NA,NA,NA,NA,""
"image-keyboard-response",452,367699,"0.0-3.147-0.147","cs0gy2ea8ojqlxf",927,"146.csv","","178.29999995231628","resources/trios/L2T2A2.jpg","38","restless",0.5,0.5,0.8,0.60794330066197,"false"
"image-keyboard-response",453,368110,"0.0-3.147-1.147","cs0gy2ea8ojqlxf",927,"146.csv","","null","resources/maskTrios/BT2B.jpg","null","",NA,NA,NA,NA,""
"image-keyboard-response",454,369314,"0.0-3.147-2.147","cs0gy2ea8ojqlxf",927,"146.csv","","null","resources/images/fishbone.png","null","",NA,NA,NA,NA,""
"image-keyboard-response",455,369382,"0.0-3.148-0.148","cs0gy2ea8ojqlxf",927,"146.csv","","66.59999990463257","resources/trios/L2T1A2.jpg","39","restless",0.5,0.5,0.8,0.375482425574942,"true"
"image-keyboard-response",456,369795,"0.0-3.148-1.148","cs0gy2ea8ojqlxf",927,"146.csv","","null","resources/maskTrios/BBA2.jpg","null","",NA,NA,NA,NA,""
"image-keyboard-response",457,371008,"0.0-3.148-2.148","cs0gy2ea8ojqlxf",927,"146.csv","","null","resources/images/coin2.png","null","",NA,NA,NA,NA,""
"image-keyboard-response",458,371216,"0.0-3.149-0.149","cs0gy2ea8ojqlxf",927,"146.csv","","205.70000004768372","resources/trios/L2T2A3.jpg","39","restless",0.5,0.5,0.8,0.089722749128889,"true"
"image-keyboard-response",459,371625,"0.0-3.149-1.149","cs0gy2ea8ojqlxf",927,"146.csv","","null","resources/maskTrios/BBA3.jpg","null","",NA,NA,NA,NA,""
"image-keyboard-response",460,372839,"0.0-3.149-2.149","cs0gy2ea8ojqlxf",927,"146.csv","","null","resources/images/coin2.png","null","",NA,NA,NA,NA,""
"image-keyboard-response",461,373002,"0.0-3.150-0.150","cs0gy2ea8ojqlxf",927,"146.csv","","161.5","resources/trios/L1T2A3.jpg","38","restless",0.5,0.6,0.8,0.568993395946875,"true"
"image-keyboard-response",462,373404,"0.0-3.150-1.150","cs0gy2ea8ojqlxf",927,"146.csv","","null","resources/maskTrios/BT2B.jpg","null","",NA,NA,NA,NA,""
"image-keyboard-response",463,374616,"0.0-3.150-2.150","cs0gy2ea8ojqlxf",927,"146.csv","","null","resources/images/coin2.png","null","",NA,NA,NA,NA,""
"image-keyboard-response",464,374667,"0.0-3.151-0.151","cs0gy2ea8ojqlxf",927,"146.csv","","49.299999952316284","resources/trios/L1T2A3.jpg","38","restless",0.5,0.6,0.8,0.532887230923332,"true"
"image-keyboard-response",465,375082,"0.0-3.151-1.151","cs0gy2ea8ojqlxf",927,"146.csv","","null","resources/maskTrios/BT2B.jpg","null","",NA,NA,NA,NA,""
"image-keyboard-response",466,376289,"0.0-3.151-2.151","cs0gy2ea8ojqlxf",927,"146.csv","","null","resources/images/coin2.png","null","",NA,NA,NA,NA,""
"image-keyboard-response",467,376538,"0.0-3.152-0.152","cs0gy2ea8ojqlxf",927,"146.csv","","247.79999995231628","resources/trios/L2T2A2.jpg","39","restless",0.5,0.6,0.8,0.766361591517854,"true"
"image-keyboard-response",468,376945,"0.0-3.152-1.152","cs0gy2ea8ojqlxf",927,"146.csv","","null","resources/maskTrios/BBA2.jpg","null","",NA,NA,NA,NA,""
"image-keyboard-response",469,378157,"0.0-3.152-2.152","cs0gy2ea8ojqlxf",927,"146.csv","","null","resources/images/coin2.png","null","",NA,NA,NA,NA,""
"image-keyboard-response",470,378285,"0.0-3.153-0.153","cs0gy2ea8ojqlxf",927,"146.csv","","126.89999985694885","resources/trios/L2T1A3.jpg","38","restless",0.5,0.5,0.8,0.541943263711236,"false"
"image-keyboard-response",471,378689,"0.0-3.153-1.153","cs0gy2ea8ojqlxf",927,"146.csv","","null","resources/maskTrios/BT1B.jpg","null","",NA,NA,NA,NA,""
"image-keyboard-response",472,379901,"0.0-3.153-2.153","cs0gy2ea8ojqlxf",927,"146.csv","","null","resources/images/fishbone.png","null","",NA,NA,NA,NA,""
"image-keyboard-response",473,379911,"0.0-3.154-0.154","cs0gy2ea8ojqlxf",927,"146.csv","","8.799999952316284","resources/trios/L1T1A3.jpg","37","restless",0.5,0.5,0.8,0.507408422448268,"false"
"image-keyboard-response",474,380318,"0.0-3.154-1.154","cs0gy2ea8ojqlxf",927,"146.csv","","null","resources/maskTrios/L1BB.jpg","null","",NA,NA,NA,NA,""
"image-keyboard-response",475,381530,"0.0-3.154-2.154","cs0gy2ea8ojqlxf",927,"146.csv","","null","resources/images/fishbone.png","null","",NA,NA,NA,NA,""
"image-keyboard-response",476,381625,"0.0-3.155-0.155","cs0gy2ea8ojqlxf",927,"146.csv","","94.20000004768372","resources/trios/L2T1A2.jpg","38","restless",0.5,0.5,0.8,0.379862554748826,"true"
"image-keyboard-response",477,382030,"0.0-3.155-1.155","cs0gy2ea8ojqlxf",927,"146.csv","","null","resources/maskTrios/BT1B.jpg","null","",NA,NA,NA,NA,""
"image-keyboard-response",478,383231,"0.0-3.155-2.155","cs0gy2ea8ojqlxf",927,"146.csv","","null","resources/images/coin2.png","null","",NA,NA,NA,NA,""
"image-keyboard-response",479,383458,"0.0-3.156-0.156","cs0gy2ea8ojqlxf",927,"146.csv","","224.90000009536743","resources/trios/L2T1A3.jpg","39","restless",0.5,0.5,0.8,0.0281954654442991,"true"
"image-keyboard-response",480,383867,"0.0-3.156-1.156","cs0gy2ea8ojqlxf",927,"146.csv","","null","resources/maskTrios/BBA3.jpg","null","",NA,NA,NA,NA,""
"image-keyboard-response",481,385079,"0.0-3.156-2.156","cs0gy2ea8ojqlxf",927,"146.csv","","null","resources/images/coin2.png","null","",NA,NA,NA,NA,""
"image-keyboard-response",482,385291,"0.0-3.157-0.157","cs0gy2ea8ojqlxf",927,"146.csv","","210.70000004768372","resources/trios/L2T2A2.jpg","37","restless",0.5,0.5,0.7,0.273428075352177,"true"
"image-keyboard-response",483,385704,"0.0-3.157-1.157","cs0gy2ea8ojqlxf",927,"146.csv","","null","resources/maskTrios/L2BB.jpg","null","",NA,NA,NA,NA,""
"image-keyboard-response",484,386914,"0.0-3.157-2.157","cs0gy2ea8ojqlxf",927,"146.csv","","null","resources/images/coin2.png","null","",NA,NA,NA,NA,""
"image-keyboard-response",485,387091,"0.0-3.158-0.158","cs0gy2ea8ojqlxf",927,"146.csv","","175.70000004768372","resources/trios/L1T2A3.jpg","37","restless",0.5,0.5,0.7,0.123540792773577,"true"
"image-keyboard-response",486,387497,"0.0-3.158-1.158","cs0gy2ea8ojqlxf",927,"146.csv","","null","resources/maskTrios/L1BB.jpg","null","",NA,NA,NA,NA,""
"image-keyboard-response",487,388711,"0.0-3.158-2.158","cs0gy2ea8ojqlxf",927,"146.csv","","null","resources/images/coin2.png","null","",NA,NA,NA,NA,""
"image-keyboard-response",488,388722,"0.0-3.159-0.159","cs0gy2ea8ojqlxf",927,"146.csv","","9.5","resources/trios/L1T2A3.jpg","37","restless",0.5,0.6,0.7,0.589277218382987,"false"
"image-keyboard-response",489,389127,"0.0-3.159-1.159","cs0gy2ea8ojqlxf",927,"146.csv","","null","resources/maskTrios/L1BB.jpg","null","",NA,NA,NA,NA,""
"image-keyboard-response",490,390339,"0.0-3.159-2.159","cs0gy2ea8ojqlxf",927,"146.csv","","null","resources/images/fishbone.png","null","",NA,NA,NA,NA,""
"image-keyboard-response",491,390449,"0.0-3.160-0.160","cs0gy2ea8ojqlxf",927,"146.csv","","109.20000004768372","resources/trios/L2T1A2.jpg","39","restless",0.5,0.6,0.7,0.209269444634065,"true"
"image-keyboard-response",492,390853,"0.0-3.160-1.160","cs0gy2ea8ojqlxf",927,"146.csv","","null","resources/maskTrios/BBA2.jpg","null","",NA,NA,NA,NA,""
"image-keyboard-response",493,392069,"0.0-3.160-2.160","cs0gy2ea8ojqlxf",927,"146.csv","","null","resources/images/coin2.png","null","",NA,NA,NA,NA,""
"image-keyboard-response",494,392090,"0.0-3.161-0.161","cs0gy2ea8ojqlxf",927,"146.csv","","19.299999952316284","resources/trios/L1T1A3.jpg","37","restless",0.5,0.6,0.7,0.915924146024157,"false"
"image-keyboard-response",495,392501,"0.0-3.161-1.161","cs0gy2ea8ojqlxf",927,"146.csv","","null","resources/maskTrios/L1BB.jpg","null","",NA,NA,NA,NA,""
"image-keyboard-response",496,393714,"0.0-3.161-2.161","cs0gy2ea8ojqlxf",927,"146.csv","","null","resources/images/fishbone.png","null","",NA,NA,NA,NA,""
"image-keyboard-response",497,393880,"0.0-3.162-0.162","cs0gy2ea8ojqlxf",927,"146.csv","","164.40000009536743","resources/trios/L1T1A2.jpg","39","restless",0.5,0.5,0.7,0.491598477726879,"true"
"image-keyboard-response",498,394289,"0.0-3.162-1.162","cs0gy2ea8ojqlxf",927,"146.csv","","null","resources/maskTrios/BBA2.jpg","null","",NA,NA,NA,NA,""
"image-keyboard-response",499,395493,"0.0-3.162-2.162","cs0gy2ea8ojqlxf",927,"146.csv","","null","resources/images/coin2.png","null","",NA,NA,NA,NA,""
"image-keyboard-response",500,395604,"0.0-3.163-0.163","cs0gy2ea8ojqlxf",927,"146.csv","","109.5","resources/trios/L2T2A3.jpg","38","restless",0.4,0.5,0.7,0.109908335840017,"true"
"image-keyboard-response",501,396009,"0.0-3.163-1.163","cs0gy2ea8ojqlxf",927,"146.csv","","null","resources/maskTrios/BT2B.jpg","null","",NA,NA,NA,NA,""
"image-keyboard-response",502,397221,"0.0-3.163-2.163","cs0gy2ea8ojqlxf",927,"146.csv","","null","resources/images/coin2.png","null","",NA,NA,NA,NA,""
"image-keyboard-response",503,397413,"0.0-3.164-0.164","cs0gy2ea8ojqlxf",927,"146.csv","","191","resources/trios/L1T1A2.jpg","37","restless",0.4,0.5,0.6,0.451964630321054,"false"
"image-keyboard-response",504,397821,"0.0-3.164-1.164","cs0gy2ea8ojqlxf",927,"146.csv","","null","resources/maskTrios/L1BB.jpg","null","",NA,NA,NA,NA,""
"image-keyboard-response",505,399032,"0.0-3.164-2.164","cs0gy2ea8ojqlxf",927,"146.csv","","null","resources/images/fishbone.png","null","",NA,NA,NA,NA,""
"image-keyboard-response",506,399199,"0.0-3.165-0.165","cs0gy2ea8ojqlxf",927,"146.csv","","166.29999995231628","resources/trios/L2T1A2.jpg","38","restless",0.4,0.5,0.6,0.926674178403681,"false"
"image-keyboard-response",507,399614,"0.0-3.165-1.165","cs0gy2ea8ojqlxf",927,"146.csv","","null","resources/maskTrios/BT1B.jpg","null","",NA,NA,NA,NA,""
"image-keyboard-response",508,400827,"0.0-3.165-2.165","cs0gy2ea8ojqlxf",927,"146.csv","","null","resources/images/fishbone.png","null","",NA,NA,NA,NA,""
"image-keyboard-response",509,400870,"0.0-3.166-0.166","cs0gy2ea8ojqlxf",927,"146.csv","","41.90000009536743","resources/trios/L1T1A3.jpg","38","restless",0.4,0.5,0.6,0.97902932933093,"false"
"image-keyboard-response",510,401279,"0.0-3.166-1.166","cs0gy2ea8ojqlxf",927,"146.csv","","null","resources/maskTrios/BT1B.jpg","null","",NA,NA,NA,NA,""
"image-keyboard-response",511,402489,"0.0-3.166-2.166","cs0gy2ea8ojqlxf",927,"146.csv","","null","resources/images/fishbone.png","null","",NA,NA,NA,NA,""
"image-keyboard-response",512,402504,"0.0-3.167-0.167","cs0gy2ea8ojqlxf",927,"146.csv","","13.599999904632568","resources/trios/L2T2A2.jpg","37","restless",0.4,0.5,0.6,0.911254249702063,"false"
"image-keyboard-response",513,402907,"0.0-3.167-1.167","cs0gy2ea8ojqlxf",927,"146.csv","","null","resources/maskTrios/L2BB.jpg","null","",NA,NA,NA,NA,""
"image-keyboard-response",514,404117,"0.0-3.167-2.167","cs0gy2ea8ojqlxf",927,"146.csv","","null","resources/images/fishbone.png","null","",NA,NA,NA,NA,""
"image-keyboard-response",515,404233,"0.0-3.168-0.168","cs0gy2ea8ojqlxf",927,"146.csv","","114.29999995231628","resources/trios/L1T1A2.jpg","38","restless",0.4,0.5,0.6,0.642775437356943,"false"
"image-keyboard-response",516,404635,"0.0-3.168-1.168","cs0gy2ea8ojqlxf",927,"146.csv","","null","resources/maskTrios/BT1B.jpg","null","",NA,NA,NA,NA,""
"image-keyboard-response",517,405846,"0.0-3.168-2.168","cs0gy2ea8ojqlxf",927,"146.csv","","null","resources/images/fishbone.png","null","",NA,NA,NA,NA,""
"image-keyboard-response",518,405951,"0.0-3.169-0.169","cs0gy2ea8ojqlxf",927,"146.csv","","102.90000009536743","resources/trios/L2T2A2.jpg","39","restless",0.4,0.5,0.6,0.201287297073482,"true"
"image-keyboard-response",519,406363,"0.0-3.169-1.169","cs0gy2ea8ojqlxf",927,"146.csv","","null","resources/maskTrios/BBA2.jpg","null","",NA,NA,NA,NA,""
"image-keyboard-response",520,407575,"0.0-3.169-2.169","cs0gy2ea8ojqlxf",927,"146.csv","","null","resources/images/coin2.png","null","",NA,NA,NA,NA,""
"image-keyboard-response",521,407953,"0.0-3.170-0.170","cs0gy2ea8ojqlxf",927,"146.csv","","376.59999990463257","resources/trios/L2T2A2.jpg","37","restless",0.4,0.5,0.6,0.390422927626135,"true"
"image-keyboard-response",522,408368,"0.0-3.170-1.170","cs0gy2ea8ojqlxf",927,"146.csv","","null","resources/maskTrios/L2BB.jpg","null","",NA,NA,NA,NA,""
"image-keyboard-response",523,409577,"0.0-3.170-2.170","cs0gy2ea8ojqlxf",927,"146.csv","","null","resources/images/coin2.png","null","",NA,NA,NA,NA,""
"image-keyboard-response",524,419882,"0.0-3.171-0.171","cs0gy2ea8ojqlxf",927,"146.csv","","10303.299999952316","resources/trios/L2T1A2.jpg","39","restless",0.4,0.5,0.6,0.786947638243303,"false"
"image-keyboard-response",525,420294,"0.0-3.171-1.171","cs0gy2ea8ojqlxf",927,"146.csv","","null","resources/maskTrios/BBA2.jpg","null","",NA,NA,NA,NA,""
"image-keyboard-response",526,421506,"0.0-3.171-2.171","cs0gy2ea8ojqlxf",927,"146.csv","","null","resources/images/fishbone.png","null","",NA,NA,NA,NA,""
"image-keyboard-response",527,421520,"0.0-3.172-0.172","cs0gy2ea8ojqlxf",927,"146.csv","","12.699999809265137","resources/trios/L1T1A2.jpg","39","restless",0.5,0.5,0.6,0.672336701522085,"false"
"image-keyboard-response",528,421921,"0.0-3.172-1.172","cs0gy2ea8ojqlxf",927,"146.csv","","null","resources/maskTrios/BBA2.jpg","null","",NA,NA,NA,NA,""
"image-keyboard-response",529,423134,"0.0-3.172-2.172","cs0gy2ea8ojqlxf",927,"146.csv","","null","resources/images/fishbone.png","null","",NA,NA,NA,NA,""
"image-keyboard-response",530,423273,"0.0-3.173-0.173","cs0gy2ea8ojqlxf",927,"146.csv","","137.70000004768372","resources/trios/L1T2A2.jpg","39","restless",0.6,0.5,0.6,0.0543767840444032,"true"
"image-keyboard-response",531,423683,"0.0-3.173-1.173","cs0gy2ea8ojqlxf",927,"146.csv","","null","resources/maskTrios/BBA2.jpg","null","",NA,NA,NA,NA,""
"image-keyboard-response",532,424895,"0.0-3.173-2.173","cs0gy2ea8ojqlxf",927,"146.csv","","null","resources/images/coin2.png","null","",NA,NA,NA,NA,""
"image-keyboard-response",533,424920,"0.0-3.174-0.174","cs0gy2ea8ojqlxf",927,"146.csv","","24.100000143051147","resources/trios/L1T2A2.jpg","39","restless",0.6,0.6,0.5,0.562057331953407,"false"
"image-keyboard-response",534,425329,"0.0-3.174-1.174","cs0gy2ea8ojqlxf",927,"146.csv","","null","resources/maskTrios/BBA2.jpg","null","",NA,NA,NA,NA,""
"image-keyboard-response",535,426541,"0.0-3.174-2.174","cs0gy2ea8ojqlxf",927,"146.csv","","null","resources/images/fishbone.png","null","",NA,NA,NA,NA,""
"image-keyboard-response",536,426810,"0.0-3.175-0.175","cs0gy2ea8ojqlxf",927,"146.csv","","267.40000009536743","resources/trios/L2T1A2.jpg","39","restless",0.6,0.6,0.5,0.759086573327723,"false"
"image-keyboard-response",537,427222,"0.0-3.175-1.175","cs0gy2ea8ojqlxf",927,"146.csv","","null","resources/maskTrios/BBA2.jpg","null","",NA,NA,NA,NA,""
"image-keyboard-response",538,428435,"0.0-3.175-2.175","cs0gy2ea8ojqlxf",927,"146.csv","","null","resources/images/fishbone.png","null","",NA,NA,NA,NA,""
"image-keyboard-response",539,428637,"0.0-3.176-0.176","cs0gy2ea8ojqlxf",927,"146.csv","","200.19999980926514","resources/trios/L2T2A3.jpg","39","restless",0.6,0.6,0.5,0.712909221205415,"false"
"image-keyboard-response",540,429050,"0.0-3.176-1.176","cs0gy2ea8ojqlxf",927,"146.csv","","null","resources/maskTrios/BBA3.jpg","null","",NA,NA,NA,NA,""
"image-keyboard-response",541,430263,"0.0-3.176-2.176","cs0gy2ea8ojqlxf",927,"146.csv","","null","resources/images/fishbone.png","null","",NA,NA,NA,NA,""
"image-keyboard-response",542,430372,"0.0-3.177-0.177","cs0gy2ea8ojqlxf",927,"146.csv","","107.20000004768372","resources/trios/L2T1A2.jpg","39","restless",0.6,0.6,0.5,0.404105325111271,"true"
"image-keyboard-response",543,430779,"0.0-3.177-1.177","cs0gy2ea8ojqlxf",927,"146.csv","","null","resources/maskTrios/BBA2.jpg","null","",NA,NA,NA,NA,""
"image-keyboard-response",544,431992,"0.0-3.177-2.177","cs0gy2ea8ojqlxf",927,"146.csv","","null","resources/images/coin2.png","null","",NA,NA,NA,NA,""
"image-keyboard-response",545,432134,"0.0-3.178-0.178","cs0gy2ea8ojqlxf",927,"146.csv","","140.90000009536743","resources/trios/L1T2A3.jpg","39","restless",0.6,0.7,0.6,0.0578814122060847,"true"
"image-keyboard-response",546,432542,"0.0-3.178-1.178","cs0gy2ea8ojqlxf",927,"146.csv","","null","resources/maskTrios/BBA3.jpg","null","",NA,NA,NA,NA,""
"image-keyboard-response",547,433753,"0.0-3.178-2.178","cs0gy2ea8ojqlxf",927,"146.csv","","null","resources/images/coin2.png","null","",NA,NA,NA,NA,""
"image-keyboard-response",548,433760,"0.0-3.179-0.179","cs0gy2ea8ojqlxf",927,"146.csv","","4.8999998569488525","resources/trios/L2T1A3.jpg","39","restless",0.6,0.7,0.6,0.673649602463864,"false"
"image-keyboard-response",549,434171,"0.0-3.179-1.179","cs0gy2ea8ojqlxf",927,"146.csv","","null","resources/maskTrios/BBA3.jpg","null","",NA,NA,NA,NA,""
"image-keyboard-response",550,435383,"0.0-3.179-2.179","cs0gy2ea8ojqlxf",927,"146.csv","","null","resources/images/fishbone.png","null","",NA,NA,NA,NA,""
"image-keyboard-response",551,435419,"0.0-3.180-0.180","cs0gy2ea8ojqlxf",927,"146.csv","","34.80000019073486","resources/trios/L1T2A2.jpg","39","restless",0.6,0.7,0.6,0.921159434206584,"false"
"image-keyboard-response",552,435833,"0.0-3.180-1.180","cs0gy2ea8ojqlxf",927,"146.csv","","null","resources/maskTrios/BBA2.jpg","null","",NA,NA,NA,NA,""
"image-keyboard-response",553,437044,"0.0-3.180-2.180","cs0gy2ea8ojqlxf",927,"146.csv","","null","resources/images/fishbone.png","null","",NA,NA,NA,NA,""
"image-keyboard-response",554,437234,"0.0-3.181-0.181","cs0gy2ea8ojqlxf",927,"146.csv","","188.5","resources/trios/L1T1A3.jpg","39","restless",0.6,0.7,0.6,0.297080751640237,"true"
"image-keyboard-response",555,437647,"0.0-3.181-1.181","cs0gy2ea8ojqlxf",927,"146.csv","","null","resources/maskTrios/BBA3.jpg","null","",NA,NA,NA,NA,""
"image-keyboard-response",556,438858,"0.0-3.181-2.181","cs0gy2ea8ojqlxf",927,"146.csv","","null","resources/images/coin2.png","null","",NA,NA,NA,NA,""
"image-keyboard-response",557,438931,"0.0-3.182-0.182","cs0gy2ea8ojqlxf",927,"146.csv","","71.40000009536743","resources/trios/L2T2A3.jpg","39","restless",0.6,0.7,0.6,0.469431238578663,"true"
"image-keyboard-response",558,439341,"0.0-3.182-1.182","cs0gy2ea8ojqlxf",927,"146.csv","","null","resources/maskTrios/BBA3.jpg","null","",NA,NA,NA,NA,""
"image-keyboard-response",559,440552,"0.0-3.182-2.182","cs0gy2ea8ojqlxf",927,"146.csv","","null","resources/images/coin2.png","null","",NA,NA,NA,NA,""
"image-keyboard-response",560,440754,"0.0-3.183-0.183","cs0gy2ea8ojqlxf",927,"146.csv","","200.39999985694885","resources/trios/L2T1A2.jpg","39","restless",0.6,0.7,0.5,0.439359056838438,"true"
"image-keyboard-response",561,441168,"0.0-3.183-1.183","cs0gy2ea8ojqlxf",927,"146.csv","","null","resources/maskTrios/BBA2.jpg","null","",NA,NA,NA,NA,""
"image-keyboard-response",562,442380,"0.0-3.183-2.183","cs0gy2ea8ojqlxf",927,"146.csv","","null","resources/images/coin2.png","null","",NA,NA,NA,NA,""
"image-keyboard-response",563,443204,"0.0-3.184-0.184","cs0gy2ea8ojqlxf",927,"146.csv","","822","resources/trios/L2T2A3.jpg","39","restless",0.6,0.7,0.5,0.947965981745674,"false"
"image-keyboard-response",564,443612,"0.0-3.184-1.184","cs0gy2ea8ojqlxf",927,"146.csv","","null","resources/maskTrios/BBA3.jpg","null","",NA,NA,NA,NA,""
"image-keyboard-response",565,444823,"0.0-3.184-2.184","cs0gy2ea8ojqlxf",927,"146.csv","","null","resources/images/fishbone.png","null","",NA,NA,NA,NA,""
"image-keyboard-response",566,444885,"0.0-3.185-0.185","cs0gy2ea8ojqlxf",927,"146.csv","","61.200000047683716","resources/trios/L2T2A3.jpg","39","restless",0.6,0.7,0.5,0.990088881081714,"false"
"image-keyboard-response",567,445291,"0.0-3.185-1.185","cs0gy2ea8ojqlxf",927,"146.csv","","null","resources/maskTrios/BBA3.jpg","null","",NA,NA,NA,NA,""
"image-keyboard-response",568,446502,"0.0-3.185-2.185","cs0gy2ea8ojqlxf",927,"146.csv","","null","resources/images/fishbone.png","null","",NA,NA,NA,NA,""
"image-keyboard-response",569,446884,"0.0-3.186-0.186","cs0gy2ea8ojqlxf",927,"146.csv","","380.10000014305115","resources/trios/L2T1A3.jpg","39","restless",0.6,0.7,0.5,0.43298141625239,"true"
"image-keyboard-response",570,447288,"0.0-3.186-1.186","cs0gy2ea8ojqlxf",927,"146.csv","","null","resources/maskTrios/BBA3.jpg","null","",NA,NA,NA,NA,""
"image-keyboard-response",571,448498,"0.0-3.186-2.186","cs0gy2ea8ojqlxf",927,"146.csv","","null","resources/images/coin2.png","null","",NA,NA,NA,NA,""
"image-keyboard-response",572,464751,"0.0-3.187-0.187","cs0gy2ea8ojqlxf",927,"146.csv","","16251.900000095367","resources/trios/L2T2A2.jpg","39","restless",0.7,0.8,0.5,0.21443330188949,"true"
"image-keyboard-response",573,465153,"0.0-3.187-1.187","cs0gy2ea8ojqlxf",927,"146.csv","","null","resources/maskTrios/BBA2.jpg","null","",NA,NA,NA,NA,""
"image-keyboard-response",574,466358,"0.0-3.187-2.187","cs0gy2ea8ojqlxf",927,"146.csv","","null","resources/images/coin2.png","null","",NA,NA,NA,NA,""
"image-keyboard-response",575,466571,"0.0-3.188-0.188","cs0gy2ea8ojqlxf",927,"146.csv","","211.5","resources/trios/L1T2A2.jpg","39","restless",0.7,0.8,0.5,0.476838754203562,"true"
"image-keyboard-response",576,466983,"0.0-3.188-1.188","cs0gy2ea8ojqlxf",927,"146.csv","","null","resources/maskTrios/BBA2.jpg","null","",NA,NA,NA,NA,""
"image-keyboard-response",577,468195,"0.0-3.188-2.188","cs0gy2ea8ojqlxf",927,"146.csv","","null","resources/images/coin2.png","null","",NA,NA,NA,NA,""
"image-keyboard-response",578,468322,"0.0-3.189-0.189","cs0gy2ea8ojqlxf",927,"146.csv","","125.5","resources/trios/L2T1A2.jpg","39","restless",0.7,0.8,0.5,0.022598696055804,"true"
"image-keyboard-response",579,468727,"0.0-3.189-1.189","cs0gy2ea8ojqlxf",927,"146.csv","","null","resources/maskTrios/BBA2.jpg","null","",NA,NA,NA,NA,""
"image-keyboard-response",580,469934,"0.0-3.189-2.189","cs0gy2ea8ojqlxf",927,"146.csv","","null","resources/images/coin2.png","null","",NA,NA,NA,NA,""
"image-keyboard-response",581,470081,"0.0-3.190-0.190","cs0gy2ea8ojqlxf",927,"146.csv","","145.20000004768372","resources/trios/L1T1A2.jpg","39","restless",0.7,0.8,0.5,0.908077786979862,"false"
"image-keyboard-response",582,470488,"0.0-3.190-1.190","cs0gy2ea8ojqlxf",927,"146.csv","","null","resources/maskTrios/BBA2.jpg","null","",NA,NA,NA,NA,""
"image-keyboard-response",583,471701,"0.0-3.190-2.190","cs0gy2ea8ojqlxf",927,"146.csv","","null","resources/images/fishbone.png","null","",NA,NA,NA,NA,""
"image-keyboard-response",584,471793,"0.0-3.191-0.191","cs0gy2ea8ojqlxf",927,"146.csv","","91.29999995231628","resources/trios/L2T2A3.jpg","39","restless",0.7,0.8,0.5,0.648550723382194,"false"
"image-keyboard-response",585,472201,"0.0-3.191-1.191","cs0gy2ea8ojqlxf",927,"146.csv","","null","resources/maskTrios/BBA3.jpg","null","",NA,NA,NA,NA,""
"image-keyboard-response",586,473412,"0.0-3.191-2.191","cs0gy2ea8ojqlxf",927,"146.csv","","null","resources/images/fishbone.png","null","",NA,NA,NA,NA,""
"image-keyboard-response",587,473424,"0.0-3.192-0.192","cs0gy2ea8ojqlxf",927,"146.csv","","9.800000190734863","resources/trios/L2T2A3.jpg","39","restless",0.6,0.7,0.5,0.64051622870579,"false"
"image-keyboard-response",588,473830,"0.0-3.192-1.192","cs0gy2ea8ojqlxf",927,"146.csv","","null","resources/maskTrios/BBA3.jpg","null","",NA,NA,NA,NA,""
"image-keyboard-response",589,475041,"0.0-3.192-2.192","cs0gy2ea8ojqlxf",927,"146.csv","","null","resources/images/fishbone.png","null","",NA,NA,NA,NA,""
"image-keyboard-response",590,475215,"0.0-3.193-0.193","cs0gy2ea8ojqlxf",927,"146.csv","","173.20000004768372","resources/trios/L2T1A3.jpg","39","restless",0.5,0.8,0.5,0.636907558324876,"false"
"image-keyboard-response",591,475625,"0.0-3.193-1.193","cs0gy2ea8ojqlxf",927,"146.csv","","null","resources/maskTrios/BBA3.jpg","null","",NA,NA,NA,NA,""
"image-keyboard-response",592,476826,"0.0-3.193-2.193","cs0gy2ea8ojqlxf",927,"146.csv","","null","resources/images/fishbone.png","null","",NA,NA,NA,NA,""
"image-keyboard-response",593,482187,"0.0-3.194-0.194","cs0gy2ea8ojqlxf",927,"146.csv","","5359","resources/trios/L2T1A2.jpg","39","restless",0.5,0.8,0.5,0.446839109917768,"true"
"image-keyboard-response",594,482589,"0.0-3.194-1.194","cs0gy2ea8ojqlxf",927,"146.csv","","null","resources/maskTrios/BBA2.jpg","null","",NA,NA,NA,NA,""
"image-keyboard-response",595,483802,"0.0-3.194-2.194","cs0gy2ea8ojqlxf",927,"146.csv","","null","resources/images/coin2.png","null","",NA,NA,NA,NA,""
"image-keyboard-response",596,483980,"0.0-3.195-0.195","cs0gy2ea8ojqlxf",927,"146.csv","","177.10000014305115","resources/trios/L1T2A2.jpg","39","restless",0.5,0.8,0.5,0.243785318505377,"true"
"image-keyboard-response",597,484384,"0.0-3.195-1.195","cs0gy2ea8ojqlxf",927,"146.csv","","null","resources/maskTrios/BBA2.jpg","null","",NA,NA,NA,NA,""
"image-keyboard-response",598,485596,"0.0-3.195-2.195","cs0gy2ea8ojqlxf",927,"146.csv","","null","resources/images/coin2.png","null","",NA,NA,NA,NA,""
"image-keyboard-response",599,485654,"0.0-3.196-0.196","cs0gy2ea8ojqlxf",927,"146.csv","","55.39999985694885","resources/trios/L1T2A2.jpg","39","restless",0.5,0.8,0.5,0.268689676930433,"true"
"image-keyboard-response",600,486062,"0.0-3.196-1.196","cs0gy2ea8ojqlxf",927,"146.csv","","null","resources/maskTrios/BBA2.jpg","null","",NA,NA,NA,NA,""
"image-keyboard-response",601,487274,"0.0-3.196-2.196","cs0gy2ea8ojqlxf",927,"146.csv","","null","resources/images/coin2.png","null","",NA,NA,NA,NA,""
"image-keyboard-response",602,487412,"0.0-3.197-0.197","cs0gy2ea8ojqlxf",927,"146.csv","","136","resources/trios/L1T1A3.jpg","39","restless",0.5,0.8,0.5,0.410228666092014,"true"
"image-keyboard-response",603,487825,"0.0-3.197-1.197","cs0gy2ea8ojqlxf",927,"146.csv","","null","resources/maskTrios/BBA3.jpg","null","",NA,NA,NA,NA,""
"image-keyboard-response",604,489034,"0.0-3.197-2.197","cs0gy2ea8ojqlxf",927,"146.csv","","null","resources/images/coin2.png","null","",NA,NA,NA,NA,""
"image-keyboard-response",605,489148,"0.0-3.198-0.198","cs0gy2ea8ojqlxf",927,"146.csv","","112.59999990463257","resources/trios/L2T1A2.jpg","39","restless",0.5,0.8,0.5,0.761638559466835,"false"
"image-keyboard-response",606,489553,"0.0-3.198-1.198","cs0gy2ea8ojqlxf",927,"146.csv","","null","resources/maskTrios/BBA2.jpg","null","",NA,NA,NA,NA,""
