"trial_type","trial_index","time_elapsed","internal_node_id","subject","participantCode","walkNumber","success","rt","stimulus","key_press","test_part","leftProb","midProb","rightProb","generatedNum","correct"
"pavlovia",0,1332,"0.0-0.0","yusb9hc0vdq3ygm",332,"138.csv","","","","","",NA,NA,NA,NA,""
"fullscreen",1,4405,"0.0-1.0","yusb9hc0vdq3ygm",332,"138.csv","true","","","","",NA,NA,NA,NA,""
"html-keyboard-response",2,7302,"0.0-2.0-0.0","yusb9hc0vdq3ygm",332,"138.csv","","2895.2000000476837","<p><font size='6'>Arrrgh!</p></font><p>Can you be the best pirate? Try to find lots of gold! But beware, some islands have more gold than others, and over time, the island with the most gold may change. Can YOU figure it out? </p><font size='6'>GOOD LUCK, CAPTAIN!!!</font><p>Press any key to begin</p>","32","",NA,NA,NA,NA,""
"image-keyboard-response",3,10309,"0.0-2.0-1.0","yusb9hc0vdq3ygm",332,"138.csv","","null","resources/image_sets/111.png","null","",NA,NA,NA,NA,""
"image-keyboard-response",4,23574,"0.0-2.0-2.0","yusb9hc0vdq3ygm",332,"138.csv","","13262.600000023842","resources/image_sets/left_highlight.png","37","",NA,NA,NA,NA,""
"image-keyboard-response",5,25336,"0.0-2.0-3.0","yusb9hc0vdq3ygm",332,"138.csv","","1759.3999999761581","resources/image_sets/mid_highlight.png","38","",NA,NA,NA,NA,""
"image-keyboard-response",6,26850,"0.0-2.0-4.0","yusb9hc0vdq3ygm",332,"138.csv","","1512.8999999761581","resources/image_sets/right_highlight.png","39","",NA,NA,NA,NA,""
"image-keyboard-response",7,28381,"0.0-2.0-5.0","yusb9hc0vdq3ygm",332,"138.csv","","1529.7000000476837","resources/image_sets/111.png","13","",NA,NA,NA,NA,""
"image-keyboard-response",8,31628,"0.0-2.0-6.0","yusb9hc0vdq3ygm",332,"138.csv","","3244.5","resources/images/coin2.png","13","",NA,NA,NA,NA,""
"image-keyboard-response",9,43720,"0.0-2.0-7.0","yusb9hc0vdq3ygm",332,"138.csv","","12077.300000071526","resources/images/fishbone.png","13","",NA,NA,NA,NA,""
"html-keyboard-response",10,44862,"0.0-2.0-8.0","yusb9hc0vdq3ygm",332,"138.csv","","1138.2999999523163","<p>Your first journey will be a long one, but you will get a well deserved break at the end</p><p>After the break you will have four more journeys, but each will be much shorter than the first, and you will have breaks in between each</p><p>Press Enter to begin</p>","13","",NA,NA,NA,NA,""
"image-keyboard-response",11,46834,"0.0-3.0-0.0","yusb9hc0vdq3ygm",332,"138.csv","","1966.1999999284744","resources/trios/L1T4A2.jpg","37","restless",0.7,0.9,0.3,0.939090547919636,"false"
"image-keyboard-response",12,47240,"0.0-3.0-1.0","yusb9hc0vdq3ygm",332,"138.csv","","null","resources/maskTrios/L1BB.jpg","null","",NA,NA,NA,NA,""
"image-keyboard-response",13,48449,"0.0-3.0-2.0","yusb9hc0vdq3ygm",332,"138.csv","","null","resources/images/fishbone.png","null","",NA,NA,NA,NA,""
"image-keyboard-response",14,49188,"0.0-3.1-0.1","yusb9hc0vdq3ygm",332,"138.csv","","735","resources/trios/L2T1A3.jpg","38","restless",0.7,0.9,0.2,0.00709011269721893,"true"
"image-keyboard-response",15,49594,"0.0-3.1-1.1","yusb9hc0vdq3ygm",332,"138.csv","","null","resources/maskTrios/BT1B.jpg","null","",NA,NA,NA,NA,""
"image-keyboard-response",16,50802,"0.0-3.1-2.1","yusb9hc0vdq3ygm",332,"138.csv","","null","resources/images/coin2.png","null","",NA,NA,NA,NA,""
"image-keyboard-response",17,51210,"0.0-3.2-0.2","yusb9hc0vdq3ygm",332,"138.csv","","404.1999999284744","resources/trios/L1T1A3.jpg","38","restless",0.7,0.9,0.2,0.849948585920391,"true"
"image-keyboard-response",18,51618,"0.0-3.2-1.2","yusb9hc0vdq3ygm",332,"138.csv","","null","resources/maskTrios/BT1B.jpg","null","",NA,NA,NA,NA,""
"image-keyboard-response",19,52822,"0.0-3.2-2.2","yusb9hc0vdq3ygm",332,"138.csv","","null","resources/images/coin2.png","null","",NA,NA,NA,NA,""
"image-keyboard-response",20,53264,"0.0-3.3-0.3","yusb9hc0vdq3ygm",332,"138.csv","","439.60000002384186","resources/trios/L1T4A3.jpg","38","restless",0.6,0.9,0.1,0.413203206917335,"true"
"image-keyboard-response",21,53668,"0.0-3.3-1.3","yusb9hc0vdq3ygm",332,"138.csv","","null","resources/maskTrios/BT4B.jpg","null","",NA,NA,NA,NA,""
"image-keyboard-response",22,54872,"0.0-3.3-2.3","yusb9hc0vdq3ygm",332,"138.csv","","null","resources/images/coin2.png","null","",NA,NA,NA,NA,""
"image-keyboard-response",23,55167,"0.0-3.4-0.4","yusb9hc0vdq3ygm",332,"138.csv","","292.60000002384186","resources/trios/L2T1A3.jpg","38","restless",0.6,0.9,0.1,0.300661682895669,"true"
"image-keyboard-response",24,55574,"0.0-3.4-1.4","yusb9hc0vdq3ygm",332,"138.csv","","null","resources/maskTrios/BT1B.jpg","null","",NA,NA,NA,NA,""
"image-keyboard-response",25,56779,"0.0-3.4-2.4","yusb9hc0vdq3ygm",332,"138.csv","","null","resources/images/coin2.png","null","",NA,NA,NA,NA,""
"image-keyboard-response",26,57079,"0.0-3.5-0.5","yusb9hc0vdq3ygm",332,"138.csv","","298.7999999523163","resources/trios/L2T4A2.jpg","38","restless",0.6,0.8,0.1,0.577896769117603,"true"
"image-keyboard-response",27,57485,"0.0-3.5-1.5","yusb9hc0vdq3ygm",332,"138.csv","","null","resources/maskTrios/BT4B.jpg","null","",NA,NA,NA,NA,""
"image-keyboard-response",28,58687,"0.0-3.5-2.5","yusb9hc0vdq3ygm",332,"138.csv","","null","resources/images/coin2.png","null","",NA,NA,NA,NA,""
"image-keyboard-response",29,59019,"0.0-3.6-0.6","yusb9hc0vdq3ygm",332,"138.csv","","330.5","resources/trios/L2T4A3.jpg","38","restless",0.6,0.7,0.1,0.0955282576356071,"true"
"image-keyboard-response",30,59427,"0.0-3.6-1.6","yusb9hc0vdq3ygm",332,"138.csv","","null","resources/maskTrios/BT4B.jpg","null","",NA,NA,NA,NA,""
"image-keyboard-response",31,60635,"0.0-3.6-2.6","yusb9hc0vdq3ygm",332,"138.csv","","null","resources/images/coin2.png","null","",NA,NA,NA,NA,""
"image-keyboard-response",32,60818,"0.0-3.7-0.7","yusb9hc0vdq3ygm",332,"138.csv","","180.10000002384186","resources/trios/L1T1A2.jpg","38","restless",0.6,0.7,0.1,0.247662939968508,"true"
"image-keyboard-response",33,61225,"0.0-3.7-1.7","yusb9hc0vdq3ygm",332,"138.csv","","null","resources/maskTrios/BT1B.jpg","null","",NA,NA,NA,NA,""
"image-keyboard-response",34,62433,"0.0-3.7-2.7","yusb9hc0vdq3ygm",332,"138.csv","","null","resources/images/coin2.png","null","",NA,NA,NA,NA,""
"image-keyboard-response",35,62836,"0.0-3.8-0.8","yusb9hc0vdq3ygm",332,"138.csv","","399.8000000715256","resources/trios/L1T4A3.jpg","38","restless",0.6,0.7,0.1,0.581111745678248,"true"
"image-keyboard-response",36,63243,"0.0-3.8-1.8","yusb9hc0vdq3ygm",332,"138.csv","","null","resources/maskTrios/BT4B.jpg","null","",NA,NA,NA,NA,""
"image-keyboard-response",37,64446,"0.0-3.8-2.8","yusb9hc0vdq3ygm",332,"138.csv","","null","resources/images/coin2.png","null","",NA,NA,NA,NA,""
"image-keyboard-response",38,64893,"0.0-3.9-0.9","yusb9hc0vdq3ygm",332,"138.csv","","444.10000002384186","resources/trios/L1T4A2.jpg","38","restless",0.7,0.7,0.1,0.237536619821314,"true"
"image-keyboard-response",39,65301,"0.0-3.9-1.9","yusb9hc0vdq3ygm",332,"138.csv","","null","resources/maskTrios/BT4B.jpg","null","",NA,NA,NA,NA,""
"image-keyboard-response",40,66509,"0.0-3.9-2.9","yusb9hc0vdq3ygm",332,"138.csv","","null","resources/images/coin2.png","null","",NA,NA,NA,NA,""
"image-keyboard-response",41,66900,"0.0-3.10-0.10","yusb9hc0vdq3ygm",332,"138.csv","","388.59999990463257","resources/trios/L2T1A2.jpg","38","restless",0.7,0.7,0.1,0.0674359602695422,"true"
"image-keyboard-response",42,67306,"0.0-3.10-1.10","yusb9hc0vdq3ygm",332,"138.csv","","null","resources/maskTrios/BT1B.jpg","null","",NA,NA,NA,NA,""
"image-keyboard-response",43,68514,"0.0-3.10-2.10","yusb9hc0vdq3ygm",332,"138.csv","","null","resources/images/coin2.png","null","",NA,NA,NA,NA,""
"image-keyboard-response",44,68545,"0.0-3.11-0.11","yusb9hc0vdq3ygm",332,"138.csv","","30.399999976158142","resources/trios/L1T4A3.jpg","38","restless",0.7,0.8,0.1,0.895064939513103,"false"
"image-keyboard-response",45,68948,"0.0-3.11-1.11","yusb9hc0vdq3ygm",332,"138.csv","","null","resources/maskTrios/BT4B.jpg","null","",NA,NA,NA,NA,""
"image-keyboard-response",46,70155,"0.0-3.11-2.11","yusb9hc0vdq3ygm",332,"138.csv","","null","resources/images/fishbone.png","null","",NA,NA,NA,NA,""
"image-keyboard-response",47,70556,"0.0-3.12-0.12","yusb9hc0vdq3ygm",332,"138.csv","","398.7999999523163","resources/trios/L1T1A2.jpg","38","restless",0.7,0.8,0.1,0.0842148764043875,"true"
"image-keyboard-response",48,70963,"0.0-3.12-1.12","yusb9hc0vdq3ygm",332,"138.csv","","null","resources/maskTrios/BT1B.jpg","null","",NA,NA,NA,NA,""
"image-keyboard-response",49,72169,"0.0-3.12-2.12","yusb9hc0vdq3ygm",332,"138.csv","","null","resources/images/coin2.png","null","",NA,NA,NA,NA,""
"image-keyboard-response",50,72961,"0.0-3.13-0.13","yusb9hc0vdq3ygm",332,"138.csv","","789.2000000476837","resources/trios/L2T1A3.jpg","38","restless",0.8,0.8,0.1,0.0101874881952759,"true"
"image-keyboard-response",51,73368,"0.0-3.13-1.13","yusb9hc0vdq3ygm",332,"138.csv","","null","resources/maskTrios/BT1B.jpg","null","",NA,NA,NA,NA,""
"image-keyboard-response",52,74576,"0.0-3.13-2.13","yusb9hc0vdq3ygm",332,"138.csv","","null","resources/images/coin2.png","null","",NA,NA,NA,NA,""
"image-keyboard-response",53,77868,"0.0-3.14-0.14","yusb9hc0vdq3ygm",332,"138.csv","","3289.600000023842","resources/trios/L1T1A3.jpg","38","restless",0.8,0.8,0.1,0.839082312778003,"false"
"image-keyboard-response",54,78274,"0.0-3.14-1.14","yusb9hc0vdq3ygm",332,"138.csv","","null","resources/maskTrios/BT1B.jpg","null","",NA,NA,NA,NA,""
"image-keyboard-response",55,79478,"0.0-3.14-2.14","yusb9hc0vdq3ygm",332,"138.csv","","null","resources/images/fishbone.png","null","",NA,NA,NA,NA,""
"image-keyboard-response",56,79942,"0.0-3.15-0.15","yusb9hc0vdq3ygm",332,"138.csv","","462.2999999523163","resources/trios/L1T1A2.jpg","38","restless",0.8,0.8,0.1,0.103879767918909,"true"
"image-keyboard-response",57,80348,"0.0-3.15-1.15","yusb9hc0vdq3ygm",332,"138.csv","","null","resources/maskTrios/BT1B.jpg","null","",NA,NA,NA,NA,""
"image-keyboard-response",58,81552,"0.0-3.15-2.15","yusb9hc0vdq3ygm",332,"138.csv","","null","resources/images/coin2.png","null","",NA,NA,NA,NA,""
"image-keyboard-response",59,81971,"0.0-3.16-0.16","yusb9hc0vdq3ygm",332,"138.csv","","415.90000009536743","resources/trios/L2T4A3.jpg","38","restless",0.8,0.8,0.1,0.518678784607876,"true"
"image-keyboard-response",60,82378,"0.0-3.16-1.16","yusb9hc0vdq3ygm",332,"138.csv","","null","resources/maskTrios/BT4B.jpg","null","",NA,NA,NA,NA,""
"image-keyboard-response",61,83586,"0.0-3.16-2.16","yusb9hc0vdq3ygm",332,"138.csv","","null","resources/images/coin2.png","null","",NA,NA,NA,NA,""
"image-keyboard-response",62,83612,"0.0-3.17-0.17","yusb9hc0vdq3ygm",332,"138.csv","","25","resources/trios/L1T1A3.jpg","38","restless",0.8,0.8,0.1,0.536726875528564,"true"
"image-keyboard-response",63,84016,"0.0-3.17-1.17","yusb9hc0vdq3ygm",332,"138.csv","","null","resources/maskTrios/BT1B.jpg","null","",NA,NA,NA,NA,""
"image-keyboard-response",64,85221,"0.0-3.17-2.17","yusb9hc0vdq3ygm",332,"138.csv","","null","resources/images/coin2.png","null","",NA,NA,NA,NA,""
"image-keyboard-response",65,85660,"0.0-3.18-0.18","yusb9hc0vdq3ygm",332,"138.csv","","437.39999997615814","resources/trios/L1T1A2.jpg","39","restless",0.7,0.8,0.1,0.801247140745285,"false"
"image-keyboard-response",66,86065,"0.0-3.18-1.18","yusb9hc0vdq3ygm",332,"138.csv","","null","resources/maskTrios/BBA2.jpg","null","",NA,NA,NA,NA,""
"image-keyboard-response",67,87268,"0.0-3.18-2.18","yusb9hc0vdq3ygm",332,"138.csv","","null","resources/images/fishbone.png","null","",NA,NA,NA,NA,""
"image-keyboard-response",68,87437,"0.0-3.19-0.19","yusb9hc0vdq3ygm",332,"138.csv","","167.19999992847443","resources/trios/L2T1A3.jpg","39","restless",0.7,0.7,0.1,0.803473923062457,"false"
"image-keyboard-response",69,87844,"0.0-3.19-1.19","yusb9hc0vdq3ygm",332,"138.csv","","null","resources/maskTrios/BBA3.jpg","null","",NA,NA,NA,NA,""
"image-keyboard-response",70,89051,"0.0-3.19-2.19","yusb9hc0vdq3ygm",332,"138.csv","","null","resources/images/fishbone.png","null","",NA,NA,NA,NA,""
"image-keyboard-response",71,89451,"0.0-3.20-0.20","yusb9hc0vdq3ygm",332,"138.csv","","397.39999997615814","resources/trios/L2T1A3.jpg","37","restless",0.7,0.7,0.1,0.0651836332005078,"true"
"image-keyboard-response",72,89854,"0.0-3.20-1.20","yusb9hc0vdq3ygm",332,"138.csv","","null","resources/maskTrios/L2BB.jpg","null","",NA,NA,NA,NA,""
"image-keyboard-response",73,91061,"0.0-3.20-2.20","yusb9hc0vdq3ygm",332,"138.csv","","null","resources/images/coin2.png","null","",NA,NA,NA,NA,""
"image-keyboard-response",74,91529,"0.0-3.21-0.21","yusb9hc0vdq3ygm",332,"138.csv","","464.2000000476837","resources/trios/L2T1A2.jpg","37","restless",0.7,0.6,0.1,0.748645104463145,"false"
"image-keyboard-response",75,91937,"0.0-3.21-1.21","yusb9hc0vdq3ygm",332,"138.csv","","null","resources/maskTrios/L2BB.jpg","null","",NA,NA,NA,NA,""
"image-keyboard-response",76,93144,"0.0-3.21-2.21","yusb9hc0vdq3ygm",332,"138.csv","","null","resources/images/fishbone.png","null","",NA,NA,NA,NA,""
"image-keyboard-response",77,94039,"0.0-3.22-0.22","yusb9hc0vdq3ygm",332,"138.csv","","892.6000000238419","resources/trios/L2T1A3.jpg","38","restless",0.7,0.6,0.2,0.0354159330474564,"true"
"image-keyboard-response",78,94445,"0.0-3.22-1.22","yusb9hc0vdq3ygm",332,"138.csv","","null","resources/maskTrios/BT1B.jpg","null","",NA,NA,NA,NA,""
"image-keyboard-response",79,95652,"0.0-3.22-2.22","yusb9hc0vdq3ygm",332,"138.csv","","null","resources/images/coin2.png","null","",NA,NA,NA,NA,""
"image-keyboard-response",80,100429,"0.0-3.23-0.23","yusb9hc0vdq3ygm",332,"138.csv","","4774.899999976158","resources/trios/L2T4A3.jpg","38","restless",0.7,0.6,0.2,0.172722783924399,"true"
"image-keyboard-response",81,100835,"0.0-3.23-1.23","yusb9hc0vdq3ygm",332,"138.csv","","null","resources/maskTrios/BT4B.jpg","null","",NA,NA,NA,NA,""
"image-keyboard-response",82,102039,"0.0-3.23-2.23","yusb9hc0vdq3ygm",332,"138.csv","","null","resources/images/coin2.png","null","",NA,NA,NA,NA,""
"image-keyboard-response",83,102593,"0.0-3.24-0.24","yusb9hc0vdq3ygm",332,"138.csv","","552.1000000238419","resources/trios/L1T4A2.jpg","38","restless",0.7,0.6,0.2,0.839761468445064,"false"
"image-keyboard-response",84,102997,"0.0-3.24-1.24","yusb9hc0vdq3ygm",332,"138.csv","","null","resources/maskTrios/BT4B.jpg","null","",NA,NA,NA,NA,""
"image-keyboard-response",85,104202,"0.0-3.24-2.24","yusb9hc0vdq3ygm",332,"138.csv","","null","resources/images/fishbone.png","null","",NA,NA,NA,NA,""
"image-keyboard-response",86,106246,"0.0-3.25-0.25","yusb9hc0vdq3ygm",332,"138.csv","","2042.7000000476837","resources/trios/L1T4A3.jpg","38","restless",0.7,0.6,0.2,0.917035846223026,"false"
"image-keyboard-response",87,106651,"0.0-3.25-1.25","yusb9hc0vdq3ygm",332,"138.csv","","null","resources/maskTrios/BT4B.jpg","null","",NA,NA,NA,NA,""
"image-keyboard-response",88,107857,"0.0-3.25-2.25","yusb9hc0vdq3ygm",332,"138.csv","","null","resources/images/fishbone.png","null","",NA,NA,NA,NA,""
"image-keyboard-response",89,108905,"0.0-3.26-0.26","yusb9hc0vdq3ygm",332,"138.csv","","1045.5","resources/trios/L2T1A2.jpg","38","restless",0.7,0.6,0.2,0.28195075666974,"true"
"image-keyboard-response",90,109309,"0.0-3.26-1.26","yusb9hc0vdq3ygm",332,"138.csv","","null","resources/maskTrios/BT1B.jpg","null","",NA,NA,NA,NA,""
"image-keyboard-response",91,110516,"0.0-3.26-2.26","yusb9hc0vdq3ygm",332,"138.csv","","null","resources/images/coin2.png","null","",NA,NA,NA,NA,""
"image-keyboard-response",92,111376,"0.0-3.27-0.27","yusb9hc0vdq3ygm",332,"138.csv","","858","resources/trios/L1T4A2.jpg","39","restless",0.7,0.6,0.2,0.938002771809306,"false"
"image-keyboard-response",93,111779,"0.0-3.27-1.27","yusb9hc0vdq3ygm",332,"138.csv","","null","resources/maskTrios/BBA2.jpg","null","",NA,NA,NA,NA,""
"image-keyboard-response",94,112986,"0.0-3.27-2.27","yusb9hc0vdq3ygm",332,"138.csv","","null","resources/images/fishbone.png","null","",NA,NA,NA,NA,""
"image-keyboard-response",95,114101,"0.0-3.28-0.28","yusb9hc0vdq3ygm",332,"138.csv","","1112","resources/trios/L2T1A2.jpg","38","restless",0.7,0.6,0.2,0.00788355303416788,"true"
"image-keyboard-response",96,114505,"0.0-3.28-1.28","yusb9hc0vdq3ygm",332,"138.csv","","null","resources/maskTrios/BT1B.jpg","null","",NA,NA,NA,NA,""
"image-keyboard-response",97,115712,"0.0-3.28-2.28","yusb9hc0vdq3ygm",332,"138.csv","","null","resources/images/coin2.png","null","",NA,NA,NA,NA,""
"image-keyboard-response",98,125598,"0.0-3.29-0.29","yusb9hc0vdq3ygm",332,"138.csv","","9883.699999928474","resources/trios/L1T1A2.jpg","38","restless",0.6,0.6,0.2,0.907589867414214,"false"
"image-keyboard-response",99,126006,"0.0-3.29-1.29","yusb9hc0vdq3ygm",332,"138.csv","","null","resources/maskTrios/BT1B.jpg","null","",NA,NA,NA,NA,""
"image-keyboard-response",100,127212,"0.0-3.29-2.29","yusb9hc0vdq3ygm",332,"138.csv","","null","resources/images/fishbone.png","null","",NA,NA,NA,NA,""
"image-keyboard-response",101,132340,"0.0-3.30-0.30","yusb9hc0vdq3ygm",332,"138.csv","","5125.700000047684","resources/trios/L1T4A3.jpg","38","restless",0.6,0.6,0.2,0.0238909580206723,"true"
"image-keyboard-response",102,132745,"0.0-3.30-1.30","yusb9hc0vdq3ygm",332,"138.csv","","null","resources/maskTrios/BT4B.jpg","null","",NA,NA,NA,NA,""
"image-keyboard-response",103,133952,"0.0-3.30-2.30","yusb9hc0vdq3ygm",332,"138.csv","","null","resources/images/coin2.png","null","",NA,NA,NA,NA,""
"image-keyboard-response",104,134934,"0.0-3.31-0.31","yusb9hc0vdq3ygm",332,"138.csv","","978.7000000476837","resources/trios/L2T1A3.jpg","38","restless",0.6,0.5,0.2,0.395166715856916,"true"
"image-keyboard-response",105,135341,"0.0-3.31-1.31","yusb9hc0vdq3ygm",332,"138.csv","","null","resources/maskTrios/BT1B.jpg","null","",NA,NA,NA,NA,""
"image-keyboard-response",106,136544,"0.0-3.31-2.31","yusb9hc0vdq3ygm",332,"138.csv","","null","resources/images/coin2.png","null","",NA,NA,NA,NA,""
"image-keyboard-response",107,137032,"0.0-3.32-0.32","yusb9hc0vdq3ygm",332,"138.csv","","485.39999997615814","resources/trios/L2T1A3.jpg","38","restless",0.6,0.5,0.2,0.995394021955966,"false"
"image-keyboard-response",108,137439,"0.0-3.32-1.32","yusb9hc0vdq3ygm",332,"138.csv","","null","resources/maskTrios/BT1B.jpg","null","",NA,NA,NA,NA,""
"image-keyboard-response",109,138645,"0.0-3.32-2.32","yusb9hc0vdq3ygm",332,"138.csv","","null","resources/images/fishbone.png","null","",NA,NA,NA,NA,""
"image-keyboard-response",110,139124,"0.0-3.33-0.33","yusb9hc0vdq3ygm",332,"138.csv","","475.8000000715256","resources/trios/L2T1A3.jpg","39","restless",0.6,0.5,0.2,0.806013338713539,"false"
"image-keyboard-response",111,139531,"0.0-3.33-1.33","yusb9hc0vdq3ygm",332,"138.csv","","null","resources/maskTrios/BBA3.jpg","null","",NA,NA,NA,NA,""
"image-keyboard-response",112,140738,"0.0-3.33-2.33","yusb9hc0vdq3ygm",332,"138.csv","","null","resources/images/fishbone.png","null","",NA,NA,NA,NA,""
"image-keyboard-response",113,141014,"0.0-3.34-0.34","yusb9hc0vdq3ygm",332,"138.csv","","272.89999997615814","resources/trios/L2T4A2.jpg","37","restless",0.6,0.5,0.3,0.940814199554704,"false"
"image-keyboard-response",114,141421,"0.0-3.34-1.34","yusb9hc0vdq3ygm",332,"138.csv","","null","resources/maskTrios/L2BB.jpg","null","",NA,NA,NA,NA,""
"image-keyboard-response",115,142628,"0.0-3.34-2.34","yusb9hc0vdq3ygm",332,"138.csv","","null","resources/images/fishbone.png","null","",NA,NA,NA,NA,""
"image-keyboard-response",116,142784,"0.0-3.35-0.35","yusb9hc0vdq3ygm",332,"138.csv","","153.80000007152557","resources/trios/L1T1A3.jpg","39","restless",0.6,0.5,0.3,0.512363579822308,"false"
"image-keyboard-response",117,143186,"0.0-3.35-1.35","yusb9hc0vdq3ygm",332,"138.csv","","null","resources/maskTrios/BBA3.jpg","null","",NA,NA,NA,NA,""
"image-keyboard-response",118,144388,"0.0-3.35-2.35","yusb9hc0vdq3ygm",332,"138.csv","","null","resources/images/fishbone.png","null","",NA,NA,NA,NA,""
"image-keyboard-response",119,144568,"0.0-3.36-0.36","yusb9hc0vdq3ygm",332,"138.csv","","178.60000002384186","resources/trios/L1T4A2.jpg","38","restless",0.6,0.5,0.3,0.381105755479651,"true"
"image-keyboard-response",120,144971,"0.0-3.36-1.36","yusb9hc0vdq3ygm",332,"138.csv","","null","resources/maskTrios/BT4B.jpg","null","",NA,NA,NA,NA,""
"image-keyboard-response",121,146178,"0.0-3.36-2.36","yusb9hc0vdq3ygm",332,"138.csv","","null","resources/images/coin2.png","null","",NA,NA,NA,NA,""
"image-keyboard-response",122,146446,"0.0-3.37-0.37","yusb9hc0vdq3ygm",332,"138.csv","","265.59999990463257","resources/trios/L2T4A3.jpg","38","restless",0.6,0.5,0.3,0.455496968169429,"true"
"image-keyboard-response",123,146853,"0.0-3.37-1.37","yusb9hc0vdq3ygm",332,"138.csv","","null","resources/maskTrios/BT4B.jpg","null","",NA,NA,NA,NA,""
"image-keyboard-response",124,148059,"0.0-3.37-2.37","yusb9hc0vdq3ygm",332,"138.csv","","null","resources/images/coin2.png","null","",NA,NA,NA,NA,""
"image-keyboard-response",125,148165,"0.0-3.38-0.38","yusb9hc0vdq3ygm",332,"138.csv","","104.70000004768372","resources/trios/L2T1A2.jpg","38","restless",0.6,0.5,0.3,0.975442461537816,"false"
"image-keyboard-response",126,148571,"0.0-3.38-1.38","yusb9hc0vdq3ygm",332,"138.csv","","null","resources/maskTrios/BT1B.jpg","null","",NA,NA,NA,NA,""
"image-keyboard-response",127,149774,"0.0-3.38-2.38","yusb9hc0vdq3ygm",332,"138.csv","","null","resources/images/fishbone.png","null","",NA,NA,NA,NA,""
"image-keyboard-response",128,149820,"0.0-3.39-0.39","yusb9hc0vdq3ygm",332,"138.csv","","43.60000002384186","resources/trios/L1T1A3.jpg","38","restless",0.6,0.5,0.3,0.982319504964552,"false"
"image-keyboard-response",129,150224,"0.0-3.39-1.39","yusb9hc0vdq3ygm",332,"138.csv","","null","resources/maskTrios/BT1B.jpg","null","",NA,NA,NA,NA,""
"image-keyboard-response",130,151426,"0.0-3.39-2.39","yusb9hc0vdq3ygm",332,"138.csv","","null","resources/images/fishbone.png","null","",NA,NA,NA,NA,""
"image-keyboard-response",131,151744,"0.0-3.40-0.40","yusb9hc0vdq3ygm",332,"138.csv","","314.10000002384186","resources/trios/L2T4A2.jpg","38","restless",0.6,0.5,0.3,0.597266650691974,"false"
"image-keyboard-response",132,152151,"0.0-3.40-1.40","yusb9hc0vdq3ygm",332,"138.csv","","null","resources/maskTrios/BT4B.jpg","null","",NA,NA,NA,NA,""
"image-keyboard-response",133,153358,"0.0-3.40-2.40","yusb9hc0vdq3ygm",332,"138.csv","","null","resources/images/fishbone.png","null","",NA,NA,NA,NA,""
"image-keyboard-response",134,155240,"0.0-3.41-0.41","yusb9hc0vdq3ygm",332,"138.csv","","1879.2999999523163","resources/trios/L2T1A2.jpg","38","restless",0.6,0.5,0.3,0.789624653655349,"false"
"image-keyboard-response",135,155648,"0.0-3.41-1.41","yusb9hc0vdq3ygm",332,"138.csv","","null","resources/maskTrios/BT1B.jpg","null","",NA,NA,NA,NA,""
"image-keyboard-response",136,156850,"0.0-3.41-2.41","yusb9hc0vdq3ygm",332,"138.csv","","null","resources/images/fishbone.png","null","",NA,NA,NA,NA,""
"image-keyboard-response",137,157447,"0.0-3.42-0.42","yusb9hc0vdq3ygm",332,"138.csv","","594.4000000953674","resources/trios/L1T4A2.jpg","39","restless",0.6,0.5,0.3,0.0354744175983932,"true"
"image-keyboard-response",138,157853,"0.0-3.42-1.42","yusb9hc0vdq3ygm",332,"138.csv","","null","resources/maskTrios/BBA2.jpg","null","",NA,NA,NA,NA,""
"image-keyboard-response",139,159061,"0.0-3.42-2.42","yusb9hc0vdq3ygm",332,"138.csv","","null","resources/images/coin2.png","null","",NA,NA,NA,NA,""
"image-keyboard-response",140,160817,"0.0-3.43-0.43","yusb9hc0vdq3ygm",332,"138.csv","","1754.3999999761581","resources/trios/L1T4A3.jpg","37","restless",0.6,0.5,0.3,0.785881015696757,"false"
"image-keyboard-response",141,161221,"0.0-3.43-1.43","yusb9hc0vdq3ygm",332,"138.csv","","null","resources/maskTrios/L1BB.jpg","null","",NA,NA,NA,NA,""
"image-keyboard-response",142,162428,"0.0-3.43-2.43","yusb9hc0vdq3ygm",332,"138.csv","","null","resources/images/fishbone.png","null","",NA,NA,NA,NA,""
"image-keyboard-response",143,162980,"0.0-3.44-0.44","yusb9hc0vdq3ygm",332,"138.csv","","550.2000000476837","resources/trios/L2T4A2.jpg","38","restless",0.6,0.5,0.3,0.784133868062921,"false"
"image-keyboard-response",144,163384,"0.0-3.44-1.44","yusb9hc0vdq3ygm",332,"138.csv","","null","resources/maskTrios/BT4B.jpg","null","",NA,NA,NA,NA,""
"image-keyboard-response",145,164587,"0.0-3.44-2.44","yusb9hc0vdq3ygm",332,"138.csv","","null","resources/images/fishbone.png","null","",NA,NA,NA,NA,""
"image-keyboard-response",146,164986,"0.0-3.45-0.45","yusb9hc0vdq3ygm",332,"138.csv","","397.39999997615814","resources/trios/L1T1A3.jpg","39","restless",0.5,0.5,0.3,0.543313503526156,"false"
"image-keyboard-response",147,165393,"0.0-3.45-1.45","yusb9hc0vdq3ygm",332,"138.csv","","null","resources/maskTrios/BBA3.jpg","null","",NA,NA,NA,NA,""
"image-keyboard-response",148,166600,"0.0-3.45-2.45","yusb9hc0vdq3ygm",332,"138.csv","","null","resources/images/fishbone.png","null","",NA,NA,NA,NA,""
"image-keyboard-response",149,167603,"0.0-3.46-0.46","yusb9hc0vdq3ygm",332,"138.csv","","1001.0999999046326","resources/trios/L1T1A2.jpg","38","restless",0.5,0.5,0.3,0.87820589893537,"false"
"image-keyboard-response",150,168006,"0.0-3.46-1.46","yusb9hc0vdq3ygm",332,"138.csv","","null","resources/maskTrios/BT1B.jpg","null","",NA,NA,NA,NA,""
"image-keyboard-response",151,169212,"0.0-3.46-2.46","yusb9hc0vdq3ygm",332,"138.csv","","null","resources/images/fishbone.png","null","",NA,NA,NA,NA,""
"image-keyboard-response",152,170446,"0.0-3.47-0.47","yusb9hc0vdq3ygm",332,"138.csv","","1231.8999999761581","resources/trios/L1T1A2.jpg","38","restless",0.5,0.5,0.3,0.00696403318147243,"true"
"image-keyboard-response",153,170850,"0.0-3.47-1.47","yusb9hc0vdq3ygm",332,"138.csv","","null","resources/maskTrios/BT1B.jpg","null","",NA,NA,NA,NA,""
"image-keyboard-response",154,172054,"0.0-3.47-2.47","yusb9hc0vdq3ygm",332,"138.csv","","null","resources/images/coin2.png","null","",NA,NA,NA,NA,""
"image-keyboard-response",155,172274,"0.0-3.48-0.48","yusb9hc0vdq3ygm",332,"138.csv","","218.29999995231628","resources/trios/L1T1A3.jpg","38","restless",0.5,0.5,0.3,0.303104290927292,"true"
"image-keyboard-response",156,172678,"0.0-3.48-1.48","yusb9hc0vdq3ygm",332,"138.csv","","null","resources/maskTrios/BT1B.jpg","null","",NA,NA,NA,NA,""
"image-keyboard-response",157,173880,"0.0-3.48-2.48","yusb9hc0vdq3ygm",332,"138.csv","","null","resources/images/coin2.png","null","",NA,NA,NA,NA,""
"image-keyboard-response",158,174863,"0.0-3.49-0.49","yusb9hc0vdq3ygm",332,"138.csv","","980.3000000715256","resources/trios/L2T4A2.jpg","38","restless",0.5,0.5,0.3,0.530576166079967,"false"
"image-keyboard-response",159,175268,"0.0-3.49-1.49","yusb9hc0vdq3ygm",332,"138.csv","","null","resources/maskTrios/BT4B.jpg","null","",NA,NA,NA,NA,""
"image-keyboard-response",160,176470,"0.0-3.49-2.49","yusb9hc0vdq3ygm",332,"138.csv","","null","resources/images/fishbone.png","null","",NA,NA,NA,NA,""
"image-keyboard-response",161,179691,"0.0-3.50-0.50","yusb9hc0vdq3ygm",332,"138.csv","","3218.399999976158","resources/trios/L2T4A2.jpg","38","restless",0.5,0.5,0.3,0.739112324004954,"false"
"image-keyboard-response",162,180098,"0.0-3.50-1.50","yusb9hc0vdq3ygm",332,"138.csv","","null","resources/maskTrios/BT4B.jpg","null","",NA,NA,NA,NA,""
"image-keyboard-response",163,181305,"0.0-3.50-2.50","yusb9hc0vdq3ygm",332,"138.csv","","null","resources/images/fishbone.png","null","",NA,NA,NA,NA,""
"image-keyboard-response",164,183608,"0.0-3.51-0.51","yusb9hc0vdq3ygm",332,"138.csv","","2302.100000023842","resources/trios/L2T1A3.jpg","38","restless",0.5,0.4,0.2,0.862183528089756,"false"
"image-keyboard-response",165,184012,"0.0-3.51-1.51","yusb9hc0vdq3ygm",332,"138.csv","","null","resources/maskTrios/BT1B.jpg","null","",NA,NA,NA,NA,""
"image-keyboard-response",166,185219,"0.0-3.51-2.51","yusb9hc0vdq3ygm",332,"138.csv","","null","resources/images/fishbone.png","null","",NA,NA,NA,NA,""
"image-keyboard-response",167,188913,"0.0-3.52-0.52","yusb9hc0vdq3ygm",332,"138.csv","","3692.0999999046326","resources/trios/L1T4A3.jpg","38","restless",0.5,0.4,0.2,0.251987582631603,"true"
"image-keyboard-response",168,189317,"0.0-3.52-1.52","yusb9hc0vdq3ygm",332,"138.csv","","null","resources/maskTrios/BT4B.jpg","null","",NA,NA,NA,NA,""
"image-keyboard-response",169,190525,"0.0-3.52-2.52","yusb9hc0vdq3ygm",332,"138.csv","","null","resources/images/coin2.png","null","",NA,NA,NA,NA,""
"image-keyboard-response",170,192625,"0.0-3.53-0.53","yusb9hc0vdq3ygm",332,"138.csv","","2097.1999999284744","resources/trios/L1T4A3.jpg","38","restless",0.4,0.4,0.2,0.993334729345086,"false"
"image-keyboard-response",171,193030,"0.0-3.53-1.53","yusb9hc0vdq3ygm",332,"138.csv","","null","resources/maskTrios/BT4B.jpg","null","",NA,NA,NA,NA,""
"image-keyboard-response",172,194233,"0.0-3.53-2.53","yusb9hc0vdq3ygm",332,"138.csv","","null","resources/images/fishbone.png","null","",NA,NA,NA,NA,""
"image-keyboard-response",173,194617,"0.0-3.54-0.54","yusb9hc0vdq3ygm",332,"138.csv","","380.6999999284744","resources/trios/L1T1A3.jpg","38","restless",0.4,0.4,0.2,0.179894397847412,"true"
"image-keyboard-response",174,195024,"0.0-3.54-1.54","yusb9hc0vdq3ygm",332,"138.csv","","null","resources/maskTrios/BT1B.jpg","null","",NA,NA,NA,NA,""
"image-keyboard-response",175,196229,"0.0-3.54-2.54","yusb9hc0vdq3ygm",332,"138.csv","","null","resources/images/coin2.png","null","",NA,NA,NA,NA,""
"image-keyboard-response",176,196271,"0.0-3.55-0.55","yusb9hc0vdq3ygm",332,"138.csv","","39.200000047683716","resources/trios/L1T1A3.jpg","38","restless",0.4,0.4,0.2,0.339384931789964,"true"
"image-keyboard-response",177,196678,"0.0-3.55-1.55","yusb9hc0vdq3ygm",332,"138.csv","","null","resources/maskTrios/BT1B.jpg","null","",NA,NA,NA,NA,""
"image-keyboard-response",178,197885,"0.0-3.55-2.55","yusb9hc0vdq3ygm",332,"138.csv","","null","resources/images/coin2.png","null","",NA,NA,NA,NA,""
"image-keyboard-response",179,198090,"0.0-3.56-0.56","yusb9hc0vdq3ygm",332,"138.csv","","203","resources/trios/L1T1A3.jpg","38","restless",0.4,0.4,0.2,0.999881616422204,"false"
"image-keyboard-response",180,198497,"0.0-3.56-1.56","yusb9hc0vdq3ygm",332,"138.csv","","null","resources/maskTrios/BT1B.jpg","null","",NA,NA,NA,NA,""
"image-keyboard-response",181,199700,"0.0-3.56-2.56","yusb9hc0vdq3ygm",332,"138.csv","","null","resources/images/fishbone.png","null","",NA,NA,NA,NA,""
"image-keyboard-response",182,201270,"0.0-3.57-0.57","yusb9hc0vdq3ygm",332,"138.csv","","1567.8999999761581","resources/trios/L2T1A3.jpg","38","restless",0.4,0.4,0.2,0.771243319605623,"false"
"image-keyboard-response",183,201676,"0.0-3.57-1.57","yusb9hc0vdq3ygm",332,"138.csv","","null","resources/maskTrios/BT1B.jpg","null","",NA,NA,NA,NA,""
"image-keyboard-response",184,202883,"0.0-3.57-2.57","yusb9hc0vdq3ygm",332,"138.csv","","null","resources/images/fishbone.png","null","",NA,NA,NA,NA,""
"image-keyboard-response",185,202941,"0.0-3.58-0.58","yusb9hc0vdq3ygm",332,"138.csv","","56.700000047683716","resources/trios/L1T4A3.jpg","38","restless",0.4,0.4,0.2,0.866084704704686,"false"
"image-keyboard-response",186,203346,"0.0-3.58-1.58","yusb9hc0vdq3ygm",332,"138.csv","","null","resources/maskTrios/BT4B.jpg","null","",NA,NA,NA,NA,""
"image-keyboard-response",187,204553,"0.0-3.58-2.58","yusb9hc0vdq3ygm",332,"138.csv","","null","resources/images/fishbone.png","null","",NA,NA,NA,NA,""
"image-keyboard-response",188,205013,"0.0-3.59-0.59","yusb9hc0vdq3ygm",332,"138.csv","","457.60000002384186","resources/trios/L2T1A3.jpg","38","restless",0.4,0.4,0.2,0.757542236203527,"false"
"image-keyboard-response",189,205419,"0.0-3.59-1.59","yusb9hc0vdq3ygm",332,"138.csv","","null","resources/maskTrios/BT1B.jpg","null","",NA,NA,NA,NA,""
"image-keyboard-response",190,206626,"0.0-3.59-2.59","yusb9hc0vdq3ygm",332,"138.csv","","null","resources/images/fishbone.png","null","",NA,NA,NA,NA,""
"image-keyboard-response",191,207161,"0.0-3.60-0.60","yusb9hc0vdq3ygm",332,"138.csv","","532.2000000476837","resources/trios/L1T1A3.jpg","38","restless",0.4,0.4,0.2,0.384494780025788,"true"
"image-keyboard-response",192,207569,"0.0-3.60-1.60","yusb9hc0vdq3ygm",332,"138.csv","","null","resources/maskTrios/BT1B.jpg","null","",NA,NA,NA,NA,""
"image-keyboard-response",193,208776,"0.0-3.60-2.60","yusb9hc0vdq3ygm",332,"138.csv","","null","resources/images/coin2.png","null","",NA,NA,NA,NA,""
"image-keyboard-response",194,209137,"0.0-3.61-0.61","yusb9hc0vdq3ygm",332,"138.csv","","357.89999997615814","resources/trios/L2T1A2.jpg","38","restless",0.4,0.4,0.2,0.0456085823748453,"true"
"image-keyboard-response",195,209540,"0.0-3.61-1.61","yusb9hc0vdq3ygm",332,"138.csv","","null","resources/maskTrios/BT1B.jpg","null","",NA,NA,NA,NA,""
"image-keyboard-response",196,210742,"0.0-3.61-2.61","yusb9hc0vdq3ygm",332,"138.csv","","null","resources/images/coin2.png","null","",NA,NA,NA,NA,""
"image-keyboard-response",197,210799,"0.0-3.62-0.62","yusb9hc0vdq3ygm",332,"138.csv","","54.299999952316284","resources/trios/L1T1A2.jpg","38","restless",0.4,0.4,0.2,0.722844464625857,"false"
"image-keyboard-response",198,211201,"0.0-3.62-1.62","yusb9hc0vdq3ygm",332,"138.csv","","null","resources/maskTrios/BT1B.jpg","null","",NA,NA,NA,NA,""
"image-keyboard-response",199,212404,"0.0-3.62-2.62","yusb9hc0vdq3ygm",332,"138.csv","","null","resources/images/fishbone.png","null","",NA,NA,NA,NA,""
"image-keyboard-response",200,212995,"0.0-3.63-0.63","yusb9hc0vdq3ygm",332,"138.csv","","589.7999999523163","resources/trios/L2T4A3.jpg","38","restless",0.4,0.4,0.2,0.184166197398101,"true"
"image-keyboard-response",201,213401,"0.0-3.63-1.63","yusb9hc0vdq3ygm",332,"138.csv","","null","resources/maskTrios/BT4B.jpg","null","",NA,NA,NA,NA,""
"image-keyboard-response",202,214605,"0.0-3.63-2.63","yusb9hc0vdq3ygm",332,"138.csv","","null","resources/images/coin2.png","null","",NA,NA,NA,NA,""
"image-keyboard-response",203,214929,"0.0-3.64-0.64","yusb9hc0vdq3ygm",332,"138.csv","","321.5","resources/trios/L1T1A3.jpg","38","restless",0.4,0.5,0.1,0.425107017034224,"true"
"image-keyboard-response",204,215335,"0.0-3.64-1.64","yusb9hc0vdq3ygm",332,"138.csv","","null","resources/maskTrios/BT1B.jpg","null","",NA,NA,NA,NA,""
"image-keyboard-response",205,216541,"0.0-3.64-2.64","yusb9hc0vdq3ygm",332,"138.csv","","null","resources/images/coin2.png","null","",NA,NA,NA,NA,""
"image-keyboard-response",206,216808,"0.0-3.65-0.65","yusb9hc0vdq3ygm",332,"138.csv","","264","resources/trios/L1T4A3.jpg","38","restless",0.4,0.4,0.1,0.0729893908439887,"true"
"image-keyboard-response",207,217212,"0.0-3.65-1.65","yusb9hc0vdq3ygm",332,"138.csv","","null","resources/maskTrios/BT4B.jpg","null","",NA,NA,NA,NA,""
"image-keyboard-response",208,218418,"0.0-3.65-2.65","yusb9hc0vdq3ygm",332,"138.csv","","null","resources/images/coin2.png","null","",NA,NA,NA,NA,""
"image-keyboard-response",209,218647,"0.0-3.66-0.66","yusb9hc0vdq3ygm",332,"138.csv","","226.29999995231628","resources/trios/L2T4A3.jpg","38","restless",0.4,0.4,0.2,0.251065238131778,"true"
"image-keyboard-response",210,219051,"0.0-3.66-1.66","yusb9hc0vdq3ygm",332,"138.csv","","null","resources/maskTrios/BT4B.jpg","null","",NA,NA,NA,NA,""
"image-keyboard-response",211,220256,"0.0-3.66-2.66","yusb9hc0vdq3ygm",332,"138.csv","","null","resources/images/coin2.png","null","",NA,NA,NA,NA,""
"image-keyboard-response",212,220350,"0.0-3.67-0.67","yusb9hc0vdq3ygm",332,"138.csv","","93","resources/trios/L2T1A2.jpg","38","restless",0.4,0.4,0.2,0.504904175561274,"false"
"image-keyboard-response",213,220756,"0.0-3.67-1.67","yusb9hc0vdq3ygm",332,"138.csv","","null","resources/maskTrios/BT1B.jpg","null","",NA,NA,NA,NA,""
"image-keyboard-response",214,221962,"0.0-3.67-2.67","yusb9hc0vdq3ygm",332,"138.csv","","null","resources/images/fishbone.png","null","",NA,NA,NA,NA,""
"image-keyboard-response",215,222058,"0.0-3.68-0.68","yusb9hc0vdq3ygm",332,"138.csv","","93.60000002384186","resources/trios/L2T1A3.jpg","38","restless",0.4,0.4,0.2,0.906107862921494,"false"
"image-keyboard-response",216,222465,"0.0-3.68-1.68","yusb9hc0vdq3ygm",332,"138.csv","","null","resources/maskTrios/BT1B.jpg","null","",NA,NA,NA,NA,""
"image-keyboard-response",217,223668,"0.0-3.68-2.68","yusb9hc0vdq3ygm",332,"138.csv","","null","resources/images/fishbone.png","null","",NA,NA,NA,NA,""
"image-keyboard-response",218,223905,"0.0-3.69-0.69","yusb9hc0vdq3ygm",332,"138.csv","","234.19999992847443","resources/trios/L1T1A3.jpg","38","restless",0.4,0.4,0.2,0.439681038007604,"false"
"image-keyboard-response",219,224308,"0.0-3.69-1.69","yusb9hc0vdq3ygm",332,"138.csv","","null","resources/maskTrios/BT1B.jpg","null","",NA,NA,NA,NA,""
"image-keyboard-response",220,225510,"0.0-3.69-2.69","yusb9hc0vdq3ygm",332,"138.csv","","null","resources/images/fishbone.png","null","",NA,NA,NA,NA,""
"image-keyboard-response",221,225669,"0.0-3.70-0.70","yusb9hc0vdq3ygm",332,"138.csv","","155.79999995231628","resources/trios/L2T4A2.jpg","38","restless",0.4,0.4,0.2,0.829220057824784,"false"
"image-keyboard-response",222,226072,"0.0-3.70-1.70","yusb9hc0vdq3ygm",332,"138.csv","","null","resources/maskTrios/BT4B.jpg","null","",NA,NA,NA,NA,""
"image-keyboard-response",223,227276,"0.0-3.70-2.70","yusb9hc0vdq3ygm",332,"138.csv","","null","resources/images/fishbone.png","null","",NA,NA,NA,NA,""
"image-keyboard-response",224,227445,"0.0-3.71-0.71","yusb9hc0vdq3ygm",332,"138.csv","","167.70000004768372","resources/trios/L2T1A3.jpg","38","restless",0.4,0.4,0.2,0.770585513169793,"false"
"image-keyboard-response",225,227848,"0.0-3.71-1.71","yusb9hc0vdq3ygm",332,"138.csv","","null","resources/maskTrios/BT1B.jpg","null","",NA,NA,NA,NA,""
"image-keyboard-response",226,229054,"0.0-3.71-2.71","yusb9hc0vdq3ygm",332,"138.csv","","null","resources/images/fishbone.png","null","",NA,NA,NA,NA,""
"image-keyboard-response",227,229283,"0.0-3.72-0.72","yusb9hc0vdq3ygm",332,"138.csv","","226.60000002384186","resources/trios/L2T4A2.jpg","38","restless",0.4,0.4,0.2,0.74772057411404,"false"
"image-keyboard-response",228,229690,"0.0-3.72-1.72","yusb9hc0vdq3ygm",332,"138.csv","","null","resources/maskTrios/BT4B.jpg","null","",NA,NA,NA,NA,""
"image-keyboard-response",229,230895,"0.0-3.72-2.72","yusb9hc0vdq3ygm",332,"138.csv","","null","resources/images/fishbone.png","null","",NA,NA,NA,NA,""
"image-keyboard-response",230,231078,"0.0-3.73-0.73","yusb9hc0vdq3ygm",332,"138.csv","","180.39999997615814","resources/trios/L2T4A3.jpg","38","restless",0.5,0.4,0.3,0.219194894285161,"true"
"image-keyboard-response",231,231480,"0.0-3.73-1.73","yusb9hc0vdq3ygm",332,"138.csv","","null","resources/maskTrios/BT4B.jpg","null","",NA,NA,NA,NA,""
"image-keyboard-response",232,232687,"0.0-3.73-2.73","yusb9hc0vdq3ygm",332,"138.csv","","null","resources/images/coin2.png","null","",NA,NA,NA,NA,""
"image-keyboard-response",233,232901,"0.0-3.74-0.74","yusb9hc0vdq3ygm",332,"138.csv","","211.70000004768372","resources/trios/L1T1A3.jpg","38","restless",0.5,0.4,0.3,0.970859951807918,"false"
"image-keyboard-response",234,233307,"0.0-3.74-1.74","yusb9hc0vdq3ygm",332,"138.csv","","null","resources/maskTrios/BT1B.jpg","null","",NA,NA,NA,NA,""
"image-keyboard-response",235,234509,"0.0-3.74-2.74","yusb9hc0vdq3ygm",332,"138.csv","","null","resources/images/fishbone.png","null","",NA,NA,NA,NA,""
"image-keyboard-response",236,234676,"0.0-3.75-0.75","yusb9hc0vdq3ygm",332,"138.csv","","164.5","resources/trios/L2T4A2.jpg","38","restless",0.5,0.4,0.3,0.634944314101164,"false"
"image-keyboard-response",237,235078,"0.0-3.75-1.75","yusb9hc0vdq3ygm",332,"138.csv","","null","resources/maskTrios/BT4B.jpg","null","",NA,NA,NA,NA,""
"image-keyboard-response",238,236283,"0.0-3.75-2.75","yusb9hc0vdq3ygm",332,"138.csv","","null","resources/images/fishbone.png","null","",NA,NA,NA,NA,""
"image-keyboard-response",239,236600,"0.0-3.76-0.76","yusb9hc0vdq3ygm",332,"138.csv","","315.3000000715256","resources/trios/L2T1A3.jpg","39","restless",0.5,0.3,0.3,0.528359410602728,"false"
"image-keyboard-response",240,237003,"0.0-3.76-1.76","yusb9hc0vdq3ygm",332,"138.csv","","null","resources/maskTrios/BBA3.jpg","null","",NA,NA,NA,NA,""
"image-keyboard-response",241,238210,"0.0-3.76-2.76","yusb9hc0vdq3ygm",332,"138.csv","","null","resources/images/fishbone.png","null","",NA,NA,NA,NA,""
"image-keyboard-response",242,238477,"0.0-3.77-0.77","yusb9hc0vdq3ygm",332,"138.csv","","265.2000000476837","resources/trios/L1T1A2.jpg","38","restless",0.5,0.3,0.3,0.17788550858433,"true"
"image-keyboard-response",243,238885,"0.0-3.77-1.77","yusb9hc0vdq3ygm",332,"138.csv","","null","resources/maskTrios/BT1B.jpg","null","",NA,NA,NA,NA,""
"image-keyboard-response",244,240089,"0.0-3.77-2.77","yusb9hc0vdq3ygm",332,"138.csv","","null","resources/images/coin2.png","null","",NA,NA,NA,NA,""
"image-keyboard-response",245,245857,"0.0-3.78-0.78","yusb9hc0vdq3ygm",332,"138.csv","","5766.900000095367","resources/trios/L2T1A2.jpg","37","restless",0.5,0.3,0.3,0.829217442789139,"false"
"image-keyboard-response",246,246265,"0.0-3.78-1.78","yusb9hc0vdq3ygm",332,"138.csv","","null","resources/maskTrios/L2BB.jpg","null","",NA,NA,NA,NA,""
"image-keyboard-response",247,247467,"0.0-3.78-2.78","yusb9hc0vdq3ygm",332,"138.csv","","null","resources/images/fishbone.png","null","",NA,NA,NA,NA,""
"image-keyboard-response",248,248690,"0.0-3.79-0.79","yusb9hc0vdq3ygm",332,"138.csv","","1220.2999999523163","resources/trios/L1T1A2.jpg","38","restless",0.5,0.3,0.4,0.433062766875206,"false"
"image-keyboard-response",249,249093,"0.0-3.79-1.79","yusb9hc0vdq3ygm",332,"138.csv","","null","resources/maskTrios/BT1B.jpg","null","",NA,NA,NA,NA,""
"image-keyboard-response",250,250296,"0.0-3.79-2.79","yusb9hc0vdq3ygm",332,"138.csv","","null","resources/images/fishbone.png","null","",NA,NA,NA,NA,""
"image-keyboard-response",251,251357,"0.0-3.80-0.80","yusb9hc0vdq3ygm",332,"138.csv","","1059.5","resources/trios/L1T4A3.jpg","38","restless",0.5,0.2,0.3,0.276153349768832,"false"
"image-keyboard-response",252,251763,"0.0-3.80-1.80","yusb9hc0vdq3ygm",332,"138.csv","","null","resources/maskTrios/BT4B.jpg","null","",NA,NA,NA,NA,""
"image-keyboard-response",253,252968,"0.0-3.80-2.80","yusb9hc0vdq3ygm",332,"138.csv","","null","resources/images/fishbone.png","null","",NA,NA,NA,NA,""
"image-keyboard-response",254,257852,"0.0-3.81-0.81","yusb9hc0vdq3ygm",332,"138.csv","","4882.399999976158","resources/trios/L2T4A2.jpg","38","restless",0.6,0.2,0.3,0.306438651463689,"false"
"image-keyboard-response",255,258256,"0.0-3.81-1.81","yusb9hc0vdq3ygm",332,"138.csv","","null","resources/maskTrios/BT4B.jpg","null","",NA,NA,NA,NA,""
"image-keyboard-response",256,259461,"0.0-3.81-2.81","yusb9hc0vdq3ygm",332,"138.csv","","null","resources/images/fishbone.png","null","",NA,NA,NA,NA,""
"image-keyboard-response",257,259757,"0.0-3.82-0.82","yusb9hc0vdq3ygm",332,"138.csv","","293.10000002384186","resources/trios/L1T1A2.jpg","38","restless",0.6,0.2,0.3,0.705043257434386,"false"
"image-keyboard-response",258,260160,"0.0-3.82-1.82","yusb9hc0vdq3ygm",332,"138.csv","","null","resources/maskTrios/BT1B.jpg","null","",NA,NA,NA,NA,""
"image-keyboard-response",259,261367,"0.0-3.82-2.82","yusb9hc0vdq3ygm",332,"138.csv","","null","resources/images/fishbone.png","null","",NA,NA,NA,NA,""
"image-keyboard-response",260,261372,"0.0-3.83-0.83","yusb9hc0vdq3ygm",332,"138.csv","","2.5999999046325684","resources/trios/L2T1A3.jpg","38","restless",0.6,0.2,0.3,0.204049154704039,"false"
"image-keyboard-response",261,261774,"0.0-3.83-1.83","yusb9hc0vdq3ygm",332,"138.csv","","null","resources/maskTrios/BT1B.jpg","null","",NA,NA,NA,NA,""
"image-keyboard-response",262,262981,"0.0-3.83-2.83","yusb9hc0vdq3ygm",332,"138.csv","","null","resources/images/fishbone.png","null","",NA,NA,NA,NA,""
"image-keyboard-response",263,263459,"0.0-3.84-0.84","yusb9hc0vdq3ygm",332,"138.csv","","476.2000000476837","resources/trios/L2T4A3.jpg","38","restless",0.6,0.2,0.3,0.229122953407699,"false"
"image-keyboard-response",264,263865,"0.0-3.84-1.84","yusb9hc0vdq3ygm",332,"138.csv","","null","resources/maskTrios/BT4B.jpg","null","",NA,NA,NA,NA,""
"image-keyboard-response",265,265070,"0.0-3.84-2.84","yusb9hc0vdq3ygm",332,"138.csv","","null","resources/images/fishbone.png","null","",NA,NA,NA,NA,""
"image-keyboard-response",266,265250,"0.0-3.85-0.85","yusb9hc0vdq3ygm",332,"138.csv","","176.89999997615814","resources/trios/L2T1A3.jpg","38","restless",0.6,0.2,0.3,0.697558923014214,"false"
"image-keyboard-response",267,265656,"0.0-3.85-1.85","yusb9hc0vdq3ygm",332,"138.csv","","null","resources/maskTrios/BT1B.jpg","null","",NA,NA,NA,NA,""
"image-keyboard-response",268,266859,"0.0-3.85-2.85","yusb9hc0vdq3ygm",332,"138.csv","","null","resources/images/fishbone.png","null","",NA,NA,NA,NA,""
"image-keyboard-response",269,267065,"0.0-3.86-0.86","yusb9hc0vdq3ygm",332,"138.csv","","204.70000004768372","resources/trios/L2T4A2.jpg","38","restless",0.6,0.2,0.3,0.0934116927581508,"true"
"image-keyboard-response",270,267473,"0.0-3.86-1.86","yusb9hc0vdq3ygm",332,"138.csv","","null","resources/maskTrios/BT4B.jpg","null","",NA,NA,NA,NA,""
"image-keyboard-response",271,268677,"0.0-3.86-2.86","yusb9hc0vdq3ygm",332,"138.csv","","null","resources/images/coin2.png","null","",NA,NA,NA,NA,""
"image-keyboard-response",272,271732,"0.0-3.87-0.87","yusb9hc0vdq3ygm",332,"138.csv","","3052","resources/trios/L1T1A2.jpg","38","restless",0.6,0.2,0.3,0.486336722915056,"false"
"image-keyboard-response",273,272139,"0.0-3.87-1.87","yusb9hc0vdq3ygm",332,"138.csv","","null","resources/maskTrios/BT1B.jpg","null","",NA,NA,NA,NA,""
"image-keyboard-response",274,273344,"0.0-3.87-2.87","yusb9hc0vdq3ygm",332,"138.csv","","null","resources/images/fishbone.png","null","",NA,NA,NA,NA,""
"image-keyboard-response",275,273653,"0.0-3.88-0.88","yusb9hc0vdq3ygm",332,"138.csv","","307","resources/trios/L1T1A2.jpg","38","restless",0.7,0.2,0.3,0.732258280838665,"false"
"image-keyboard-response",276,274060,"0.0-3.88-1.88","yusb9hc0vdq3ygm",332,"138.csv","","null","resources/maskTrios/BT1B.jpg","null","",NA,NA,NA,NA,""
"image-keyboard-response",277,275263,"0.0-3.88-2.88","yusb9hc0vdq3ygm",332,"138.csv","","null","resources/images/fishbone.png","null","",NA,NA,NA,NA,""
"image-keyboard-response",278,275632,"0.0-3.89-0.89","yusb9hc0vdq3ygm",332,"138.csv","","366.90000009536743","resources/trios/L2T4A2.jpg","38","restless",0.8,0.2,0.2,0.42344170029046,"false"
"image-keyboard-response",279,276039,"0.0-3.89-1.89","yusb9hc0vdq3ygm",332,"138.csv","","null","resources/maskTrios/BT4B.jpg","null","",NA,NA,NA,NA,""
"image-keyboard-response",280,277244,"0.0-3.89-2.89","yusb9hc0vdq3ygm",332,"138.csv","","null","resources/images/fishbone.png","null","",NA,NA,NA,NA,""
"image-keyboard-response",281,277578,"0.0-3.90-0.90","yusb9hc0vdq3ygm",332,"138.csv","","332.8000000715256","resources/trios/L1T4A2.jpg","38","restless",0.8,0.2,0.2,0.504088978911806,"false"
"image-keyboard-response",282,277982,"0.0-3.90-1.90","yusb9hc0vdq3ygm",332,"138.csv","","null","resources/maskTrios/BT4B.jpg","null","",NA,NA,NA,NA,""
"image-keyboard-response",283,279188,"0.0-3.90-2.90","yusb9hc0vdq3ygm",332,"138.csv","","null","resources/images/fishbone.png","null","",NA,NA,NA,NA,""
"image-keyboard-response",284,279341,"0.0-3.91-0.91","yusb9hc0vdq3ygm",332,"138.csv","","152.5","resources/trios/L1T1A3.jpg","38","restless",0.8,0.2,0.1,0.645551252364676,"false"
"image-keyboard-response",285,279748,"0.0-3.91-1.91","yusb9hc0vdq3ygm",332,"138.csv","","null","resources/maskTrios/BT1B.jpg","null","",NA,NA,NA,NA,""
"image-keyboard-response",286,280955,"0.0-3.91-2.91","yusb9hc0vdq3ygm",332,"138.csv","","null","resources/images/fishbone.png","null","",NA,NA,NA,NA,""
"image-keyboard-response",287,280970,"0.0-3.92-0.92","yusb9hc0vdq3ygm",332,"138.csv","","13.100000023841858","resources/trios/L2T4A3.jpg","38","restless",0.8,0.2,0.1,0.972475273497594,"false"
"image-keyboard-response",288,281374,"0.0-3.92-1.92","yusb9hc0vdq3ygm",332,"138.csv","","null","resources/maskTrios/BT4B.jpg","null","",NA,NA,NA,NA,""
"image-keyboard-response",289,282581,"0.0-3.92-2.92","yusb9hc0vdq3ygm",332,"138.csv","","null","resources/images/fishbone.png","null","",NA,NA,NA,NA,""
"image-keyboard-response",290,283269,"0.0-3.93-0.93","yusb9hc0vdq3ygm",332,"138.csv","","686","resources/trios/L2T4A3.jpg","38","restless",0.8,0.1,0.1,0.615310423640181,"false"
"image-keyboard-response",291,283674,"0.0-3.93-1.93","yusb9hc0vdq3ygm",332,"138.csv","","null","resources/maskTrios/BT4B.jpg","null","",NA,NA,NA,NA,""
"image-keyboard-response",292,284876,"0.0-3.93-2.93","yusb9hc0vdq3ygm",332,"138.csv","","null","resources/images/fishbone.png","null","",NA,NA,NA,NA,""
"image-keyboard-response",293,285111,"0.0-3.94-0.94","yusb9hc0vdq3ygm",332,"138.csv","","232.29999995231628","resources/trios/L2T1A2.jpg","38","restless",0.8,0.1,0.1,0.657608015362516,"false"
"image-keyboard-response",294,285514,"0.0-3.94-1.94","yusb9hc0vdq3ygm",332,"138.csv","","null","resources/maskTrios/BT1B.jpg","null","",NA,NA,NA,NA,""
"image-keyboard-response",295,286719,"0.0-3.94-2.94","yusb9hc0vdq3ygm",332,"138.csv","","null","resources/images/fishbone.png","null","",NA,NA,NA,NA,""
"image-keyboard-response",296,286780,"0.0-3.95-0.95","yusb9hc0vdq3ygm",332,"138.csv","","58.5","resources/trios/L1T4A2.jpg","38","restless",0.8,0.1,0.1,0.235490291373145,"false"
"image-keyboard-response",297,287186,"0.0-3.95-1.95","yusb9hc0vdq3ygm",332,"138.csv","","null","resources/maskTrios/BT4B.jpg","null","",NA,NA,NA,NA,""
"image-keyboard-response",298,288389,"0.0-3.95-2.95","yusb9hc0vdq3ygm",332,"138.csv","","null","resources/images/fishbone.png","null","",NA,NA,NA,NA,""
"image-keyboard-response",299,288685,"0.0-3.96-0.96","yusb9hc0vdq3ygm",332,"138.csv","","294.5","resources/trios/L1T1A3.jpg","38","restless",0.8,0.1,0.2,0.863270967020073,"false"
"image-keyboard-response",300,289091,"0.0-3.96-1.96","yusb9hc0vdq3ygm",332,"138.csv","","null","resources/maskTrios/BT1B.jpg","null","",NA,NA,NA,NA,""
"image-keyboard-response",301,290298,"0.0-3.96-2.96","yusb9hc0vdq3ygm",332,"138.csv","","null","resources/images/fishbone.png","null","",NA,NA,NA,NA,""
"image-keyboard-response",302,293698,"0.0-3.97-0.97","yusb9hc0vdq3ygm",332,"138.csv","","3398.1999999284744","resources/trios/L1T1A2.jpg","38","restless",0.8,0.1,0.2,0.424196812796956,"false"
"image-keyboard-response",303,294106,"0.0-3.97-1.97","yusb9hc0vdq3ygm",332,"138.csv","","null","resources/maskTrios/BT1B.jpg","null","",NA,NA,NA,NA,""
"image-keyboard-response",304,295310,"0.0-3.97-2.97","yusb9hc0vdq3ygm",332,"138.csv","","null","resources/images/fishbone.png","null","",NA,NA,NA,NA,""
"image-keyboard-response",305,295413,"0.0-3.98-0.98","yusb9hc0vdq3ygm",332,"138.csv","","101","resources/trios/L2T4A3.jpg","38","restless",0.8,0.1,0.3,0.705032031746496,"false"
"image-keyboard-response",306,295820,"0.0-3.98-1.98","yusb9hc0vdq3ygm",332,"138.csv","","null","resources/maskTrios/BT4B.jpg","null","",NA,NA,NA,NA,""
"image-keyboard-response",307,297026,"0.0-3.98-2.98","yusb9hc0vdq3ygm",332,"138.csv","","null","resources/images/fishbone.png","null","",NA,NA,NA,NA,""
"image-keyboard-response",308,297150,"0.0-3.99-0.99","yusb9hc0vdq3ygm",332,"138.csv","","121.70000004768372","resources/trios/L1T4A3.jpg","38","restless",0.8,0.1,0.3,0.892811455245992,"false"
"image-keyboard-response",309,297555,"0.0-3.99-1.99","yusb9hc0vdq3ygm",332,"138.csv","","null","resources/maskTrios/BT4B.jpg","null","",NA,NA,NA,NA,""
"image-keyboard-response",310,298760,"0.0-3.99-2.99","yusb9hc0vdq3ygm",332,"138.csv","","null","resources/images/fishbone.png","null","",NA,NA,NA,NA,""
"image-keyboard-response",311,299274,"0.0-3.100-0.100","yusb9hc0vdq3ygm",332,"138.csv","","512.1000000238419","resources/trios/L1T4A2.jpg","38","restless",0.8,0.1,0.3,0.679035484662952,"false"
"image-keyboard-response",312,299677,"0.0-3.100-1.100","yusb9hc0vdq3ygm",332,"138.csv","","null","resources/maskTrios/BT4B.jpg","null","",NA,NA,NA,NA,""
"image-keyboard-response",313,300884,"0.0-3.100-2.100","yusb9hc0vdq3ygm",332,"138.csv","","null","resources/images/fishbone.png","null","",NA,NA,NA,NA,""
"image-keyboard-response",314,301387,"0.0-3.101-0.101","yusb9hc0vdq3ygm",332,"138.csv","","500.7999999523163","resources/trios/L1T4A2.jpg","38","restless",0.8,0.1,0.3,0.65892078957853,"false"
"image-keyboard-response",315,301793,"0.0-3.101-1.101","yusb9hc0vdq3ygm",332,"138.csv","","null","resources/maskTrios/BT4B.jpg","null","",NA,NA,NA,NA,""
"image-keyboard-response",316,302997,"0.0-3.101-2.101","yusb9hc0vdq3ygm",332,"138.csv","","null","resources/images/fishbone.png","null","",NA,NA,NA,NA,""
"image-keyboard-response",317,303996,"0.0-3.102-0.102","yusb9hc0vdq3ygm",332,"138.csv","","996","resources/trios/L1T1A3.jpg","38","restless",0.8,0.1,0.4,0.19185183110801,"false"
"image-keyboard-response",318,304399,"0.0-3.102-1.102","yusb9hc0vdq3ygm",332,"138.csv","","null","resources/maskTrios/BT1B.jpg","null","",NA,NA,NA,NA,""
"image-keyboard-response",319,305607,"0.0-3.102-2.102","yusb9hc0vdq3ygm",332,"138.csv","","null","resources/images/fishbone.png","null","",NA,NA,NA,NA,""
"image-keyboard-response",320,305932,"0.0-3.103-0.103","yusb9hc0vdq3ygm",332,"138.csv","","322.89999997615814","resources/trios/L1T4A3.jpg","39","restless",0.8,0.1,0.4,0.363417562447732,"true"
"image-keyboard-response",321,306336,"0.0-3.103-1.103","yusb9hc0vdq3ygm",332,"138.csv","","null","resources/maskTrios/BBA3.jpg","null","",NA,NA,NA,NA,""
"image-keyboard-response",322,307542,"0.0-3.103-2.103","yusb9hc0vdq3ygm",332,"138.csv","","null","resources/images/coin2.png","null","",NA,NA,NA,NA,""
"image-keyboard-response",323,307634,"0.0-3.104-0.104","yusb9hc0vdq3ygm",332,"138.csv","","88.80000007152557","resources/trios/L1T4A2.jpg","37","restless",0.8,0.1,0.4,0.484670403606153,"true"
"image-keyboard-response",324,308038,"0.0-3.104-1.104","yusb9hc0vdq3ygm",332,"138.csv","","null","resources/maskTrios/L1BB.jpg","null","",NA,NA,NA,NA,""
"image-keyboard-response",325,309243,"0.0-3.104-2.104","yusb9hc0vdq3ygm",332,"138.csv","","null","resources/images/coin2.png","null","",NA,NA,NA,NA,""
"image-keyboard-response",326,309688,"0.0-3.105-0.105","yusb9hc0vdq3ygm",332,"138.csv","","442.5","resources/trios/L1T1A2.jpg","39","restless",0.7,0.2,0.4,0.0631208541124224,"true"
"image-keyboard-response",327,310091,"0.0-3.105-1.105","yusb9hc0vdq3ygm",332,"138.csv","","null","resources/maskTrios/BBA2.jpg","null","",NA,NA,NA,NA,""
"image-keyboard-response",328,311298,"0.0-3.105-2.105","yusb9hc0vdq3ygm",332,"138.csv","","null","resources/images/coin2.png","null","",NA,NA,NA,NA,""
"image-keyboard-response",329,311911,"0.0-3.106-0.106","yusb9hc0vdq3ygm",332,"138.csv","","610","resources/trios/L1T1A3.jpg","39","restless",0.7,0.2,0.4,0.869430602824433,"false"
"image-keyboard-response",330,312317,"0.0-3.106-1.106","yusb9hc0vdq3ygm",332,"138.csv","","null","resources/maskTrios/BBA3.jpg","null","",NA,NA,NA,NA,""
"image-keyboard-response",331,313520,"0.0-3.106-2.106","yusb9hc0vdq3ygm",332,"138.csv","","null","resources/images/fishbone.png","null","",NA,NA,NA,NA,""
"image-keyboard-response",332,313832,"0.0-3.107-0.107","yusb9hc0vdq3ygm",332,"138.csv","","309.8000000715256","resources/trios/L2T1A3.jpg","38","restless",0.7,0.2,0.4,0.178790592306069,"true"
"image-keyboard-response",333,314240,"0.0-3.107-1.107","yusb9hc0vdq3ygm",332,"138.csv","","null","resources/maskTrios/BT1B.jpg","null","",NA,NA,NA,NA,""
"image-keyboard-response",334,315447,"0.0-3.107-2.107","yusb9hc0vdq3ygm",332,"138.csv","","null","resources/images/coin2.png","null","",NA,NA,NA,NA,""
"image-keyboard-response",335,315840,"0.0-3.108-0.108","yusb9hc0vdq3ygm",332,"138.csv","","390","resources/trios/L1T4A3.jpg","38","restless",0.7,0.2,0.4,0.908089728360347,"false"
"image-keyboard-response",336,316248,"0.0-3.108-1.108","yusb9hc0vdq3ygm",332,"138.csv","","null","resources/maskTrios/BT4B.jpg","null","",NA,NA,NA,NA,""
"image-keyboard-response",337,317452,"0.0-3.108-2.108","yusb9hc0vdq3ygm",332,"138.csv","","null","resources/images/fishbone.png","null","",NA,NA,NA,NA,""
"image-keyboard-response",338,318520,"0.0-3.109-0.109","yusb9hc0vdq3ygm",332,"138.csv","","1066","resources/trios/L1T1A2.jpg","38","restless",0.7,0.2,0.5,0.984638029759441,"false"
"image-keyboard-response",339,318926,"0.0-3.109-1.109","yusb9hc0vdq3ygm",332,"138.csv","","null","resources/maskTrios/BT1B.jpg","null","",NA,NA,NA,NA,""
"image-keyboard-response",340,320134,"0.0-3.109-2.109","yusb9hc0vdq3ygm",332,"138.csv","","null","resources/images/fishbone.png","null","",NA,NA,NA,NA,""
"image-keyboard-response",341,320694,"0.0-3.110-0.110","yusb9hc0vdq3ygm",332,"138.csv","","557.5","resources/trios/L2T1A2.jpg","38","restless",0.7,0.2,0.5,0.679053390800347,"false"
"image-keyboard-response",342,321101,"0.0-3.110-1.110","yusb9hc0vdq3ygm",332,"138.csv","","null","resources/maskTrios/BT1B.jpg","null","",NA,NA,NA,NA,""
"image-keyboard-response",343,322303,"0.0-3.110-2.110","yusb9hc0vdq3ygm",332,"138.csv","","null","resources/images/fishbone.png","null","",NA,NA,NA,NA,""
"image-keyboard-response",344,323764,"0.0-3.111-0.111","yusb9hc0vdq3ygm",332,"138.csv","","1459","resources/trios/L1T4A3.jpg","37","restless",0.6,0.2,0.5,0.489160282581315,"true"
"image-keyboard-response",345,324172,"0.0-3.111-1.111","yusb9hc0vdq3ygm",332,"138.csv","","null","resources/maskTrios/L1BB.jpg","null","",NA,NA,NA,NA,""
"image-keyboard-response",346,325378,"0.0-3.111-2.111","yusb9hc0vdq3ygm",332,"138.csv","","null","resources/images/coin2.png","null","",NA,NA,NA,NA,""
"image-keyboard-response",347,326817,"0.0-3.112-0.112","yusb9hc0vdq3ygm",332,"138.csv","","1436.7000000476837","resources/trios/L2T1A2.jpg","38","restless",0.6,0.3,0.6,0.352501482277352,"false"
"image-keyboard-response",348,327221,"0.0-3.112-1.112","yusb9hc0vdq3ygm",332,"138.csv","","null","resources/maskTrios/BT1B.jpg","null","",NA,NA,NA,NA,""
"image-keyboard-response",349,328423,"0.0-3.112-2.112","yusb9hc0vdq3ygm",332,"138.csv","","null","resources/images/fishbone.png","null","",NA,NA,NA,NA,""
"image-keyboard-response",350,329278,"0.0-3.113-0.113","yusb9hc0vdq3ygm",332,"138.csv","","852.2999999523163","resources/trios/L2T1A3.jpg","37","restless",0.6,0.3,0.6,0.678278111341125,"false"
"image-keyboard-response",351,329680,"0.0-3.113-1.113","yusb9hc0vdq3ygm",332,"138.csv","","null","resources/maskTrios/L2BB.jpg","null","",NA,NA,NA,NA,""
"image-keyboard-response",352,330888,"0.0-3.113-2.113","yusb9hc0vdq3ygm",332,"138.csv","","null","resources/images/fishbone.png","null","",NA,NA,NA,NA,""
"image-keyboard-response",353,331927,"0.0-3.114-0.114","yusb9hc0vdq3ygm",332,"138.csv","","1036.1999999284744","resources/trios/L1T1A2.jpg","38","restless",0.6,0.3,0.6,0.169799327226864,"true"
"image-keyboard-response",354,332335,"0.0-3.114-1.114","yusb9hc0vdq3ygm",332,"138.csv","","null","resources/maskTrios/BT1B.jpg","null","",NA,NA,NA,NA,""
"image-keyboard-response",355,333542,"0.0-3.114-2.114","yusb9hc0vdq3ygm",332,"138.csv","","null","resources/images/coin2.png","null","",NA,NA,NA,NA,""
"image-keyboard-response",356,335682,"0.0-3.115-0.115","yusb9hc0vdq3ygm",332,"138.csv","","2136.5","resources/trios/L2T4A2.jpg","37","restless",0.6,0.2,0.6,0.25398728576238,"true"
"image-keyboard-response",357,336087,"0.0-3.115-1.115","yusb9hc0vdq3ygm",332,"138.csv","","null","resources/maskTrios/L2BB.jpg","null","",NA,NA,NA,NA,""
"image-keyboard-response",358,337292,"0.0-3.115-2.115","yusb9hc0vdq3ygm",332,"138.csv","","null","resources/images/coin2.png","null","",NA,NA,NA,NA,""
"image-keyboard-response",359,338576,"0.0-3.116-0.116","yusb9hc0vdq3ygm",332,"138.csv","","1280.6000000238419","resources/trios/L2T4A2.jpg","37","restless",0.6,0.3,0.6,0.695281526506864,"false"
"image-keyboard-response",360,338979,"0.0-3.116-1.116","yusb9hc0vdq3ygm",332,"138.csv","","null","resources/maskTrios/L2BB.jpg","null","",NA,NA,NA,NA,""
"image-keyboard-response",361,340183,"0.0-3.116-2.116","yusb9hc0vdq3ygm",332,"138.csv","","null","resources/images/fishbone.png","null","",NA,NA,NA,NA,""
"image-keyboard-response",362,341360,"0.0-3.117-0.117","yusb9hc0vdq3ygm",332,"138.csv","","1175.6999999284744","resources/trios/L2T1A3.jpg","38","restless",0.6,0.3,0.6,0.514744749475709,"false"
"image-keyboard-response",363,341765,"0.0-3.117-1.117","yusb9hc0vdq3ygm",332,"138.csv","","null","resources/maskTrios/BT1B.jpg","null","",NA,NA,NA,NA,""
"image-keyboard-response",364,342971,"0.0-3.117-2.117","yusb9hc0vdq3ygm",332,"138.csv","","null","resources/images/fishbone.png","null","",NA,NA,NA,NA,""
"image-keyboard-response",365,343990,"0.0-3.118-0.118","yusb9hc0vdq3ygm",332,"138.csv","","1016.7000000476837","resources/trios/L2T1A3.jpg","37","restless",0.6,0.3,0.6,0.324414610987541,"true"
"image-keyboard-response",366,344394,"0.0-3.118-1.118","yusb9hc0vdq3ygm",332,"138.csv","","null","resources/maskTrios/L2BB.jpg","null","",NA,NA,NA,NA,""
"image-keyboard-response",367,345601,"0.0-3.118-2.118","yusb9hc0vdq3ygm",332,"138.csv","","null","resources/images/coin2.png","null","",NA,NA,NA,NA,""
"image-keyboard-response",368,348728,"0.0-3.119-0.119","yusb9hc0vdq3ygm",332,"138.csv","","3124","resources/trios/L1T4A3.jpg","37","restless",0.6,0.3,0.6,0.989791593926509,"false"
"image-keyboard-response",369,349134,"0.0-3.119-1.119","yusb9hc0vdq3ygm",332,"138.csv","","null","resources/maskTrios/L1BB.jpg","null","",NA,NA,NA,NA,""
"image-keyboard-response",370,350337,"0.0-3.119-2.119","yusb9hc0vdq3ygm",332,"138.csv","","null","resources/images/fishbone.png","null","",NA,NA,NA,NA,""
"image-keyboard-response",371,351231,"0.0-3.120-0.120","yusb9hc0vdq3ygm",332,"138.csv","","891.1000000238419","resources/trios/L1T1A3.jpg","38","restless",0.5,0.3,0.7,0.805942108284431,"false"
"image-keyboard-response",372,351635,"0.0-3.120-1.120","yusb9hc0vdq3ygm",332,"138.csv","","null","resources/maskTrios/BT1B.jpg","null","",NA,NA,NA,NA,""
"image-keyboard-response",373,352842,"0.0-3.120-2.120","yusb9hc0vdq3ygm",332,"138.csv","","null","resources/images/fishbone.png","null","",NA,NA,NA,NA,""
"image-keyboard-response",374,353547,"0.0-3.121-0.121","yusb9hc0vdq3ygm",332,"138.csv","","702","resources/trios/L1T4A3.jpg","38","restless",0.5,0.3,0.6,0.510304723240028,"false"
"image-keyboard-response",375,353954,"0.0-3.121-1.121","yusb9hc0vdq3ygm",332,"138.csv","","null","resources/maskTrios/BT4B.jpg","null","",NA,NA,NA,NA,""
"image-keyboard-response",376,355157,"0.0-3.121-2.121","yusb9hc0vdq3ygm",332,"138.csv","","null","resources/images/fishbone.png","null","",NA,NA,NA,NA,""
"image-keyboard-response",377,355330,"0.0-3.122-0.122","yusb9hc0vdq3ygm",332,"138.csv","","170.39999997615814","resources/trios/L2T4A2.jpg","38","restless",0.5,0.3,0.6,0.0129028854226381,"true"
"image-keyboard-response",378,355737,"0.0-3.122-1.122","yusb9hc0vdq3ygm",332,"138.csv","","null","resources/maskTrios/BT4B.jpg","null","",NA,NA,NA,NA,""
"image-keyboard-response",379,356945,"0.0-3.122-2.122","yusb9hc0vdq3ygm",332,"138.csv","","null","resources/images/coin2.png","null","",NA,NA,NA,NA,""
"image-keyboard-response",380,357255,"0.0-3.123-0.123","yusb9hc0vdq3ygm",332,"138.csv","","306.8000000715256","resources/trios/L2T1A3.jpg","38","restless",0.5,0.4,0.6,0.956001070761217,"false"
"image-keyboard-response",381,357659,"0.0-3.123-1.123","yusb9hc0vdq3ygm",332,"138.csv","","null","resources/maskTrios/BT1B.jpg","null","",NA,NA,NA,NA,""
"image-keyboard-response",382,358864,"0.0-3.123-2.123","yusb9hc0vdq3ygm",332,"138.csv","","null","resources/images/fishbone.png","null","",NA,NA,NA,NA,""
"image-keyboard-response",383,359244,"0.0-3.124-0.124","yusb9hc0vdq3ygm",332,"138.csv","","377","resources/trios/L1T4A2.jpg","37","restless",0.5,0.4,0.6,0.0464901736660852,"true"
"image-keyboard-response",384,359647,"0.0-3.124-1.124","yusb9hc0vdq3ygm",332,"138.csv","","null","resources/maskTrios/L1BB.jpg","null","",NA,NA,NA,NA,""
"image-keyboard-response",385,360855,"0.0-3.124-2.124","yusb9hc0vdq3ygm",332,"138.csv","","null","resources/images/coin2.png","null","",NA,NA,NA,NA,""
"image-keyboard-response",386,361448,"0.0-3.125-0.125","yusb9hc0vdq3ygm",332,"138.csv","","591.2000000476837","resources/trios/L1T1A2.jpg","37","restless",0.5,0.4,0.6,0.543413029994493,"false"
"image-keyboard-response",387,361856,"0.0-3.125-1.125","yusb9hc0vdq3ygm",332,"138.csv","","null","resources/maskTrios/L1BB.jpg","null","",NA,NA,NA,NA,""
"image-keyboard-response",388,363059,"0.0-3.125-2.125","yusb9hc0vdq3ygm",332,"138.csv","","null","resources/images/fishbone.png","null","",NA,NA,NA,NA,""
"image-keyboard-response",389,363501,"0.0-3.126-0.126","yusb9hc0vdq3ygm",332,"138.csv","","439.1999999284744","resources/trios/L1T4A3.jpg","38","restless",0.5,0.4,0.6,0.433546894822378,"false"
"image-keyboard-response",390,363908,"0.0-3.126-1.126","yusb9hc0vdq3ygm",332,"138.csv","","null","resources/maskTrios/BT4B.jpg","null","",NA,NA,NA,NA,""
"image-keyboard-response",391,365111,"0.0-3.126-2.126","yusb9hc0vdq3ygm",332,"138.csv","","null","resources/images/fishbone.png","null","",NA,NA,NA,NA,""
"image-keyboard-response",392,365289,"0.0-3.127-0.127","yusb9hc0vdq3ygm",332,"138.csv","","176.39999997615814","resources/trios/L2T1A2.jpg","37","restless",0.4,0.4,0.6,0.297049864249092,"true"
"image-keyboard-response",393,365693,"0.0-3.127-1.127","yusb9hc0vdq3ygm",332,"138.csv","","null","resources/maskTrios/L2BB.jpg","null","",NA,NA,NA,NA,""
"image-keyboard-response",394,366900,"0.0-3.127-2.127","yusb9hc0vdq3ygm",332,"138.csv","","null","resources/images/coin2.png","null","",NA,NA,NA,NA,""
"image-keyboard-response",395,367293,"0.0-3.128-0.128","yusb9hc0vdq3ygm",332,"138.csv","","391.7000000476837","resources/trios/L2T1A2.jpg","37","restless",0.4,0.4,0.5,0.441862318087611,"false"
"image-keyboard-response",396,367701,"0.0-3.128-1.128","yusb9hc0vdq3ygm",332,"138.csv","","null","resources/maskTrios/L2BB.jpg","null","",NA,NA,NA,NA,""
"image-keyboard-response",397,368909,"0.0-3.128-2.128","yusb9hc0vdq3ygm",332,"138.csv","","null","resources/images/fishbone.png","null","",NA,NA,NA,NA,""
"image-keyboard-response",398,369841,"0.0-3.129-0.129","yusb9hc0vdq3ygm",332,"138.csv","","929.1000000238419","resources/trios/L1T1A2.jpg","38","restless",0.3,0.4,0.5,0.527011100147859,"false"
"image-keyboard-response",399,370248,"0.0-3.129-1.129","yusb9hc0vdq3ygm",332,"138.csv","","null","resources/maskTrios/BT1B.jpg","null","",NA,NA,NA,NA,""
"image-keyboard-response",400,371452,"0.0-3.129-2.129","yusb9hc0vdq3ygm",332,"138.csv","","null","resources/images/fishbone.png","null","",NA,NA,NA,NA,""
"image-keyboard-response",401,380186,"0.0-3.130-0.130","yusb9hc0vdq3ygm",332,"138.csv","","8731.600000023842","resources/trios/L2T4A3.jpg","37","restless",0.3,0.4,0.5,0.00573147227636661,"true"
"image-keyboard-response",402,380594,"0.0-3.130-1.130","yusb9hc0vdq3ygm",332,"138.csv","","null","resources/maskTrios/L2BB.jpg","null","",NA,NA,NA,NA,""
"image-keyboard-response",403,381801,"0.0-3.130-2.130","yusb9hc0vdq3ygm",332,"138.csv","","null","resources/images/coin2.png","null","",NA,NA,NA,NA,""
"image-keyboard-response",404,384310,"0.0-3.131-0.131","yusb9hc0vdq3ygm",332,"138.csv","","2505.899999976158","resources/trios/L2T4A2.jpg","37","restless",0.3,0.4,0.5,0.777938890511581,"false"
"image-keyboard-response",405,384718,"0.0-3.131-1.131","yusb9hc0vdq3ygm",332,"138.csv","","null","resources/maskTrios/L2BB.jpg","null","",NA,NA,NA,NA,""
"image-keyboard-response",406,385923,"0.0-3.131-2.131","yusb9hc0vdq3ygm",332,"138.csv","","null","resources/images/fishbone.png","null","",NA,NA,NA,NA,""
"image-keyboard-response",407,387759,"0.0-3.132-0.132","yusb9hc0vdq3ygm",332,"138.csv","","1833.2000000476837","resources/trios/L1T4A2.jpg","37","restless",0.3,0.4,0.5,0.0292360723065148,"true"
"image-keyboard-response",408,388163,"0.0-3.132-1.132","yusb9hc0vdq3ygm",332,"138.csv","","null","resources/maskTrios/L1BB.jpg","null","",NA,NA,NA,NA,""
"image-keyboard-response",409,389371,"0.0-3.132-2.132","yusb9hc0vdq3ygm",332,"138.csv","","null","resources/images/coin2.png","null","",NA,NA,NA,NA,""
"image-keyboard-response",410,390489,"0.0-3.133-0.133","yusb9hc0vdq3ygm",332,"138.csv","","1116.2000000476837","resources/trios/L1T1A2.jpg","38","restless",0.3,0.4,0.5,0.639933199191075,"false"
"image-keyboard-response",411,390897,"0.0-3.133-1.133","yusb9hc0vdq3ygm",332,"138.csv","","null","resources/maskTrios/BT1B.jpg","null","",NA,NA,NA,NA,""
"image-keyboard-response",412,392104,"0.0-3.133-2.133","yusb9hc0vdq3ygm",332,"138.csv","","null","resources/images/fishbone.png","null","",NA,NA,NA,NA,""
"image-keyboard-response",413,394829,"0.0-3.134-0.134","yusb9hc0vdq3ygm",332,"138.csv","","2721.7999999523163","resources/trios/L2T4A2.jpg","37","restless",0.3,0.4,0.5,0.720445238371613,"false"
"image-keyboard-response",414,395237,"0.0-3.134-1.134","yusb9hc0vdq3ygm",332,"138.csv","","null","resources/maskTrios/L2BB.jpg","null","",NA,NA,NA,NA,""
"image-keyboard-response",415,396441,"0.0-3.134-2.134","yusb9hc0vdq3ygm",332,"138.csv","","null","resources/images/fishbone.png","null","",NA,NA,NA,NA,""
"image-keyboard-response",416,397449,"0.0-3.135-0.135","yusb9hc0vdq3ygm",332,"138.csv","","1005.6000000238419","resources/trios/L2T4A2.jpg","38","restless",0.3,0.4,0.5,0.295238062238739,"true"
"image-keyboard-response",417,397853,"0.0-3.135-1.135","yusb9hc0vdq3ygm",332,"138.csv","","null","resources/maskTrios/BT4B.jpg","null","",NA,NA,NA,NA,""
"image-keyboard-response",418,399061,"0.0-3.135-2.135","yusb9hc0vdq3ygm",332,"138.csv","","null","resources/images/coin2.png","null","",NA,NA,NA,NA,""
"image-keyboard-response",419,400179,"0.0-3.136-0.136","yusb9hc0vdq3ygm",332,"138.csv","","1114.8999999761581","resources/trios/L2T1A3.jpg","39","restless",0.2,0.4,0.5,0.788278736692434,"false"
"image-keyboard-response",420,400586,"0.0-3.136-1.136","yusb9hc0vdq3ygm",332,"138.csv","","null","resources/maskTrios/BBA3.jpg","null","",NA,NA,NA,NA,""
"image-keyboard-response",421,401790,"0.0-3.136-2.136","yusb9hc0vdq3ygm",332,"138.csv","","null","resources/images/fishbone.png","null","",NA,NA,NA,NA,""
"image-keyboard-response",422,402493,"0.0-3.137-0.137","yusb9hc0vdq3ygm",332,"138.csv","","701.2000000476837","resources/trios/L1T1A2.jpg","37","restless",0.2,0.4,0.5,0.463015526935243,"false"
"image-keyboard-response",423,402898,"0.0-3.137-1.137","yusb9hc0vdq3ygm",332,"138.csv","","null","resources/maskTrios/L1BB.jpg","null","",NA,NA,NA,NA,""
"image-keyboard-response",424,404106,"0.0-3.137-2.137","yusb9hc0vdq3ygm",332,"138.csv","","null","resources/images/fishbone.png","null","",NA,NA,NA,NA,""
"image-keyboard-response",425,407557,"0.0-3.138-0.138","yusb9hc0vdq3ygm",332,"138.csv","","3448.7000000476837","resources/trios/L1T4A3.jpg","38","restless",0.2,0.4,0.5,0.0287842017369229,"true"
"image-keyboard-response",426,407964,"0.0-3.138-1.138","yusb9hc0vdq3ygm",332,"138.csv","","null","resources/maskTrios/BT4B.jpg","null","",NA,NA,NA,NA,""
"image-keyboard-response",427,409169,"0.0-3.138-2.138","yusb9hc0vdq3ygm",332,"138.csv","","null","resources/images/coin2.png","null","",NA,NA,NA,NA,""
"image-keyboard-response",428,417068,"0.0-3.139-0.139","yusb9hc0vdq3ygm",332,"138.csv","","7896.400000095367","resources/trios/L1T1A2.jpg","37","restless",0.2,0.4,0.5,0.165605106441124,"true"
"image-keyboard-response",429,417475,"0.0-3.139-1.139","yusb9hc0vdq3ygm",332,"138.csv","","null","resources/maskTrios/L1BB.jpg","null","",NA,NA,NA,NA,""
"image-keyboard-response",430,418682,"0.0-3.139-2.139","yusb9hc0vdq3ygm",332,"138.csv","","null","resources/images/coin2.png","null","",NA,NA,NA,NA,""
"image-keyboard-response",431,422226,"0.0-3.140-0.140","yusb9hc0vdq3ygm",332,"138.csv","","3541.600000023842","resources/trios/L2T4A2.jpg","37","restless",0.2,0.4,0.5,0.834705870160765,"false"
"image-keyboard-response",432,422634,"0.0-3.140-1.140","yusb9hc0vdq3ygm",332,"138.csv","","null","resources/maskTrios/L2BB.jpg","null","",NA,NA,NA,NA,""
"image-keyboard-response",433,423841,"0.0-3.140-2.140","yusb9hc0vdq3ygm",332,"138.csv","","null","resources/images/fishbone.png","null","",NA,NA,NA,NA,""
"image-keyboard-response",434,426542,"0.0-3.141-0.141","yusb9hc0vdq3ygm",332,"138.csv","","2698.5","resources/trios/L1T1A2.jpg","38","restless",0.2,0.4,0.5,0.293729779995909,"true"
"image-keyboard-response",435,426949,"0.0-3.141-1.141","yusb9hc0vdq3ygm",332,"138.csv","","null","resources/maskTrios/BT1B.jpg","null","",NA,NA,NA,NA,""
"image-keyboard-response",436,428157,"0.0-3.141-2.141","yusb9hc0vdq3ygm",332,"138.csv","","null","resources/images/coin2.png","null","",NA,NA,NA,NA,""
"image-keyboard-response",437,431730,"0.0-3.142-0.142","yusb9hc0vdq3ygm",332,"138.csv","","3570.6999999284744","resources/trios/L1T4A3.jpg","37","restless",0.1,0.4,0.5,0.0976309018806905,"true"
"image-keyboard-response",438,432137,"0.0-3.142-1.142","yusb9hc0vdq3ygm",332,"138.csv","","null","resources/maskTrios/L1BB.jpg","null","",NA,NA,NA,NA,""
"image-keyboard-response",439,433342,"0.0-3.142-2.142","yusb9hc0vdq3ygm",332,"138.csv","","null","resources/images/coin2.png","null","",NA,NA,NA,NA,""
"image-keyboard-response",440,435583,"0.0-3.143-0.143","yusb9hc0vdq3ygm",332,"138.csv","","2238.7000000476837","resources/trios/L2T1A3.jpg","38","restless",0.2,0.4,0.5,0.672506974308781,"false"
"image-keyboard-response",441,435990,"0.0-3.143-1.143","yusb9hc0vdq3ygm",332,"138.csv","","null","resources/maskTrios/BT1B.jpg","null","",NA,NA,NA,NA,""
"image-keyboard-response",442,437197,"0.0-3.143-2.143","yusb9hc0vdq3ygm",332,"138.csv","","null","resources/images/fishbone.png","null","",NA,NA,NA,NA,""
"image-keyboard-response",443,438603,"0.0-3.144-0.144","yusb9hc0vdq3ygm",332,"138.csv","","1403.6000000238419","resources/trios/L1T1A3.jpg","38","restless",0.2,0.4,0.5,0.610893180790926,"false"
"image-keyboard-response",444,439011,"0.0-3.144-1.144","yusb9hc0vdq3ygm",332,"138.csv","","null","resources/maskTrios/BT1B.jpg","null","",NA,NA,NA,NA,""
"image-keyboard-response",445,440214,"0.0-3.144-2.144","yusb9hc0vdq3ygm",332,"138.csv","","null","resources/images/fishbone.png","null","",NA,NA,NA,NA,""
"image-keyboard-response",446,445123,"0.0-3.145-0.145","yusb9hc0vdq3ygm",332,"138.csv","","4906.399999976158","resources/trios/L1T1A2.jpg","38","restless",0.2,0.4,0.5,0.620227868263446,"false"
"image-keyboard-response",447,445530,"0.0-3.145-1.145","yusb9hc0vdq3ygm",332,"138.csv","","null","resources/maskTrios/BT1B.jpg","null","",NA,NA,NA,NA,""
"image-keyboard-response",448,446737,"0.0-3.145-2.145","yusb9hc0vdq3ygm",332,"138.csv","","null","resources/images/fishbone.png","null","",NA,NA,NA,NA,""
"image-keyboard-response",449,449413,"0.0-3.146-0.146","yusb9hc0vdq3ygm",332,"138.csv","","2673.5","resources/trios/L2T4A2.jpg","37","restless",0.2,0.4,0.5,0.355958632695593,"false"
"image-keyboard-response",450,449818,"0.0-3.146-1.146","yusb9hc0vdq3ygm",332,"138.csv","","null","resources/maskTrios/L2BB.jpg","null","",NA,NA,NA,NA,""
"image-keyboard-response",451,451025,"0.0-3.146-2.146","yusb9hc0vdq3ygm",332,"138.csv","","null","resources/images/fishbone.png","null","",NA,NA,NA,NA,""
"image-keyboard-response",452,452051,"0.0-3.147-0.147","yusb9hc0vdq3ygm",332,"138.csv","","1023.7999999523163","resources/trios/L1T1A3.jpg","38","restless",0.2,0.4,0.5,0.083053350718141,"true"
"image-keyboard-response",453,452458,"0.0-3.147-1.147","yusb9hc0vdq3ygm",332,"138.csv","","null","resources/maskTrios/BT1B.jpg","null","",NA,NA,NA,NA,""
"image-keyboard-response",454,453665,"0.0-3.147-2.147","yusb9hc0vdq3ygm",332,"138.csv","","null","resources/images/coin2.png","null","",NA,NA,NA,NA,""
"image-keyboard-response",455,461089,"0.0-3.148-0.148","yusb9hc0vdq3ygm",332,"138.csv","","7421.899999976158","resources/trios/L1T4A2.jpg","37","restless",0.2,0.5,0.5,0.217114845421337,"false"
"image-keyboard-response",456,461497,"0.0-3.148-1.148","yusb9hc0vdq3ygm",332,"138.csv","","null","resources/maskTrios/L1BB.jpg","null","",NA,NA,NA,NA,""
"image-keyboard-response",457,462704,"0.0-3.148-2.148","yusb9hc0vdq3ygm",332,"138.csv","","null","resources/images/fishbone.png","null","",NA,NA,NA,NA,""
"image-keyboard-response",458,463459,"0.0-3.149-0.149","yusb9hc0vdq3ygm",332,"138.csv","","752.5","resources/trios/L2T4A3.jpg","38","restless",0.2,0.5,0.5,0.649033192838366,"false"
"image-keyboard-response",459,463863,"0.0-3.149-1.149","yusb9hc0vdq3ygm",332,"138.csv","","null","resources/maskTrios/BT4B.jpg","null","",NA,NA,NA,NA,""
"image-keyboard-response",460,465067,"0.0-3.149-2.149","yusb9hc0vdq3ygm",332,"138.csv","","null","resources/images/fishbone.png","null","",NA,NA,NA,NA,""
"image-keyboard-response",461,465398,"0.0-3.150-0.150","yusb9hc0vdq3ygm",332,"138.csv","","328.6999999284744","resources/trios/L1T1A3.jpg","38","restless",0.3,0.5,0.6,0.140562744798511,"true"
"image-keyboard-response",462,465806,"0.0-3.150-1.150","yusb9hc0vdq3ygm",332,"138.csv","","null","resources/maskTrios/BT1B.jpg","null","",NA,NA,NA,NA,""
"image-keyboard-response",463,467009,"0.0-3.150-2.150","yusb9hc0vdq3ygm",332,"138.csv","","null","resources/images/coin2.png","null","",NA,NA,NA,NA,""
"image-keyboard-response",464,468062,"0.0-3.151-0.151","yusb9hc0vdq3ygm",332,"138.csv","","1051.2000000476837","resources/trios/L2T1A3.jpg","38","restless",0.3,0.5,0.6,0.742462200114234,"false"
"image-keyboard-response",465,468467,"0.0-3.151-1.151","yusb9hc0vdq3ygm",332,"138.csv","","null","resources/maskTrios/BT1B.jpg","null","",NA,NA,NA,NA,""
"image-keyboard-response",466,469673,"0.0-3.151-2.151","yusb9hc0vdq3ygm",332,"138.csv","","null","resources/images/fishbone.png","null","",NA,NA,NA,NA,""
"image-keyboard-response",467,470596,"0.0-3.152-0.152","yusb9hc0vdq3ygm",332,"138.csv","","920.7000000476837","resources/trios/L2T1A2.jpg","39","restless",0.3,0.5,0.6,0.526856407005582,"true"
"image-keyboard-response",468,471002,"0.0-3.152-1.152","yusb9hc0vdq3ygm",332,"138.csv","","null","resources/maskTrios/BBA2.jpg","null","",NA,NA,NA,NA,""
"image-keyboard-response",469,472204,"0.0-3.152-2.152","yusb9hc0vdq3ygm",332,"138.csv","","null","resources/images/coin2.png","null","",NA,NA,NA,NA,""
"image-keyboard-response",470,474912,"0.0-3.153-0.153","yusb9hc0vdq3ygm",332,"138.csv","","2705.899999976158","resources/trios/L2T4A3.jpg","39","restless",0.3,0.5,0.6,0.00570656130779934,"true"
"image-keyboard-response",471,475315,"0.0-3.153-1.153","yusb9hc0vdq3ygm",332,"138.csv","","null","resources/maskTrios/BBA3.jpg","null","",NA,NA,NA,NA,""
"image-keyboard-response",472,476523,"0.0-3.153-2.153","yusb9hc0vdq3ygm",332,"138.csv","","null","resources/images/coin2.png","null","",NA,NA,NA,NA,""
"image-keyboard-response",473,477035,"0.0-3.154-0.154","yusb9hc0vdq3ygm",332,"138.csv","","510.10000002384186","resources/trios/L2T4A2.jpg","38","restless",0.3,0.5,0.6,0.481716848629303,"true"
"image-keyboard-response",474,477443,"0.0-3.154-1.154","yusb9hc0vdq3ygm",332,"138.csv","","null","resources/maskTrios/BT4B.jpg","null","",NA,NA,NA,NA,""
"image-keyboard-response",475,478650,"0.0-3.154-2.154","yusb9hc0vdq3ygm",332,"138.csv","","null","resources/images/coin2.png","null","",NA,NA,NA,NA,""
"image-keyboard-response",476,485963,"0.0-3.155-0.155","yusb9hc0vdq3ygm",332,"138.csv","","7310","resources/trios/L1T1A2.jpg","38","restless",0.4,0.5,0.6,0.651603429552468,"false"
"image-keyboard-response",477,486367,"0.0-3.155-1.155","yusb9hc0vdq3ygm",332,"138.csv","","null","resources/maskTrios/BT1B.jpg","null","",NA,NA,NA,NA,""
"image-keyboard-response",478,487573,"0.0-3.155-2.155","yusb9hc0vdq3ygm",332,"138.csv","","null","resources/images/fishbone.png","null","",NA,NA,NA,NA,""
"image-keyboard-response",479,506379,"0.0-3.156-0.156","yusb9hc0vdq3ygm",332,"138.csv","","18804.300000071526","resources/trios/L2T1A3.jpg","38","restless",0.5,0.5,0.6,0.119850684629898,"true"
"image-keyboard-response",480,506786,"0.0-3.156-1.156","yusb9hc0vdq3ygm",332,"138.csv","","null","resources/maskTrios/BT1B.jpg","null","",NA,NA,NA,NA,""
"image-keyboard-response",481,507992,"0.0-3.156-2.156","yusb9hc0vdq3ygm",332,"138.csv","","null","resources/images/coin2.png","null","",NA,NA,NA,NA,""
"image-keyboard-response",482,523539,"0.0-3.157-0.157","yusb9hc0vdq3ygm",332,"138.csv","","15545.799999952316","resources/trios/L2T1A2.jpg","38","restless",0.5,0.5,0.6,0.970291024198024,"false"
"image-keyboard-response",483,523946,"0.0-3.157-1.157","yusb9hc0vdq3ygm",332,"138.csv","","null","resources/maskTrios/BT1B.jpg","null","",NA,NA,NA,NA,""
"image-keyboard-response",484,525152,"0.0-3.157-2.157","yusb9hc0vdq3ygm",332,"138.csv","","null","resources/images/fishbone.png","null","",NA,NA,NA,NA,""
"image-keyboard-response",485,525197,"0.0-3.158-0.158","yusb9hc0vdq3ygm",332,"138.csv","","42","resources/trios/L2T4A2.jpg","37","restless",0.5,0.5,0.6,0.77535338031721,"false"
"image-keyboard-response",486,525604,"0.0-3.158-1.158","yusb9hc0vdq3ygm",332,"138.csv","","null","resources/maskTrios/L2BB.jpg","null","",NA,NA,NA,NA,""
"image-keyboard-response",487,526807,"0.0-3.158-2.158","yusb9hc0vdq3ygm",332,"138.csv","","null","resources/images/fishbone.png","null","",NA,NA,NA,NA,""
"image-keyboard-response",488,528589,"0.0-3.159-0.159","yusb9hc0vdq3ygm",332,"138.csv","","1780.3000000715256","resources/trios/L1T4A3.jpg","37","restless",0.5,0.5,0.6,0.460861287212291,"true"
"image-keyboard-response",489,528995,"0.0-3.159-1.159","yusb9hc0vdq3ygm",332,"138.csv","","null","resources/maskTrios/L1BB.jpg","null","",NA,NA,NA,NA,""
"image-keyboard-response",490,530202,"0.0-3.159-2.159","yusb9hc0vdq3ygm",332,"138.csv","","null","resources/images/coin2.png","null","",NA,NA,NA,NA,""
"image-keyboard-response",491,530950,"0.0-3.160-0.160","yusb9hc0vdq3ygm",332,"138.csv","","744.7999999523163","resources/trios/L1T1A3.jpg","37","restless",0.5,0.5,0.6,0.68964762774334,"false"
"image-keyboard-response",492,531357,"0.0-3.160-1.160","yusb9hc0vdq3ygm",332,"138.csv","","null","resources/maskTrios/L1BB.jpg","null","",NA,NA,NA,NA,""
"image-keyboard-response",493,532563,"0.0-3.160-2.160","yusb9hc0vdq3ygm",332,"138.csv","","null","resources/images/fishbone.png","null","",NA,NA,NA,NA,""
"image-keyboard-response",494,532660,"0.0-3.161-0.161","yusb9hc0vdq3ygm",332,"138.csv","","94.90000009536743","resources/trios/L1T4A2.jpg","38","restless",0.5,0.5,0.7,0.460322963460171,"true"
"image-keyboard-response",495,533065,"0.0-3.161-1.161","yusb9hc0vdq3ygm",332,"138.csv","","null","resources/maskTrios/BT4B.jpg","null","",NA,NA,NA,NA,""
"image-keyboard-response",496,534272,"0.0-3.161-2.161","yusb9hc0vdq3ygm",332,"138.csv","","null","resources/images/coin2.png","null","",NA,NA,NA,NA,""
"image-keyboard-response",497,534947,"0.0-3.162-0.162","yusb9hc0vdq3ygm",332,"138.csv","","672.1000000238419","resources/trios/L1T4A3.jpg","39","restless",0.5,0.5,0.7,0.30624141715289,"true"
"image-keyboard-response",498,535354,"0.0-3.162-1.162","yusb9hc0vdq3ygm",332,"138.csv","","null","resources/maskTrios/BBA3.jpg","null","",NA,NA,NA,NA,""
"image-keyboard-response",499,536558,"0.0-3.162-2.162","yusb9hc0vdq3ygm",332,"138.csv","","null","resources/images/coin2.png","null","",NA,NA,NA,NA,""
"image-keyboard-response",500,537695,"0.0-3.163-0.163","yusb9hc0vdq3ygm",332,"138.csv","","1135.2999999523163","resources/trios/L1T1A2.jpg","38","restless",0.5,0.5,0.7,0.999732000895607,"false"
"image-keyboard-response",501,538102,"0.0-3.163-1.163","yusb9hc0vdq3ygm",332,"138.csv","","null","resources/maskTrios/BT1B.jpg","null","",NA,NA,NA,NA,""
"image-keyboard-response",502,539307,"0.0-3.163-2.163","yusb9hc0vdq3ygm",332,"138.csv","","null","resources/images/fishbone.png","null","",NA,NA,NA,NA,""
"image-keyboard-response",503,540723,"0.0-3.164-0.164","yusb9hc0vdq3ygm",332,"138.csv","","1413.5","resources/trios/L1T1A3.jpg","38","restless",0.5,0.5,0.7,0.870215699350168,"false"
"image-keyboard-response",504,541126,"0.0-3.164-1.164","yusb9hc0vdq3ygm",332,"138.csv","","null","resources/maskTrios/BT1B.jpg","null","",NA,NA,NA,NA,""
"image-keyboard-response",505,542333,"0.0-3.164-2.164","yusb9hc0vdq3ygm",332,"138.csv","","null","resources/images/fishbone.png","null","",NA,NA,NA,NA,""
"image-keyboard-response",506,542684,"0.0-3.165-0.165","yusb9hc0vdq3ygm",332,"138.csv","","348","resources/trios/L1T1A3.jpg","38","restless",0.5,0.5,0.7,0.166670400272727,"true"
"image-keyboard-response",507,543089,"0.0-3.165-1.165","yusb9hc0vdq3ygm",332,"138.csv","","null","resources/maskTrios/BT1B.jpg","null","",NA,NA,NA,NA,""
"image-keyboard-response",508,544291,"0.0-3.165-2.165","yusb9hc0vdq3ygm",332,"138.csv","","null","resources/images/coin2.png","null","",NA,NA,NA,NA,""
"image-keyboard-response",509,545002,"0.0-3.166-0.166","yusb9hc0vdq3ygm",332,"138.csv","","707.5999999046326","resources/trios/L2T1A3.jpg","38","restless",0.5,0.5,0.7,0.0549451079116967,"true"
"image-keyboard-response",510,545407,"0.0-3.166-1.166","yusb9hc0vdq3ygm",332,"138.csv","","null","resources/maskTrios/BT1B.jpg","null","",NA,NA,NA,NA,""
"image-keyboard-response",511,546613,"0.0-3.166-2.166","yusb9hc0vdq3ygm",332,"138.csv","","null","resources/images/coin2.png","null","",NA,NA,NA,NA,""
"image-keyboard-response",512,547111,"0.0-3.167-0.167","yusb9hc0vdq3ygm",332,"138.csv","","495.7999999523163","resources/trios/L1T4A3.jpg","38","restless",0.5,0.6,0.7,0.0194240941491335,"true"
"image-keyboard-response",513,547518,"0.0-3.167-1.167","yusb9hc0vdq3ygm",332,"138.csv","","null","resources/maskTrios/BT4B.jpg","null","",NA,NA,NA,NA,""
"image-keyboard-response",514,548726,"0.0-3.167-2.167","yusb9hc0vdq3ygm",332,"138.csv","","null","resources/images/coin2.png","null","",NA,NA,NA,NA,""
"image-keyboard-response",515,549132,"0.0-3.168-0.168","yusb9hc0vdq3ygm",332,"138.csv","","404.59999990463257","resources/trios/L1T4A3.jpg","38","restless",0.5,0.6,0.8,0.930392615326476,"false"
"image-keyboard-response",516,549537,"0.0-3.168-1.168","yusb9hc0vdq3ygm",332,"138.csv","","null","resources/maskTrios/BT4B.jpg","null","",NA,NA,NA,NA,""
"image-keyboard-response",517,550740,"0.0-3.168-2.168","yusb9hc0vdq3ygm",332,"138.csv","","null","resources/images/fishbone.png","null","",NA,NA,NA,NA,""
"image-keyboard-response",518,551206,"0.0-3.169-0.169","yusb9hc0vdq3ygm",332,"138.csv","","464.39999997615814","resources/trios/L2T4A2.jpg","37","restless",0.5,0.6,0.8,0.0654712155762796,"true"
"image-keyboard-response",519,551614,"0.0-3.169-1.169","yusb9hc0vdq3ygm",332,"138.csv","","null","resources/maskTrios/L2BB.jpg","null","",NA,NA,NA,NA,""
"image-keyboard-response",520,552817,"0.0-3.169-2.169","yusb9hc0vdq3ygm",332,"138.csv","","null","resources/images/coin2.png","null","",NA,NA,NA,NA,""
"image-keyboard-response",521,553058,"0.0-3.170-0.170","yusb9hc0vdq3ygm",332,"138.csv","","238.69999992847443","resources/trios/L2T1A3.jpg","37","restless",0.5,0.6,0.8,0.969990992785453,"false"
"image-keyboard-response",522,553464,"0.0-3.170-1.170","yusb9hc0vdq3ygm",332,"138.csv","","null","resources/maskTrios/L2BB.jpg","null","",NA,NA,NA,NA,""
"image-keyboard-response",523,554671,"0.0-3.170-2.170","yusb9hc0vdq3ygm",332,"138.csv","","null","resources/images/fishbone.png","null","",NA,NA,NA,NA,""
"image-keyboard-response",524,554700,"0.0-3.171-0.171","yusb9hc0vdq3ygm",332,"138.csv","","27.899999976158142","resources/trios/L2T1A3.jpg","38","restless",0.5,0.6,0.8,0.769482849910495,"false"
"image-keyboard-response",525,555106,"0.0-3.171-1.171","yusb9hc0vdq3ygm",332,"138.csv","","null","resources/maskTrios/BT1B.jpg","null","",NA,NA,NA,NA,""
"image-keyboard-response",526,556313,"0.0-3.171-2.171","yusb9hc0vdq3ygm",332,"138.csv","","null","resources/images/fishbone.png","null","",NA,NA,NA,NA,""
"image-keyboard-response",527,556600,"0.0-3.172-0.172","yusb9hc0vdq3ygm",332,"138.csv","","284.5","resources/trios/L1T4A3.jpg","39","restless",0.5,0.6,0.8,0.938697129380332,"false"
"image-keyboard-response",528,557007,"0.0-3.172-1.172","yusb9hc0vdq3ygm",332,"138.csv","","null","resources/maskTrios/BBA3.jpg","null","",NA,NA,NA,NA,""
"image-keyboard-response",529,558214,"0.0-3.172-2.172","yusb9hc0vdq3ygm",332,"138.csv","","null","resources/images/fishbone.png","null","",NA,NA,NA,NA,""
"image-keyboard-response",530,559062,"0.0-3.173-0.173","yusb9hc0vdq3ygm",332,"138.csv","","845.1999999284744","resources/trios/L1T1A3.jpg","38","restless",0.5,0.6,0.8,0.895781308954167,"false"
"image-keyboard-response",531,559469,"0.0-3.173-1.173","yusb9hc0vdq3ygm",332,"138.csv","","null","resources/maskTrios/BT1B.jpg","null","",NA,NA,NA,NA,""
"image-keyboard-response",532,560671,"0.0-3.173-2.173","yusb9hc0vdq3ygm",332,"138.csv","","null","resources/images/fishbone.png","null","",NA,NA,NA,NA,""
"image-keyboard-response",533,562114,"0.0-3.174-0.174","yusb9hc0vdq3ygm",332,"138.csv","","1440.7999999523163","resources/trios/L2T4A3.jpg","37","restless",0.5,0.6,0.8,0.947215865640655,"false"
"image-keyboard-response",534,562522,"0.0-3.174-1.174","yusb9hc0vdq3ygm",332,"138.csv","","null","resources/maskTrios/L2BB.jpg","null","",NA,NA,NA,NA,""
"image-keyboard-response",535,563728,"0.0-3.174-2.174","yusb9hc0vdq3ygm",332,"138.csv","","null","resources/images/fishbone.png","null","",NA,NA,NA,NA,""
"image-keyboard-response",536,567581,"0.0-3.175-0.175","yusb9hc0vdq3ygm",332,"138.csv","","3850.2000000476837","resources/trios/L2T1A3.jpg","38","restless",0.5,0.5,0.8,0.770581838121567,"false"
"image-keyboard-response",537,567988,"0.0-3.175-1.175","yusb9hc0vdq3ygm",332,"138.csv","","null","resources/maskTrios/BT1B.jpg","null","",NA,NA,NA,NA,""
"image-keyboard-response",538,569195,"0.0-3.175-2.175","yusb9hc0vdq3ygm",332,"138.csv","","null","resources/images/fishbone.png","null","",NA,NA,NA,NA,""
"image-keyboard-response",539,570489,"0.0-3.176-0.176","yusb9hc0vdq3ygm",332,"138.csv","","1292","resources/trios/L1T4A3.jpg","37","restless",0.5,0.5,0.8,0.905245330994068,"false"
"image-keyboard-response",540,570897,"0.0-3.176-1.176","yusb9hc0vdq3ygm",332,"138.csv","","null","resources/maskTrios/L1BB.jpg","null","",NA,NA,NA,NA,""
"image-keyboard-response",541,572102,"0.0-3.176-2.176","yusb9hc0vdq3ygm",332,"138.csv","","null","resources/images/fishbone.png","null","",NA,NA,NA,NA,""
"image-keyboard-response",542,572516,"0.0-3.177-0.177","yusb9hc0vdq3ygm",332,"138.csv","","411.60000002384186","resources/trios/L1T1A2.jpg","39","restless",0.5,0.5,0.8,0.963125287619035,"false"
"image-keyboard-response",543,572921,"0.0-3.177-1.177","yusb9hc0vdq3ygm",332,"138.csv","","null","resources/maskTrios/BBA2.jpg","null","",NA,NA,NA,NA,""
"image-keyboard-response",544,574124,"0.0-3.177-2.177","yusb9hc0vdq3ygm",332,"138.csv","","null","resources/images/fishbone.png","null","",NA,NA,NA,NA,""
"image-keyboard-response",545,574604,"0.0-3.178-0.178","yusb9hc0vdq3ygm",332,"138.csv","","477.39999997615814","resources/trios/L1T1A2.jpg","39","restless",0.5,0.5,0.8,0.953541576245261,"false"
"image-keyboard-response",546,575009,"0.0-3.178-1.178","yusb9hc0vdq3ygm",332,"138.csv","","null","resources/maskTrios/BBA2.jpg","null","",NA,NA,NA,NA,""
"image-keyboard-response",547,576216,"0.0-3.178-2.178","yusb9hc0vdq3ygm",332,"138.csv","","null","resources/images/fishbone.png","null","",NA,NA,NA,NA,""
"image-keyboard-response",548,576930,"0.0-3.179-0.179","yusb9hc0vdq3ygm",332,"138.csv","","711.3999999761581","resources/trios/L2T4A2.jpg","38","restless",0.6,0.5,0.8,0.185335934161345,"true"
"image-keyboard-response",549,577334,"0.0-3.179-1.179","yusb9hc0vdq3ygm",332,"138.csv","","null","resources/maskTrios/BT4B.jpg","null","",NA,NA,NA,NA,""
"image-keyboard-response",550,578542,"0.0-3.179-2.179","yusb9hc0vdq3ygm",332,"138.csv","","null","resources/images/coin2.png","null","",NA,NA,NA,NA,""
"image-keyboard-response",551,579948,"0.0-3.180-0.180","yusb9hc0vdq3ygm",332,"138.csv","","1404.2999999523163","resources/trios/L2T1A3.jpg","38","restless",0.6,0.5,0.8,0.604181945439231,"false"
"image-keyboard-response",552,580353,"0.0-3.180-1.180","yusb9hc0vdq3ygm",332,"138.csv","","null","resources/maskTrios/BT1B.jpg","null","",NA,NA,NA,NA,""
"image-keyboard-response",553,581556,"0.0-3.180-2.180","yusb9hc0vdq3ygm",332,"138.csv","","null","resources/images/fishbone.png","null","",NA,NA,NA,NA,""
"image-keyboard-response",554,582491,"0.0-3.181-0.181","yusb9hc0vdq3ygm",332,"138.csv","","932.7999999523163","resources/trios/L1T1A3.jpg","37","restless",0.6,0.5,0.8,0.914099242208293,"false"
"image-keyboard-response",555,582894,"0.0-3.181-1.181","yusb9hc0vdq3ygm",332,"138.csv","","null","resources/maskTrios/L1BB.jpg","null","",NA,NA,NA,NA,""
"image-keyboard-response",556,584100,"0.0-3.181-2.181","yusb9hc0vdq3ygm",332,"138.csv","","null","resources/images/fishbone.png","null","",NA,NA,NA,NA,""
"image-keyboard-response",557,584600,"0.0-3.182-0.182","yusb9hc0vdq3ygm",332,"138.csv","","498.39999997615814","resources/trios/L2T1A2.jpg","38","restless",0.5,0.5,0.8,0.044672614926657,"true"
"image-keyboard-response",558,585008,"0.0-3.182-1.182","yusb9hc0vdq3ygm",332,"138.csv","","null","resources/maskTrios/BT1B.jpg","null","",NA,NA,NA,NA,""
"image-keyboard-response",559,586215,"0.0-3.182-2.182","yusb9hc0vdq3ygm",332,"138.csv","","null","resources/images/coin2.png","null","",NA,NA,NA,NA,""
"image-keyboard-response",560,586249,"0.0-3.183-0.183","yusb9hc0vdq3ygm",332,"138.csv","","31.200000047683716","resources/trios/L1T1A2.jpg","38","restless",0.5,0.5,0.8,0.706281282301962,"false"
"image-keyboard-response",561,586656,"0.0-3.183-1.183","yusb9hc0vdq3ygm",332,"138.csv","","null","resources/maskTrios/BT1B.jpg","null","",NA,NA,NA,NA,""
"image-keyboard-response",562,587860,"0.0-3.183-2.183","yusb9hc0vdq3ygm",332,"138.csv","","null","resources/images/fishbone.png","null","",NA,NA,NA,NA,""
"image-keyboard-response",563,588065,"0.0-3.184-0.184","yusb9hc0vdq3ygm",332,"138.csv","","202.19999992847443","resources/trios/L2T1A3.jpg","38","restless",0.5,0.5,0.8,0.539058794345733,"false"
"image-keyboard-response",564,588472,"0.0-3.184-1.184","yusb9hc0vdq3ygm",332,"138.csv","","null","resources/maskTrios/BT1B.jpg","null","",NA,NA,NA,NA,""
"image-keyboard-response",565,589674,"0.0-3.184-2.184","yusb9hc0vdq3ygm",332,"138.csv","","null","resources/images/fishbone.png","null","",NA,NA,NA,NA,""
"image-keyboard-response",566,589688,"0.0-3.185-0.185","yusb9hc0vdq3ygm",332,"138.csv","","12.100000023841858","resources/trios/L2T1A3.jpg","39","restless",0.5,0.6,0.8,0.359396710526734,"true"
"image-keyboard-response",567,590092,"0.0-3.185-1.185","yusb9hc0vdq3ygm",332,"138.csv","","null","resources/maskTrios/BBA3.jpg","null","",NA,NA,NA,NA,""
"image-keyboard-response",568,591294,"0.0-3.185-2.185","yusb9hc0vdq3ygm",332,"138.csv","","null","resources/images/coin2.png","null","",NA,NA,NA,NA,""
"image-keyboard-response",569,594766,"0.0-3.186-0.186","yusb9hc0vdq3ygm",332,"138.csv","","3469.399999976158","resources/trios/L2T1A3.jpg","38","restless",0.6,0.6,0.8,0.761851705216032,"false"
"image-keyboard-response",570,595172,"0.0-3.186-1.186","yusb9hc0vdq3ygm",332,"138.csv","","null","resources/maskTrios/BT1B.jpg","null","",NA,NA,NA,NA,""
"image-keyboard-response",571,596378,"0.0-3.186-2.186","yusb9hc0vdq3ygm",332,"138.csv","","null","resources/images/fishbone.png","null","",NA,NA,NA,NA,""
"image-keyboard-response",572,623591,"0.0-3.187-0.187","yusb9hc0vdq3ygm",332,"138.csv","","27212.100000023842","resources/trios/L2T1A3.jpg","38","restless",0.6,0.6,0.8,0.335175550233657,"true"
"image-keyboard-response",573,623997,"0.0-3.187-1.187","yusb9hc0vdq3ygm",332,"138.csv","","null","resources/maskTrios/BT1B.jpg","null","",NA,NA,NA,NA,""
"image-keyboard-response",574,625204,"0.0-3.187-2.187","yusb9hc0vdq3ygm",332,"138.csv","","null","resources/images/coin2.png","null","",NA,NA,NA,NA,""
"image-keyboard-response",575,626014,"0.0-3.188-0.188","yusb9hc0vdq3ygm",332,"138.csv","","807.5","resources/trios/L1T1A3.jpg","38","restless",0.6,0.6,0.8,0.0465332415714488,"true"
"image-keyboard-response",576,626422,"0.0-3.188-1.188","yusb9hc0vdq3ygm",332,"138.csv","","null","resources/maskTrios/BT1B.jpg","null","",NA,NA,NA,NA,""
"image-keyboard-response",577,627629,"0.0-3.188-2.188","yusb9hc0vdq3ygm",332,"138.csv","","null","resources/images/coin2.png","null","",NA,NA,NA,NA,""
"image-keyboard-response",578,629428,"0.0-3.189-0.189","yusb9hc0vdq3ygm",332,"138.csv","","1796.5999999046326","resources/trios/L2T4A3.jpg","38","restless",0.6,0.6,0.8,0.00927717581518617,"true"
"image-keyboard-response",579,629834,"0.0-3.189-1.189","yusb9hc0vdq3ygm",332,"138.csv","","null","resources/maskTrios/BT4B.jpg","null","",NA,NA,NA,NA,""
"image-keyboard-response",580,631041,"0.0-3.189-2.189","yusb9hc0vdq3ygm",332,"138.csv","","null","resources/images/coin2.png","null","",NA,NA,NA,NA,""
"image-keyboard-response",581,631535,"0.0-3.190-0.190","yusb9hc0vdq3ygm",332,"138.csv","","491.10000002384186","resources/trios/L1T4A3.jpg","37","restless",0.6,0.6,0.8,0.168569822013452,"true"
"image-keyboard-response",582,631942,"0.0-3.190-1.190","yusb9hc0vdq3ygm",332,"138.csv","","null","resources/maskTrios/L1BB.jpg","null","",NA,NA,NA,NA,""
"image-keyboard-response",583,633150,"0.0-3.190-2.190","yusb9hc0vdq3ygm",332,"138.csv","","null","resources/images/coin2.png","null","",NA,NA,NA,NA,""
"image-keyboard-response",584,633267,"0.0-3.191-0.191","yusb9hc0vdq3ygm",332,"138.csv","","115.10000002384186","resources/trios/L2T4A3.jpg","37","restless",0.6,0.6,0.8,0.653553973640322,"false"
"image-keyboard-response",585,633673,"0.0-3.191-1.191","yusb9hc0vdq3ygm",332,"138.csv","","null","resources/maskTrios/L2BB.jpg","null","",NA,NA,NA,NA,""
"image-keyboard-response",586,634881,"0.0-3.191-2.191","yusb9hc0vdq3ygm",332,"138.csv","","null","resources/images/fishbone.png","null","",NA,NA,NA,NA,""
"image-keyboard-response",587,637120,"0.0-3.192-0.192","yusb9hc0vdq3ygm",332,"138.csv","","2236.899999976158","resources/trios/L2T1A2.jpg","38","restless",0.5,0.6,0.8,0.461733004106768,"true"
"image-keyboard-response",588,637526,"0.0-3.192-1.192","yusb9hc0vdq3ygm",332,"138.csv","","null","resources/maskTrios/BT1B.jpg","null","",NA,NA,NA,NA,""
"image-keyboard-response",589,638729,"0.0-3.192-2.192","yusb9hc0vdq3ygm",332,"138.csv","","null","resources/images/coin2.png","null","",NA,NA,NA,NA,""
"image-keyboard-response",590,643047,"0.0-3.193-0.193","yusb9hc0vdq3ygm",332,"138.csv","","4316","resources/trios/L1T1A2.jpg","38","restless",0.5,0.6,0.8,0.507548043609278,"true"
"image-keyboard-response",591,643452,"0.0-3.193-1.193","yusb9hc0vdq3ygm",332,"138.csv","","null","resources/maskTrios/BT1B.jpg","null","",NA,NA,NA,NA,""
"image-keyboard-response",592,644655,"0.0-3.193-2.193","yusb9hc0vdq3ygm",332,"138.csv","","null","resources/images/coin2.png","null","",NA,NA,NA,NA,""
"image-keyboard-response",593,647080,"0.0-3.194-0.194","yusb9hc0vdq3ygm",332,"138.csv","","2423","resources/trios/L2T4A2.jpg","38","restless",0.5,0.6,0.8,0.773383021125251,"false"
"image-keyboard-response",594,647487,"0.0-3.194-1.194","yusb9hc0vdq3ygm",332,"138.csv","","null","resources/maskTrios/BT4B.jpg","null","",NA,NA,NA,NA,""
"image-keyboard-response",595,648694,"0.0-3.194-2.194","yusb9hc0vdq3ygm",332,"138.csv","","null","resources/images/fishbone.png","null","",NA,NA,NA,NA,""
"image-keyboard-response",596,649221,"0.0-3.195-0.195","yusb9hc0vdq3ygm",332,"138.csv","","524.2000000476837","resources/trios/L2T1A3.jpg","38","restless",0.5,0.6,0.8,0.942471251538416,"false"
"image-keyboard-response",597,649625,"0.0-3.195-1.195","yusb9hc0vdq3ygm",332,"138.csv","","null","resources/maskTrios/BT1B.jpg","null","",NA,NA,NA,NA,""
"image-keyboard-response",598,650830,"0.0-3.195-2.195","yusb9hc0vdq3ygm",332,"138.csv","","null","resources/images/fishbone.png","null","",NA,NA,NA,NA,""
"image-keyboard-response",599,651316,"0.0-3.196-0.196","yusb9hc0vdq3ygm",332,"138.csv","","484.2999999523163","resources/trios/L1T4A3.jpg","37","restless",0.5,0.6,0.8,0.879016646682961,"false"
"image-keyboard-response",600,651720,"0.0-3.196-1.196","yusb9hc0vdq3ygm",332,"138.csv","","null","resources/maskTrios/L1BB.jpg","null","",NA,NA,NA,NA,""
"image-keyboard-response",601,652927,"0.0-3.196-2.196","yusb9hc0vdq3ygm",332,"138.csv","","null","resources/images/fishbone.png","null","",NA,NA,NA,NA,""
"image-keyboard-response",602,653518,"0.0-3.197-0.197","yusb9hc0vdq3ygm",332,"138.csv","","588.7000000476837","resources/trios/L2T1A3.jpg","39","restless",0.5,0.6,0.8,0.590006906805349,"true"
"image-keyboard-response",603,653922,"0.0-3.197-1.197","yusb9hc0vdq3ygm",332,"138.csv","","null","resources/maskTrios/BBA3.jpg","null","",NA,NA,NA,NA,""
"image-keyboard-response",604,655126,"0.0-3.197-2.197","yusb9hc0vdq3ygm",332,"138.csv","","null","resources/images/coin2.png","null","",NA,NA,NA,NA,""
"image-keyboard-response",605,655788,"0.0-3.198-0.198","yusb9hc0vdq3ygm",332,"138.csv","","659","resources/trios/L2T4A2.jpg","39","restless",0.5,0.6,0.8,0.290142820679663,"true"
