"trial_type","trial_index","time_elapsed","internal_node_id","subject","participantCode","walkNumber","success","rt","stimulus","key_press","test_part","leftProb","midProb","rightProb","generatedNum","correct"
"pavlovia",0,1008,"0.0-0.0","l4x14yxdea6ckhd",3,"138.csv","","","","","",NA,NA,NA,NA,""
"fullscreen",1,5152,"0.0-1.0","l4x14yxdea6ckhd",3,"138.csv","true","","","","",NA,NA,NA,NA,""
"html-keyboard-response",2,29137,"0.0-2.0-0.0","l4x14yxdea6ckhd",3,"138.csv","","23982.69999998808","<p><font size='6'>Arrrgh!</p></font><p>Can you be the best pirate? Try to find lots of gold! But beware, some islands have more gold than others, and over time, the island with the most gold may change. Can YOU figure it out? </p><font size='6'>GOOD LUCK, CAPTAIN!!!</font><p>Press any key to begin</p>","32","",NA,NA,NA,NA,""
"image-keyboard-response",3,32141,"0.0-2.0-1.0","l4x14yxdea6ckhd",3,"138.csv","","null","resources/image_sets/111.png","null","",NA,NA,NA,NA,""
"image-keyboard-response",4,37344,"0.0-2.0-2.0","l4x14yxdea6ckhd",3,"138.csv","","5202.4000000059605","resources/image_sets/left_highlight.png","37","",NA,NA,NA,NA,""
"image-keyboard-response",5,49740,"0.0-2.0-3.0","l4x14yxdea6ckhd",3,"138.csv","","12393.300000011921","resources/image_sets/mid_highlight.png","38","",NA,NA,NA,NA,""
"image-keyboard-response",6,56020,"0.0-2.0-4.0","l4x14yxdea6ckhd",3,"138.csv","","6279","resources/image_sets/right_highlight.png","39","",NA,NA,NA,NA,""
"image-keyboard-response",7,59565,"0.0-2.0-5.0","l4x14yxdea6ckhd",3,"138.csv","","3543.2000000029802","resources/image_sets/111.png","13","",NA,NA,NA,NA,""
"image-keyboard-response",8,62097,"0.0-2.0-6.0","l4x14yxdea6ckhd",3,"138.csv","","2530.7999999970198","resources/images/coin2.png","13","",NA,NA,NA,NA,""
"image-keyboard-response",9,64339,"0.0-2.0-7.0","l4x14yxdea6ckhd",3,"138.csv","","2240.4000000059605","resources/images/fishbone.png","13","",NA,NA,NA,NA,""
"html-keyboard-response",10,67402,"0.0-2.0-8.0","l4x14yxdea6ckhd",3,"138.csv","","3062","<p>Your first journey will be a long one, but you will get a well deserved break at the end</p><p>After the break you will have four more journeys, but each will be much shorter than the first, and you will have breaks in between each</p><p>Press Enter to begin</p>","13","",NA,NA,NA,NA,""
"image-keyboard-response",11,72091,"0.0-3.0-0.0","l4x14yxdea6ckhd",3,"138.csv","","4687","resources/trios/L1T1A3.jpg","38","restless",0.7,0.9,0.3,0.665893346652845,"true"
"image-keyboard-response",12,72499,"0.0-3.0-1.0","l4x14yxdea6ckhd",3,"138.csv","","null","resources/maskTrios/BT1B.jpg","null","",NA,NA,NA,NA,""
"image-keyboard-response",13,73704,"0.0-3.0-2.0","l4x14yxdea6ckhd",3,"138.csv","","null","resources/images/coin2.png","null","",NA,NA,NA,NA,""
"image-keyboard-response",14,79475,"0.0-3.1-0.1","l4x14yxdea6ckhd",3,"138.csv","","5767.5999999940395","resources/trios/L1T4A2.jpg","37","restless",0.7,0.9,0.2,0.579985746656665,"true"
"image-keyboard-response",15,79877,"0.0-3.1-1.1","l4x14yxdea6ckhd",3,"138.csv","","null","resources/maskTrios/L1BB.jpg","null","",NA,NA,NA,NA,""
"image-keyboard-response",16,81082,"0.0-3.1-2.1","l4x14yxdea6ckhd",3,"138.csv","","null","resources/images/coin2.png","null","",NA,NA,NA,NA,""
"image-keyboard-response",17,84697,"0.0-3.2-0.2","l4x14yxdea6ckhd",3,"138.csv","","3612.5","resources/trios/L1T4A2.jpg","37","restless",0.7,0.9,0.2,0.878348148145018,"false"
"image-keyboard-response",18,85102,"0.0-3.2-1.2","l4x14yxdea6ckhd",3,"138.csv","","null","resources/maskTrios/L1BB.jpg","null","",NA,NA,NA,NA,""
"image-keyboard-response",19,86308,"0.0-3.2-2.2","l4x14yxdea6ckhd",3,"138.csv","","null","resources/images/fishbone.png","null","",NA,NA,NA,NA,""
"image-keyboard-response",20,92680,"0.0-3.3-0.3","l4x14yxdea6ckhd",3,"138.csv","","6369.79999999702","resources/trios/L4T4A3.jpg","39","restless",0.6,0.9,0.1,0.0382339290616791,"true"
"image-keyboard-response",21,93083,"0.0-3.3-1.3","l4x14yxdea6ckhd",3,"138.csv","","null","resources/maskTrios/BBA3.jpg","null","",NA,NA,NA,NA,""
"image-keyboard-response",22,94289,"0.0-3.3-2.3","l4x14yxdea6ckhd",3,"138.csv","","null","resources/images/coin2.png","null","",NA,NA,NA,NA,""
"image-keyboard-response",23,97874,"0.0-3.4-0.4","l4x14yxdea6ckhd",3,"138.csv","","3582.9000000059605","resources/trios/L4T1A3.jpg","38","restless",0.6,0.9,0.1,0.762986191635099,"true"
"image-keyboard-response",24,98278,"0.0-3.4-1.4","l4x14yxdea6ckhd",3,"138.csv","","null","resources/maskTrios/BT1B.jpg","null","",NA,NA,NA,NA,""
"image-keyboard-response",25,99481,"0.0-3.4-2.4","l4x14yxdea6ckhd",3,"138.csv","","null","resources/images/coin2.png","null","",NA,NA,NA,NA,""
"image-keyboard-response",26,106991,"0.0-3.5-0.5","l4x14yxdea6ckhd",3,"138.csv","","7507.899999991059","resources/trios/L1T1A2.jpg","37","restless",0.6,0.8,0.1,0.0777654341960345,"true"
"image-keyboard-response",27,107397,"0.0-3.5-1.5","l4x14yxdea6ckhd",3,"138.csv","","null","resources/maskTrios/L1BB.jpg","null","",NA,NA,NA,NA,""
"image-keyboard-response",28,108604,"0.0-3.5-2.5","l4x14yxdea6ckhd",3,"138.csv","","null","resources/images/coin2.png","null","",NA,NA,NA,NA,""
"image-keyboard-response",29,112646,"0.0-3.6-0.6","l4x14yxdea6ckhd",3,"138.csv","","4041.1000000089407","resources/trios/L1T4A3.jpg","38","restless",0.6,0.7,0.1,0.348490871354857,"true"
"image-keyboard-response",30,113053,"0.0-3.6-1.6","l4x14yxdea6ckhd",3,"138.csv","","null","resources/maskTrios/BT4B.jpg","null","",NA,NA,NA,NA,""
"image-keyboard-response",31,114260,"0.0-3.6-2.6","l4x14yxdea6ckhd",3,"138.csv","","null","resources/images/coin2.png","null","",NA,NA,NA,NA,""
"image-keyboard-response",32,118837,"0.0-3.7-0.7","l4x14yxdea6ckhd",3,"138.csv","","4575.899999991059","resources/trios/L1T1A3.jpg","38","restless",0.6,0.7,0.1,0.239024428428505,"true"
"image-keyboard-response",33,119240,"0.0-3.7-1.7","l4x14yxdea6ckhd",3,"138.csv","","null","resources/maskTrios/BT1B.jpg","null","",NA,NA,NA,NA,""
"image-keyboard-response",34,120446,"0.0-3.7-2.7","l4x14yxdea6ckhd",3,"138.csv","","null","resources/images/coin2.png","null","",NA,NA,NA,NA,""
"image-keyboard-response",35,126959,"0.0-3.8-0.8","l4x14yxdea6ckhd",3,"138.csv","","6511.4000000059605","resources/trios/L4T4A3.jpg","39","restless",0.6,0.7,0.1,0.547944570325468,"false"
"image-keyboard-response",36,127363,"0.0-3.8-1.8","l4x14yxdea6ckhd",3,"138.csv","","null","resources/maskTrios/BBA3.jpg","null","",NA,NA,NA,NA,""
"image-keyboard-response",37,128569,"0.0-3.8-2.8","l4x14yxdea6ckhd",3,"138.csv","","null","resources/images/fishbone.png","null","",NA,NA,NA,NA,""
"image-keyboard-response",38,135017,"0.0-3.9-0.9","l4x14yxdea6ckhd",3,"138.csv","","6447","resources/trios/L4T4A3.jpg","38","restless",0.7,0.7,0.1,0.297074711426073,"true"
"image-keyboard-response",39,135420,"0.0-3.9-1.9","l4x14yxdea6ckhd",3,"138.csv","","null","resources/maskTrios/BT4B.jpg","null","",NA,NA,NA,NA,""
"image-keyboard-response",40,136624,"0.0-3.9-2.9","l4x14yxdea6ckhd",3,"138.csv","","null","resources/images/coin2.png","null","",NA,NA,NA,NA,""
"image-keyboard-response",41,138479,"0.0-3.10-0.10","l4x14yxdea6ckhd",3,"138.csv","","1853.199999988079","resources/trios/L4T4A3.jpg","38","restless",0.7,0.7,0.1,0.962754744164687,"false"
"image-keyboard-response",42,138882,"0.0-3.10-1.10","l4x14yxdea6ckhd",3,"138.csv","","null","resources/maskTrios/BT4B.jpg","null","",NA,NA,NA,NA,""
"image-keyboard-response",43,140088,"0.0-3.10-2.10","l4x14yxdea6ckhd",3,"138.csv","","null","resources/images/fishbone.png","null","",NA,NA,NA,NA,""
"image-keyboard-response",44,141045,"0.0-3.11-0.11","l4x14yxdea6ckhd",3,"138.csv","","954.7000000029802","resources/trios/L1T1A3.jpg","38","restless",0.7,0.8,0.1,0.192077830174314,"true"
"image-keyboard-response",45,141450,"0.0-3.11-1.11","l4x14yxdea6ckhd",3,"138.csv","","null","resources/maskTrios/BT1B.jpg","null","",NA,NA,NA,NA,""
"image-keyboard-response",46,142656,"0.0-3.11-2.11","l4x14yxdea6ckhd",3,"138.csv","","null","resources/images/coin2.png","null","",NA,NA,NA,NA,""
"image-keyboard-response",47,144212,"0.0-3.12-0.12","l4x14yxdea6ckhd",3,"138.csv","","1553.8999999910593","resources/trios/L4T1A3.jpg","37","restless",0.7,0.8,0.1,0.39080984554483,"true"
"image-keyboard-response",48,144617,"0.0-3.12-1.12","l4x14yxdea6ckhd",3,"138.csv","","null","resources/maskTrios/L4BB.jpg","null","",NA,NA,NA,NA,""
"image-keyboard-response",49,145824,"0.0-3.12-2.12","l4x14yxdea6ckhd",3,"138.csv","","null","resources/images/coin2.png","null","",NA,NA,NA,NA,""
"image-keyboard-response",50,147433,"0.0-3.13-0.13","l4x14yxdea6ckhd",3,"138.csv","","1607.5","resources/trios/L4T4A3.jpg","37","restless",0.8,0.8,0.1,0.827429669529453,"false"
"image-keyboard-response",51,147838,"0.0-3.13-1.13","l4x14yxdea6ckhd",3,"138.csv","","null","resources/maskTrios/L4BB.jpg","null","",NA,NA,NA,NA,""
"image-keyboard-response",52,149044,"0.0-3.13-2.13","l4x14yxdea6ckhd",3,"138.csv","","null","resources/images/fishbone.png","null","",NA,NA,NA,NA,""
"image-keyboard-response",53,151162,"0.0-3.14-0.14","l4x14yxdea6ckhd",3,"138.csv","","2115.699999988079","resources/trios/L4T4A3.jpg","38","restless",0.8,0.8,0.1,0.935014804486276,"false"
"image-keyboard-response",54,151566,"0.0-3.14-1.14","l4x14yxdea6ckhd",3,"138.csv","","null","resources/maskTrios/BT4B.jpg","null","",NA,NA,NA,NA,""
"image-keyboard-response",55,152769,"0.0-3.14-2.14","l4x14yxdea6ckhd",3,"138.csv","","null","resources/images/fishbone.png","null","",NA,NA,NA,NA,""
"image-keyboard-response",56,153620,"0.0-3.15-0.15","l4x14yxdea6ckhd",3,"138.csv","","849.5999999940395","resources/trios/L4T4A3.jpg","39","restless",0.8,0.8,0.1,0.130229992993595,"false"
"image-keyboard-response",57,154024,"0.0-3.15-1.15","l4x14yxdea6ckhd",3,"138.csv","","null","resources/maskTrios/BBA3.jpg","null","",NA,NA,NA,NA,""
"image-keyboard-response",58,155227,"0.0-3.15-2.15","l4x14yxdea6ckhd",3,"138.csv","","null","resources/images/fishbone.png","null","",NA,NA,NA,NA,""
"image-keyboard-response",59,156260,"0.0-3.16-0.16","l4x14yxdea6ckhd",3,"138.csv","","1031.5","resources/trios/L4T4A2.jpg","38","restless",0.8,0.8,0.1,0.700541875687649,"true"
"image-keyboard-response",60,156665,"0.0-3.16-1.16","l4x14yxdea6ckhd",3,"138.csv","","null","resources/maskTrios/BT4B.jpg","null","",NA,NA,NA,NA,""
"image-keyboard-response",61,157870,"0.0-3.16-2.16","l4x14yxdea6ckhd",3,"138.csv","","null","resources/images/coin2.png","null","",NA,NA,NA,NA,""
"image-keyboard-response",62,159970,"0.0-3.17-0.17","l4x14yxdea6ckhd",3,"138.csv","","2097.699999988079","resources/trios/L1T4A3.jpg","39","restless",0.8,0.8,0.1,0.369631157225941,"false"
"image-keyboard-response",63,160373,"0.0-3.17-1.17","l4x14yxdea6ckhd",3,"138.csv","","null","resources/maskTrios/BBA3.jpg","null","",NA,NA,NA,NA,""
"image-keyboard-response",64,161579,"0.0-3.17-2.17","l4x14yxdea6ckhd",3,"138.csv","","null","resources/images/fishbone.png","null","",NA,NA,NA,NA,""
"image-keyboard-response",65,162888,"0.0-3.18-0.18","l4x14yxdea6ckhd",3,"138.csv","","1307.3999999910593","resources/trios/L1T1A2.jpg","39","restless",0.7,0.8,0.1,0.499543588267581,"false"
"image-keyboard-response",66,163295,"0.0-3.18-1.18","l4x14yxdea6ckhd",3,"138.csv","","null","resources/maskTrios/BBA2.jpg","null","",NA,NA,NA,NA,""
"image-keyboard-response",67,164499,"0.0-3.18-2.18","l4x14yxdea6ckhd",3,"138.csv","","null","resources/images/fishbone.png","null","",NA,NA,NA,NA,""
"image-keyboard-response",68,165269,"0.0-3.19-0.19","l4x14yxdea6ckhd",3,"138.csv","","768.3999999910593","resources/trios/L4T1A2.jpg","38","restless",0.7,0.7,0.1,0.154177622506993,"true"
"image-keyboard-response",69,165675,"0.0-3.19-1.19","l4x14yxdea6ckhd",3,"138.csv","","null","resources/maskTrios/BT1B.jpg","null","",NA,NA,NA,NA,""
"image-keyboard-response",70,166879,"0.0-3.19-2.19","l4x14yxdea6ckhd",3,"138.csv","","null","resources/images/coin2.png","null","",NA,NA,NA,NA,""
"image-keyboard-response",71,167189,"0.0-3.20-0.20","l4x14yxdea6ckhd",3,"138.csv","","307.90000000596046","resources/trios/L1T4A2.jpg","37","restless",0.7,0.7,0.1,0.237926623245642,"true"
"image-keyboard-response",72,167592,"0.0-3.20-1.20","l4x14yxdea6ckhd",3,"138.csv","","null","resources/maskTrios/L1BB.jpg","null","",NA,NA,NA,NA,""
"image-keyboard-response",73,168794,"0.0-3.20-2.20","l4x14yxdea6ckhd",3,"138.csv","","null","resources/images/coin2.png","null","",NA,NA,NA,NA,""
"image-keyboard-response",74,169301,"0.0-3.21-0.21","l4x14yxdea6ckhd",3,"138.csv","","504.30000001192093","resources/trios/L1T4A2.jpg","38","restless",0.7,0.6,0.1,0.699274981123334,"false"
"image-keyboard-response",75,169705,"0.0-3.21-1.21","l4x14yxdea6ckhd",3,"138.csv","","null","resources/maskTrios/BT4B.jpg","null","",NA,NA,NA,NA,""
"image-keyboard-response",76,170910,"0.0-3.21-2.21","l4x14yxdea6ckhd",3,"138.csv","","null","resources/images/fishbone.png","null","",NA,NA,NA,NA,""
"image-keyboard-response",77,171451,"0.0-3.22-0.22","l4x14yxdea6ckhd",3,"138.csv","","539.4000000059605","resources/trios/L1T1A2.jpg","37","restless",0.7,0.6,0.2,0.0854921109485429,"true"
"image-keyboard-response",78,171855,"0.0-3.22-1.22","l4x14yxdea6ckhd",3,"138.csv","","null","resources/maskTrios/L1BB.jpg","null","",NA,NA,NA,NA,""
"image-keyboard-response",79,173061,"0.0-3.22-2.22","l4x14yxdea6ckhd",3,"138.csv","","null","resources/images/coin2.png","null","",NA,NA,NA,NA,""
"image-keyboard-response",80,173820,"0.0-3.23-0.23","l4x14yxdea6ckhd",3,"138.csv","","757.2999999970198","resources/trios/L1T1A2.jpg","38","restless",0.7,0.6,0.2,0.226173433121611,"true"
"image-keyboard-response",81,174226,"0.0-3.23-1.23","l4x14yxdea6ckhd",3,"138.csv","","null","resources/maskTrios/BT1B.jpg","null","",NA,NA,NA,NA,""
"image-keyboard-response",82,175429,"0.0-3.23-2.23","l4x14yxdea6ckhd",3,"138.csv","","null","resources/images/coin2.png","null","",NA,NA,NA,NA,""
"image-keyboard-response",83,176086,"0.0-3.24-0.24","l4x14yxdea6ckhd",3,"138.csv","","655.5","resources/trios/L4T4A3.jpg","39","restless",0.7,0.6,0.2,0.00797851527770588,"true"
"image-keyboard-response",84,176492,"0.0-3.24-1.24","l4x14yxdea6ckhd",3,"138.csv","","null","resources/maskTrios/BBA3.jpg","null","",NA,NA,NA,NA,""
"image-keyboard-response",85,177695,"0.0-3.24-2.24","l4x14yxdea6ckhd",3,"138.csv","","null","resources/images/coin2.png","null","",NA,NA,NA,NA,""
"image-keyboard-response",86,186715,"0.0-3.25-0.25","l4x14yxdea6ckhd",3,"138.csv","","9018.59999999404","resources/trios/L4T4A2.jpg","37","restless",0.7,0.6,0.2,0.557672762405852,"true"
"image-keyboard-response",87,187121,"0.0-3.25-1.25","l4x14yxdea6ckhd",3,"138.csv","","null","resources/maskTrios/L4BB.jpg","null","",NA,NA,NA,NA,""
"image-keyboard-response",88,188327,"0.0-3.25-2.25","l4x14yxdea6ckhd",3,"138.csv","","null","resources/images/coin2.png","null","",NA,NA,NA,NA,""
"image-keyboard-response",89,188893,"0.0-3.26-0.26","l4x14yxdea6ckhd",3,"138.csv","","563.7999999970198","resources/trios/L1T1A2.jpg","38","restless",0.7,0.6,0.2,0.0695751788446635,"true"
"image-keyboard-response",90,189295,"0.0-3.26-1.26","l4x14yxdea6ckhd",3,"138.csv","","null","resources/maskTrios/BT1B.jpg","null","",NA,NA,NA,NA,""
"image-keyboard-response",91,190499,"0.0-3.26-2.26","l4x14yxdea6ckhd",3,"138.csv","","null","resources/images/coin2.png","null","",NA,NA,NA,NA,""
"image-keyboard-response",92,194646,"0.0-3.27-0.27","l4x14yxdea6ckhd",3,"138.csv","","4145.20000000298","resources/trios/L1T1A2.jpg","39","restless",0.7,0.6,0.2,0.966790267219789,"false"
"image-keyboard-response",93,195052,"0.0-3.27-1.27","l4x14yxdea6ckhd",3,"138.csv","","null","resources/maskTrios/BBA2.jpg","null","",NA,NA,NA,NA,""
"image-keyboard-response",94,196258,"0.0-3.27-2.27","l4x14yxdea6ckhd",3,"138.csv","","null","resources/images/fishbone.png","null","",NA,NA,NA,NA,""
"image-keyboard-response",95,198369,"0.0-3.28-0.28","l4x14yxdea6ckhd",3,"138.csv","","2109.2000000029802","resources/trios/L4T1A2.jpg","37","restless",0.7,0.6,0.2,0.966542239312422,"false"
"image-keyboard-response",96,198772,"0.0-3.28-1.28","l4x14yxdea6ckhd",3,"138.csv","","null","resources/maskTrios/L4BB.jpg","null","",NA,NA,NA,NA,""
"image-keyboard-response",97,199977,"0.0-3.28-2.28","l4x14yxdea6ckhd",3,"138.csv","","null","resources/images/fishbone.png","null","",NA,NA,NA,NA,""
"image-keyboard-response",98,200417,"0.0-3.29-0.29","l4x14yxdea6ckhd",3,"138.csv","","438.79999999701977","resources/trios/L4T4A2.jpg","38","restless",0.6,0.6,0.2,0.888523069691429,"false"
"image-keyboard-response",99,200821,"0.0-3.29-1.29","l4x14yxdea6ckhd",3,"138.csv","","null","resources/maskTrios/BT4B.jpg","null","",NA,NA,NA,NA,""
"image-keyboard-response",100,202028,"0.0-3.29-2.29","l4x14yxdea6ckhd",3,"138.csv","","null","resources/images/fishbone.png","null","",NA,NA,NA,NA,""
"image-keyboard-response",101,203638,"0.0-3.30-0.30","l4x14yxdea6ckhd",3,"138.csv","","1608.2000000029802","resources/trios/L1T4A3.jpg","38","restless",0.6,0.6,0.2,0.245552272478404,"true"
"image-keyboard-response",102,204040,"0.0-3.30-1.30","l4x14yxdea6ckhd",3,"138.csv","","null","resources/maskTrios/BT4B.jpg","null","",NA,NA,NA,NA,""
"image-keyboard-response",103,205242,"0.0-3.30-2.30","l4x14yxdea6ckhd",3,"138.csv","","null","resources/images/coin2.png","null","",NA,NA,NA,NA,""
"image-keyboard-response",104,205553,"0.0-3.31-0.31","l4x14yxdea6ckhd",3,"138.csv","","308.6000000089407","resources/trios/L1T1A2.jpg","37","restless",0.6,0.5,0.2,0.118331824027508,"true"
"image-keyboard-response",105,205957,"0.0-3.31-1.31","l4x14yxdea6ckhd",3,"138.csv","","null","resources/maskTrios/L1BB.jpg","null","",NA,NA,NA,NA,""
"image-keyboard-response",106,207162,"0.0-3.31-2.31","l4x14yxdea6ckhd",3,"138.csv","","null","resources/images/coin2.png","null","",NA,NA,NA,NA,""
"image-keyboard-response",107,208348,"0.0-3.32-0.32","l4x14yxdea6ckhd",3,"138.csv","","1184.7000000029802","resources/trios/L4T4A3.jpg","37","restless",0.6,0.5,0.2,0.700295349167797,"false"
"image-keyboard-response",108,208750,"0.0-3.32-1.32","l4x14yxdea6ckhd",3,"138.csv","","null","resources/maskTrios/L4BB.jpg","null","",NA,NA,NA,NA,""
"image-keyboard-response",109,209954,"0.0-3.32-2.32","l4x14yxdea6ckhd",3,"138.csv","","null","resources/images/fishbone.png","null","",NA,NA,NA,NA,""
"image-keyboard-response",110,211328,"0.0-3.33-0.33","l4x14yxdea6ckhd",3,"138.csv","","1372.5","resources/trios/L4T1A2.jpg","38","restless",0.6,0.5,0.2,0.382594491378145,"true"
"image-keyboard-response",111,211733,"0.0-3.33-1.33","l4x14yxdea6ckhd",3,"138.csv","","null","resources/maskTrios/BT1B.jpg","null","",NA,NA,NA,NA,""
"image-keyboard-response",112,212939,"0.0-3.33-2.33","l4x14yxdea6ckhd",3,"138.csv","","null","resources/images/coin2.png","null","",NA,NA,NA,NA,""
"image-keyboard-response",113,214248,"0.0-3.34-0.34","l4x14yxdea6ckhd",3,"138.csv","","1307.2000000029802","resources/trios/L1T1A2.jpg","38","restless",0.6,0.5,0.3,0.213716056847817,"true"
"image-keyboard-response",114,214653,"0.0-3.34-1.34","l4x14yxdea6ckhd",3,"138.csv","","null","resources/maskTrios/BT1B.jpg","null","",NA,NA,NA,NA,""
"image-keyboard-response",115,215857,"0.0-3.34-2.34","l4x14yxdea6ckhd",3,"138.csv","","null","resources/images/coin2.png","null","",NA,NA,NA,NA,""
"image-keyboard-response",116,219653,"0.0-3.35-0.35","l4x14yxdea6ckhd",3,"138.csv","","3794.3999999910593","resources/trios/L1T4A3.jpg","37","restless",0.6,0.5,0.3,0.280747106287963,"true"
"image-keyboard-response",117,220058,"0.0-3.35-1.35","l4x14yxdea6ckhd",3,"138.csv","","null","resources/maskTrios/L1BB.jpg","null","",NA,NA,NA,NA,""
"image-keyboard-response",118,221264,"0.0-3.35-2.35","l4x14yxdea6ckhd",3,"138.csv","","null","resources/images/coin2.png","null","",NA,NA,NA,NA,""
"image-keyboard-response",119,226077,"0.0-3.36-0.36","l4x14yxdea6ckhd",3,"138.csv","","4811.600000008941","resources/trios/L4T4A2.jpg","39","restless",0.6,0.5,0.3,0.653693233139907,"false"
"image-keyboard-response",120,226484,"0.0-3.36-1.36","l4x14yxdea6ckhd",3,"138.csv","","null","resources/maskTrios/BBA2.jpg","null","",NA,NA,NA,NA,""
"image-keyboard-response",121,227689,"0.0-3.36-2.36","l4x14yxdea6ckhd",3,"138.csv","","null","resources/images/fishbone.png","null","",NA,NA,NA,NA,""
"image-keyboard-response",122,230105,"0.0-3.37-0.37","l4x14yxdea6ckhd",3,"138.csv","","2414.6000000089407","resources/trios/L4T1A2.jpg","37","restless",0.6,0.5,0.3,0.787393155142156,"false"
"image-keyboard-response",123,230510,"0.0-3.37-1.37","l4x14yxdea6ckhd",3,"138.csv","","null","resources/maskTrios/L4BB.jpg","null","",NA,NA,NA,NA,""
"image-keyboard-response",124,231715,"0.0-3.37-2.37","l4x14yxdea6ckhd",3,"138.csv","","null","resources/images/fishbone.png","null","",NA,NA,NA,NA,""
"image-keyboard-response",125,232760,"0.0-3.38-0.38","l4x14yxdea6ckhd",3,"138.csv","","1043.699999988079","resources/trios/L1T4A3.jpg","37","restless",0.6,0.5,0.3,0.103515249108097,"true"
"image-keyboard-response",126,233165,"0.0-3.38-1.38","l4x14yxdea6ckhd",3,"138.csv","","null","resources/maskTrios/L1BB.jpg","null","",NA,NA,NA,NA,""
"image-keyboard-response",127,234371,"0.0-3.38-2.38","l4x14yxdea6ckhd",3,"138.csv","","null","resources/images/coin2.png","null","",NA,NA,NA,NA,""
"image-keyboard-response",128,235691,"0.0-3.39-0.39","l4x14yxdea6ckhd",3,"138.csv","","1318.5999999940395","resources/trios/L4T1A3.jpg","38","restless",0.6,0.5,0.3,0.986564780154343,"false"
"image-keyboard-response",129,236096,"0.0-3.39-1.39","l4x14yxdea6ckhd",3,"138.csv","","null","resources/maskTrios/BT1B.jpg","null","",NA,NA,NA,NA,""
"image-keyboard-response",130,237298,"0.0-3.39-2.39","l4x14yxdea6ckhd",3,"138.csv","","null","resources/images/fishbone.png","null","",NA,NA,NA,NA,""
"image-keyboard-response",131,238438,"0.0-3.40-0.40","l4x14yxdea6ckhd",3,"138.csv","","1138.6000000089407","resources/trios/L4T1A3.jpg","38","restless",0.6,0.5,0.3,0.294819280720481,"true"
"image-keyboard-response",132,238842,"0.0-3.40-1.40","l4x14yxdea6ckhd",3,"138.csv","","null","resources/maskTrios/BT1B.jpg","null","",NA,NA,NA,NA,""
"image-keyboard-response",133,240049,"0.0-3.40-2.40","l4x14yxdea6ckhd",3,"138.csv","","null","resources/images/coin2.png","null","",NA,NA,NA,NA,""
"image-keyboard-response",134,242741,"0.0-3.41-0.41","l4x14yxdea6ckhd",3,"138.csv","","2690","resources/trios/L1T4A3.jpg","37","restless",0.6,0.5,0.3,0.584204537721358,"true"
"image-keyboard-response",135,243145,"0.0-3.41-1.41","l4x14yxdea6ckhd",3,"138.csv","","null","resources/maskTrios/L1BB.jpg","null","",NA,NA,NA,NA,""
"image-keyboard-response",136,244350,"0.0-3.41-2.41","l4x14yxdea6ckhd",3,"138.csv","","null","resources/images/coin2.png","null","",NA,NA,NA,NA,""
"image-keyboard-response",137,246720,"0.0-3.42-0.42","l4x14yxdea6ckhd",3,"138.csv","","2368.3999999910593","resources/trios/L4T4A3.jpg","39","restless",0.6,0.5,0.3,0.460725597121357,"false"
"image-keyboard-response",138,247123,"0.0-3.42-1.42","l4x14yxdea6ckhd",3,"138.csv","","null","resources/maskTrios/BBA3.jpg","null","",NA,NA,NA,NA,""
"image-keyboard-response",139,248328,"0.0-3.42-2.42","l4x14yxdea6ckhd",3,"138.csv","","null","resources/images/fishbone.png","null","",NA,NA,NA,NA,""
"image-keyboard-response",140,250026,"0.0-3.43-0.43","l4x14yxdea6ckhd",3,"138.csv","","1695.5","resources/trios/L1T1A2.jpg","38","restless",0.6,0.5,0.3,0.151063817683592,"true"
"image-keyboard-response",141,250430,"0.0-3.43-1.43","l4x14yxdea6ckhd",3,"138.csv","","null","resources/maskTrios/BT1B.jpg","null","",NA,NA,NA,NA,""
"image-keyboard-response",142,251635,"0.0-3.43-2.43","l4x14yxdea6ckhd",3,"138.csv","","null","resources/images/coin2.png","null","",NA,NA,NA,NA,""
"image-keyboard-response",143,252881,"0.0-3.44-0.44","l4x14yxdea6ckhd",3,"138.csv","","1244.300000011921","resources/trios/L1T1A3.jpg","38","restless",0.6,0.5,0.3,0.64534041885954,"false"
"image-keyboard-response",144,253286,"0.0-3.44-1.44","l4x14yxdea6ckhd",3,"138.csv","","null","resources/maskTrios/BT1B.jpg","null","",NA,NA,NA,NA,""
"image-keyboard-response",145,254492,"0.0-3.44-2.44","l4x14yxdea6ckhd",3,"138.csv","","null","resources/images/fishbone.png","null","",NA,NA,NA,NA,""
"image-keyboard-response",146,260132,"0.0-3.45-0.45","l4x14yxdea6ckhd",3,"138.csv","","5637.9000000059605","resources/trios/L4T4A2.jpg","38","restless",0.5,0.5,0.3,0.211704869012169,"true"
"image-keyboard-response",147,260538,"0.0-3.45-1.45","l4x14yxdea6ckhd",3,"138.csv","","null","resources/maskTrios/BT4B.jpg","null","",NA,NA,NA,NA,""
"image-keyboard-response",148,261743,"0.0-3.45-2.45","l4x14yxdea6ckhd",3,"138.csv","","null","resources/images/coin2.png","null","",NA,NA,NA,NA,""
"image-keyboard-response",149,262898,"0.0-3.46-0.46","l4x14yxdea6ckhd",3,"138.csv","","1152.7000000029802","resources/trios/L4T1A2.jpg","38","restless",0.5,0.5,0.3,0.170953738164542,"true"
"image-keyboard-response",150,263301,"0.0-3.46-1.46","l4x14yxdea6ckhd",3,"138.csv","","null","resources/maskTrios/BT1B.jpg","null","",NA,NA,NA,NA,""
"image-keyboard-response",151,264507,"0.0-3.46-2.46","l4x14yxdea6ckhd",3,"138.csv","","null","resources/images/coin2.png","null","",NA,NA,NA,NA,""
"image-keyboard-response",152,277799,"0.0-3.47-0.47","l4x14yxdea6ckhd",3,"138.csv","","13290.20000000298","resources/trios/L1T4A2.jpg","38","restless",0.5,0.5,0.3,0.00828148129914941,"true"
"image-keyboard-response",153,278204,"0.0-3.47-1.47","l4x14yxdea6ckhd",3,"138.csv","","null","resources/maskTrios/BT4B.jpg","null","",NA,NA,NA,NA,""
"image-keyboard-response",154,279410,"0.0-3.47-2.47","l4x14yxdea6ckhd",3,"138.csv","","null","resources/images/coin2.png","null","",NA,NA,NA,NA,""
"image-keyboard-response",155,314007,"0.0-3.48-0.48","l4x14yxdea6ckhd",3,"138.csv","","34594.79999999702","resources/trios/L4T1A2.jpg","38","restless",0.5,0.5,0.3,0.398767659548353,"true"
"image-keyboard-response",156,314413,"0.0-3.48-1.48","l4x14yxdea6ckhd",3,"138.csv","","null","resources/maskTrios/BT1B.jpg","null","",NA,NA,NA,NA,""
"image-keyboard-response",157,315616,"0.0-3.48-2.48","l4x14yxdea6ckhd",3,"138.csv","","null","resources/images/coin2.png","null","",NA,NA,NA,NA,""
"image-keyboard-response",158,355778,"0.0-3.49-0.49","l4x14yxdea6ckhd",3,"138.csv","","40160.20000000298","resources/trios/L4T1A2.jpg","38","restless",0.5,0.5,0.3,0.3732214894987,"true"
"image-keyboard-response",159,356183,"0.0-3.49-1.49","l4x14yxdea6ckhd",3,"138.csv","","null","resources/maskTrios/BT1B.jpg","null","",NA,NA,NA,NA,""
"image-keyboard-response",160,357387,"0.0-3.49-2.49","l4x14yxdea6ckhd",3,"138.csv","","null","resources/images/coin2.png","null","",NA,NA,NA,NA,""
"image-keyboard-response",161,399589,"0.0-3.50-0.50","l4x14yxdea6ckhd",3,"138.csv","","42199.79999999702","resources/trios/L4T1A3.jpg","39","restless",0.5,0.5,0.3,0.711551454122485,"false"
"image-keyboard-response",162,399992,"0.0-3.50-1.50","l4x14yxdea6ckhd",3,"138.csv","","null","resources/maskTrios/BBA3.jpg","null","",NA,NA,NA,NA,""
"image-keyboard-response",163,401196,"0.0-3.50-2.50","l4x14yxdea6ckhd",3,"138.csv","","null","resources/images/fishbone.png","null","",NA,NA,NA,NA,""
"image-keyboard-response",164,408348,"0.0-3.51-0.51","l4x14yxdea6ckhd",3,"138.csv","","7150.100000008941","resources/trios/L4T4A2.jpg","39","restless",0.5,0.4,0.2,0.498591834600114,"false"
"image-keyboard-response",165,408750,"0.0-3.51-1.51","l4x14yxdea6ckhd",3,"138.csv","","null","resources/maskTrios/BBA2.jpg","null","",NA,NA,NA,NA,""
"image-keyboard-response",166,409955,"0.0-3.51-2.51","l4x14yxdea6ckhd",3,"138.csv","","null","resources/images/fishbone.png","null","",NA,NA,NA,NA,""
"image-keyboard-response",167,424356,"0.0-3.52-0.52","l4x14yxdea6ckhd",3,"138.csv","","14398.79999999702","resources/trios/L4T4A2.jpg","37","restless",0.5,0.4,0.2,0.655887179115746,"false"
"image-keyboard-response",168,424762,"0.0-3.52-1.52","l4x14yxdea6ckhd",3,"138.csv","","null","resources/maskTrios/L4BB.jpg","null","",NA,NA,NA,NA,""
"image-keyboard-response",169,425967,"0.0-3.52-2.52","l4x14yxdea6ckhd",3,"138.csv","","null","resources/images/fishbone.png","null","",NA,NA,NA,NA,""
"image-keyboard-response",170,438451,"0.0-3.53-0.53","l4x14yxdea6ckhd",3,"138.csv","","12482.60000000894","resources/trios/L1T4A2.jpg","37","restless",0.4,0.4,0.2,0.553010106113677,"false"
"image-keyboard-response",171,438857,"0.0-3.53-1.53","l4x14yxdea6ckhd",3,"138.csv","","null","resources/maskTrios/L1BB.jpg","null","",NA,NA,NA,NA,""
"image-keyboard-response",172,440059,"0.0-3.53-2.53","l4x14yxdea6ckhd",3,"138.csv","","null","resources/images/fishbone.png","null","",NA,NA,NA,NA,""
"image-keyboard-response",173,457337,"0.0-3.54-0.54","l4x14yxdea6ckhd",3,"138.csv","","17275.70000000298","resources/trios/L4T4A2.jpg","37","restless",0.4,0.4,0.2,0.138777381738244,"true"
"image-keyboard-response",174,457742,"0.0-3.54-1.54","l4x14yxdea6ckhd",3,"138.csv","","null","resources/maskTrios/L4BB.jpg","null","",NA,NA,NA,NA,""
"image-keyboard-response",175,458947,"0.0-3.54-2.54","l4x14yxdea6ckhd",3,"138.csv","","null","resources/images/coin2.png","null","",NA,NA,NA,NA,""
"image-keyboard-response",176,467025,"0.0-3.55-0.55","l4x14yxdea6ckhd",3,"138.csv","","8076.4000000059605","resources/trios/L4T1A3.jpg","38","restless",0.4,0.4,0.2,0.409826581429562,"false"
"image-keyboard-response",177,467432,"0.0-3.55-1.55","l4x14yxdea6ckhd",3,"138.csv","","null","resources/maskTrios/BT1B.jpg","null","",NA,NA,NA,NA,""
"image-keyboard-response",178,468634,"0.0-3.55-2.55","l4x14yxdea6ckhd",3,"138.csv","","null","resources/images/fishbone.png","null","",NA,NA,NA,NA,""
"image-keyboard-response",179,469932,"0.0-3.56-0.56","l4x14yxdea6ckhd",3,"138.csv","","1295.2000000029802","resources/trios/L4T4A2.jpg","38","restless",0.4,0.4,0.2,0.11049185343045,"true"
"image-keyboard-response",180,470335,"0.0-3.56-1.56","l4x14yxdea6ckhd",3,"138.csv","","null","resources/maskTrios/BT4B.jpg","null","",NA,NA,NA,NA,""
"image-keyboard-response",181,471538,"0.0-3.56-2.56","l4x14yxdea6ckhd",3,"138.csv","","null","resources/images/coin2.png","null","",NA,NA,NA,NA,""
"image-keyboard-response",182,493837,"0.0-3.57-0.57","l4x14yxdea6ckhd",3,"138.csv","","22296","resources/trios/L1T4A3.jpg","37","restless",0.4,0.4,0.2,0.742246238176102,"false"
"image-keyboard-response",183,494243,"0.0-3.57-1.57","l4x14yxdea6ckhd",3,"138.csv","","null","resources/maskTrios/L1BB.jpg","null","",NA,NA,NA,NA,""
"image-keyboard-response",184,495448,"0.0-3.57-2.57","l4x14yxdea6ckhd",3,"138.csv","","null","resources/images/fishbone.png","null","",NA,NA,NA,NA,""
"image-keyboard-response",185,496315,"0.0-3.58-0.58","l4x14yxdea6ckhd",3,"138.csv","","864.2999999970198","resources/trios/L4T4A2.jpg","37","restless",0.4,0.4,0.2,0.372765340118735,"true"
"image-keyboard-response",186,496721,"0.0-3.58-1.58","l4x14yxdea6ckhd",3,"138.csv","","null","resources/maskTrios/L4BB.jpg","null","",NA,NA,NA,NA,""
"image-keyboard-response",187,497928,"0.0-3.58-2.58","l4x14yxdea6ckhd",3,"138.csv","","null","resources/images/coin2.png","null","",NA,NA,NA,NA,""
"image-keyboard-response",188,504858,"0.0-3.59-0.59","l4x14yxdea6ckhd",3,"138.csv","","6928.20000000298","resources/trios/L1T1A2.jpg","38","restless",0.4,0.4,0.2,0.463313502498005,"false"
"image-keyboard-response",189,505262,"0.0-3.59-1.59","l4x14yxdea6ckhd",3,"138.csv","","null","resources/maskTrios/BT1B.jpg","null","",NA,NA,NA,NA,""
"image-keyboard-response",190,506465,"0.0-3.59-2.59","l4x14yxdea6ckhd",3,"138.csv","","null","resources/images/fishbone.png","null","",NA,NA,NA,NA,""
"image-keyboard-response",191,507162,"0.0-3.60-0.60","l4x14yxdea6ckhd",3,"138.csv","","695.2000000029802","resources/trios/L4T4A2.jpg","38","restless",0.4,0.4,0.2,0.860630642666464,"false"
"image-keyboard-response",192,507565,"0.0-3.60-1.60","l4x14yxdea6ckhd",3,"138.csv","","null","resources/maskTrios/BT4B.jpg","null","",NA,NA,NA,NA,""
"image-keyboard-response",193,508771,"0.0-3.60-2.60","l4x14yxdea6ckhd",3,"138.csv","","null","resources/images/fishbone.png","null","",NA,NA,NA,NA,""
"image-keyboard-response",194,510801,"0.0-3.61-0.61","l4x14yxdea6ckhd",3,"138.csv","","2028.2999999970198","resources/trios/L1T4A2.jpg","39","restless",0.4,0.4,0.2,0.829933308475622,"false"
"image-keyboard-response",195,511205,"0.0-3.61-1.61","l4x14yxdea6ckhd",3,"138.csv","","null","resources/maskTrios/BBA2.jpg","null","",NA,NA,NA,NA,""
"image-keyboard-response",196,512410,"0.0-3.61-2.61","l4x14yxdea6ckhd",3,"138.csv","","null","resources/images/fishbone.png","null","",NA,NA,NA,NA,""
"image-keyboard-response",197,514356,"0.0-3.62-0.62","l4x14yxdea6ckhd",3,"138.csv","","1944","resources/trios/L4T4A2.jpg","37","restless",0.4,0.4,0.2,0.298292420229614,"true"
"image-keyboard-response",198,514761,"0.0-3.62-1.62","l4x14yxdea6ckhd",3,"138.csv","","null","resources/maskTrios/L4BB.jpg","null","",NA,NA,NA,NA,""
"image-keyboard-response",199,515965,"0.0-3.62-2.62","l4x14yxdea6ckhd",3,"138.csv","","null","resources/images/coin2.png","null","",NA,NA,NA,NA,""
"image-keyboard-response",200,524203,"0.0-3.63-0.63","l4x14yxdea6ckhd",3,"138.csv","","8236.20000000298","resources/trios/L4T4A3.jpg","38","restless",0.4,0.4,0.2,0.987372304813512,"false"
"image-keyboard-response",201,524608,"0.0-3.63-1.63","l4x14yxdea6ckhd",3,"138.csv","","null","resources/maskTrios/BT4B.jpg","null","",NA,NA,NA,NA,""
"image-keyboard-response",202,525811,"0.0-3.63-2.63","l4x14yxdea6ckhd",3,"138.csv","","null","resources/images/fishbone.png","null","",NA,NA,NA,NA,""
"image-keyboard-response",203,527195,"0.0-3.64-0.64","l4x14yxdea6ckhd",3,"138.csv","","1381.6000000089407","resources/trios/L4T4A2.jpg","38","restless",0.4,0.5,0.1,0.908201302831414,"false"
"image-keyboard-response",204,527601,"0.0-3.64-1.64","l4x14yxdea6ckhd",3,"138.csv","","null","resources/maskTrios/BT4B.jpg","null","",NA,NA,NA,NA,""
"image-keyboard-response",205,528804,"0.0-3.64-2.64","l4x14yxdea6ckhd",3,"138.csv","","null","resources/images/fishbone.png","null","",NA,NA,NA,NA,""
"image-keyboard-response",206,530723,"0.0-3.65-0.65","l4x14yxdea6ckhd",3,"138.csv","","1917.3999999910593","resources/trios/L1T4A2.jpg","37","restless",0.4,0.4,0.1,0.0277172062778845,"true"
"image-keyboard-response",207,531125,"0.0-3.65-1.65","l4x14yxdea6ckhd",3,"138.csv","","null","resources/maskTrios/L1BB.jpg","null","",NA,NA,NA,NA,""
"image-keyboard-response",208,532327,"0.0-3.65-2.65","l4x14yxdea6ckhd",3,"138.csv","","null","resources/images/coin2.png","null","",NA,NA,NA,NA,""
"image-keyboard-response",209,570737,"0.0-3.66-0.66","l4x14yxdea6ckhd",3,"138.csv","","38407.60000000894","resources/trios/L4T1A3.jpg","38","restless",0.4,0.4,0.2,0.22911738242731,"true"
"image-keyboard-response",210,571143,"0.0-3.66-1.66","l4x14yxdea6ckhd",3,"138.csv","","null","resources/maskTrios/BT1B.jpg","null","",NA,NA,NA,NA,""
"image-keyboard-response",211,572350,"0.0-3.66-2.66","l4x14yxdea6ckhd",3,"138.csv","","null","resources/images/coin2.png","null","",NA,NA,NA,NA,""
"image-keyboard-response",212,573982,"0.0-3.67-0.67","l4x14yxdea6ckhd",3,"138.csv","","1630.6000000089407","resources/trios/L1T4A3.jpg","37","restless",0.4,0.4,0.2,0.357657480290486,"true"
"image-keyboard-response",213,574389,"0.0-3.67-1.67","l4x14yxdea6ckhd",3,"138.csv","","null","resources/maskTrios/L1BB.jpg","null","",NA,NA,NA,NA,""
"image-keyboard-response",214,575594,"0.0-3.67-2.67","l4x14yxdea6ckhd",3,"138.csv","","null","resources/images/coin2.png","null","",NA,NA,NA,NA,""
"image-keyboard-response",215,576976,"0.0-3.68-0.68","l4x14yxdea6ckhd",3,"138.csv","","1380.2999999970198","resources/trios/L4T1A3.jpg","38","restless",0.4,0.4,0.2,0.400504109096899,"false"
"image-keyboard-response",216,577382,"0.0-3.68-1.68","l4x14yxdea6ckhd",3,"138.csv","","null","resources/maskTrios/BT1B.jpg","null","",NA,NA,NA,NA,""
"image-keyboard-response",217,578588,"0.0-3.68-2.68","l4x14yxdea6ckhd",3,"138.csv","","null","resources/images/fishbone.png","null","",NA,NA,NA,NA,""
"image-keyboard-response",218,604271,"0.0-3.69-0.69","l4x14yxdea6ckhd",3,"138.csv","","25680.20000000298","resources/trios/L1T4A3.jpg","38","restless",0.4,0.4,0.2,0.047526059015391,"true"
"image-keyboard-response",219,604676,"0.0-3.69-1.69","l4x14yxdea6ckhd",3,"138.csv","","null","resources/maskTrios/BT4B.jpg","null","",NA,NA,NA,NA,""
"image-keyboard-response",220,605882,"0.0-3.69-2.69","l4x14yxdea6ckhd",3,"138.csv","","null","resources/images/coin2.png","null","",NA,NA,NA,NA,""
"image-keyboard-response",221,608074,"0.0-3.70-0.70","l4x14yxdea6ckhd",3,"138.csv","","2190.7000000029802","resources/trios/L4T1A2.jpg","37","restless",0.4,0.4,0.2,0.836787725906015,"false"
"image-keyboard-response",222,608476,"0.0-3.70-1.70","l4x14yxdea6ckhd",3,"138.csv","","null","resources/maskTrios/L4BB.jpg","null","",NA,NA,NA,NA,""
"image-keyboard-response",223,609682,"0.0-3.70-2.70","l4x14yxdea6ckhd",3,"138.csv","","null","resources/images/fishbone.png","null","",NA,NA,NA,NA,""
"image-keyboard-response",224,621330,"0.0-3.71-0.71","l4x14yxdea6ckhd",3,"138.csv","","11646.29999999702","resources/trios/L1T1A3.jpg","37","restless",0.4,0.4,0.2,0.00953133315966825,"true"
"image-keyboard-response",225,621733,"0.0-3.71-1.71","l4x14yxdea6ckhd",3,"138.csv","","null","resources/maskTrios/L1BB.jpg","null","",NA,NA,NA,NA,""
"image-keyboard-response",226,622938,"0.0-3.71-2.71","l4x14yxdea6ckhd",3,"138.csv","","null","resources/images/coin2.png","null","",NA,NA,NA,NA,""
"image-keyboard-response",227,624471,"0.0-3.72-0.72","l4x14yxdea6ckhd",3,"138.csv","","1531.2000000029802","resources/trios/L1T1A3.jpg","37","restless",0.4,0.4,0.2,0.791142286789163,"false"
"image-keyboard-response",228,624874,"0.0-3.72-1.72","l4x14yxdea6ckhd",3,"138.csv","","null","resources/maskTrios/L1BB.jpg","null","",NA,NA,NA,NA,""
"image-keyboard-response",229,626078,"0.0-3.72-2.72","l4x14yxdea6ckhd",3,"138.csv","","null","resources/images/fishbone.png","null","",NA,NA,NA,NA,""
"image-keyboard-response",230,631728,"0.0-3.73-0.73","l4x14yxdea6ckhd",3,"138.csv","","5648.5","resources/trios/L4T4A3.jpg","37","restless",0.5,0.4,0.3,0.859384009590414,"false"
"image-keyboard-response",231,632131,"0.0-3.73-1.73","l4x14yxdea6ckhd",3,"138.csv","","null","resources/maskTrios/L4BB.jpg","null","",NA,NA,NA,NA,""
"image-keyboard-response",232,633333,"0.0-3.73-2.73","l4x14yxdea6ckhd",3,"138.csv","","null","resources/images/fishbone.png","null","",NA,NA,NA,NA,""
"image-keyboard-response",233,736963,"0.0-3.74-0.74","l4x14yxdea6ckhd",3,"138.csv","","103626.70000000298","resources/trios/L1T1A2.jpg","38","restless",0.5,0.4,0.3,0.587245372949367,"false"
"image-keyboard-response",234,737370,"0.0-3.74-1.74","l4x14yxdea6ckhd",3,"138.csv","","null","resources/maskTrios/BT1B.jpg","null","",NA,NA,NA,NA,""
"image-keyboard-response",235,738576,"0.0-3.74-2.74","l4x14yxdea6ckhd",3,"138.csv","","null","resources/images/fishbone.png","null","",NA,NA,NA,NA,""
"image-keyboard-response",236,741292,"0.0-3.75-0.75","l4x14yxdea6ckhd",3,"138.csv","","2713.8999999910593","resources/trios/L1T1A3.jpg","38","restless",0.5,0.4,0.3,0.368646684332803,"true"
"image-keyboard-response",237,741698,"0.0-3.75-1.75","l4x14yxdea6ckhd",3,"138.csv","","null","resources/maskTrios/BT1B.jpg","null","",NA,NA,NA,NA,""
"image-keyboard-response",238,742904,"0.0-3.75-2.75","l4x14yxdea6ckhd",3,"138.csv","","null","resources/images/coin2.png","null","",NA,NA,NA,NA,""
"image-keyboard-response",239,761129,"0.0-3.76-0.76","l4x14yxdea6ckhd",3,"138.csv","","18223.10000000894","resources/trios/L4T1A3.jpg","37","restless",0.5,0.3,0.3,0.0371012158774293,"true"
"image-keyboard-response",240,761536,"0.0-3.76-1.76","l4x14yxdea6ckhd",3,"138.csv","","null","resources/maskTrios/L4BB.jpg","null","",NA,NA,NA,NA,""
"image-keyboard-response",241,762743,"0.0-3.76-2.76","l4x14yxdea6ckhd",3,"138.csv","","null","resources/images/coin2.png","null","",NA,NA,NA,NA,""
"image-keyboard-response",242,767671,"0.0-3.77-0.77","l4x14yxdea6ckhd",3,"138.csv","","4925.4000000059605","resources/trios/L4T1A3.jpg","39","restless",0.5,0.3,0.3,0.884341615409463,"false"
"image-keyboard-response",243,768074,"0.0-3.77-1.77","l4x14yxdea6ckhd",3,"138.csv","","null","resources/maskTrios/BBA3.jpg","null","",NA,NA,NA,NA,""
"image-keyboard-response",244,769277,"0.0-3.77-2.77","l4x14yxdea6ckhd",3,"138.csv","","null","resources/images/fishbone.png","null","",NA,NA,NA,NA,""
"image-keyboard-response",245,771574,"0.0-3.78-0.78","l4x14yxdea6ckhd",3,"138.csv","","2294.7000000029802","resources/trios/L1T4A3.jpg","38","restless",0.5,0.3,0.3,0.495831074141745,"false"
"image-keyboard-response",246,771976,"0.0-3.78-1.78","l4x14yxdea6ckhd",3,"138.csv","","null","resources/maskTrios/BT4B.jpg","null","",NA,NA,NA,NA,""
"image-keyboard-response",247,773178,"0.0-3.78-2.78","l4x14yxdea6ckhd",3,"138.csv","","null","resources/images/fishbone.png","null","",NA,NA,NA,NA,""
"image-keyboard-response",248,775674,"0.0-3.79-0.79","l4x14yxdea6ckhd",3,"138.csv","","2493.2999999970198","resources/trios/L1T1A3.jpg","38","restless",0.5,0.3,0.4,0.0744916413119392,"true"
"image-keyboard-response",249,776080,"0.0-3.79-1.79","l4x14yxdea6ckhd",3,"138.csv","","null","resources/maskTrios/BT1B.jpg","null","",NA,NA,NA,NA,""
"image-keyboard-response",250,777284,"0.0-3.79-2.79","l4x14yxdea6ckhd",3,"138.csv","","null","resources/images/coin2.png","null","",NA,NA,NA,NA,""
"image-keyboard-response",251,797758,"0.0-3.80-0.80","l4x14yxdea6ckhd",3,"138.csv","","20471.5","resources/trios/L1T4A3.jpg","39","restless",0.5,0.2,0.3,0.886733167560508,"false"
"image-keyboard-response",252,798166,"0.0-3.80-1.80","l4x14yxdea6ckhd",3,"138.csv","","null","resources/maskTrios/BBA3.jpg","null","",NA,NA,NA,NA,""
"image-keyboard-response",253,799372,"0.0-3.80-2.80","l4x14yxdea6ckhd",3,"138.csv","","null","resources/images/fishbone.png","null","",NA,NA,NA,NA,""
"image-keyboard-response",254,800735,"0.0-3.81-0.81","l4x14yxdea6ckhd",3,"138.csv","","1360.9000000059605","resources/trios/L1T4A3.jpg","39","restless",0.6,0.2,0.3,0.492216776257743,"false"
"image-keyboard-response",255,801137,"0.0-3.81-1.81","l4x14yxdea6ckhd",3,"138.csv","","null","resources/maskTrios/BBA3.jpg","null","",NA,NA,NA,NA,""
"image-keyboard-response",256,802340,"0.0-3.81-2.81","l4x14yxdea6ckhd",3,"138.csv","","null","resources/images/fishbone.png","null","",NA,NA,NA,NA,""
"image-keyboard-response",257,803550,"0.0-3.82-0.82","l4x14yxdea6ckhd",3,"138.csv","","1207.7999999970198","resources/trios/L1T4A3.jpg","39","restless",0.6,0.2,0.3,0.0873687805567722,"true"
"image-keyboard-response",258,803952,"0.0-3.82-1.82","l4x14yxdea6ckhd",3,"138.csv","","null","resources/maskTrios/BBA3.jpg","null","",NA,NA,NA,NA,""
"image-keyboard-response",259,805159,"0.0-3.82-2.82","l4x14yxdea6ckhd",3,"138.csv","","null","resources/images/coin2.png","null","",NA,NA,NA,NA,""
"image-keyboard-response",260,827001,"0.0-3.83-0.83","l4x14yxdea6ckhd",3,"138.csv","","21840","resources/trios/L4T4A3.jpg","37","restless",0.6,0.2,0.3,0.170258603464688,"true"
"image-keyboard-response",261,827404,"0.0-3.83-1.83","l4x14yxdea6ckhd",3,"138.csv","","null","resources/maskTrios/L4BB.jpg","null","",NA,NA,NA,NA,""
"image-keyboard-response",262,828606,"0.0-3.83-2.83","l4x14yxdea6ckhd",3,"138.csv","","null","resources/images/coin2.png","null","",NA,NA,NA,NA,""
"image-keyboard-response",263,831064,"0.0-3.84-0.84","l4x14yxdea6ckhd",3,"138.csv","","2457.2000000029802","resources/trios/L4T1A3.jpg","38","restless",0.6,0.2,0.3,0.0443116541023378,"true"
"image-keyboard-response",264,831471,"0.0-3.84-1.84","l4x14yxdea6ckhd",3,"138.csv","","null","resources/maskTrios/BT1B.jpg","null","",NA,NA,NA,NA,""
"image-keyboard-response",265,832677,"0.0-3.84-2.84","l4x14yxdea6ckhd",3,"138.csv","","null","resources/images/coin2.png","null","",NA,NA,NA,NA,""
"image-keyboard-response",266,837334,"0.0-3.85-0.85","l4x14yxdea6ckhd",3,"138.csv","","4655","resources/trios/L1T4A3.jpg","38","restless",0.6,0.2,0.3,0.182432432856116,"true"
"image-keyboard-response",267,837740,"0.0-3.85-1.85","l4x14yxdea6ckhd",3,"138.csv","","null","resources/maskTrios/BT4B.jpg","null","",NA,NA,NA,NA,""
"image-keyboard-response",268,838945,"0.0-3.85-2.85","l4x14yxdea6ckhd",3,"138.csv","","null","resources/images/coin2.png","null","",NA,NA,NA,NA,""
"image-keyboard-response",269,842973,"0.0-3.86-0.86","l4x14yxdea6ckhd",3,"138.csv","","4025.2999999970198","resources/trios/L1T4A3.jpg","37","restless",0.6,0.2,0.3,0.650086824544804,"false"
"image-keyboard-response",270,843375,"0.0-3.86-1.86","l4x14yxdea6ckhd",3,"138.csv","","null","resources/maskTrios/L1BB.jpg","null","",NA,NA,NA,NA,""
"image-keyboard-response",271,844578,"0.0-3.86-2.86","l4x14yxdea6ckhd",3,"138.csv","","null","resources/images/fishbone.png","null","",NA,NA,NA,NA,""
"image-keyboard-response",272,847110,"0.0-3.87-0.87","l4x14yxdea6ckhd",3,"138.csv","","2529.7999999970198","resources/trios/L4T1A2.jpg","37","restless",0.6,0.2,0.3,0.377249139545687,"true"
"image-keyboard-response",273,847513,"0.0-3.87-1.87","l4x14yxdea6ckhd",3,"138.csv","","null","resources/maskTrios/L4BB.jpg","null","",NA,NA,NA,NA,""
"image-keyboard-response",274,848719,"0.0-3.87-2.87","l4x14yxdea6ckhd",3,"138.csv","","null","resources/images/coin2.png","null","",NA,NA,NA,NA,""
"image-keyboard-response",275,852187,"0.0-3.88-0.88","l4x14yxdea6ckhd",3,"138.csv","","3466","resources/trios/L1T4A3.jpg","37","restless",0.7,0.2,0.3,0.289705303244096,"true"
"image-keyboard-response",276,852592,"0.0-3.88-1.88","l4x14yxdea6ckhd",3,"138.csv","","null","resources/maskTrios/L1BB.jpg","null","",NA,NA,NA,NA,""
"image-keyboard-response",277,853797,"0.0-3.88-2.88","l4x14yxdea6ckhd",3,"138.csv","","null","resources/images/coin2.png","null","",NA,NA,NA,NA,""
"image-keyboard-response",278,861145,"0.0-3.89-0.89","l4x14yxdea6ckhd",3,"138.csv","","7346.20000000298","resources/trios/L4T4A2.jpg","38","restless",0.8,0.2,0.2,0.941520345505765,"false"
"image-keyboard-response",279,861550,"0.0-3.89-1.89","l4x14yxdea6ckhd",3,"138.csv","","null","resources/maskTrios/BT4B.jpg","null","",NA,NA,NA,NA,""
"image-keyboard-response",280,862754,"0.0-3.89-2.89","l4x14yxdea6ckhd",3,"138.csv","","null","resources/images/fishbone.png","null","",NA,NA,NA,NA,""
"image-keyboard-response",281,866695,"0.0-3.90-0.90","l4x14yxdea6ckhd",3,"138.csv","","3938.5999999940395","resources/trios/L1T4A3.jpg","37","restless",0.8,0.2,0.2,0.440417356473549,"true"
"image-keyboard-response",282,867100,"0.0-3.90-1.90","l4x14yxdea6ckhd",3,"138.csv","","null","resources/maskTrios/L1BB.jpg","null","",NA,NA,NA,NA,""
"image-keyboard-response",283,868304,"0.0-3.90-2.90","l4x14yxdea6ckhd",3,"138.csv","","null","resources/images/coin2.png","null","",NA,NA,NA,NA,""
"image-keyboard-response",284,884482,"0.0-3.91-0.91","l4x14yxdea6ckhd",3,"138.csv","","16176.60000000894","resources/trios/L1T4A3.jpg","37","restless",0.8,0.2,0.1,0.282558827970852,"true"
"image-keyboard-response",285,884889,"0.0-3.91-1.91","l4x14yxdea6ckhd",3,"138.csv","","null","resources/maskTrios/L1BB.jpg","null","",NA,NA,NA,NA,""
"image-keyboard-response",286,886094,"0.0-3.91-2.91","l4x14yxdea6ckhd",3,"138.csv","","null","resources/images/coin2.png","null","",NA,NA,NA,NA,""
"image-keyboard-response",287,888023,"0.0-3.92-0.92","l4x14yxdea6ckhd",3,"138.csv","","1927.6000000089407","resources/trios/L1T4A3.jpg","37","restless",0.8,0.2,0.1,0.542612775972656,"true"
"image-keyboard-response",288,888429,"0.0-3.92-1.92","l4x14yxdea6ckhd",3,"138.csv","","null","resources/maskTrios/L1BB.jpg","null","",NA,NA,NA,NA,""
"image-keyboard-response",289,889633,"0.0-3.92-2.92","l4x14yxdea6ckhd",3,"138.csv","","null","resources/images/coin2.png","null","",NA,NA,NA,NA,""
"image-keyboard-response",290,897132,"0.0-3.93-0.93","l4x14yxdea6ckhd",3,"138.csv","","7496.70000000298","resources/trios/L4T4A3.jpg","37","restless",0.8,0.1,0.1,0.0735379476266822,"true"
"image-keyboard-response",291,897537,"0.0-3.93-1.93","l4x14yxdea6ckhd",3,"138.csv","","null","resources/maskTrios/L4BB.jpg","null","",NA,NA,NA,NA,""
"image-keyboard-response",292,898742,"0.0-3.93-2.93","l4x14yxdea6ckhd",3,"138.csv","","null","resources/images/coin2.png","null","",NA,NA,NA,NA,""
"image-keyboard-response",293,901061,"0.0-3.94-0.94","l4x14yxdea6ckhd",3,"138.csv","","2317","resources/trios/L1T1A2.jpg","37","restless",0.8,0.1,0.1,0.43311345594896,"true"
"image-keyboard-response",294,901463,"0.0-3.94-1.94","l4x14yxdea6ckhd",3,"138.csv","","null","resources/maskTrios/L1BB.jpg","null","",NA,NA,NA,NA,""
"image-keyboard-response",295,902665,"0.0-3.94-2.94","l4x14yxdea6ckhd",3,"138.csv","","null","resources/images/coin2.png","null","",NA,NA,NA,NA,""
"image-keyboard-response",296,910100,"0.0-3.95-0.95","l4x14yxdea6ckhd",3,"138.csv","","7432.29999999702","resources/trios/L4T1A3.jpg","38","restless",0.8,0.1,0.1,0.814318585509866,"false"
"image-keyboard-response",297,910505,"0.0-3.95-1.95","l4x14yxdea6ckhd",3,"138.csv","","null","resources/maskTrios/BT1B.jpg","null","",NA,NA,NA,NA,""
"image-keyboard-response",298,911710,"0.0-3.95-2.95","l4x14yxdea6ckhd",3,"138.csv","","null","resources/images/fishbone.png","null","",NA,NA,NA,NA,""
"image-keyboard-response",299,913218,"0.0-3.96-0.96","l4x14yxdea6ckhd",3,"138.csv","","1507.4000000059605","resources/trios/L1T4A3.jpg","37","restless",0.8,0.1,0.2,0.742984817235621,"true"
"image-keyboard-response",300,913623,"0.0-3.96-1.96","l4x14yxdea6ckhd",3,"138.csv","","null","resources/maskTrios/L1BB.jpg","null","",NA,NA,NA,NA,""
"image-keyboard-response",301,914829,"0.0-3.96-2.96","l4x14yxdea6ckhd",3,"138.csv","","null","resources/images/coin2.png","null","",NA,NA,NA,NA,""
"image-keyboard-response",302,919820,"0.0-3.97-0.97","l4x14yxdea6ckhd",3,"138.csv","","4988.600000008941","resources/trios/L1T1A2.jpg","37","restless",0.8,0.1,0.2,0.285579751847702,"true"
"image-keyboard-response",303,920222,"0.0-3.97-1.97","l4x14yxdea6ckhd",3,"138.csv","","null","resources/maskTrios/L1BB.jpg","null","",NA,NA,NA,NA,""
"image-keyboard-response",304,921427,"0.0-3.97-2.97","l4x14yxdea6ckhd",3,"138.csv","","null","resources/images/coin2.png","null","",NA,NA,NA,NA,""
"image-keyboard-response",305,923041,"0.0-3.98-0.98","l4x14yxdea6ckhd",3,"138.csv","","1610.2000000029802","resources/trios/L1T1A3.jpg","37","restless",0.8,0.1,0.3,0.701403216414986,"true"
"image-keyboard-response",306,923448,"0.0-3.98-1.98","l4x14yxdea6ckhd",3,"138.csv","","null","resources/maskTrios/L1BB.jpg","null","",NA,NA,NA,NA,""
"image-keyboard-response",307,924655,"0.0-3.98-2.98","l4x14yxdea6ckhd",3,"138.csv","","null","resources/images/coin2.png","null","",NA,NA,NA,NA,""
"image-keyboard-response",308,927160,"0.0-3.99-0.99","l4x14yxdea6ckhd",3,"138.csv","","2503.0999999940395","resources/trios/L4T4A3.jpg","37","restless",0.8,0.1,0.3,0.897924514807874,"false"
"image-keyboard-response",309,927566,"0.0-3.99-1.99","l4x14yxdea6ckhd",3,"138.csv","","null","resources/maskTrios/L4BB.jpg","null","",NA,NA,NA,NA,""
"image-keyboard-response",310,928772,"0.0-3.99-2.99","l4x14yxdea6ckhd",3,"138.csv","","null","resources/images/fishbone.png","null","",NA,NA,NA,NA,""
"image-keyboard-response",311,930460,"0.0-3.100-0.100","l4x14yxdea6ckhd",3,"138.csv","","1685.3999999910593","resources/trios/L4T4A2.jpg","39","restless",0.8,0.1,0.3,0.912034473547186,"false"
"image-keyboard-response",312,930866,"0.0-3.100-1.100","l4x14yxdea6ckhd",3,"138.csv","","null","resources/maskTrios/BBA2.jpg","null","",NA,NA,NA,NA,""
"image-keyboard-response",313,932070,"0.0-3.100-2.100","l4x14yxdea6ckhd",3,"138.csv","","null","resources/images/fishbone.png","null","",NA,NA,NA,NA,""
"image-keyboard-response",314,940842,"0.0-3.101-0.101","l4x14yxdea6ckhd",3,"138.csv","","8769.5","resources/trios/L4T4A3.jpg","38","restless",0.8,0.1,0.3,0.584527608299152,"false"
"image-keyboard-response",315,941248,"0.0-3.101-1.101","l4x14yxdea6ckhd",3,"138.csv","","null","resources/maskTrios/BT4B.jpg","null","",NA,NA,NA,NA,""
"image-keyboard-response",316,942453,"0.0-3.101-2.101","l4x14yxdea6ckhd",3,"138.csv","","null","resources/images/fishbone.png","null","",NA,NA,NA,NA,""
"image-keyboard-response",317,943799,"0.0-3.102-0.102","l4x14yxdea6ckhd",3,"138.csv","","1343.800000011921","resources/trios/L4T4A3.jpg","37","restless",0.8,0.1,0.4,0.961671590748124,"false"
"image-keyboard-response",318,944206,"0.0-3.102-1.102","l4x14yxdea6ckhd",3,"138.csv","","null","resources/maskTrios/L4BB.jpg","null","",NA,NA,NA,NA,""
"image-keyboard-response",319,945411,"0.0-3.102-2.102","l4x14yxdea6ckhd",3,"138.csv","","null","resources/images/fishbone.png","null","",NA,NA,NA,NA,""
"image-keyboard-response",320,949072,"0.0-3.103-0.103","l4x14yxdea6ckhd",3,"138.csv","","3659","resources/trios/L1T4A3.jpg","37","restless",0.8,0.1,0.4,0.432157583863138,"true"
"image-keyboard-response",321,949478,"0.0-3.103-1.103","l4x14yxdea6ckhd",3,"138.csv","","null","resources/maskTrios/L1BB.jpg","null","",NA,NA,NA,NA,""
"image-keyboard-response",322,950685,"0.0-3.103-2.103","l4x14yxdea6ckhd",3,"138.csv","","null","resources/images/coin2.png","null","",NA,NA,NA,NA,""
"image-keyboard-response",323,954782,"0.0-3.104-0.104","l4x14yxdea6ckhd",3,"138.csv","","4093.7999999970198","resources/trios/L4T4A2.jpg","38","restless",0.8,0.1,0.4,0.384988038708417,"false"
"image-keyboard-response",324,955188,"0.0-3.104-1.104","l4x14yxdea6ckhd",3,"138.csv","","null","resources/maskTrios/BT4B.jpg","null","",NA,NA,NA,NA,""
"image-keyboard-response",325,956394,"0.0-3.104-2.104","l4x14yxdea6ckhd",3,"138.csv","","null","resources/images/fishbone.png","null","",NA,NA,NA,NA,""
"image-keyboard-response",326,958566,"0.0-3.105-0.105","l4x14yxdea6ckhd",3,"138.csv","","2170.2999999970198","resources/trios/L4T4A3.jpg","37","restless",0.7,0.2,0.4,0.785527968436927,"false"
"image-keyboard-response",327,958968,"0.0-3.105-1.105","l4x14yxdea6ckhd",3,"138.csv","","null","resources/maskTrios/L4BB.jpg","null","",NA,NA,NA,NA,""
"image-keyboard-response",328,960174,"0.0-3.105-2.105","l4x14yxdea6ckhd",3,"138.csv","","null","resources/images/fishbone.png","null","",NA,NA,NA,NA,""
"image-keyboard-response",329,978416,"0.0-3.106-0.106","l4x14yxdea6ckhd",3,"138.csv","","18239.60000000894","resources/trios/L4T4A3.jpg","38","restless",0.7,0.2,0.4,0.622808666231995,"false"
"image-keyboard-response",330,978819,"0.0-3.106-1.106","l4x14yxdea6ckhd",3,"138.csv","","null","resources/maskTrios/BT4B.jpg","null","",NA,NA,NA,NA,""
"image-keyboard-response",331,980023,"0.0-3.106-2.106","l4x14yxdea6ckhd",3,"138.csv","","null","resources/images/fishbone.png","null","",NA,NA,NA,NA,""
"image-keyboard-response",332,981963,"0.0-3.107-0.107","l4x14yxdea6ckhd",3,"138.csv","","1937.7999999970198","resources/trios/L4T1A3.jpg","38","restless",0.7,0.2,0.4,0.374166259835019,"false"
"image-keyboard-response",333,982366,"0.0-3.107-1.107","l4x14yxdea6ckhd",3,"138.csv","","null","resources/maskTrios/BT1B.jpg","null","",NA,NA,NA,NA,""
"image-keyboard-response",334,983568,"0.0-3.107-2.107","l4x14yxdea6ckhd",3,"138.csv","","null","resources/images/fishbone.png","null","",NA,NA,NA,NA,""
"image-keyboard-response",335,986166,"0.0-3.108-0.108","l4x14yxdea6ckhd",3,"138.csv","","2596","resources/trios/L4T4A2.jpg","38","restless",0.7,0.2,0.4,0.669498955722039,"false"
"image-keyboard-response",336,986568,"0.0-3.108-1.108","l4x14yxdea6ckhd",3,"138.csv","","null","resources/maskTrios/BT4B.jpg","null","",NA,NA,NA,NA,""
"image-keyboard-response",337,987772,"0.0-3.108-2.108","l4x14yxdea6ckhd",3,"138.csv","","null","resources/images/fishbone.png","null","",NA,NA,NA,NA,""
"image-keyboard-response",338,989345,"0.0-3.109-0.109","l4x14yxdea6ckhd",3,"138.csv","","1571.2000000029802","resources/trios/L4T1A2.jpg","37","restless",0.7,0.2,0.5,0.898158875646484,"false"
"image-keyboard-response",339,989750,"0.0-3.109-1.109","l4x14yxdea6ckhd",3,"138.csv","","null","resources/maskTrios/L4BB.jpg","null","",NA,NA,NA,NA,""
"image-keyboard-response",340,990953,"0.0-3.109-2.109","l4x14yxdea6ckhd",3,"138.csv","","null","resources/images/fishbone.png","null","",NA,NA,NA,NA,""
"image-keyboard-response",341,995495,"0.0-3.110-0.110","l4x14yxdea6ckhd",3,"138.csv","","4540.100000008941","resources/trios/L1T1A2.jpg","37","restless",0.7,0.2,0.5,0.194527345163226,"true"
"image-keyboard-response",342,995898,"0.0-3.110-1.110","l4x14yxdea6ckhd",3,"138.csv","","null","resources/maskTrios/L1BB.jpg","null","",NA,NA,NA,NA,""
"image-keyboard-response",343,997101,"0.0-3.110-2.110","l4x14yxdea6ckhd",3,"138.csv","","null","resources/images/coin2.png","null","",NA,NA,NA,NA,""
"image-keyboard-response",344,1013272,"0.0-3.111-0.111","l4x14yxdea6ckhd",3,"138.csv","","16168.89999999106","resources/trios/L1T4A3.jpg","39","restless",0.6,0.2,0.5,0.367592501468402,"true"
"image-keyboard-response",345,1013675,"0.0-3.111-1.111","l4x14yxdea6ckhd",3,"138.csv","","null","resources/maskTrios/BBA3.jpg","null","",NA,NA,NA,NA,""
"image-keyboard-response",346,1014882,"0.0-3.111-2.111","l4x14yxdea6ckhd",3,"138.csv","","null","resources/images/coin2.png","null","",NA,NA,NA,NA,""
"image-keyboard-response",347,1018817,"0.0-3.112-0.112","l4x14yxdea6ckhd",3,"138.csv","","3933","resources/trios/L4T4A3.jpg","38","restless",0.6,0.3,0.6,0.0610748282337017,"true"
"image-keyboard-response",348,1019223,"0.0-3.112-1.112","l4x14yxdea6ckhd",3,"138.csv","","null","resources/maskTrios/BT4B.jpg","null","",NA,NA,NA,NA,""
"image-keyboard-response",349,1020428,"0.0-3.112-2.112","l4x14yxdea6ckhd",3,"138.csv","","null","resources/images/coin2.png","null","",NA,NA,NA,NA,""
"image-keyboard-response",350,1022517,"0.0-3.113-0.113","l4x14yxdea6ckhd",3,"138.csv","","2087.5999999940395","resources/trios/L4T4A2.jpg","37","restless",0.6,0.3,0.6,0.523023511692685,"true"
"image-keyboard-response",351,1022924,"0.0-3.113-1.113","l4x14yxdea6ckhd",3,"138.csv","","null","resources/maskTrios/L4BB.jpg","null","",NA,NA,NA,NA,""
"image-keyboard-response",352,1024127,"0.0-3.113-2.113","l4x14yxdea6ckhd",3,"138.csv","","null","resources/images/coin2.png","null","",NA,NA,NA,NA,""
"image-keyboard-response",353,1034103,"0.0-3.114-0.114","l4x14yxdea6ckhd",3,"138.csv","","9978.29999999702","resources/trios/L1T4A2.jpg","38","restless",0.6,0.3,0.6,0.520582458483021,"false"
"image-keyboard-response",354,1034509,"0.0-3.114-1.114","l4x14yxdea6ckhd",3,"138.csv","","null","resources/maskTrios/BT4B.jpg","null","",NA,NA,NA,NA,""
"image-keyboard-response",355,1035713,"0.0-3.114-2.114","l4x14yxdea6ckhd",3,"138.csv","","null","resources/images/fishbone.png","null","",NA,NA,NA,NA,""
"image-keyboard-response",356,1040271,"0.0-3.115-0.115","l4x14yxdea6ckhd",3,"138.csv","","4558.5","resources/trios/L4T1A3.jpg","37","restless",0.6,0.2,0.6,0.418610356536595,"true"
"image-keyboard-response",357,1040676,"0.0-3.115-1.115","l4x14yxdea6ckhd",3,"138.csv","","null","resources/maskTrios/L4BB.jpg","null","",NA,NA,NA,NA,""
"image-keyboard-response",358,1041881,"0.0-3.115-2.115","l4x14yxdea6ckhd",3,"138.csv","","null","resources/images/coin2.png","null","",NA,NA,NA,NA,""
"image-keyboard-response",359,1049223,"0.0-3.116-0.116","l4x14yxdea6ckhd",3,"138.csv","","7342.5999999940395","resources/trios/L1T1A2.jpg","37","restless",0.6,0.3,0.6,0.974089794648274,"false"
"image-keyboard-response",360,1049627,"0.0-3.116-1.116","l4x14yxdea6ckhd",3,"138.csv","","null","resources/maskTrios/L1BB.jpg","null","",NA,NA,NA,NA,""
"image-keyboard-response",361,1050832,"0.0-3.116-2.116","l4x14yxdea6ckhd",3,"138.csv","","null","resources/images/fishbone.png","null","",NA,NA,NA,NA,""
"image-keyboard-response",362,1053374,"0.0-3.117-0.117","l4x14yxdea6ckhd",3,"138.csv","","2539.699999988079","resources/trios/L1T1A3.jpg","37","restless",0.6,0.3,0.6,0.81883566589589,"false"
"image-keyboard-response",363,1053781,"0.0-3.117-1.117","l4x14yxdea6ckhd",3,"138.csv","","null","resources/maskTrios/L1BB.jpg","null","",NA,NA,NA,NA,""
"image-keyboard-response",364,1054984,"0.0-3.117-2.117","l4x14yxdea6ckhd",3,"138.csv","","null","resources/images/fishbone.png","null","",NA,NA,NA,NA,""
"image-keyboard-response",365,1062768,"0.0-3.118-0.118","l4x14yxdea6ckhd",3,"138.csv","","7781.0999999940395","resources/trios/L1T4A3.jpg","37","restless",0.6,0.3,0.6,0.3352905029235,"true"
"image-keyboard-response",366,1063174,"0.0-3.118-1.118","l4x14yxdea6ckhd",3,"138.csv","","null","resources/maskTrios/L1BB.jpg","null","",NA,NA,NA,NA,""
"image-keyboard-response",367,1064380,"0.0-3.118-2.118","l4x14yxdea6ckhd",3,"138.csv","","null","resources/images/coin2.png","null","",NA,NA,NA,NA,""
"image-keyboard-response",368,1073568,"0.0-3.119-0.119","l4x14yxdea6ckhd",3,"138.csv","","9186.79999999702","resources/trios/L1T1A2.jpg","39","restless",0.6,0.3,0.6,0.617217381493149,"false"
"image-keyboard-response",369,1073973,"0.0-3.119-1.119","l4x14yxdea6ckhd",3,"138.csv","","null","resources/maskTrios/BBA2.jpg","null","",NA,NA,NA,NA,""
"image-keyboard-response",370,1075177,"0.0-3.119-2.119","l4x14yxdea6ckhd",3,"138.csv","","null","resources/images/fishbone.png","null","",NA,NA,NA,NA,""
"image-keyboard-response",371,1079923,"0.0-3.120-0.120","l4x14yxdea6ckhd",3,"138.csv","","4744.100000008941","resources/trios/L4T1A2.jpg","39","restless",0.5,0.3,0.7,0.220683615952067,"true"
"image-keyboard-response",372,1080327,"0.0-3.120-1.120","l4x14yxdea6ckhd",3,"138.csv","","null","resources/maskTrios/BBA2.jpg","null","",NA,NA,NA,NA,""
"image-keyboard-response",373,1081532,"0.0-3.120-2.120","l4x14yxdea6ckhd",3,"138.csv","","null","resources/images/coin2.png","null","",NA,NA,NA,NA,""
"image-keyboard-response",374,1086403,"0.0-3.121-0.121","l4x14yxdea6ckhd",3,"138.csv","","4868.70000000298","resources/trios/L4T4A3.jpg","38","restless",0.5,0.3,0.6,0.4303314499497,"false"
"image-keyboard-response",375,1086808,"0.0-3.121-1.121","l4x14yxdea6ckhd",3,"138.csv","","null","resources/maskTrios/BT4B.jpg","null","",NA,NA,NA,NA,""
"image-keyboard-response",376,1088013,"0.0-3.121-2.121","l4x14yxdea6ckhd",3,"138.csv","","null","resources/images/fishbone.png","null","",NA,NA,NA,NA,""
"image-keyboard-response",377,1101115,"0.0-3.122-0.122","l4x14yxdea6ckhd",3,"138.csv","","13100.10000000894","resources/trios/L4T1A3.jpg","37","restless",0.5,0.3,0.6,0.164273812845982,"true"
"image-keyboard-response",378,1101521,"0.0-3.122-1.122","l4x14yxdea6ckhd",3,"138.csv","","null","resources/maskTrios/L4BB.jpg","null","",NA,NA,NA,NA,""
"image-keyboard-response",379,1102725,"0.0-3.122-2.122","l4x14yxdea6ckhd",3,"138.csv","","null","resources/images/coin2.png","null","",NA,NA,NA,NA,""
"image-keyboard-response",380,1107367,"0.0-3.123-0.123","l4x14yxdea6ckhd",3,"138.csv","","4638.29999999702","resources/trios/L4T1A2.jpg","39","restless",0.5,0.4,0.6,0.230714079450985,"true"
"image-keyboard-response",381,1107774,"0.0-3.123-1.123","l4x14yxdea6ckhd",3,"138.csv","","null","resources/maskTrios/BBA2.jpg","null","",NA,NA,NA,NA,""
"image-keyboard-response",382,1108978,"0.0-3.123-2.123","l4x14yxdea6ckhd",3,"138.csv","","null","resources/images/coin2.png","null","",NA,NA,NA,NA,""
"image-keyboard-response",383,1113203,"0.0-3.124-0.124","l4x14yxdea6ckhd",3,"138.csv","","4222.29999999702","resources/trios/L1T1A2.jpg","38","restless",0.5,0.4,0.6,0.34733152719286,"true"
"image-keyboard-response",384,1113609,"0.0-3.124-1.124","l4x14yxdea6ckhd",3,"138.csv","","null","resources/maskTrios/BT1B.jpg","null","",NA,NA,NA,NA,""
"image-keyboard-response",385,1114812,"0.0-3.124-2.124","l4x14yxdea6ckhd",3,"138.csv","","null","resources/images/coin2.png","null","",NA,NA,NA,NA,""
"image-keyboard-response",386,1118855,"0.0-3.125-0.125","l4x14yxdea6ckhd",3,"138.csv","","4041.2999999970198","resources/trios/L4T4A3.jpg","37","restless",0.5,0.4,0.6,0.786247377329395,"false"
"image-keyboard-response",387,1119261,"0.0-3.125-1.125","l4x14yxdea6ckhd",3,"138.csv","","null","resources/maskTrios/L4BB.jpg","null","",NA,NA,NA,NA,""
"image-keyboard-response",388,1120465,"0.0-3.125-2.125","l4x14yxdea6ckhd",3,"138.csv","","null","resources/images/fishbone.png","null","",NA,NA,NA,NA,""
"image-keyboard-response",389,1124098,"0.0-3.126-0.126","l4x14yxdea6ckhd",3,"138.csv","","3631.8999999910593","resources/trios/L1T4A3.jpg","37","restless",0.5,0.4,0.6,0.60420790589495,"false"
"image-keyboard-response",390,1124503,"0.0-3.126-1.126","l4x14yxdea6ckhd",3,"138.csv","","null","resources/maskTrios/L1BB.jpg","null","",NA,NA,NA,NA,""
"image-keyboard-response",391,1125709,"0.0-3.126-2.126","l4x14yxdea6ckhd",3,"138.csv","","null","resources/images/fishbone.png","null","",NA,NA,NA,NA,""
"image-keyboard-response",392,1128687,"0.0-3.127-0.127","l4x14yxdea6ckhd",3,"138.csv","","2976.2999999970198","resources/trios/L1T1A3.jpg","37","restless",0.4,0.4,0.6,0.895117664173231,"false"
"image-keyboard-response",393,1129093,"0.0-3.127-1.127","l4x14yxdea6ckhd",3,"138.csv","","null","resources/maskTrios/L1BB.jpg","null","",NA,NA,NA,NA,""
"image-keyboard-response",394,1130296,"0.0-3.127-2.127","l4x14yxdea6ckhd",3,"138.csv","","null","resources/images/fishbone.png","null","",NA,NA,NA,NA,""
"image-keyboard-response",395,1133842,"0.0-3.128-0.128","l4x14yxdea6ckhd",3,"138.csv","","3543.7000000029802","resources/trios/L4T4A2.jpg","38","restless",0.4,0.4,0.5,0.139192747658921,"true"
"image-keyboard-response",396,1134248,"0.0-3.128-1.128","l4x14yxdea6ckhd",3,"138.csv","","null","resources/maskTrios/BT4B.jpg","null","",NA,NA,NA,NA,""
"image-keyboard-response",397,1135451,"0.0-3.128-2.128","l4x14yxdea6ckhd",3,"138.csv","","null","resources/images/coin2.png","null","",NA,NA,NA,NA,""
"image-keyboard-response",398,1144207,"0.0-3.129-0.129","l4x14yxdea6ckhd",3,"138.csv","","8753.70000000298","resources/trios/L1T1A3.jpg","37","restless",0.3,0.4,0.5,0.588132848151366,"false"
"image-keyboard-response",399,1144610,"0.0-3.129-1.129","l4x14yxdea6ckhd",3,"138.csv","","null","resources/maskTrios/L1BB.jpg","null","",NA,NA,NA,NA,""
"image-keyboard-response",400,1145812,"0.0-3.129-2.129","l4x14yxdea6ckhd",3,"138.csv","","null","resources/images/fishbone.png","null","",NA,NA,NA,NA,""
"image-keyboard-response",401,1149326,"0.0-3.130-0.130","l4x14yxdea6ckhd",3,"138.csv","","3512.3999999910593","resources/trios/L1T1A2.jpg","38","restless",0.3,0.4,0.5,0.273822742345161,"true"
"image-keyboard-response",402,1149728,"0.0-3.130-1.130","l4x14yxdea6ckhd",3,"138.csv","","null","resources/maskTrios/BT1B.jpg","null","",NA,NA,NA,NA,""
"image-keyboard-response",403,1150935,"0.0-3.130-2.130","l4x14yxdea6ckhd",3,"138.csv","","null","resources/images/coin2.png","null","",NA,NA,NA,NA,""
"image-keyboard-response",404,1162352,"0.0-3.131-0.131","l4x14yxdea6ckhd",3,"138.csv","","11414.89999999106","resources/trios/L1T1A3.jpg","38","restless",0.3,0.4,0.5,0.383465699653425,"true"
"image-keyboard-response",405,1162754,"0.0-3.131-1.131","l4x14yxdea6ckhd",3,"138.csv","","null","resources/maskTrios/BT1B.jpg","null","",NA,NA,NA,NA,""
"image-keyboard-response",406,1163957,"0.0-3.131-2.131","l4x14yxdea6ckhd",3,"138.csv","","null","resources/images/coin2.png","null","",NA,NA,NA,NA,""
"image-keyboard-response",407,1168034,"0.0-3.132-0.132","l4x14yxdea6ckhd",3,"138.csv","","4075.0999999940395","resources/trios/L4T4A2.jpg","38","restless",0.3,0.4,0.5,0.650833902640442,"false"
"image-keyboard-response",408,1168438,"0.0-3.132-1.132","l4x14yxdea6ckhd",3,"138.csv","","null","resources/maskTrios/BT4B.jpg","null","",NA,NA,NA,NA,""
"image-keyboard-response",409,1169644,"0.0-3.132-2.132","l4x14yxdea6ckhd",3,"138.csv","","null","resources/images/fishbone.png","null","",NA,NA,NA,NA,""
"image-keyboard-response",410,1179370,"0.0-3.133-0.133","l4x14yxdea6ckhd",3,"138.csv","","9723.40000000596","resources/trios/L1T4A3.jpg","37","restless",0.3,0.4,0.5,0.345763195471643,"false"
"image-keyboard-response",411,1179775,"0.0-3.133-1.133","l4x14yxdea6ckhd",3,"138.csv","","null","resources/maskTrios/L1BB.jpg","null","",NA,NA,NA,NA,""
"image-keyboard-response",412,1180981,"0.0-3.133-2.133","l4x14yxdea6ckhd",3,"138.csv","","null","resources/images/fishbone.png","null","",NA,NA,NA,NA,""
"image-keyboard-response",413,1188234,"0.0-3.134-0.134","l4x14yxdea6ckhd",3,"138.csv","","7251.100000008941","resources/trios/L4T4A3.jpg","37","restless",0.3,0.4,0.5,0.739671402176757,"false"
"image-keyboard-response",414,1188641,"0.0-3.134-1.134","l4x14yxdea6ckhd",3,"138.csv","","null","resources/maskTrios/L4BB.jpg","null","",NA,NA,NA,NA,""
"image-keyboard-response",415,1189844,"0.0-3.134-2.134","l4x14yxdea6ckhd",3,"138.csv","","null","resources/images/fishbone.png","null","",NA,NA,NA,NA,""
"image-keyboard-response",416,1236195,"0.0-3.135-0.135","l4x14yxdea6ckhd",3,"138.csv","","46348.70000000298","resources/trios/L4T4A3.jpg","38","restless",0.3,0.4,0.5,0.664599603608303,"false"
"image-keyboard-response",417,1236597,"0.0-3.135-1.135","l4x14yxdea6ckhd",3,"138.csv","","null","resources/maskTrios/BT4B.jpg","null","",NA,NA,NA,NA,""
"image-keyboard-response",418,1237799,"0.0-3.135-2.135","l4x14yxdea6ckhd",3,"138.csv","","null","resources/images/fishbone.png","null","",NA,NA,NA,NA,""
"image-keyboard-response",419,1242040,"0.0-3.136-0.136","l4x14yxdea6ckhd",3,"138.csv","","4239","resources/trios/L4T1A2.jpg","38","restless",0.2,0.4,0.5,0.952278817735281,"false"
"image-keyboard-response",420,1242445,"0.0-3.136-1.136","l4x14yxdea6ckhd",3,"138.csv","","null","resources/maskTrios/BT1B.jpg","null","",NA,NA,NA,NA,""
"image-keyboard-response",421,1243647,"0.0-3.136-2.136","l4x14yxdea6ckhd",3,"138.csv","","null","resources/images/fishbone.png","null","",NA,NA,NA,NA,""
"image-keyboard-response",422,1254445,"0.0-3.137-0.137","l4x14yxdea6ckhd",3,"138.csv","","10795.70000000298","resources/trios/L4T4A2.jpg","39","restless",0.2,0.4,0.5,0.0573234890729735,"true"
"image-keyboard-response",423,1254851,"0.0-3.137-1.137","l4x14yxdea6ckhd",3,"138.csv","","null","resources/maskTrios/BBA2.jpg","null","",NA,NA,NA,NA,""
"image-keyboard-response",424,1256058,"0.0-3.137-2.137","l4x14yxdea6ckhd",3,"138.csv","","null","resources/images/coin2.png","null","",NA,NA,NA,NA,""
"image-keyboard-response",425,1268055,"0.0-3.138-0.138","l4x14yxdea6ckhd",3,"138.csv","","11994.79999999702","resources/trios/L4T1A3.jpg","37","restless",0.2,0.4,0.5,0.472784595515508,"false"
"image-keyboard-response",426,1268461,"0.0-3.138-1.138","l4x14yxdea6ckhd",3,"138.csv","","null","resources/maskTrios/L4BB.jpg","null","",NA,NA,NA,NA,""
"image-keyboard-response",427,1269665,"0.0-3.138-2.138","l4x14yxdea6ckhd",3,"138.csv","","null","resources/images/fishbone.png","null","",NA,NA,NA,NA,""
"image-keyboard-response",428,1275691,"0.0-3.139-0.139","l4x14yxdea6ckhd",3,"138.csv","","6023.9000000059605","resources/trios/L4T4A2.jpg","39","restless",0.2,0.4,0.5,0.103726607709541,"true"
"image-keyboard-response",429,1276095,"0.0-3.139-1.139","l4x14yxdea6ckhd",3,"138.csv","","null","resources/maskTrios/BBA2.jpg","null","",NA,NA,NA,NA,""
"image-keyboard-response",430,1277300,"0.0-3.139-2.139","l4x14yxdea6ckhd",3,"138.csv","","null","resources/images/coin2.png","null","",NA,NA,NA,NA,""
"image-keyboard-response",431,1293122,"0.0-3.140-0.140","l4x14yxdea6ckhd",3,"138.csv","","15819.40000000596","resources/trios/L1T4A3.jpg","37","restless",0.2,0.4,0.5,0.698386995885727,"false"
"image-keyboard-response",432,1293526,"0.0-3.140-1.140","l4x14yxdea6ckhd",3,"138.csv","","null","resources/maskTrios/L1BB.jpg","null","",NA,NA,NA,NA,""
"image-keyboard-response",433,1294732,"0.0-3.140-2.140","l4x14yxdea6ckhd",3,"138.csv","","null","resources/images/fishbone.png","null","",NA,NA,NA,NA,""
"image-keyboard-response",434,1305466,"0.0-3.141-0.141","l4x14yxdea6ckhd",3,"138.csv","","10731.5","resources/trios/L4T4A2.jpg","39","restless",0.2,0.4,0.5,0.613501025217694,"false"
"image-keyboard-response",435,1305868,"0.0-3.141-1.141","l4x14yxdea6ckhd",3,"138.csv","","null","resources/maskTrios/BBA2.jpg","null","",NA,NA,NA,NA,""
"image-keyboard-response",436,1307073,"0.0-3.141-2.141","l4x14yxdea6ckhd",3,"138.csv","","null","resources/images/fishbone.png","null","",NA,NA,NA,NA,""
"image-keyboard-response",437,1313008,"0.0-3.142-0.142","l4x14yxdea6ckhd",3,"138.csv","","5932.70000000298","resources/trios/L1T1A2.jpg","39","restless",0.1,0.4,0.5,0.799550083718805,"false"
"image-keyboard-response",438,1313411,"0.0-3.142-1.142","l4x14yxdea6ckhd",3,"138.csv","","null","resources/maskTrios/BBA2.jpg","null","",NA,NA,NA,NA,""
"image-keyboard-response",439,1314615,"0.0-3.142-2.142","l4x14yxdea6ckhd",3,"138.csv","","null","resources/images/fishbone.png","null","",NA,NA,NA,NA,""
"image-keyboard-response",440,1319373,"0.0-3.143-0.143","l4x14yxdea6ckhd",3,"138.csv","","4756.5999999940395","resources/trios/L4T1A3.jpg","37","restless",0.2,0.4,0.5,0.342338128417961,"false"
"image-keyboard-response",441,1319778,"0.0-3.143-1.143","l4x14yxdea6ckhd",3,"138.csv","","null","resources/maskTrios/L4BB.jpg","null","",NA,NA,NA,NA,""
"image-keyboard-response",442,1320984,"0.0-3.143-2.143","l4x14yxdea6ckhd",3,"138.csv","","null","resources/images/fishbone.png","null","",NA,NA,NA,NA,""
"image-keyboard-response",443,1328515,"0.0-3.144-0.144","l4x14yxdea6ckhd",3,"138.csv","","7529.20000000298","resources/trios/L4T4A2.jpg","38","restless",0.2,0.4,0.5,0.990720153077902,"false"
"image-keyboard-response",444,1328921,"0.0-3.144-1.144","l4x14yxdea6ckhd",3,"138.csv","","null","resources/maskTrios/BT4B.jpg","null","",NA,NA,NA,NA,""
"image-keyboard-response",445,1330126,"0.0-3.144-2.144","l4x14yxdea6ckhd",3,"138.csv","","null","resources/images/fishbone.png","null","",NA,NA,NA,NA,""
"image-keyboard-response",446,1333895,"0.0-3.145-0.145","l4x14yxdea6ckhd",3,"138.csv","","3767.2999999970198","resources/trios/L1T4A3.jpg","38","restless",0.2,0.4,0.5,0.299270113910044,"true"
"image-keyboard-response",447,1334302,"0.0-3.145-1.145","l4x14yxdea6ckhd",3,"138.csv","","null","resources/maskTrios/BT4B.jpg","null","",NA,NA,NA,NA,""
"image-keyboard-response",448,1335505,"0.0-3.145-2.145","l4x14yxdea6ckhd",3,"138.csv","","null","resources/images/coin2.png","null","",NA,NA,NA,NA,""
"image-keyboard-response",449,1394914,"0.0-3.146-0.146","l4x14yxdea6ckhd",3,"138.csv","","59408.20000000298","resources/trios/L4T4A3.jpg","37","restless",0.2,0.4,0.5,0.626261889113388,"false"
"image-keyboard-response",450,1395320,"0.0-3.146-1.146","l4x14yxdea6ckhd",3,"138.csv","","null","resources/maskTrios/L4BB.jpg","null","",NA,NA,NA,NA,""
"image-keyboard-response",451,1396522,"0.0-3.146-2.146","l4x14yxdea6ckhd",3,"138.csv","","null","resources/images/fishbone.png","null","",NA,NA,NA,NA,""
"image-keyboard-response",452,1399794,"0.0-3.147-0.147","l4x14yxdea6ckhd",3,"138.csv","","3269.699999988079","resources/trios/L4T4A3.jpg","38","restless",0.2,0.4,0.5,0.805687780768452,"false"
"image-keyboard-response",453,1400197,"0.0-3.147-1.147","l4x14yxdea6ckhd",3,"138.csv","","null","resources/maskTrios/BT4B.jpg","null","",NA,NA,NA,NA,""
"image-keyboard-response",454,1401400,"0.0-3.147-2.147","l4x14yxdea6ckhd",3,"138.csv","","null","resources/images/fishbone.png","null","",NA,NA,NA,NA,""
"image-keyboard-response",455,1421824,"0.0-3.148-0.148","l4x14yxdea6ckhd",3,"138.csv","","20421.69999998808","resources/trios/L1T1A3.jpg","39","restless",0.2,0.5,0.5,0.905821098329364,"false"
"image-keyboard-response",456,1422227,"0.0-3.148-1.148","l4x14yxdea6ckhd",3,"138.csv","","null","resources/maskTrios/BBA3.jpg","null","",NA,NA,NA,NA,""
"image-keyboard-response",457,1423432,"0.0-3.148-2.148","l4x14yxdea6ckhd",3,"138.csv","","null","resources/images/fishbone.png","null","",NA,NA,NA,NA,""
"image-keyboard-response",458,1429647,"0.0-3.149-0.149","l4x14yxdea6ckhd",3,"138.csv","","6214.20000000298","resources/trios/L4T4A2.jpg","38","restless",0.2,0.5,0.5,0.965949982394201,"false"
"image-keyboard-response",459,1430051,"0.0-3.149-1.149","l4x14yxdea6ckhd",3,"138.csv","","null","resources/maskTrios/BT4B.jpg","null","",NA,NA,NA,NA,""
"image-keyboard-response",460,1431256,"0.0-3.149-2.149","l4x14yxdea6ckhd",3,"138.csv","","null","resources/images/fishbone.png","null","",NA,NA,NA,NA,""
"image-keyboard-response",461,1439325,"0.0-3.150-0.150","l4x14yxdea6ckhd",3,"138.csv","","8067.5","resources/trios/L1T1A2.jpg","38","restless",0.3,0.5,0.6,0.238850550322121,"true"
"image-keyboard-response",462,1439731,"0.0-3.150-1.150","l4x14yxdea6ckhd",3,"138.csv","","null","resources/maskTrios/BT1B.jpg","null","",NA,NA,NA,NA,""
"image-keyboard-response",463,1440935,"0.0-3.150-2.150","l4x14yxdea6ckhd",3,"138.csv","","null","resources/images/coin2.png","null","",NA,NA,NA,NA,""
"image-keyboard-response",464,1443482,"0.0-3.151-0.151","l4x14yxdea6ckhd",3,"138.csv","","2544.9000000059605","resources/trios/L4T1A2.jpg","39","restless",0.3,0.5,0.6,0.971827295328144,"false"
"image-keyboard-response",465,1443885,"0.0-3.151-1.151","l4x14yxdea6ckhd",3,"138.csv","","null","resources/maskTrios/BBA2.jpg","null","",NA,NA,NA,NA,""
"image-keyboard-response",466,1445090,"0.0-3.151-2.151","l4x14yxdea6ckhd",3,"138.csv","","null","resources/images/fishbone.png","null","",NA,NA,NA,NA,""
"image-keyboard-response",467,1451653,"0.0-3.152-0.152","l4x14yxdea6ckhd",3,"138.csv","","6562","resources/trios/L4T4A3.jpg","38","restless",0.3,0.5,0.6,0.414803982104915,"true"
"image-keyboard-response",468,1452058,"0.0-3.152-1.152","l4x14yxdea6ckhd",3,"138.csv","","null","resources/maskTrios/BT4B.jpg","null","",NA,NA,NA,NA,""
"image-keyboard-response",469,1453261,"0.0-3.152-2.152","l4x14yxdea6ckhd",3,"138.csv","","null","resources/images/coin2.png","null","",NA,NA,NA,NA,""
"image-keyboard-response",470,1457063,"0.0-3.153-0.153","l4x14yxdea6ckhd",3,"138.csv","","3799.5","resources/trios/L4T4A2.jpg","37","restless",0.3,0.5,0.6,0.532253776696572,"false"
"image-keyboard-response",471,1457468,"0.0-3.153-1.153","l4x14yxdea6ckhd",3,"138.csv","","null","resources/maskTrios/L4BB.jpg","null","",NA,NA,NA,NA,""
"image-keyboard-response",472,1458671,"0.0-3.153-2.153","l4x14yxdea6ckhd",3,"138.csv","","null","resources/images/fishbone.png","null","",NA,NA,NA,NA,""
"image-keyboard-response",473,1465533,"0.0-3.154-0.154","l4x14yxdea6ckhd",3,"138.csv","","6859.5","resources/trios/L4T4A3.jpg","37","restless",0.3,0.5,0.6,0.110187300625845,"true"
"image-keyboard-response",474,1465938,"0.0-3.154-1.154","l4x14yxdea6ckhd",3,"138.csv","","null","resources/maskTrios/L4BB.jpg","null","",NA,NA,NA,NA,""
"image-keyboard-response",475,1467142,"0.0-3.154-2.154","l4x14yxdea6ckhd",3,"138.csv","","null","resources/images/coin2.png","null","",NA,NA,NA,NA,""
"image-keyboard-response",476,1472702,"0.0-3.155-0.155","l4x14yxdea6ckhd",3,"138.csv","","5557.4000000059605","resources/trios/L4T4A2.jpg","38","restless",0.4,0.5,0.6,0.824027941426444,"false"
"image-keyboard-response",477,1473108,"0.0-3.155-1.155","l4x14yxdea6ckhd",3,"138.csv","","null","resources/maskTrios/BT4B.jpg","null","",NA,NA,NA,NA,""
"image-keyboard-response",478,1474315,"0.0-3.155-2.155","l4x14yxdea6ckhd",3,"138.csv","","null","resources/images/fishbone.png","null","",NA,NA,NA,NA,""
"image-keyboard-response",479,1480796,"0.0-3.156-0.156","l4x14yxdea6ckhd",3,"138.csv","","6478.29999999702","resources/trios/L4T4A3.jpg","38","restless",0.5,0.5,0.6,0.872284720158602,"false"
"image-keyboard-response",480,1481200,"0.0-3.156-1.156","l4x14yxdea6ckhd",3,"138.csv","","null","resources/maskTrios/BT4B.jpg","null","",NA,NA,NA,NA,""
"image-keyboard-response",481,1482403,"0.0-3.156-2.156","l4x14yxdea6ckhd",3,"138.csv","","null","resources/images/fishbone.png","null","",NA,NA,NA,NA,""
"image-keyboard-response",482,1491914,"0.0-3.157-0.157","l4x14yxdea6ckhd",3,"138.csv","","9508.40000000596","resources/trios/L4T4A3.jpg","38","restless",0.5,0.5,0.6,0.659900531332079,"false"
"image-keyboard-response",483,1492317,"0.0-3.157-1.157","l4x14yxdea6ckhd",3,"138.csv","","null","resources/maskTrios/BT4B.jpg","null","",NA,NA,NA,NA,""
"image-keyboard-response",484,1493520,"0.0-3.157-2.157","l4x14yxdea6ckhd",3,"138.csv","","null","resources/images/fishbone.png","null","",NA,NA,NA,NA,""
"image-keyboard-response",485,1512195,"0.0-3.158-0.158","l4x14yxdea6ckhd",3,"138.csv","","18673.20000000298","resources/trios/L1T4A3.jpg","37","restless",0.5,0.5,0.6,0.69974780667427,"false"
"image-keyboard-response",486,1512598,"0.0-3.158-1.158","l4x14yxdea6ckhd",3,"138.csv","","null","resources/maskTrios/L1BB.jpg","null","",NA,NA,NA,NA,""
"image-keyboard-response",487,1513803,"0.0-3.158-2.158","l4x14yxdea6ckhd",3,"138.csv","","null","resources/images/fishbone.png","null","",NA,NA,NA,NA,""
"image-keyboard-response",488,1516335,"0.0-3.159-0.159","l4x14yxdea6ckhd",3,"138.csv","","2530.7000000029802","resources/trios/L1T4A3.jpg","37","restless",0.5,0.5,0.6,0.231030176940978,"true"
"image-keyboard-response",489,1516740,"0.0-3.159-1.159","l4x14yxdea6ckhd",3,"138.csv","","null","resources/maskTrios/L1BB.jpg","null","",NA,NA,NA,NA,""
"image-keyboard-response",490,1517942,"0.0-3.159-2.159","l4x14yxdea6ckhd",3,"138.csv","","null","resources/images/coin2.png","null","",NA,NA,NA,NA,""
"image-keyboard-response",491,1541483,"0.0-3.160-0.160","l4x14yxdea6ckhd",3,"138.csv","","23537.89999999106","resources/trios/L1T4A2.jpg","37","restless",0.5,0.5,0.6,0.575223866321415,"false"
"image-keyboard-response",492,1541886,"0.0-3.160-1.160","l4x14yxdea6ckhd",3,"138.csv","","null","resources/maskTrios/L1BB.jpg","null","",NA,NA,NA,NA,""
"image-keyboard-response",493,1543092,"0.0-3.160-2.160","l4x14yxdea6ckhd",3,"138.csv","","null","resources/images/fishbone.png","null","",NA,NA,NA,NA,""
"image-keyboard-response",494,1552637,"0.0-3.161-0.161","l4x14yxdea6ckhd",3,"138.csv","","9542.79999999702","resources/trios/L4T1A2.jpg","39","restless",0.5,0.5,0.7,0.352612750438547,"true"
"image-keyboard-response",495,1553040,"0.0-3.161-1.161","l4x14yxdea6ckhd",3,"138.csv","","null","resources/maskTrios/BBA2.jpg","null","",NA,NA,NA,NA,""
"image-keyboard-response",496,1554243,"0.0-3.161-2.161","l4x14yxdea6ckhd",3,"138.csv","","null","resources/images/coin2.png","null","",NA,NA,NA,NA,""
"image-keyboard-response",497,1556273,"0.0-3.162-0.162","l4x14yxdea6ckhd",3,"138.csv","","2027.699999988079","resources/trios/L1T4A2.jpg","38","restless",0.5,0.5,0.7,0.242854630101714,"true"
"image-keyboard-response",498,1556679,"0.0-3.162-1.162","l4x14yxdea6ckhd",3,"138.csv","","null","resources/maskTrios/BT4B.jpg","null","",NA,NA,NA,NA,""
"image-keyboard-response",499,1557885,"0.0-3.162-2.162","l4x14yxdea6ckhd",3,"138.csv","","null","resources/images/coin2.png","null","",NA,NA,NA,NA,""
"image-keyboard-response",500,1558184,"0.0-3.163-0.163","l4x14yxdea6ckhd",3,"138.csv","","296.69999998807907","resources/trios/L1T4A2.jpg","37","restless",0.5,0.5,0.7,0.191836853048064,"true"
"image-keyboard-response",501,1558588,"0.0-3.163-1.163","l4x14yxdea6ckhd",3,"138.csv","","null","resources/maskTrios/L1BB.jpg","null","",NA,NA,NA,NA,""
"image-keyboard-response",502,1559793,"0.0-3.163-2.163","l4x14yxdea6ckhd",3,"138.csv","","null","resources/images/coin2.png","null","",NA,NA,NA,NA,""
"image-keyboard-response",503,1559976,"0.0-3.164-0.164","l4x14yxdea6ckhd",3,"138.csv","","180.70000000298023","resources/trios/L1T4A3.jpg","39","restless",0.5,0.5,0.7,0.526005585269948,"true"
"image-keyboard-response",504,1560378,"0.0-3.164-1.164","l4x14yxdea6ckhd",3,"138.csv","","null","resources/maskTrios/BBA3.jpg","null","",NA,NA,NA,NA,""
"image-keyboard-response",505,1561585,"0.0-3.164-2.164","l4x14yxdea6ckhd",3,"138.csv","","null","resources/images/coin2.png","null","",NA,NA,NA,NA,""
"image-keyboard-response",506,1561837,"0.0-3.165-0.165","l4x14yxdea6ckhd",3,"138.csv","","249.5","resources/trios/L1T1A2.jpg","38","restless",0.5,0.5,0.7,0.787516608938334,"false"
"image-keyboard-response",507,1562243,"0.0-3.165-1.165","l4x14yxdea6ckhd",3,"138.csv","","null","resources/maskTrios/BT1B.jpg","null","",NA,NA,NA,NA,""
"image-keyboard-response",508,1563447,"0.0-3.165-2.165","l4x14yxdea6ckhd",3,"138.csv","","null","resources/images/fishbone.png","null","",NA,NA,NA,NA,""
"image-keyboard-response",509,1566028,"0.0-3.166-0.166","l4x14yxdea6ckhd",3,"138.csv","","2579.5999999940395","resources/trios/L1T4A3.jpg","39","restless",0.5,0.5,0.7,0.509378468108649,"true"
"image-keyboard-response",510,1566434,"0.0-3.166-1.166","l4x14yxdea6ckhd",3,"138.csv","","null","resources/maskTrios/BBA3.jpg","null","",NA,NA,NA,NA,""
"image-keyboard-response",511,1567639,"0.0-3.166-2.166","l4x14yxdea6ckhd",3,"138.csv","","null","resources/images/coin2.png","null","",NA,NA,NA,NA,""
"image-keyboard-response",512,1567935,"0.0-3.167-0.167","l4x14yxdea6ckhd",3,"138.csv","","294.6000000089407","resources/trios/L4T1A2.jpg","38","restless",0.5,0.6,0.7,0.140660799389278,"true"
"image-keyboard-response",513,1568338,"0.0-3.167-1.167","l4x14yxdea6ckhd",3,"138.csv","","null","resources/maskTrios/BT1B.jpg","null","",NA,NA,NA,NA,""
"image-keyboard-response",514,1569541,"0.0-3.167-2.167","l4x14yxdea6ckhd",3,"138.csv","","null","resources/images/coin2.png","null","",NA,NA,NA,NA,""
"image-keyboard-response",515,1569862,"0.0-3.168-0.168","l4x14yxdea6ckhd",3,"138.csv","","319.70000000298023","resources/trios/L1T1A2.jpg","37","restless",0.5,0.6,0.8,0.313467158819599,"true"
"image-keyboard-response",516,1570268,"0.0-3.168-1.168","l4x14yxdea6ckhd",3,"138.csv","","null","resources/maskTrios/L1BB.jpg","null","",NA,NA,NA,NA,""
"image-keyboard-response",517,1571471,"0.0-3.168-2.168","l4x14yxdea6ckhd",3,"138.csv","","null","resources/images/coin2.png","null","",NA,NA,NA,NA,""
"image-keyboard-response",518,1571713,"0.0-3.169-0.169","l4x14yxdea6ckhd",3,"138.csv","","240.20000000298023","resources/trios/L1T1A2.jpg","38","restless",0.5,0.6,0.8,0.975499373596033,"false"
"image-keyboard-response",519,1572118,"0.0-3.169-1.169","l4x14yxdea6ckhd",3,"138.csv","","null","resources/maskTrios/BT1B.jpg","null","",NA,NA,NA,NA,""
"image-keyboard-response",520,1573323,"0.0-3.169-2.169","l4x14yxdea6ckhd",3,"138.csv","","null","resources/images/fishbone.png","null","",NA,NA,NA,NA,""
"image-keyboard-response",521,1573568,"0.0-3.170-0.170","l4x14yxdea6ckhd",3,"138.csv","","243.3999999910593","resources/trios/L4T4A3.jpg","39","restless",0.5,0.6,0.8,0.523374430720049,"true"
"image-keyboard-response",522,1573973,"0.0-3.170-1.170","l4x14yxdea6ckhd",3,"138.csv","","null","resources/maskTrios/BBA3.jpg","null","",NA,NA,NA,NA,""
"image-keyboard-response",523,1575177,"0.0-3.170-2.170","l4x14yxdea6ckhd",3,"138.csv","","null","resources/images/coin2.png","null","",NA,NA,NA,NA,""
"image-keyboard-response",524,1575421,"0.0-3.171-0.171","l4x14yxdea6ckhd",3,"138.csv","","241.90000000596046","resources/trios/L1T4A3.jpg","38","restless",0.5,0.6,0.8,0.694136523863069,"false"
"image-keyboard-response",525,1575824,"0.0-3.171-1.171","l4x14yxdea6ckhd",3,"138.csv","","null","resources/maskTrios/BT4B.jpg","null","",NA,NA,NA,NA,""
"image-keyboard-response",526,1577029,"0.0-3.171-2.171","l4x14yxdea6ckhd",3,"138.csv","","null","resources/images/fishbone.png","null","",NA,NA,NA,NA,""
"image-keyboard-response",527,1577105,"0.0-3.172-0.172","l4x14yxdea6ckhd",3,"138.csv","","74.19999998807907","resources/trios/L4T1A2.jpg","37","restless",0.5,0.6,0.8,0.821855375812778,"false"
"image-keyboard-response",528,1577511,"0.0-3.172-1.172","l4x14yxdea6ckhd",3,"138.csv","","null","resources/maskTrios/L4BB.jpg","null","",NA,NA,NA,NA,""
"image-keyboard-response",529,1578715,"0.0-3.172-2.172","l4x14yxdea6ckhd",3,"138.csv","","null","resources/images/fishbone.png","null","",NA,NA,NA,NA,""
"image-keyboard-response",530,1579436,"0.0-3.173-0.173","l4x14yxdea6ckhd",3,"138.csv","","718.5999999940395","resources/trios/L1T1A3.jpg","37","restless",0.5,0.6,0.8,0.981509611331794,"false"
"image-keyboard-response",531,1579840,"0.0-3.173-1.173","l4x14yxdea6ckhd",3,"138.csv","","null","resources/maskTrios/L1BB.jpg","null","",NA,NA,NA,NA,""
"image-keyboard-response",532,1581046,"0.0-3.173-2.173","l4x14yxdea6ckhd",3,"138.csv","","null","resources/images/fishbone.png","null","",NA,NA,NA,NA,""
"image-keyboard-response",533,1581248,"0.0-3.174-0.174","l4x14yxdea6ckhd",3,"138.csv","","199.70000000298023","resources/trios/L1T1A2.jpg","37","restless",0.5,0.6,0.8,0.849909946074764,"false"
"image-keyboard-response",534,1581653,"0.0-3.174-1.174","l4x14yxdea6ckhd",3,"138.csv","","null","resources/maskTrios/L1BB.jpg","null","",NA,NA,NA,NA,""
"image-keyboard-response",535,1582855,"0.0-3.174-2.174","l4x14yxdea6ckhd",3,"138.csv","","null","resources/images/fishbone.png","null","",NA,NA,NA,NA,""
"image-keyboard-response",536,1582987,"0.0-3.175-0.175","l4x14yxdea6ckhd",3,"138.csv","","130.20000000298023","resources/trios/L4T1A3.jpg","37","restless",0.5,0.5,0.8,0.137453339431892,"true"
"image-keyboard-response",537,1583392,"0.0-3.175-1.175","l4x14yxdea6ckhd",3,"138.csv","","null","resources/maskTrios/L4BB.jpg","null","",NA,NA,NA,NA,""
"image-keyboard-response",538,1584599,"0.0-3.175-2.175","l4x14yxdea6ckhd",3,"138.csv","","null","resources/images/coin2.png","null","",NA,NA,NA,NA,""
"image-keyboard-response",539,1584777,"0.0-3.176-0.176","l4x14yxdea6ckhd",3,"138.csv","","176.20000000298023","resources/trios/L4T4A3.jpg","38","restless",0.5,0.5,0.8,0.399350624567433,"true"
"image-keyboard-response",540,1585180,"0.0-3.176-1.176","l4x14yxdea6ckhd",3,"138.csv","","null","resources/maskTrios/BT4B.jpg","null","",NA,NA,NA,NA,""
"image-keyboard-response",541,1586387,"0.0-3.176-2.176","l4x14yxdea6ckhd",3,"138.csv","","null","resources/images/coin2.png","null","",NA,NA,NA,NA,""
"image-keyboard-response",542,1586837,"0.0-3.177-0.177","l4x14yxdea6ckhd",3,"138.csv","","447.6000000089407","resources/trios/L4T4A3.jpg","39","restless",0.5,0.5,0.8,0.940224302055953,"false"
"image-keyboard-response",543,1587243,"0.0-3.177-1.177","l4x14yxdea6ckhd",3,"138.csv","","null","resources/maskTrios/BBA3.jpg","null","",NA,NA,NA,NA,""
"image-keyboard-response",544,1588448,"0.0-3.177-2.177","l4x14yxdea6ckhd",3,"138.csv","","null","resources/images/fishbone.png","null","",NA,NA,NA,NA,""
"image-keyboard-response",545,1588776,"0.0-3.178-0.178","l4x14yxdea6ckhd",3,"138.csv","","324.59999999403954","resources/trios/L1T4A3.jpg","39","restless",0.5,0.5,0.8,0.621792369919425,"true"
"image-keyboard-response",546,1589187,"0.0-3.178-1.178","l4x14yxdea6ckhd",3,"138.csv","","null","resources/maskTrios/BBA3.jpg","null","",NA,NA,NA,NA,""
"image-keyboard-response",547,1590391,"0.0-3.178-2.178","l4x14yxdea6ckhd",3,"138.csv","","null","resources/images/coin2.png","null","",NA,NA,NA,NA,""
"image-keyboard-response",548,1591146,"0.0-3.179-0.179","l4x14yxdea6ckhd",3,"138.csv","","753.7000000029802","resources/trios/L1T1A2.jpg","38","restless",0.6,0.5,0.8,0.967813376625845,"false"
"image-keyboard-response",549,1591553,"0.0-3.179-1.179","l4x14yxdea6ckhd",3,"138.csv","","null","resources/maskTrios/BT1B.jpg","null","",NA,NA,NA,NA,""
"image-keyboard-response",550,1592759,"0.0-3.179-2.179","l4x14yxdea6ckhd",3,"138.csv","","null","resources/images/fishbone.png","null","",NA,NA,NA,NA,""
"image-keyboard-response",551,1592978,"0.0-3.180-0.180","l4x14yxdea6ckhd",3,"138.csv","","217.29999999701977","resources/trios/L1T4A3.jpg","37","restless",0.6,0.5,0.8,0.00909077146674719,"true"
"image-keyboard-response",552,1593380,"0.0-3.180-1.180","l4x14yxdea6ckhd",3,"138.csv","","null","resources/maskTrios/L1BB.jpg","null","",NA,NA,NA,NA,""
"image-keyboard-response",553,1594583,"0.0-3.180-2.180","l4x14yxdea6ckhd",3,"138.csv","","null","resources/images/coin2.png","null","",NA,NA,NA,NA,""
"image-keyboard-response",554,1600037,"0.0-3.181-0.181","l4x14yxdea6ckhd",3,"138.csv","","5452.5999999940395","resources/trios/L4T4A2.jpg","39","restless",0.6,0.5,0.8,0.88556794184905,"false"
"image-keyboard-response",555,1600440,"0.0-3.181-1.181","l4x14yxdea6ckhd",3,"138.csv","","null","resources/maskTrios/BBA2.jpg","null","",NA,NA,NA,NA,""
"image-keyboard-response",556,1601646,"0.0-3.181-2.181","l4x14yxdea6ckhd",3,"138.csv","","null","resources/images/fishbone.png","null","",NA,NA,NA,NA,""
"image-keyboard-response",557,1602482,"0.0-3.182-0.182","l4x14yxdea6ckhd",3,"138.csv","","834.7999999970198","resources/trios/L1T1A2.jpg","38","restless",0.5,0.5,0.8,0.38316713798474,"true"
"image-keyboard-response",558,1602884,"0.0-3.182-1.182","l4x14yxdea6ckhd",3,"138.csv","","null","resources/maskTrios/BT1B.jpg","null","",NA,NA,NA,NA,""
"image-keyboard-response",559,1604087,"0.0-3.182-2.182","l4x14yxdea6ckhd",3,"138.csv","","null","resources/images/coin2.png","null","",NA,NA,NA,NA,""
"image-keyboard-response",560,1606545,"0.0-3.183-0.183","l4x14yxdea6ckhd",3,"138.csv","","2455.7000000029802","resources/trios/L1T1A3.jpg","39","restless",0.5,0.5,0.8,0.272286710902299,"true"
"image-keyboard-response",561,1606947,"0.0-3.183-1.183","l4x14yxdea6ckhd",3,"138.csv","","null","resources/maskTrios/BBA3.jpg","null","",NA,NA,NA,NA,""
"image-keyboard-response",562,1608152,"0.0-3.183-2.183","l4x14yxdea6ckhd",3,"138.csv","","null","resources/images/coin2.png","null","",NA,NA,NA,NA,""
"image-keyboard-response",563,1608653,"0.0-3.184-0.184","l4x14yxdea6ckhd",3,"138.csv","","500","resources/trios/L4T1A3.jpg","37","restless",0.5,0.5,0.8,0.00882655416510403,"true"
"image-keyboard-response",564,1609059,"0.0-3.184-1.184","l4x14yxdea6ckhd",3,"138.csv","","null","resources/maskTrios/L4BB.jpg","null","",NA,NA,NA,NA,""
"image-keyboard-response",565,1610265,"0.0-3.184-2.184","l4x14yxdea6ckhd",3,"138.csv","","null","resources/images/coin2.png","null","",NA,NA,NA,NA,""
"image-keyboard-response",566,1613184,"0.0-3.185-0.185","l4x14yxdea6ckhd",3,"138.csv","","2916.5999999940395","resources/trios/L4T4A3.jpg","39","restless",0.5,0.6,0.8,0.517548932030321,"true"
"image-keyboard-response",567,1613590,"0.0-3.185-1.185","l4x14yxdea6ckhd",3,"138.csv","","null","resources/maskTrios/BBA3.jpg","null","",NA,NA,NA,NA,""
"image-keyboard-response",568,1614793,"0.0-3.185-2.185","l4x14yxdea6ckhd",3,"138.csv","","null","resources/images/coin2.png","null","",NA,NA,NA,NA,""
"image-keyboard-response",569,1619127,"0.0-3.186-0.186","l4x14yxdea6ckhd",3,"138.csv","","4331.5999999940395","resources/trios/L4T1A3.jpg","38","restless",0.6,0.6,0.8,0.578750474743603,"true"
"image-keyboard-response",570,1619533,"0.0-3.186-1.186","l4x14yxdea6ckhd",3,"138.csv","","null","resources/maskTrios/BT1B.jpg","null","",NA,NA,NA,NA,""
"image-keyboard-response",571,1620738,"0.0-3.186-2.186","l4x14yxdea6ckhd",3,"138.csv","","null","resources/images/coin2.png","null","",NA,NA,NA,NA,""
"image-keyboard-response",572,1621143,"0.0-3.187-0.187","l4x14yxdea6ckhd",3,"138.csv","","403.70000000298023","resources/trios/L4T1A3.jpg","37","restless",0.6,0.6,0.8,0.440275696414332,"true"
"image-keyboard-response",573,1621549,"0.0-3.187-1.187","l4x14yxdea6ckhd",3,"138.csv","","null","resources/maskTrios/L4BB.jpg","null","",NA,NA,NA,NA,""
"image-keyboard-response",574,1622751,"0.0-3.187-2.187","l4x14yxdea6ckhd",3,"138.csv","","null","resources/images/coin2.png","null","",NA,NA,NA,NA,""
"image-keyboard-response",575,1625445,"0.0-3.188-0.188","l4x14yxdea6ckhd",3,"138.csv","","2692","resources/trios/L4T1A2.jpg","38","restless",0.6,0.6,0.8,0.202777937768279,"true"
"image-keyboard-response",576,1625850,"0.0-3.188-1.188","l4x14yxdea6ckhd",3,"138.csv","","null","resources/maskTrios/BT1B.jpg","null","",NA,NA,NA,NA,""
"image-keyboard-response",577,1627055,"0.0-3.188-2.188","l4x14yxdea6ckhd",3,"138.csv","","null","resources/images/coin2.png","null","",NA,NA,NA,NA,""
"image-keyboard-response",578,1627812,"0.0-3.189-0.189","l4x14yxdea6ckhd",3,"138.csv","","755.5","resources/trios/L1T1A3.jpg","39","restless",0.6,0.6,0.8,0.128653443608624,"true"
"image-keyboard-response",579,1628216,"0.0-3.189-1.189","l4x14yxdea6ckhd",3,"138.csv","","null","resources/maskTrios/BBA3.jpg","null","",NA,NA,NA,NA,""
"image-keyboard-response",580,1629422,"0.0-3.189-2.189","l4x14yxdea6ckhd",3,"138.csv","","null","resources/images/coin2.png","null","",NA,NA,NA,NA,""
"image-keyboard-response",581,1633417,"0.0-3.190-0.190","l4x14yxdea6ckhd",3,"138.csv","","3992.7999999970198","resources/trios/L1T1A3.jpg","37","restless",0.6,0.6,0.8,0.822827661839644,"false"
"image-keyboard-response",582,1633820,"0.0-3.190-1.190","l4x14yxdea6ckhd",3,"138.csv","","null","resources/maskTrios/L1BB.jpg","null","",NA,NA,NA,NA,""
"image-keyboard-response",583,1635026,"0.0-3.190-2.190","l4x14yxdea6ckhd",3,"138.csv","","null","resources/images/fishbone.png","null","",NA,NA,NA,NA,""
"image-keyboard-response",584,1635337,"0.0-3.191-0.191","l4x14yxdea6ckhd",3,"138.csv","","308.59999999403954","resources/trios/L4T1A3.jpg","38","restless",0.6,0.6,0.8,0.300258082413309,"true"
"image-keyboard-response",585,1635741,"0.0-3.191-1.191","l4x14yxdea6ckhd",3,"138.csv","","null","resources/maskTrios/BT1B.jpg","null","",NA,NA,NA,NA,""
"image-keyboard-response",586,1636946,"0.0-3.191-2.191","l4x14yxdea6ckhd",3,"138.csv","","null","resources/images/coin2.png","null","",NA,NA,NA,NA,""
"image-keyboard-response",587,1637254,"0.0-3.192-0.192","l4x14yxdea6ckhd",3,"138.csv","","306.29999999701977","resources/trios/L1T4A2.jpg","39","restless",0.5,0.6,0.8,0.883846474575708,"false"
"image-keyboard-response",588,1637659,"0.0-3.192-1.192","l4x14yxdea6ckhd",3,"138.csv","","null","resources/maskTrios/BBA2.jpg","null","",NA,NA,NA,NA,""
"image-keyboard-response",589,1638864,"0.0-3.192-2.192","l4x14yxdea6ckhd",3,"138.csv","","null","resources/images/fishbone.png","null","",NA,NA,NA,NA,""
"image-keyboard-response",590,1639144,"0.0-3.193-0.193","l4x14yxdea6ckhd",3,"138.csv","","278","resources/trios/L1T4A2.jpg","38","restless",0.5,0.6,0.8,0.454319315988305,"true"
"image-keyboard-response",591,1639546,"0.0-3.193-1.193","l4x14yxdea6ckhd",3,"138.csv","","null","resources/maskTrios/BT4B.jpg","null","",NA,NA,NA,NA,""
"image-keyboard-response",592,1640750,"0.0-3.193-2.193","l4x14yxdea6ckhd",3,"138.csv","","null","resources/images/coin2.png","null","",NA,NA,NA,NA,""
"image-keyboard-response",593,1640995,"0.0-3.194-0.194","l4x14yxdea6ckhd",3,"138.csv","","243","resources/trios/L1T4A2.jpg","37","restless",0.5,0.6,0.8,0.174005329470737,"true"
"image-keyboard-response",594,1641396,"0.0-3.194-1.194","l4x14yxdea6ckhd",3,"138.csv","","null","resources/maskTrios/L1BB.jpg","null","",NA,NA,NA,NA,""
"image-keyboard-response",595,1642603,"0.0-3.194-2.194","l4x14yxdea6ckhd",3,"138.csv","","null","resources/images/coin2.png","null","",NA,NA,NA,NA,""
"image-keyboard-response",596,1642909,"0.0-3.195-0.195","l4x14yxdea6ckhd",3,"138.csv","","303.90000000596046","resources/trios/L4T4A3.jpg","39","restless",0.5,0.6,0.8,0.372738003161693,"true"
"image-keyboard-response",597,1643315,"0.0-3.195-1.195","l4x14yxdea6ckhd",3,"138.csv","","null","resources/maskTrios/BBA3.jpg","null","",NA,NA,NA,NA,""
"image-keyboard-response",598,1644519,"0.0-3.195-2.195","l4x14yxdea6ckhd",3,"138.csv","","null","resources/images/coin2.png","null","",NA,NA,NA,NA,""
"image-keyboard-response",599,1648495,"0.0-3.196-0.196","l4x14yxdea6ckhd",3,"138.csv","","3974.0999999940395","resources/trios/L1T4A3.jpg","38","restless",0.5,0.6,0.8,0.366463783340091,"true"
"image-keyboard-response",600,1648901,"0.0-3.196-1.196","l4x14yxdea6ckhd",3,"138.csv","","null","resources/maskTrios/BT4B.jpg","null","",NA,NA,NA,NA,""
"image-keyboard-response",601,1650107,"0.0-3.196-2.196","l4x14yxdea6ckhd",3,"138.csv","","null","resources/images/coin2.png","null","",NA,NA,NA,NA,""
"image-keyboard-response",602,1651150,"0.0-3.197-0.197","l4x14yxdea6ckhd",3,"138.csv","","1041.5999999940395","resources/trios/L4T4A3.jpg","39","restless",0.5,0.6,0.8,0.501945055939721,"true"
"image-keyboard-response",603,1651555,"0.0-3.197-1.197","l4x14yxdea6ckhd",3,"138.csv","","null","resources/maskTrios/BBA3.jpg","null","",NA,NA,NA,NA,""
"image-keyboard-response",604,1652761,"0.0-3.197-2.197","l4x14yxdea6ckhd",3,"138.csv","","null","resources/images/coin2.png","null","",NA,NA,NA,NA,""
"image-keyboard-response",605,1652992,"0.0-3.198-0.198","l4x14yxdea6ckhd",3,"138.csv","","229.29999999701977","resources/trios/L4T4A2.jpg","37","restless",0.5,0.6,0.8,0.308658540021748,"true"
"image-keyboard-response",606,1653398,"0.0-3.198-1.198","l4x14yxdea6ckhd",3,"138.csv","","null","resources/maskTrios/L4BB.jpg","null","",NA,NA,NA,NA,""
"image-keyboard-response",607,1654604,"0.0-3.198-2.198","l4x14yxdea6ckhd",3,"138.csv","","null","resources/images/coin2.png","null","",NA,NA,NA,NA,""
"image-keyboard-response",608,1654927,"0.0-3.199-0.199","l4x14yxdea6ckhd",3,"138.csv","","320.3999999910593","resources/trios/L4T1A3.jpg","38","restless",0.5,0.6,0.8,0.171256621117611,"true"
"image-keyboard-response",609,1655330,"0.0-3.199-1.199","l4x14yxdea6ckhd",3,"138.csv","","null","resources/maskTrios/BT1B.jpg","null","",NA,NA,NA,NA,""
"image-keyboard-response",610,1656532,"0.0-3.199-2.199","l4x14yxdea6ckhd",3,"138.csv","","null","resources/images/coin2.png","null","",NA,NA,NA,NA,""
