"trial_type","trial_index","time_elapsed","internal_node_id","subject","participantCode","walkNumber","success","rt","stimulus","key_press","test_part","leftProb","midProb","rightProb","generatedNum","correct"
"pavlovia",0,1243,"0.0-0.0","prqczdd2huy7f28",475,"139.csv","","","","","",NA,NA,NA,NA,""
"fullscreen",1,4361,"0.0-1.0","prqczdd2huy7f28",475,"139.csv","true","","","","",NA,NA,NA,NA,""
"html-keyboard-response",2,6904,"0.0-2.0-0.0","prqczdd2huy7f28",475,"139.csv","","2540.7000000476837","<p><font size='6'>Arrrgh!</p></font><p>Can you be the best pirate? Try to find lots of gold! But beware, some islands have more gold than others, and over time, the island with the most gold may change. Can YOU figure it out? </p><font size='6'>GOOD LUCK, CAPTAIN!!!</font><p>Press any key to begin</p>","32","",NA,NA,NA,NA,""
"image-keyboard-response",3,9911,"0.0-2.0-1.0","prqczdd2huy7f28",475,"139.csv","","null","resources/image_sets/111.png","null","",NA,NA,NA,NA,""
"image-keyboard-response",4,15511,"0.0-2.0-2.0","prqczdd2huy7f28",475,"139.csv","","5597.299999952316","resources/image_sets/left_highlight.png","37","",NA,NA,NA,NA,""
"image-keyboard-response",5,19469,"0.0-2.0-3.0","prqczdd2huy7f28",475,"139.csv","","3955.2999999523163","resources/image_sets/mid_highlight.png","38","",NA,NA,NA,NA,""
"image-keyboard-response",6,21454,"0.0-2.0-4.0","prqczdd2huy7f28",475,"139.csv","","1983.2999999523163","resources/image_sets/right_highlight.png","39","",NA,NA,NA,NA,""
"image-keyboard-response",7,23971,"0.0-2.0-5.0","prqczdd2huy7f28",475,"139.csv","","2516.2999999523163","resources/image_sets/111.png","13","",NA,NA,NA,NA,""
"image-keyboard-response",8,26901,"0.0-2.0-6.0","prqczdd2huy7f28",475,"139.csv","","2927.7000000476837","resources/images/coin2.png","13","",NA,NA,NA,NA,""
"image-keyboard-response",9,28999,"0.0-2.0-7.0","prqczdd2huy7f28",475,"139.csv","","2096.9000000953674","resources/images/fishbone.png","13","",NA,NA,NA,NA,""
"html-keyboard-response",10,29950,"0.0-2.0-8.0","prqczdd2huy7f28",475,"139.csv","","949","<p>Your first journey will be a long one, but you will get a well deserved break at the end</p><p>After the break you will have four more journeys, but each will be much shorter than the first, and you will have breaks in between each</p><p>Press Enter to begin</p>","13","",NA,NA,NA,NA,""
"image-keyboard-response",11,31724,"0.0-3.0-0.0","prqczdd2huy7f28",475,"139.csv","","1770.7000000476837","resources/trios/L2T4A2.jpg","38","restless",0.7,0.3,0.9,0.840570674158086,"false"
"image-keyboard-response",12,32133,"0.0-3.0-1.0","prqczdd2huy7f28",475,"139.csv","","null","resources/maskTrios/BT4B.jpg","null","",NA,NA,NA,NA,""
"image-keyboard-response",13,33340,"0.0-3.0-2.0","prqczdd2huy7f28",475,"139.csv","","null","resources/images/fishbone.png","null","",NA,NA,NA,NA,""
"image-keyboard-response",14,37264,"0.0-3.1-0.1","prqczdd2huy7f28",475,"139.csv","","3920.2999999523163","resources/trios/L4T1A2.jpg","39","restless",0.7,0.3,0.9,0.533489714158273,"true"
"image-keyboard-response",15,37671,"0.0-3.1-1.1","prqczdd2huy7f28",475,"139.csv","","null","resources/maskTrios/BBA2.jpg","null","",NA,NA,NA,NA,""
"image-keyboard-response",16,38879,"0.0-3.1-2.1","prqczdd2huy7f28",475,"139.csv","","null","resources/images/coin2.png","null","",NA,NA,NA,NA,""
"image-keyboard-response",17,40334,"0.0-3.2-0.2","prqczdd2huy7f28",475,"139.csv","","1452.7999999523163","resources/trios/L2T1A2.jpg","39","restless",0.7,0.3,0.9,0.896241392962395,"true"
"image-keyboard-response",18,40741,"0.0-3.2-1.2","prqczdd2huy7f28",475,"139.csv","","null","resources/maskTrios/BBA2.jpg","null","",NA,NA,NA,NA,""
"image-keyboard-response",19,41948,"0.0-3.2-2.2","prqczdd2huy7f28",475,"139.csv","","null","resources/images/coin2.png","null","",NA,NA,NA,NA,""
"image-keyboard-response",20,42509,"0.0-3.3-0.3","prqczdd2huy7f28",475,"139.csv","","558.5999999046326","resources/trios/L2T1A2.jpg","39","restless",0.7,0.3,0.9,0.418257872072244,"true"
"image-keyboard-response",21,42916,"0.0-3.3-1.3","prqczdd2huy7f28",475,"139.csv","","null","resources/maskTrios/BBA2.jpg","null","",NA,NA,NA,NA,""
"image-keyboard-response",22,44122,"0.0-3.3-2.3","prqczdd2huy7f28",475,"139.csv","","null","resources/images/coin2.png","null","",NA,NA,NA,NA,""
"image-keyboard-response",23,44608,"0.0-3.4-0.4","prqczdd2huy7f28",475,"139.csv","","483.40000009536743","resources/trios/L2T1A1.jpg","39","restless",0.7,0.3,0.9,0.597646117610651,"true"
"image-keyboard-response",24,45014,"0.0-3.4-1.4","prqczdd2huy7f28",475,"139.csv","","null","resources/maskTrios/BBA1.jpg","null","",NA,NA,NA,NA,""
"image-keyboard-response",25,46221,"0.0-3.4-2.4","prqczdd2huy7f28",475,"139.csv","","null","resources/images/coin2.png","null","",NA,NA,NA,NA,""
"image-keyboard-response",26,46866,"0.0-3.5-0.5","prqczdd2huy7f28",475,"139.csv","","642.1999998092651","resources/trios/L2T4A2.jpg","39","restless",0.7,0.3,0.9,0.969833007215173,"false"
"image-keyboard-response",27,47269,"0.0-3.5-1.5","prqczdd2huy7f28",475,"139.csv","","null","resources/maskTrios/BBA2.jpg","null","",NA,NA,NA,NA,""
"image-keyboard-response",28,48475,"0.0-3.5-2.5","prqczdd2huy7f28",475,"139.csv","","null","resources/images/fishbone.png","null","",NA,NA,NA,NA,""
"image-keyboard-response",29,49389,"0.0-3.6-0.6","prqczdd2huy7f28",475,"139.csv","","911.4000000953674","resources/trios/L2T1A1.jpg","37","restless",0.7,0.3,0.9,0.620872208695839,"true"
"image-keyboard-response",30,49795,"0.0-3.6-1.6","prqczdd2huy7f28",475,"139.csv","","null","resources/maskTrios/L2BB.jpg","null","",NA,NA,NA,NA,""
"image-keyboard-response",31,51002,"0.0-3.6-2.6","prqczdd2huy7f28",475,"139.csv","","null","resources/images/coin2.png","null","",NA,NA,NA,NA,""
"image-keyboard-response",32,51438,"0.0-3.7-0.7","prqczdd2huy7f28",475,"139.csv","","433.5","resources/trios/L2T1A1.jpg","37","restless",0.7,0.3,0.9,0.236264029769664,"true"
"image-keyboard-response",33,51844,"0.0-3.7-1.7","prqczdd2huy7f28",475,"139.csv","","null","resources/maskTrios/L2BB.jpg","null","",NA,NA,NA,NA,""
"image-keyboard-response",34,53047,"0.0-3.7-2.7","prqczdd2huy7f28",475,"139.csv","","null","resources/images/coin2.png","null","",NA,NA,NA,NA,""
"image-keyboard-response",35,53592,"0.0-3.8-0.8","prqczdd2huy7f28",475,"139.csv","","542.5","resources/trios/L4T1A2.jpg","37","restless",0.7,0.3,0.8,0.858662802426214,"false"
"image-keyboard-response",36,53993,"0.0-3.8-1.8","prqczdd2huy7f28",475,"139.csv","","null","resources/maskTrios/L4BB.jpg","null","",NA,NA,NA,NA,""
"image-keyboard-response",37,55200,"0.0-3.8-2.8","prqczdd2huy7f28",475,"139.csv","","null","resources/images/fishbone.png","null","",NA,NA,NA,NA,""
"image-keyboard-response",38,55501,"0.0-3.9-0.9","prqczdd2huy7f28",475,"139.csv","","299.5","resources/trios/L4T1A1.jpg","37","restless",0.7,0.3,0.8,0.60756018559622,"true"
"image-keyboard-response",39,55908,"0.0-3.9-1.9","prqczdd2huy7f28",475,"139.csv","","null","resources/maskTrios/L4BB.jpg","null","",NA,NA,NA,NA,""
"image-keyboard-response",40,57112,"0.0-3.9-2.9","prqczdd2huy7f28",475,"139.csv","","null","resources/images/coin2.png","null","",NA,NA,NA,NA,""
"image-keyboard-response",41,57354,"0.0-3.10-0.10","prqczdd2huy7f28",475,"139.csv","","240.09999990463257","resources/trios/L2T4A1.jpg","37","restless",0.7,0.3,0.8,0.0825482800813742,"true"
"image-keyboard-response",42,57761,"0.0-3.10-1.10","prqczdd2huy7f28",475,"139.csv","","null","resources/maskTrios/L2BB.jpg","null","",NA,NA,NA,NA,""
"image-keyboard-response",43,58969,"0.0-3.10-2.10","prqczdd2huy7f28",475,"139.csv","","null","resources/images/coin2.png","null","",NA,NA,NA,NA,""
"image-keyboard-response",44,59296,"0.0-3.11-0.11","prqczdd2huy7f28",475,"139.csv","","325.2000000476837","resources/trios/L4T1A2.jpg","37","restless",0.7,0.3,0.8,0.421252505903128,"true"
"image-keyboard-response",45,59702,"0.0-3.11-1.11","prqczdd2huy7f28",475,"139.csv","","null","resources/maskTrios/L4BB.jpg","null","",NA,NA,NA,NA,""
"image-keyboard-response",46,60910,"0.0-3.11-2.11","prqczdd2huy7f28",475,"139.csv","","null","resources/images/coin2.png","null","",NA,NA,NA,NA,""
"image-keyboard-response",47,61071,"0.0-3.12-0.12","prqczdd2huy7f28",475,"139.csv","","159.5","resources/trios/L4T4A1.jpg","37","restless",0.7,0.3,0.8,0.730223535995176,"false"
"image-keyboard-response",48,61476,"0.0-3.12-1.12","prqczdd2huy7f28",475,"139.csv","","null","resources/maskTrios/L4BB.jpg","null","",NA,NA,NA,NA,""
"image-keyboard-response",49,62680,"0.0-3.12-2.12","prqczdd2huy7f28",475,"139.csv","","null","resources/images/fishbone.png","null","",NA,NA,NA,NA,""
"image-keyboard-response",50,62849,"0.0-3.13-0.13","prqczdd2huy7f28",475,"139.csv","","166.70000004768372","resources/trios/L2T1A1.jpg","37","restless",0.7,0.3,0.8,0.729970687415693,"false"
"image-keyboard-response",51,63253,"0.0-3.13-1.13","prqczdd2huy7f28",475,"139.csv","","null","resources/maskTrios/L2BB.jpg","null","",NA,NA,NA,NA,""
"image-keyboard-response",52,64459,"0.0-3.13-2.13","prqczdd2huy7f28",475,"139.csv","","null","resources/images/fishbone.png","null","",NA,NA,NA,NA,""
"image-keyboard-response",53,64825,"0.0-3.14-0.14","prqczdd2huy7f28",475,"139.csv","","363.09999990463257","resources/trios/L4T1A2.jpg","37","restless",0.7,0.3,0.8,0.636933837773756,"true"
"image-keyboard-response",54,65229,"0.0-3.14-1.14","prqczdd2huy7f28",475,"139.csv","","null","resources/maskTrios/L4BB.jpg","null","",NA,NA,NA,NA,""
"image-keyboard-response",55,66436,"0.0-3.14-2.14","prqczdd2huy7f28",475,"139.csv","","null","resources/images/coin2.png","null","",NA,NA,NA,NA,""
"image-keyboard-response",56,66831,"0.0-3.15-0.15","prqczdd2huy7f28",475,"139.csv","","392.90000009536743","resources/trios/L4T1A2.jpg","37","restless",0.6,0.3,0.8,0.481211613944832,"true"
"image-keyboard-response",57,67238,"0.0-3.15-1.15","prqczdd2huy7f28",475,"139.csv","","null","resources/maskTrios/L4BB.jpg","null","",NA,NA,NA,NA,""
"image-keyboard-response",58,68443,"0.0-3.15-2.15","prqczdd2huy7f28",475,"139.csv","","null","resources/images/coin2.png","null","",NA,NA,NA,NA,""
"image-keyboard-response",59,68454,"0.0-3.16-0.16","prqczdd2huy7f28",475,"139.csv","","9.200000047683716","resources/trios/L2T4A2.jpg","37","restless",0.6,0.3,0.8,0.100822436535393,"true"
"image-keyboard-response",60,68856,"0.0-3.16-1.16","prqczdd2huy7f28",475,"139.csv","","null","resources/maskTrios/L2BB.jpg","null","",NA,NA,NA,NA,""
"image-keyboard-response",61,70062,"0.0-3.16-2.16","prqczdd2huy7f28",475,"139.csv","","null","resources/images/coin2.png","null","",NA,NA,NA,NA,""
"image-keyboard-response",62,71307,"0.0-3.17-0.17","prqczdd2huy7f28",475,"139.csv","","1242.7999999523163","resources/trios/L4T1A2.jpg","39","restless",0.6,0.3,0.8,0.729784361643619,"true"
"image-keyboard-response",63,71711,"0.0-3.17-1.17","prqczdd2huy7f28",475,"139.csv","","null","resources/maskTrios/BBA2.jpg","null","",NA,NA,NA,NA,""
"image-keyboard-response",64,72917,"0.0-3.17-2.17","prqczdd2huy7f28",475,"139.csv","","null","resources/images/coin2.png","null","",NA,NA,NA,NA,""
"image-keyboard-response",65,73298,"0.0-3.18-0.18","prqczdd2huy7f28",475,"139.csv","","378.60000014305115","resources/trios/L2T1A2.jpg","39","restless",0.6,0.4,0.8,0.923206513368392,"false"
"image-keyboard-response",66,73705,"0.0-3.18-1.18","prqczdd2huy7f28",475,"139.csv","","null","resources/maskTrios/BBA2.jpg","null","",NA,NA,NA,NA,""
"image-keyboard-response",67,74908,"0.0-3.18-2.18","prqczdd2huy7f28",475,"139.csv","","null","resources/images/fishbone.png","null","",NA,NA,NA,NA,""
"image-keyboard-response",68,75276,"0.0-3.19-0.19","prqczdd2huy7f28",475,"139.csv","","365.7999999523163","resources/trios/L4T1A2.jpg","37","restless",0.6,0.4,0.8,0.851365502566142,"false"
"image-keyboard-response",69,75683,"0.0-3.19-1.19","prqczdd2huy7f28",475,"139.csv","","null","resources/maskTrios/L4BB.jpg","null","",NA,NA,NA,NA,""
"image-keyboard-response",70,76885,"0.0-3.19-2.19","prqczdd2huy7f28",475,"139.csv","","null","resources/images/fishbone.png","null","",NA,NA,NA,NA,""
"image-keyboard-response",71,77643,"0.0-3.20-0.20","prqczdd2huy7f28",475,"139.csv","","756.3999998569489","resources/trios/L2T4A1.jpg","39","restless",0.6,0.4,0.8,0.962970231448497,"false"
"image-keyboard-response",72,78047,"0.0-3.20-1.20","prqczdd2huy7f28",475,"139.csv","","null","resources/maskTrios/BBA1.jpg","null","",NA,NA,NA,NA,""
"image-keyboard-response",73,79254,"0.0-3.20-2.20","prqczdd2huy7f28",475,"139.csv","","null","resources/images/fishbone.png","null","",NA,NA,NA,NA,""
"image-keyboard-response",74,79979,"0.0-3.21-0.21","prqczdd2huy7f28",475,"139.csv","","722.2999999523163","resources/trios/L4T1A1.jpg","38","restless",0.6,0.5,0.8,0.0913850689424143,"true"
"image-keyboard-response",75,80382,"0.0-3.21-1.21","prqczdd2huy7f28",475,"139.csv","","null","resources/maskTrios/BT1B.jpg","null","",NA,NA,NA,NA,""
"image-keyboard-response",76,81587,"0.0-3.21-2.21","prqczdd2huy7f28",475,"139.csv","","null","resources/images/coin2.png","null","",NA,NA,NA,NA,""
"image-keyboard-response",77,82090,"0.0-3.22-0.22","prqczdd2huy7f28",475,"139.csv","","500.90000009536743","resources/trios/L4T4A2.jpg","38","restless",0.6,0.6,0.8,0.1965843628383,"true"
"image-keyboard-response",78,82497,"0.0-3.22-1.22","prqczdd2huy7f28",475,"139.csv","","null","resources/maskTrios/BT4B.jpg","null","",NA,NA,NA,NA,""
"image-keyboard-response",79,83703,"0.0-3.22-2.22","prqczdd2huy7f28",475,"139.csv","","null","resources/images/coin2.png","null","",NA,NA,NA,NA,""
"image-keyboard-response",80,85761,"0.0-3.23-0.23","prqczdd2huy7f28",475,"139.csv","","2055.899999856949","resources/trios/L4T1A2.jpg","38","restless",0.6,0.6,0.7,0.185272130156813,"true"
"image-keyboard-response",81,86168,"0.0-3.23-1.23","prqczdd2huy7f28",475,"139.csv","","null","resources/maskTrios/BT1B.jpg","null","",NA,NA,NA,NA,""
"image-keyboard-response",82,87375,"0.0-3.23-2.23","prqczdd2huy7f28",475,"139.csv","","null","resources/images/coin2.png","null","",NA,NA,NA,NA,""
"image-keyboard-response",83,88762,"0.0-3.24-0.24","prqczdd2huy7f28",475,"139.csv","","1384.2000000476837","resources/trios/L2T1A2.jpg","38","restless",0.5,0.6,0.7,0.412700604446853,"true"
"image-keyboard-response",84,89164,"0.0-3.24-1.24","prqczdd2huy7f28",475,"139.csv","","null","resources/maskTrios/BT1B.jpg","null","",NA,NA,NA,NA,""
"image-keyboard-response",85,90371,"0.0-3.24-2.24","prqczdd2huy7f28",475,"139.csv","","null","resources/images/coin2.png","null","",NA,NA,NA,NA,""
"image-keyboard-response",86,92448,"0.0-3.25-0.25","prqczdd2huy7f28",475,"139.csv","","2075.2999999523163","resources/trios/L4T4A2.jpg","37","restless",0.5,0.5,0.7,0.772226183732292,"false"
"image-keyboard-response",87,92854,"0.0-3.25-1.25","prqczdd2huy7f28",475,"139.csv","","null","resources/maskTrios/L4BB.jpg","null","",NA,NA,NA,NA,""
"image-keyboard-response",88,94061,"0.0-3.25-2.25","prqczdd2huy7f28",475,"139.csv","","null","resources/images/fishbone.png","null","",NA,NA,NA,NA,""
"image-keyboard-response",89,94400,"0.0-3.26-0.26","prqczdd2huy7f28",475,"139.csv","","336.60000014305115","resources/trios/L2T4A1.jpg","38","restless",0.5,0.5,0.6,0.764788707339338,"false"
"image-keyboard-response",90,94805,"0.0-3.26-1.26","prqczdd2huy7f28",475,"139.csv","","null","resources/maskTrios/BT4B.jpg","null","",NA,NA,NA,NA,""
"image-keyboard-response",91,96012,"0.0-3.26-2.26","prqczdd2huy7f28",475,"139.csv","","null","resources/images/fishbone.png","null","",NA,NA,NA,NA,""
"image-keyboard-response",92,96333,"0.0-3.27-0.27","prqczdd2huy7f28",475,"139.csv","","318.40000009536743","resources/trios/L4T1A2.jpg","39","restless",0.5,0.5,0.5,0.262628057445897,"true"
"image-keyboard-response",93,96740,"0.0-3.27-1.27","prqczdd2huy7f28",475,"139.csv","","null","resources/maskTrios/BBA2.jpg","null","",NA,NA,NA,NA,""
"image-keyboard-response",94,97947,"0.0-3.27-2.27","prqczdd2huy7f28",475,"139.csv","","null","resources/images/coin2.png","null","",NA,NA,NA,NA,""
"image-keyboard-response",95,98479,"0.0-3.28-0.28","prqczdd2huy7f28",475,"139.csv","","529.7999999523163","resources/trios/L4T1A2.jpg","39","restless",0.5,0.5,0.5,0.721679053221157,"false"
"image-keyboard-response",96,98886,"0.0-3.28-1.28","prqczdd2huy7f28",475,"139.csv","","null","resources/maskTrios/BBA2.jpg","null","",NA,NA,NA,NA,""
"image-keyboard-response",97,100090,"0.0-3.28-2.28","prqczdd2huy7f28",475,"139.csv","","null","resources/images/fishbone.png","null","",NA,NA,NA,NA,""
"image-keyboard-response",98,100651,"0.0-3.29-0.29","prqczdd2huy7f28",475,"139.csv","","558","resources/trios/L2T1A1.jpg","37","restless",0.5,0.5,0.5,0.363738665215764,"true"
"image-keyboard-response",99,101058,"0.0-3.29-1.29","prqczdd2huy7f28",475,"139.csv","","null","resources/maskTrios/L2BB.jpg","null","",NA,NA,NA,NA,""
"image-keyboard-response",100,102260,"0.0-3.29-2.29","prqczdd2huy7f28",475,"139.csv","","null","resources/images/coin2.png","null","",NA,NA,NA,NA,""
"image-keyboard-response",101,102819,"0.0-3.30-0.30","prqczdd2huy7f28",475,"139.csv","","557.2000000476837","resources/trios/L4T1A1.jpg","37","restless",0.5,0.5,0.5,0.313712408194918,"true"
"image-keyboard-response",102,103226,"0.0-3.30-1.30","prqczdd2huy7f28",475,"139.csv","","null","resources/maskTrios/L4BB.jpg","null","",NA,NA,NA,NA,""
"image-keyboard-response",103,104434,"0.0-3.30-2.30","prqczdd2huy7f28",475,"139.csv","","null","resources/images/coin2.png","null","",NA,NA,NA,NA,""
"image-keyboard-response",104,105227,"0.0-3.31-0.31","prqczdd2huy7f28",475,"139.csv","","790.8999998569489","resources/trios/L2T4A1.jpg","37","restless",0.5,0.5,0.5,0.719191704428068,"false"
"image-keyboard-response",105,105634,"0.0-3.31-1.31","prqczdd2huy7f28",475,"139.csv","","null","resources/maskTrios/L2BB.jpg","null","",NA,NA,NA,NA,""
"image-keyboard-response",106,106839,"0.0-3.31-2.31","prqczdd2huy7f28",475,"139.csv","","null","resources/images/fishbone.png","null","",NA,NA,NA,NA,""
"image-keyboard-response",107,107151,"0.0-3.32-0.32","prqczdd2huy7f28",475,"139.csv","","310","resources/trios/L2T1A2.jpg","38","restless",0.5,0.5,0.5,0.857845025920662,"false"
"image-keyboard-response",108,107559,"0.0-3.32-1.32","prqczdd2huy7f28",475,"139.csv","","null","resources/maskTrios/BT1B.jpg","null","",NA,NA,NA,NA,""
"image-keyboard-response",109,108765,"0.0-3.32-2.32","prqczdd2huy7f28",475,"139.csv","","null","resources/images/fishbone.png","null","",NA,NA,NA,NA,""
"image-keyboard-response",110,108991,"0.0-3.33-0.33","prqczdd2huy7f28",475,"139.csv","","223.79999995231628","resources/trios/L4T4A2.jpg","39","restless",0.5,0.5,0.5,0.54067878137478,"false"
"image-keyboard-response",111,109399,"0.0-3.33-1.33","prqczdd2huy7f28",475,"139.csv","","null","resources/maskTrios/BBA2.jpg","null","",NA,NA,NA,NA,""
"image-keyboard-response",112,110606,"0.0-3.33-2.33","prqczdd2huy7f28",475,"139.csv","","null","resources/images/fishbone.png","null","",NA,NA,NA,NA,""
"image-keyboard-response",113,110732,"0.0-3.34-0.34","prqczdd2huy7f28",475,"139.csv","","124.20000004768372","resources/trios/L4T1A2.jpg","37","restless",0.5,0.5,0.5,0.672973803395684,"false"
"image-keyboard-response",114,111138,"0.0-3.34-1.34","prqczdd2huy7f28",475,"139.csv","","null","resources/maskTrios/L4BB.jpg","null","",NA,NA,NA,NA,""
"image-keyboard-response",115,112343,"0.0-3.34-2.34","prqczdd2huy7f28",475,"139.csv","","null","resources/images/fishbone.png","null","",NA,NA,NA,NA,""
"image-keyboard-response",116,113242,"0.0-3.35-0.35","prqczdd2huy7f28",475,"139.csv","","897.2999999523163","resources/trios/L2T1A2.jpg","38","restless",0.5,0.5,0.5,0.104206845800929,"true"
"image-keyboard-response",117,113649,"0.0-3.35-1.35","prqczdd2huy7f28",475,"139.csv","","null","resources/maskTrios/BT1B.jpg","null","",NA,NA,NA,NA,""
"image-keyboard-response",118,114856,"0.0-3.35-2.35","prqczdd2huy7f28",475,"139.csv","","null","resources/images/coin2.png","null","",NA,NA,NA,NA,""
"image-keyboard-response",119,115383,"0.0-3.36-0.36","prqczdd2huy7f28",475,"139.csv","","524.4000000953674","resources/trios/L4T1A1.jpg","38","restless",0.5,0.5,0.4,0.578743810345051,"false"
"image-keyboard-response",120,115789,"0.0-3.36-1.36","prqczdd2huy7f28",475,"139.csv","","null","resources/maskTrios/BT1B.jpg","null","",NA,NA,NA,NA,""
"image-keyboard-response",121,116995,"0.0-3.36-2.36","prqczdd2huy7f28",475,"139.csv","","null","resources/images/fishbone.png","null","",NA,NA,NA,NA,""
"image-keyboard-response",122,117358,"0.0-3.37-0.37","prqczdd2huy7f28",475,"139.csv","","360.7000000476837","resources/trios/L4T1A2.jpg","37","restless",0.5,0.5,0.4,0.263413013058817,"true"
"image-keyboard-response",123,117765,"0.0-3.37-1.37","prqczdd2huy7f28",475,"139.csv","","null","resources/maskTrios/L4BB.jpg","null","",NA,NA,NA,NA,""
"image-keyboard-response",124,118972,"0.0-3.37-2.37","prqczdd2huy7f28",475,"139.csv","","null","resources/images/coin2.png","null","",NA,NA,NA,NA,""
"image-keyboard-response",125,119414,"0.0-3.38-0.38","prqczdd2huy7f28",475,"139.csv","","439.90000009536743","resources/trios/L4T1A1.jpg","37","restless",0.4,0.5,0.4,0.212873946496923,"true"
"image-keyboard-response",126,119821,"0.0-3.38-1.38","prqczdd2huy7f28",475,"139.csv","","null","resources/maskTrios/L4BB.jpg","null","",NA,NA,NA,NA,""
"image-keyboard-response",127,121028,"0.0-3.38-2.38","prqczdd2huy7f28",475,"139.csv","","null","resources/images/coin2.png","null","",NA,NA,NA,NA,""
"image-keyboard-response",128,121598,"0.0-3.39-0.39","prqczdd2huy7f28",475,"139.csv","","568.4000000953674","resources/trios/L2T4A1.jpg","37","restless",0.4,0.6,0.4,0.574167848370794,"false"
"image-keyboard-response",129,122000,"0.0-3.39-1.39","prqczdd2huy7f28",475,"139.csv","","null","resources/maskTrios/L2BB.jpg","null","",NA,NA,NA,NA,""
"image-keyboard-response",130,123207,"0.0-3.39-2.39","prqczdd2huy7f28",475,"139.csv","","null","resources/images/fishbone.png","null","",NA,NA,NA,NA,""
"image-keyboard-response",131,123692,"0.0-3.40-0.40","prqczdd2huy7f28",475,"139.csv","","483.5","resources/trios/L4T4A1.jpg","38","restless",0.4,0.6,0.5,0.239712547507156,"true"
"image-keyboard-response",132,124099,"0.0-3.40-1.40","prqczdd2huy7f28",475,"139.csv","","null","resources/maskTrios/BT4B.jpg","null","",NA,NA,NA,NA,""
"image-keyboard-response",133,125305,"0.0-3.40-2.40","prqczdd2huy7f28",475,"139.csv","","null","resources/images/coin2.png","null","",NA,NA,NA,NA,""
"image-keyboard-response",134,125716,"0.0-3.41-0.41","prqczdd2huy7f28",475,"139.csv","","409.7000000476837","resources/trios/L2T1A2.jpg","38","restless",0.4,0.6,0.5,0.218107318150824,"true"
"image-keyboard-response",135,126123,"0.0-3.41-1.41","prqczdd2huy7f28",475,"139.csv","","null","resources/maskTrios/BT1B.jpg","null","",NA,NA,NA,NA,""
"image-keyboard-response",136,127330,"0.0-3.41-2.41","prqczdd2huy7f28",475,"139.csv","","null","resources/images/coin2.png","null","",NA,NA,NA,NA,""
"image-keyboard-response",137,127892,"0.0-3.42-0.42","prqczdd2huy7f28",475,"139.csv","","559.5999999046326","resources/trios/L2T4A2.jpg","38","restless",0.4,0.6,0.6,0.531831882115242,"true"
"image-keyboard-response",138,128299,"0.0-3.42-1.42","prqczdd2huy7f28",475,"139.csv","","null","resources/maskTrios/BT4B.jpg","null","",NA,NA,NA,NA,""
"image-keyboard-response",139,129502,"0.0-3.42-2.42","prqczdd2huy7f28",475,"139.csv","","null","resources/images/coin2.png","null","",NA,NA,NA,NA,""
"image-keyboard-response",140,130116,"0.0-3.43-0.43","prqczdd2huy7f28",475,"139.csv","","612","resources/trios/L2T4A1.jpg","38","restless",0.4,0.6,0.6,0.530438267821399,"true"
"image-keyboard-response",141,130524,"0.0-3.43-1.43","prqczdd2huy7f28",475,"139.csv","","null","resources/maskTrios/BT4B.jpg","null","",NA,NA,NA,NA,""
"image-keyboard-response",142,131726,"0.0-3.43-2.43","prqczdd2huy7f28",475,"139.csv","","null","resources/images/coin2.png","null","",NA,NA,NA,NA,""
"image-keyboard-response",143,133092,"0.0-3.44-0.44","prqczdd2huy7f28",475,"139.csv","","1363.9000000953674","resources/trios/L2T1A2.jpg","38","restless",0.4,0.6,0.6,0.566427083987746,"true"
"image-keyboard-response",144,133496,"0.0-3.44-1.44","prqczdd2huy7f28",475,"139.csv","","null","resources/maskTrios/BT1B.jpg","null","",NA,NA,NA,NA,""
"image-keyboard-response",145,134703,"0.0-3.44-2.44","prqczdd2huy7f28",475,"139.csv","","null","resources/images/coin2.png","null","",NA,NA,NA,NA,""
"image-keyboard-response",146,135356,"0.0-3.45-0.45","prqczdd2huy7f28",475,"139.csv","","650.2000000476837","resources/trios/L2T4A1.jpg","38","restless",0.4,0.6,0.6,0.075719978400117,"true"
"image-keyboard-response",147,135760,"0.0-3.45-1.45","prqczdd2huy7f28",475,"139.csv","","null","resources/maskTrios/BT4B.jpg","null","",NA,NA,NA,NA,""
"image-keyboard-response",148,136964,"0.0-3.45-2.45","prqczdd2huy7f28",475,"139.csv","","null","resources/images/coin2.png","null","",NA,NA,NA,NA,""
"image-keyboard-response",149,138210,"0.0-3.46-0.46","prqczdd2huy7f28",475,"139.csv","","1244","resources/trios/L4T4A2.jpg","39","restless",0.4,0.5,0.6,0.454611716270027,"true"
"image-keyboard-response",150,138617,"0.0-3.46-1.46","prqczdd2huy7f28",475,"139.csv","","null","resources/maskTrios/BBA2.jpg","null","",NA,NA,NA,NA,""
"image-keyboard-response",151,139824,"0.0-3.46-2.46","prqczdd2huy7f28",475,"139.csv","","null","resources/images/coin2.png","null","",NA,NA,NA,NA,""
"image-keyboard-response",152,140142,"0.0-3.47-0.47","prqczdd2huy7f28",475,"139.csv","","316.2999999523163","resources/trios/L4T1A2.jpg","39","restless",0.4,0.5,0.6,0.0836512091129265,"true"
"image-keyboard-response",153,140549,"0.0-3.47-1.47","prqczdd2huy7f28",475,"139.csv","","null","resources/maskTrios/BBA2.jpg","null","",NA,NA,NA,NA,""
"image-keyboard-response",154,141756,"0.0-3.47-2.47","prqczdd2huy7f28",475,"139.csv","","null","resources/images/coin2.png","null","",NA,NA,NA,NA,""
"image-keyboard-response",155,142082,"0.0-3.48-0.48","prqczdd2huy7f28",475,"139.csv","","323.59999990463257","resources/trios/L2T4A2.jpg","39","restless",0.4,0.4,0.6,0.626528280646605,"false"
"image-keyboard-response",156,142489,"0.0-3.48-1.48","prqczdd2huy7f28",475,"139.csv","","null","resources/maskTrios/BBA2.jpg","null","",NA,NA,NA,NA,""
"image-keyboard-response",157,143694,"0.0-3.48-2.48","prqczdd2huy7f28",475,"139.csv","","null","resources/images/fishbone.png","null","",NA,NA,NA,NA,""
"image-keyboard-response",158,144113,"0.0-3.49-0.49","prqczdd2huy7f28",475,"139.csv","","416.90000009536743","resources/trios/L2T1A2.jpg","37","restless",0.4,0.4,0.6,0.496522909161485,"false"
"image-keyboard-response",159,144520,"0.0-3.49-1.49","prqczdd2huy7f28",475,"139.csv","","null","resources/maskTrios/L2BB.jpg","null","",NA,NA,NA,NA,""
"image-keyboard-response",160,145725,"0.0-3.49-2.49","prqczdd2huy7f28",475,"139.csv","","null","resources/images/fishbone.png","null","",NA,NA,NA,NA,""
"image-keyboard-response",161,146071,"0.0-3.50-0.50","prqczdd2huy7f28",475,"139.csv","","344","resources/trios/L2T4A1.jpg","38","restless",0.4,0.4,0.6,0.491433579108218,"false"
"image-keyboard-response",162,146477,"0.0-3.50-1.50","prqczdd2huy7f28",475,"139.csv","","null","resources/maskTrios/BT4B.jpg","null","",NA,NA,NA,NA,""
"image-keyboard-response",163,147680,"0.0-3.50-2.50","prqczdd2huy7f28",475,"139.csv","","null","resources/images/fishbone.png","null","",NA,NA,NA,NA,""
"image-keyboard-response",164,148139,"0.0-3.51-0.51","prqczdd2huy7f28",475,"139.csv","","457.2999999523163","resources/trios/L4T4A2.jpg","39","restless",0.4,0.4,0.6,0.465271247612758,"true"
"image-keyboard-response",165,148542,"0.0-3.51-1.51","prqczdd2huy7f28",475,"139.csv","","null","resources/maskTrios/BBA2.jpg","null","",NA,NA,NA,NA,""
"image-keyboard-response",166,149749,"0.0-3.51-2.51","prqczdd2huy7f28",475,"139.csv","","null","resources/images/coin2.png","null","",NA,NA,NA,NA,""
"image-keyboard-response",167,150072,"0.0-3.52-0.52","prqczdd2huy7f28",475,"139.csv","","320.60000014305115","resources/trios/L4T4A1.jpg","39","restless",0.4,0.4,0.6,0.613475681723925,"false"
"image-keyboard-response",168,150480,"0.0-3.52-1.52","prqczdd2huy7f28",475,"139.csv","","null","resources/maskTrios/BBA1.jpg","null","",NA,NA,NA,NA,""
"image-keyboard-response",169,151686,"0.0-3.52-2.52","prqczdd2huy7f28",475,"139.csv","","null","resources/images/fishbone.png","null","",NA,NA,NA,NA,""
"image-keyboard-response",170,152022,"0.0-3.53-0.53","prqczdd2huy7f28",475,"139.csv","","333.7000000476837","resources/trios/L2T1A2.jpg","37","restless",0.4,0.4,0.6,0.0968755929922609,"true"
"image-keyboard-response",171,152427,"0.0-3.53-1.53","prqczdd2huy7f28",475,"139.csv","","null","resources/maskTrios/L2BB.jpg","null","",NA,NA,NA,NA,""
"image-keyboard-response",172,153633,"0.0-3.53-2.53","prqczdd2huy7f28",475,"139.csv","","null","resources/images/coin2.png","null","",NA,NA,NA,NA,""
"image-keyboard-response",173,153990,"0.0-3.54-0.54","prqczdd2huy7f28",475,"139.csv","","354.40000009536743","resources/trios/L4T1A2.jpg","37","restless",0.4,0.4,0.6,0.314580093188503,"true"
"image-keyboard-response",174,154397,"0.0-3.54-1.54","prqczdd2huy7f28",475,"139.csv","","null","resources/maskTrios/L4BB.jpg","null","",NA,NA,NA,NA,""
"image-keyboard-response",175,155604,"0.0-3.54-2.54","prqczdd2huy7f28",475,"139.csv","","null","resources/images/coin2.png","null","",NA,NA,NA,NA,""
"image-keyboard-response",176,155913,"0.0-3.55-0.55","prqczdd2huy7f28",475,"139.csv","","306.7999999523163","resources/trios/L4T4A1.jpg","37","restless",0.4,0.4,0.6,0.35197402899704,"true"
"image-keyboard-response",177,156320,"0.0-3.55-1.55","prqczdd2huy7f28",475,"139.csv","","null","resources/maskTrios/L4BB.jpg","null","",NA,NA,NA,NA,""
"image-keyboard-response",178,157525,"0.0-3.55-2.55","prqczdd2huy7f28",475,"139.csv","","null","resources/images/coin2.png","null","",NA,NA,NA,NA,""
"image-keyboard-response",179,157883,"0.0-3.56-0.56","prqczdd2huy7f28",475,"139.csv","","356.2999999523163","resources/trios/L2T4A1.jpg","37","restless",0.5,0.4,0.6,0.87295200851939,"false"
"image-keyboard-response",180,158288,"0.0-3.56-1.56","prqczdd2huy7f28",475,"139.csv","","null","resources/maskTrios/L2BB.jpg","null","",NA,NA,NA,NA,""
"image-keyboard-response",181,159494,"0.0-3.56-2.56","prqczdd2huy7f28",475,"139.csv","","null","resources/images/fishbone.png","null","",NA,NA,NA,NA,""
"image-keyboard-response",182,159537,"0.0-3.57-0.57","prqczdd2huy7f28",475,"139.csv","","41","resources/trios/L2T1A2.jpg","38","restless",0.5,0.4,0.6,0.0427479769797583,"true"
"image-keyboard-response",183,159943,"0.0-3.57-1.57","prqczdd2huy7f28",475,"139.csv","","null","resources/maskTrios/BT1B.jpg","null","",NA,NA,NA,NA,""
"image-keyboard-response",184,161150,"0.0-3.57-2.57","prqczdd2huy7f28",475,"139.csv","","null","resources/images/coin2.png","null","",NA,NA,NA,NA,""
"image-keyboard-response",185,161643,"0.0-3.58-0.58","prqczdd2huy7f28",475,"139.csv","","490.7999999523163","resources/trios/L4T4A1.jpg","38","restless",0.5,0.4,0.6,0.929583520318262,"false"
"image-keyboard-response",186,162049,"0.0-3.58-1.58","prqczdd2huy7f28",475,"139.csv","","null","resources/maskTrios/BT4B.jpg","null","",NA,NA,NA,NA,""
"image-keyboard-response",187,163255,"0.0-3.58-2.58","prqczdd2huy7f28",475,"139.csv","","null","resources/images/fishbone.png","null","",NA,NA,NA,NA,""
"image-keyboard-response",188,163619,"0.0-3.59-0.59","prqczdd2huy7f28",475,"139.csv","","361.90000009536743","resources/trios/L4T1A2.jpg","39","restless",0.5,0.4,0.6,0.134534540692,"true"
"image-keyboard-response",189,164026,"0.0-3.59-1.59","prqczdd2huy7f28",475,"139.csv","","null","resources/maskTrios/BBA2.jpg","null","",NA,NA,NA,NA,""
"image-keyboard-response",190,165233,"0.0-3.59-2.59","prqczdd2huy7f28",475,"139.csv","","null","resources/images/coin2.png","null","",NA,NA,NA,NA,""
"image-keyboard-response",191,169786,"0.0-3.60-0.60","prqczdd2huy7f28",475,"139.csv","","4551.100000143051","resources/trios/L2T4A2.jpg","39","restless",0.5,0.4,0.7,0.290813681050013,"true"
"image-keyboard-response",192,170191,"0.0-3.60-1.60","prqczdd2huy7f28",475,"139.csv","","null","resources/maskTrios/BBA2.jpg","null","",NA,NA,NA,NA,""
"image-keyboard-response",193,171397,"0.0-3.60-2.60","prqczdd2huy7f28",475,"139.csv","","null","resources/images/coin2.png","null","",NA,NA,NA,NA,""
"image-keyboard-response",194,175030,"0.0-3.61-0.61","prqczdd2huy7f28",475,"139.csv","","3630.9000000953674","resources/trios/L4T1A1.jpg","38","restless",0.5,0.4,0.7,0.563024246215142,"false"
"image-keyboard-response",195,175434,"0.0-3.61-1.61","prqczdd2huy7f28",475,"139.csv","","null","resources/maskTrios/BT1B.jpg","null","",NA,NA,NA,NA,""
"image-keyboard-response",196,176640,"0.0-3.61-2.61","prqczdd2huy7f28",475,"139.csv","","null","resources/images/fishbone.png","null","",NA,NA,NA,NA,""
"image-keyboard-response",197,177683,"0.0-3.62-0.62","prqczdd2huy7f28",475,"139.csv","","1041.0999999046326","resources/trios/L4T1A1.jpg","39","restless",0.5,0.4,0.7,0.641358884307399,"true"
"image-keyboard-response",198,178090,"0.0-3.62-1.62","prqczdd2huy7f28",475,"139.csv","","null","resources/maskTrios/BBA1.jpg","null","",NA,NA,NA,NA,""
"image-keyboard-response",199,179293,"0.0-3.62-2.62","prqczdd2huy7f28",475,"139.csv","","null","resources/images/coin2.png","null","",NA,NA,NA,NA,""
"image-keyboard-response",200,179662,"0.0-3.63-0.63","prqczdd2huy7f28",475,"139.csv","","366.5","resources/trios/L2T4A1.jpg","37","restless",0.5,0.4,0.7,0.803084705743585,"false"
"image-keyboard-response",201,180065,"0.0-3.63-1.63","prqczdd2huy7f28",475,"139.csv","","null","resources/maskTrios/L2BB.jpg","null","",NA,NA,NA,NA,""
"image-keyboard-response",202,181272,"0.0-3.63-2.63","prqczdd2huy7f28",475,"139.csv","","null","resources/images/fishbone.png","null","",NA,NA,NA,NA,""
"image-keyboard-response",203,181747,"0.0-3.64-0.64","prqczdd2huy7f28",475,"139.csv","","473","resources/trios/L4T4A2.jpg","39","restless",0.5,0.4,0.7,0.0561747315445962,"true"
"image-keyboard-response",204,182149,"0.0-3.64-1.64","prqczdd2huy7f28",475,"139.csv","","null","resources/maskTrios/BBA2.jpg","null","",NA,NA,NA,NA,""
"image-keyboard-response",205,183356,"0.0-3.64-2.64","prqczdd2huy7f28",475,"139.csv","","null","resources/images/coin2.png","null","",NA,NA,NA,NA,""
"image-keyboard-response",206,183860,"0.0-3.65-0.65","prqczdd2huy7f28",475,"139.csv","","501.59999990463257","resources/trios/L2T4A1.jpg","39","restless",0.5,0.4,0.7,0.801750591778617,"false"
"image-keyboard-response",207,184266,"0.0-3.65-1.65","prqczdd2huy7f28",475,"139.csv","","null","resources/maskTrios/BBA1.jpg","null","",NA,NA,NA,NA,""
"image-keyboard-response",208,185472,"0.0-3.65-2.65","prqczdd2huy7f28",475,"139.csv","","null","resources/images/fishbone.png","null","",NA,NA,NA,NA,""
"image-keyboard-response",209,187342,"0.0-3.66-0.66","prqczdd2huy7f28",475,"139.csv","","1867.4000000953674","resources/trios/L4T1A2.jpg","38","restless",0.5,0.4,0.7,0.607171777230807,"false"
"image-keyboard-response",210,187745,"0.0-3.66-1.66","prqczdd2huy7f28",475,"139.csv","","null","resources/maskTrios/BT1B.jpg","null","",NA,NA,NA,NA,""
"image-keyboard-response",211,188951,"0.0-3.66-2.66","prqczdd2huy7f28",475,"139.csv","","null","resources/images/fishbone.png","null","",NA,NA,NA,NA,""
"image-keyboard-response",212,189684,"0.0-3.67-0.67","prqczdd2huy7f28",475,"139.csv","","730.8000001907349","resources/trios/L2T4A1.jpg","39","restless",0.5,0.4,0.7,0.288437061077097,"true"
"image-keyboard-response",213,190091,"0.0-3.67-1.67","prqczdd2huy7f28",475,"139.csv","","null","resources/maskTrios/BBA1.jpg","null","",NA,NA,NA,NA,""
"image-keyboard-response",214,191294,"0.0-3.67-2.67","prqczdd2huy7f28",475,"139.csv","","null","resources/images/coin2.png","null","",NA,NA,NA,NA,""
"image-keyboard-response",215,191561,"0.0-3.68-0.68","prqczdd2huy7f28",475,"139.csv","","264.89999985694885","resources/trios/L4T4A2.jpg","37","restless",0.5,0.4,0.7,0.289461268621257,"true"
"image-keyboard-response",216,191968,"0.0-3.68-1.68","prqczdd2huy7f28",475,"139.csv","","null","resources/maskTrios/L4BB.jpg","null","",NA,NA,NA,NA,""
"image-keyboard-response",217,193175,"0.0-3.68-2.68","prqczdd2huy7f28",475,"139.csv","","null","resources/images/coin2.png","null","",NA,NA,NA,NA,""
"image-keyboard-response",218,194710,"0.0-3.69-0.69","prqczdd2huy7f28",475,"139.csv","","1532.7999999523163","resources/trios/L2T4A1.jpg","38","restless",0.5,0.4,0.7,0.164555650160911,"true"
"image-keyboard-response",219,195118,"0.0-3.69-1.69","prqczdd2huy7f28",475,"139.csv","","null","resources/maskTrios/BT4B.jpg","null","",NA,NA,NA,NA,""
"image-keyboard-response",220,196320,"0.0-3.69-2.69","prqczdd2huy7f28",475,"139.csv","","null","resources/images/coin2.png","null","",NA,NA,NA,NA,""
"image-keyboard-response",221,196747,"0.0-3.70-0.70","prqczdd2huy7f28",475,"139.csv","","424.2999999523163","resources/trios/L2T1A1.jpg","39","restless",0.5,0.4,0.7,0.506037273278906,"true"
"image-keyboard-response",222,197153,"0.0-3.70-1.70","prqczdd2huy7f28",475,"139.csv","","null","resources/maskTrios/BBA1.jpg","null","",NA,NA,NA,NA,""
"image-keyboard-response",223,198359,"0.0-3.70-2.70","prqczdd2huy7f28",475,"139.csv","","null","resources/images/coin2.png","null","",NA,NA,NA,NA,""
"image-keyboard-response",224,199425,"0.0-3.71-0.71","prqczdd2huy7f28",475,"139.csv","","1065","resources/trios/L4T4A1.jpg","37","restless",0.5,0.4,0.7,0.45855913599057,"true"
"image-keyboard-response",225,199833,"0.0-3.71-1.71","prqczdd2huy7f28",475,"139.csv","","null","resources/maskTrios/L4BB.jpg","null","",NA,NA,NA,NA,""
"image-keyboard-response",226,201039,"0.0-3.71-2.71","prqczdd2huy7f28",475,"139.csv","","null","resources/images/coin2.png","null","",NA,NA,NA,NA,""
"image-keyboard-response",227,201371,"0.0-3.72-0.72","prqczdd2huy7f28",475,"139.csv","","330.40000009536743","resources/trios/L2T4A2.jpg","38","restless",0.5,0.4,0.7,0.378958649519248,"true"
"image-keyboard-response",228,201778,"0.0-3.72-1.72","prqczdd2huy7f28",475,"139.csv","","null","resources/maskTrios/BT4B.jpg","null","",NA,NA,NA,NA,""
"image-keyboard-response",229,202985,"0.0-3.72-2.72","prqczdd2huy7f28",475,"139.csv","","null","resources/images/coin2.png","null","",NA,NA,NA,NA,""
"image-keyboard-response",230,203435,"0.0-3.73-0.73","prqczdd2huy7f28",475,"139.csv","","447.90000009536743","resources/trios/L4T4A2.jpg","39","restless",0.5,0.4,0.7,0.293959756730517,"true"
"image-keyboard-response",231,203841,"0.0-3.73-1.73","prqczdd2huy7f28",475,"139.csv","","null","resources/maskTrios/BBA2.jpg","null","",NA,NA,NA,NA,""
"image-keyboard-response",232,205044,"0.0-3.73-2.73","prqczdd2huy7f28",475,"139.csv","","null","resources/images/coin2.png","null","",NA,NA,NA,NA,""
"image-keyboard-response",233,205363,"0.0-3.74-0.74","prqczdd2huy7f28",475,"139.csv","","317.7999999523163","resources/trios/L2T1A2.jpg","37","restless",0.5,0.4,0.7,0.952569180905752,"false"
"image-keyboard-response",234,205767,"0.0-3.74-1.74","prqczdd2huy7f28",475,"139.csv","","null","resources/maskTrios/L2BB.jpg","null","",NA,NA,NA,NA,""
"image-keyboard-response",235,206972,"0.0-3.74-2.74","prqczdd2huy7f28",475,"139.csv","","null","resources/images/fishbone.png","null","",NA,NA,NA,NA,""
"image-keyboard-response",236,207110,"0.0-3.75-0.75","prqczdd2huy7f28",475,"139.csv","","136","resources/trios/L2T4A1.jpg","38","restless",0.5,0.4,0.7,0.0289583602311894,"true"
"image-keyboard-response",237,207518,"0.0-3.75-1.75","prqczdd2huy7f28",475,"139.csv","","null","resources/maskTrios/BT4B.jpg","null","",NA,NA,NA,NA,""
"image-keyboard-response",238,208723,"0.0-3.75-2.75","prqczdd2huy7f28",475,"139.csv","","null","resources/images/coin2.png","null","",NA,NA,NA,NA,""
"image-keyboard-response",239,208819,"0.0-3.76-0.76","prqczdd2huy7f28",475,"139.csv","","93.79999995231628","resources/trios/L4T4A1.jpg","39","restless",0.5,0.4,0.6,0.84811937462067,"false"
"image-keyboard-response",240,209227,"0.0-3.76-1.76","prqczdd2huy7f28",475,"139.csv","","null","resources/maskTrios/BBA1.jpg","null","",NA,NA,NA,NA,""
"image-keyboard-response",241,210433,"0.0-3.76-2.76","prqczdd2huy7f28",475,"139.csv","","null","resources/images/fishbone.png","null","",NA,NA,NA,NA,""
"image-keyboard-response",242,210847,"0.0-3.77-0.77","prqczdd2huy7f28",475,"139.csv","","411.39999985694885","resources/trios/L2T1A1.jpg","37","restless",0.5,0.4,0.6,0.526857095774836,"false"
"image-keyboard-response",243,211254,"0.0-3.77-1.77","prqczdd2huy7f28",475,"139.csv","","null","resources/maskTrios/L2BB.jpg","null","",NA,NA,NA,NA,""
"image-keyboard-response",244,212460,"0.0-3.77-2.77","prqczdd2huy7f28",475,"139.csv","","null","resources/images/fishbone.png","null","",NA,NA,NA,NA,""
"image-keyboard-response",245,212975,"0.0-3.78-0.78","prqczdd2huy7f28",475,"139.csv","","512.7999999523163","resources/trios/L2T4A1.jpg","38","restless",0.5,0.4,0.6,0.933814617564255,"false"
"image-keyboard-response",246,213378,"0.0-3.78-1.78","prqczdd2huy7f28",475,"139.csv","","null","resources/maskTrios/BT4B.jpg","null","",NA,NA,NA,NA,""
"image-keyboard-response",247,214585,"0.0-3.78-2.78","prqczdd2huy7f28",475,"139.csv","","null","resources/images/fishbone.png","null","",NA,NA,NA,NA,""
"image-keyboard-response",248,216461,"0.0-3.79-0.79","prqczdd2huy7f28",475,"139.csv","","1874.6000001430511","resources/trios/L2T1A2.jpg","37","restless",0.5,0.4,0.6,0.673445175935769,"false"
"image-keyboard-response",249,216868,"0.0-3.79-1.79","prqczdd2huy7f28",475,"139.csv","","null","resources/maskTrios/L2BB.jpg","null","",NA,NA,NA,NA,""
"image-keyboard-response",250,218072,"0.0-3.79-2.79","prqczdd2huy7f28",475,"139.csv","","null","resources/images/fishbone.png","null","",NA,NA,NA,NA,""
"image-keyboard-response",251,218611,"0.0-3.80-0.80","prqczdd2huy7f28",475,"139.csv","","537.5999999046326","resources/trios/L2T4A2.jpg","39","restless",0.5,0.4,0.6,0.0671676694627901,"true"
"image-keyboard-response",252,219019,"0.0-3.80-1.80","prqczdd2huy7f28",475,"139.csv","","null","resources/maskTrios/BBA2.jpg","null","",NA,NA,NA,NA,""
"image-keyboard-response",253,220226,"0.0-3.80-2.80","prqczdd2huy7f28",475,"139.csv","","null","resources/images/coin2.png","null","",NA,NA,NA,NA,""
"image-keyboard-response",254,220869,"0.0-3.81-0.81","prqczdd2huy7f28",475,"139.csv","","641.5999999046326","resources/trios/L2T1A1.jpg","37","restless",0.4,0.4,0.7,0.918862701101998,"false"
"image-keyboard-response",255,221277,"0.0-3.81-1.81","prqczdd2huy7f28",475,"139.csv","","null","resources/maskTrios/L2BB.jpg","null","",NA,NA,NA,NA,""
"image-keyboard-response",256,222483,"0.0-3.81-2.81","prqczdd2huy7f28",475,"139.csv","","null","resources/images/fishbone.png","null","",NA,NA,NA,NA,""
"image-keyboard-response",257,223342,"0.0-3.82-0.82","prqczdd2huy7f28",475,"139.csv","","856.2000000476837","resources/trios/L4T1A2.jpg","38","restless",0.4,0.4,0.7,0.599554439303044,"false"
"image-keyboard-response",258,223749,"0.0-3.82-1.82","prqczdd2huy7f28",475,"139.csv","","null","resources/maskTrios/BT1B.jpg","null","",NA,NA,NA,NA,""
"image-keyboard-response",259,224952,"0.0-3.82-2.82","prqczdd2huy7f28",475,"139.csv","","null","resources/images/fishbone.png","null","",NA,NA,NA,NA,""
"image-keyboard-response",260,225772,"0.0-3.83-0.83","prqczdd2huy7f28",475,"139.csv","","818.4000000953674","resources/trios/L4T4A1.jpg","39","restless",0.4,0.4,0.7,0.542404308915839,"true"
"image-keyboard-response",261,226180,"0.0-3.83-1.83","prqczdd2huy7f28",475,"139.csv","","null","resources/maskTrios/BBA1.jpg","null","",NA,NA,NA,NA,""
"image-keyboard-response",262,227387,"0.0-3.83-2.83","prqczdd2huy7f28",475,"139.csv","","null","resources/images/coin2.png","null","",NA,NA,NA,NA,""
"image-keyboard-response",263,227679,"0.0-3.84-0.84","prqczdd2huy7f28",475,"139.csv","","289.60000014305115","resources/trios/L2T4A1.jpg","39","restless",0.4,0.4,0.7,0.839077934670494,"false"
"image-keyboard-response",264,228086,"0.0-3.84-1.84","prqczdd2huy7f28",475,"139.csv","","null","resources/maskTrios/BBA1.jpg","null","",NA,NA,NA,NA,""
"image-keyboard-response",265,229292,"0.0-3.84-2.84","prqczdd2huy7f28",475,"139.csv","","null","resources/images/fishbone.png","null","",NA,NA,NA,NA,""
"image-keyboard-response",266,229591,"0.0-3.85-0.85","prqczdd2huy7f28",475,"139.csv","","296.19999980926514","resources/trios/L2T4A1.jpg","37","restless",0.4,0.4,0.7,0.241289407418934,"true"
"image-keyboard-response",267,229995,"0.0-3.85-1.85","prqczdd2huy7f28",475,"139.csv","","null","resources/maskTrios/L2BB.jpg","null","",NA,NA,NA,NA,""
"image-keyboard-response",268,231202,"0.0-3.85-2.85","prqczdd2huy7f28",475,"139.csv","","null","resources/images/coin2.png","null","",NA,NA,NA,NA,""
"image-keyboard-response",269,231399,"0.0-3.86-0.86","prqczdd2huy7f28",475,"139.csv","","194.60000014305115","resources/trios/L4T1A2.jpg","37","restless",0.4,0.4,0.7,0.354945682595902,"true"
"image-keyboard-response",270,231806,"0.0-3.86-1.86","prqczdd2huy7f28",475,"139.csv","","null","resources/maskTrios/L4BB.jpg","null","",NA,NA,NA,NA,""
"image-keyboard-response",271,233010,"0.0-3.86-2.86","prqczdd2huy7f28",475,"139.csv","","null","resources/images/coin2.png","null","",NA,NA,NA,NA,""
"image-keyboard-response",272,233309,"0.0-3.87-0.87","prqczdd2huy7f28",475,"139.csv","","296.90000009536743","resources/trios/L2T1A2.jpg","38","restless",0.4,0.3,0.7,0.0167576812213914,"true"
"image-keyboard-response",273,233717,"0.0-3.87-1.87","prqczdd2huy7f28",475,"139.csv","","null","resources/maskTrios/BT1B.jpg","null","",NA,NA,NA,NA,""
"image-keyboard-response",274,234924,"0.0-3.87-2.87","prqczdd2huy7f28",475,"139.csv","","null","resources/images/coin2.png","null","",NA,NA,NA,NA,""
"image-keyboard-response",275,235232,"0.0-3.88-0.88","prqczdd2huy7f28",475,"139.csv","","305.90000009536743","resources/trios/L2T1A1.jpg","37","restless",0.4,0.3,0.6,0.110818490601308,"true"
"image-keyboard-response",276,235639,"0.0-3.88-1.88","prqczdd2huy7f28",475,"139.csv","","null","resources/maskTrios/L2BB.jpg","null","",NA,NA,NA,NA,""
"image-keyboard-response",277,236846,"0.0-3.88-2.88","prqczdd2huy7f28",475,"139.csv","","null","resources/images/coin2.png","null","",NA,NA,NA,NA,""
"image-keyboard-response",278,237755,"0.0-3.89-0.89","prqczdd2huy7f28",475,"139.csv","","906.5999999046326","resources/trios/L2T4A1.jpg","39","restless",0.4,0.3,0.7,0.243991324166232,"true"
"image-keyboard-response",279,238158,"0.0-3.89-1.89","prqczdd2huy7f28",475,"139.csv","","null","resources/maskTrios/BBA1.jpg","null","",NA,NA,NA,NA,""
"image-keyboard-response",280,239362,"0.0-3.89-2.89","prqczdd2huy7f28",475,"139.csv","","null","resources/images/coin2.png","null","",NA,NA,NA,NA,""
"image-keyboard-response",281,239367,"0.0-3.90-0.90","prqczdd2huy7f28",475,"139.csv","","2.700000047683716","resources/trios/L2T1A1.jpg","38","restless",0.4,0.3,0.7,0.860349784647986,"false"
"image-keyboard-response",282,239773,"0.0-3.90-1.90","prqczdd2huy7f28",475,"139.csv","","null","resources/maskTrios/BT1B.jpg","null","",NA,NA,NA,NA,""
"image-keyboard-response",283,240980,"0.0-3.90-2.90","prqczdd2huy7f28",475,"139.csv","","null","resources/images/fishbone.png","null","",NA,NA,NA,NA,""
"image-keyboard-response",284,242248,"0.0-3.91-0.91","prqczdd2huy7f28",475,"139.csv","","1265.5999999046326","resources/trios/L2T1A2.jpg","37","restless",0.4,0.3,0.7,0.385229992221191,"true"
"image-keyboard-response",285,242655,"0.0-3.91-1.91","prqczdd2huy7f28",475,"139.csv","","null","resources/maskTrios/L2BB.jpg","null","",NA,NA,NA,NA,""
"image-keyboard-response",286,243860,"0.0-3.91-2.91","prqczdd2huy7f28",475,"139.csv","","null","resources/images/coin2.png","null","",NA,NA,NA,NA,""
"image-keyboard-response",287,243954,"0.0-3.92-0.92","prqczdd2huy7f28",475,"139.csv","","91.40000009536743","resources/trios/L4T4A2.jpg","37","restless",0.4,0.3,0.7,0.793927988284332,"false"
"image-keyboard-response",288,244359,"0.0-3.92-1.92","prqczdd2huy7f28",475,"139.csv","","null","resources/maskTrios/L4BB.jpg","null","",NA,NA,NA,NA,""
"image-keyboard-response",289,245561,"0.0-3.92-2.92","prqczdd2huy7f28",475,"139.csv","","null","resources/images/fishbone.png","null","",NA,NA,NA,NA,""
"image-keyboard-response",290,246028,"0.0-3.93-0.93","prqczdd2huy7f28",475,"139.csv","","464.7000000476837","resources/trios/L2T4A2.jpg","39","restless",0.4,0.3,0.7,0.3239776013384,"true"
"image-keyboard-response",291,246435,"0.0-3.93-1.93","prqczdd2huy7f28",475,"139.csv","","null","resources/maskTrios/BBA2.jpg","null","",NA,NA,NA,NA,""
"image-keyboard-response",292,247640,"0.0-3.93-2.93","prqczdd2huy7f28",475,"139.csv","","null","resources/images/coin2.png","null","",NA,NA,NA,NA,""
"image-keyboard-response",293,248002,"0.0-3.94-0.94","prqczdd2huy7f28",475,"139.csv","","359.69999980926514","resources/trios/L4T1A1.jpg","39","restless",0.5,0.3,0.7,0.440283451383477,"true"
"image-keyboard-response",294,248409,"0.0-3.94-1.94","prqczdd2huy7f28",475,"139.csv","","null","resources/maskTrios/BBA1.jpg","null","",NA,NA,NA,NA,""
"image-keyboard-response",295,249616,"0.0-3.94-2.94","prqczdd2huy7f28",475,"139.csv","","null","resources/images/coin2.png","null","",NA,NA,NA,NA,""
"image-keyboard-response",296,249937,"0.0-3.95-0.95","prqczdd2huy7f28",475,"139.csv","","318.40000009536743","resources/trios/L2T4A2.jpg","38","restless",0.5,0.3,0.7,0.212862703391368,"true"
"image-keyboard-response",297,250342,"0.0-3.95-1.95","prqczdd2huy7f28",475,"139.csv","","null","resources/maskTrios/BT4B.jpg","null","",NA,NA,NA,NA,""
"image-keyboard-response",298,251547,"0.0-3.95-2.95","prqczdd2huy7f28",475,"139.csv","","null","resources/images/coin2.png","null","",NA,NA,NA,NA,""
"image-keyboard-response",299,251856,"0.0-3.96-0.96","prqczdd2huy7f28",475,"139.csv","","306.7000000476837","resources/trios/L4T4A1.jpg","38","restless",0.5,0.3,0.7,0.959820146352663,"false"
"image-keyboard-response",300,252263,"0.0-3.96-1.96","prqczdd2huy7f28",475,"139.csv","","null","resources/maskTrios/BT4B.jpg","null","",NA,NA,NA,NA,""
"image-keyboard-response",301,253470,"0.0-3.96-2.96","prqczdd2huy7f28",475,"139.csv","","null","resources/images/fishbone.png","null","",NA,NA,NA,NA,""
"image-keyboard-response",302,253877,"0.0-3.97-0.97","prqczdd2huy7f28",475,"139.csv","","405.09999990463257","resources/trios/L2T1A2.jpg","37","restless",0.5,0.2,0.7,0.632365408998167,"false"
"image-keyboard-response",303,254281,"0.0-3.97-1.97","prqczdd2huy7f28",475,"139.csv","","null","resources/maskTrios/L2BB.jpg","null","",NA,NA,NA,NA,""
"image-keyboard-response",304,255488,"0.0-3.97-2.97","prqczdd2huy7f28",475,"139.csv","","null","resources/images/fishbone.png","null","",NA,NA,NA,NA,""
"image-keyboard-response",305,255817,"0.0-3.98-0.98","prqczdd2huy7f28",475,"139.csv","","327.2000000476837","resources/trios/L2T4A2.jpg","37","restless",0.4,0.2,0.7,0.562869513539294,"false"
"image-keyboard-response",306,256225,"0.0-3.98-1.98","prqczdd2huy7f28",475,"139.csv","","null","resources/maskTrios/L2BB.jpg","null","",NA,NA,NA,NA,""
"image-keyboard-response",307,257431,"0.0-3.98-2.98","prqczdd2huy7f28",475,"139.csv","","null","resources/images/fishbone.png","null","",NA,NA,NA,NA,""
"image-keyboard-response",308,257731,"0.0-3.99-0.99","prqczdd2huy7f28",475,"139.csv","","297.7999999523163","resources/trios/L2T4A1.jpg","39","restless",0.4,0.2,0.8,0.478559417028682,"true"
"image-keyboard-response",309,258135,"0.0-3.99-1.99","prqczdd2huy7f28",475,"139.csv","","null","resources/maskTrios/BBA1.jpg","null","",NA,NA,NA,NA,""
"image-keyboard-response",310,259342,"0.0-3.99-2.99","prqczdd2huy7f28",475,"139.csv","","null","resources/images/coin2.png","null","",NA,NA,NA,NA,""
"image-keyboard-response",311,259707,"0.0-3.100-0.100","prqczdd2huy7f28",475,"139.csv","","362.7999999523163","resources/trios/L2T4A2.jpg","39","restless",0.4,0.2,0.8,0.862743755723058,"false"
"image-keyboard-response",312,260111,"0.0-3.100-1.100","prqczdd2huy7f28",475,"139.csv","","null","resources/maskTrios/BBA2.jpg","null","",NA,NA,NA,NA,""
"image-keyboard-response",313,261314,"0.0-3.100-2.100","prqczdd2huy7f28",475,"139.csv","","null","resources/images/fishbone.png","null","",NA,NA,NA,NA,""
"image-keyboard-response",314,261618,"0.0-3.101-0.101","prqczdd2huy7f28",475,"139.csv","","301.7999999523163","resources/trios/L4T1A2.jpg","38","restless",0.3,0.2,0.8,0.599278940548106,"false"
"image-keyboard-response",315,262025,"0.0-3.101-1.101","prqczdd2huy7f28",475,"139.csv","","null","resources/maskTrios/BT1B.jpg","null","",NA,NA,NA,NA,""
"image-keyboard-response",316,263227,"0.0-3.101-2.101","prqczdd2huy7f28",475,"139.csv","","null","resources/images/fishbone.png","null","",NA,NA,NA,NA,""
"image-keyboard-response",317,263262,"0.0-3.102-0.102","prqczdd2huy7f28",475,"139.csv","","32.80000019073486","resources/trios/L2T4A1.jpg","37","restless",0.3,0.2,0.8,0.449321306804579,"false"
"image-keyboard-response",318,263664,"0.0-3.102-1.102","prqczdd2huy7f28",475,"139.csv","","null","resources/maskTrios/L2BB.jpg","null","",NA,NA,NA,NA,""
"image-keyboard-response",319,264870,"0.0-3.102-2.102","prqczdd2huy7f28",475,"139.csv","","null","resources/images/fishbone.png","null","",NA,NA,NA,NA,""
"image-keyboard-response",320,266555,"0.0-3.103-0.103","prqczdd2huy7f28",475,"139.csv","","1683","resources/trios/L2T1A1.jpg","39","restless",0.3,0.2,0.8,0.972477012808951,"false"
"image-keyboard-response",321,266963,"0.0-3.103-1.103","prqczdd2huy7f28",475,"139.csv","","null","resources/maskTrios/BBA1.jpg","null","",NA,NA,NA,NA,""
"image-keyboard-response",322,268169,"0.0-3.103-2.103","prqczdd2huy7f28",475,"139.csv","","null","resources/images/fishbone.png","null","",NA,NA,NA,NA,""
"image-keyboard-response",323,268200,"0.0-3.104-0.104","prqczdd2huy7f28",475,"139.csv","","29.200000047683716","resources/trios/L2T1A1.jpg","38","restless",0.3,0.2,0.7,0.645037620144764,"false"
"image-keyboard-response",324,268603,"0.0-3.104-1.104","prqczdd2huy7f28",475,"139.csv","","null","resources/maskTrios/BT1B.jpg","null","",NA,NA,NA,NA,""
"image-keyboard-response",325,269809,"0.0-3.104-2.104","prqczdd2huy7f28",475,"139.csv","","null","resources/images/fishbone.png","null","",NA,NA,NA,NA,""
"image-keyboard-response",326,270255,"0.0-3.105-0.105","prqczdd2huy7f28",475,"139.csv","","444","resources/trios/L2T4A1.jpg","37","restless",0.4,0.2,0.7,0.940075382987823,"false"
"image-keyboard-response",327,270658,"0.0-3.105-1.105","prqczdd2huy7f28",475,"139.csv","","null","resources/maskTrios/L2BB.jpg","null","",NA,NA,NA,NA,""
"image-keyboard-response",328,271864,"0.0-3.105-2.105","prqczdd2huy7f28",475,"139.csv","","null","resources/images/fishbone.png","null","",NA,NA,NA,NA,""
"image-keyboard-response",329,272214,"0.0-3.106-0.106","prqczdd2huy7f28",475,"139.csv","","348.2999999523163","resources/trios/L4T4A2.jpg","39","restless",0.5,0.3,0.6,0.580155184525266,"true"
"image-keyboard-response",330,272621,"0.0-3.106-1.106","prqczdd2huy7f28",475,"139.csv","","null","resources/maskTrios/BBA2.jpg","null","",NA,NA,NA,NA,""
"image-keyboard-response",331,273827,"0.0-3.106-2.106","prqczdd2huy7f28",475,"139.csv","","null","resources/images/coin2.png","null","",NA,NA,NA,NA,""
"image-keyboard-response",332,274161,"0.0-3.107-0.107","prqczdd2huy7f28",475,"139.csv","","332.90000009536743","resources/trios/L2T1A1.jpg","38","restless",0.5,0.3,0.6,0.100521731838609,"true"
"image-keyboard-response",333,274568,"0.0-3.107-1.107","prqczdd2huy7f28",475,"139.csv","","null","resources/maskTrios/BT1B.jpg","null","",NA,NA,NA,NA,""
"image-keyboard-response",334,275771,"0.0-3.107-2.107","prqczdd2huy7f28",475,"139.csv","","null","resources/images/coin2.png","null","",NA,NA,NA,NA,""
"image-keyboard-response",335,277120,"0.0-3.108-0.108","prqczdd2huy7f28",475,"139.csv","","1347","resources/trios/L2T4A1.jpg","37","restless",0.5,0.3,0.6,0.240848012464508,"true"
"image-keyboard-response",336,277526,"0.0-3.108-1.108","prqczdd2huy7f28",475,"139.csv","","null","resources/maskTrios/L2BB.jpg","null","",NA,NA,NA,NA,""
"image-keyboard-response",337,278734,"0.0-3.108-2.108","prqczdd2huy7f28",475,"139.csv","","null","resources/images/coin2.png","null","",NA,NA,NA,NA,""
"image-keyboard-response",338,278782,"0.0-3.109-0.109","prqczdd2huy7f28",475,"139.csv","","46.89999985694885","resources/trios/L4T4A1.jpg","39","restless",0.5,0.3,0.6,0.580899429887554,"true"
"image-keyboard-response",339,279190,"0.0-3.109-1.109","prqczdd2huy7f28",475,"139.csv","","null","resources/maskTrios/BBA1.jpg","null","",NA,NA,NA,NA,""
"image-keyboard-response",340,280394,"0.0-3.109-2.109","prqczdd2huy7f28",475,"139.csv","","null","resources/images/coin2.png","null","",NA,NA,NA,NA,""
"image-keyboard-response",341,280607,"0.0-3.110-0.110","prqczdd2huy7f28",475,"139.csv","","211.79999995231628","resources/trios/L4T1A2.jpg","38","restless",0.5,0.3,0.6,0.989805727348291,"false"
"image-keyboard-response",342,281015,"0.0-3.110-1.110","prqczdd2huy7f28",475,"139.csv","","null","resources/maskTrios/BT1B.jpg","null","",NA,NA,NA,NA,""
"image-keyboard-response",343,282222,"0.0-3.110-2.110","prqczdd2huy7f28",475,"139.csv","","null","resources/images/fishbone.png","null","",NA,NA,NA,NA,""
"image-keyboard-response",344,282692,"0.0-3.111-0.111","prqczdd2huy7f28",475,"139.csv","","468.90000009536743","resources/trios/L4T4A2.jpg","37","restless",0.5,0.3,0.6,0.560712271508103,"false"
"image-keyboard-response",345,283099,"0.0-3.111-1.111","prqczdd2huy7f28",475,"139.csv","","null","resources/maskTrios/L4BB.jpg","null","",NA,NA,NA,NA,""
"image-keyboard-response",346,284306,"0.0-3.111-2.111","prqczdd2huy7f28",475,"139.csv","","null","resources/images/fishbone.png","null","",NA,NA,NA,NA,""
"image-keyboard-response",347,286102,"0.0-3.112-0.112","prqczdd2huy7f28",475,"139.csv","","1794.5999999046326","resources/trios/L4T1A2.jpg","39","restless",0.5,0.3,0.6,0.858609809689281,"false"
"image-keyboard-response",348,286509,"0.0-3.112-1.112","prqczdd2huy7f28",475,"139.csv","","null","resources/maskTrios/BBA2.jpg","null","",NA,NA,NA,NA,""
"image-keyboard-response",349,287712,"0.0-3.112-2.112","prqczdd2huy7f28",475,"139.csv","","null","resources/images/fishbone.png","null","",NA,NA,NA,NA,""
"image-keyboard-response",350,288330,"0.0-3.113-0.113","prqczdd2huy7f28",475,"139.csv","","615.7999999523163","resources/trios/L4T4A1.jpg","38","restless",0.6,0.3,0.6,0.266010962196289,"true"
"image-keyboard-response",351,288738,"0.0-3.113-1.113","prqczdd2huy7f28",475,"139.csv","","null","resources/maskTrios/BT4B.jpg","null","",NA,NA,NA,NA,""
"image-keyboard-response",352,289945,"0.0-3.113-2.113","prqczdd2huy7f28",475,"139.csv","","null","resources/images/coin2.png","null","",NA,NA,NA,NA,""
"image-keyboard-response",353,290062,"0.0-3.114-0.114","prqczdd2huy7f28",475,"139.csv","","114.89999985694885","resources/trios/L4T1A2.jpg","37","restless",0.6,0.3,0.6,0.198529739953494,"true"
"image-keyboard-response",354,290469,"0.0-3.114-1.114","prqczdd2huy7f28",475,"139.csv","","null","resources/maskTrios/L4BB.jpg","null","",NA,NA,NA,NA,""
"image-keyboard-response",355,291676,"0.0-3.114-2.114","prqczdd2huy7f28",475,"139.csv","","null","resources/images/coin2.png","null","",NA,NA,NA,NA,""
"image-keyboard-response",356,293010,"0.0-3.115-0.115","prqczdd2huy7f28",475,"139.csv","","1331.8000001907349","resources/trios/L4T1A1.jpg","39","restless",0.6,0.3,0.5,0.689142579917156,"false"
"image-keyboard-response",357,293416,"0.0-3.115-1.115","prqczdd2huy7f28",475,"139.csv","","null","resources/maskTrios/BBA1.jpg","null","",NA,NA,NA,NA,""
"image-keyboard-response",358,294623,"0.0-3.115-2.115","prqczdd2huy7f28",475,"139.csv","","null","resources/images/fishbone.png","null","",NA,NA,NA,NA,""
"image-keyboard-response",359,295627,"0.0-3.116-0.116","prqczdd2huy7f28",475,"139.csv","","1001.5","resources/trios/L4T4A1.jpg","38","restless",0.6,0.3,0.5,0.251412077859519,"true"
"image-keyboard-response",360,296030,"0.0-3.116-1.116","prqczdd2huy7f28",475,"139.csv","","null","resources/maskTrios/BT4B.jpg","null","",NA,NA,NA,NA,""
"image-keyboard-response",361,297237,"0.0-3.116-2.116","prqczdd2huy7f28",475,"139.csv","","null","resources/images/coin2.png","null","",NA,NA,NA,NA,""
"image-keyboard-response",362,299340,"0.0-3.117-0.117","prqczdd2huy7f28",475,"139.csv","","2100.800000190735","resources/trios/L2T4A2.jpg","39","restless",0.6,0.3,0.6,0.165908211896064,"true"
"image-keyboard-response",363,299747,"0.0-3.117-1.117","prqczdd2huy7f28",475,"139.csv","","null","resources/maskTrios/BBA2.jpg","null","",NA,NA,NA,NA,""
"image-keyboard-response",364,300949,"0.0-3.117-2.117","prqczdd2huy7f28",475,"139.csv","","null","resources/images/coin2.png","null","",NA,NA,NA,NA,""
"image-keyboard-response",365,301565,"0.0-3.118-0.118","prqczdd2huy7f28",475,"139.csv","","613.4000000953674","resources/trios/L4T4A2.jpg","38","restless",0.6,0.3,0.6,0.852764483138556,"false"
"image-keyboard-response",366,301972,"0.0-3.118-1.118","prqczdd2huy7f28",475,"139.csv","","null","resources/maskTrios/BT4B.jpg","null","",NA,NA,NA,NA,""
"image-keyboard-response",367,303179,"0.0-3.118-2.118","prqczdd2huy7f28",475,"139.csv","","null","resources/images/fishbone.png","null","",NA,NA,NA,NA,""
"image-keyboard-response",368,303828,"0.0-3.119-0.119","prqczdd2huy7f28",475,"139.csv","","646.8999998569489","resources/trios/L2T4A1.jpg","37","restless",0.7,0.3,0.6,0.704864843305572,"false"
"image-keyboard-response",369,304232,"0.0-3.119-1.119","prqczdd2huy7f28",475,"139.csv","","null","resources/maskTrios/L2BB.jpg","null","",NA,NA,NA,NA,""
"image-keyboard-response",370,305438,"0.0-3.119-2.119","prqczdd2huy7f28",475,"139.csv","","null","resources/images/fishbone.png","null","",NA,NA,NA,NA,""
"image-keyboard-response",371,305758,"0.0-3.120-0.120","prqczdd2huy7f28",475,"139.csv","","318.80000019073486","resources/trios/L4T4A2.jpg","37","restless",0.7,0.3,0.6,0.242779804145045,"true"
"image-keyboard-response",372,306161,"0.0-3.120-1.120","prqczdd2huy7f28",475,"139.csv","","null","resources/maskTrios/L4BB.jpg","null","",NA,NA,NA,NA,""
"image-keyboard-response",373,307364,"0.0-3.120-2.120","prqczdd2huy7f28",475,"139.csv","","null","resources/images/coin2.png","null","",NA,NA,NA,NA,""
"image-keyboard-response",374,308227,"0.0-3.121-0.121","prqczdd2huy7f28",475,"139.csv","","861","resources/trios/L2T1A1.jpg","38","restless",0.7,0.3,0.5,0.0696781689843649,"true"
"image-keyboard-response",375,308632,"0.0-3.121-1.121","prqczdd2huy7f28",475,"139.csv","","null","resources/maskTrios/BT1B.jpg","null","",NA,NA,NA,NA,""
"image-keyboard-response",376,309839,"0.0-3.121-2.121","prqczdd2huy7f28",475,"139.csv","","null","resources/images/coin2.png","null","",NA,NA,NA,NA,""
"image-keyboard-response",377,312593,"0.0-3.122-0.122","prqczdd2huy7f28",475,"139.csv","","2752.5999999046326","resources/trios/L4T1A2.jpg","39","restless",0.7,0.4,0.5,0.102263123762898,"true"
"image-keyboard-response",378,313001,"0.0-3.122-1.122","prqczdd2huy7f28",475,"139.csv","","null","resources/maskTrios/BBA2.jpg","null","",NA,NA,NA,NA,""
"image-keyboard-response",379,314204,"0.0-3.122-2.122","prqczdd2huy7f28",475,"139.csv","","null","resources/images/coin2.png","null","",NA,NA,NA,NA,""
"image-keyboard-response",380,317927,"0.0-3.123-0.123","prqczdd2huy7f28",475,"139.csv","","3721","resources/trios/L4T4A2.jpg","39","restless",0.8,0.4,0.5,0.148107557032807,"true"
"image-keyboard-response",381,318330,"0.0-3.123-1.123","prqczdd2huy7f28",475,"139.csv","","null","resources/maskTrios/BBA2.jpg","null","",NA,NA,NA,NA,""
"image-keyboard-response",382,319535,"0.0-3.123-2.123","prqczdd2huy7f28",475,"139.csv","","null","resources/images/coin2.png","null","",NA,NA,NA,NA,""
"image-keyboard-response",383,319585,"0.0-3.124-0.124","prqczdd2huy7f28",475,"139.csv","","48.30000019073486","resources/trios/L2T1A2.jpg","39","restless",0.9,0.4,0.5,0.403984138468662,"true"
"image-keyboard-response",384,319988,"0.0-3.124-1.124","prqczdd2huy7f28",475,"139.csv","","null","resources/maskTrios/BBA2.jpg","null","",NA,NA,NA,NA,""
"image-keyboard-response",385,321190,"0.0-3.124-2.124","prqczdd2huy7f28",475,"139.csv","","null","resources/images/coin2.png","null","",NA,NA,NA,NA,""
"image-keyboard-response",386,321380,"0.0-3.125-0.125","prqczdd2huy7f28",475,"139.csv","","188.10000014305115","resources/trios/L4T4A2.jpg","39","restless",0.9,0.4,0.5,0.444437981747041,"true"
"image-keyboard-response",387,321784,"0.0-3.125-1.125","prqczdd2huy7f28",475,"139.csv","","null","resources/maskTrios/BBA2.jpg","null","",NA,NA,NA,NA,""
"image-keyboard-response",388,322991,"0.0-3.125-2.125","prqczdd2huy7f28",475,"139.csv","","null","resources/images/coin2.png","null","",NA,NA,NA,NA,""
"image-keyboard-response",389,323141,"0.0-3.126-0.126","prqczdd2huy7f28",475,"139.csv","","148.19999980926514","resources/trios/L2T4A1.jpg","39","restless",0.9,0.4,0.5,0.327872934612966,"true"
"image-keyboard-response",390,323547,"0.0-3.126-1.126","prqczdd2huy7f28",475,"139.csv","","null","resources/maskTrios/BBA1.jpg","null","",NA,NA,NA,NA,""
"image-keyboard-response",391,324751,"0.0-3.126-2.126","prqczdd2huy7f28",475,"139.csv","","null","resources/images/coin2.png","null","",NA,NA,NA,NA,""
"image-keyboard-response",392,324829,"0.0-3.127-0.127","prqczdd2huy7f28",475,"139.csv","","75.80000019073486","resources/trios/L2T1A1.jpg","39","restless",0.8,0.4,0.5,0.107957448070143,"true"
"image-keyboard-response",393,325231,"0.0-3.127-1.127","prqczdd2huy7f28",475,"139.csv","","null","resources/maskTrios/BBA1.jpg","null","",NA,NA,NA,NA,""
"image-keyboard-response",394,326438,"0.0-3.127-2.127","prqczdd2huy7f28",475,"139.csv","","null","resources/images/coin2.png","null","",NA,NA,NA,NA,""
"image-keyboard-response",395,326482,"0.0-3.128-0.128","prqczdd2huy7f28",475,"139.csv","","41.5","resources/trios/L4T4A2.jpg","39","restless",0.8,0.4,0.5,0.182030574231215,"true"
"image-keyboard-response",396,326887,"0.0-3.128-1.128","prqczdd2huy7f28",475,"139.csv","","null","resources/maskTrios/BBA2.jpg","null","",NA,NA,NA,NA,""
"image-keyboard-response",397,328091,"0.0-3.128-2.128","prqczdd2huy7f28",475,"139.csv","","null","resources/images/coin2.png","null","",NA,NA,NA,NA,""
"image-keyboard-response",398,328136,"0.0-3.129-0.129","prqczdd2huy7f28",475,"139.csv","","43","resources/trios/L2T1A1.jpg","39","restless",0.8,0.4,0.5,0.884181279135432,"false"
"image-keyboard-response",399,328543,"0.0-3.129-1.129","prqczdd2huy7f28",475,"139.csv","","null","resources/maskTrios/BBA1.jpg","null","",NA,NA,NA,NA,""
"image-keyboard-response",400,329749,"0.0-3.129-2.129","prqczdd2huy7f28",475,"139.csv","","null","resources/images/fishbone.png","null","",NA,NA,NA,NA,""
"image-keyboard-response",401,330083,"0.0-3.130-0.130","prqczdd2huy7f28",475,"139.csv","","331.7999999523163","resources/trios/L4T4A2.jpg","37","restless",0.8,0.4,0.5,0.796893500398913,"true"
"image-keyboard-response",402,330488,"0.0-3.130-1.130","prqczdd2huy7f28",475,"139.csv","","null","resources/maskTrios/L4BB.jpg","null","",NA,NA,NA,NA,""
"image-keyboard-response",403,331694,"0.0-3.130-2.130","prqczdd2huy7f28",475,"139.csv","","null","resources/images/coin2.png","null","",NA,NA,NA,NA,""
"image-keyboard-response",404,332148,"0.0-3.131-0.131","prqczdd2huy7f28",475,"139.csv","","452.10000014305115","resources/trios/L4T1A2.jpg","37","restless",0.8,0.4,0.5,0.980114268790519,"false"
"image-keyboard-response",405,332555,"0.0-3.131-1.131","prqczdd2huy7f28",475,"139.csv","","null","resources/maskTrios/L4BB.jpg","null","",NA,NA,NA,NA,""
"image-keyboard-response",406,333759,"0.0-3.131-2.131","prqczdd2huy7f28",475,"139.csv","","null","resources/images/fishbone.png","null","",NA,NA,NA,NA,""
"image-keyboard-response",407,334195,"0.0-3.132-0.132","prqczdd2huy7f28",475,"139.csv","","433.39999985694885","resources/trios/L2T1A2.jpg","38","restless",0.8,0.4,0.5,0.0976641448516764,"true"
"image-keyboard-response",408,334602,"0.0-3.132-1.132","prqczdd2huy7f28",475,"139.csv","","null","resources/maskTrios/BT1B.jpg","null","",NA,NA,NA,NA,""
"image-keyboard-response",409,335809,"0.0-3.132-2.132","prqczdd2huy7f28",475,"139.csv","","null","resources/images/coin2.png","null","",NA,NA,NA,NA,""
"image-keyboard-response",410,335887,"0.0-3.133-0.133","prqczdd2huy7f28",475,"139.csv","","76.5","resources/trios/L4T4A1.jpg","38","restless",0.8,0.4,0.5,0.0314135751777396,"true"
"image-keyboard-response",411,336294,"0.0-3.133-1.133","prqczdd2huy7f28",475,"139.csv","","null","resources/maskTrios/BT4B.jpg","null","",NA,NA,NA,NA,""
"image-keyboard-response",412,337501,"0.0-3.133-2.133","prqczdd2huy7f28",475,"139.csv","","null","resources/images/coin2.png","null","",NA,NA,NA,NA,""
"image-keyboard-response",413,337548,"0.0-3.134-0.134","prqczdd2huy7f28",475,"139.csv","","44.700000047683716","resources/trios/L4T4A1.jpg","38","restless",0.8,0.4,0.5,0.732258385067573,"false"
"image-keyboard-response",414,337954,"0.0-3.134-1.134","prqczdd2huy7f28",475,"139.csv","","null","resources/maskTrios/BT4B.jpg","null","",NA,NA,NA,NA,""
"image-keyboard-response",415,339161,"0.0-3.134-2.134","prqczdd2huy7f28",475,"139.csv","","null","resources/images/fishbone.png","null","",NA,NA,NA,NA,""
"image-keyboard-response",416,342788,"0.0-3.135-0.135","prqczdd2huy7f28",475,"139.csv","","3624.5999999046326","resources/trios/L4T4A1.jpg","39","restless",0.9,0.4,0.5,0.761809027054108,"false"
"image-keyboard-response",417,343196,"0.0-3.135-1.135","prqczdd2huy7f28",475,"139.csv","","null","resources/maskTrios/BBA1.jpg","null","",NA,NA,NA,NA,""
"image-keyboard-response",418,344402,"0.0-3.135-2.135","prqczdd2huy7f28",475,"139.csv","","null","resources/images/fishbone.png","null","",NA,NA,NA,NA,""
"image-keyboard-response",419,344820,"0.0-3.136-0.136","prqczdd2huy7f28",475,"139.csv","","415.5","resources/trios/L4T1A2.jpg","37","restless",0.9,0.4,0.5,0.963106560131812,"false"
"image-keyboard-response",420,345225,"0.0-3.136-1.136","prqczdd2huy7f28",475,"139.csv","","null","resources/maskTrios/L4BB.jpg","null","",NA,NA,NA,NA,""
"image-keyboard-response",421,346427,"0.0-3.136-2.136","prqczdd2huy7f28",475,"139.csv","","null","resources/images/fishbone.png","null","",NA,NA,NA,NA,""
"image-keyboard-response",422,346709,"0.0-3.137-0.137","prqczdd2huy7f28",475,"139.csv","","279.7000000476837","resources/trios/L2T4A2.jpg","38","restless",0.9,0.4,0.6,0.317389398368347,"true"
"image-keyboard-response",423,347117,"0.0-3.137-1.137","prqczdd2huy7f28",475,"139.csv","","null","resources/maskTrios/BT4B.jpg","null","",NA,NA,NA,NA,""
"image-keyboard-response",424,348324,"0.0-3.137-2.137","prqczdd2huy7f28",475,"139.csv","","null","resources/images/coin2.png","null","",NA,NA,NA,NA,""
"image-keyboard-response",425,348461,"0.0-3.138-0.138","prqczdd2huy7f28",475,"139.csv","","135.20000004768372","resources/trios/L4T1A1.jpg","38","restless",0.9,0.4,0.7,0.544188343506615,"false"
"image-keyboard-response",426,348869,"0.0-3.138-1.138","prqczdd2huy7f28",475,"139.csv","","null","resources/maskTrios/BT1B.jpg","null","",NA,NA,NA,NA,""
"image-keyboard-response",427,350073,"0.0-3.138-2.138","prqczdd2huy7f28",475,"139.csv","","null","resources/images/fishbone.png","null","",NA,NA,NA,NA,""
"image-keyboard-response",428,350208,"0.0-3.139-0.139","prqczdd2huy7f28",475,"139.csv","","132.70000004768372","resources/trios/L4T4A1.jpg","37","restless",0.9,0.4,0.7,0.591998841502805,"true"
"image-keyboard-response",429,350615,"0.0-3.139-1.139","prqczdd2huy7f28",475,"139.csv","","null","resources/maskTrios/L4BB.jpg","null","",NA,NA,NA,NA,""
"image-keyboard-response",430,351819,"0.0-3.139-2.139","prqczdd2huy7f28",475,"139.csv","","null","resources/images/coin2.png","null","",NA,NA,NA,NA,""
"image-keyboard-response",431,351944,"0.0-3.140-0.140","prqczdd2huy7f28",475,"139.csv","","123.40000009536743","resources/trios/L4T1A1.jpg","37","restless",0.9,0.4,0.7,0.911686195018935,"false"
"image-keyboard-response",432,352349,"0.0-3.140-1.140","prqczdd2huy7f28",475,"139.csv","","null","resources/maskTrios/L4BB.jpg","null","",NA,NA,NA,NA,""
"image-keyboard-response",433,353551,"0.0-3.140-2.140","prqczdd2huy7f28",475,"139.csv","","null","resources/images/fishbone.png","null","",NA,NA,NA,NA,""
"image-keyboard-response",434,353672,"0.0-3.141-0.141","prqczdd2huy7f28",475,"139.csv","","119.59999990463257","resources/trios/L2T1A2.jpg","39","restless",0.8,0.4,0.7,0.86337457631586,"false"
"image-keyboard-response",435,354078,"0.0-3.141-1.141","prqczdd2huy7f28",475,"139.csv","","null","resources/maskTrios/BBA2.jpg","null","",NA,NA,NA,NA,""
"image-keyboard-response",436,355281,"0.0-3.141-2.141","prqczdd2huy7f28",475,"139.csv","","null","resources/images/fishbone.png","null","",NA,NA,NA,NA,""
"image-keyboard-response",437,355447,"0.0-3.142-0.142","prqczdd2huy7f28",475,"139.csv","","163.29999995231628","resources/trios/L4T4A1.jpg","38","restless",0.7,0.4,0.7,0.637704410014314,"false"
"image-keyboard-response",438,355850,"0.0-3.142-1.142","prqczdd2huy7f28",475,"139.csv","","null","resources/maskTrios/BT4B.jpg","null","",NA,NA,NA,NA,""
"image-keyboard-response",439,357053,"0.0-3.142-2.142","prqczdd2huy7f28",475,"139.csv","","null","resources/images/fishbone.png","null","",NA,NA,NA,NA,""
"image-keyboard-response",440,357061,"0.0-3.143-0.143","prqczdd2huy7f28",475,"139.csv","","6.1000001430511475","resources/trios/L4T4A1.jpg","37","restless",0.7,0.4,0.7,0.749760642890153,"false"
"image-keyboard-response",441,357468,"0.0-3.143-1.143","prqczdd2huy7f28",475,"139.csv","","null","resources/maskTrios/L4BB.jpg","null","",NA,NA,NA,NA,""
"image-keyboard-response",442,358674,"0.0-3.143-2.143","prqczdd2huy7f28",475,"139.csv","","null","resources/images/fishbone.png","null","",NA,NA,NA,NA,""
"image-keyboard-response",443,359473,"0.0-3.144-0.144","prqczdd2huy7f28",475,"139.csv","","796.8000001907349","resources/trios/L2T4A1.jpg","39","restless",0.7,0.4,0.7,0.756881927095403,"false"
"image-keyboard-response",444,359877,"0.0-3.144-1.144","prqczdd2huy7f28",475,"139.csv","","null","resources/maskTrios/BBA1.jpg","null","",NA,NA,NA,NA,""
"image-keyboard-response",445,361084,"0.0-3.144-2.144","prqczdd2huy7f28",475,"139.csv","","null","resources/images/fishbone.png","null","",NA,NA,NA,NA,""
"image-keyboard-response",446,361473,"0.0-3.145-0.145","prqczdd2huy7f28",475,"139.csv","","387.39999985694885","resources/trios/L2T4A1.jpg","38","restless",0.6,0.5,0.7,0.617858284975747,"false"
"image-keyboard-response",447,361878,"0.0-3.145-1.145","prqczdd2huy7f28",475,"139.csv","","null","resources/maskTrios/BT4B.jpg","null","",NA,NA,NA,NA,""
"image-keyboard-response",448,363082,"0.0-3.145-2.145","prqczdd2huy7f28",475,"139.csv","","null","resources/images/fishbone.png","null","",NA,NA,NA,NA,""
"image-keyboard-response",449,363530,"0.0-3.146-0.146","prqczdd2huy7f28",475,"139.csv","","446.2999999523163","resources/trios/L4T4A2.jpg","39","restless",0.6,0.5,0.7,0.269350380629537,"true"
"image-keyboard-response",450,363936,"0.0-3.146-1.146","prqczdd2huy7f28",475,"139.csv","","null","resources/maskTrios/BBA2.jpg","null","",NA,NA,NA,NA,""
"image-keyboard-response",451,365143,"0.0-3.146-2.146","prqczdd2huy7f28",475,"139.csv","","null","resources/images/coin2.png","null","",NA,NA,NA,NA,""
"image-keyboard-response",452,365332,"0.0-3.147-0.147","prqczdd2huy7f28",475,"139.csv","","186.79999995231628","resources/trios/L2T4A1.jpg","39","restless",0.6,0.5,0.7,0.596753887046673,"true"
"image-keyboard-response",453,365739,"0.0-3.147-1.147","prqczdd2huy7f28",475,"139.csv","","null","resources/maskTrios/BBA1.jpg","null","",NA,NA,NA,NA,""
"image-keyboard-response",454,366944,"0.0-3.147-2.147","prqczdd2huy7f28",475,"139.csv","","null","resources/images/coin2.png","null","",NA,NA,NA,NA,""
"image-keyboard-response",455,366950,"0.0-3.148-0.148","prqczdd2huy7f28",475,"139.csv","","4.099999904632568","resources/trios/L4T4A1.jpg","39","restless",0.6,0.5,0.6,0.284625913571025,"true"
"image-keyboard-response",456,367357,"0.0-3.148-1.148","prqczdd2huy7f28",475,"139.csv","","null","resources/maskTrios/BBA1.jpg","null","",NA,NA,NA,NA,""
"image-keyboard-response",457,368560,"0.0-3.148-2.148","prqczdd2huy7f28",475,"139.csv","","null","resources/images/coin2.png","null","",NA,NA,NA,NA,""
"image-keyboard-response",458,368754,"0.0-3.149-0.149","prqczdd2huy7f28",475,"139.csv","","191.69999980926514","resources/trios/L4T1A1.jpg","39","restless",0.6,0.5,0.6,0.167726283177942,"true"
"image-keyboard-response",459,369161,"0.0-3.149-1.149","prqczdd2huy7f28",475,"139.csv","","null","resources/maskTrios/BBA1.jpg","null","",NA,NA,NA,NA,""
"image-keyboard-response",460,370368,"0.0-3.149-2.149","prqczdd2huy7f28",475,"139.csv","","null","resources/images/coin2.png","null","",NA,NA,NA,NA,""
"image-keyboard-response",461,370525,"0.0-3.150-0.150","prqczdd2huy7f28",475,"139.csv","","155","resources/trios/L2T4A1.jpg","39","restless",0.6,0.5,0.6,0.959955269898115,"false"
"image-keyboard-response",462,370930,"0.0-3.150-1.150","prqczdd2huy7f28",475,"139.csv","","null","resources/maskTrios/BBA1.jpg","null","",NA,NA,NA,NA,""
"image-keyboard-response",463,372136,"0.0-3.150-2.150","prqczdd2huy7f28",475,"139.csv","","null","resources/images/fishbone.png","null","",NA,NA,NA,NA,""
"image-keyboard-response",464,376437,"0.0-3.151-0.151","prqczdd2huy7f28",475,"139.csv","","4298.700000047684","resources/trios/L2T4A1.jpg","38","restless",0.6,0.5,0.6,0.383274812243994,"true"
"image-keyboard-response",465,376843,"0.0-3.151-1.151","prqczdd2huy7f28",475,"139.csv","","null","resources/maskTrios/BT4B.jpg","null","",NA,NA,NA,NA,""
"image-keyboard-response",466,378049,"0.0-3.151-2.151","prqczdd2huy7f28",475,"139.csv","","null","resources/images/coin2.png","null","",NA,NA,NA,NA,""
"image-keyboard-response",467,378461,"0.0-3.152-0.152","prqczdd2huy7f28",475,"139.csv","","410","resources/trios/L4T1A2.jpg","38","restless",0.6,0.5,0.5,0.621623244638663,"false"
"image-keyboard-response",468,378868,"0.0-3.152-1.152","prqczdd2huy7f28",475,"139.csv","","null","resources/maskTrios/BT1B.jpg","null","",NA,NA,NA,NA,""
"image-keyboard-response",469,380075,"0.0-3.152-2.152","prqczdd2huy7f28",475,"139.csv","","null","resources/images/fishbone.png","null","",NA,NA,NA,NA,""
"image-keyboard-response",470,380523,"0.0-3.153-0.153","prqczdd2huy7f28",475,"139.csv","","446.69999980926514","resources/trios/L2T1A2.jpg","37","restless",0.6,0.5,0.4,0.5500348557742,"true"
"image-keyboard-response",471,380930,"0.0-3.153-1.153","prqczdd2huy7f28",475,"139.csv","","null","resources/maskTrios/L2BB.jpg","null","",NA,NA,NA,NA,""
"image-keyboard-response",472,382137,"0.0-3.153-2.153","prqczdd2huy7f28",475,"139.csv","","null","resources/images/coin2.png","null","",NA,NA,NA,NA,""
"image-keyboard-response",473,382202,"0.0-3.154-0.154","prqczdd2huy7f28",475,"139.csv","","63.10000014305115","resources/trios/L4T1A1.jpg","37","restless",0.6,0.5,0.4,0.0521015987997031,"true"
"image-keyboard-response",474,382604,"0.0-3.154-1.154","prqczdd2huy7f28",475,"139.csv","","null","resources/maskTrios/L4BB.jpg","null","",NA,NA,NA,NA,""
"image-keyboard-response",475,383810,"0.0-3.154-2.154","prqczdd2huy7f28",475,"139.csv","","null","resources/images/coin2.png","null","",NA,NA,NA,NA,""
"image-keyboard-response",476,383895,"0.0-3.155-0.155","prqczdd2huy7f28",475,"139.csv","","83.40000009536743","resources/trios/L2T1A1.jpg","37","restless",0.6,0.5,0.4,0.140869470218381,"true"
"image-keyboard-response",477,384300,"0.0-3.155-1.155","prqczdd2huy7f28",475,"139.csv","","null","resources/maskTrios/L2BB.jpg","null","",NA,NA,NA,NA,""
"image-keyboard-response",478,385504,"0.0-3.155-2.155","prqczdd2huy7f28",475,"139.csv","","null","resources/images/coin2.png","null","",NA,NA,NA,NA,""
"image-keyboard-response",479,385591,"0.0-3.156-0.156","prqczdd2huy7f28",475,"139.csv","","85.29999995231628","resources/trios/L2T1A2.jpg","37","restless",0.7,0.5,0.4,0.561372563704402,"true"
"image-keyboard-response",480,385997,"0.0-3.156-1.156","prqczdd2huy7f28",475,"139.csv","","null","resources/maskTrios/L2BB.jpg","null","",NA,NA,NA,NA,""
"image-keyboard-response",481,387201,"0.0-3.156-2.156","prqczdd2huy7f28",475,"139.csv","","null","resources/images/coin2.png","null","",NA,NA,NA,NA,""
"image-keyboard-response",482,387308,"0.0-3.157-0.157","prqczdd2huy7f28",475,"139.csv","","105.30000019073486","resources/trios/L2T4A1.jpg","37","restless",0.7,0.5,0.4,0.817807432732529,"false"
"image-keyboard-response",483,387715,"0.0-3.157-1.157","prqczdd2huy7f28",475,"139.csv","","null","resources/maskTrios/L2BB.jpg","null","",NA,NA,NA,NA,""
"image-keyboard-response",484,388922,"0.0-3.157-2.157","prqczdd2huy7f28",475,"139.csv","","null","resources/images/fishbone.png","null","",NA,NA,NA,NA,""
"image-keyboard-response",485,389738,"0.0-3.158-0.158","prqczdd2huy7f28",475,"139.csv","","813.8000001907349","resources/trios/L4T1A2.jpg","38","restless",0.7,0.5,0.3,0.53598703145792,"false"
"image-keyboard-response",486,390145,"0.0-3.158-1.158","prqczdd2huy7f28",475,"139.csv","","null","resources/maskTrios/BT1B.jpg","null","",NA,NA,NA,NA,""
"image-keyboard-response",487,391352,"0.0-3.158-2.158","prqczdd2huy7f28",475,"139.csv","","null","resources/images/fishbone.png","null","",NA,NA,NA,NA,""
"image-keyboard-response",488,391862,"0.0-3.159-0.159","prqczdd2huy7f28",475,"139.csv","","508.09999990463257","resources/trios/L4T1A2.jpg","37","restless",0.7,0.5,0.3,0.679407763732971,"true"
"image-keyboard-response",489,392269,"0.0-3.159-1.159","prqczdd2huy7f28",475,"139.csv","","null","resources/maskTrios/L4BB.jpg","null","",NA,NA,NA,NA,""
"image-keyboard-response",490,393476,"0.0-3.159-2.159","prqczdd2huy7f28",475,"139.csv","","null","resources/images/coin2.png","null","",NA,NA,NA,NA,""
"image-keyboard-response",491,393683,"0.0-3.160-0.160","prqczdd2huy7f28",475,"139.csv","","204.90000009536743","resources/trios/L2T1A1.jpg","37","restless",0.7,0.5,0.3,0.831218786411244,"false"
"image-keyboard-response",492,394090,"0.0-3.160-1.160","prqczdd2huy7f28",475,"139.csv","","null","resources/maskTrios/L2BB.jpg","null","",NA,NA,NA,NA,""
"image-keyboard-response",493,395294,"0.0-3.160-2.160","prqczdd2huy7f28",475,"139.csv","","null","resources/images/fishbone.png","null","",NA,NA,NA,NA,""
"image-keyboard-response",494,395422,"0.0-3.161-0.161","prqczdd2huy7f28",475,"139.csv","","126","resources/trios/L4T1A1.jpg","38","restless",0.7,0.5,0.3,0.463429304125236,"true"
"image-keyboard-response",495,395825,"0.0-3.161-1.161","prqczdd2huy7f28",475,"139.csv","","null","resources/maskTrios/BT1B.jpg","null","",NA,NA,NA,NA,""
"image-keyboard-response",496,397031,"0.0-3.161-2.161","prqczdd2huy7f28",475,"139.csv","","null","resources/images/coin2.png","null","",NA,NA,NA,NA,""
"image-keyboard-response",497,397088,"0.0-3.162-0.162","prqczdd2huy7f28",475,"139.csv","","54.80000019073486","resources/trios/L4T1A2.jpg","38","restless",0.7,0.5,0.3,0.058013815197637,"true"
"image-keyboard-response",498,397494,"0.0-3.162-1.162","prqczdd2huy7f28",475,"139.csv","","null","resources/maskTrios/BT1B.jpg","null","",NA,NA,NA,NA,""
"image-keyboard-response",499,398701,"0.0-3.162-2.162","prqczdd2huy7f28",475,"139.csv","","null","resources/images/coin2.png","null","",NA,NA,NA,NA,""
"image-keyboard-response",500,398896,"0.0-3.163-0.163","prqczdd2huy7f28",475,"139.csv","","192.5","resources/trios/L4T4A2.jpg","39","restless",0.7,0.5,0.3,0.106808665160355,"true"
"image-keyboard-response",501,399299,"0.0-3.163-1.163","prqczdd2huy7f28",475,"139.csv","","null","resources/maskTrios/BBA2.jpg","null","",NA,NA,NA,NA,""
"image-keyboard-response",502,400502,"0.0-3.163-2.163","prqczdd2huy7f28",475,"139.csv","","null","resources/images/coin2.png","null","",NA,NA,NA,NA,""
"image-keyboard-response",503,400634,"0.0-3.164-0.164","prqczdd2huy7f28",475,"139.csv","","129","resources/trios/L4T4A2.jpg","39","restless",0.7,0.5,0.3,0.583810757070584,"false"
"image-keyboard-response",504,401036,"0.0-3.164-1.164","prqczdd2huy7f28",475,"139.csv","","null","resources/maskTrios/BBA2.jpg","null","",NA,NA,NA,NA,""
"image-keyboard-response",505,402240,"0.0-3.164-2.164","prqczdd2huy7f28",475,"139.csv","","null","resources/images/fishbone.png","null","",NA,NA,NA,NA,""
"image-keyboard-response",506,402355,"0.0-3.165-0.165","prqczdd2huy7f28",475,"139.csv","","112.40000009536743","resources/trios/L2T4A1.jpg","39","restless",0.7,0.5,0.3,0.967704036037558,"false"
"image-keyboard-response",507,402761,"0.0-3.165-1.165","prqczdd2huy7f28",475,"139.csv","","null","resources/maskTrios/BBA1.jpg","null","",NA,NA,NA,NA,""
"image-keyboard-response",508,403967,"0.0-3.165-2.165","prqczdd2huy7f28",475,"139.csv","","null","resources/images/fishbone.png","null","",NA,NA,NA,NA,""
"image-keyboard-response",509,403985,"0.0-3.166-0.166","prqczdd2huy7f28",475,"139.csv","","15.299999952316284","resources/trios/L4T1A2.jpg","39","restless",0.7,0.5,0.3,0.914522086785862,"false"
"image-keyboard-response",510,404392,"0.0-3.166-1.166","prqczdd2huy7f28",475,"139.csv","","null","resources/maskTrios/BBA2.jpg","null","",NA,NA,NA,NA,""
"image-keyboard-response",511,405595,"0.0-3.166-2.166","prqczdd2huy7f28",475,"139.csv","","null","resources/images/fishbone.png","null","",NA,NA,NA,NA,""
"image-keyboard-response",512,405742,"0.0-3.167-0.167","prqczdd2huy7f28",475,"139.csv","","144.60000014305115","resources/trios/L4T4A1.jpg","38","restless",0.7,0.5,0.3,0.986643460185015,"false"
"image-keyboard-response",513,406148,"0.0-3.167-1.167","prqczdd2huy7f28",475,"139.csv","","null","resources/maskTrios/BT4B.jpg","null","",NA,NA,NA,NA,""
"image-keyboard-response",514,407350,"0.0-3.167-2.167","prqczdd2huy7f28",475,"139.csv","","null","resources/images/fishbone.png","null","",NA,NA,NA,NA,""
"image-keyboard-response",515,407664,"0.0-3.168-0.168","prqczdd2huy7f28",475,"139.csv","","312.7999999523163","resources/trios/L2T4A2.jpg","37","restless",0.7,0.6,0.3,0.586998690446781,"true"
"image-keyboard-response",516,408070,"0.0-3.168-1.168","prqczdd2huy7f28",475,"139.csv","","null","resources/maskTrios/L2BB.jpg","null","",NA,NA,NA,NA,""
"image-keyboard-response",517,409277,"0.0-3.168-2.168","prqczdd2huy7f28",475,"139.csv","","null","resources/images/coin2.png","null","",NA,NA,NA,NA,""
"image-keyboard-response",518,409368,"0.0-3.169-0.169","prqczdd2huy7f28",475,"139.csv","","88.40000009536743","resources/trios/L2T4A2.jpg","37","restless",0.7,0.6,0.3,0.733060924532569,"false"
"image-keyboard-response",519,409770,"0.0-3.169-1.169","prqczdd2huy7f28",475,"139.csv","","null","resources/maskTrios/L2BB.jpg","null","",NA,NA,NA,NA,""
"image-keyboard-response",520,410973,"0.0-3.169-2.169","prqczdd2huy7f28",475,"139.csv","","null","resources/images/fishbone.png","null","",NA,NA,NA,NA,""
"image-keyboard-response",521,411310,"0.0-3.170-0.170","prqczdd2huy7f28",475,"139.csv","","334.90000009536743","resources/trios/L2T1A2.jpg","37","restless",0.7,0.6,0.3,0.0368146257507338,"true"
"image-keyboard-response",522,411717,"0.0-3.170-1.170","prqczdd2huy7f28",475,"139.csv","","null","resources/maskTrios/L2BB.jpg","null","",NA,NA,NA,NA,""
"image-keyboard-response",523,412923,"0.0-3.170-2.170","prqczdd2huy7f28",475,"139.csv","","null","resources/images/coin2.png","null","",NA,NA,NA,NA,""
"image-keyboard-response",524,413024,"0.0-3.171-0.171","prqczdd2huy7f28",475,"139.csv","","99.39999985694885","resources/trios/L4T1A1.jpg","37","restless",0.7,0.6,0.2,0.659921750034554,"true"
"image-keyboard-response",525,413428,"0.0-3.171-1.171","prqczdd2huy7f28",475,"139.csv","","null","resources/maskTrios/L4BB.jpg","null","",NA,NA,NA,NA,""
"image-keyboard-response",526,414633,"0.0-3.171-2.171","prqczdd2huy7f28",475,"139.csv","","null","resources/images/coin2.png","null","",NA,NA,NA,NA,""
"image-keyboard-response",527,414735,"0.0-3.172-0.172","prqczdd2huy7f28",475,"139.csv","","99.29999995231628","resources/trios/L2T4A2.jpg","37","restless",0.7,0.6,0.2,0.899859640451042,"false"
"image-keyboard-response",528,415141,"0.0-3.172-1.172","prqczdd2huy7f28",475,"139.csv","","null","resources/maskTrios/L2BB.jpg","null","",NA,NA,NA,NA,""
"image-keyboard-response",529,416347,"0.0-3.172-2.172","prqczdd2huy7f28",475,"139.csv","","null","resources/images/fishbone.png","null","",NA,NA,NA,NA,""
"image-keyboard-response",530,416354,"0.0-3.173-0.173","prqczdd2huy7f28",475,"139.csv","","4.599999904632568","resources/trios/L4T1A2.jpg","37","restless",0.7,0.6,0.2,0.561292187628774,"true"
"image-keyboard-response",531,416758,"0.0-3.173-1.173","prqczdd2huy7f28",475,"139.csv","","null","resources/maskTrios/L4BB.jpg","null","",NA,NA,NA,NA,""
"image-keyboard-response",532,417960,"0.0-3.173-2.173","prqczdd2huy7f28",475,"139.csv","","null","resources/images/coin2.png","null","",NA,NA,NA,NA,""
"image-keyboard-response",533,418366,"0.0-3.174-0.174","prqczdd2huy7f28",475,"139.csv","","404","resources/trios/L4T1A1.jpg","37","restless",0.7,0.6,0.2,0.670629543739834,"true"
"image-keyboard-response",534,418773,"0.0-3.174-1.174","prqczdd2huy7f28",475,"139.csv","","null","resources/maskTrios/L4BB.jpg","null","",NA,NA,NA,NA,""
"image-keyboard-response",535,419976,"0.0-3.174-2.174","prqczdd2huy7f28",475,"139.csv","","null","resources/images/coin2.png","null","",NA,NA,NA,NA,""
"image-keyboard-response",536,420075,"0.0-3.175-0.175","prqczdd2huy7f28",475,"139.csv","","96.69999980926514","resources/trios/L2T1A2.jpg","37","restless",0.7,0.6,0.2,0.759403193266914,"false"
"image-keyboard-response",537,420482,"0.0-3.175-1.175","prqczdd2huy7f28",475,"139.csv","","null","resources/maskTrios/L2BB.jpg","null","",NA,NA,NA,NA,""
"image-keyboard-response",538,421689,"0.0-3.175-2.175","prqczdd2huy7f28",475,"139.csv","","null","resources/images/fishbone.png","null","",NA,NA,NA,NA,""
"image-keyboard-response",539,422347,"0.0-3.176-0.176","prqczdd2huy7f28",475,"139.csv","","656.3999998569489","resources/trios/L2T1A2.jpg","38","restless",0.7,0.7,0.2,0.566602059531005,"true"
"image-keyboard-response",540,422754,"0.0-3.176-1.176","prqczdd2huy7f28",475,"139.csv","","null","resources/maskTrios/BT1B.jpg","null","",NA,NA,NA,NA,""
"image-keyboard-response",541,423961,"0.0-3.176-2.176","prqczdd2huy7f28",475,"139.csv","","null","resources/images/coin2.png","null","",NA,NA,NA,NA,""
"image-keyboard-response",542,424000,"0.0-3.177-0.177","prqczdd2huy7f28",475,"139.csv","","37.200000047683716","resources/trios/L2T4A2.jpg","38","restless",0.7,0.7,0.3,0.77839515814158,"false"
"image-keyboard-response",543,424407,"0.0-3.177-1.177","prqczdd2huy7f28",475,"139.csv","","null","resources/maskTrios/BT4B.jpg","null","",NA,NA,NA,NA,""
"image-keyboard-response",544,425612,"0.0-3.177-2.177","prqczdd2huy7f28",475,"139.csv","","null","resources/images/fishbone.png","null","",NA,NA,NA,NA,""
"image-keyboard-response",545,425876,"0.0-3.178-0.178","prqczdd2huy7f28",475,"139.csv","","261.59999990463257","resources/trios/L4T1A1.jpg","39","restless",0.6,0.7,0.3,0.506128216452362,"false"
"image-keyboard-response",546,426279,"0.0-3.178-1.178","prqczdd2huy7f28",475,"139.csv","","null","resources/maskTrios/BBA1.jpg","null","",NA,NA,NA,NA,""
"image-keyboard-response",547,427485,"0.0-3.178-2.178","prqczdd2huy7f28",475,"139.csv","","null","resources/images/fishbone.png","null","",NA,NA,NA,NA,""
"image-keyboard-response",548,427606,"0.0-3.179-0.179","prqczdd2huy7f28",475,"139.csv","","118.70000004768372","resources/trios/L4T1A2.jpg","37","restless",0.6,0.7,0.3,0.181500187815823,"true"
"image-keyboard-response",549,428009,"0.0-3.179-1.179","prqczdd2huy7f28",475,"139.csv","","null","resources/maskTrios/L4BB.jpg","null","",NA,NA,NA,NA,""
"image-keyboard-response",550,429216,"0.0-3.179-2.179","prqczdd2huy7f28",475,"139.csv","","null","resources/images/coin2.png","null","",NA,NA,NA,NA,""
"image-keyboard-response",551,429299,"0.0-3.180-0.180","prqczdd2huy7f28",475,"139.csv","","80.39999985694885","resources/trios/L4T1A1.jpg","37","restless",0.6,0.7,0.3,0.807825352801522,"false"
"image-keyboard-response",552,429706,"0.0-3.180-1.180","prqczdd2huy7f28",475,"139.csv","","null","resources/maskTrios/L4BB.jpg","null","",NA,NA,NA,NA,""
"image-keyboard-response",553,430908,"0.0-3.180-2.180","prqczdd2huy7f28",475,"139.csv","","null","resources/images/fishbone.png","null","",NA,NA,NA,NA,""
"image-keyboard-response",554,431182,"0.0-3.181-0.181","prqczdd2huy7f28",475,"139.csv","","271.09999990463257","resources/trios/L4T4A2.jpg","38","restless",0.6,0.8,0.3,0.918979190219467,"false"
"image-keyboard-response",555,431586,"0.0-3.181-1.181","prqczdd2huy7f28",475,"139.csv","","null","resources/maskTrios/BT4B.jpg","null","",NA,NA,NA,NA,""
"image-keyboard-response",556,432792,"0.0-3.181-2.181","prqczdd2huy7f28",475,"139.csv","","null","resources/images/fishbone.png","null","",NA,NA,NA,NA,""
"image-keyboard-response",557,432836,"0.0-3.182-0.182","prqczdd2huy7f28",475,"139.csv","","41.5","resources/trios/L4T4A2.jpg","37","restless",0.5,0.8,0.3,0.228656272032125,"true"
"image-keyboard-response",558,433242,"0.0-3.182-1.182","prqczdd2huy7f28",475,"139.csv","","null","resources/maskTrios/L4BB.jpg","null","",NA,NA,NA,NA,""
"image-keyboard-response",559,434449,"0.0-3.182-2.182","prqczdd2huy7f28",475,"139.csv","","null","resources/images/coin2.png","null","",NA,NA,NA,NA,""
"image-keyboard-response",560,434615,"0.0-3.183-0.183","prqczdd2huy7f28",475,"139.csv","","163.5","resources/trios/L2T1A2.jpg","37","restless",0.5,0.8,0.3,0.778592251517381,"false"
"image-keyboard-response",561,435019,"0.0-3.183-1.183","prqczdd2huy7f28",475,"139.csv","","null","resources/maskTrios/L2BB.jpg","null","",NA,NA,NA,NA,""
"image-keyboard-response",562,436222,"0.0-3.183-2.183","prqczdd2huy7f28",475,"139.csv","","null","resources/images/fishbone.png","null","",NA,NA,NA,NA,""
"image-keyboard-response",563,436279,"0.0-3.184-0.184","prqczdd2huy7f28",475,"139.csv","","54.69999980926514","resources/trios/L2T1A1.jpg","37","restless",0.5,0.8,0.3,0.937084171625232,"false"
"image-keyboard-response",564,436682,"0.0-3.184-1.184","prqczdd2huy7f28",475,"139.csv","","null","resources/maskTrios/L2BB.jpg","null","",NA,NA,NA,NA,""
"image-keyboard-response",565,437886,"0.0-3.184-2.184","prqczdd2huy7f28",475,"139.csv","","null","resources/images/fishbone.png","null","",NA,NA,NA,NA,""
"image-keyboard-response",566,437990,"0.0-3.185-0.185","prqczdd2huy7f28",475,"139.csv","","102.39999985694885","resources/trios/L4T1A2.jpg","37","restless",0.5,0.8,0.3,0.905700003717055,"false"
"image-keyboard-response",567,438393,"0.0-3.185-1.185","prqczdd2huy7f28",475,"139.csv","","null","resources/maskTrios/L4BB.jpg","null","",NA,NA,NA,NA,""
"image-keyboard-response",568,439595,"0.0-3.185-2.185","prqczdd2huy7f28",475,"139.csv","","null","resources/images/fishbone.png","null","",NA,NA,NA,NA,""
"image-keyboard-response",569,440270,"0.0-3.186-0.186","prqczdd2huy7f28",475,"139.csv","","673.0999999046326","resources/trios/L2T4A1.jpg","37","restless",0.5,0.8,0.3,0.75972980991096,"false"
"image-keyboard-response",570,440676,"0.0-3.186-1.186","prqczdd2huy7f28",475,"139.csv","","null","resources/maskTrios/L2BB.jpg","null","",NA,NA,NA,NA,""
"image-keyboard-response",571,441882,"0.0-3.186-2.186","prqczdd2huy7f28",475,"139.csv","","null","resources/images/fishbone.png","null","",NA,NA,NA,NA,""
"image-keyboard-response",572,441986,"0.0-3.187-0.187","prqczdd2huy7f28",475,"139.csv","","103","resources/trios/L4T4A2.jpg","37","restless",0.5,0.8,0.3,0.945800565867345,"false"
"image-keyboard-response",573,442391,"0.0-3.187-1.187","prqczdd2huy7f28",475,"139.csv","","null","resources/maskTrios/L4BB.jpg","null","",NA,NA,NA,NA,""
"image-keyboard-response",574,443596,"0.0-3.187-2.187","prqczdd2huy7f28",475,"139.csv","","null","resources/images/fishbone.png","null","",NA,NA,NA,NA,""
"image-keyboard-response",575,443629,"0.0-3.188-0.188","prqczdd2huy7f28",475,"139.csv","","31","resources/trios/L2T4A2.jpg","37","restless",0.5,0.8,0.3,0.772109826548504,"false"
"image-keyboard-response",576,444033,"0.0-3.188-1.188","prqczdd2huy7f28",475,"139.csv","","null","resources/maskTrios/L2BB.jpg","null","",NA,NA,NA,NA,""
"image-keyboard-response",577,445234,"0.0-3.188-2.188","prqczdd2huy7f28",475,"139.csv","","null","resources/images/fishbone.png","null","",NA,NA,NA,NA,""
"image-keyboard-response",578,445320,"0.0-3.189-0.189","prqczdd2huy7f28",475,"139.csv","","83.39999985694885","resources/trios/L2T1A2.jpg","37","restless",0.5,0.9,0.3,0.251145880934137,"true"
"image-keyboard-response",579,445727,"0.0-3.189-1.189","prqczdd2huy7f28",475,"139.csv","","null","resources/maskTrios/L2BB.jpg","null","",NA,NA,NA,NA,""
"image-keyboard-response",580,446929,"0.0-3.189-2.189","prqczdd2huy7f28",475,"139.csv","","null","resources/images/coin2.png","null","",NA,NA,NA,NA,""
"image-keyboard-response",581,446938,"0.0-3.190-0.190","prqczdd2huy7f28",475,"139.csv","","7.1000001430511475","resources/trios/L4T1A1.jpg","37","restless",0.5,0.9,0.3,0.841013186308826,"false"
"image-keyboard-response",582,447344,"0.0-3.190-1.190","prqczdd2huy7f28",475,"139.csv","","null","resources/maskTrios/L4BB.jpg","null","",NA,NA,NA,NA,""
"image-keyboard-response",583,448549,"0.0-3.190-2.190","prqczdd2huy7f28",475,"139.csv","","null","resources/images/fishbone.png","null","",NA,NA,NA,NA,""
"image-keyboard-response",584,448724,"0.0-3.191-0.191","prqczdd2huy7f28",475,"139.csv","","173","resources/trios/L4T1A1.jpg","37","restless",0.5,0.9,0.3,0.863420777541283,"false"
"image-keyboard-response",585,449132,"0.0-3.191-1.191","prqczdd2huy7f28",475,"139.csv","","null","resources/maskTrios/L4BB.jpg","null","",NA,NA,NA,NA,""
"image-keyboard-response",586,450334,"0.0-3.191-2.191","prqczdd2huy7f28",475,"139.csv","","null","resources/images/fishbone.png","null","",NA,NA,NA,NA,""
"image-keyboard-response",587,450409,"0.0-3.192-0.192","prqczdd2huy7f28",475,"139.csv","","72.70000004768372","resources/trios/L4T4A1.jpg","37","restless",0.5,0.9,0.3,0.734202893439952,"false"
"image-keyboard-response",588,450812,"0.0-3.192-1.192","prqczdd2huy7f28",475,"139.csv","","null","resources/maskTrios/L4BB.jpg","null","",NA,NA,NA,NA,""
"image-keyboard-response",589,452015,"0.0-3.192-2.192","prqczdd2huy7f28",475,"139.csv","","null","resources/images/fishbone.png","null","",NA,NA,NA,NA,""
"image-keyboard-response",590,452187,"0.0-3.193-0.193","prqczdd2huy7f28",475,"139.csv","","169.79999995231628","resources/trios/L2T4A1.jpg","38","restless",0.5,0.9,0.3,0.568329403057807,"true"
"image-keyboard-response",591,452594,"0.0-3.193-1.193","prqczdd2huy7f28",475,"139.csv","","null","resources/maskTrios/BT4B.jpg","null","",NA,NA,NA,NA,""
"image-keyboard-response",592,453801,"0.0-3.193-2.193","prqczdd2huy7f28",475,"139.csv","","null","resources/images/coin2.png","null","",NA,NA,NA,NA,""
"image-keyboard-response",593,453864,"0.0-3.194-0.194","prqczdd2huy7f28",475,"139.csv","","60.799999952316284","resources/trios/L4T4A1.jpg","38","restless",0.5,0.9,0.3,0.266178004798296,"true"
"image-keyboard-response",594,454272,"0.0-3.194-1.194","prqczdd2huy7f28",475,"139.csv","","null","resources/maskTrios/BT4B.jpg","null","",NA,NA,NA,NA,""
"image-keyboard-response",595,455476,"0.0-3.194-2.194","prqczdd2huy7f28",475,"139.csv","","null","resources/images/coin2.png","null","",NA,NA,NA,NA,""
"image-keyboard-response",596,455605,"0.0-3.195-0.195","prqczdd2huy7f28",475,"139.csv","","126.90000009536743","resources/trios/L4T1A1.jpg","38","restless",0.5,0.9,0.3,0.150159955671089,"true"
"image-keyboard-response",597,456011,"0.0-3.195-1.195","prqczdd2huy7f28",475,"139.csv","","null","resources/maskTrios/BT1B.jpg","null","",NA,NA,NA,NA,""
"image-keyboard-response",598,457218,"0.0-3.195-2.195","prqczdd2huy7f28",475,"139.csv","","null","resources/images/coin2.png","null","",NA,NA,NA,NA,""
"image-keyboard-response",599,457338,"0.0-3.196-0.196","prqczdd2huy7f28",475,"139.csv","","117.69999980926514","resources/trios/L4T4A1.jpg","38","restless",0.5,0.9,0.3,0.409896777138196,"true"
"image-keyboard-response",600,457744,"0.0-3.196-1.196","prqczdd2huy7f28",475,"139.csv","","null","resources/maskTrios/BT4B.jpg","null","",NA,NA,NA,NA,""
"image-keyboard-response",601,458949,"0.0-3.196-2.196","prqczdd2huy7f28",475,"139.csv","","null","resources/images/coin2.png","null","",NA,NA,NA,NA,""
"image-keyboard-response",602,459037,"0.0-3.197-0.197","prqczdd2huy7f28",475,"139.csv","","85.60000014305115","resources/trios/L2T1A2.jpg","38","restless",0.4,0.9,0.3,0.88394168972464,"true"
"image-keyboard-response",603,459444,"0.0-3.197-1.197","prqczdd2huy7f28",475,"139.csv","","null","resources/maskTrios/BT1B.jpg","null","",NA,NA,NA,NA,""
"image-keyboard-response",604,460648,"0.0-3.197-2.197","prqczdd2huy7f28",475,"139.csv","","null","resources/images/coin2.png","null","",NA,NA,NA,NA,""
"image-keyboard-response",605,460776,"0.0-3.198-0.198","prqczdd2huy7f28",475,"139.csv","","124.79999995231628","resources/trios/L2T4A1.jpg","38","restless",0.4,0.9,0.2,0.692738758734199,"true"
