"trial_type","trial_index","time_elapsed","internal_node_id","subject","participantCode","walkNumber","success","rt","stimulus","key_press","test_part","leftProb","midProb","rightProb","generatedNum","correct"
"pavlovia",0,1994,"0.0-0.0","7z9bnzslxyuhewq",895,"16.csv","","","","","",NA,NA,NA,NA,""
"fullscreen",1,12291498,"0.0-1.0","7z9bnzslxyuhewq",895,"16.csv","true","","","","",NA,NA,NA,NA,""
"html-keyboard-response",2,12296240,"0.0-2.0-0.0","7z9bnzslxyuhewq",895,"16.csv","","4739.299999999814","<p><font size='6'>Arrrgh!</p></font><p>Can you be the best pirate? Try to find lots of gold! But beware, some islands have more gold than others, and over time, the island with the most gold may change. Can YOU figure it out? </p><font size='6'>GOOD LUCK, CAPTAIN!!!</font><p>Press any key to begin</p>","32","",NA,NA,NA,NA,""
"image-keyboard-response",3,12299247,"0.0-2.0-1.0","7z9bnzslxyuhewq",895,"16.csv","","null","resources/image_sets/111.png","null","",NA,NA,NA,NA,""
"image-keyboard-response",4,12317230,"0.0-2.0-2.0","7z9bnzslxyuhewq",895,"16.csv","","17983","resources/image_sets/left_highlight.png","37","",NA,NA,NA,NA,""
"image-keyboard-response",5,12326462,"0.0-2.0-3.0","7z9bnzslxyuhewq",895,"16.csv","","9231.099999999627","resources/image_sets/mid_highlight.png","38","",NA,NA,NA,NA,""
"image-keyboard-response",6,12327677,"0.0-2.0-4.0","7z9bnzslxyuhewq",895,"16.csv","","1213.5999999996275","resources/image_sets/right_highlight.png","39","",NA,NA,NA,NA,""
"image-keyboard-response",7,12332235,"0.0-2.0-5.0","7z9bnzslxyuhewq",895,"16.csv","","4555.899999999441","resources/image_sets/111.png","13","",NA,NA,NA,NA,""
"image-keyboard-response",8,12335843,"0.0-2.0-6.0","7z9bnzslxyuhewq",895,"16.csv","","3606.4000000003725","resources/images/coin2.png","13","",NA,NA,NA,NA,""
"image-keyboard-response",9,12338953,"0.0-2.0-7.0","7z9bnzslxyuhewq",895,"16.csv","","3109","resources/images/fishbone.png","13","",NA,NA,NA,NA,""
"html-keyboard-response",10,12340495,"0.0-2.0-8.0","7z9bnzslxyuhewq",895,"16.csv","","1540.8999999994412","<p>Your first journey will be a long one, but you will get a well deserved break at the end</p><p>After the break you will have four more journeys, but each will be much shorter than the first, and you will have breaks in between each</p><p>Press Enter to begin</p>","13","",NA,NA,NA,NA,""
"image-keyboard-response",11,12343430,"0.0-3.0-0.0","7z9bnzslxyuhewq",895,"16.csv","","2932.0999999996275","resources/trios/L1T1A1.jpg","37","restless",0.9,0.3,0.7,0.367527030904757,"true"
"image-keyboard-response",12,12343837,"0.0-3.0-1.0","7z9bnzslxyuhewq",895,"16.csv","","null","resources/maskTrios/L1BB.jpg","null","",NA,NA,NA,NA,""
"image-keyboard-response",13,12345046,"0.0-3.0-2.0","7z9bnzslxyuhewq",895,"16.csv","","null","resources/images/coin2.png","null","",NA,NA,NA,NA,""
"image-keyboard-response",14,12345795,"0.0-3.1-0.1","7z9bnzslxyuhewq",895,"16.csv","","745.7000000001863","resources/trios/L1T1A1.jpg","37","restless",0.9,0.3,0.7,0.918855399518196,"false"
"image-keyboard-response",15,12346201,"0.0-3.1-1.1","7z9bnzslxyuhewq",895,"16.csv","","null","resources/maskTrios/L1BB.jpg","null","",NA,NA,NA,NA,""
"image-keyboard-response",16,12347406,"0.0-3.1-2.1","7z9bnzslxyuhewq",895,"16.csv","","null","resources/images/fishbone.png","null","",NA,NA,NA,NA,""
"image-keyboard-response",17,12348522,"0.0-3.2-0.2","7z9bnzslxyuhewq",895,"16.csv","","1114.3999999994412","resources/trios/L4T2A1.jpg","38","restless",0.9,0.3,0.7,0.813973498391491,"false"
"image-keyboard-response",18,12348929,"0.0-3.2-1.2","7z9bnzslxyuhewq",895,"16.csv","","null","resources/maskTrios/BT2B.jpg","null","",NA,NA,NA,NA,""
"image-keyboard-response",19,12350136,"0.0-3.2-2.2","7z9bnzslxyuhewq",895,"16.csv","","null","resources/images/fishbone.png","null","",NA,NA,NA,NA,""
"image-keyboard-response",20,12351396,"0.0-3.3-0.3","7z9bnzslxyuhewq",895,"16.csv","","1258","resources/trios/L1T2A2.jpg","37","restless",0.9,0.3,0.7,0.158987159479302,"true"
"image-keyboard-response",21,12351803,"0.0-3.3-1.3","7z9bnzslxyuhewq",895,"16.csv","","null","resources/maskTrios/L1BB.jpg","null","",NA,NA,NA,NA,""
"image-keyboard-response",22,12353009,"0.0-3.3-2.3","7z9bnzslxyuhewq",895,"16.csv","","null","resources/images/coin2.png","null","",NA,NA,NA,NA,""
"image-keyboard-response",23,12353744,"0.0-3.4-0.4","7z9bnzslxyuhewq",895,"16.csv","","732.7999999998137","resources/trios/L4T2A1.jpg","39","restless",0.8,0.3,0.7,0.000537820522038546,"true"
"image-keyboard-response",24,12354151,"0.0-3.4-1.4","7z9bnzslxyuhewq",895,"16.csv","","null","resources/maskTrios/BBA1.jpg","null","",NA,NA,NA,NA,""
"image-keyboard-response",25,12355353,"0.0-3.4-2.4","7z9bnzslxyuhewq",895,"16.csv","","null","resources/images/coin2.png","null","",NA,NA,NA,NA,""
"image-keyboard-response",26,12356029,"0.0-3.5-0.5","7z9bnzslxyuhewq",895,"16.csv","","673.5999999996275","resources/trios/L4T1A1.jpg","38","restless",0.8,0.3,0.7,0.380028307553389,"false"
"image-keyboard-response",27,12356435,"0.0-3.5-1.5","7z9bnzslxyuhewq",895,"16.csv","","null","resources/maskTrios/BT1B.jpg","null","",NA,NA,NA,NA,""
"image-keyboard-response",28,12357642,"0.0-3.5-2.5","7z9bnzslxyuhewq",895,"16.csv","","null","resources/images/fishbone.png","null","",NA,NA,NA,NA,""
"image-keyboard-response",29,12358329,"0.0-3.6-0.6","7z9bnzslxyuhewq",895,"16.csv","","686","resources/trios/L1T2A2.jpg","37","restless",0.8,0.3,0.8,0.343758605530002,"true"
"image-keyboard-response",30,12358734,"0.0-3.6-1.6","7z9bnzslxyuhewq",895,"16.csv","","null","resources/maskTrios/L1BB.jpg","null","",NA,NA,NA,NA,""
"image-keyboard-response",31,12359941,"0.0-3.6-2.6","7z9bnzslxyuhewq",895,"16.csv","","null","resources/images/coin2.png","null","",NA,NA,NA,NA,""
"image-keyboard-response",32,12360980,"0.0-3.7-0.7","7z9bnzslxyuhewq",895,"16.csv","","1036.7999999998137","resources/trios/L1T2A2.jpg","38","restless",0.7,0.3,0.8,0.444445157321891,"false"
"image-keyboard-response",33,12361387,"0.0-3.7-1.7","7z9bnzslxyuhewq",895,"16.csv","","null","resources/maskTrios/BT2B.jpg","null","",NA,NA,NA,NA,""
"image-keyboard-response",34,12362593,"0.0-3.7-2.7","7z9bnzslxyuhewq",895,"16.csv","","null","resources/images/fishbone.png","null","",NA,NA,NA,NA,""
"image-keyboard-response",35,12363323,"0.0-3.8-0.8","7z9bnzslxyuhewq",895,"16.csv","","727.8999999994412","resources/trios/L1T2A1.jpg","37","restless",0.7,0.3,0.8,0.0528866438283437,"true"
"image-keyboard-response",36,12363730,"0.0-3.8-1.8","7z9bnzslxyuhewq",895,"16.csv","","null","resources/maskTrios/L1BB.jpg","null","",NA,NA,NA,NA,""
"image-keyboard-response",37,12364937,"0.0-3.8-2.8","7z9bnzslxyuhewq",895,"16.csv","","null","resources/images/coin2.png","null","",NA,NA,NA,NA,""
"image-keyboard-response",38,12365354,"0.0-3.9-0.9","7z9bnzslxyuhewq",895,"16.csv","","414.5","resources/trios/L4T2A2.jpg","37","restless",0.7,0.3,0.8,0.277289838121331,"true"
"image-keyboard-response",39,12365761,"0.0-3.9-1.9","7z9bnzslxyuhewq",895,"16.csv","","null","resources/maskTrios/L4BB.jpg","null","",NA,NA,NA,NA,""
"image-keyboard-response",40,12366965,"0.0-3.9-2.9","7z9bnzslxyuhewq",895,"16.csv","","null","resources/images/coin2.png","null","",NA,NA,NA,NA,""
"image-keyboard-response",41,12367652,"0.0-3.10-0.10","7z9bnzslxyuhewq",895,"16.csv","","685.7000000001863","resources/trios/L1T2A2.jpg","37","restless",0.6,0.3,0.7,0.900539129496219,"false"
"image-keyboard-response",42,12368060,"0.0-3.10-1.10","7z9bnzslxyuhewq",895,"16.csv","","null","resources/maskTrios/L1BB.jpg","null","",NA,NA,NA,NA,""
"image-keyboard-response",43,12369267,"0.0-3.10-2.10","7z9bnzslxyuhewq",895,"16.csv","","null","resources/images/fishbone.png","null","",NA,NA,NA,NA,""
"image-keyboard-response",44,12370246,"0.0-3.11-0.11","7z9bnzslxyuhewq",895,"16.csv","","977.5999999996275","resources/trios/L1T1A1.jpg","37","restless",0.6,0.3,0.6,0.592568996603993,"true"
"image-keyboard-response",45,12370653,"0.0-3.11-1.11","7z9bnzslxyuhewq",895,"16.csv","","null","resources/maskTrios/L1BB.jpg","null","",NA,NA,NA,NA,""
"image-keyboard-response",46,12371858,"0.0-3.11-2.11","7z9bnzslxyuhewq",895,"16.csv","","null","resources/images/coin2.png","null","",NA,NA,NA,NA,""
"image-keyboard-response",47,12372475,"0.0-3.12-0.12","7z9bnzslxyuhewq",895,"16.csv","","615","resources/trios/L1T1A1.jpg","37","restless",0.6,0.3,0.6,0.355758395785408,"true"
"image-keyboard-response",48,12372880,"0.0-3.12-1.12","7z9bnzslxyuhewq",895,"16.csv","","null","resources/maskTrios/L1BB.jpg","null","",NA,NA,NA,NA,""
"image-keyboard-response",49,12374087,"0.0-3.12-2.12","7z9bnzslxyuhewq",895,"16.csv","","null","resources/images/coin2.png","null","",NA,NA,NA,NA,""
"image-keyboard-response",50,12374452,"0.0-3.13-0.13","7z9bnzslxyuhewq",895,"16.csv","","362.90000000037253","resources/trios/L1T2A2.jpg","37","restless",0.6,0.3,0.6,0.320052749939156,"true"
"image-keyboard-response",51,12374859,"0.0-3.13-1.13","7z9bnzslxyuhewq",895,"16.csv","","null","resources/maskTrios/L1BB.jpg","null","",NA,NA,NA,NA,""
"image-keyboard-response",52,12376064,"0.0-3.13-2.13","7z9bnzslxyuhewq",895,"16.csv","","null","resources/images/coin2.png","null","",NA,NA,NA,NA,""
"image-keyboard-response",53,12376547,"0.0-3.14-0.14","7z9bnzslxyuhewq",895,"16.csv","","481.30000000074506","resources/trios/L1T2A1.jpg","37","restless",0.6,0.3,0.6,0.840700828907539,"false"
"image-keyboard-response",54,12376954,"0.0-3.14-1.14","7z9bnzslxyuhewq",895,"16.csv","","null","resources/maskTrios/L1BB.jpg","null","",NA,NA,NA,NA,""
"image-keyboard-response",55,12378158,"0.0-3.14-2.14","7z9bnzslxyuhewq",895,"16.csv","","null","resources/images/fishbone.png","null","",NA,NA,NA,NA,""
"image-keyboard-response",56,12378828,"0.0-3.15-0.15","7z9bnzslxyuhewq",895,"16.csv","","668.2999999998137","resources/trios/L1T1A2.jpg","37","restless",0.7,0.3,0.6,0.602069505358883,"true"
"image-keyboard-response",57,12379236,"0.0-3.15-1.15","7z9bnzslxyuhewq",895,"16.csv","","null","resources/maskTrios/L1BB.jpg","null","",NA,NA,NA,NA,""
"image-keyboard-response",58,12380443,"0.0-3.15-2.15","7z9bnzslxyuhewq",895,"16.csv","","null","resources/images/coin2.png","null","",NA,NA,NA,NA,""
"image-keyboard-response",59,12382517,"0.0-3.16-0.16","7z9bnzslxyuhewq",895,"16.csv","","2072.0999999996275","resources/trios/L4T2A2.jpg","37","restless",0.7,0.2,0.6,0.527527756716037,"true"
"image-keyboard-response",60,12382924,"0.0-3.16-1.16","7z9bnzslxyuhewq",895,"16.csv","","null","resources/maskTrios/L4BB.jpg","null","",NA,NA,NA,NA,""
"image-keyboard-response",61,12384131,"0.0-3.16-2.16","7z9bnzslxyuhewq",895,"16.csv","","null","resources/images/coin2.png","null","",NA,NA,NA,NA,""
"image-keyboard-response",62,12384766,"0.0-3.17-0.17","7z9bnzslxyuhewq",895,"16.csv","","632.5","resources/trios/L4T2A1.jpg","37","restless",0.7,0.2,0.6,0.786692249375718,"false"
"image-keyboard-response",63,12385173,"0.0-3.17-1.17","7z9bnzslxyuhewq",895,"16.csv","","null","resources/maskTrios/L4BB.jpg","null","",NA,NA,NA,NA,""
"image-keyboard-response",64,12386379,"0.0-3.17-2.17","7z9bnzslxyuhewq",895,"16.csv","","null","resources/images/fishbone.png","null","",NA,NA,NA,NA,""
"image-keyboard-response",65,12386772,"0.0-3.18-0.18","7z9bnzslxyuhewq",895,"16.csv","","390.40000000037253","resources/trios/L1T2A1.jpg","37","restless",0.7,0.2,0.6,0.224993929004339,"true"
"image-keyboard-response",66,12387174,"0.0-3.18-1.18","7z9bnzslxyuhewq",895,"16.csv","","null","resources/maskTrios/L1BB.jpg","null","",NA,NA,NA,NA,""
"image-keyboard-response",67,12388381,"0.0-3.18-2.18","7z9bnzslxyuhewq",895,"16.csv","","null","resources/images/coin2.png","null","",NA,NA,NA,NA,""
"image-keyboard-response",68,12388672,"0.0-3.19-0.19","7z9bnzslxyuhewq",895,"16.csv","","289.20000000018626","resources/trios/L4T2A1.jpg","37","restless",0.7,0.2,0.6,0.218348942755627,"true"
"image-keyboard-response",69,12389080,"0.0-3.19-1.19","7z9bnzslxyuhewq",895,"16.csv","","null","resources/maskTrios/L4BB.jpg","null","",NA,NA,NA,NA,""
"image-keyboard-response",70,12390283,"0.0-3.19-2.19","7z9bnzslxyuhewq",895,"16.csv","","null","resources/images/coin2.png","null","",NA,NA,NA,NA,""
"image-keyboard-response",71,12390537,"0.0-3.20-0.20","7z9bnzslxyuhewq",895,"16.csv","","252.70000000018626","resources/trios/L1T1A1.jpg","37","restless",0.7,0.3,0.6,0.553805406881525,"true"
"image-keyboard-response",72,12390945,"0.0-3.20-1.20","7z9bnzslxyuhewq",895,"16.csv","","null","resources/maskTrios/L1BB.jpg","null","",NA,NA,NA,NA,""
"image-keyboard-response",73,12392151,"0.0-3.20-2.20","7z9bnzslxyuhewq",895,"16.csv","","null","resources/images/coin2.png","null","",NA,NA,NA,NA,""
"image-keyboard-response",74,12392515,"0.0-3.21-0.21","7z9bnzslxyuhewq",895,"16.csv","","362.8999999994412","resources/trios/L1T2A2.jpg","37","restless",0.7,0.3,0.6,0.475724807839547,"true"
"image-keyboard-response",75,12392922,"0.0-3.21-1.21","7z9bnzslxyuhewq",895,"16.csv","","null","resources/maskTrios/L1BB.jpg","null","",NA,NA,NA,NA,""
"image-keyboard-response",76,12394129,"0.0-3.21-2.21","7z9bnzslxyuhewq",895,"16.csv","","null","resources/images/coin2.png","null","",NA,NA,NA,NA,""
"image-keyboard-response",77,12402599,"0.0-3.22-0.22","7z9bnzslxyuhewq",895,"16.csv","","8468","resources/trios/L1T2A2.jpg","37","restless",0.7,0.2,0.6,0.44099117299772,"true"
"image-keyboard-response",78,12403005,"0.0-3.22-1.22","7z9bnzslxyuhewq",895,"16.csv","","null","resources/maskTrios/L1BB.jpg","null","",NA,NA,NA,NA,""
"image-keyboard-response",79,12404207,"0.0-3.22-2.22","7z9bnzslxyuhewq",895,"16.csv","","null","resources/images/coin2.png","null","",NA,NA,NA,NA,""
"image-keyboard-response",80,12404900,"0.0-3.23-0.23","7z9bnzslxyuhewq",895,"16.csv","","691.3999999994412","resources/trios/L4T1A1.jpg","37","restless",0.7,0.2,0.5,0.765243926641686,"false"
"image-keyboard-response",81,12405305,"0.0-3.23-1.23","7z9bnzslxyuhewq",895,"16.csv","","null","resources/maskTrios/L4BB.jpg","null","",NA,NA,NA,NA,""
"image-keyboard-response",82,12406508,"0.0-3.23-2.23","7z9bnzslxyuhewq",895,"16.csv","","null","resources/images/fishbone.png","null","",NA,NA,NA,NA,""
"image-keyboard-response",83,12406958,"0.0-3.24-0.24","7z9bnzslxyuhewq",895,"16.csv","","449.40000000037253","resources/trios/L4T1A1.jpg","37","restless",0.6,0.2,0.5,0.811695807954198,"false"
"image-keyboard-response",84,12407363,"0.0-3.24-1.24","7z9bnzslxyuhewq",895,"16.csv","","null","resources/maskTrios/L4BB.jpg","null","",NA,NA,NA,NA,""
"image-keyboard-response",85,12408569,"0.0-3.24-2.24","7z9bnzslxyuhewq",895,"16.csv","","null","resources/images/fishbone.png","null","",NA,NA,NA,NA,""
"image-keyboard-response",86,12409027,"0.0-3.25-0.25","7z9bnzslxyuhewq",895,"16.csv","","456.70000000018626","resources/trios/L1T1A1.jpg","37","restless",0.6,0.2,0.5,0.546269088129846,"true"
"image-keyboard-response",87,12409429,"0.0-3.25-1.25","7z9bnzslxyuhewq",895,"16.csv","","null","resources/maskTrios/L1BB.jpg","null","",NA,NA,NA,NA,""
"image-keyboard-response",88,12410633,"0.0-3.25-2.25","7z9bnzslxyuhewq",895,"16.csv","","null","resources/images/coin2.png","null","",NA,NA,NA,NA,""
"image-keyboard-response",89,12411575,"0.0-3.26-0.26","7z9bnzslxyuhewq",895,"16.csv","","939.7000000001863","resources/trios/L4T2A2.jpg","38","restless",0.6,0.2,0.5,0.0815873268932972,"true"
"image-keyboard-response",90,12411979,"0.0-3.26-1.26","7z9bnzslxyuhewq",895,"16.csv","","null","resources/maskTrios/BT2B.jpg","null","",NA,NA,NA,NA,""
"image-keyboard-response",91,12413185,"0.0-3.26-2.26","7z9bnzslxyuhewq",895,"16.csv","","null","resources/images/coin2.png","null","",NA,NA,NA,NA,""
"image-keyboard-response",92,12413933,"0.0-3.27-0.27","7z9bnzslxyuhewq",895,"16.csv","","746.9000000003725","resources/trios/L1T2A1.jpg","38","restless",0.6,0.2,0.5,0.898410295425686,"false"
"image-keyboard-response",93,12414338,"0.0-3.27-1.27","7z9bnzslxyuhewq",895,"16.csv","","null","resources/maskTrios/BT2B.jpg","null","",NA,NA,NA,NA,""
"image-keyboard-response",94,12415546,"0.0-3.27-2.27","7z9bnzslxyuhewq",895,"16.csv","","null","resources/images/fishbone.png","null","",NA,NA,NA,NA,""
"image-keyboard-response",95,12416126,"0.0-3.28-0.28","7z9bnzslxyuhewq",895,"16.csv","","578.5","resources/trios/L4T2A2.jpg","37","restless",0.6,0.2,0.4,0.932605697268025,"false"
"image-keyboard-response",96,12416530,"0.0-3.28-1.28","7z9bnzslxyuhewq",895,"16.csv","","null","resources/maskTrios/L4BB.jpg","null","",NA,NA,NA,NA,""
"image-keyboard-response",97,12417736,"0.0-3.28-2.28","7z9bnzslxyuhewq",895,"16.csv","","null","resources/images/fishbone.png","null","",NA,NA,NA,NA,""
"image-keyboard-response",98,12418824,"0.0-3.29-0.29","7z9bnzslxyuhewq",895,"16.csv","","1086.6000000005588","resources/trios/L1T1A2.jpg","37","restless",0.6,0.2,0.4,0.51755000853931,"true"
"image-keyboard-response",99,12419229,"0.0-3.29-1.29","7z9bnzslxyuhewq",895,"16.csv","","null","resources/maskTrios/L1BB.jpg","null","",NA,NA,NA,NA,""
"image-keyboard-response",100,12420436,"0.0-3.29-2.29","7z9bnzslxyuhewq",895,"16.csv","","null","resources/images/coin2.png","null","",NA,NA,NA,NA,""
"image-keyboard-response",101,12421155,"0.0-3.30-0.30","7z9bnzslxyuhewq",895,"16.csv","","718.2000000001863","resources/trios/L1T2A1.jpg","37","restless",0.6,0.2,0.4,0.364332196581341,"true"
"image-keyboard-response",102,12421561,"0.0-3.30-1.30","7z9bnzslxyuhewq",895,"16.csv","","null","resources/maskTrios/L1BB.jpg","null","",NA,NA,NA,NA,""
"image-keyboard-response",103,12422763,"0.0-3.30-2.30","7z9bnzslxyuhewq",895,"16.csv","","null","resources/images/coin2.png","null","",NA,NA,NA,NA,""
"image-keyboard-response",104,12423135,"0.0-3.31-0.31","7z9bnzslxyuhewq",895,"16.csv","","370.70000000018626","resources/trios/L4T1A2.jpg","37","restless",0.6,0.2,0.4,0.292861079418628,"true"
"image-keyboard-response",105,12423539,"0.0-3.31-1.31","7z9bnzslxyuhewq",895,"16.csv","","null","resources/maskTrios/L4BB.jpg","null","",NA,NA,NA,NA,""
"image-keyboard-response",106,12424745,"0.0-3.31-2.31","7z9bnzslxyuhewq",895,"16.csv","","null","resources/images/coin2.png","null","",NA,NA,NA,NA,""
"image-keyboard-response",107,12425530,"0.0-3.32-0.32","7z9bnzslxyuhewq",895,"16.csv","","783.7999999998137","resources/trios/L1T2A1.jpg","37","restless",0.6,0.2,0.4,0.197935492684748,"true"
"image-keyboard-response",108,12425936,"0.0-3.32-1.32","7z9bnzslxyuhewq",895,"16.csv","","null","resources/maskTrios/L1BB.jpg","null","",NA,NA,NA,NA,""
"image-keyboard-response",109,12427138,"0.0-3.32-2.32","7z9bnzslxyuhewq",895,"16.csv","","null","resources/images/coin2.png","null","",NA,NA,NA,NA,""
"image-keyboard-response",110,12428609,"0.0-3.33-0.33","7z9bnzslxyuhewq",895,"16.csv","","1469.5","resources/trios/L1T2A2.jpg","37","restless",0.6,0.2,0.4,0.150617961092548,"true"
"image-keyboard-response",111,12429014,"0.0-3.33-1.33","7z9bnzslxyuhewq",895,"16.csv","","null","resources/maskTrios/L1BB.jpg","null","",NA,NA,NA,NA,""
"image-keyboard-response",112,12430221,"0.0-3.33-2.33","7z9bnzslxyuhewq",895,"16.csv","","null","resources/images/coin2.png","null","",NA,NA,NA,NA,""
"image-keyboard-response",113,12430969,"0.0-3.34-0.34","7z9bnzslxyuhewq",895,"16.csv","","746.2999999998137","resources/trios/L4T1A2.jpg","37","restless",0.5,0.2,0.4,0.416365212623442,"true"
"image-keyboard-response",114,12431372,"0.0-3.34-1.34","7z9bnzslxyuhewq",895,"16.csv","","null","resources/maskTrios/L4BB.jpg","null","",NA,NA,NA,NA,""
"image-keyboard-response",115,12432576,"0.0-3.34-2.34","7z9bnzslxyuhewq",895,"16.csv","","null","resources/images/coin2.png","null","",NA,NA,NA,NA,""
"image-keyboard-response",116,12433161,"0.0-3.35-0.35","7z9bnzslxyuhewq",895,"16.csv","","583.8000000007451","resources/trios/L1T2A1.jpg","37","restless",0.5,0.2,0.4,0.362103111442104,"true"
"image-keyboard-response",117,12433563,"0.0-3.35-1.35","7z9bnzslxyuhewq",895,"16.csv","","null","resources/maskTrios/L1BB.jpg","null","",NA,NA,NA,NA,""
"image-keyboard-response",118,12434765,"0.0-3.35-2.35","7z9bnzslxyuhewq",895,"16.csv","","null","resources/images/coin2.png","null","",NA,NA,NA,NA,""
"image-keyboard-response",119,12445705,"0.0-3.36-0.36","7z9bnzslxyuhewq",895,"16.csv","","10938.600000000559","resources/trios/L1T1A2.jpg","37","restless",0.4,0.2,0.4,0.237664478557156,"true"
"image-keyboard-response",120,12446111,"0.0-3.36-1.36","7z9bnzslxyuhewq",895,"16.csv","","null","resources/maskTrios/L1BB.jpg","null","",NA,NA,NA,NA,""
"image-keyboard-response",121,12447318,"0.0-3.36-2.36","7z9bnzslxyuhewq",895,"16.csv","","null","resources/images/coin2.png","null","",NA,NA,NA,NA,""
"image-keyboard-response",122,12447801,"0.0-3.37-0.37","7z9bnzslxyuhewq",895,"16.csv","","482.70000000018626","resources/trios/L4T1A2.jpg","37","restless",0.4,0.2,0.4,0.976035244778017,"false"
"image-keyboard-response",123,12448205,"0.0-3.37-1.37","7z9bnzslxyuhewq",895,"16.csv","","null","resources/maskTrios/L4BB.jpg","null","",NA,NA,NA,NA,""
"image-keyboard-response",124,12449411,"0.0-3.37-2.37","7z9bnzslxyuhewq",895,"16.csv","","null","resources/images/fishbone.png","null","",NA,NA,NA,NA,""
"image-keyboard-response",125,12450394,"0.0-3.38-0.38","7z9bnzslxyuhewq",895,"16.csv","","981.7999999998137","resources/trios/L4T2A1.jpg","38","restless",0.4,0.2,0.4,0.402477999456278,"false"
"image-keyboard-response",126,12450796,"0.0-3.38-1.38","7z9bnzslxyuhewq",895,"16.csv","","null","resources/maskTrios/BT2B.jpg","null","",NA,NA,NA,NA,""
"image-keyboard-response",127,12451998,"0.0-3.38-2.38","7z9bnzslxyuhewq",895,"16.csv","","null","resources/images/fishbone.png","null","",NA,NA,NA,NA,""
"image-keyboard-response",128,12452137,"0.0-3.39-0.39","7z9bnzslxyuhewq",895,"16.csv","","137.69999999925494","resources/trios/L4T1A1.jpg","39","restless",0.4,0.2,0.4,0.714467904037003,"false"
"image-keyboard-response",129,12452540,"0.0-3.39-1.39","7z9bnzslxyuhewq",895,"16.csv","","null","resources/maskTrios/BBA1.jpg","null","",NA,NA,NA,NA,""
"image-keyboard-response",130,12453742,"0.0-3.39-2.39","7z9bnzslxyuhewq",895,"16.csv","","null","resources/images/fishbone.png","null","",NA,NA,NA,NA,""
"image-keyboard-response",131,12454138,"0.0-3.40-0.40","7z9bnzslxyuhewq",895,"16.csv","","394.59999999962747","resources/trios/L1T2A1.jpg","37","restless",0.4,0.2,0.4,0.219421225575127,"true"
"image-keyboard-response",132,12454544,"0.0-3.40-1.40","7z9bnzslxyuhewq",895,"16.csv","","null","resources/maskTrios/L1BB.jpg","null","",NA,NA,NA,NA,""
"image-keyboard-response",133,12455749,"0.0-3.40-2.40","7z9bnzslxyuhewq",895,"16.csv","","null","resources/images/coin2.png","null","",NA,NA,NA,NA,""
"image-keyboard-response",134,12456787,"0.0-3.41-0.41","7z9bnzslxyuhewq",895,"16.csv","","1036.5","resources/trios/L1T2A2.jpg","37","restless",0.4,0.2,0.4,0.738022035066294,"false"
"image-keyboard-response",135,12457188,"0.0-3.41-1.41","7z9bnzslxyuhewq",895,"16.csv","","null","resources/maskTrios/L1BB.jpg","null","",NA,NA,NA,NA,""
"image-keyboard-response",136,12458391,"0.0-3.41-2.41","7z9bnzslxyuhewq",895,"16.csv","","null","resources/images/fishbone.png","null","",NA,NA,NA,NA,""
"image-keyboard-response",137,12460153,"0.0-3.42-0.42","7z9bnzslxyuhewq",895,"16.csv","","1760.1000000005588","resources/trios/L1T2A2.jpg","37","restless",0.4,0.2,0.4,0.558549428271991,"false"
"image-keyboard-response",138,12460555,"0.0-3.42-1.42","7z9bnzslxyuhewq",895,"16.csv","","null","resources/maskTrios/L1BB.jpg","null","",NA,NA,NA,NA,""
"image-keyboard-response",139,12461761,"0.0-3.42-2.42","7z9bnzslxyuhewq",895,"16.csv","","null","resources/images/fishbone.png","null","",NA,NA,NA,NA,""
"image-keyboard-response",140,12462542,"0.0-3.43-0.43","7z9bnzslxyuhewq",895,"16.csv","","779.4000000003725","resources/trios/L1T2A1.jpg","37","restless",0.4,0.2,0.4,0.518042940978215,"false"
"image-keyboard-response",141,12462948,"0.0-3.43-1.43","7z9bnzslxyuhewq",895,"16.csv","","null","resources/maskTrios/L1BB.jpg","null","",NA,NA,NA,NA,""
"image-keyboard-response",142,12464153,"0.0-3.43-2.43","7z9bnzslxyuhewq",895,"16.csv","","null","resources/images/fishbone.png","null","",NA,NA,NA,NA,""
"image-keyboard-response",143,12465309,"0.0-3.44-0.44","7z9bnzslxyuhewq",895,"16.csv","","1154.3999999994412","resources/trios/L1T1A2.jpg","37","restless",0.4,0.2,0.4,0.222973458611881,"true"
"image-keyboard-response",144,12465713,"0.0-3.44-1.44","7z9bnzslxyuhewq",895,"16.csv","","null","resources/maskTrios/L1BB.jpg","null","",NA,NA,NA,NA,""
"image-keyboard-response",145,12466919,"0.0-3.44-2.44","7z9bnzslxyuhewq",895,"16.csv","","null","resources/images/coin2.png","null","",NA,NA,NA,NA,""
"image-keyboard-response",146,12467614,"0.0-3.45-0.45","7z9bnzslxyuhewq",895,"16.csv","","693.5","resources/trios/L1T1A1.jpg","37","restless",0.4,0.3,0.4,0.952162949274314,"false"
"image-keyboard-response",147,12468017,"0.0-3.45-1.45","7z9bnzslxyuhewq",895,"16.csv","","null","resources/maskTrios/L1BB.jpg","null","",NA,NA,NA,NA,""
"image-keyboard-response",148,12469221,"0.0-3.45-2.45","7z9bnzslxyuhewq",895,"16.csv","","null","resources/images/fishbone.png","null","",NA,NA,NA,NA,""
"image-keyboard-response",149,12469729,"0.0-3.46-0.46","7z9bnzslxyuhewq",895,"16.csv","","506.79999999981374","resources/trios/L1T1A2.jpg","37","restless",0.4,0.3,0.3,0.0448430349068345,"true"
"image-keyboard-response",150,12470136,"0.0-3.46-1.46","7z9bnzslxyuhewq",895,"16.csv","","null","resources/maskTrios/L1BB.jpg","null","",NA,NA,NA,NA,""
"image-keyboard-response",151,12471339,"0.0-3.46-2.46","7z9bnzslxyuhewq",895,"16.csv","","null","resources/images/coin2.png","null","",NA,NA,NA,NA,""
"image-keyboard-response",152,12474642,"0.0-3.47-0.47","7z9bnzslxyuhewq",895,"16.csv","","3302.2000000001863","resources/trios/L4T2A2.jpg","37","restless",0.4,0.3,0.3,0.302157506242565,"true"
"image-keyboard-response",153,12475046,"0.0-3.47-1.47","7z9bnzslxyuhewq",895,"16.csv","","null","resources/maskTrios/L4BB.jpg","null","",NA,NA,NA,NA,""
"image-keyboard-response",154,12476247,"0.0-3.47-2.47","7z9bnzslxyuhewq",895,"16.csv","","null","resources/images/coin2.png","null","",NA,NA,NA,NA,""
"image-keyboard-response",155,12476580,"0.0-3.48-0.48","7z9bnzslxyuhewq",895,"16.csv","","331.6000000005588","resources/trios/L1T1A1.jpg","37","restless",0.4,0.4,0.3,0.912065003741342,"false"
"image-keyboard-response",156,12476985,"0.0-3.48-1.48","7z9bnzslxyuhewq",895,"16.csv","","null","resources/maskTrios/L1BB.jpg","null","",NA,NA,NA,NA,""
"image-keyboard-response",157,12478188,"0.0-3.48-2.48","7z9bnzslxyuhewq",895,"16.csv","","null","resources/images/fishbone.png","null","",NA,NA,NA,NA,""
"image-keyboard-response",158,12479075,"0.0-3.49-0.49","7z9bnzslxyuhewq",895,"16.csv","","886.1000000005588","resources/trios/L1T1A2.jpg","37","restless",0.5,0.4,0.3,0.579940815589789,"false"
"image-keyboard-response",159,12479479,"0.0-3.49-1.49","7z9bnzslxyuhewq",895,"16.csv","","null","resources/maskTrios/L1BB.jpg","null","",NA,NA,NA,NA,""
"image-keyboard-response",160,12480685,"0.0-3.49-2.49","7z9bnzslxyuhewq",895,"16.csv","","null","resources/images/fishbone.png","null","",NA,NA,NA,NA,""
"image-keyboard-response",161,12483243,"0.0-3.50-0.50","7z9bnzslxyuhewq",895,"16.csv","","2557.4000000003725","resources/trios/L1T1A2.jpg","37","restless",0.5,0.4,0.3,0.706371478185506,"false"
"image-keyboard-response",162,12483646,"0.0-3.50-1.50","7z9bnzslxyuhewq",895,"16.csv","","null","resources/maskTrios/L1BB.jpg","null","",NA,NA,NA,NA,""
"image-keyboard-response",163,12484851,"0.0-3.50-2.50","7z9bnzslxyuhewq",895,"16.csv","","null","resources/images/fishbone.png","null","",NA,NA,NA,NA,""
"image-keyboard-response",164,12486554,"0.0-3.51-0.51","7z9bnzslxyuhewq",895,"16.csv","","1701.6000000005588","resources/trios/L1T1A2.jpg","37","restless",0.5,0.4,0.2,0.81179895740818,"false"
"image-keyboard-response",165,12486960,"0.0-3.51-1.51","7z9bnzslxyuhewq",895,"16.csv","","null","resources/maskTrios/L1BB.jpg","null","",NA,NA,NA,NA,""
"image-keyboard-response",166,12488162,"0.0-3.51-2.51","7z9bnzslxyuhewq",895,"16.csv","","null","resources/images/fishbone.png","null","",NA,NA,NA,NA,""
"image-keyboard-response",167,12488829,"0.0-3.52-0.52","7z9bnzslxyuhewq",895,"16.csv","","664.9000000003725","resources/trios/L4T1A1.jpg","37","restless",0.6,0.4,0.2,0.839950436414644,"false"
"image-keyboard-response",168,12489231,"0.0-3.52-1.52","7z9bnzslxyuhewq",895,"16.csv","","null","resources/maskTrios/L4BB.jpg","null","",NA,NA,NA,NA,""
"image-keyboard-response",169,12490437,"0.0-3.52-2.52","7z9bnzslxyuhewq",895,"16.csv","","null","resources/images/fishbone.png","null","",NA,NA,NA,NA,""
"image-keyboard-response",170,12490958,"0.0-3.53-0.53","7z9bnzslxyuhewq",895,"16.csv","","519.6000000005588","resources/trios/L4T1A2.jpg","37","restless",0.6,0.4,0.2,0.173163795609567,"true"
"image-keyboard-response",171,12491362,"0.0-3.53-1.53","7z9bnzslxyuhewq",895,"16.csv","","null","resources/maskTrios/L4BB.jpg","null","",NA,NA,NA,NA,""
"image-keyboard-response",172,12492569,"0.0-3.53-2.53","7z9bnzslxyuhewq",895,"16.csv","","null","resources/images/coin2.png","null","",NA,NA,NA,NA,""
"image-keyboard-response",173,12493484,"0.0-3.54-0.54","7z9bnzslxyuhewq",895,"16.csv","","914.0999999996275","resources/trios/L1T2A2.jpg","37","restless",0.6,0.4,0.2,0.552757696087887,"true"
"image-keyboard-response",174,12493888,"0.0-3.54-1.54","7z9bnzslxyuhewq",895,"16.csv","","null","resources/maskTrios/L1BB.jpg","null","",NA,NA,NA,NA,""
"image-keyboard-response",175,12495092,"0.0-3.54-2.54","7z9bnzslxyuhewq",895,"16.csv","","null","resources/images/coin2.png","null","",NA,NA,NA,NA,""
"image-keyboard-response",176,12495403,"0.0-3.55-0.55","7z9bnzslxyuhewq",895,"16.csv","","310.29999999981374","resources/trios/L4T2A1.jpg","37","restless",0.6,0.4,0.3,0.846768850761243,"false"
"image-keyboard-response",177,12495809,"0.0-3.55-1.55","7z9bnzslxyuhewq",895,"16.csv","","null","resources/maskTrios/L4BB.jpg","null","",NA,NA,NA,NA,""
"image-keyboard-response",178,12497012,"0.0-3.55-2.55","7z9bnzslxyuhewq",895,"16.csv","","null","resources/images/fishbone.png","null","",NA,NA,NA,NA,""
"image-keyboard-response",179,12497256,"0.0-3.56-0.56","7z9bnzslxyuhewq",895,"16.csv","","242.5","resources/trios/L1T1A2.jpg","39","restless",0.6,0.4,0.3,0.821309486072704,"false"
"image-keyboard-response",180,12497662,"0.0-3.56-1.56","7z9bnzslxyuhewq",895,"16.csv","","null","resources/maskTrios/BBA2.jpg","null","",NA,NA,NA,NA,""
"image-keyboard-response",181,12498868,"0.0-3.56-2.56","7z9bnzslxyuhewq",895,"16.csv","","null","resources/images/fishbone.png","null","",NA,NA,NA,NA,""
"image-keyboard-response",182,12498973,"0.0-3.57-0.57","7z9bnzslxyuhewq",895,"16.csv","","103.79999999981374","resources/trios/L4T2A1.jpg","38","restless",0.6,0.4,0.3,0.883901181216006,"false"
"image-keyboard-response",183,12499379,"0.0-3.57-1.57","7z9bnzslxyuhewq",895,"16.csv","","null","resources/maskTrios/BT2B.jpg","null","",NA,NA,NA,NA,""
"image-keyboard-response",184,12500586,"0.0-3.57-2.57","7z9bnzslxyuhewq",895,"16.csv","","null","resources/images/fishbone.png","null","",NA,NA,NA,NA,""
"image-keyboard-response",185,12500861,"0.0-3.58-0.58","7z9bnzslxyuhewq",895,"16.csv","","273.59999999962747","resources/trios/L1T1A1.jpg","37","restless",0.6,0.4,0.3,0.622976070853513,"false"
"image-keyboard-response",186,12501262,"0.0-3.58-1.58","7z9bnzslxyuhewq",895,"16.csv","","null","resources/maskTrios/L1BB.jpg","null","",NA,NA,NA,NA,""
"image-keyboard-response",187,12502468,"0.0-3.58-2.58","7z9bnzslxyuhewq",895,"16.csv","","null","resources/images/fishbone.png","null","",NA,NA,NA,NA,""
"image-keyboard-response",188,12502846,"0.0-3.59-0.59","7z9bnzslxyuhewq",895,"16.csv","","376.29999999981374","resources/trios/L4T2A1.jpg","37","restless",0.6,0.4,0.2,0.630083981956426,"false"
"image-keyboard-response",189,12503249,"0.0-3.59-1.59","7z9bnzslxyuhewq",895,"16.csv","","null","resources/maskTrios/L4BB.jpg","null","",NA,NA,NA,NA,""
"image-keyboard-response",190,12504454,"0.0-3.59-2.59","7z9bnzslxyuhewq",895,"16.csv","","null","resources/images/fishbone.png","null","",NA,NA,NA,NA,""
"image-keyboard-response",191,12505046,"0.0-3.60-0.60","7z9bnzslxyuhewq",895,"16.csv","","589.7999999998137","resources/trios/L4T1A2.jpg","37","restless",0.6,0.5,0.2,0.562433240211359,"true"
"image-keyboard-response",192,12505453,"0.0-3.60-1.60","7z9bnzslxyuhewq",895,"16.csv","","null","resources/maskTrios/L4BB.jpg","null","",NA,NA,NA,NA,""
"image-keyboard-response",193,12506657,"0.0-3.60-2.60","7z9bnzslxyuhewq",895,"16.csv","","null","resources/images/coin2.png","null","",NA,NA,NA,NA,""
"image-keyboard-response",194,12507061,"0.0-3.61-0.61","7z9bnzslxyuhewq",895,"16.csv","","402.09999999962747","resources/trios/L4T2A1.jpg","37","restless",0.6,0.5,0.2,0.143305662230669,"true"
"image-keyboard-response",195,12507468,"0.0-3.61-1.61","7z9bnzslxyuhewq",895,"16.csv","","null","resources/maskTrios/L4BB.jpg","null","",NA,NA,NA,NA,""
"image-keyboard-response",196,12508671,"0.0-3.61-2.61","7z9bnzslxyuhewq",895,"16.csv","","null","resources/images/coin2.png","null","",NA,NA,NA,NA,""
"image-keyboard-response",197,12509050,"0.0-3.62-0.62","7z9bnzslxyuhewq",895,"16.csv","","377.6000000005588","resources/trios/L1T2A1.jpg","37","restless",0.6,0.5,0.2,0.728520600943252,"false"
"image-keyboard-response",198,12509455,"0.0-3.62-1.62","7z9bnzslxyuhewq",895,"16.csv","","null","resources/maskTrios/L1BB.jpg","null","",NA,NA,NA,NA,""
"image-keyboard-response",199,12510658,"0.0-3.62-2.62","7z9bnzslxyuhewq",895,"16.csv","","null","resources/images/fishbone.png","null","",NA,NA,NA,NA,""
"image-keyboard-response",200,12511135,"0.0-3.63-0.63","7z9bnzslxyuhewq",895,"16.csv","","475.59999999962747","resources/trios/L4T1A2.jpg","37","restless",0.6,0.5,0.2,0.328936603908891,"true"
"image-keyboard-response",201,12511537,"0.0-3.63-1.63","7z9bnzslxyuhewq",895,"16.csv","","null","resources/maskTrios/L4BB.jpg","null","",NA,NA,NA,NA,""
"image-keyboard-response",202,12512743,"0.0-3.63-2.63","7z9bnzslxyuhewq",895,"16.csv","","null","resources/images/coin2.png","null","",NA,NA,NA,NA,""
"image-keyboard-response",203,12513045,"0.0-3.64-0.64","7z9bnzslxyuhewq",895,"16.csv","","300.70000000018626","resources/trios/L1T2A1.jpg","37","restless",0.6,0.5,0.2,0.783874712730023,"false"
"image-keyboard-response",204,12513452,"0.0-3.64-1.64","7z9bnzslxyuhewq",895,"16.csv","","null","resources/maskTrios/L1BB.jpg","null","",NA,NA,NA,NA,""
"image-keyboard-response",205,12514654,"0.0-3.64-2.64","7z9bnzslxyuhewq",895,"16.csv","","null","resources/images/fishbone.png","null","",NA,NA,NA,NA,""
"image-keyboard-response",206,12514996,"0.0-3.65-0.65","7z9bnzslxyuhewq",895,"16.csv","","340.20000000018626","resources/trios/L4T2A2.jpg","37","restless",0.6,0.5,0.2,0.784899774457468,"false"
"image-keyboard-response",207,12515399,"0.0-3.65-1.65","7z9bnzslxyuhewq",895,"16.csv","","null","resources/maskTrios/L4BB.jpg","null","",NA,NA,NA,NA,""
"image-keyboard-response",208,12516604,"0.0-3.65-2.65","7z9bnzslxyuhewq",895,"16.csv","","null","resources/images/fishbone.png","null","",NA,NA,NA,NA,""
"image-keyboard-response",209,12517280,"0.0-3.66-0.66","7z9bnzslxyuhewq",895,"16.csv","","673.8000000007451","resources/trios/L1T1A1.jpg","37","restless",0.6,0.5,0.3,0.724425913763072,"false"
"image-keyboard-response",210,12517687,"0.0-3.66-1.66","7z9bnzslxyuhewq",895,"16.csv","","null","resources/maskTrios/L1BB.jpg","null","",NA,NA,NA,NA,""
"image-keyboard-response",211,12518892,"0.0-3.66-2.66","7z9bnzslxyuhewq",895,"16.csv","","null","resources/images/fishbone.png","null","",NA,NA,NA,NA,""
"image-keyboard-response",212,12519304,"0.0-3.67-0.67","7z9bnzslxyuhewq",895,"16.csv","","409.79999999981374","resources/trios/L4T1A1.jpg","38","restless",0.6,0.5,0.3,0.44071891844353,"true"
"image-keyboard-response",213,12519711,"0.0-3.67-1.67","7z9bnzslxyuhewq",895,"16.csv","","null","resources/maskTrios/BT1B.jpg","null","",NA,NA,NA,NA,""
"image-keyboard-response",214,12520915,"0.0-3.67-2.67","7z9bnzslxyuhewq",895,"16.csv","","null","resources/images/coin2.png","null","",NA,NA,NA,NA,""
"image-keyboard-response",215,12521392,"0.0-3.68-0.68","7z9bnzslxyuhewq",895,"16.csv","","475.40000000037253","resources/trios/L4T1A1.jpg","38","restless",0.6,0.5,0.3,0.846074147572112,"false"
"image-keyboard-response",216,12521796,"0.0-3.68-1.68","7z9bnzslxyuhewq",895,"16.csv","","null","resources/maskTrios/BT1B.jpg","null","",NA,NA,NA,NA,""
"image-keyboard-response",217,12523001,"0.0-3.68-2.68","7z9bnzslxyuhewq",895,"16.csv","","null","resources/images/fishbone.png","null","",NA,NA,NA,NA,""
"image-keyboard-response",218,12523347,"0.0-3.69-0.69","7z9bnzslxyuhewq",895,"16.csv","","343.40000000037253","resources/trios/L1T2A2.jpg","37","restless",0.6,0.5,0.4,0.539024992552001,"true"
"image-keyboard-response",219,12523752,"0.0-3.69-1.69","7z9bnzslxyuhewq",895,"16.csv","","null","resources/maskTrios/L1BB.jpg","null","",NA,NA,NA,NA,""
"image-keyboard-response",220,12524959,"0.0-3.69-2.69","7z9bnzslxyuhewq",895,"16.csv","","null","resources/images/coin2.png","null","",NA,NA,NA,NA,""
"image-keyboard-response",221,12525590,"0.0-3.70-0.70","7z9bnzslxyuhewq",895,"16.csv","","628.5999999996275","resources/trios/L1T1A2.jpg","37","restless",0.6,0.4,0.4,0.445163920860146,"true"
"image-keyboard-response",222,12525996,"0.0-3.70-1.70","7z9bnzslxyuhewq",895,"16.csv","","null","resources/maskTrios/L1BB.jpg","null","",NA,NA,NA,NA,""
"image-keyboard-response",223,12527201,"0.0-3.70-2.70","7z9bnzslxyuhewq",895,"16.csv","","null","resources/images/coin2.png","null","",NA,NA,NA,NA,""
"image-keyboard-response",224,12527585,"0.0-3.71-0.71","7z9bnzslxyuhewq",895,"16.csv","","381.5","resources/trios/L1T2A2.jpg","37","restless",0.6,0.4,0.4,0.282962112578557,"true"
"image-keyboard-response",225,12527988,"0.0-3.71-1.71","7z9bnzslxyuhewq",895,"16.csv","","null","resources/maskTrios/L1BB.jpg","null","",NA,NA,NA,NA,""
"image-keyboard-response",226,12529193,"0.0-3.71-2.71","7z9bnzslxyuhewq",895,"16.csv","","null","resources/images/coin2.png","null","",NA,NA,NA,NA,""
"image-keyboard-response",227,12529628,"0.0-3.72-0.72","7z9bnzslxyuhewq",895,"16.csv","","433.1000000005588","resources/trios/L4T2A2.jpg","38","restless",0.6,0.4,0.4,0.494377574747312,"false"
"image-keyboard-response",228,12530032,"0.0-3.72-1.72","7z9bnzslxyuhewq",895,"16.csv","","null","resources/maskTrios/BT2B.jpg","null","",NA,NA,NA,NA,""
"image-keyboard-response",229,12531236,"0.0-3.72-2.72","7z9bnzslxyuhewq",895,"16.csv","","null","resources/images/fishbone.png","null","",NA,NA,NA,NA,""
"image-keyboard-response",230,12532312,"0.0-3.73-0.73","7z9bnzslxyuhewq",895,"16.csv","","1075.0999999996275","resources/trios/L4T1A2.jpg","37","restless",0.6,0.4,0.4,0.580700897610128,"true"
"image-keyboard-response",231,12532719,"0.0-3.73-1.73","7z9bnzslxyuhewq",895,"16.csv","","null","resources/maskTrios/L4BB.jpg","null","",NA,NA,NA,NA,""
"image-keyboard-response",232,12533923,"0.0-3.73-2.73","7z9bnzslxyuhewq",895,"16.csv","","null","resources/images/coin2.png","null","",NA,NA,NA,NA,""
"image-keyboard-response",233,12534361,"0.0-3.74-0.74","7z9bnzslxyuhewq",895,"16.csv","","436.09999999962747","resources/trios/L1T2A2.jpg","37","restless",0.6,0.4,0.4,0.361705991473103,"true"
"image-keyboard-response",234,12534765,"0.0-3.74-1.74","7z9bnzslxyuhewq",895,"16.csv","","null","resources/maskTrios/L1BB.jpg","null","",NA,NA,NA,NA,""
"image-keyboard-response",235,12535971,"0.0-3.74-2.74","7z9bnzslxyuhewq",895,"16.csv","","null","resources/images/coin2.png","null","",NA,NA,NA,NA,""
"image-keyboard-response",236,12536390,"0.0-3.75-0.75","7z9bnzslxyuhewq",895,"16.csv","","416.80000000074506","resources/trios/L1T1A2.jpg","37","restless",0.6,0.4,0.4,0.727852301587136,"false"
"image-keyboard-response",237,12536796,"0.0-3.75-1.75","7z9bnzslxyuhewq",895,"16.csv","","null","resources/maskTrios/L1BB.jpg","null","",NA,NA,NA,NA,""
"image-keyboard-response",238,12537999,"0.0-3.75-2.75","7z9bnzslxyuhewq",895,"16.csv","","null","resources/images/fishbone.png","null","",NA,NA,NA,NA,""
"image-keyboard-response",239,12538032,"0.0-3.76-0.76","7z9bnzslxyuhewq",895,"16.csv","","30.59999999962747","resources/trios/L4T2A2.jpg","37","restless",0.6,0.4,0.4,0.150382053345203,"true"
"image-keyboard-response",240,12538437,"0.0-3.76-1.76","7z9bnzslxyuhewq",895,"16.csv","","null","resources/maskTrios/L4BB.jpg","null","",NA,NA,NA,NA,""
"image-keyboard-response",241,12539640,"0.0-3.76-2.76","7z9bnzslxyuhewq",895,"16.csv","","null","resources/images/coin2.png","null","",NA,NA,NA,NA,""
"image-keyboard-response",242,12539697,"0.0-3.77-0.77","7z9bnzslxyuhewq",895,"16.csv","","55.200000000186265","resources/trios/L4T2A2.jpg","37","restless",0.6,0.4,0.4,0.550666356641104,"true"
"image-keyboard-response",243,12540099,"0.0-3.77-1.77","7z9bnzslxyuhewq",895,"16.csv","","null","resources/maskTrios/L4BB.jpg","null","",NA,NA,NA,NA,""
"image-keyboard-response",244,12541304,"0.0-3.77-2.77","7z9bnzslxyuhewq",895,"16.csv","","null","resources/images/coin2.png","null","",NA,NA,NA,NA,""
"image-keyboard-response",245,12542183,"0.0-3.78-0.78","7z9bnzslxyuhewq",895,"16.csv","","876.7000000001863","resources/trios/L1T1A1.jpg","37","restless",0.6,0.4,0.4,0.430419279748122,"true"
"image-keyboard-response",246,12542587,"0.0-3.78-1.78","7z9bnzslxyuhewq",895,"16.csv","","null","resources/maskTrios/L1BB.jpg","null","",NA,NA,NA,NA,""
"image-keyboard-response",247,12543790,"0.0-3.78-2.78","7z9bnzslxyuhewq",895,"16.csv","","null","resources/images/coin2.png","null","",NA,NA,NA,NA,""
"image-keyboard-response",248,12543826,"0.0-3.79-0.79","7z9bnzslxyuhewq",895,"16.csv","","34","resources/trios/L1T1A2.jpg","37","restless",0.6,0.4,0.4,0.0782887020782412,"true"
"image-keyboard-response",249,12544231,"0.0-3.79-1.79","7z9bnzslxyuhewq",895,"16.csv","","null","resources/maskTrios/L1BB.jpg","null","",NA,NA,NA,NA,""
"image-keyboard-response",250,12545434,"0.0-3.79-2.79","7z9bnzslxyuhewq",895,"16.csv","","null","resources/images/coin2.png","null","",NA,NA,NA,NA,""
"image-keyboard-response",251,12545843,"0.0-3.80-0.80","7z9bnzslxyuhewq",895,"16.csv","","407.70000000018626","resources/trios/L1T2A2.jpg","37","restless",0.6,0.4,0.4,0.952900875005465,"false"
"image-keyboard-response",252,12546245,"0.0-3.80-1.80","7z9bnzslxyuhewq",895,"16.csv","","null","resources/maskTrios/L1BB.jpg","null","",NA,NA,NA,NA,""
"image-keyboard-response",253,12547446,"0.0-3.80-2.80","7z9bnzslxyuhewq",895,"16.csv","","null","resources/images/fishbone.png","null","",NA,NA,NA,NA,""
"image-keyboard-response",254,12547742,"0.0-3.81-0.81","7z9bnzslxyuhewq",895,"16.csv","","294.09999999962747","resources/trios/L4T1A1.jpg","37","restless",0.6,0.4,0.4,0.340852299129946,"true"
"image-keyboard-response",255,12548145,"0.0-3.81-1.81","7z9bnzslxyuhewq",895,"16.csv","","null","resources/maskTrios/L4BB.jpg","null","",NA,NA,NA,NA,""
"image-keyboard-response",256,12549349,"0.0-3.81-2.81","7z9bnzslxyuhewq",895,"16.csv","","null","resources/images/coin2.png","null","",NA,NA,NA,NA,""
"image-keyboard-response",257,12549815,"0.0-3.82-0.82","7z9bnzslxyuhewq",895,"16.csv","","464.5","resources/trios/L4T1A1.jpg","37","restless",0.6,0.4,0.4,0.524150874407002,"true"
"image-keyboard-response",258,12550221,"0.0-3.82-1.82","7z9bnzslxyuhewq",895,"16.csv","","null","resources/maskTrios/L4BB.jpg","null","",NA,NA,NA,NA,""
"image-keyboard-response",259,12551424,"0.0-3.82-2.82","7z9bnzslxyuhewq",895,"16.csv","","null","resources/images/coin2.png","null","",NA,NA,NA,NA,""
"image-keyboard-response",260,12552304,"0.0-3.83-0.83","7z9bnzslxyuhewq",895,"16.csv","","878.2999999998137","resources/trios/L4T1A2.jpg","37","restless",0.6,0.4,0.4,0.51566062012917,"true"
"image-keyboard-response",261,12552711,"0.0-3.83-1.83","7z9bnzslxyuhewq",895,"16.csv","","null","resources/maskTrios/L4BB.jpg","null","",NA,NA,NA,NA,""
"image-keyboard-response",262,12553917,"0.0-3.83-2.83","7z9bnzslxyuhewq",895,"16.csv","","null","resources/images/coin2.png","null","",NA,NA,NA,NA,""
"image-keyboard-response",263,12556417,"0.0-3.84-0.84","7z9bnzslxyuhewq",895,"16.csv","","2499.199999999255","resources/trios/L4T2A1.jpg","37","restless",0.6,0.4,0.4,0.504578576117956,"true"
"image-keyboard-response",264,12556824,"0.0-3.84-1.84","7z9bnzslxyuhewq",895,"16.csv","","null","resources/maskTrios/L4BB.jpg","null","",NA,NA,NA,NA,""
"image-keyboard-response",265,12558029,"0.0-3.84-2.84","7z9bnzslxyuhewq",895,"16.csv","","null","resources/images/coin2.png","null","",NA,NA,NA,NA,""
"image-keyboard-response",266,12560331,"0.0-3.85-0.85","7z9bnzslxyuhewq",895,"16.csv","","2300.7999999998137","resources/trios/L1T1A2.jpg","37","restless",0.6,0.4,0.4,0.536699924583536,"true"
"image-keyboard-response",267,12560737,"0.0-3.85-1.85","7z9bnzslxyuhewq",895,"16.csv","","null","resources/maskTrios/L1BB.jpg","null","",NA,NA,NA,NA,""
"image-keyboard-response",268,12561941,"0.0-3.85-2.85","7z9bnzslxyuhewq",895,"16.csv","","null","resources/images/coin2.png","null","",NA,NA,NA,NA,""
"image-keyboard-response",269,12563184,"0.0-3.86-0.86","7z9bnzslxyuhewq",895,"16.csv","","1242.2999999998137","resources/trios/L1T1A1.jpg","37","restless",0.6,0.4,0.4,0.74417273507393,"false"
"image-keyboard-response",270,12563587,"0.0-3.86-1.86","7z9bnzslxyuhewq",895,"16.csv","","null","resources/maskTrios/L1BB.jpg","null","",NA,NA,NA,NA,""
"image-keyboard-response",271,12564793,"0.0-3.86-2.86","7z9bnzslxyuhewq",895,"16.csv","","null","resources/images/fishbone.png","null","",NA,NA,NA,NA,""
"image-keyboard-response",272,12566304,"0.0-3.87-0.87","7z9bnzslxyuhewq",895,"16.csv","","1509","resources/trios/L4T2A1.jpg","37","restless",0.7,0.4,0.4,0.947687259650509,"false"
"image-keyboard-response",273,12566707,"0.0-3.87-1.87","7z9bnzslxyuhewq",895,"16.csv","","null","resources/maskTrios/L4BB.jpg","null","",NA,NA,NA,NA,""
"image-keyboard-response",274,12567912,"0.0-3.87-2.87","7z9bnzslxyuhewq",895,"16.csv","","null","resources/images/fishbone.png","null","",NA,NA,NA,NA,""
"image-keyboard-response",275,12568447,"0.0-3.88-0.88","7z9bnzslxyuhewq",895,"16.csv","","534.2999999998137","resources/trios/L1T1A1.jpg","37","restless",0.7,0.4,0.4,0.549179913729642,"true"
"image-keyboard-response",276,12568854,"0.0-3.88-1.88","7z9bnzslxyuhewq",895,"16.csv","","null","resources/maskTrios/L1BB.jpg","null","",NA,NA,NA,NA,""
"image-keyboard-response",277,12570058,"0.0-3.88-2.88","7z9bnzslxyuhewq",895,"16.csv","","null","resources/images/coin2.png","null","",NA,NA,NA,NA,""
"image-keyboard-response",278,12570881,"0.0-3.89-0.89","7z9bnzslxyuhewq",895,"16.csv","","822.5999999996275","resources/trios/L1T2A1.jpg","37","restless",0.7,0.4,0.3,0.19852013590353,"true"
"image-keyboard-response",279,12571287,"0.0-3.89-1.89","7z9bnzslxyuhewq",895,"16.csv","","null","resources/maskTrios/L1BB.jpg","null","",NA,NA,NA,NA,""
"image-keyboard-response",280,12572489,"0.0-3.89-2.89","7z9bnzslxyuhewq",895,"16.csv","","null","resources/images/coin2.png","null","",NA,NA,NA,NA,""
"image-keyboard-response",281,12573516,"0.0-3.90-0.90","7z9bnzslxyuhewq",895,"16.csv","","1026.7000000001863","resources/trios/L1T2A2.jpg","37","restless",0.7,0.5,0.3,0.105902215404165,"true"
"image-keyboard-response",282,12573922,"0.0-3.90-1.90","7z9bnzslxyuhewq",895,"16.csv","","null","resources/maskTrios/L1BB.jpg","null","",NA,NA,NA,NA,""
"image-keyboard-response",283,12575127,"0.0-3.90-2.90","7z9bnzslxyuhewq",895,"16.csv","","null","resources/images/coin2.png","null","",NA,NA,NA,NA,""
"image-keyboard-response",284,12579740,"0.0-3.91-0.91","7z9bnzslxyuhewq",895,"16.csv","","4611.200000000186","resources/trios/L1T1A2.jpg","37","restless",0.7,0.5,0.3,0.324900514332836,"true"
"image-keyboard-response",285,12580145,"0.0-3.91-1.91","7z9bnzslxyuhewq",895,"16.csv","","null","resources/maskTrios/L1BB.jpg","null","",NA,NA,NA,NA,""
"image-keyboard-response",286,12581352,"0.0-3.91-2.91","7z9bnzslxyuhewq",895,"16.csv","","null","resources/images/coin2.png","null","",NA,NA,NA,NA,""
"image-keyboard-response",287,12581502,"0.0-3.92-0.92","7z9bnzslxyuhewq",895,"16.csv","","148.3999999994412","resources/trios/L4T1A1.jpg","37","restless",0.7,0.6,0.3,0.278599492285071,"true"
"image-keyboard-response",288,12581908,"0.0-3.92-1.92","7z9bnzslxyuhewq",895,"16.csv","","null","resources/maskTrios/L4BB.jpg","null","",NA,NA,NA,NA,""
"image-keyboard-response",289,12583112,"0.0-3.92-2.92","7z9bnzslxyuhewq",895,"16.csv","","null","resources/images/coin2.png","null","",NA,NA,NA,NA,""
"image-keyboard-response",290,12583484,"0.0-3.93-0.93","7z9bnzslxyuhewq",895,"16.csv","","371.20000000018626","resources/trios/L1T2A2.jpg","37","restless",0.7,0.6,0.3,0.752395215011315,"false"
"image-keyboard-response",291,12583887,"0.0-3.93-1.93","7z9bnzslxyuhewq",895,"16.csv","","null","resources/maskTrios/L1BB.jpg","null","",NA,NA,NA,NA,""
"image-keyboard-response",292,12585088,"0.0-3.93-2.93","7z9bnzslxyuhewq",895,"16.csv","","null","resources/images/fishbone.png","null","",NA,NA,NA,NA,""
"image-keyboard-response",293,12585709,"0.0-3.94-0.94","7z9bnzslxyuhewq",895,"16.csv","","619.7000000001863","resources/trios/L1T2A1.jpg","37","restless",0.7,0.6,0.3,0.828703790153366,"false"
"image-keyboard-response",294,12586115,"0.0-3.94-1.94","7z9bnzslxyuhewq",895,"16.csv","","null","resources/maskTrios/L1BB.jpg","null","",NA,NA,NA,NA,""
"image-keyboard-response",295,12587320,"0.0-3.94-2.94","7z9bnzslxyuhewq",895,"16.csv","","null","resources/images/fishbone.png","null","",NA,NA,NA,NA,""
"image-keyboard-response",296,12587589,"0.0-3.95-0.95","7z9bnzslxyuhewq",895,"16.csv","","267.09999999962747","resources/trios/L1T2A2.jpg","38","restless",0.7,0.6,0.3,0.188859819758642,"true"
"image-keyboard-response",297,12587995,"0.0-3.95-1.95","7z9bnzslxyuhewq",895,"16.csv","","null","resources/maskTrios/BT2B.jpg","null","",NA,NA,NA,NA,""
"image-keyboard-response",298,12589202,"0.0-3.95-2.95","7z9bnzslxyuhewq",895,"16.csv","","null","resources/images/coin2.png","null","",NA,NA,NA,NA,""
"image-keyboard-response",299,12589762,"0.0-3.96-0.96","7z9bnzslxyuhewq",895,"16.csv","","558.2000000001863","resources/trios/L1T2A2.jpg","38","restless",0.7,0.6,0.3,0.72715277468219,"false"
"image-keyboard-response",300,12590168,"0.0-3.96-1.96","7z9bnzslxyuhewq",895,"16.csv","","null","resources/maskTrios/BT2B.jpg","null","",NA,NA,NA,NA,""
"image-keyboard-response",301,12591374,"0.0-3.96-2.96","7z9bnzslxyuhewq",895,"16.csv","","null","resources/images/fishbone.png","null","",NA,NA,NA,NA,""
"image-keyboard-response",302,12591715,"0.0-3.97-0.97","7z9bnzslxyuhewq",895,"16.csv","","340.09999999962747","resources/trios/L1T1A1.jpg","39","restless",0.7,0.6,0.3,0.811470747239035,"false"
"image-keyboard-response",303,12592120,"0.0-3.97-1.97","7z9bnzslxyuhewq",895,"16.csv","","null","resources/maskTrios/BBA1.jpg","null","",NA,NA,NA,NA,""
"image-keyboard-response",304,12593324,"0.0-3.97-2.97","7z9bnzslxyuhewq",895,"16.csv","","null","resources/images/fishbone.png","null","",NA,NA,NA,NA,""
"image-keyboard-response",305,12593740,"0.0-3.98-0.98","7z9bnzslxyuhewq",895,"16.csv","","415","resources/trios/L4T1A1.jpg","38","restless",0.7,0.6,0.3,0.871869675867479,"false"
"image-keyboard-response",306,12594146,"0.0-3.98-1.98","7z9bnzslxyuhewq",895,"16.csv","","null","resources/maskTrios/BT1B.jpg","null","",NA,NA,NA,NA,""
"image-keyboard-response",307,12595352,"0.0-3.98-2.98","7z9bnzslxyuhewq",895,"16.csv","","null","resources/images/fishbone.png","null","",NA,NA,NA,NA,""
"image-keyboard-response",308,12595922,"0.0-3.99-0.99","7z9bnzslxyuhewq",895,"16.csv","","568.6000000005588","resources/trios/L4T1A2.jpg","37","restless",0.7,0.5,0.3,0.247975249248169,"true"
"image-keyboard-response",309,12596328,"0.0-3.99-1.99","7z9bnzslxyuhewq",895,"16.csv","","null","resources/maskTrios/L4BB.jpg","null","",NA,NA,NA,NA,""
"image-keyboard-response",310,12597535,"0.0-3.99-2.99","7z9bnzslxyuhewq",895,"16.csv","","null","resources/images/coin2.png","null","",NA,NA,NA,NA,""
"image-keyboard-response",311,12598990,"0.0-3.100-0.100","7z9bnzslxyuhewq",895,"16.csv","","1453","resources/trios/L4T2A2.jpg","37","restless",0.7,0.5,0.3,0.47022852520416,"true"
"image-keyboard-response",312,12599395,"0.0-3.100-1.100","7z9bnzslxyuhewq",895,"16.csv","","null","resources/maskTrios/L4BB.jpg","null","",NA,NA,NA,NA,""
"image-keyboard-response",313,12600601,"0.0-3.100-2.100","7z9bnzslxyuhewq",895,"16.csv","","null","resources/images/coin2.png","null","",NA,NA,NA,NA,""
"image-keyboard-response",314,12600989,"0.0-3.101-0.101","7z9bnzslxyuhewq",895,"16.csv","","387.30000000074506","resources/trios/L1T1A1.jpg","37","restless",0.7,0.5,0.4,0.543173261641092,"true"
"image-keyboard-response",315,12601395,"0.0-3.101-1.101","7z9bnzslxyuhewq",895,"16.csv","","null","resources/maskTrios/L1BB.jpg","null","",NA,NA,NA,NA,""
"image-keyboard-response",316,12602599,"0.0-3.101-2.101","7z9bnzslxyuhewq",895,"16.csv","","null","resources/images/coin2.png","null","",NA,NA,NA,NA,""
"image-keyboard-response",317,12603566,"0.0-3.102-0.102","7z9bnzslxyuhewq",895,"16.csv","","965.6000000005588","resources/trios/L1T1A2.jpg","37","restless",0.7,0.5,0.4,0.358748629120426,"true"
"image-keyboard-response",318,12603970,"0.0-3.102-1.102","7z9bnzslxyuhewq",895,"16.csv","","null","resources/maskTrios/L1BB.jpg","null","",NA,NA,NA,NA,""
"image-keyboard-response",319,12605177,"0.0-3.102-2.102","7z9bnzslxyuhewq",895,"16.csv","","null","resources/images/coin2.png","null","",NA,NA,NA,NA,""
"image-keyboard-response",320,12606309,"0.0-3.103-0.103","7z9bnzslxyuhewq",895,"16.csv","","1130.9000000003725","resources/trios/L1T1A1.jpg","37","restless",0.7,0.5,0.4,0.444022459885605,"true"
"image-keyboard-response",321,12606711,"0.0-3.103-1.103","7z9bnzslxyuhewq",895,"16.csv","","null","resources/maskTrios/L1BB.jpg","null","",NA,NA,NA,NA,""
"image-keyboard-response",322,12607918,"0.0-3.103-2.103","7z9bnzslxyuhewq",895,"16.csv","","null","resources/images/coin2.png","null","",NA,NA,NA,NA,""
"image-keyboard-response",323,12608407,"0.0-3.104-0.104","7z9bnzslxyuhewq",895,"16.csv","","487.5","resources/trios/L1T1A2.jpg","37","restless",0.7,0.5,0.4,0.465230260779307,"true"
"image-keyboard-response",324,12608811,"0.0-3.104-1.104","7z9bnzslxyuhewq",895,"16.csv","","null","resources/maskTrios/L1BB.jpg","null","",NA,NA,NA,NA,""
"image-keyboard-response",325,12610013,"0.0-3.104-2.104","7z9bnzslxyuhewq",895,"16.csv","","null","resources/images/coin2.png","null","",NA,NA,NA,NA,""
"image-keyboard-response",326,12610512,"0.0-3.105-0.105","7z9bnzslxyuhewq",895,"16.csv","","497.5","resources/trios/L1T2A2.jpg","37","restless",0.7,0.4,0.4,0.609796996737676,"true"
"image-keyboard-response",327,12610914,"0.0-3.105-1.105","7z9bnzslxyuhewq",895,"16.csv","","null","resources/maskTrios/L1BB.jpg","null","",NA,NA,NA,NA,""
"image-keyboard-response",328,12612120,"0.0-3.105-2.105","7z9bnzslxyuhewq",895,"16.csv","","null","resources/images/coin2.png","null","",NA,NA,NA,NA,""
"image-keyboard-response",329,12612821,"0.0-3.106-0.106","7z9bnzslxyuhewq",895,"16.csv","","699.7000000001863","resources/trios/L4T2A2.jpg","37","restless",0.8,0.4,0.4,0.202530641838768,"true"
"image-keyboard-response",330,12613227,"0.0-3.106-1.106","7z9bnzslxyuhewq",895,"16.csv","","null","resources/maskTrios/L4BB.jpg","null","",NA,NA,NA,NA,""
"image-keyboard-response",331,12614431,"0.0-3.106-2.106","7z9bnzslxyuhewq",895,"16.csv","","null","resources/images/coin2.png","null","",NA,NA,NA,NA,""
"image-keyboard-response",332,12616295,"0.0-3.107-0.107","7z9bnzslxyuhewq",895,"16.csv","","1863.2000000011176","resources/trios/L1T1A1.jpg","37","restless",0.8,0.4,0.4,0.386580490633675,"true"
"image-keyboard-response",333,12616701,"0.0-3.107-1.107","7z9bnzslxyuhewq",895,"16.csv","","null","resources/maskTrios/L1BB.jpg","null","",NA,NA,NA,NA,""
"image-keyboard-response",334,12617904,"0.0-3.107-2.107","7z9bnzslxyuhewq",895,"16.csv","","null","resources/images/coin2.png","null","",NA,NA,NA,NA,""
"image-keyboard-response",335,12618836,"0.0-3.108-0.108","7z9bnzslxyuhewq",895,"16.csv","","930.6999999992549","resources/trios/L1T2A2.jpg","37","restless",0.8,0.4,0.4,0.2944723543829,"true"
"image-keyboard-response",336,12619243,"0.0-3.108-1.108","7z9bnzslxyuhewq",895,"16.csv","","null","resources/maskTrios/L1BB.jpg","null","",NA,NA,NA,NA,""
"image-keyboard-response",337,12620444,"0.0-3.108-2.108","7z9bnzslxyuhewq",895,"16.csv","","null","resources/images/coin2.png","null","",NA,NA,NA,NA,""
"image-keyboard-response",338,12620480,"0.0-3.109-0.109","7z9bnzslxyuhewq",895,"16.csv","","34.90000000037253","resources/trios/L1T2A1.jpg","38","restless",0.8,0.4,0.4,0.821293073236309,"false"
"image-keyboard-response",339,12620886,"0.0-3.109-1.109","7z9bnzslxyuhewq",895,"16.csv","","null","resources/maskTrios/BT2B.jpg","null","",NA,NA,NA,NA,""
"image-keyboard-response",340,12622093,"0.0-3.109-2.109","7z9bnzslxyuhewq",895,"16.csv","","null","resources/images/fishbone.png","null","",NA,NA,NA,NA,""
"image-keyboard-response",341,12623622,"0.0-3.110-0.110","7z9bnzslxyuhewq",895,"16.csv","","1527.2000000011176","resources/trios/L4T1A2.jpg","37","restless",0.8,0.4,0.4,0.542458716771396,"true"
"image-keyboard-response",342,12624028,"0.0-3.110-1.110","7z9bnzslxyuhewq",895,"16.csv","","null","resources/maskTrios/L4BB.jpg","null","",NA,NA,NA,NA,""
"image-keyboard-response",343,12625232,"0.0-3.110-2.110","7z9bnzslxyuhewq",895,"16.csv","","null","resources/images/coin2.png","null","",NA,NA,NA,NA,""
"image-keyboard-response",344,12627956,"0.0-3.111-0.111","7z9bnzslxyuhewq",895,"16.csv","","2722.5","resources/trios/L4T1A2.jpg","37","restless",0.8,0.4,0.4,0.386747979856058,"true"
"image-keyboard-response",345,12628361,"0.0-3.111-1.111","7z9bnzslxyuhewq",895,"16.csv","","null","resources/maskTrios/L4BB.jpg","null","",NA,NA,NA,NA,""
"image-keyboard-response",346,12629569,"0.0-3.111-2.111","7z9bnzslxyuhewq",895,"16.csv","","null","resources/images/coin2.png","null","",NA,NA,NA,NA,""
"image-keyboard-response",347,12630609,"0.0-3.112-0.112","7z9bnzslxyuhewq",895,"16.csv","","1038.2999999988824","resources/trios/L1T1A1.jpg","37","restless",0.8,0.4,0.4,0.333884754548084,"true"
"image-keyboard-response",348,12631011,"0.0-3.112-1.112","7z9bnzslxyuhewq",895,"16.csv","","null","resources/maskTrios/L1BB.jpg","null","",NA,NA,NA,NA,""
"image-keyboard-response",349,12632218,"0.0-3.112-2.112","7z9bnzslxyuhewq",895,"16.csv","","null","resources/images/coin2.png","null","",NA,NA,NA,NA,""
"image-keyboard-response",350,12632869,"0.0-3.113-0.113","7z9bnzslxyuhewq",895,"16.csv","","649.5","resources/trios/L1T2A2.jpg","37","restless",0.8,0.4,0.4,0.729987732385959,"true"
"image-keyboard-response",351,12633276,"0.0-3.113-1.113","7z9bnzslxyuhewq",895,"16.csv","","null","resources/maskTrios/L1BB.jpg","null","",NA,NA,NA,NA,""
"image-keyboard-response",352,12634478,"0.0-3.113-2.113","7z9bnzslxyuhewq",895,"16.csv","","null","resources/images/coin2.png","null","",NA,NA,NA,NA,""
"image-keyboard-response",353,12634558,"0.0-3.114-0.114","7z9bnzslxyuhewq",895,"16.csv","","78.59999999962747","resources/trios/L1T2A1.jpg","37","restless",0.8,0.4,0.4,0.34266589433212,"true"
"image-keyboard-response",354,12634961,"0.0-3.114-1.114","7z9bnzslxyuhewq",895,"16.csv","","null","resources/maskTrios/L1BB.jpg","null","",NA,NA,NA,NA,""
"image-keyboard-response",355,12636168,"0.0-3.114-2.114","7z9bnzslxyuhewq",895,"16.csv","","null","resources/images/coin2.png","null","",NA,NA,NA,NA,""
"image-keyboard-response",356,12636291,"0.0-3.115-0.115","7z9bnzslxyuhewq",895,"16.csv","","121.40000000037253","resources/trios/L4T2A1.jpg","37","restless",0.8,0.4,0.4,0.779187822011458,"true"
"image-keyboard-response",357,12636694,"0.0-3.115-1.115","7z9bnzslxyuhewq",895,"16.csv","","null","resources/maskTrios/L4BB.jpg","null","",NA,NA,NA,NA,""
"image-keyboard-response",358,12637900,"0.0-3.115-2.115","7z9bnzslxyuhewq",895,"16.csv","","null","resources/images/coin2.png","null","",NA,NA,NA,NA,""
"image-keyboard-response",359,12638573,"0.0-3.116-0.116","7z9bnzslxyuhewq",895,"16.csv","","671.7000000011176","resources/trios/L4T1A2.jpg","37","restless",0.8,0.4,0.4,0.00339237528813174,"true"
"image-keyboard-response",360,12638978,"0.0-3.116-1.116","7z9bnzslxyuhewq",895,"16.csv","","null","resources/maskTrios/L4BB.jpg","null","",NA,NA,NA,NA,""
"image-keyboard-response",361,12640184,"0.0-3.116-2.116","7z9bnzslxyuhewq",895,"16.csv","","null","resources/images/coin2.png","null","",NA,NA,NA,NA,""
"image-keyboard-response",362,12640947,"0.0-3.117-0.117","7z9bnzslxyuhewq",895,"16.csv","","761.2999999988824","resources/trios/L1T2A2.jpg","37","restless",0.8,0.4,0.4,0.49220591388275,"true"
"image-keyboard-response",363,12641353,"0.0-3.117-1.117","7z9bnzslxyuhewq",895,"16.csv","","null","resources/maskTrios/L1BB.jpg","null","",NA,NA,NA,NA,""
"image-keyboard-response",364,12642558,"0.0-3.117-2.117","7z9bnzslxyuhewq",895,"16.csv","","null","resources/images/coin2.png","null","",NA,NA,NA,NA,""
"image-keyboard-response",365,12642578,"0.0-3.118-0.118","7z9bnzslxyuhewq",895,"16.csv","","18.899999998509884","resources/trios/L4T1A1.jpg","37","restless",0.8,0.4,0.4,0.343909722252789,"true"
"image-keyboard-response",366,12642984,"0.0-3.118-1.118","7z9bnzslxyuhewq",895,"16.csv","","null","resources/maskTrios/L4BB.jpg","null","",NA,NA,NA,NA,""
"image-keyboard-response",367,12644186,"0.0-3.118-2.118","7z9bnzslxyuhewq",895,"16.csv","","null","resources/images/coin2.png","null","",NA,NA,NA,NA,""
"image-keyboard-response",368,12644225,"0.0-3.119-0.119","7z9bnzslxyuhewq",895,"16.csv","","38","resources/trios/L4T2A2.jpg","37","restless",0.8,0.4,0.4,0.120434733940668,"true"
"image-keyboard-response",369,12644629,"0.0-3.119-1.119","7z9bnzslxyuhewq",895,"16.csv","","null","resources/maskTrios/L4BB.jpg","null","",NA,NA,NA,NA,""
"image-keyboard-response",370,12645830,"0.0-3.119-2.119","7z9bnzslxyuhewq",895,"16.csv","","null","resources/images/coin2.png","null","",NA,NA,NA,NA,""
"image-keyboard-response",371,12646618,"0.0-3.120-0.120","7z9bnzslxyuhewq",895,"16.csv","","787.4000000003725","resources/trios/L1T2A2.jpg","37","restless",0.8,0.4,0.4,0.200870179216009,"true"
"image-keyboard-response",372,12647025,"0.0-3.120-1.120","7z9bnzslxyuhewq",895,"16.csv","","null","resources/maskTrios/L1BB.jpg","null","",NA,NA,NA,NA,""
"image-keyboard-response",373,12648228,"0.0-3.120-2.120","7z9bnzslxyuhewq",895,"16.csv","","null","resources/images/coin2.png","null","",NA,NA,NA,NA,""
"image-keyboard-response",374,12648408,"0.0-3.121-0.121","7z9bnzslxyuhewq",895,"16.csv","","179.80000000074506","resources/trios/L1T2A1.jpg","37","restless",0.8,0.4,0.4,0.949340696597198,"false"
"image-keyboard-response",375,12648811,"0.0-3.121-1.121","7z9bnzslxyuhewq",895,"16.csv","","null","resources/maskTrios/L1BB.jpg","null","",NA,NA,NA,NA,""
"image-keyboard-response",376,12650012,"0.0-3.121-2.121","7z9bnzslxyuhewq",895,"16.csv","","null","resources/images/fishbone.png","null","",NA,NA,NA,NA,""
"image-keyboard-response",377,12650899,"0.0-3.122-0.122","7z9bnzslxyuhewq",895,"16.csv","","885.5999999996275","resources/trios/L4T1A1.jpg","37","restless",0.8,0.4,0.5,0.0403275591335044,"true"
"image-keyboard-response",378,12651303,"0.0-3.122-1.122","7z9bnzslxyuhewq",895,"16.csv","","null","resources/maskTrios/L4BB.jpg","null","",NA,NA,NA,NA,""
"image-keyboard-response",379,12652510,"0.0-3.122-2.122","7z9bnzslxyuhewq",895,"16.csv","","null","resources/images/coin2.png","null","",NA,NA,NA,NA,""
"image-keyboard-response",380,12653900,"0.0-3.123-0.123","7z9bnzslxyuhewq",895,"16.csv","","1388.2000000011176","resources/trios/L4T2A1.jpg","37","restless",0.8,0.3,0.5,0.817309319824852,"false"
"image-keyboard-response",381,12654303,"0.0-3.123-1.123","7z9bnzslxyuhewq",895,"16.csv","","null","resources/maskTrios/L4BB.jpg","null","",NA,NA,NA,NA,""
"image-keyboard-response",382,12655509,"0.0-3.123-2.123","7z9bnzslxyuhewq",895,"16.csv","","null","resources/images/fishbone.png","null","",NA,NA,NA,NA,""
"image-keyboard-response",383,12656075,"0.0-3.124-0.124","7z9bnzslxyuhewq",895,"16.csv","","564.7000000011176","resources/trios/L4T2A1.jpg","37","restless",0.7,0.3,0.5,0.473208680379602,"true"
"image-keyboard-response",384,12656478,"0.0-3.124-1.124","7z9bnzslxyuhewq",895,"16.csv","","null","resources/maskTrios/L4BB.jpg","null","",NA,NA,NA,NA,""
"image-keyboard-response",385,12657684,"0.0-3.124-2.124","7z9bnzslxyuhewq",895,"16.csv","","null","resources/images/coin2.png","null","",NA,NA,NA,NA,""
"image-keyboard-response",386,12657801,"0.0-3.125-0.125","7z9bnzslxyuhewq",895,"16.csv","","115.40000000037253","resources/trios/L1T2A1.jpg","37","restless",0.7,0.3,0.6,0.811611001333701,"false"
"image-keyboard-response",387,12658203,"0.0-3.125-1.125","7z9bnzslxyuhewq",895,"16.csv","","null","resources/maskTrios/L1BB.jpg","null","",NA,NA,NA,NA,""
"image-keyboard-response",388,12659409,"0.0-3.125-2.125","7z9bnzslxyuhewq",895,"16.csv","","null","resources/images/fishbone.png","null","",NA,NA,NA,NA,""
"image-keyboard-response",389,12660309,"0.0-3.126-0.126","7z9bnzslxyuhewq",895,"16.csv","","897.8999999985099","resources/trios/L1T1A2.jpg","37","restless",0.7,0.4,0.6,0.353814335572882,"true"
"image-keyboard-response",390,12660711,"0.0-3.126-1.126","7z9bnzslxyuhewq",895,"16.csv","","null","resources/maskTrios/L1BB.jpg","null","",NA,NA,NA,NA,""
"image-keyboard-response",391,12661913,"0.0-3.126-2.126","7z9bnzslxyuhewq",895,"16.csv","","null","resources/images/coin2.png","null","",NA,NA,NA,NA,""
"image-keyboard-response",392,12662242,"0.0-3.127-0.127","7z9bnzslxyuhewq",895,"16.csv","","327.3999999985099","resources/trios/L4T1A2.jpg","37","restless",0.7,0.4,0.6,0.155844768512599,"true"
"image-keyboard-response",393,12662644,"0.0-3.127-1.127","7z9bnzslxyuhewq",895,"16.csv","","null","resources/maskTrios/L4BB.jpg","null","",NA,NA,NA,NA,""
"image-keyboard-response",394,12663851,"0.0-3.127-2.127","7z9bnzslxyuhewq",895,"16.csv","","null","resources/images/coin2.png","null","",NA,NA,NA,NA,""
"image-keyboard-response",395,12664448,"0.0-3.128-0.128","7z9bnzslxyuhewq",895,"16.csv","","596.0999999996275","resources/trios/L4T2A2.jpg","37","restless",0.7,0.4,0.6,0.623665473115257,"true"
"image-keyboard-response",396,12664853,"0.0-3.128-1.128","7z9bnzslxyuhewq",895,"16.csv","","null","resources/maskTrios/L4BB.jpg","null","",NA,NA,NA,NA,""
"image-keyboard-response",397,12666058,"0.0-3.128-2.128","7z9bnzslxyuhewq",895,"16.csv","","null","resources/images/coin2.png","null","",NA,NA,NA,NA,""
"image-keyboard-response",398,12666412,"0.0-3.129-0.129","7z9bnzslxyuhewq",895,"16.csv","","353.30000000074506","resources/trios/L4T1A2.jpg","39","restless",0.7,0.4,0.6,0.314759145545243,"true"
"image-keyboard-response",399,12666817,"0.0-3.129-1.129","7z9bnzslxyuhewq",895,"16.csv","","null","resources/maskTrios/BBA2.jpg","null","",NA,NA,NA,NA,""
"image-keyboard-response",400,12668020,"0.0-3.129-2.129","7z9bnzslxyuhewq",895,"16.csv","","null","resources/images/coin2.png","null","",NA,NA,NA,NA,""
"image-keyboard-response",401,12668312,"0.0-3.130-0.130","7z9bnzslxyuhewq",895,"16.csv","","291.40000000037253","resources/trios/L1T2A2.jpg","39","restless",0.7,0.4,0.6,0.0903059592854254,"true"
"image-keyboard-response",402,12668716,"0.0-3.130-1.130","7z9bnzslxyuhewq",895,"16.csv","","null","resources/maskTrios/BBA2.jpg","null","",NA,NA,NA,NA,""
"image-keyboard-response",403,12669920,"0.0-3.130-2.130","7z9bnzslxyuhewq",895,"16.csv","","null","resources/images/coin2.png","null","",NA,NA,NA,NA,""
"image-keyboard-response",404,12670450,"0.0-3.131-0.131","7z9bnzslxyuhewq",895,"16.csv","","529","resources/trios/L1T2A2.jpg","39","restless",0.7,0.4,0.6,0.533813904483443,"true"
"image-keyboard-response",405,12670853,"0.0-3.131-1.131","7z9bnzslxyuhewq",895,"16.csv","","null","resources/maskTrios/BBA2.jpg","null","",NA,NA,NA,NA,""
"image-keyboard-response",406,12672059,"0.0-3.131-2.131","7z9bnzslxyuhewq",895,"16.csv","","null","resources/images/coin2.png","null","",NA,NA,NA,NA,""
"image-keyboard-response",407,12672305,"0.0-3.132-0.132","7z9bnzslxyuhewq",895,"16.csv","","245.2000000011176","resources/trios/L4T2A2.jpg","39","restless",0.6,0.4,0.6,0.827810499900063,"false"
"image-keyboard-response",408,12672711,"0.0-3.132-1.132","7z9bnzslxyuhewq",895,"16.csv","","null","resources/maskTrios/BBA2.jpg","null","",NA,NA,NA,NA,""
"image-keyboard-response",409,12673916,"0.0-3.132-2.132","7z9bnzslxyuhewq",895,"16.csv","","null","resources/images/fishbone.png","null","",NA,NA,NA,NA,""
"image-keyboard-response",410,12674272,"0.0-3.133-0.133","7z9bnzslxyuhewq",895,"16.csv","","353.90000000037253","resources/trios/L4T2A1.jpg","38","restless",0.6,0.4,0.6,0.5487993928483,"false"
"image-keyboard-response",411,12674677,"0.0-3.133-1.133","7z9bnzslxyuhewq",895,"16.csv","","null","resources/maskTrios/BT2B.jpg","null","",NA,NA,NA,NA,""
"image-keyboard-response",412,12675883,"0.0-3.133-2.133","7z9bnzslxyuhewq",895,"16.csv","","null","resources/images/fishbone.png","null","",NA,NA,NA,NA,""
"image-keyboard-response",413,12676140,"0.0-3.134-0.134","7z9bnzslxyuhewq",895,"16.csv","","256.40000000037253","resources/trios/L1T2A2.jpg","37","restless",0.6,0.5,0.6,0.387530199685334,"true"
"image-keyboard-response",414,12676546,"0.0-3.134-1.134","7z9bnzslxyuhewq",895,"16.csv","","null","resources/maskTrios/L1BB.jpg","null","",NA,NA,NA,NA,""
"image-keyboard-response",415,12677753,"0.0-3.134-2.134","7z9bnzslxyuhewq",895,"16.csv","","null","resources/images/coin2.png","null","",NA,NA,NA,NA,""
"image-keyboard-response",416,12679042,"0.0-3.135-0.135","7z9bnzslxyuhewq",895,"16.csv","","1288.199999999255","resources/trios/L1T1A1.jpg","37","restless",0.7,0.5,0.5,0.435938298431206,"true"
"image-keyboard-response",417,12679444,"0.0-3.135-1.135","7z9bnzslxyuhewq",895,"16.csv","","null","resources/maskTrios/L1BB.jpg","null","",NA,NA,NA,NA,""
"image-keyboard-response",418,12680650,"0.0-3.135-2.135","7z9bnzslxyuhewq",895,"16.csv","","null","resources/images/coin2.png","null","",NA,NA,NA,NA,""
"image-keyboard-response",419,12681517,"0.0-3.136-0.136","7z9bnzslxyuhewq",895,"16.csv","","865.5999999996275","resources/trios/L4T1A2.jpg","37","restless",0.7,0.5,0.5,0.0887032438912578,"true"
"image-keyboard-response",420,12681920,"0.0-3.136-1.136","7z9bnzslxyuhewq",895,"16.csv","","null","resources/maskTrios/L4BB.jpg","null","",NA,NA,NA,NA,""
"image-keyboard-response",421,12683126,"0.0-3.136-2.136","7z9bnzslxyuhewq",895,"16.csv","","null","resources/images/coin2.png","null","",NA,NA,NA,NA,""
"image-keyboard-response",422,12685226,"0.0-3.137-0.137","7z9bnzslxyuhewq",895,"16.csv","","2098.0999999996275","resources/trios/L1T1A2.jpg","37","restless",0.7,0.6,0.6,0.398440387114101,"true"
"image-keyboard-response",423,12685627,"0.0-3.137-1.137","7z9bnzslxyuhewq",895,"16.csv","","null","resources/maskTrios/L1BB.jpg","null","",NA,NA,NA,NA,""
"image-keyboard-response",424,12686830,"0.0-3.137-2.137","7z9bnzslxyuhewq",895,"16.csv","","null","resources/images/coin2.png","null","",NA,NA,NA,NA,""
"image-keyboard-response",425,12688440,"0.0-3.138-0.138","7z9bnzslxyuhewq",895,"16.csv","","1610","resources/trios/L1T1A1.jpg","37","restless",0.7,0.6,0.7,0.257767118840937,"true"
"image-keyboard-response",426,12688844,"0.0-3.138-1.138","7z9bnzslxyuhewq",895,"16.csv","","null","resources/maskTrios/L1BB.jpg","null","",NA,NA,NA,NA,""
"image-keyboard-response",427,12690046,"0.0-3.138-2.138","7z9bnzslxyuhewq",895,"16.csv","","null","resources/images/coin2.png","null","",NA,NA,NA,NA,""
"image-keyboard-response",428,12690766,"0.0-3.139-0.139","7z9bnzslxyuhewq",895,"16.csv","","719.3000000007451","resources/trios/L4T2A1.jpg","37","restless",0.7,0.6,0.7,0.514177607962595,"true"
"image-keyboard-response",429,12691169,"0.0-3.139-1.139","7z9bnzslxyuhewq",895,"16.csv","","null","resources/maskTrios/L4BB.jpg","null","",NA,NA,NA,NA,""
"image-keyboard-response",430,12692374,"0.0-3.139-2.139","7z9bnzslxyuhewq",895,"16.csv","","null","resources/images/coin2.png","null","",NA,NA,NA,NA,""
"image-keyboard-response",431,12693794,"0.0-3.140-0.140","7z9bnzslxyuhewq",895,"16.csv","","1419.0999999996275","resources/trios/L1T2A1.jpg","37","restless",0.7,0.6,0.7,0.388610929321891,"true"
"image-keyboard-response",432,12694198,"0.0-3.140-1.140","7z9bnzslxyuhewq",895,"16.csv","","null","resources/maskTrios/L1BB.jpg","null","",NA,NA,NA,NA,""
"image-keyboard-response",433,12695403,"0.0-3.140-2.140","7z9bnzslxyuhewq",895,"16.csv","","null","resources/images/coin2.png","null","",NA,NA,NA,NA,""
"image-keyboard-response",434,12697549,"0.0-3.141-0.141","7z9bnzslxyuhewq",895,"16.csv","","2144.4000000003725","resources/trios/L4T2A1.jpg","37","restless",0.7,0.6,0.7,0.518858468822204,"true"
"image-keyboard-response",435,12697953,"0.0-3.141-1.141","7z9bnzslxyuhewq",895,"16.csv","","null","resources/maskTrios/L4BB.jpg","null","",NA,NA,NA,NA,""
"image-keyboard-response",436,12699155,"0.0-3.141-2.141","7z9bnzslxyuhewq",895,"16.csv","","null","resources/images/coin2.png","null","",NA,NA,NA,NA,""
"image-keyboard-response",437,12699707,"0.0-3.142-0.142","7z9bnzslxyuhewq",895,"16.csv","","550.6999999992549","resources/trios/L1T1A1.jpg","38","restless",0.7,0.6,0.7,0.520194815389016,"true"
"image-keyboard-response",438,12700110,"0.0-3.142-1.142","7z9bnzslxyuhewq",895,"16.csv","","null","resources/maskTrios/BT1B.jpg","null","",NA,NA,NA,NA,""
"image-keyboard-response",439,12701313,"0.0-3.142-2.142","7z9bnzslxyuhewq",895,"16.csv","","null","resources/images/coin2.png","null","",NA,NA,NA,NA,""
"image-keyboard-response",440,12702558,"0.0-3.143-0.143","7z9bnzslxyuhewq",895,"16.csv","","1243.9000000003725","resources/trios/L4T2A1.jpg","38","restless",0.7,0.6,0.7,0.419037023462854,"true"
"image-keyboard-response",441,12702960,"0.0-3.143-1.143","7z9bnzslxyuhewq",895,"16.csv","","null","resources/maskTrios/BT2B.jpg","null","",NA,NA,NA,NA,""
"image-keyboard-response",442,12704166,"0.0-3.143-2.143","7z9bnzslxyuhewq",895,"16.csv","","null","resources/images/coin2.png","null","",NA,NA,NA,NA,""
"image-keyboard-response",443,12705307,"0.0-3.144-0.144","7z9bnzslxyuhewq",895,"16.csv","","1140.199999999255","resources/trios/L4T2A1.jpg","38","restless",0.6,0.6,0.7,0.83954274988074,"false"
"image-keyboard-response",444,12705710,"0.0-3.144-1.144","7z9bnzslxyuhewq",895,"16.csv","","null","resources/maskTrios/BT2B.jpg","null","",NA,NA,NA,NA,""
"image-keyboard-response",445,12706915,"0.0-3.144-2.144","7z9bnzslxyuhewq",895,"16.csv","","null","resources/images/fishbone.png","null","",NA,NA,NA,NA,""
"image-keyboard-response",446,12707642,"0.0-3.145-0.145","7z9bnzslxyuhewq",895,"16.csv","","725.0999999996275","resources/trios/L1T1A2.jpg","37","restless",0.6,0.6,0.7,0.675579215093399,"false"
"image-keyboard-response",447,12708044,"0.0-3.145-1.145","7z9bnzslxyuhewq",895,"16.csv","","null","resources/maskTrios/L1BB.jpg","null","",NA,NA,NA,NA,""
"image-keyboard-response",448,12709250,"0.0-3.145-2.145","7z9bnzslxyuhewq",895,"16.csv","","null","resources/images/fishbone.png","null","",NA,NA,NA,NA,""
"image-keyboard-response",449,12711203,"0.0-3.146-0.146","7z9bnzslxyuhewq",895,"16.csv","","1952.300000000745","resources/trios/L1T1A2.jpg","37","restless",0.6,0.6,0.7,0.151842095490219,"true"
"image-keyboard-response",450,12711606,"0.0-3.146-1.146","7z9bnzslxyuhewq",895,"16.csv","","null","resources/maskTrios/L1BB.jpg","null","",NA,NA,NA,NA,""
"image-keyboard-response",451,12712810,"0.0-3.146-2.146","7z9bnzslxyuhewq",895,"16.csv","","null","resources/images/coin2.png","null","",NA,NA,NA,NA,""
"image-keyboard-response",452,12713172,"0.0-3.147-0.147","7z9bnzslxyuhewq",895,"16.csv","","360","resources/trios/L1T1A2.jpg","37","restless",0.6,0.6,0.7,0.800803747922564,"false"
"image-keyboard-response",453,12713577,"0.0-3.147-1.147","7z9bnzslxyuhewq",895,"16.csv","","null","resources/maskTrios/L1BB.jpg","null","",NA,NA,NA,NA,""
"image-keyboard-response",454,12714784,"0.0-3.147-2.147","7z9bnzslxyuhewq",895,"16.csv","","null","resources/images/fishbone.png","null","",NA,NA,NA,NA,""
"image-keyboard-response",455,12715052,"0.0-3.148-0.148","7z9bnzslxyuhewq",895,"16.csv","","266.7999999988824","resources/trios/L4T1A1.jpg","39","restless",0.6,0.6,0.7,0.197927386089334,"true"
"image-keyboard-response",456,12715458,"0.0-3.148-1.148","7z9bnzslxyuhewq",895,"16.csv","","null","resources/maskTrios/BBA1.jpg","null","",NA,NA,NA,NA,""
"image-keyboard-response",457,12716660,"0.0-3.148-2.148","7z9bnzslxyuhewq",895,"16.csv","","null","resources/images/coin2.png","null","",NA,NA,NA,NA,""
"image-keyboard-response",458,12718105,"0.0-3.149-0.149","7z9bnzslxyuhewq",895,"16.csv","","1442.800000000745","resources/trios/L1T1A2.jpg","39","restless",0.6,0.7,0.7,0.490064628889169,"true"
"image-keyboard-response",459,12718510,"0.0-3.149-1.149","7z9bnzslxyuhewq",895,"16.csv","","null","resources/maskTrios/BBA2.jpg","null","",NA,NA,NA,NA,""
"image-keyboard-response",460,12719717,"0.0-3.149-2.149","7z9bnzslxyuhewq",895,"16.csv","","null","resources/images/coin2.png","null","",NA,NA,NA,NA,""
"image-keyboard-response",461,12720617,"0.0-3.150-0.150","7z9bnzslxyuhewq",895,"16.csv","","899.0999999996275","resources/trios/L4T1A2.jpg","39","restless",0.6,0.7,0.7,0.084318837329963,"true"
"image-keyboard-response",462,12721021,"0.0-3.150-1.150","7z9bnzslxyuhewq",895,"16.csv","","null","resources/maskTrios/BBA2.jpg","null","",NA,NA,NA,NA,""
"image-keyboard-response",463,12722226,"0.0-3.150-2.150","7z9bnzslxyuhewq",895,"16.csv","","null","resources/images/coin2.png","null","",NA,NA,NA,NA,""
"image-keyboard-response",464,12722655,"0.0-3.151-0.151","7z9bnzslxyuhewq",895,"16.csv","","428.5","resources/trios/L4T1A2.jpg","38","restless",0.6,0.7,0.7,0.0810564597383081,"true"
"image-keyboard-response",465,12723060,"0.0-3.151-1.151","7z9bnzslxyuhewq",895,"16.csv","","null","resources/maskTrios/BT1B.jpg","null","",NA,NA,NA,NA,""
"image-keyboard-response",466,12724263,"0.0-3.151-2.151","7z9bnzslxyuhewq",895,"16.csv","","null","resources/images/coin2.png","null","",NA,NA,NA,NA,""
"image-keyboard-response",467,12724874,"0.0-3.152-0.152","7z9bnzslxyuhewq",895,"16.csv","","609.5","resources/trios/L4T2A1.jpg","38","restless",0.6,0.7,0.7,0.982028045214137,"false"
"image-keyboard-response",468,12725277,"0.0-3.152-1.152","7z9bnzslxyuhewq",895,"16.csv","","null","resources/maskTrios/BT2B.jpg","null","",NA,NA,NA,NA,""
"image-keyboard-response",469,12726482,"0.0-3.152-2.152","7z9bnzslxyuhewq",895,"16.csv","","null","resources/images/fishbone.png","null","",NA,NA,NA,NA,""
"image-keyboard-response",470,12727159,"0.0-3.153-0.153","7z9bnzslxyuhewq",895,"16.csv","","675.5","resources/trios/L1T1A1.jpg","38","restless",0.6,0.7,0.7,0.645630854009816,"true"
"image-keyboard-response",471,12727560,"0.0-3.153-1.153","7z9bnzslxyuhewq",895,"16.csv","","null","resources/maskTrios/BT1B.jpg","null","",NA,NA,NA,NA,""
"image-keyboard-response",472,12728766,"0.0-3.153-2.153","7z9bnzslxyuhewq",895,"16.csv","","null","resources/images/coin2.png","null","",NA,NA,NA,NA,""
"image-keyboard-response",473,12729224,"0.0-3.154-0.154","7z9bnzslxyuhewq",895,"16.csv","","456.7000000011176","resources/trios/L4T1A2.jpg","38","restless",0.6,0.7,0.7,0.808420853488895,"false"
"image-keyboard-response",474,12729627,"0.0-3.154-1.154","7z9bnzslxyuhewq",895,"16.csv","","null","resources/maskTrios/BT1B.jpg","null","",NA,NA,NA,NA,""
"image-keyboard-response",475,12730833,"0.0-3.154-2.154","7z9bnzslxyuhewq",895,"16.csv","","null","resources/images/fishbone.png","null","",NA,NA,NA,NA,""
"image-keyboard-response",476,12731142,"0.0-3.155-0.155","7z9bnzslxyuhewq",895,"16.csv","","308.80000000074506","resources/trios/L1T1A1.jpg","38","restless",0.6,0.8,0.7,0.395888543134651,"true"
"image-keyboard-response",477,12731545,"0.0-3.155-1.155","7z9bnzslxyuhewq",895,"16.csv","","null","resources/maskTrios/BT1B.jpg","null","",NA,NA,NA,NA,""
"image-keyboard-response",478,12732752,"0.0-3.155-2.155","7z9bnzslxyuhewq",895,"16.csv","","null","resources/images/coin2.png","null","",NA,NA,NA,NA,""
"image-keyboard-response",479,12733318,"0.0-3.156-0.156","7z9bnzslxyuhewq",895,"16.csv","","565.6999999992549","resources/trios/L4T1A2.jpg","38","restless",0.5,0.8,0.6,0.533421175263012,"true"
"image-keyboard-response",480,12733723,"0.0-3.156-1.156","7z9bnzslxyuhewq",895,"16.csv","","null","resources/maskTrios/BT1B.jpg","null","",NA,NA,NA,NA,""
"image-keyboard-response",481,12734927,"0.0-3.156-2.156","7z9bnzslxyuhewq",895,"16.csv","","null","resources/images/coin2.png","null","",NA,NA,NA,NA,""
"image-keyboard-response",482,12735983,"0.0-3.157-0.157","7z9bnzslxyuhewq",895,"16.csv","","1054","resources/trios/L1T1A1.jpg","38","restless",0.5,0.8,0.6,0.629193582701,"true"
"image-keyboard-response",483,12736386,"0.0-3.157-1.157","7z9bnzslxyuhewq",895,"16.csv","","null","resources/maskTrios/BT1B.jpg","null","",NA,NA,NA,NA,""
"image-keyboard-response",484,12737588,"0.0-3.157-2.157","7z9bnzslxyuhewq",895,"16.csv","","null","resources/images/coin2.png","null","",NA,NA,NA,NA,""
"image-keyboard-response",485,12738510,"0.0-3.158-0.158","7z9bnzslxyuhewq",895,"16.csv","","920.3000000007451","resources/trios/L4T1A1.jpg","38","restless",0.4,0.8,0.6,0.881027538349126,"false"
"image-keyboard-response",486,12738915,"0.0-3.158-1.158","7z9bnzslxyuhewq",895,"16.csv","","null","resources/maskTrios/BT1B.jpg","null","",NA,NA,NA,NA,""
"image-keyboard-response",487,12740119,"0.0-3.158-2.158","7z9bnzslxyuhewq",895,"16.csv","","null","resources/images/fishbone.png","null","",NA,NA,NA,NA,""
"image-keyboard-response",488,12740837,"0.0-3.159-0.159","7z9bnzslxyuhewq",895,"16.csv","","716.5","resources/trios/L4T1A2.jpg","37","restless",0.4,0.8,0.6,0.742223452701503,"false"
"image-keyboard-response",489,12741241,"0.0-3.159-1.159","7z9bnzslxyuhewq",895,"16.csv","","null","resources/maskTrios/L4BB.jpg","null","",NA,NA,NA,NA,""
"image-keyboard-response",490,12742443,"0.0-3.159-2.159","7z9bnzslxyuhewq",895,"16.csv","","null","resources/images/fishbone.png","null","",NA,NA,NA,NA,""
"image-keyboard-response",491,12743235,"0.0-3.160-0.160","7z9bnzslxyuhewq",895,"16.csv","","790.2999999988824","resources/trios/L1T2A2.jpg","37","restless",0.4,0.8,0.6,0.959771785227735,"false"
"image-keyboard-response",492,12743640,"0.0-3.160-1.160","7z9bnzslxyuhewq",895,"16.csv","","null","resources/maskTrios/L1BB.jpg","null","",NA,NA,NA,NA,""
"image-keyboard-response",493,12744844,"0.0-3.160-2.160","7z9bnzslxyuhewq",895,"16.csv","","null","resources/images/fishbone.png","null","",NA,NA,NA,NA,""
"image-keyboard-response",494,12745659,"0.0-3.161-0.161","7z9bnzslxyuhewq",895,"16.csv","","813.9000000003725","resources/trios/L1T2A2.jpg","37","restless",0.4,0.8,0.6,0.481956906545592,"false"
"image-keyboard-response",495,12746060,"0.0-3.161-1.161","7z9bnzslxyuhewq",895,"16.csv","","null","resources/maskTrios/L1BB.jpg","null","",NA,NA,NA,NA,""
"image-keyboard-response",496,12747264,"0.0-3.161-2.161","7z9bnzslxyuhewq",895,"16.csv","","null","resources/images/fishbone.png","null","",NA,NA,NA,NA,""
"image-keyboard-response",497,12747560,"0.0-3.162-0.162","7z9bnzslxyuhewq",895,"16.csv","","294.5","resources/trios/L4T1A1.jpg","37","restless",0.3,0.8,0.5,0.962257324614818,"false"
"image-keyboard-response",498,12747966,"0.0-3.162-1.162","7z9bnzslxyuhewq",895,"16.csv","","null","resources/maskTrios/L4BB.jpg","null","",NA,NA,NA,NA,""
"image-keyboard-response",499,12749169,"0.0-3.162-2.162","7z9bnzslxyuhewq",895,"16.csv","","null","resources/images/fishbone.png","null","",NA,NA,NA,NA,""
"image-keyboard-response",500,12749392,"0.0-3.163-0.163","7z9bnzslxyuhewq",895,"16.csv","","221.09999999962747","resources/trios/L1T1A2.jpg","37","restless",0.3,0.8,0.5,0.456742143846023,"false"
"image-keyboard-response",501,12749798,"0.0-3.163-1.163","7z9bnzslxyuhewq",895,"16.csv","","null","resources/maskTrios/L1BB.jpg","null","",NA,NA,NA,NA,""
"image-keyboard-response",502,12751002,"0.0-3.163-2.163","7z9bnzslxyuhewq",895,"16.csv","","null","resources/images/fishbone.png","null","",NA,NA,NA,NA,""
"image-keyboard-response",503,12751519,"0.0-3.164-0.164","7z9bnzslxyuhewq",895,"16.csv","","515.9000000003725","resources/trios/L4T1A2.jpg","37","restless",0.3,0.7,0.5,0.0786125272938945,"true"
"image-keyboard-response",504,12751924,"0.0-3.164-1.164","7z9bnzslxyuhewq",895,"16.csv","","null","resources/maskTrios/L4BB.jpg","null","",NA,NA,NA,NA,""
"image-keyboard-response",505,12753129,"0.0-3.164-2.164","7z9bnzslxyuhewq",895,"16.csv","","null","resources/images/coin2.png","null","",NA,NA,NA,NA,""
"image-keyboard-response",506,12754282,"0.0-3.165-0.165","7z9bnzslxyuhewq",895,"16.csv","","1152.199999999255","resources/trios/L1T1A1.jpg","37","restless",0.3,0.7,0.5,0.465889940854335,"false"
"image-keyboard-response",507,12754686,"0.0-3.165-1.165","7z9bnzslxyuhewq",895,"16.csv","","null","resources/maskTrios/L1BB.jpg","null","",NA,NA,NA,NA,""
"image-keyboard-response",508,12755892,"0.0-3.165-2.165","7z9bnzslxyuhewq",895,"16.csv","","null","resources/images/fishbone.png","null","",NA,NA,NA,NA,""
"image-keyboard-response",509,12756521,"0.0-3.166-0.166","7z9bnzslxyuhewq",895,"16.csv","","627.9000000003725","resources/trios/L1T2A2.jpg","39","restless",0.2,0.7,0.5,0.639353485361325,"false"
"image-keyboard-response",510,12756927,"0.0-3.166-1.166","7z9bnzslxyuhewq",895,"16.csv","","null","resources/maskTrios/BBA2.jpg","null","",NA,NA,NA,NA,""
"image-keyboard-response",511,12758133,"0.0-3.166-2.166","7z9bnzslxyuhewq",895,"16.csv","","null","resources/images/fishbone.png","null","",NA,NA,NA,NA,""
"image-keyboard-response",512,12759242,"0.0-3.167-0.167","7z9bnzslxyuhewq",895,"16.csv","","1107.9000000003725","resources/trios/L1T1A2.jpg","39","restless",0.2,0.7,0.5,0.5246908016681,"false"
"image-keyboard-response",513,12759647,"0.0-3.167-1.167","7z9bnzslxyuhewq",895,"16.csv","","null","resources/maskTrios/BBA2.jpg","null","",NA,NA,NA,NA,""
"image-keyboard-response",514,12760852,"0.0-3.167-2.167","7z9bnzslxyuhewq",895,"16.csv","","null","resources/images/fishbone.png","null","",NA,NA,NA,NA,""
"image-keyboard-response",515,12761457,"0.0-3.168-0.168","7z9bnzslxyuhewq",895,"16.csv","","603.2999999988824","resources/trios/L4T2A2.jpg","38","restless",0.2,0.7,0.5,0.853610847418003,"false"
"image-keyboard-response",516,12761860,"0.0-3.168-1.168","7z9bnzslxyuhewq",895,"16.csv","","null","resources/maskTrios/BT2B.jpg","null","",NA,NA,NA,NA,""
"image-keyboard-response",517,12763062,"0.0-3.168-2.168","7z9bnzslxyuhewq",895,"16.csv","","null","resources/images/fishbone.png","null","",NA,NA,NA,NA,""
"image-keyboard-response",518,12764042,"0.0-3.169-0.169","7z9bnzslxyuhewq",895,"16.csv","","979.2999999988824","resources/trios/L4T2A2.jpg","38","restless",0.2,0.7,0.5,0.336598402986127,"true"
"image-keyboard-response",519,12764445,"0.0-3.169-1.169","7z9bnzslxyuhewq",895,"16.csv","","null","resources/maskTrios/BT2B.jpg","null","",NA,NA,NA,NA,""
"image-keyboard-response",520,12765652,"0.0-3.169-2.169","7z9bnzslxyuhewq",895,"16.csv","","null","resources/images/coin2.png","null","",NA,NA,NA,NA,""
"image-keyboard-response",521,12766771,"0.0-3.170-0.170","7z9bnzslxyuhewq",895,"16.csv","","1118.199999999255","resources/trios/L1T2A1.jpg","37","restless",0.2,0.7,0.5,0.48204053229101,"false"
"image-keyboard-response",522,12767177,"0.0-3.170-1.170","7z9bnzslxyuhewq",895,"16.csv","","null","resources/maskTrios/L1BB.jpg","null","",NA,NA,NA,NA,""
"image-keyboard-response",523,12768383,"0.0-3.170-2.170","7z9bnzslxyuhewq",895,"16.csv","","null","resources/images/fishbone.png","null","",NA,NA,NA,NA,""
"image-keyboard-response",524,12769342,"0.0-3.171-0.171","7z9bnzslxyuhewq",895,"16.csv","","957","resources/trios/L1T1A1.jpg","37","restless",0.2,0.7,0.5,0.426105074934671,"false"
"image-keyboard-response",525,12769743,"0.0-3.171-1.171","7z9bnzslxyuhewq",895,"16.csv","","null","resources/maskTrios/L1BB.jpg","null","",NA,NA,NA,NA,""
"image-keyboard-response",526,12770949,"0.0-3.171-2.171","7z9bnzslxyuhewq",895,"16.csv","","null","resources/images/fishbone.png","null","",NA,NA,NA,NA,""
"image-keyboard-response",527,12771757,"0.0-3.172-0.172","7z9bnzslxyuhewq",895,"16.csv","","807","resources/trios/L1T1A2.jpg","38","restless",0.2,0.7,0.6,0.80259584761126,"false"
"image-keyboard-response",528,12772160,"0.0-3.172-1.172","7z9bnzslxyuhewq",895,"16.csv","","null","resources/maskTrios/BT1B.jpg","null","",NA,NA,NA,NA,""
"image-keyboard-response",529,12773362,"0.0-3.172-2.172","7z9bnzslxyuhewq",895,"16.csv","","null","resources/images/fishbone.png","null","",NA,NA,NA,NA,""
"image-keyboard-response",530,12775071,"0.0-3.173-0.173","7z9bnzslxyuhewq",895,"16.csv","","1707.300000000745","resources/trios/L1T1A2.jpg","38","restless",0.2,0.7,0.6,0.77510706811244,"false"
"image-keyboard-response",531,12775477,"0.0-3.173-1.173","7z9bnzslxyuhewq",895,"16.csv","","null","resources/maskTrios/BT1B.jpg","null","",NA,NA,NA,NA,""
"image-keyboard-response",532,12776683,"0.0-3.173-2.173","7z9bnzslxyuhewq",895,"16.csv","","null","resources/images/fishbone.png","null","",NA,NA,NA,NA,""
"image-keyboard-response",533,12777863,"0.0-3.174-0.174","7z9bnzslxyuhewq",895,"16.csv","","1178","resources/trios/L1T1A1.jpg","39","restless",0.2,0.7,0.6,0.206525389333707,"true"
"image-keyboard-response",534,12778269,"0.0-3.174-1.174","7z9bnzslxyuhewq",895,"16.csv","","null","resources/maskTrios/BBA1.jpg","null","",NA,NA,NA,NA,""
"image-keyboard-response",535,12779471,"0.0-3.174-2.174","7z9bnzslxyuhewq",895,"16.csv","","null","resources/images/coin2.png","null","",NA,NA,NA,NA,""
"image-keyboard-response",536,12780627,"0.0-3.175-0.175","7z9bnzslxyuhewq",895,"16.csv","","1154.4000000003725","resources/trios/L1T1A2.jpg","39","restless",0.2,0.7,0.6,0.346258661559643,"true"
"image-keyboard-response",537,12781029,"0.0-3.175-1.175","7z9bnzslxyuhewq",895,"16.csv","","null","resources/maskTrios/BBA2.jpg","null","",NA,NA,NA,NA,""
"image-keyboard-response",538,12782236,"0.0-3.175-2.175","7z9bnzslxyuhewq",895,"16.csv","","null","resources/images/coin2.png","null","",NA,NA,NA,NA,""
"image-keyboard-response",539,12782529,"0.0-3.176-0.176","7z9bnzslxyuhewq",895,"16.csv","","291.2999999988824","resources/trios/L4T2A2.jpg","39","restless",0.2,0.7,0.6,0.434251033100465,"true"
"image-keyboard-response",540,12782935,"0.0-3.176-1.176","7z9bnzslxyuhewq",895,"16.csv","","null","resources/maskTrios/BBA2.jpg","null","",NA,NA,NA,NA,""
"image-keyboard-response",541,12784141,"0.0-3.176-2.176","7z9bnzslxyuhewq",895,"16.csv","","null","resources/images/coin2.png","null","",NA,NA,NA,NA,""
"image-keyboard-response",542,12785273,"0.0-3.177-0.177","7z9bnzslxyuhewq",895,"16.csv","","1130.2999999988824","resources/trios/L1T2A1.jpg","39","restless",0.2,0.7,0.6,0.523300744889509,"true"
"image-keyboard-response",543,12785677,"0.0-3.177-1.177","7z9bnzslxyuhewq",895,"16.csv","","null","resources/maskTrios/BBA1.jpg","null","",NA,NA,NA,NA,""
"image-keyboard-response",544,12786880,"0.0-3.177-2.177","7z9bnzslxyuhewq",895,"16.csv","","null","resources/images/coin2.png","null","",NA,NA,NA,NA,""
"image-keyboard-response",545,12786926,"0.0-3.178-0.178","7z9bnzslxyuhewq",895,"16.csv","","44.399999998509884","resources/trios/L4T1A2.jpg","39","restless",0.2,0.7,0.6,0.088783185906091,"true"
"image-keyboard-response",546,12787332,"0.0-3.178-1.178","7z9bnzslxyuhewq",895,"16.csv","","null","resources/maskTrios/BBA2.jpg","null","",NA,NA,NA,NA,""
"image-keyboard-response",547,12788536,"0.0-3.178-2.178","7z9bnzslxyuhewq",895,"16.csv","","null","resources/images/coin2.png","null","",NA,NA,NA,NA,""
"image-keyboard-response",548,12789113,"0.0-3.179-0.179","7z9bnzslxyuhewq",895,"16.csv","","575.4000000003725","resources/trios/L1T1A1.jpg","39","restless",0.2,0.7,0.6,0.531533830697759,"true"
"image-keyboard-response",549,12789519,"0.0-3.179-1.179","7z9bnzslxyuhewq",895,"16.csv","","null","resources/maskTrios/BBA1.jpg","null","",NA,NA,NA,NA,""
"image-keyboard-response",550,12790725,"0.0-3.179-2.179","7z9bnzslxyuhewq",895,"16.csv","","null","resources/images/coin2.png","null","",NA,NA,NA,NA,""
"image-keyboard-response",551,12791424,"0.0-3.180-0.180","7z9bnzslxyuhewq",895,"16.csv","","697.2999999988824","resources/trios/L4T2A2.jpg","39","restless",0.2,0.7,0.6,0.648818464059247,"false"
"image-keyboard-response",552,12791826,"0.0-3.180-1.180","7z9bnzslxyuhewq",895,"16.csv","","null","resources/maskTrios/BBA2.jpg","null","",NA,NA,NA,NA,""
"image-keyboard-response",553,12793032,"0.0-3.180-2.180","7z9bnzslxyuhewq",895,"16.csv","","null","resources/images/fishbone.png","null","",NA,NA,NA,NA,""
"image-keyboard-response",554,12793729,"0.0-3.181-0.181","7z9bnzslxyuhewq",895,"16.csv","","694.8000000007451","resources/trios/L1T1A2.jpg","39","restless",0.2,0.7,0.6,0.611442385635497,"false"
"image-keyboard-response",555,12794135,"0.0-3.181-1.181","7z9bnzslxyuhewq",895,"16.csv","","null","resources/maskTrios/BBA2.jpg","null","",NA,NA,NA,NA,""
"image-keyboard-response",556,12795341,"0.0-3.181-2.181","7z9bnzslxyuhewq",895,"16.csv","","null","resources/images/fishbone.png","null","",NA,NA,NA,NA,""
"image-keyboard-response",557,12795735,"0.0-3.182-0.182","7z9bnzslxyuhewq",895,"16.csv","","392.30000000074506","resources/trios/L1T2A2.jpg","37","restless",0.2,0.7,0.6,0.706566946289675,"false"
"image-keyboard-response",558,12796143,"0.0-3.182-1.182","7z9bnzslxyuhewq",895,"16.csv","","null","resources/maskTrios/L1BB.jpg","null","",NA,NA,NA,NA,""
"image-keyboard-response",559,12797346,"0.0-3.182-2.182","7z9bnzslxyuhewq",895,"16.csv","","null","resources/images/fishbone.png","null","",NA,NA,NA,NA,""
"image-keyboard-response",560,12797806,"0.0-3.183-0.183","7z9bnzslxyuhewq",895,"16.csv","","458.7000000011176","resources/trios/L1T2A2.jpg","37","restless",0.2,0.7,0.6,0.325792429243879,"false"
"image-keyboard-response",561,12798210,"0.0-3.183-1.183","7z9bnzslxyuhewq",895,"16.csv","","null","resources/maskTrios/L1BB.jpg","null","",NA,NA,NA,NA,""
"image-keyboard-response",562,12799416,"0.0-3.183-2.183","7z9bnzslxyuhewq",895,"16.csv","","null","resources/images/fishbone.png","null","",NA,NA,NA,NA,""
"image-keyboard-response",563,12799828,"0.0-3.184-0.184","7z9bnzslxyuhewq",895,"16.csv","","410.7000000011176","resources/trios/L4T2A1.jpg","38","restless",0.2,0.7,0.5,0.955085996450177,"false"
"image-keyboard-response",564,12800233,"0.0-3.184-1.184","7z9bnzslxyuhewq",895,"16.csv","","null","resources/maskTrios/BT2B.jpg","null","",NA,NA,NA,NA,""
"image-keyboard-response",565,12801435,"0.0-3.184-2.184","7z9bnzslxyuhewq",895,"16.csv","","null","resources/images/fishbone.png","null","",NA,NA,NA,NA,""
"image-keyboard-response",566,12802013,"0.0-3.185-0.185","7z9bnzslxyuhewq",895,"16.csv","","576.5999999996275","resources/trios/L1T1A1.jpg","38","restless",0.2,0.7,0.5,0.617953191673027,"true"
"image-keyboard-response",567,12802419,"0.0-3.185-1.185","7z9bnzslxyuhewq",895,"16.csv","","null","resources/maskTrios/BT1B.jpg","null","",NA,NA,NA,NA,""
"image-keyboard-response",568,12803622,"0.0-3.185-2.185","7z9bnzslxyuhewq",895,"16.csv","","null","resources/images/coin2.png","null","",NA,NA,NA,NA,""
"image-keyboard-response",569,12804542,"0.0-3.186-0.186","7z9bnzslxyuhewq",895,"16.csv","","919","resources/trios/L4T2A1.jpg","37","restless",0.2,0.7,0.5,0.706167650426557,"false"
"image-keyboard-response",570,12804947,"0.0-3.186-1.186","7z9bnzslxyuhewq",895,"16.csv","","null","resources/maskTrios/L4BB.jpg","null","",NA,NA,NA,NA,""
"image-keyboard-response",571,12806152,"0.0-3.186-2.186","7z9bnzslxyuhewq",895,"16.csv","","null","resources/images/fishbone.png","null","",NA,NA,NA,NA,""
"image-keyboard-response",572,12807356,"0.0-3.187-0.187","7z9bnzslxyuhewq",895,"16.csv","","1203.2999999988824","resources/trios/L1T2A2.jpg","37","restless",0.2,0.7,0.5,0.801330145550887,"false"
"image-keyboard-response",573,12807760,"0.0-3.187-1.187","7z9bnzslxyuhewq",895,"16.csv","","null","resources/maskTrios/L1BB.jpg","null","",NA,NA,NA,NA,""
"image-keyboard-response",574,12808962,"0.0-3.187-2.187","7z9bnzslxyuhewq",895,"16.csv","","null","resources/images/fishbone.png","null","",NA,NA,NA,NA,""
"image-keyboard-response",575,12809109,"0.0-3.188-0.188","7z9bnzslxyuhewq",895,"16.csv","","145.5","resources/trios/L4T2A2.jpg","38","restless",0.3,0.7,0.5,0.986802184570997,"false"
"image-keyboard-response",576,12809516,"0.0-3.188-1.188","7z9bnzslxyuhewq",895,"16.csv","","null","resources/maskTrios/BT2B.jpg","null","",NA,NA,NA,NA,""
"image-keyboard-response",577,12810718,"0.0-3.188-2.188","7z9bnzslxyuhewq",895,"16.csv","","null","resources/images/fishbone.png","null","",NA,NA,NA,NA,""
"image-keyboard-response",578,12811108,"0.0-3.189-0.189","7z9bnzslxyuhewq",895,"16.csv","","389.30000000074506","resources/trios/L1T2A1.jpg","37","restless",0.3,0.7,0.5,0.0128179509975286,"true"
"image-keyboard-response",579,12811512,"0.0-3.189-1.189","7z9bnzslxyuhewq",895,"16.csv","","null","resources/maskTrios/L1BB.jpg","null","",NA,NA,NA,NA,""
"image-keyboard-response",580,12812715,"0.0-3.189-2.189","7z9bnzslxyuhewq",895,"16.csv","","null","resources/images/coin2.png","null","",NA,NA,NA,NA,""
"image-keyboard-response",581,12814214,"0.0-3.190-0.190","7z9bnzslxyuhewq",895,"16.csv","","1497.2000000011176","resources/trios/L4T1A1.jpg","38","restless",0.3,0.7,0.5,0.173268884787446,"true"
"image-keyboard-response",582,12814618,"0.0-3.190-1.190","7z9bnzslxyuhewq",895,"16.csv","","null","resources/maskTrios/BT1B.jpg","null","",NA,NA,NA,NA,""
"image-keyboard-response",583,12815824,"0.0-3.190-2.190","7z9bnzslxyuhewq",895,"16.csv","","null","resources/images/coin2.png","null","",NA,NA,NA,NA,""
"image-keyboard-response",584,12815864,"0.0-3.191-0.191","7z9bnzslxyuhewq",895,"16.csv","","38.30000000074506","resources/trios/L4T2A1.jpg","38","restless",0.3,0.7,0.5,0.835974494446849,"false"
"image-keyboard-response",585,12816268,"0.0-3.191-1.191","7z9bnzslxyuhewq",895,"16.csv","","null","resources/maskTrios/BT2B.jpg","null","",NA,NA,NA,NA,""
"image-keyboard-response",586,12817475,"0.0-3.191-2.191","7z9bnzslxyuhewq",895,"16.csv","","null","resources/images/fishbone.png","null","",NA,NA,NA,NA,""
"image-keyboard-response",587,12818903,"0.0-3.192-0.192","7z9bnzslxyuhewq",895,"16.csv","","1427.3999999985099","resources/trios/L4T2A2.jpg","38","restless",0.4,0.7,0.5,0.865552250715388,"false"
"image-keyboard-response",588,12819309,"0.0-3.192-1.192","7z9bnzslxyuhewq",895,"16.csv","","null","resources/maskTrios/BT2B.jpg","null","",NA,NA,NA,NA,""
"image-keyboard-response",589,12820513,"0.0-3.192-2.192","7z9bnzslxyuhewq",895,"16.csv","","null","resources/images/fishbone.png","null","",NA,NA,NA,NA,""
"image-keyboard-response",590,12823788,"0.0-3.193-0.193","7z9bnzslxyuhewq",895,"16.csv","","3274.0999999996275","resources/trios/L1T2A1.jpg","37","restless",0.4,0.8,0.5,0.13000176332449,"true"
"image-keyboard-response",591,12824193,"0.0-3.193-1.193","7z9bnzslxyuhewq",895,"16.csv","","null","resources/maskTrios/L1BB.jpg","null","",NA,NA,NA,NA,""
"image-keyboard-response",592,12825399,"0.0-3.193-2.193","7z9bnzslxyuhewq",895,"16.csv","","null","resources/images/coin2.png","null","",NA,NA,NA,NA,""
"image-keyboard-response",593,12832952,"0.0-3.194-0.194","7z9bnzslxyuhewq",895,"16.csv","","7550.699999999255","resources/trios/L1T1A2.jpg","37","restless",0.4,0.8,0.5,0.590322006450497,"false"
"image-keyboard-response",594,12833359,"0.0-3.194-1.194","7z9bnzslxyuhewq",895,"16.csv","","null","resources/maskTrios/L1BB.jpg","null","",NA,NA,NA,NA,""
"image-keyboard-response",595,12834563,"0.0-3.194-2.194","7z9bnzslxyuhewq",895,"16.csv","","null","resources/images/fishbone.png","null","",NA,NA,NA,NA,""
"image-keyboard-response",596,12835360,"0.0-3.195-0.195","7z9bnzslxyuhewq",895,"16.csv","","794.9000000003725","resources/trios/L4T1A2.jpg","37","restless",0.4,0.8,0.5,0.00808589128429538,"true"
"image-keyboard-response",597,12835768,"0.0-3.195-1.195","7z9bnzslxyuhewq",895,"16.csv","","null","resources/maskTrios/L4BB.jpg","null","",NA,NA,NA,NA,""
"image-keyboard-response",598,12836972,"0.0-3.195-2.195","7z9bnzslxyuhewq",895,"16.csv","","null","resources/images/coin2.png","null","",NA,NA,NA,NA,""
"image-keyboard-response",599,12837406,"0.0-3.196-0.196","7z9bnzslxyuhewq",895,"16.csv","","433.19999999925494","resources/trios/L4T1A2.jpg","38","restless",0.4,0.7,0.5,0.770751130958651,"false"
"image-keyboard-response",600,12837809,"0.0-3.196-1.196","7z9bnzslxyuhewq",895,"16.csv","","null","resources/maskTrios/BT1B.jpg","null","",NA,NA,NA,NA,""
"image-keyboard-response",601,12839013,"0.0-3.196-2.196","7z9bnzslxyuhewq",895,"16.csv","","null","resources/images/fishbone.png","null","",NA,NA,NA,NA,""
