"trial_type","trial_index","time_elapsed","internal_node_id","subject","participantCode","walkNumber","success","rt","stimulus","key_press","test_part","leftProb","midProb","rightProb","generatedNum","correct"
"pavlovia",0,1079,"0.0-0.0","b7k0oo8p8tle93a",877,"134.csv","","","","","",NA,NA,NA,NA,""
"fullscreen",1,12156,"0.0-1.0","b7k0oo8p8tle93a",877,"134.csv","true","","","","",NA,NA,NA,NA,""
"html-keyboard-response",2,25109,"0.0-2.0-0.0","b7k0oo8p8tle93a",877,"134.csv","","12951","<p><font size='6'>Arrrgh!</p></font><p>Can you be the best pirate? Try to find lots of gold! But beware, some islands have more gold than others, and over time, the island with the most gold may change. Can YOU figure it out? </p><font size='6'>GOOD LUCK, CAPTAIN!!!</font><p>Press any key to begin</p>","32","",NA,NA,NA,NA,""
"image-keyboard-response",3,28113,"0.0-2.0-1.0","b7k0oo8p8tle93a",877,"134.csv","","null","resources/image_sets/111.png","null","",NA,NA,NA,NA,""
"image-keyboard-response",4,33657,"0.0-2.0-2.0","b7k0oo8p8tle93a",877,"134.csv","","5542","resources/image_sets/left_highlight.png","37","",NA,NA,NA,NA,""
"image-keyboard-response",5,36580,"0.0-2.0-3.0","b7k0oo8p8tle93a",877,"134.csv","","2923","resources/image_sets/mid_highlight.png","38","",NA,NA,NA,NA,""
"image-keyboard-response",6,37792,"0.0-2.0-4.0","b7k0oo8p8tle93a",877,"134.csv","","1211.0000000000073","resources/image_sets/right_highlight.png","39","",NA,NA,NA,NA,""
"image-keyboard-response",7,99363,"0.0-2.0-5.0","b7k0oo8p8tle93a",877,"134.csv","","61570","resources/image_sets/111.png","13","",NA,NA,NA,NA,""
"image-keyboard-response",8,103437,"0.0-2.0-6.0","b7k0oo8p8tle93a",877,"134.csv","","4073","resources/images/coin2.png","13","",NA,NA,NA,NA,""
"image-keyboard-response",9,106958,"0.0-2.0-7.0","b7k0oo8p8tle93a",877,"134.csv","","3519","resources/images/fishbone.png","13","",NA,NA,NA,NA,""
"html-keyboard-response",10,1913645,"0.0-2.0-8.0","b7k0oo8p8tle93a",877,"134.csv","","1806710","<p>Your first journey will be a long one, but you will get a well deserved break at the end</p><p>After the break you will have four more journeys, but each will be much shorter than the first, and you will have breaks in between each</p><p>Press Enter to begin</p>","13","",NA,NA,NA,NA,""
"image-keyboard-response",11,1916214,"0.0-3.0-0.0","b7k0oo8p8tle93a",877,"134.csv","","2563","resources/trios/L1T4A3.jpg","37","restless",0.7,0.9,0.3,0.903269558346688,"false"
"image-keyboard-response",12,1916617,"0.0-3.0-1.0","b7k0oo8p8tle93a",877,"134.csv","","null","resources/maskTrios/L1BB.jpg","null","",NA,NA,NA,NA,""
"image-keyboard-response",13,1917820,"0.0-3.0-2.0","b7k0oo8p8tle93a",877,"134.csv","","null","resources/images/fishbone.png","null","",NA,NA,NA,NA,""
"image-keyboard-response",14,1922176,"0.0-3.1-0.1","b7k0oo8p8tle93a",877,"134.csv","","4353.000000000233","resources/trios/L1T4A2.jpg","38","restless",0.7,0.9,0.3,0.0888106904044307,"true"
"image-keyboard-response",15,1922579,"0.0-3.1-1.1","b7k0oo8p8tle93a",877,"134.csv","","null","resources/maskTrios/BT4B.jpg","null","",NA,NA,NA,NA,""
"image-keyboard-response",16,1923783,"0.0-3.1-2.1","b7k0oo8p8tle93a",877,"134.csv","","null","resources/images/coin2.png","null","",NA,NA,NA,NA,""
"image-keyboard-response",17,1933183,"0.0-3.2-0.2","b7k0oo8p8tle93a",877,"134.csv","","9397","resources/trios/L1T1A2.jpg","39","restless",0.6,0.9,0.3,0.835590557333857,"false"
"image-keyboard-response",18,1933587,"0.0-3.2-1.2","b7k0oo8p8tle93a",877,"134.csv","","null","resources/maskTrios/BBA2.jpg","null","",NA,NA,NA,NA,""
"image-keyboard-response",19,1934788,"0.0-3.2-2.2","b7k0oo8p8tle93a",877,"134.csv","","null","resources/images/fishbone.png","null","",NA,NA,NA,NA,""
"image-keyboard-response",20,1936859,"0.0-3.3-0.3","b7k0oo8p8tle93a",877,"134.csv","","2068.000000000233","resources/trios/L4T4A2.jpg","38","restless",0.5,0.9,0.3,0.514066848670086,"true"
"image-keyboard-response",21,1937262,"0.0-3.3-1.3","b7k0oo8p8tle93a",877,"134.csv","","null","resources/maskTrios/BT4B.jpg","null","",NA,NA,NA,NA,""
"image-keyboard-response",22,1938464,"0.0-3.3-2.3","b7k0oo8p8tle93a",877,"134.csv","","null","resources/images/coin2.png","null","",NA,NA,NA,NA,""
"image-keyboard-response",23,1940706,"0.0-3.4-0.4","b7k0oo8p8tle93a",877,"134.csv","","2241.999999999767","resources/trios/L4T4A2.jpg","38","restless",0.5,0.9,0.3,0.0321772309993084,"true"
"image-keyboard-response",24,1941109,"0.0-3.4-1.4","b7k0oo8p8tle93a",877,"134.csv","","null","resources/maskTrios/BT4B.jpg","null","",NA,NA,NA,NA,""
"image-keyboard-response",25,1942311,"0.0-3.4-2.4","b7k0oo8p8tle93a",877,"134.csv","","null","resources/images/coin2.png","null","",NA,NA,NA,NA,""
"image-keyboard-response",26,1944384,"0.0-3.5-0.5","b7k0oo8p8tle93a",877,"134.csv","","2072","resources/trios/L1T1A3.jpg","37","restless",0.5,0.9,0.3,0.144694452655173,"true"
"image-keyboard-response",27,1944787,"0.0-3.5-1.5","b7k0oo8p8tle93a",877,"134.csv","","null","resources/maskTrios/L1BB.jpg","null","",NA,NA,NA,NA,""
"image-keyboard-response",28,1945989,"0.0-3.5-2.5","b7k0oo8p8tle93a",877,"134.csv","","null","resources/images/coin2.png","null","",NA,NA,NA,NA,""
"image-keyboard-response",29,1946964,"0.0-3.6-0.6","b7k0oo8p8tle93a",877,"134.csv","","974.0000000002328","resources/trios/L1T4A2.jpg","38","restless",0.5,0.9,0.3,0.468659673072891,"true"
"image-keyboard-response",30,1947366,"0.0-3.6-1.6","b7k0oo8p8tle93a",877,"134.csv","","null","resources/maskTrios/BT4B.jpg","null","",NA,NA,NA,NA,""
"image-keyboard-response",31,1948569,"0.0-3.6-2.6","b7k0oo8p8tle93a",877,"134.csv","","null","resources/images/coin2.png","null","",NA,NA,NA,NA,""
"image-keyboard-response",32,1949847,"0.0-3.7-0.7","b7k0oo8p8tle93a",877,"134.csv","","1275","resources/trios/L1T1A2.jpg","37","restless",0.5,0.8,0.3,0.293925000076552,"true"
"image-keyboard-response",33,1950249,"0.0-3.7-1.7","b7k0oo8p8tle93a",877,"134.csv","","null","resources/maskTrios/L1BB.jpg","null","",NA,NA,NA,NA,""
"image-keyboard-response",34,1951451,"0.0-3.7-2.7","b7k0oo8p8tle93a",877,"134.csv","","null","resources/images/coin2.png","null","",NA,NA,NA,NA,""
"image-keyboard-response",35,1952745,"0.0-3.8-0.8","b7k0oo8p8tle93a",877,"134.csv","","1292","resources/trios/L4T4A3.jpg","38","restless",0.5,0.8,0.3,0.788905401576168,"true"
"image-keyboard-response",36,1953147,"0.0-3.8-1.8","b7k0oo8p8tle93a",877,"134.csv","","null","resources/maskTrios/BT4B.jpg","null","",NA,NA,NA,NA,""
"image-keyboard-response",37,1954349,"0.0-3.8-2.8","b7k0oo8p8tle93a",877,"134.csv","","null","resources/images/coin2.png","null","",NA,NA,NA,NA,""
"image-keyboard-response",38,1955656,"0.0-3.9-0.9","b7k0oo8p8tle93a",877,"134.csv","","1306.0000000002328","resources/trios/L4T4A2.jpg","38","restless",0.5,0.8,0.3,0.918715129562089,"false"
"image-keyboard-response",39,1956058,"0.0-3.9-1.9","b7k0oo8p8tle93a",877,"134.csv","","null","resources/maskTrios/BT4B.jpg","null","",NA,NA,NA,NA,""
"image-keyboard-response",40,1957261,"0.0-3.9-2.9","b7k0oo8p8tle93a",877,"134.csv","","null","resources/images/fishbone.png","null","",NA,NA,NA,NA,""
"image-keyboard-response",41,1961130,"0.0-3.10-0.10","b7k0oo8p8tle93a",877,"134.csv","","3867.999999999767","resources/trios/L4T4A3.jpg","38","restless",0.5,0.8,0.3,0.285307453084075,"true"
"image-keyboard-response",42,1961532,"0.0-3.10-1.10","b7k0oo8p8tle93a",877,"134.csv","","null","resources/maskTrios/BT4B.jpg","null","",NA,NA,NA,NA,""
"image-keyboard-response",43,1962735,"0.0-3.10-2.10","b7k0oo8p8tle93a",877,"134.csv","","null","resources/images/coin2.png","null","",NA,NA,NA,NA,""
"image-keyboard-response",44,1963853,"0.0-3.11-0.11","b7k0oo8p8tle93a",877,"134.csv","","1117","resources/trios/L4T1A3.jpg","37","restless",0.6,0.8,0.2,0.157693066108338,"true"
"image-keyboard-response",45,1964255,"0.0-3.11-1.11","b7k0oo8p8tle93a",877,"134.csv","","null","resources/maskTrios/L4BB.jpg","null","",NA,NA,NA,NA,""
"image-keyboard-response",46,1965458,"0.0-3.11-2.11","b7k0oo8p8tle93a",877,"134.csv","","null","resources/images/coin2.png","null","",NA,NA,NA,NA,""
"image-keyboard-response",47,1966507,"0.0-3.12-0.12","b7k0oo8p8tle93a",877,"134.csv","","1047","resources/trios/L4T1A3.jpg","37","restless",0.6,0.8,0.2,0.256463467477373,"true"
"image-keyboard-response",48,1966909,"0.0-3.12-1.12","b7k0oo8p8tle93a",877,"134.csv","","null","resources/maskTrios/L4BB.jpg","null","",NA,NA,NA,NA,""
"image-keyboard-response",49,1968111,"0.0-3.12-2.12","b7k0oo8p8tle93a",877,"134.csv","","null","resources/images/coin2.png","null","",NA,NA,NA,NA,""
"image-keyboard-response",50,1970334,"0.0-3.13-0.13","b7k0oo8p8tle93a",877,"134.csv","","2220","resources/trios/L1T1A3.jpg","37","restless",0.6,0.8,0.2,0.485623321447885,"true"
"image-keyboard-response",51,1970736,"0.0-3.13-1.13","b7k0oo8p8tle93a",877,"134.csv","","null","resources/maskTrios/L1BB.jpg","null","",NA,NA,NA,NA,""
"image-keyboard-response",52,1971938,"0.0-3.13-2.13","b7k0oo8p8tle93a",877,"134.csv","","null","resources/images/coin2.png","null","",NA,NA,NA,NA,""
"image-keyboard-response",53,1973318,"0.0-3.14-0.14","b7k0oo8p8tle93a",877,"134.csv","","1379","resources/trios/L4T1A3.jpg","37","restless",0.6,0.8,0.2,0.473661225267308,"true"
"image-keyboard-response",54,1973720,"0.0-3.14-1.14","b7k0oo8p8tle93a",877,"134.csv","","null","resources/maskTrios/L4BB.jpg","null","",NA,NA,NA,NA,""
"image-keyboard-response",55,1974921,"0.0-3.14-2.14","b7k0oo8p8tle93a",877,"134.csv","","null","resources/images/coin2.png","null","",NA,NA,NA,NA,""
"image-keyboard-response",56,1975748,"0.0-3.15-0.15","b7k0oo8p8tle93a",877,"134.csv","","826","resources/trios/L4T4A3.jpg","38","restless",0.6,0.8,0.1,0.0189280887136345,"true"
"image-keyboard-response",57,1976151,"0.0-3.15-1.15","b7k0oo8p8tle93a",877,"134.csv","","null","resources/maskTrios/BT4B.jpg","null","",NA,NA,NA,NA,""
"image-keyboard-response",58,1977353,"0.0-3.15-2.15","b7k0oo8p8tle93a",877,"134.csv","","null","resources/images/coin2.png","null","",NA,NA,NA,NA,""
"image-keyboard-response",59,1978182,"0.0-3.16-0.16","b7k0oo8p8tle93a",877,"134.csv","","827","resources/trios/L1T4A3.jpg","38","restless",0.6,0.7,0.1,0.879282037294352,"false"
"image-keyboard-response",60,1978584,"0.0-3.16-1.16","b7k0oo8p8tle93a",877,"134.csv","","null","resources/maskTrios/BT4B.jpg","null","",NA,NA,NA,NA,""
"image-keyboard-response",61,1979786,"0.0-3.16-2.16","b7k0oo8p8tle93a",877,"134.csv","","null","resources/images/fishbone.png","null","",NA,NA,NA,NA,""
"image-keyboard-response",62,1980594,"0.0-3.17-0.17","b7k0oo8p8tle93a",877,"134.csv","","805","resources/trios/L1T1A2.jpg","37","restless",0.6,0.6,0.1,0.855345463932062,"false"
"image-keyboard-response",63,1980997,"0.0-3.17-1.17","b7k0oo8p8tle93a",877,"134.csv","","null","resources/maskTrios/L1BB.jpg","null","",NA,NA,NA,NA,""
"image-keyboard-response",64,1982199,"0.0-3.17-2.17","b7k0oo8p8tle93a",877,"134.csv","","null","resources/images/fishbone.png","null","",NA,NA,NA,NA,""
"image-keyboard-response",65,1984590,"0.0-3.18-0.18","b7k0oo8p8tle93a",877,"134.csv","","2390","resources/trios/L4T1A3.jpg","37","restless",0.5,0.6,0.1,0.686955478273859,"false"
"image-keyboard-response",66,1984993,"0.0-3.18-1.18","b7k0oo8p8tle93a",877,"134.csv","","null","resources/maskTrios/L4BB.jpg","null","",NA,NA,NA,NA,""
"image-keyboard-response",67,1986194,"0.0-3.18-2.18","b7k0oo8p8tle93a",877,"134.csv","","null","resources/images/fishbone.png","null","",NA,NA,NA,NA,""
"image-keyboard-response",68,1987916,"0.0-3.19-0.19","b7k0oo8p8tle93a",877,"134.csv","","1720.0000000002328","resources/trios/L4T1A3.jpg","39","restless",0.6,0.6,0.1,0.939622521244555,"false"
"image-keyboard-response",69,1988318,"0.0-3.19-1.19","b7k0oo8p8tle93a",877,"134.csv","","null","resources/maskTrios/BBA3.jpg","null","",NA,NA,NA,NA,""
"image-keyboard-response",70,1989520,"0.0-3.19-2.19","b7k0oo8p8tle93a",877,"134.csv","","null","resources/images/fishbone.png","null","",NA,NA,NA,NA,""
"image-keyboard-response",71,1990173,"0.0-3.20-0.20","b7k0oo8p8tle93a",877,"134.csv","","651.9999999997672","resources/trios/L1T4A3.jpg","38","restless",0.6,0.6,0.1,0.105909400747981,"true"
"image-keyboard-response",72,1990575,"0.0-3.20-1.20","b7k0oo8p8tle93a",877,"134.csv","","null","resources/maskTrios/BT4B.jpg","null","",NA,NA,NA,NA,""
"image-keyboard-response",73,1991777,"0.0-3.20-2.20","b7k0oo8p8tle93a",877,"134.csv","","null","resources/images/coin2.png","null","",NA,NA,NA,NA,""
"image-keyboard-response",74,1995406,"0.0-3.21-0.21","b7k0oo8p8tle93a",877,"134.csv","","3628.000000000233","resources/trios/L1T1A2.jpg","37","restless",0.6,0.7,0.1,0.835079453280878,"false"
"image-keyboard-response",75,1995808,"0.0-3.21-1.21","b7k0oo8p8tle93a",877,"134.csv","","null","resources/maskTrios/L1BB.jpg","null","",NA,NA,NA,NA,""
"image-keyboard-response",76,1997009,"0.0-3.21-2.21","b7k0oo8p8tle93a",877,"134.csv","","null","resources/images/fishbone.png","null","",NA,NA,NA,NA,""
"image-keyboard-response",77,1997916,"0.0-3.22-0.22","b7k0oo8p8tle93a",877,"134.csv","","904.9999999997672","resources/trios/L1T4A3.jpg","38","restless",0.6,0.6,0.1,0.0812502981079745,"true"
"image-keyboard-response",78,1998319,"0.0-3.22-1.22","b7k0oo8p8tle93a",877,"134.csv","","null","resources/maskTrios/BT4B.jpg","null","",NA,NA,NA,NA,""
"image-keyboard-response",79,1999522,"0.0-3.22-2.22","b7k0oo8p8tle93a",877,"134.csv","","null","resources/images/coin2.png","null","",NA,NA,NA,NA,""
"image-keyboard-response",80,2001081,"0.0-3.23-0.23","b7k0oo8p8tle93a",877,"134.csv","","1558","resources/trios/L1T1A3.jpg","39","restless",0.6,0.6,0.1,0.746180180888753,"false"
"image-keyboard-response",81,2001484,"0.0-3.23-1.23","b7k0oo8p8tle93a",877,"134.csv","","null","resources/maskTrios/BBA3.jpg","null","",NA,NA,NA,NA,""
"image-keyboard-response",82,2002686,"0.0-3.23-2.23","b7k0oo8p8tle93a",877,"134.csv","","null","resources/images/fishbone.png","null","",NA,NA,NA,NA,""
"image-keyboard-response",83,2003785,"0.0-3.24-0.24","b7k0oo8p8tle93a",877,"134.csv","","1097","resources/trios/L1T1A3.jpg","38","restless",0.6,0.6,0.2,0.594420250712483,"true"
"image-keyboard-response",84,2004187,"0.0-3.24-1.24","b7k0oo8p8tle93a",877,"134.csv","","null","resources/maskTrios/BT1B.jpg","null","",NA,NA,NA,NA,""
"image-keyboard-response",85,2005390,"0.0-3.24-2.24","b7k0oo8p8tle93a",877,"134.csv","","null","resources/images/coin2.png","null","",NA,NA,NA,NA,""
"image-keyboard-response",86,2006067,"0.0-3.25-0.25","b7k0oo8p8tle93a",877,"134.csv","","675","resources/trios/L4T1A2.jpg","38","restless",0.5,0.6,0.2,0.769304950961423,"false"
"image-keyboard-response",87,2006469,"0.0-3.25-1.25","b7k0oo8p8tle93a",877,"134.csv","","null","resources/maskTrios/BT1B.jpg","null","",NA,NA,NA,NA,""
"image-keyboard-response",88,2007670,"0.0-3.25-2.25","b7k0oo8p8tle93a",877,"134.csv","","null","resources/images/fishbone.png","null","",NA,NA,NA,NA,""
"image-keyboard-response",89,2008744,"0.0-3.26-0.26","b7k0oo8p8tle93a",877,"134.csv","","1072","resources/trios/L4T1A3.jpg","37","restless",0.5,0.6,0.2,0.315237610379461,"true"
"image-keyboard-response",90,2009146,"0.0-3.26-1.26","b7k0oo8p8tle93a",877,"134.csv","","null","resources/maskTrios/L4BB.jpg","null","",NA,NA,NA,NA,""
"image-keyboard-response",91,2010348,"0.0-3.26-2.26","b7k0oo8p8tle93a",877,"134.csv","","null","resources/images/coin2.png","null","",NA,NA,NA,NA,""
"image-keyboard-response",92,2010961,"0.0-3.27-0.27","b7k0oo8p8tle93a",877,"134.csv","","611","resources/trios/L4T4A2.jpg","38","restless",0.5,0.6,0.2,0.110735835294621,"true"
"image-keyboard-response",93,2011362,"0.0-3.27-1.27","b7k0oo8p8tle93a",877,"134.csv","","null","resources/maskTrios/BT4B.jpg","null","",NA,NA,NA,NA,""
"image-keyboard-response",94,2012565,"0.0-3.27-2.27","b7k0oo8p8tle93a",877,"134.csv","","null","resources/images/coin2.png","null","",NA,NA,NA,NA,""
"image-keyboard-response",95,2013556,"0.0-3.28-0.28","b7k0oo8p8tle93a",877,"134.csv","","988","resources/trios/L4T4A3.jpg","38","restless",0.5,0.6,0.2,0.90106337686143,"false"
"image-keyboard-response",96,2013959,"0.0-3.28-1.28","b7k0oo8p8tle93a",877,"134.csv","","null","resources/maskTrios/BT4B.jpg","null","",NA,NA,NA,NA,""
"image-keyboard-response",97,2015161,"0.0-3.28-2.28","b7k0oo8p8tle93a",877,"134.csv","","null","resources/images/fishbone.png","null","",NA,NA,NA,NA,""
"image-keyboard-response",98,2016242,"0.0-3.29-0.29","b7k0oo8p8tle93a",877,"134.csv","","1080.0000000002328","resources/trios/L1T4A3.jpg","37","restless",0.5,0.6,0.2,0.82303342494177,"false"
"image-keyboard-response",99,2016644,"0.0-3.29-1.29","b7k0oo8p8tle93a",877,"134.csv","","null","resources/maskTrios/L1BB.jpg","null","",NA,NA,NA,NA,""
"image-keyboard-response",100,2017846,"0.0-3.29-2.29","b7k0oo8p8tle93a",877,"134.csv","","null","resources/images/fishbone.png","null","",NA,NA,NA,NA,""
"image-keyboard-response",101,2018338,"0.0-3.30-0.30","b7k0oo8p8tle93a",877,"134.csv","","490","resources/trios/L4T4A3.jpg","38","restless",0.5,0.6,0.3,0.129610971091284,"true"
"image-keyboard-response",102,2018740,"0.0-3.30-1.30","b7k0oo8p8tle93a",877,"134.csv","","null","resources/maskTrios/BT4B.jpg","null","",NA,NA,NA,NA,""
"image-keyboard-response",103,2019942,"0.0-3.30-2.30","b7k0oo8p8tle93a",877,"134.csv","","null","resources/images/coin2.png","null","",NA,NA,NA,NA,""
"image-keyboard-response",104,2021774,"0.0-3.31-0.31","b7k0oo8p8tle93a",877,"134.csv","","1828.9999999997672","resources/trios/L1T1A3.jpg","38","restless",0.5,0.6,0.3,0.939001710303361,"false"
"image-keyboard-response",105,2022176,"0.0-3.31-1.31","b7k0oo8p8tle93a",877,"134.csv","","null","resources/maskTrios/BT1B.jpg","null","",NA,NA,NA,NA,""
"image-keyboard-response",106,2023378,"0.0-3.31-2.31","b7k0oo8p8tle93a",877,"134.csv","","null","resources/images/fishbone.png","null","",NA,NA,NA,NA,""
"image-keyboard-response",107,2024280,"0.0-3.32-0.32","b7k0oo8p8tle93a",877,"134.csv","","899","resources/trios/L4T4A2.jpg","38","restless",0.5,0.6,0.3,0.824918416212084,"false"
"image-keyboard-response",108,2024682,"0.0-3.32-1.32","b7k0oo8p8tle93a",877,"134.csv","","null","resources/maskTrios/BT4B.jpg","null","",NA,NA,NA,NA,""
"image-keyboard-response",109,2025884,"0.0-3.32-2.32","b7k0oo8p8tle93a",877,"134.csv","","null","resources/images/fishbone.png","null","",NA,NA,NA,NA,""
"image-keyboard-response",110,2026829,"0.0-3.33-0.33","b7k0oo8p8tle93a",877,"134.csv","","943.0000000002328","resources/trios/L1T4A3.jpg","38","restless",0.5,0.6,0.4,0.506201566565409,"true"
"image-keyboard-response",111,2027231,"0.0-3.33-1.33","b7k0oo8p8tle93a",877,"134.csv","","null","resources/maskTrios/BT4B.jpg","null","",NA,NA,NA,NA,""
"image-keyboard-response",112,2028434,"0.0-3.33-2.33","b7k0oo8p8tle93a",877,"134.csv","","null","resources/images/coin2.png","null","",NA,NA,NA,NA,""
"image-keyboard-response",113,2029814,"0.0-3.34-0.34","b7k0oo8p8tle93a",877,"134.csv","","1377.9999999997672","resources/trios/L4T1A3.jpg","37","restless",0.5,0.6,0.4,0.347486003071991,"true"
"image-keyboard-response",114,2030217,"0.0-3.34-1.34","b7k0oo8p8tle93a",877,"134.csv","","null","resources/maskTrios/L4BB.jpg","null","",NA,NA,NA,NA,""
"image-keyboard-response",115,2031419,"0.0-3.34-2.34","b7k0oo8p8tle93a",877,"134.csv","","null","resources/images/coin2.png","null","",NA,NA,NA,NA,""
"image-keyboard-response",116,2033483,"0.0-3.35-0.35","b7k0oo8p8tle93a",877,"134.csv","","2061","resources/trios/L1T1A3.jpg","37","restless",0.5,0.6,0.4,0.446282486095029,"true"
"image-keyboard-response",117,2033885,"0.0-3.35-1.35","b7k0oo8p8tle93a",877,"134.csv","","null","resources/maskTrios/L1BB.jpg","null","",NA,NA,NA,NA,""
"image-keyboard-response",118,2035087,"0.0-3.35-2.35","b7k0oo8p8tle93a",877,"134.csv","","null","resources/images/coin2.png","null","",NA,NA,NA,NA,""
"image-keyboard-response",119,2036046,"0.0-3.36-0.36","b7k0oo8p8tle93a",877,"134.csv","","956","resources/trios/L1T4A2.jpg","38","restless",0.6,0.6,0.4,0.15305513534138,"true"
"image-keyboard-response",120,2036448,"0.0-3.36-1.36","b7k0oo8p8tle93a",877,"134.csv","","null","resources/maskTrios/BT4B.jpg","null","",NA,NA,NA,NA,""
"image-keyboard-response",121,2037651,"0.0-3.36-2.36","b7k0oo8p8tle93a",877,"134.csv","","null","resources/images/coin2.png","null","",NA,NA,NA,NA,""
"image-keyboard-response",122,2039250,"0.0-3.37-0.37","b7k0oo8p8tle93a",877,"134.csv","","1597","resources/trios/L4T1A2.jpg","38","restless",0.6,0.6,0.4,0.790493112105986,"false"
"image-keyboard-response",123,2039653,"0.0-3.37-1.37","b7k0oo8p8tle93a",877,"134.csv","","null","resources/maskTrios/BT1B.jpg","null","",NA,NA,NA,NA,""
"image-keyboard-response",124,2040855,"0.0-3.37-2.37","b7k0oo8p8tle93a",877,"134.csv","","null","resources/images/fishbone.png","null","",NA,NA,NA,NA,""
"image-keyboard-response",125,2041700,"0.0-3.38-0.38","b7k0oo8p8tle93a",877,"134.csv","","844","resources/trios/L4T1A3.jpg","37","restless",0.6,0.6,0.4,0.752914560290627,"false"
"image-keyboard-response",126,2042102,"0.0-3.38-1.38","b7k0oo8p8tle93a",877,"134.csv","","null","resources/maskTrios/L4BB.jpg","null","",NA,NA,NA,NA,""
"image-keyboard-response",127,2043304,"0.0-3.38-2.38","b7k0oo8p8tle93a",877,"134.csv","","null","resources/images/fishbone.png","null","",NA,NA,NA,NA,""
"image-keyboard-response",128,2044556,"0.0-3.39-0.39","b7k0oo8p8tle93a",877,"134.csv","","1250","resources/trios/L1T1A3.jpg","37","restless",0.6,0.6,0.4,0.935657543451393,"false"
"image-keyboard-response",129,2044959,"0.0-3.39-1.39","b7k0oo8p8tle93a",877,"134.csv","","null","resources/maskTrios/L1BB.jpg","null","",NA,NA,NA,NA,""
"image-keyboard-response",130,2046161,"0.0-3.39-2.39","b7k0oo8p8tle93a",877,"134.csv","","null","resources/images/fishbone.png","null","",NA,NA,NA,NA,""
"image-keyboard-response",131,2047231,"0.0-3.40-0.40","b7k0oo8p8tle93a",877,"134.csv","","1069","resources/trios/L1T1A2.jpg","38","restless",0.6,0.6,0.4,0.142851077134932,"true"
"image-keyboard-response",132,2047633,"0.0-3.40-1.40","b7k0oo8p8tle93a",877,"134.csv","","null","resources/maskTrios/BT1B.jpg","null","",NA,NA,NA,NA,""
"image-keyboard-response",133,2048841,"0.0-3.40-2.40","b7k0oo8p8tle93a",877,"134.csv","","null","resources/images/coin2.png","null","",NA,NA,NA,NA,""
"image-keyboard-response",134,2050553,"0.0-3.41-0.41","b7k0oo8p8tle93a",877,"134.csv","","1709","resources/trios/L1T4A3.jpg","38","restless",0.6,0.6,0.4,0.114612608225587,"true"
"image-keyboard-response",135,2050955,"0.0-3.41-1.41","b7k0oo8p8tle93a",877,"134.csv","","null","resources/maskTrios/BT4B.jpg","null","",NA,NA,NA,NA,""
"image-keyboard-response",136,2052157,"0.0-3.41-2.41","b7k0oo8p8tle93a",877,"134.csv","","null","resources/images/coin2.png","null","",NA,NA,NA,NA,""
"image-keyboard-response",137,2056100,"0.0-3.42-0.42","b7k0oo8p8tle93a",877,"134.csv","","3940","resources/trios/L1T4A2.jpg","37","restless",0.7,0.6,0.4,0.245218426099617,"true"
"image-keyboard-response",138,2056501,"0.0-3.42-1.42","b7k0oo8p8tle93a",877,"134.csv","","null","resources/maskTrios/L1BB.jpg","null","",NA,NA,NA,NA,""
"image-keyboard-response",139,2057704,"0.0-3.42-2.42","b7k0oo8p8tle93a",877,"134.csv","","null","resources/images/coin2.png","null","",NA,NA,NA,NA,""
"image-keyboard-response",140,2058306,"0.0-3.43-0.43","b7k0oo8p8tle93a",877,"134.csv","","599.9999999997672","resources/trios/L4T4A2.jpg","38","restless",0.7,0.6,0.4,0.214857750930851,"true"
"image-keyboard-response",141,2058709,"0.0-3.43-1.43","b7k0oo8p8tle93a",877,"134.csv","","null","resources/maskTrios/BT4B.jpg","null","",NA,NA,NA,NA,""
"image-keyboard-response",142,2059913,"0.0-3.43-2.43","b7k0oo8p8tle93a",877,"134.csv","","null","resources/images/coin2.png","null","",NA,NA,NA,NA,""
"image-keyboard-response",143,2062213,"0.0-3.44-0.44","b7k0oo8p8tle93a",877,"134.csv","","2297","resources/trios/L1T1A2.jpg","37","restless",0.7,0.6,0.5,0.651168417067541,"true"
"image-keyboard-response",144,2062615,"0.0-3.44-1.44","b7k0oo8p8tle93a",877,"134.csv","","null","resources/maskTrios/L1BB.jpg","null","",NA,NA,NA,NA,""
"image-keyboard-response",145,2063820,"0.0-3.44-2.44","b7k0oo8p8tle93a",877,"134.csv","","null","resources/images/coin2.png","null","",NA,NA,NA,NA,""
"image-keyboard-response",146,2066531,"0.0-3.45-0.45","b7k0oo8p8tle93a",877,"134.csv","","2708.999999999767","resources/trios/L1T4A3.jpg","38","restless",0.7,0.6,0.5,0.327886143975287,"true"
"image-keyboard-response",147,2066933,"0.0-3.45-1.45","b7k0oo8p8tle93a",877,"134.csv","","null","resources/maskTrios/BT4B.jpg","null","",NA,NA,NA,NA,""
"image-keyboard-response",148,2068135,"0.0-3.45-2.45","b7k0oo8p8tle93a",877,"134.csv","","null","resources/images/coin2.png","null","",NA,NA,NA,NA,""
"image-keyboard-response",149,2070197,"0.0-3.46-0.46","b7k0oo8p8tle93a",877,"134.csv","","2060","resources/trios/L1T4A3.jpg","37","restless",0.7,0.6,0.5,0.579954062985775,"true"
"image-keyboard-response",150,2070600,"0.0-3.46-1.46","b7k0oo8p8tle93a",877,"134.csv","","null","resources/maskTrios/L1BB.jpg","null","",NA,NA,NA,NA,""
"image-keyboard-response",151,2071802,"0.0-3.46-2.46","b7k0oo8p8tle93a",877,"134.csv","","null","resources/images/coin2.png","null","",NA,NA,NA,NA,""
"image-keyboard-response",152,2073081,"0.0-3.47-0.47","b7k0oo8p8tle93a",877,"134.csv","","1275.9999999997672","resources/trios/L4T4A2.jpg","38","restless",0.6,0.6,0.5,0.819999306022489,"false"
"image-keyboard-response",153,2073483,"0.0-3.47-1.47","b7k0oo8p8tle93a",877,"134.csv","","null","resources/maskTrios/BT4B.jpg","null","",NA,NA,NA,NA,""
"image-keyboard-response",154,2074684,"0.0-3.47-2.47","b7k0oo8p8tle93a",877,"134.csv","","null","resources/images/fishbone.png","null","",NA,NA,NA,NA,""
"image-keyboard-response",155,2077434,"0.0-3.48-0.48","b7k0oo8p8tle93a",877,"134.csv","","2747.000000000233","resources/trios/L4T1A2.jpg","37","restless",0.6,0.6,0.5,0.822906002259432,"false"
"image-keyboard-response",156,2077836,"0.0-3.48-1.48","b7k0oo8p8tle93a",877,"134.csv","","null","resources/maskTrios/L4BB.jpg","null","",NA,NA,NA,NA,""
"image-keyboard-response",157,2079038,"0.0-3.48-2.48","b7k0oo8p8tle93a",877,"134.csv","","null","resources/images/fishbone.png","null","",NA,NA,NA,NA,""
"image-keyboard-response",158,2080821,"0.0-3.49-0.49","b7k0oo8p8tle93a",877,"134.csv","","1781","resources/trios/L1T4A2.jpg","37","restless",0.6,0.6,0.5,0.550287372614144,"true"
"image-keyboard-response",159,2081224,"0.0-3.49-1.49","b7k0oo8p8tle93a",877,"134.csv","","null","resources/maskTrios/L1BB.jpg","null","",NA,NA,NA,NA,""
"image-keyboard-response",160,2082426,"0.0-3.49-2.49","b7k0oo8p8tle93a",877,"134.csv","","null","resources/images/coin2.png","null","",NA,NA,NA,NA,""
"image-keyboard-response",161,2083515,"0.0-3.50-0.50","b7k0oo8p8tle93a",877,"134.csv","","1087","resources/trios/L4T1A3.jpg","38","restless",0.6,0.6,0.5,0.040385262974361,"true"
"image-keyboard-response",162,2083917,"0.0-3.50-1.50","b7k0oo8p8tle93a",877,"134.csv","","null","resources/maskTrios/BT1B.jpg","null","",NA,NA,NA,NA,""
"image-keyboard-response",163,2085119,"0.0-3.50-2.50","b7k0oo8p8tle93a",877,"134.csv","","null","resources/images/coin2.png","null","",NA,NA,NA,NA,""
"image-keyboard-response",164,2085852,"0.0-3.51-0.51","b7k0oo8p8tle93a",877,"134.csv","","732","resources/trios/L4T1A3.jpg","37","restless",0.6,0.6,0.5,0.653419634570262,"false"
"image-keyboard-response",165,2086255,"0.0-3.51-1.51","b7k0oo8p8tle93a",877,"134.csv","","null","resources/maskTrios/L4BB.jpg","null","",NA,NA,NA,NA,""
"image-keyboard-response",166,2087457,"0.0-3.51-2.51","b7k0oo8p8tle93a",877,"134.csv","","null","resources/images/fishbone.png","null","",NA,NA,NA,NA,""
"image-keyboard-response",167,2088489,"0.0-3.52-0.52","b7k0oo8p8tle93a",877,"134.csv","","1030.9999999997672","resources/trios/L1T4A2.jpg","38","restless",0.6,0.6,0.5,0.281669340581715,"true"
"image-keyboard-response",168,2088891,"0.0-3.52-1.52","b7k0oo8p8tle93a",877,"134.csv","","null","resources/maskTrios/BT4B.jpg","null","",NA,NA,NA,NA,""
"image-keyboard-response",169,2090093,"0.0-3.52-2.52","b7k0oo8p8tle93a",877,"134.csv","","null","resources/images/coin2.png","null","",NA,NA,NA,NA,""
"image-keyboard-response",170,2091171,"0.0-3.53-0.53","b7k0oo8p8tle93a",877,"134.csv","","1076","resources/trios/L4T1A3.jpg","38","restless",0.6,0.6,0.5,0.522677945046004,"true"
"image-keyboard-response",171,2091573,"0.0-3.53-1.53","b7k0oo8p8tle93a",877,"134.csv","","null","resources/maskTrios/BT1B.jpg","null","",NA,NA,NA,NA,""
"image-keyboard-response",172,2092775,"0.0-3.53-2.53","b7k0oo8p8tle93a",877,"134.csv","","null","resources/images/coin2.png","null","",NA,NA,NA,NA,""
"image-keyboard-response",173,2096725,"0.0-3.54-0.54","b7k0oo8p8tle93a",877,"134.csv","","3948","resources/trios/L4T4A2.jpg","38","restless",0.6,0.6,0.5,0.0812515980776426,"true"
"image-keyboard-response",174,2097129,"0.0-3.54-1.54","b7k0oo8p8tle93a",877,"134.csv","","null","resources/maskTrios/BT4B.jpg","null","",NA,NA,NA,NA,""
"image-keyboard-response",175,2098331,"0.0-3.54-2.54","b7k0oo8p8tle93a",877,"134.csv","","null","resources/images/coin2.png","null","",NA,NA,NA,NA,""
"image-keyboard-response",176,2099593,"0.0-3.55-0.55","b7k0oo8p8tle93a",877,"134.csv","","1259","resources/trios/L1T1A3.jpg","37","restless",0.6,0.6,0.5,0.556355487626513,"true"
"image-keyboard-response",177,2099996,"0.0-3.55-1.55","b7k0oo8p8tle93a",877,"134.csv","","null","resources/maskTrios/L1BB.jpg","null","",NA,NA,NA,NA,""
"image-keyboard-response",178,2101199,"0.0-3.55-2.55","b7k0oo8p8tle93a",877,"134.csv","","null","resources/images/coin2.png","null","",NA,NA,NA,NA,""
"image-keyboard-response",179,2103074,"0.0-3.56-0.56","b7k0oo8p8tle93a",877,"134.csv","","1871.9999999995343","resources/trios/L1T1A2.jpg","38","restless",0.6,0.6,0.5,0.724565908036532,"false"
"image-keyboard-response",180,2103476,"0.0-3.56-1.56","b7k0oo8p8tle93a",877,"134.csv","","null","resources/maskTrios/BT1B.jpg","null","",NA,NA,NA,NA,""
"image-keyboard-response",181,2104678,"0.0-3.56-2.56","b7k0oo8p8tle93a",877,"134.csv","","null","resources/images/fishbone.png","null","",NA,NA,NA,NA,""
"image-keyboard-response",182,2106258,"0.0-3.57-0.57","b7k0oo8p8tle93a",877,"134.csv","","1578","resources/trios/L1T4A2.jpg","37","restless",0.6,0.6,0.6,0.353929844304305,"true"
"image-keyboard-response",183,2106660,"0.0-3.57-1.57","b7k0oo8p8tle93a",877,"134.csv","","null","resources/maskTrios/L1BB.jpg","null","",NA,NA,NA,NA,""
"image-keyboard-response",184,2107863,"0.0-3.57-2.57","b7k0oo8p8tle93a",877,"134.csv","","null","resources/images/coin2.png","null","",NA,NA,NA,NA,""
"image-keyboard-response",185,2109113,"0.0-3.58-0.58","b7k0oo8p8tle93a",877,"134.csv","","1248","resources/trios/L1T1A3.jpg","38","restless",0.7,0.6,0.6,0.0986645452062744,"true"
"image-keyboard-response",186,2109514,"0.0-3.58-1.58","b7k0oo8p8tle93a",877,"134.csv","","null","resources/maskTrios/BT1B.jpg","null","",NA,NA,NA,NA,""
"image-keyboard-response",187,2110718,"0.0-3.58-2.58","b7k0oo8p8tle93a",877,"134.csv","","null","resources/images/coin2.png","null","",NA,NA,NA,NA,""
"image-keyboard-response",188,2112095,"0.0-3.59-0.59","b7k0oo8p8tle93a",877,"134.csv","","1375","resources/trios/L1T4A3.jpg","38","restless",0.7,0.6,0.6,0.77106947810466,"false"
"image-keyboard-response",189,2112496,"0.0-3.59-1.59","b7k0oo8p8tle93a",877,"134.csv","","null","resources/maskTrios/BT4B.jpg","null","",NA,NA,NA,NA,""
"image-keyboard-response",190,2113699,"0.0-3.59-2.59","b7k0oo8p8tle93a",877,"134.csv","","null","resources/images/fishbone.png","null","",NA,NA,NA,NA,""
"image-keyboard-response",191,2114407,"0.0-3.60-0.60","b7k0oo8p8tle93a",877,"134.csv","","704","resources/trios/L4T1A2.jpg","37","restless",0.7,0.6,0.6,0.546953163874429,"true"
"image-keyboard-response",192,2114810,"0.0-3.60-1.60","b7k0oo8p8tle93a",877,"134.csv","","null","resources/maskTrios/L4BB.jpg","null","",NA,NA,NA,NA,""
"image-keyboard-response",193,2116012,"0.0-3.60-2.60","b7k0oo8p8tle93a",877,"134.csv","","null","resources/images/coin2.png","null","",NA,NA,NA,NA,""
"image-keyboard-response",194,2116946,"0.0-3.61-0.61","b7k0oo8p8tle93a",877,"134.csv","","932","resources/trios/L4T1A2.jpg","38","restless",0.7,0.6,0.6,0.565890677231757,"true"
"image-keyboard-response",195,2117348,"0.0-3.61-1.61","b7k0oo8p8tle93a",877,"134.csv","","null","resources/maskTrios/BT1B.jpg","null","",NA,NA,NA,NA,""
"image-keyboard-response",196,2118550,"0.0-3.61-2.61","b7k0oo8p8tle93a",877,"134.csv","","null","resources/images/coin2.png","null","",NA,NA,NA,NA,""
"image-keyboard-response",197,2120822,"0.0-3.62-0.62","b7k0oo8p8tle93a",877,"134.csv","","2270","resources/trios/L1T1A2.jpg","38","restless",0.7,0.6,0.6,0.571714322611675,"true"
"image-keyboard-response",198,2121225,"0.0-3.62-1.62","b7k0oo8p8tle93a",877,"134.csv","","null","resources/maskTrios/BT1B.jpg","null","",NA,NA,NA,NA,""
"image-keyboard-response",199,2122427,"0.0-3.62-2.62","b7k0oo8p8tle93a",877,"134.csv","","null","resources/images/coin2.png","null","",NA,NA,NA,NA,""
"image-keyboard-response",200,2124237,"0.0-3.63-0.63","b7k0oo8p8tle93a",877,"134.csv","","1808","resources/trios/L4T1A2.jpg","37","restless",0.7,0.6,0.6,0.0601496275395343,"true"
"image-keyboard-response",201,2124639,"0.0-3.63-1.63","b7k0oo8p8tle93a",877,"134.csv","","null","resources/maskTrios/L4BB.jpg","null","",NA,NA,NA,NA,""
"image-keyboard-response",202,2125840,"0.0-3.63-2.63","b7k0oo8p8tle93a",877,"134.csv","","null","resources/images/coin2.png","null","",NA,NA,NA,NA,""
"image-keyboard-response",203,2127728,"0.0-3.64-0.64","b7k0oo8p8tle93a",877,"134.csv","","1880.9999999995343","resources/trios/L4T4A2.jpg","38","restless",0.7,0.6,0.6,0.929022373358399,"false"
"image-keyboard-response",204,2128130,"0.0-3.64-1.64","b7k0oo8p8tle93a",877,"134.csv","","null","resources/maskTrios/BT4B.jpg","null","",NA,NA,NA,NA,""
"image-keyboard-response",205,2129331,"0.0-3.64-2.64","b7k0oo8p8tle93a",877,"134.csv","","null","resources/images/fishbone.png","null","",NA,NA,NA,NA,""
"image-keyboard-response",206,2130013,"0.0-3.65-0.65","b7k0oo8p8tle93a",877,"134.csv","","681","resources/trios/L1T4A3.jpg","37","restless",0.7,0.5,0.5,0.774420055765675,"false"
"image-keyboard-response",207,2130415,"0.0-3.65-1.65","b7k0oo8p8tle93a",877,"134.csv","","null","resources/maskTrios/L1BB.jpg","null","",NA,NA,NA,NA,""
"image-keyboard-response",208,2131616,"0.0-3.65-2.65","b7k0oo8p8tle93a",877,"134.csv","","null","resources/images/fishbone.png","null","",NA,NA,NA,NA,""
"image-keyboard-response",209,2132550,"0.0-3.66-0.66","b7k0oo8p8tle93a",877,"134.csv","","930","resources/trios/L1T1A2.jpg","37","restless",0.7,0.5,0.5,0.4289107473065,"true"
"image-keyboard-response",210,2132952,"0.0-3.66-1.66","b7k0oo8p8tle93a",877,"134.csv","","null","resources/maskTrios/L1BB.jpg","null","",NA,NA,NA,NA,""
"image-keyboard-response",211,2134155,"0.0-3.66-2.66","b7k0oo8p8tle93a",877,"134.csv","","null","resources/images/coin2.png","null","",NA,NA,NA,NA,""
"image-keyboard-response",212,2134766,"0.0-3.67-0.67","b7k0oo8p8tle93a",877,"134.csv","","608","resources/trios/L1T4A2.jpg","38","restless",0.7,0.5,0.5,0.906169116347657,"false"
"image-keyboard-response",213,2135168,"0.0-3.67-1.67","b7k0oo8p8tle93a",877,"134.csv","","null","resources/maskTrios/BT4B.jpg","null","",NA,NA,NA,NA,""
"image-keyboard-response",214,2136370,"0.0-3.67-2.67","b7k0oo8p8tle93a",877,"134.csv","","null","resources/images/fishbone.png","null","",NA,NA,NA,NA,""
"image-keyboard-response",215,2137853,"0.0-3.68-0.68","b7k0oo8p8tle93a",877,"134.csv","","1482","resources/trios/L1T1A3.jpg","38","restless",0.7,0.5,0.5,0.946666162975801,"false"
"image-keyboard-response",216,2138256,"0.0-3.68-1.68","b7k0oo8p8tle93a",877,"134.csv","","null","resources/maskTrios/BT1B.jpg","null","",NA,NA,NA,NA,""
"image-keyboard-response",217,2139458,"0.0-3.68-2.68","b7k0oo8p8tle93a",877,"134.csv","","null","resources/images/fishbone.png","null","",NA,NA,NA,NA,""
"image-keyboard-response",218,2140452,"0.0-3.69-0.69","b7k0oo8p8tle93a",877,"134.csv","","991.0000000004657","resources/trios/L1T4A3.jpg","37","restless",0.7,0.5,0.5,0.952804921810694,"false"
"image-keyboard-response",219,2140854,"0.0-3.69-1.69","b7k0oo8p8tle93a",877,"134.csv","","null","resources/maskTrios/L1BB.jpg","null","",NA,NA,NA,NA,""
"image-keyboard-response",220,2142056,"0.0-3.69-2.69","b7k0oo8p8tle93a",877,"134.csv","","null","resources/images/fishbone.png","null","",NA,NA,NA,NA,""
"image-keyboard-response",221,2190636,"0.0-3.70-0.70","b7k0oo8p8tle93a",877,"134.csv","","48578","resources/trios/L1T1A2.jpg","37","restless",0.8,0.5,0.5,0.956665791933066,"false"
"image-keyboard-response",222,2191038,"0.0-3.70-1.70","b7k0oo8p8tle93a",877,"134.csv","","null","resources/maskTrios/L1BB.jpg","null","",NA,NA,NA,NA,""
"image-keyboard-response",223,2192240,"0.0-3.70-2.70","b7k0oo8p8tle93a",877,"134.csv","","null","resources/images/fishbone.png","null","",NA,NA,NA,NA,""
"image-keyboard-response",224,2200899,"0.0-3.71-0.71","b7k0oo8p8tle93a",877,"134.csv","","8658","resources/trios/L4T1A2.jpg","37","restless",0.8,0.5,0.5,0.329467811361939,"true"
"image-keyboard-response",225,2201301,"0.0-3.71-1.71","b7k0oo8p8tle93a",877,"134.csv","","null","resources/maskTrios/L4BB.jpg","null","",NA,NA,NA,NA,""
"image-keyboard-response",226,2202503,"0.0-3.71-2.71","b7k0oo8p8tle93a",877,"134.csv","","null","resources/images/coin2.png","null","",NA,NA,NA,NA,""
"image-keyboard-response",227,2211905,"0.0-3.72-0.72","b7k0oo8p8tle93a",877,"134.csv","","9400","resources/trios/L1T4A2.jpg","38","restless",0.8,0.5,0.5,0.0217680999702998,"true"
"image-keyboard-response",228,2212307,"0.0-3.72-1.72","b7k0oo8p8tle93a",877,"134.csv","","null","resources/maskTrios/BT4B.jpg","null","",NA,NA,NA,NA,""
"image-keyboard-response",229,2213510,"0.0-3.72-2.72","b7k0oo8p8tle93a",877,"134.csv","","null","resources/images/coin2.png","null","",NA,NA,NA,NA,""
"image-keyboard-response",230,2221916,"0.0-3.73-0.73","b7k0oo8p8tle93a",877,"134.csv","","8404","resources/trios/L4T4A2.jpg","38","restless",0.8,0.5,0.5,0.231408385136639,"true"
"image-keyboard-response",231,2222318,"0.0-3.73-1.73","b7k0oo8p8tle93a",877,"134.csv","","null","resources/maskTrios/BT4B.jpg","null","",NA,NA,NA,NA,""
"image-keyboard-response",232,2223521,"0.0-3.73-2.73","b7k0oo8p8tle93a",877,"134.csv","","null","resources/images/coin2.png","null","",NA,NA,NA,NA,""
"image-keyboard-response",233,2257020,"0.0-3.74-0.74","b7k0oo8p8tle93a",877,"134.csv","","33497","resources/trios/L4T4A3.jpg","37","restless",0.8,0.5,0.5,0.0986760807525392,"true"
"image-keyboard-response",234,2257422,"0.0-3.74-1.74","b7k0oo8p8tle93a",877,"134.csv","","null","resources/maskTrios/L4BB.jpg","null","",NA,NA,NA,NA,""
"image-keyboard-response",235,2258624,"0.0-3.74-2.74","b7k0oo8p8tle93a",877,"134.csv","","null","resources/images/coin2.png","null","",NA,NA,NA,NA,""
"image-keyboard-response",236,2263543,"0.0-3.75-0.75","b7k0oo8p8tle93a",877,"134.csv","","4916","resources/trios/L4T4A3.jpg","37","restless",0.8,0.5,0.5,0.366395264029987,"true"
"image-keyboard-response",237,2263947,"0.0-3.75-1.75","b7k0oo8p8tle93a",877,"134.csv","","null","resources/maskTrios/L4BB.jpg","null","",NA,NA,NA,NA,""
"image-keyboard-response",238,2265149,"0.0-3.75-2.75","b7k0oo8p8tle93a",877,"134.csv","","null","resources/images/coin2.png","null","",NA,NA,NA,NA,""
"image-keyboard-response",239,2267204,"0.0-3.76-0.76","b7k0oo8p8tle93a",877,"134.csv","","2053","resources/trios/L1T1A3.jpg","38","restless",0.8,0.5,0.5,0.146281709064905,"true"
"image-keyboard-response",240,2267606,"0.0-3.76-1.76","b7k0oo8p8tle93a",877,"134.csv","","null","resources/maskTrios/BT1B.jpg","null","",NA,NA,NA,NA,""
"image-keyboard-response",241,2268809,"0.0-3.76-2.76","b7k0oo8p8tle93a",877,"134.csv","","null","resources/images/coin2.png","null","",NA,NA,NA,NA,""
"image-keyboard-response",242,2269873,"0.0-3.77-0.77","b7k0oo8p8tle93a",877,"134.csv","","1062","resources/trios/L1T1A3.jpg","38","restless",0.8,0.5,0.5,0.133758326160969,"true"
"image-keyboard-response",243,2270275,"0.0-3.77-1.77","b7k0oo8p8tle93a",877,"134.csv","","null","resources/maskTrios/BT1B.jpg","null","",NA,NA,NA,NA,""
"image-keyboard-response",244,2271477,"0.0-3.77-2.77","b7k0oo8p8tle93a",877,"134.csv","","null","resources/images/coin2.png","null","",NA,NA,NA,NA,""
"image-keyboard-response",245,2272513,"0.0-3.78-0.78","b7k0oo8p8tle93a",877,"134.csv","","1032","resources/trios/L4T1A2.jpg","37","restless",0.8,0.5,0.5,0.941224502216918,"false"
"image-keyboard-response",246,2272914,"0.0-3.78-1.78","b7k0oo8p8tle93a",877,"134.csv","","null","resources/maskTrios/L4BB.jpg","null","",NA,NA,NA,NA,""
"image-keyboard-response",247,2274116,"0.0-3.78-2.78","b7k0oo8p8tle93a",877,"134.csv","","null","resources/images/fishbone.png","null","",NA,NA,NA,NA,""
"image-keyboard-response",248,2274731,"0.0-3.79-0.79","b7k0oo8p8tle93a",877,"134.csv","","614","resources/trios/L4T4A2.jpg","38","restless",0.8,0.5,0.5,0.748088961982288,"false"
"image-keyboard-response",249,2275134,"0.0-3.79-1.79","b7k0oo8p8tle93a",877,"134.csv","","null","resources/maskTrios/BT4B.jpg","null","",NA,NA,NA,NA,""
"image-keyboard-response",250,2276336,"0.0-3.79-2.79","b7k0oo8p8tle93a",877,"134.csv","","null","resources/images/fishbone.png","null","",NA,NA,NA,NA,""
"image-keyboard-response",251,2277340,"0.0-3.80-0.80","b7k0oo8p8tle93a",877,"134.csv","","999","resources/trios/L4T4A3.jpg","37","restless",0.8,0.5,0.5,0.192651930126141,"true"
"image-keyboard-response",252,2277743,"0.0-3.80-1.80","b7k0oo8p8tle93a",877,"134.csv","","null","resources/maskTrios/L4BB.jpg","null","",NA,NA,NA,NA,""
"image-keyboard-response",253,2278945,"0.0-3.80-2.80","b7k0oo8p8tle93a",877,"134.csv","","null","resources/images/coin2.png","null","",NA,NA,NA,NA,""
"image-keyboard-response",254,2281524,"0.0-3.81-0.81","b7k0oo8p8tle93a",877,"134.csv","","2577","resources/trios/L4T4A2.jpg","38","restless",0.8,0.5,0.5,0.0779114960374104,"true"
"image-keyboard-response",255,2281926,"0.0-3.81-1.81","b7k0oo8p8tle93a",877,"134.csv","","null","resources/maskTrios/BT4B.jpg","null","",NA,NA,NA,NA,""
"image-keyboard-response",256,2283128,"0.0-3.81-2.81","b7k0oo8p8tle93a",877,"134.csv","","null","resources/images/coin2.png","null","",NA,NA,NA,NA,""
"image-keyboard-response",257,2286292,"0.0-3.82-0.82","b7k0oo8p8tle93a",877,"134.csv","","3162","resources/trios/L4T4A3.jpg","37","restless",0.8,0.5,0.5,0.43556383062474,"true"
"image-keyboard-response",258,2286694,"0.0-3.82-1.82","b7k0oo8p8tle93a",877,"134.csv","","null","resources/maskTrios/L4BB.jpg","null","",NA,NA,NA,NA,""
"image-keyboard-response",259,2287896,"0.0-3.82-2.82","b7k0oo8p8tle93a",877,"134.csv","","null","resources/images/coin2.png","null","",NA,NA,NA,NA,""
"image-keyboard-response",260,2290678,"0.0-3.83-0.83","b7k0oo8p8tle93a",877,"134.csv","","2780","resources/trios/L4T4A3.jpg","38","restless",0.8,0.5,0.5,0.993534970978667,"false"
"image-keyboard-response",261,2291082,"0.0-3.83-1.83","b7k0oo8p8tle93a",877,"134.csv","","null","resources/maskTrios/BT4B.jpg","null","",NA,NA,NA,NA,""
"image-keyboard-response",262,2292284,"0.0-3.83-2.83","b7k0oo8p8tle93a",877,"134.csv","","null","resources/images/fishbone.png","null","",NA,NA,NA,NA,""
"image-keyboard-response",263,2292951,"0.0-3.84-0.84","b7k0oo8p8tle93a",877,"134.csv","","664.9999999995343","resources/trios/L4T4A2.jpg","37","restless",0.8,0.5,0.5,0.371971533485939,"true"
"image-keyboard-response",264,2293354,"0.0-3.84-1.84","b7k0oo8p8tle93a",877,"134.csv","","null","resources/maskTrios/L4BB.jpg","null","",NA,NA,NA,NA,""
"image-keyboard-response",265,2294556,"0.0-3.84-2.84","b7k0oo8p8tle93a",877,"134.csv","","null","resources/images/coin2.png","null","",NA,NA,NA,NA,""
"image-keyboard-response",266,2295406,"0.0-3.85-0.85","b7k0oo8p8tle93a",877,"134.csv","","848","resources/trios/L1T4A2.jpg","37","restless",0.8,0.5,0.5,0.944473342040101,"false"
"image-keyboard-response",267,2295808,"0.0-3.85-1.85","b7k0oo8p8tle93a",877,"134.csv","","null","resources/maskTrios/L1BB.jpg","null","",NA,NA,NA,NA,""
"image-keyboard-response",268,2297010,"0.0-3.85-2.85","b7k0oo8p8tle93a",877,"134.csv","","null","resources/images/fishbone.png","null","",NA,NA,NA,NA,""
"image-keyboard-response",269,2297668,"0.0-3.86-0.86","b7k0oo8p8tle93a",877,"134.csv","","656","resources/trios/L4T4A3.jpg","38","restless",0.9,0.5,0.5,0.289401590408931,"true"
"image-keyboard-response",270,2298070,"0.0-3.86-1.86","b7k0oo8p8tle93a",877,"134.csv","","null","resources/maskTrios/BT4B.jpg","null","",NA,NA,NA,NA,""
"image-keyboard-response",271,2299273,"0.0-3.86-2.86","b7k0oo8p8tle93a",877,"134.csv","","null","resources/images/coin2.png","null","",NA,NA,NA,NA,""
"image-keyboard-response",272,2300869,"0.0-3.87-0.87","b7k0oo8p8tle93a",877,"134.csv","","1594","resources/trios/L4T4A3.jpg","38","restless",0.9,0.5,0.5,0.76259335322355,"false"
"image-keyboard-response",273,2301271,"0.0-3.87-1.87","b7k0oo8p8tle93a",877,"134.csv","","null","resources/maskTrios/BT4B.jpg","null","",NA,NA,NA,NA,""
"image-keyboard-response",274,2302472,"0.0-3.87-2.87","b7k0oo8p8tle93a",877,"134.csv","","null","resources/images/fishbone.png","null","",NA,NA,NA,NA,""
"image-keyboard-response",275,2303423,"0.0-3.88-0.88","b7k0oo8p8tle93a",877,"134.csv","","949","resources/trios/L1T1A3.jpg","37","restless",0.9,0.5,0.5,0.736170504920534,"true"
"image-keyboard-response",276,2303825,"0.0-3.88-1.88","b7k0oo8p8tle93a",877,"134.csv","","null","resources/maskTrios/L1BB.jpg","null","",NA,NA,NA,NA,""
"image-keyboard-response",277,2305027,"0.0-3.88-2.88","b7k0oo8p8tle93a",877,"134.csv","","null","resources/images/coin2.png","null","",NA,NA,NA,NA,""
"image-keyboard-response",278,2308669,"0.0-3.89-0.89","b7k0oo8p8tle93a",877,"134.csv","","3640","resources/trios/L1T4A2.jpg","38","restless",0.9,0.5,0.5,0.152731164458489,"true"
"image-keyboard-response",279,2309074,"0.0-3.89-1.89","b7k0oo8p8tle93a",877,"134.csv","","null","resources/maskTrios/BT4B.jpg","null","",NA,NA,NA,NA,""
"image-keyboard-response",280,2310275,"0.0-3.89-2.89","b7k0oo8p8tle93a",877,"134.csv","","null","resources/images/coin2.png","null","",NA,NA,NA,NA,""
"image-keyboard-response",281,2312130,"0.0-3.90-0.90","b7k0oo8p8tle93a",877,"134.csv","","1849.9999999995343","resources/trios/L1T1A3.jpg","39","restless",0.9,0.5,0.5,0.241524027516945,"true"
"image-keyboard-response",282,2312532,"0.0-3.90-1.90","b7k0oo8p8tle93a",877,"134.csv","","null","resources/maskTrios/BBA3.jpg","null","",NA,NA,NA,NA,""
"image-keyboard-response",283,2313735,"0.0-3.90-2.90","b7k0oo8p8tle93a",877,"134.csv","","null","resources/images/coin2.png","null","",NA,NA,NA,NA,""
"image-keyboard-response",284,2319067,"0.0-3.91-0.91","b7k0oo8p8tle93a",877,"134.csv","","5329.999999999534","resources/trios/L1T4A2.jpg","38","restless",0.9,0.5,0.5,0.00982560312036407,"true"
"image-keyboard-response",285,2319469,"0.0-3.91-1.91","b7k0oo8p8tle93a",877,"134.csv","","null","resources/maskTrios/BT4B.jpg","null","",NA,NA,NA,NA,""
"image-keyboard-response",286,2320671,"0.0-3.91-2.91","b7k0oo8p8tle93a",877,"134.csv","","null","resources/images/coin2.png","null","",NA,NA,NA,NA,""
"image-keyboard-response",287,2322851,"0.0-3.92-0.92","b7k0oo8p8tle93a",877,"134.csv","","2178","resources/trios/L4T4A2.jpg","37","restless",0.9,0.5,0.5,0.313888423701948,"true"
"image-keyboard-response",288,2323255,"0.0-3.92-1.92","b7k0oo8p8tle93a",877,"134.csv","","null","resources/maskTrios/L4BB.jpg","null","",NA,NA,NA,NA,""
"image-keyboard-response",289,2324457,"0.0-3.92-2.92","b7k0oo8p8tle93a",877,"134.csv","","null","resources/images/coin2.png","null","",NA,NA,NA,NA,""
"image-keyboard-response",290,2325189,"0.0-3.93-0.93","b7k0oo8p8tle93a",877,"134.csv","","730","resources/trios/L4T4A3.jpg","39","restless",0.9,0.5,0.5,0.660936974890548,"false"
"image-keyboard-response",291,2325590,"0.0-3.93-1.93","b7k0oo8p8tle93a",877,"134.csv","","null","resources/maskTrios/BBA3.jpg","null","",NA,NA,NA,NA,""
"image-keyboard-response",292,2326792,"0.0-3.93-2.93","b7k0oo8p8tle93a",877,"134.csv","","null","resources/images/fishbone.png","null","",NA,NA,NA,NA,""
"image-keyboard-response",293,2327349,"0.0-3.94-0.94","b7k0oo8p8tle93a",877,"134.csv","","556","resources/trios/L4T1A2.jpg","38","restless",0.9,0.4,0.5,0.132088867057925,"true"
"image-keyboard-response",294,2327752,"0.0-3.94-1.94","b7k0oo8p8tle93a",877,"134.csv","","null","resources/maskTrios/BT1B.jpg","null","",NA,NA,NA,NA,""
"image-keyboard-response",295,2328954,"0.0-3.94-2.94","b7k0oo8p8tle93a",877,"134.csv","","null","resources/images/coin2.png","null","",NA,NA,NA,NA,""
"image-keyboard-response",296,2329889,"0.0-3.95-0.95","b7k0oo8p8tle93a",877,"134.csv","","929","resources/trios/L1T1A3.jpg","37","restless",0.9,0.4,0.5,0.158384865556659,"true"
"image-keyboard-response",297,2330291,"0.0-3.95-1.95","b7k0oo8p8tle93a",877,"134.csv","","null","resources/maskTrios/L1BB.jpg","null","",NA,NA,NA,NA,""
"image-keyboard-response",298,2331493,"0.0-3.95-2.95","b7k0oo8p8tle93a",877,"134.csv","","null","resources/images/coin2.png","null","",NA,NA,NA,NA,""
"image-keyboard-response",299,2332153,"0.0-3.96-0.96","b7k0oo8p8tle93a",877,"134.csv","","659","resources/trios/L4T4A2.jpg","38","restless",0.9,0.4,0.5,0.101278966112498,"true"
"image-keyboard-response",300,2332555,"0.0-3.96-1.96","b7k0oo8p8tle93a",877,"134.csv","","null","resources/maskTrios/BT4B.jpg","null","",NA,NA,NA,NA,""
"image-keyboard-response",301,2333758,"0.0-3.96-2.96","b7k0oo8p8tle93a",877,"134.csv","","null","resources/images/coin2.png","null","",NA,NA,NA,NA,""
"image-keyboard-response",302,2336069,"0.0-3.97-0.97","b7k0oo8p8tle93a",877,"134.csv","","2310","resources/trios/L1T4A2.jpg","39","restless",0.9,0.4,0.5,0.594679194128533,"false"
"image-keyboard-response",303,2336471,"0.0-3.97-1.97","b7k0oo8p8tle93a",877,"134.csv","","null","resources/maskTrios/BBA2.jpg","null","",NA,NA,NA,NA,""
"image-keyboard-response",304,2337673,"0.0-3.97-2.97","b7k0oo8p8tle93a",877,"134.csv","","null","resources/images/fishbone.png","null","",NA,NA,NA,NA,""
"image-keyboard-response",305,2338620,"0.0-3.98-0.98","b7k0oo8p8tle93a",877,"134.csv","","944","resources/trios/L4T4A2.jpg","38","restless",0.9,0.4,0.5,0.684227405812563,"false"
"image-keyboard-response",306,2339022,"0.0-3.98-1.98","b7k0oo8p8tle93a",877,"134.csv","","null","resources/maskTrios/BT4B.jpg","null","",NA,NA,NA,NA,""
"image-keyboard-response",307,2340223,"0.0-3.98-2.98","b7k0oo8p8tle93a",877,"134.csv","","null","resources/images/fishbone.png","null","",NA,NA,NA,NA,""
"image-keyboard-response",308,2340709,"0.0-3.99-0.99","b7k0oo8p8tle93a",877,"134.csv","","480.99999999953434","resources/trios/L4T1A2.jpg","37","restless",0.8,0.3,0.5,0.67845254011744,"true"
"image-keyboard-response",309,2341110,"0.0-3.99-1.99","b7k0oo8p8tle93a",877,"134.csv","","null","resources/maskTrios/L4BB.jpg","null","",NA,NA,NA,NA,""
"image-keyboard-response",310,2342312,"0.0-3.99-2.99","b7k0oo8p8tle93a",877,"134.csv","","null","resources/images/coin2.png","null","",NA,NA,NA,NA,""
"image-keyboard-response",311,2344139,"0.0-3.100-0.100","b7k0oo8p8tle93a",877,"134.csv","","1823.9999999995343","resources/trios/L4T4A2.jpg","38","restless",0.8,0.3,0.6,0.940675089994427,"false"
"image-keyboard-response",312,2344542,"0.0-3.100-1.100","b7k0oo8p8tle93a",877,"134.csv","","null","resources/maskTrios/BT4B.jpg","null","",NA,NA,NA,NA,""
"image-keyboard-response",313,2345744,"0.0-3.100-2.100","b7k0oo8p8tle93a",877,"134.csv","","null","resources/images/fishbone.png","null","",NA,NA,NA,NA,""
"image-keyboard-response",314,2346788,"0.0-3.101-0.101","b7k0oo8p8tle93a",877,"134.csv","","1042","resources/trios/L1T4A2.jpg","37","restless",0.9,0.3,0.6,0.373227764288475,"true"
"image-keyboard-response",315,2347191,"0.0-3.101-1.101","b7k0oo8p8tle93a",877,"134.csv","","null","resources/maskTrios/L1BB.jpg","null","",NA,NA,NA,NA,""
"image-keyboard-response",316,2348393,"0.0-3.101-2.101","b7k0oo8p8tle93a",877,"134.csv","","null","resources/images/coin2.png","null","",NA,NA,NA,NA,""
"image-keyboard-response",317,2351248,"0.0-3.102-0.102","b7k0oo8p8tle93a",877,"134.csv","","2853","resources/trios/L4T1A3.jpg","37","restless",0.8,0.3,0.6,0.123141244487316,"true"
"image-keyboard-response",318,2351651,"0.0-3.102-1.102","b7k0oo8p8tle93a",877,"134.csv","","null","resources/maskTrios/L4BB.jpg","null","",NA,NA,NA,NA,""
"image-keyboard-response",319,2352853,"0.0-3.102-2.102","b7k0oo8p8tle93a",877,"134.csv","","null","resources/images/coin2.png","null","",NA,NA,NA,NA,""
"image-keyboard-response",320,2353947,"0.0-3.103-0.103","b7k0oo8p8tle93a",877,"134.csv","","1090","resources/trios/L1T1A3.jpg","38","restless",0.8,0.3,0.6,0.281775404020969,"true"
"image-keyboard-response",321,2354349,"0.0-3.103-1.103","b7k0oo8p8tle93a",877,"134.csv","","null","resources/maskTrios/BT1B.jpg","null","",NA,NA,NA,NA,""
"image-keyboard-response",322,2355551,"0.0-3.103-2.103","b7k0oo8p8tle93a",877,"134.csv","","null","resources/images/coin2.png","null","",NA,NA,NA,NA,""
"image-keyboard-response",323,2368514,"0.0-3.104-0.104","b7k0oo8p8tle93a",877,"134.csv","","12961","resources/trios/L1T4A3.jpg","38","restless",0.8,0.3,0.6,0.972997451571692,"false"
"image-keyboard-response",324,2368917,"0.0-3.104-1.104","b7k0oo8p8tle93a",877,"134.csv","","null","resources/maskTrios/BT4B.jpg","null","",NA,NA,NA,NA,""
"image-keyboard-response",325,2370118,"0.0-3.104-2.104","b7k0oo8p8tle93a",877,"134.csv","","null","resources/images/fishbone.png","null","",NA,NA,NA,NA,""
"image-keyboard-response",326,2370665,"0.0-3.105-0.105","b7k0oo8p8tle93a",877,"134.csv","","544","resources/trios/L4T1A3.jpg","37","restless",0.8,0.3,0.6,0.0589746448286408,"true"
"image-keyboard-response",327,2371067,"0.0-3.105-1.105","b7k0oo8p8tle93a",877,"134.csv","","null","resources/maskTrios/L4BB.jpg","null","",NA,NA,NA,NA,""
"image-keyboard-response",328,2372270,"0.0-3.105-2.105","b7k0oo8p8tle93a",877,"134.csv","","null","resources/images/coin2.png","null","",NA,NA,NA,NA,""
"image-keyboard-response",329,2375595,"0.0-3.106-0.106","b7k0oo8p8tle93a",877,"134.csv","","3323","resources/trios/L4T4A3.jpg","39","restless",0.8,0.3,0.6,0.913285457202999,"false"
"image-keyboard-response",330,2375998,"0.0-3.106-1.106","b7k0oo8p8tle93a",877,"134.csv","","null","resources/maskTrios/BBA3.jpg","null","",NA,NA,NA,NA,""
"image-keyboard-response",331,2377199,"0.0-3.106-2.106","b7k0oo8p8tle93a",877,"134.csv","","null","resources/images/fishbone.png","null","",NA,NA,NA,NA,""
"image-keyboard-response",332,2378149,"0.0-3.107-0.107","b7k0oo8p8tle93a",877,"134.csv","","948","resources/trios/L1T4A2.jpg","37","restless",0.8,0.3,0.7,0.372102465562929,"true"
"image-keyboard-response",333,2378551,"0.0-3.107-1.107","b7k0oo8p8tle93a",877,"134.csv","","null","resources/maskTrios/L1BB.jpg","null","",NA,NA,NA,NA,""
"image-keyboard-response",334,2379754,"0.0-3.107-2.107","b7k0oo8p8tle93a",877,"134.csv","","null","resources/images/coin2.png","null","",NA,NA,NA,NA,""
"image-keyboard-response",335,2380542,"0.0-3.108-0.108","b7k0oo8p8tle93a",877,"134.csv","","785.9999999995343","resources/trios/L4T4A3.jpg","38","restless",0.8,0.3,0.7,0.735144517190996,"false"
"image-keyboard-response",336,2380944,"0.0-3.108-1.108","b7k0oo8p8tle93a",877,"134.csv","","null","resources/maskTrios/BT4B.jpg","null","",NA,NA,NA,NA,""
"image-keyboard-response",337,2382149,"0.0-3.108-2.108","b7k0oo8p8tle93a",877,"134.csv","","null","resources/images/fishbone.png","null","",NA,NA,NA,NA,""
"image-keyboard-response",338,2383523,"0.0-3.109-0.109","b7k0oo8p8tle93a",877,"134.csv","","1371.9999999995343","resources/trios/L4T1A3.jpg","38","restless",0.8,0.3,0.7,0.388998065557294,"false"
"image-keyboard-response",339,2383926,"0.0-3.109-1.109","b7k0oo8p8tle93a",877,"134.csv","","null","resources/maskTrios/BT1B.jpg","null","",NA,NA,NA,NA,""
"image-keyboard-response",340,2385128,"0.0-3.109-2.109","b7k0oo8p8tle93a",877,"134.csv","","null","resources/images/fishbone.png","null","",NA,NA,NA,NA,""
"image-keyboard-response",341,2385603,"0.0-3.110-0.110","b7k0oo8p8tle93a",877,"134.csv","","473","resources/trios/L4T1A3.jpg","37","restless",0.8,0.4,0.7,0.167920813284573,"true"
"image-keyboard-response",342,2386005,"0.0-3.110-1.110","b7k0oo8p8tle93a",877,"134.csv","","null","resources/maskTrios/L4BB.jpg","null","",NA,NA,NA,NA,""
"image-keyboard-response",343,2387208,"0.0-3.110-2.110","b7k0oo8p8tle93a",877,"134.csv","","null","resources/images/coin2.png","null","",NA,NA,NA,NA,""
"image-keyboard-response",344,2387811,"0.0-3.111-0.111","b7k0oo8p8tle93a",877,"134.csv","","601","resources/trios/L1T1A2.jpg","37","restless",0.8,0.4,0.7,0.173464336580592,"true"
"image-keyboard-response",345,2388214,"0.0-3.111-1.111","b7k0oo8p8tle93a",877,"134.csv","","null","resources/maskTrios/L1BB.jpg","null","",NA,NA,NA,NA,""
"image-keyboard-response",346,2389416,"0.0-3.111-2.111","b7k0oo8p8tle93a",877,"134.csv","","null","resources/images/coin2.png","null","",NA,NA,NA,NA,""
"image-keyboard-response",347,2390331,"0.0-3.112-0.112","b7k0oo8p8tle93a",877,"134.csv","","913","resources/trios/L4T4A2.jpg","39","restless",0.8,0.4,0.7,0.754259123427281,"false"
"image-keyboard-response",348,2390733,"0.0-3.112-1.112","b7k0oo8p8tle93a",877,"134.csv","","null","resources/maskTrios/BBA2.jpg","null","",NA,NA,NA,NA,""
"image-keyboard-response",349,2391935,"0.0-3.112-2.112","b7k0oo8p8tle93a",877,"134.csv","","null","resources/images/fishbone.png","null","",NA,NA,NA,NA,""
"image-keyboard-response",350,2392603,"0.0-3.113-0.113","b7k0oo8p8tle93a",877,"134.csv","","666","resources/trios/L1T1A2.jpg","38","restless",0.8,0.4,0.7,0.521475783876562,"false"
"image-keyboard-response",351,2393005,"0.0-3.113-1.113","b7k0oo8p8tle93a",877,"134.csv","","null","resources/maskTrios/BT1B.jpg","null","",NA,NA,NA,NA,""
"image-keyboard-response",352,2394207,"0.0-3.113-2.113","b7k0oo8p8tle93a",877,"134.csv","","null","resources/images/fishbone.png","null","",NA,NA,NA,NA,""
"image-keyboard-response",353,2394593,"0.0-3.114-0.114","b7k0oo8p8tle93a",877,"134.csv","","384.00000000046566","resources/trios/L4T1A3.jpg","37","restless",0.8,0.3,0.7,0.20786838650249,"true"
"image-keyboard-response",354,2394995,"0.0-3.114-1.114","b7k0oo8p8tle93a",877,"134.csv","","null","resources/maskTrios/L4BB.jpg","null","",NA,NA,NA,NA,""
"image-keyboard-response",355,2396197,"0.0-3.114-2.114","b7k0oo8p8tle93a",877,"134.csv","","null","resources/images/coin2.png","null","",NA,NA,NA,NA,""
"image-keyboard-response",356,2397815,"0.0-3.115-0.115","b7k0oo8p8tle93a",877,"134.csv","","1616","resources/trios/L4T1A3.jpg","38","restless",0.8,0.3,0.7,0.0545286274270758,"true"
"image-keyboard-response",357,2398217,"0.0-3.115-1.115","b7k0oo8p8tle93a",877,"134.csv","","null","resources/maskTrios/BT1B.jpg","null","",NA,NA,NA,NA,""
"image-keyboard-response",358,2399419,"0.0-3.115-2.115","b7k0oo8p8tle93a",877,"134.csv","","null","resources/images/coin2.png","null","",NA,NA,NA,NA,""
"image-keyboard-response",359,2401309,"0.0-3.116-0.116","b7k0oo8p8tle93a",877,"134.csv","","1885","resources/trios/L4T1A3.jpg","39","restless",0.8,0.3,0.8,0.529162658103922,"true"
"image-keyboard-response",360,2401711,"0.0-3.116-1.116","b7k0oo8p8tle93a",877,"134.csv","","null","resources/maskTrios/BBA3.jpg","null","",NA,NA,NA,NA,""
"image-keyboard-response",361,2402913,"0.0-3.116-2.116","b7k0oo8p8tle93a",877,"134.csv","","null","resources/images/coin2.png","null","",NA,NA,NA,NA,""
"image-keyboard-response",362,2405884,"0.0-3.117-0.117","b7k0oo8p8tle93a",877,"134.csv","","2968","resources/trios/L1T1A3.jpg","38","restless",0.8,0.3,0.8,0.603173259521381,"false"
"image-keyboard-response",363,2406287,"0.0-3.117-1.117","b7k0oo8p8tle93a",877,"134.csv","","null","resources/maskTrios/BT1B.jpg","null","",NA,NA,NA,NA,""
"image-keyboard-response",364,2407490,"0.0-3.117-2.117","b7k0oo8p8tle93a",877,"134.csv","","null","resources/images/fishbone.png","null","",NA,NA,NA,NA,""
"image-keyboard-response",365,2408041,"0.0-3.118-0.118","b7k0oo8p8tle93a",877,"134.csv","","549","resources/trios/L1T4A2.jpg","37","restless",0.8,0.3,0.8,0.605122102207369,"true"
"image-keyboard-response",366,2408443,"0.0-3.118-1.118","b7k0oo8p8tle93a",877,"134.csv","","null","resources/maskTrios/L1BB.jpg","null","",NA,NA,NA,NA,""
"image-keyboard-response",367,2409645,"0.0-3.118-2.118","b7k0oo8p8tle93a",877,"134.csv","","null","resources/images/coin2.png","null","",NA,NA,NA,NA,""
"image-keyboard-response",368,2411770,"0.0-3.119-0.119","b7k0oo8p8tle93a",877,"134.csv","","2122","resources/trios/L4T4A3.jpg","38","restless",0.8,0.3,0.8,0.111777670060967,"true"
"image-keyboard-response",369,2412172,"0.0-3.119-1.119","b7k0oo8p8tle93a",877,"134.csv","","null","resources/maskTrios/BT4B.jpg","null","",NA,NA,NA,NA,""
"image-keyboard-response",370,2413374,"0.0-3.119-2.119","b7k0oo8p8tle93a",877,"134.csv","","null","resources/images/coin2.png","null","",NA,NA,NA,NA,""
"image-keyboard-response",371,2414427,"0.0-3.120-0.120","b7k0oo8p8tle93a",877,"134.csv","","1050","resources/trios/L1T1A3.jpg","37","restless",0.8,0.3,0.8,0.0450653390808642,"true"
"image-keyboard-response",372,2414829,"0.0-3.120-1.120","b7k0oo8p8tle93a",877,"134.csv","","null","resources/maskTrios/L1BB.jpg","null","",NA,NA,NA,NA,""
"image-keyboard-response",373,2416031,"0.0-3.120-2.120","b7k0oo8p8tle93a",877,"134.csv","","null","resources/images/coin2.png","null","",NA,NA,NA,NA,""
"image-keyboard-response",374,2416946,"0.0-3.121-0.121","b7k0oo8p8tle93a",877,"134.csv","","912","resources/trios/L4T1A2.jpg","39","restless",0.8,0.3,0.8,0.449107312716272,"true"
"image-keyboard-response",375,2417348,"0.0-3.121-1.121","b7k0oo8p8tle93a",877,"134.csv","","null","resources/maskTrios/BBA2.jpg","null","",NA,NA,NA,NA,""
"image-keyboard-response",376,2418551,"0.0-3.121-2.121","b7k0oo8p8tle93a",877,"134.csv","","null","resources/images/coin2.png","null","",NA,NA,NA,NA,""
"image-keyboard-response",377,2419521,"0.0-3.122-0.122","b7k0oo8p8tle93a",877,"134.csv","","969","resources/trios/L4T4A2.jpg","38","restless",0.8,0.3,0.8,0.530671892922418,"false"
"image-keyboard-response",378,2419923,"0.0-3.122-1.122","b7k0oo8p8tle93a",877,"134.csv","","null","resources/maskTrios/BT4B.jpg","null","",NA,NA,NA,NA,""
"image-keyboard-response",379,2421125,"0.0-3.122-2.122","b7k0oo8p8tle93a",877,"134.csv","","null","resources/images/fishbone.png","null","",NA,NA,NA,NA,""
"image-keyboard-response",380,2422740,"0.0-3.123-0.123","b7k0oo8p8tle93a",877,"134.csv","","1613","resources/trios/L4T1A2.jpg","37","restless",0.8,0.3,0.8,0.961319978492638,"false"
"image-keyboard-response",381,2423142,"0.0-3.123-1.123","b7k0oo8p8tle93a",877,"134.csv","","null","resources/maskTrios/L4BB.jpg","null","",NA,NA,NA,NA,""
"image-keyboard-response",382,2424343,"0.0-3.123-2.123","b7k0oo8p8tle93a",877,"134.csv","","null","resources/images/fishbone.png","null","",NA,NA,NA,NA,""
"image-keyboard-response",383,2424934,"0.0-3.124-0.124","b7k0oo8p8tle93a",877,"134.csv","","586","resources/trios/L4T1A2.jpg","39","restless",0.8,0.3,0.8,0.545218797832066,"true"
"image-keyboard-response",384,2425337,"0.0-3.124-1.124","b7k0oo8p8tle93a",877,"134.csv","","null","resources/maskTrios/BBA2.jpg","null","",NA,NA,NA,NA,""
"image-keyboard-response",385,2426539,"0.0-3.124-2.124","b7k0oo8p8tle93a",877,"134.csv","","null","resources/images/coin2.png","null","",NA,NA,NA,NA,""
"image-keyboard-response",386,2427044,"0.0-3.125-0.125","b7k0oo8p8tle93a",877,"134.csv","","503","resources/trios/L1T4A2.jpg","38","restless",0.8,0.3,0.8,0.413683330257768,"false"
"image-keyboard-response",387,2427446,"0.0-3.125-1.125","b7k0oo8p8tle93a",877,"134.csv","","null","resources/maskTrios/BT4B.jpg","null","",NA,NA,NA,NA,""
"image-keyboard-response",388,2428647,"0.0-3.125-2.125","b7k0oo8p8tle93a",877,"134.csv","","null","resources/images/fishbone.png","null","",NA,NA,NA,NA,""
"image-keyboard-response",389,2429196,"0.0-3.126-0.126","b7k0oo8p8tle93a",877,"134.csv","","548","resources/trios/L4T4A3.jpg","38","restless",0.8,0.3,0.7,0.454434190322166,"false"
"image-keyboard-response",390,2429597,"0.0-3.126-1.126","b7k0oo8p8tle93a",877,"134.csv","","null","resources/maskTrios/BT4B.jpg","null","",NA,NA,NA,NA,""
"image-keyboard-response",391,2430799,"0.0-3.126-2.126","b7k0oo8p8tle93a",877,"134.csv","","null","resources/images/fishbone.png","null","",NA,NA,NA,NA,""
"image-keyboard-response",392,2431554,"0.0-3.127-0.127","b7k0oo8p8tle93a",877,"134.csv","","754","resources/trios/L4T4A2.jpg","37","restless",0.8,0.2,0.7,0.98169996525493,"false"
"image-keyboard-response",393,2431956,"0.0-3.127-1.127","b7k0oo8p8tle93a",877,"134.csv","","null","resources/maskTrios/L4BB.jpg","null","",NA,NA,NA,NA,""
"image-keyboard-response",394,2433158,"0.0-3.127-2.127","b7k0oo8p8tle93a",877,"134.csv","","null","resources/images/fishbone.png","null","",NA,NA,NA,NA,""
"image-keyboard-response",395,2434369,"0.0-3.128-0.128","b7k0oo8p8tle93a",877,"134.csv","","1208.9999999995343","resources/trios/L1T1A3.jpg","37","restless",0.8,0.2,0.7,0.0164597569858689,"true"
"image-keyboard-response",396,2434771,"0.0-3.128-1.128","b7k0oo8p8tle93a",877,"134.csv","","null","resources/maskTrios/L1BB.jpg","null","",NA,NA,NA,NA,""
"image-keyboard-response",397,2435973,"0.0-3.128-2.128","b7k0oo8p8tle93a",877,"134.csv","","null","resources/images/coin2.png","null","",NA,NA,NA,NA,""
"image-keyboard-response",398,2436736,"0.0-3.129-0.129","b7k0oo8p8tle93a",877,"134.csv","","762","resources/trios/L1T4A2.jpg","38","restless",0.8,0.2,0.8,0.33258620097141,"false"
"image-keyboard-response",399,2437140,"0.0-3.129-1.129","b7k0oo8p8tle93a",877,"134.csv","","null","resources/maskTrios/BT4B.jpg","null","",NA,NA,NA,NA,""
"image-keyboard-response",400,2438342,"0.0-3.129-2.129","b7k0oo8p8tle93a",877,"134.csv","","null","resources/images/fishbone.png","null","",NA,NA,NA,NA,""
"image-keyboard-response",401,2439241,"0.0-3.130-0.130","b7k0oo8p8tle93a",877,"134.csv","","897","resources/trios/L4T1A3.jpg","39","restless",0.7,0.2,0.8,0.198793986840119,"true"
"image-keyboard-response",402,2439645,"0.0-3.130-1.130","b7k0oo8p8tle93a",877,"134.csv","","null","resources/maskTrios/BBA3.jpg","null","",NA,NA,NA,NA,""
"image-keyboard-response",403,2440847,"0.0-3.130-2.130","b7k0oo8p8tle93a",877,"134.csv","","null","resources/images/coin2.png","null","",NA,NA,NA,NA,""
"image-keyboard-response",404,2444219,"0.0-3.131-0.131","b7k0oo8p8tle93a",877,"134.csv","","3369","resources/trios/L4T1A2.jpg","37","restless",0.7,0.2,0.8,0.0205994526849036,"true"
"image-keyboard-response",405,2444621,"0.0-3.131-1.131","b7k0oo8p8tle93a",877,"134.csv","","null","resources/maskTrios/L4BB.jpg","null","",NA,NA,NA,NA,""
"image-keyboard-response",406,2445823,"0.0-3.131-2.131","b7k0oo8p8tle93a",877,"134.csv","","null","resources/images/coin2.png","null","",NA,NA,NA,NA,""
"image-keyboard-response",407,2448356,"0.0-3.132-0.132","b7k0oo8p8tle93a",877,"134.csv","","2530","resources/trios/L1T4A2.jpg","37","restless",0.7,0.2,0.8,0.446270944416172,"true"
"image-keyboard-response",408,2448759,"0.0-3.132-1.132","b7k0oo8p8tle93a",877,"134.csv","","null","resources/maskTrios/L1BB.jpg","null","",NA,NA,NA,NA,""
"image-keyboard-response",409,2449961,"0.0-3.132-2.132","b7k0oo8p8tle93a",877,"134.csv","","null","resources/images/coin2.png","null","",NA,NA,NA,NA,""
"image-keyboard-response",410,2450919,"0.0-3.133-0.133","b7k0oo8p8tle93a",877,"134.csv","","956","resources/trios/L1T1A3.jpg","39","restless",0.6,0.3,0.8,0.0321980273593371,"true"
"image-keyboard-response",411,2451322,"0.0-3.133-1.133","b7k0oo8p8tle93a",877,"134.csv","","null","resources/maskTrios/BBA3.jpg","null","",NA,NA,NA,NA,""
"image-keyboard-response",412,2452524,"0.0-3.133-2.133","b7k0oo8p8tle93a",877,"134.csv","","null","resources/images/coin2.png","null","",NA,NA,NA,NA,""
"image-keyboard-response",413,2454504,"0.0-3.134-0.134","b7k0oo8p8tle93a",877,"134.csv","","1978","resources/trios/L1T1A2.jpg","39","restless",0.6,0.3,0.8,0.678963935652305,"true"
"image-keyboard-response",414,2454906,"0.0-3.134-1.134","b7k0oo8p8tle93a",877,"134.csv","","null","resources/maskTrios/BBA2.jpg","null","",NA,NA,NA,NA,""
"image-keyboard-response",415,2456108,"0.0-3.134-2.134","b7k0oo8p8tle93a",877,"134.csv","","null","resources/images/coin2.png","null","",NA,NA,NA,NA,""
"image-keyboard-response",416,2457545,"0.0-3.135-0.135","b7k0oo8p8tle93a",877,"134.csv","","1433","resources/trios/L4T1A3.jpg","38","restless",0.6,0.3,0.8,0.72966914921131,"false"
"image-keyboard-response",417,2457948,"0.0-3.135-1.135","b7k0oo8p8tle93a",877,"134.csv","","null","resources/maskTrios/BT1B.jpg","null","",NA,NA,NA,NA,""
"image-keyboard-response",418,2459150,"0.0-3.135-2.135","b7k0oo8p8tle93a",877,"134.csv","","null","resources/images/fishbone.png","null","",NA,NA,NA,NA,""
"image-keyboard-response",419,2459784,"0.0-3.136-0.136","b7k0oo8p8tle93a",877,"134.csv","","632.0000000004657","resources/trios/L1T1A2.jpg","37","restless",0.6,0.3,0.8,0.159990005182576,"true"
"image-keyboard-response",420,2460186,"0.0-3.136-1.136","b7k0oo8p8tle93a",877,"134.csv","","null","resources/maskTrios/L1BB.jpg","null","",NA,NA,NA,NA,""
"image-keyboard-response",421,2461388,"0.0-3.136-2.136","b7k0oo8p8tle93a",877,"134.csv","","null","resources/images/coin2.png","null","",NA,NA,NA,NA,""
"image-keyboard-response",422,2462003,"0.0-3.137-0.137","b7k0oo8p8tle93a",877,"134.csv","","613","resources/trios/L4T4A3.jpg","37","restless",0.7,0.3,0.8,0.828591810398465,"false"
"image-keyboard-response",423,2462405,"0.0-3.137-1.137","b7k0oo8p8tle93a",877,"134.csv","","null","resources/maskTrios/L4BB.jpg","null","",NA,NA,NA,NA,""
"image-keyboard-response",424,2463607,"0.0-3.137-2.137","b7k0oo8p8tle93a",877,"134.csv","","null","resources/images/fishbone.png","null","",NA,NA,NA,NA,""
"image-keyboard-response",425,2464223,"0.0-3.138-0.138","b7k0oo8p8tle93a",877,"134.csv","","614","resources/trios/L4T1A3.jpg","39","restless",0.7,0.3,0.8,0.204660000341198,"true"
"image-keyboard-response",426,2464626,"0.0-3.138-1.138","b7k0oo8p8tle93a",877,"134.csv","","null","resources/maskTrios/BBA3.jpg","null","",NA,NA,NA,NA,""
"image-keyboard-response",427,2465828,"0.0-3.138-2.138","b7k0oo8p8tle93a",877,"134.csv","","null","resources/images/coin2.png","null","",NA,NA,NA,NA,""
"image-keyboard-response",428,2466282,"0.0-3.139-0.139","b7k0oo8p8tle93a",877,"134.csv","","452","resources/trios/L4T4A3.jpg","38","restless",0.7,0.3,0.8,0.266492713350025,"true"
"image-keyboard-response",429,2466684,"0.0-3.139-1.139","b7k0oo8p8tle93a",877,"134.csv","","null","resources/maskTrios/BT4B.jpg","null","",NA,NA,NA,NA,""
"image-keyboard-response",430,2467886,"0.0-3.139-2.139","b7k0oo8p8tle93a",877,"134.csv","","null","resources/images/coin2.png","null","",NA,NA,NA,NA,""
"image-keyboard-response",431,2470790,"0.0-3.140-0.140","b7k0oo8p8tle93a",877,"134.csv","","2903","resources/trios/L1T1A2.jpg","37","restless",0.7,0.3,0.8,0.23765284972957,"true"
"image-keyboard-response",432,2471192,"0.0-3.140-1.140","b7k0oo8p8tle93a",877,"134.csv","","null","resources/maskTrios/L1BB.jpg","null","",NA,NA,NA,NA,""
"image-keyboard-response",433,2472394,"0.0-3.140-2.140","b7k0oo8p8tle93a",877,"134.csv","","null","resources/images/coin2.png","null","",NA,NA,NA,NA,""
"image-keyboard-response",434,2473944,"0.0-3.141-0.141","b7k0oo8p8tle93a",877,"134.csv","","1548","resources/trios/L1T1A3.jpg","38","restless",0.7,0.3,0.8,0.583590551697624,"false"
"image-keyboard-response",435,2474348,"0.0-3.141-1.141","b7k0oo8p8tle93a",877,"134.csv","","null","resources/maskTrios/BT1B.jpg","null","",NA,NA,NA,NA,""
"image-keyboard-response",436,2475551,"0.0-3.141-2.141","b7k0oo8p8tle93a",877,"134.csv","","null","resources/images/fishbone.png","null","",NA,NA,NA,NA,""
"image-keyboard-response",437,2476339,"0.0-3.142-0.142","b7k0oo8p8tle93a",877,"134.csv","","783","resources/trios/L1T4A3.jpg","39","restless",0.7,0.3,0.8,0.759093132268192,"true"
"image-keyboard-response",438,2476741,"0.0-3.142-1.142","b7k0oo8p8tle93a",877,"134.csv","","null","resources/maskTrios/BBA3.jpg","null","",NA,NA,NA,NA,""
"image-keyboard-response",439,2477944,"0.0-3.142-2.142","b7k0oo8p8tle93a",877,"134.csv","","null","resources/images/coin2.png","null","",NA,NA,NA,NA,""
"image-keyboard-response",440,2480994,"0.0-3.143-0.143","b7k0oo8p8tle93a",877,"134.csv","","3046.9999999995343","resources/trios/L1T4A2.jpg","37","restless",0.6,0.3,0.8,0.0837272892312508,"true"
"image-keyboard-response",441,2481395,"0.0-3.143-1.143","b7k0oo8p8tle93a",877,"134.csv","","null","resources/maskTrios/L1BB.jpg","null","",NA,NA,NA,NA,""
"image-keyboard-response",442,2482597,"0.0-3.143-2.143","b7k0oo8p8tle93a",877,"134.csv","","null","resources/images/coin2.png","null","",NA,NA,NA,NA,""
"image-keyboard-response",443,2493481,"0.0-3.144-0.144","b7k0oo8p8tle93a",877,"134.csv","","10882","resources/trios/L4T4A2.jpg","38","restless",0.6,0.3,0.8,0.129873335372588,"true"
"image-keyboard-response",444,2493886,"0.0-3.144-1.144","b7k0oo8p8tle93a",877,"134.csv","","null","resources/maskTrios/BT4B.jpg","null","",NA,NA,NA,NA,""
"image-keyboard-response",445,2495089,"0.0-3.144-2.144","b7k0oo8p8tle93a",877,"134.csv","","null","resources/images/coin2.png","null","",NA,NA,NA,NA,""
"image-keyboard-response",446,2496339,"0.0-3.145-0.145","b7k0oo8p8tle93a",877,"134.csv","","1247.9999999995343","resources/trios/L1T1A3.jpg","37","restless",0.6,0.3,0.7,0.247168398092835,"true"
"image-keyboard-response",447,2496742,"0.0-3.145-1.145","b7k0oo8p8tle93a",877,"134.csv","","null","resources/maskTrios/L1BB.jpg","null","",NA,NA,NA,NA,""
"image-keyboard-response",448,2497943,"0.0-3.145-2.145","b7k0oo8p8tle93a",877,"134.csv","","null","resources/images/coin2.png","null","",NA,NA,NA,NA,""
"image-keyboard-response",449,2499220,"0.0-3.146-0.146","b7k0oo8p8tle93a",877,"134.csv","","1275","resources/trios/L1T4A2.jpg","37","restless",0.6,0.3,0.7,0.781684613648924,"false"
"image-keyboard-response",450,2499622,"0.0-3.146-1.146","b7k0oo8p8tle93a",877,"134.csv","","null","resources/maskTrios/L1BB.jpg","null","",NA,NA,NA,NA,""
"image-keyboard-response",451,2500824,"0.0-3.146-2.146","b7k0oo8p8tle93a",877,"134.csv","","null","resources/images/fishbone.png","null","",NA,NA,NA,NA,""
"image-keyboard-response",452,2501743,"0.0-3.147-0.147","b7k0oo8p8tle93a",877,"134.csv","","916","resources/trios/L4T4A3.jpg","38","restless",0.6,0.3,0.7,0.414286485873482,"false"
"image-keyboard-response",453,2502145,"0.0-3.147-1.147","b7k0oo8p8tle93a",877,"134.csv","","null","resources/maskTrios/BT4B.jpg","null","",NA,NA,NA,NA,""
"image-keyboard-response",454,2503347,"0.0-3.147-2.147","b7k0oo8p8tle93a",877,"134.csv","","null","resources/images/fishbone.png","null","",NA,NA,NA,NA,""
"image-keyboard-response",455,2508151,"0.0-3.148-0.148","b7k0oo8p8tle93a",877,"134.csv","","4802","resources/trios/L1T4A3.jpg","37","restless",0.6,0.3,0.6,0.841194602889195,"false"
"image-keyboard-response",456,2508553,"0.0-3.148-1.148","b7k0oo8p8tle93a",877,"134.csv","","null","resources/maskTrios/L1BB.jpg","null","",NA,NA,NA,NA,""
"image-keyboard-response",457,2509755,"0.0-3.148-2.148","b7k0oo8p8tle93a",877,"134.csv","","null","resources/images/fishbone.png","null","",NA,NA,NA,NA,""
"image-keyboard-response",458,2510514,"0.0-3.149-0.149","b7k0oo8p8tle93a",877,"134.csv","","756","resources/trios/L1T1A2.jpg","38","restless",0.6,0.3,0.6,0.92404803412246,"false"
"image-keyboard-response",459,2510916,"0.0-3.149-1.149","b7k0oo8p8tle93a",877,"134.csv","","null","resources/maskTrios/BT1B.jpg","null","",NA,NA,NA,NA,""
"image-keyboard-response",460,2512118,"0.0-3.149-2.149","b7k0oo8p8tle93a",877,"134.csv","","null","resources/images/fishbone.png","null","",NA,NA,NA,NA,""
"image-keyboard-response",461,2512912,"0.0-3.150-0.150","b7k0oo8p8tle93a",877,"134.csv","","791.9999999995343","resources/trios/L1T1A3.jpg","39","restless",0.6,0.3,0.6,0.557170061405546,"true"
"image-keyboard-response",462,2513314,"0.0-3.150-1.150","b7k0oo8p8tle93a",877,"134.csv","","null","resources/maskTrios/BBA3.jpg","null","",NA,NA,NA,NA,""
"image-keyboard-response",463,2514517,"0.0-3.150-2.150","b7k0oo8p8tle93a",877,"134.csv","","null","resources/images/coin2.png","null","",NA,NA,NA,NA,""
"image-keyboard-response",464,2523577,"0.0-3.151-0.151","b7k0oo8p8tle93a",877,"134.csv","","9058","resources/trios/L4T1A3.jpg","39","restless",0.7,0.3,0.6,0.109696022965209,"true"
"image-keyboard-response",465,2523980,"0.0-3.151-1.151","b7k0oo8p8tle93a",877,"134.csv","","null","resources/maskTrios/BBA3.jpg","null","",NA,NA,NA,NA,""
"image-keyboard-response",466,2525184,"0.0-3.151-2.151","b7k0oo8p8tle93a",877,"134.csv","","null","resources/images/coin2.png","null","",NA,NA,NA,NA,""
"image-keyboard-response",467,2527046,"0.0-3.152-0.152","b7k0oo8p8tle93a",877,"134.csv","","1860","resources/trios/L4T4A2.jpg","37","restless",0.7,0.3,0.6,0.879583766511664,"false"
"image-keyboard-response",468,2527447,"0.0-3.152-1.152","b7k0oo8p8tle93a",877,"134.csv","","null","resources/maskTrios/L4BB.jpg","null","",NA,NA,NA,NA,""
"image-keyboard-response",469,2528650,"0.0-3.152-2.152","b7k0oo8p8tle93a",877,"134.csv","","null","resources/images/fishbone.png","null","",NA,NA,NA,NA,""
"image-keyboard-response",470,2531070,"0.0-3.153-0.153","b7k0oo8p8tle93a",877,"134.csv","","2418","resources/trios/L4T4A2.jpg","38","restless",0.7,0.3,0.6,0.609154240824292,"false"
"image-keyboard-response",471,2531472,"0.0-3.153-1.153","b7k0oo8p8tle93a",877,"134.csv","","null","resources/maskTrios/BT4B.jpg","null","",NA,NA,NA,NA,""
"image-keyboard-response",472,2532673,"0.0-3.153-2.153","b7k0oo8p8tle93a",877,"134.csv","","null","resources/images/fishbone.png","null","",NA,NA,NA,NA,""
"image-keyboard-response",473,2541681,"0.0-3.154-0.154","b7k0oo8p8tle93a",877,"134.csv","","9002","resources/trios/L1T4A3.jpg","39","restless",0.7,0.3,0.5,0.0117706437060816,"true"
"image-keyboard-response",474,2542083,"0.0-3.154-1.154","b7k0oo8p8tle93a",877,"134.csv","","null","resources/maskTrios/BBA3.jpg","null","",NA,NA,NA,NA,""
"image-keyboard-response",475,2543285,"0.0-3.154-2.154","b7k0oo8p8tle93a",877,"134.csv","","null","resources/images/coin2.png","null","",NA,NA,NA,NA,""
"image-keyboard-response",476,2544983,"0.0-3.155-0.155","b7k0oo8p8tle93a",877,"134.csv","","1696","resources/trios/L4T4A3.jpg","38","restless",0.7,0.3,0.5,0.83587722393868,"false"
"image-keyboard-response",477,2545386,"0.0-3.155-1.155","b7k0oo8p8tle93a",877,"134.csv","","null","resources/maskTrios/BT4B.jpg","null","",NA,NA,NA,NA,""
"image-keyboard-response",478,2546588,"0.0-3.155-2.155","b7k0oo8p8tle93a",877,"134.csv","","null","resources/images/fishbone.png","null","",NA,NA,NA,NA,""
"image-keyboard-response",479,2547050,"0.0-3.156-0.156","b7k0oo8p8tle93a",877,"134.csv","","460","resources/trios/L1T1A3.jpg","37","restless",0.7,0.3,0.5,0.893294613012543,"false"
"image-keyboard-response",480,2547453,"0.0-3.156-1.156","b7k0oo8p8tle93a",877,"134.csv","","null","resources/maskTrios/L1BB.jpg","null","",NA,NA,NA,NA,""
"image-keyboard-response",481,2548655,"0.0-3.156-2.156","b7k0oo8p8tle93a",877,"134.csv","","null","resources/images/fishbone.png","null","",NA,NA,NA,NA,""
"image-keyboard-response",482,2549494,"0.0-3.157-0.157","b7k0oo8p8tle93a",877,"134.csv","","838.0000000004657","resources/trios/L4T1A2.jpg","39","restless",0.7,0.4,0.5,0.216869470709891,"true"
"image-keyboard-response",483,2549896,"0.0-3.157-1.157","b7k0oo8p8tle93a",877,"134.csv","","null","resources/maskTrios/BBA2.jpg","null","",NA,NA,NA,NA,""
"image-keyboard-response",484,2551098,"0.0-3.157-2.157","b7k0oo8p8tle93a",877,"134.csv","","null","resources/images/coin2.png","null","",NA,NA,NA,NA,""
"image-keyboard-response",485,2552627,"0.0-3.158-0.158","b7k0oo8p8tle93a",877,"134.csv","","1526.9999999995343","resources/trios/L4T4A2.jpg","38","restless",0.7,0.4,0.5,0.530928670821189,"false"
"image-keyboard-response",486,2553029,"0.0-3.158-1.158","b7k0oo8p8tle93a",877,"134.csv","","null","resources/maskTrios/BT4B.jpg","null","",NA,NA,NA,NA,""
"image-keyboard-response",487,2554231,"0.0-3.158-2.158","b7k0oo8p8tle93a",877,"134.csv","","null","resources/images/fishbone.png","null","",NA,NA,NA,NA,""
"image-keyboard-response",488,2554848,"0.0-3.159-0.159","b7k0oo8p8tle93a",877,"134.csv","","614.9999999995343","resources/trios/L4T1A3.jpg","38","restless",0.7,0.5,0.5,0.669241514986932,"false"
"image-keyboard-response",489,2555251,"0.0-3.159-1.159","b7k0oo8p8tle93a",877,"134.csv","","null","resources/maskTrios/BT1B.jpg","null","",NA,NA,NA,NA,""
"image-keyboard-response",490,2556453,"0.0-3.159-2.159","b7k0oo8p8tle93a",877,"134.csv","","null","resources/images/fishbone.png","null","",NA,NA,NA,NA,""
"image-keyboard-response",491,2556964,"0.0-3.160-0.160","b7k0oo8p8tle93a",877,"134.csv","","509.99999999953434","resources/trios/L4T4A2.jpg","38","restless",0.7,0.5,0.5,0.818327953701632,"false"
"image-keyboard-response",492,2557367,"0.0-3.160-1.160","b7k0oo8p8tle93a",877,"134.csv","","null","resources/maskTrios/BT4B.jpg","null","",NA,NA,NA,NA,""
"image-keyboard-response",493,2558569,"0.0-3.160-2.160","b7k0oo8p8tle93a",877,"134.csv","","null","resources/images/fishbone.png","null","",NA,NA,NA,NA,""
"image-keyboard-response",494,2558936,"0.0-3.161-0.161","b7k0oo8p8tle93a",877,"134.csv","","364","resources/trios/L1T4A3.jpg","37","restless",0.6,0.5,0.5,0.810039384861481,"false"
"image-keyboard-response",495,2559341,"0.0-3.161-1.161","b7k0oo8p8tle93a",877,"134.csv","","null","resources/maskTrios/L1BB.jpg","null","",NA,NA,NA,NA,""
"image-keyboard-response",496,2560543,"0.0-3.161-2.161","b7k0oo8p8tle93a",877,"134.csv","","null","resources/images/fishbone.png","null","",NA,NA,NA,NA,""
"image-keyboard-response",497,2561441,"0.0-3.162-0.162","b7k0oo8p8tle93a",877,"134.csv","","895","resources/trios/L4T4A2.jpg","39","restless",0.6,0.6,0.5,0.924961303975757,"false"
"image-keyboard-response",498,2561842,"0.0-3.162-1.162","b7k0oo8p8tle93a",877,"134.csv","","null","resources/maskTrios/BBA2.jpg","null","",NA,NA,NA,NA,""
"image-keyboard-response",499,2563044,"0.0-3.162-2.162","b7k0oo8p8tle93a",877,"134.csv","","null","resources/images/fishbone.png","null","",NA,NA,NA,NA,""
"image-keyboard-response",500,2563392,"0.0-3.163-0.163","b7k0oo8p8tle93a",877,"134.csv","","346","resources/trios/L1T1A3.jpg","38","restless",0.6,0.6,0.5,0.309276969591359,"true"
"image-keyboard-response",501,2563794,"0.0-3.163-1.163","b7k0oo8p8tle93a",877,"134.csv","","null","resources/maskTrios/BT1B.jpg","null","",NA,NA,NA,NA,""
"image-keyboard-response",502,2564997,"0.0-3.163-2.163","b7k0oo8p8tle93a",877,"134.csv","","null","resources/images/coin2.png","null","",NA,NA,NA,NA,""
"image-keyboard-response",503,2567155,"0.0-3.164-0.164","b7k0oo8p8tle93a",877,"134.csv","","2156","resources/trios/L4T1A2.jpg","37","restless",0.6,0.6,0.5,0.935498213047297,"false"
"image-keyboard-response",504,2567558,"0.0-3.164-1.164","b7k0oo8p8tle93a",877,"134.csv","","null","resources/maskTrios/L4BB.jpg","null","",NA,NA,NA,NA,""
"image-keyboard-response",505,2568760,"0.0-3.164-2.164","b7k0oo8p8tle93a",877,"134.csv","","null","resources/images/fishbone.png","null","",NA,NA,NA,NA,""
"image-keyboard-response",506,2570983,"0.0-3.165-0.165","b7k0oo8p8tle93a",877,"134.csv","","2221","resources/trios/L4T1A3.jpg","38","restless",0.7,0.6,0.5,0.371124039670577,"true"
"image-keyboard-response",507,2571385,"0.0-3.165-1.165","b7k0oo8p8tle93a",877,"134.csv","","null","resources/maskTrios/BT1B.jpg","null","",NA,NA,NA,NA,""
"image-keyboard-response",508,2572588,"0.0-3.165-2.165","b7k0oo8p8tle93a",877,"134.csv","","null","resources/images/coin2.png","null","",NA,NA,NA,NA,""
"image-keyboard-response",509,2574590,"0.0-3.166-0.166","b7k0oo8p8tle93a",877,"134.csv","","1998.9999999995343","resources/trios/L1T4A3.jpg","38","restless",0.7,0.6,0.5,0.435939111590553,"true"
"image-keyboard-response",510,2574992,"0.0-3.166-1.166","b7k0oo8p8tle93a",877,"134.csv","","null","resources/maskTrios/BT4B.jpg","null","",NA,NA,NA,NA,""
"image-keyboard-response",511,2576194,"0.0-3.166-2.166","b7k0oo8p8tle93a",877,"134.csv","","null","resources/images/coin2.png","null","",NA,NA,NA,NA,""
"image-keyboard-response",512,2577526,"0.0-3.167-0.167","b7k0oo8p8tle93a",877,"134.csv","","1330","resources/trios/L4T4A2.jpg","39","restless",0.8,0.6,0.5,0.415315598847742,"true"
"image-keyboard-response",513,2577928,"0.0-3.167-1.167","b7k0oo8p8tle93a",877,"134.csv","","null","resources/maskTrios/BBA2.jpg","null","",NA,NA,NA,NA,""
"image-keyboard-response",514,2579131,"0.0-3.167-2.167","b7k0oo8p8tle93a",877,"134.csv","","null","resources/images/coin2.png","null","",NA,NA,NA,NA,""
"image-keyboard-response",515,2579745,"0.0-3.168-0.168","b7k0oo8p8tle93a",877,"134.csv","","611.0000000004657","resources/trios/L1T4A3.jpg","39","restless",0.8,0.7,0.5,0.900983883455829,"false"
"image-keyboard-response",516,2580148,"0.0-3.168-1.168","b7k0oo8p8tle93a",877,"134.csv","","null","resources/maskTrios/BBA3.jpg","null","",NA,NA,NA,NA,""
"image-keyboard-response",517,2581350,"0.0-3.168-2.168","b7k0oo8p8tle93a",877,"134.csv","","null","resources/images/fishbone.png","null","",NA,NA,NA,NA,""
"image-keyboard-response",518,2582323,"0.0-3.169-0.169","b7k0oo8p8tle93a",877,"134.csv","","970","resources/trios/L4T4A2.jpg","38","restless",0.8,0.7,0.5,0.811710650464968,"false"
"image-keyboard-response",519,2582725,"0.0-3.169-1.169","b7k0oo8p8tle93a",877,"134.csv","","null","resources/maskTrios/BT4B.jpg","null","",NA,NA,NA,NA,""
"image-keyboard-response",520,2583927,"0.0-3.169-2.169","b7k0oo8p8tle93a",877,"134.csv","","null","resources/images/fishbone.png","null","",NA,NA,NA,NA,""
"image-keyboard-response",521,2584334,"0.0-3.170-0.170","b7k0oo8p8tle93a",877,"134.csv","","405","resources/trios/L4T4A3.jpg","37","restless",0.7,0.7,0.5,0.220414350526094,"true"
"image-keyboard-response",522,2584737,"0.0-3.170-1.170","b7k0oo8p8tle93a",877,"134.csv","","null","resources/maskTrios/L4BB.jpg","null","",NA,NA,NA,NA,""
"image-keyboard-response",523,2585940,"0.0-3.170-2.170","b7k0oo8p8tle93a",877,"134.csv","","null","resources/images/coin2.png","null","",NA,NA,NA,NA,""
"image-keyboard-response",524,2586335,"0.0-3.171-0.171","b7k0oo8p8tle93a",877,"134.csv","","393","resources/trios/L1T4A2.jpg","37","restless",0.7,0.7,0.5,0.468267736014054,"true"
"image-keyboard-response",525,2586737,"0.0-3.171-1.171","b7k0oo8p8tle93a",877,"134.csv","","null","resources/maskTrios/L1BB.jpg","null","",NA,NA,NA,NA,""
"image-keyboard-response",526,2587939,"0.0-3.171-2.171","b7k0oo8p8tle93a",877,"134.csv","","null","resources/images/coin2.png","null","",NA,NA,NA,NA,""
"image-keyboard-response",527,2588398,"0.0-3.172-0.172","b7k0oo8p8tle93a",877,"134.csv","","457.00000000046566","resources/trios/L1T1A2.jpg","38","restless",0.7,0.7,0.5,0.048083510605439,"true"
"image-keyboard-response",528,2588800,"0.0-3.172-1.172","b7k0oo8p8tle93a",877,"134.csv","","null","resources/maskTrios/BT1B.jpg","null","",NA,NA,NA,NA,""
"image-keyboard-response",529,2590003,"0.0-3.172-2.172","b7k0oo8p8tle93a",877,"134.csv","","null","resources/images/coin2.png","null","",NA,NA,NA,NA,""
"image-keyboard-response",530,2590713,"0.0-3.173-0.173","b7k0oo8p8tle93a",877,"134.csv","","708","resources/trios/L4T1A3.jpg","39","restless",0.7,0.6,0.5,0.523338923006481,"false"
"image-keyboard-response",531,2591116,"0.0-3.173-1.173","b7k0oo8p8tle93a",877,"134.csv","","null","resources/maskTrios/BBA3.jpg","null","",NA,NA,NA,NA,""
"image-keyboard-response",532,2592318,"0.0-3.173-2.173","b7k0oo8p8tle93a",877,"134.csv","","null","resources/images/fishbone.png","null","",NA,NA,NA,NA,""
"image-keyboard-response",533,2593005,"0.0-3.174-0.174","b7k0oo8p8tle93a",877,"134.csv","","684.9999999995343","resources/trios/L1T4A3.jpg","38","restless",0.6,0.6,0.5,0.449730510703797,"true"
"image-keyboard-response",534,2593407,"0.0-3.174-1.174","b7k0oo8p8tle93a",877,"134.csv","","null","resources/maskTrios/BT4B.jpg","null","",NA,NA,NA,NA,""
"image-keyboard-response",535,2594609,"0.0-3.174-2.174","b7k0oo8p8tle93a",877,"134.csv","","null","resources/images/coin2.png","null","",NA,NA,NA,NA,""
"image-keyboard-response",536,2594938,"0.0-3.175-0.175","b7k0oo8p8tle93a",877,"134.csv","","327","resources/trios/L4T1A2.jpg","37","restless",0.6,0.6,0.5,0.377423745806297,"true"
"image-keyboard-response",537,2595340,"0.0-3.175-1.175","b7k0oo8p8tle93a",877,"134.csv","","null","resources/maskTrios/L4BB.jpg","null","",NA,NA,NA,NA,""
"image-keyboard-response",538,2596542,"0.0-3.175-2.175","b7k0oo8p8tle93a",877,"134.csv","","null","resources/images/coin2.png","null","",NA,NA,NA,NA,""
"image-keyboard-response",539,2596959,"0.0-3.176-0.176","b7k0oo8p8tle93a",877,"134.csv","","415","resources/trios/L4T4A2.jpg","38","restless",0.6,0.6,0.5,0.85261625683353,"false"
"image-keyboard-response",540,2597361,"0.0-3.176-1.176","b7k0oo8p8tle93a",877,"134.csv","","null","resources/maskTrios/BT4B.jpg","null","",NA,NA,NA,NA,""
"image-keyboard-response",541,2598563,"0.0-3.176-2.176","b7k0oo8p8tle93a",877,"134.csv","","null","resources/images/fishbone.png","null","",NA,NA,NA,NA,""
"image-keyboard-response",542,2599127,"0.0-3.177-0.177","b7k0oo8p8tle93a",877,"134.csv","","561","resources/trios/L4T1A3.jpg","37","restless",0.6,0.6,0.5,0.375214073499955,"true"
"image-keyboard-response",543,2599529,"0.0-3.177-1.177","b7k0oo8p8tle93a",877,"134.csv","","null","resources/maskTrios/L4BB.jpg","null","",NA,NA,NA,NA,""
"image-keyboard-response",544,2600731,"0.0-3.177-2.177","b7k0oo8p8tle93a",877,"134.csv","","null","resources/images/coin2.png","null","",NA,NA,NA,NA,""
"image-keyboard-response",545,2602080,"0.0-3.178-0.178","b7k0oo8p8tle93a",877,"134.csv","","1346","resources/trios/L4T1A2.jpg","39","restless",0.6,0.6,0.5,0.0719758052131935,"true"
"image-keyboard-response",546,2602481,"0.0-3.178-1.178","b7k0oo8p8tle93a",877,"134.csv","","null","resources/maskTrios/BBA2.jpg","null","",NA,NA,NA,NA,""
"image-keyboard-response",547,2603683,"0.0-3.178-2.178","b7k0oo8p8tle93a",877,"134.csv","","null","resources/images/coin2.png","null","",NA,NA,NA,NA,""
"image-keyboard-response",548,2605759,"0.0-3.179-0.179","b7k0oo8p8tle93a",877,"134.csv","","2072","resources/trios/L1T1A2.jpg","37","restless",0.6,0.6,0.5,0.906640248814193,"false"
"image-keyboard-response",549,2606161,"0.0-3.179-1.179","b7k0oo8p8tle93a",877,"134.csv","","null","resources/maskTrios/L1BB.jpg","null","",NA,NA,NA,NA,""
"image-keyboard-response",550,2607365,"0.0-3.179-2.179","b7k0oo8p8tle93a",877,"134.csv","","null","resources/images/fishbone.png","null","",NA,NA,NA,NA,""
"image-keyboard-response",551,2608124,"0.0-3.180-0.180","b7k0oo8p8tle93a",877,"134.csv","","755","resources/trios/L1T4A2.jpg","38","restless",0.6,0.6,0.5,0.50306469545744,"true"
"image-keyboard-response",552,2608526,"0.0-3.180-1.180","b7k0oo8p8tle93a",877,"134.csv","","null","resources/maskTrios/BT4B.jpg","null","",NA,NA,NA,NA,""
"image-keyboard-response",553,2609727,"0.0-3.180-2.180","b7k0oo8p8tle93a",877,"134.csv","","null","resources/images/coin2.png","null","",NA,NA,NA,NA,""
"image-keyboard-response",554,2613743,"0.0-3.181-0.181","b7k0oo8p8tle93a",877,"134.csv","","4014","resources/trios/L4T4A2.jpg","38","restless",0.6,0.6,0.5,0.645321283155601,"false"
"image-keyboard-response",555,2614145,"0.0-3.181-1.181","b7k0oo8p8tle93a",877,"134.csv","","null","resources/maskTrios/BT4B.jpg","null","",NA,NA,NA,NA,""
"image-keyboard-response",556,2615347,"0.0-3.181-2.181","b7k0oo8p8tle93a",877,"134.csv","","null","resources/images/fishbone.png","null","",NA,NA,NA,NA,""
"image-keyboard-response",557,2615899,"0.0-3.182-0.182","b7k0oo8p8tle93a",877,"134.csv","","549.9999999995343","resources/trios/L1T4A3.jpg","39","restless",0.6,0.6,0.5,0.99817356764277,"false"
"image-keyboard-response",558,2616301,"0.0-3.182-1.182","b7k0oo8p8tle93a",877,"134.csv","","null","resources/maskTrios/BBA3.jpg","null","",NA,NA,NA,NA,""
"image-keyboard-response",559,2617503,"0.0-3.182-2.182","b7k0oo8p8tle93a",877,"134.csv","","null","resources/images/fishbone.png","null","",NA,NA,NA,NA,""
"image-keyboard-response",560,2617930,"0.0-3.183-0.183","b7k0oo8p8tle93a",877,"134.csv","","426","resources/trios/L1T1A2.jpg","38","restless",0.5,0.6,0.5,0.231301997718839,"true"
"image-keyboard-response",561,2618331,"0.0-3.183-1.183","b7k0oo8p8tle93a",877,"134.csv","","null","resources/maskTrios/BT1B.jpg","null","",NA,NA,NA,NA,""
"image-keyboard-response",562,2619534,"0.0-3.183-2.183","b7k0oo8p8tle93a",877,"134.csv","","null","resources/images/coin2.png","null","",NA,NA,NA,NA,""
"image-keyboard-response",563,2620045,"0.0-3.184-0.184","b7k0oo8p8tle93a",877,"134.csv","","509","resources/trios/L4T4A2.jpg","37","restless",0.5,0.6,0.5,0.383871734861515,"true"
"image-keyboard-response",564,2620447,"0.0-3.184-1.184","b7k0oo8p8tle93a",877,"134.csv","","null","resources/maskTrios/L4BB.jpg","null","",NA,NA,NA,NA,""
"image-keyboard-response",565,2621649,"0.0-3.184-2.184","b7k0oo8p8tle93a",877,"134.csv","","null","resources/images/coin2.png","null","",NA,NA,NA,NA,""
"image-keyboard-response",566,2622840,"0.0-3.185-0.185","b7k0oo8p8tle93a",877,"134.csv","","1188.0000000004657","resources/trios/L1T1A2.jpg","38","restless",0.5,0.6,0.5,0.56622209534198,"true"
"image-keyboard-response",567,2623242,"0.0-3.185-1.185","b7k0oo8p8tle93a",877,"134.csv","","null","resources/maskTrios/BT1B.jpg","null","",NA,NA,NA,NA,""
"image-keyboard-response",568,2624444,"0.0-3.185-2.185","b7k0oo8p8tle93a",877,"134.csv","","null","resources/images/coin2.png","null","",NA,NA,NA,NA,""
"image-keyboard-response",569,2625393,"0.0-3.186-0.186","b7k0oo8p8tle93a",877,"134.csv","","947","resources/trios/L1T1A3.jpg","37","restless",0.5,0.6,0.5,0.960312342262405,"false"
"image-keyboard-response",570,2625795,"0.0-3.186-1.186","b7k0oo8p8tle93a",877,"134.csv","","null","resources/maskTrios/L1BB.jpg","null","",NA,NA,NA,NA,""
"image-keyboard-response",571,2626997,"0.0-3.186-2.186","b7k0oo8p8tle93a",877,"134.csv","","null","resources/images/fishbone.png","null","",NA,NA,NA,NA,""
"image-keyboard-response",572,2627966,"0.0-3.187-0.187","b7k0oo8p8tle93a",877,"134.csv","","966","resources/trios/L1T1A3.jpg","38","restless",0.5,0.6,0.5,0.512116313455911,"true"
"image-keyboard-response",573,2628369,"0.0-3.187-1.187","b7k0oo8p8tle93a",877,"134.csv","","null","resources/maskTrios/BT1B.jpg","null","",NA,NA,NA,NA,""
"image-keyboard-response",574,2629571,"0.0-3.187-2.187","b7k0oo8p8tle93a",877,"134.csv","","null","resources/images/coin2.png","null","",NA,NA,NA,NA,""
"image-keyboard-response",575,2632680,"0.0-3.188-0.188","b7k0oo8p8tle93a",877,"134.csv","","3108","resources/trios/L1T4A3.jpg","39","restless",0.5,0.6,0.5,0.603454767757556,"false"
"image-keyboard-response",576,2633084,"0.0-3.188-1.188","b7k0oo8p8tle93a",877,"134.csv","","null","resources/maskTrios/BBA3.jpg","null","",NA,NA,NA,NA,""
"image-keyboard-response",577,2634286,"0.0-3.188-2.188","b7k0oo8p8tle93a",877,"134.csv","","null","resources/images/fishbone.png","null","",NA,NA,NA,NA,""
"image-keyboard-response",578,2634747,"0.0-3.189-0.189","b7k0oo8p8tle93a",877,"134.csv","","459","resources/trios/L1T4A2.jpg","37","restless",0.5,0.6,0.5,0.637795840207384,"false"
"image-keyboard-response",579,2635150,"0.0-3.189-1.189","b7k0oo8p8tle93a",877,"134.csv","","null","resources/maskTrios/L1BB.jpg","null","",NA,NA,NA,NA,""
"image-keyboard-response",580,2636352,"0.0-3.189-2.189","b7k0oo8p8tle93a",877,"134.csv","","null","resources/images/fishbone.png","null","",NA,NA,NA,NA,""
"image-keyboard-response",581,2637983,"0.0-3.190-0.190","b7k0oo8p8tle93a",877,"134.csv","","1629","resources/trios/L4T1A2.jpg","37","restless",0.5,0.6,0.5,0.160740104338648,"true"
"image-keyboard-response",582,2638385,"0.0-3.190-1.190","b7k0oo8p8tle93a",877,"134.csv","","null","resources/maskTrios/L4BB.jpg","null","",NA,NA,NA,NA,""
"image-keyboard-response",583,2639587,"0.0-3.190-2.190","b7k0oo8p8tle93a",877,"134.csv","","null","resources/images/coin2.png","null","",NA,NA,NA,NA,""
"image-keyboard-response",584,2640903,"0.0-3.191-0.191","b7k0oo8p8tle93a",877,"134.csv","","1314","resources/trios/L4T4A2.jpg","38","restless",0.5,0.6,0.5,0.0752580744845652,"true"
"image-keyboard-response",585,2641307,"0.0-3.191-1.191","b7k0oo8p8tle93a",877,"134.csv","","null","resources/maskTrios/BT4B.jpg","null","",NA,NA,NA,NA,""
"image-keyboard-response",586,2642509,"0.0-3.191-2.191","b7k0oo8p8tle93a",877,"134.csv","","null","resources/images/coin2.png","null","",NA,NA,NA,NA,""
"image-keyboard-response",587,2644190,"0.0-3.192-0.192","b7k0oo8p8tle93a",877,"134.csv","","1677.9999999995343","resources/trios/L4T4A2.jpg","38","restless",0.5,0.6,0.5,0.135962438454677,"true"
"image-keyboard-response",588,2644591,"0.0-3.192-1.192","b7k0oo8p8tle93a",877,"134.csv","","null","resources/maskTrios/BT4B.jpg","null","",NA,NA,NA,NA,""
"image-keyboard-response",589,2645793,"0.0-3.192-2.192","b7k0oo8p8tle93a",877,"134.csv","","null","resources/images/coin2.png","null","",NA,NA,NA,NA,""
"image-keyboard-response",590,2647300,"0.0-3.193-0.193","b7k0oo8p8tle93a",877,"134.csv","","1503.0000000004657","resources/trios/L4T4A2.jpg","37","restless",0.5,0.6,0.5,0.81823678258627,"false"
"image-keyboard-response",591,2647702,"0.0-3.193-1.193","b7k0oo8p8tle93a",877,"134.csv","","null","resources/maskTrios/L4BB.jpg","null","",NA,NA,NA,NA,""
"image-keyboard-response",592,2648904,"0.0-3.193-2.193","b7k0oo8p8tle93a",877,"134.csv","","null","resources/images/fishbone.png","null","",NA,NA,NA,NA,""
"image-keyboard-response",593,2649523,"0.0-3.194-0.194","b7k0oo8p8tle93a",877,"134.csv","","618","resources/trios/L1T4A2.jpg","39","restless",0.5,0.6,0.5,0.495186190346985,"true"
"image-keyboard-response",594,2649925,"0.0-3.194-1.194","b7k0oo8p8tle93a",877,"134.csv","","null","resources/maskTrios/BBA2.jpg","null","",NA,NA,NA,NA,""
"image-keyboard-response",595,2651127,"0.0-3.194-2.194","b7k0oo8p8tle93a",877,"134.csv","","null","resources/images/coin2.png","null","",NA,NA,NA,NA,""
"image-keyboard-response",596,2652261,"0.0-3.195-0.195","b7k0oo8p8tle93a",877,"134.csv","","1132.0000000004657","resources/trios/L1T4A2.jpg","38","restless",0.5,0.6,0.5,0.154766892266604,"true"
"image-keyboard-response",597,2652663,"0.0-3.195-1.195","b7k0oo8p8tle93a",877,"134.csv","","null","resources/maskTrios/BT4B.jpg","null","",NA,NA,NA,NA,""
"image-keyboard-response",598,2653866,"0.0-3.195-2.195","b7k0oo8p8tle93a",877,"134.csv","","null","resources/images/coin2.png","null","",NA,NA,NA,NA,""
"image-keyboard-response",599,2655892,"0.0-3.196-0.196","b7k0oo8p8tle93a",877,"134.csv","","2024","resources/trios/L1T1A3.jpg","38","restless",0.4,0.6,0.5,0.645078402224389,"false"
"image-keyboard-response",600,2656294,"0.0-3.196-1.196","b7k0oo8p8tle93a",877,"134.csv","","null","resources/maskTrios/BT1B.jpg","null","",NA,NA,NA,NA,""
"image-keyboard-response",601,2657495,"0.0-3.196-2.196","b7k0oo8p8tle93a",877,"134.csv","","null","resources/images/fishbone.png","null","",NA,NA,NA,NA,""
"image-keyboard-response",602,2659041,"0.0-3.197-0.197","b7k0oo8p8tle93a",877,"134.csv","","1544","resources/trios/L4T1A2.jpg","39","restless",0.3,0.6,0.5,0.458287035469857,"true"
"image-keyboard-response",603,2659443,"0.0-3.197-1.197","b7k0oo8p8tle93a",877,"134.csv","","null","resources/maskTrios/BBA2.jpg","null","",NA,NA,NA,NA,""
"image-keyboard-response",604,2660645,"0.0-3.197-2.197","b7k0oo8p8tle93a",877,"134.csv","","null","resources/images/coin2.png","null","",NA,NA,NA,NA,""
"image-keyboard-response",605,2662528,"0.0-3.198-0.198","b7k0oo8p8tle93a",877,"134.csv","","1879.9999999995343","resources/trios/L1T1A3.jpg","37","restless",0.3,0.6,0.5,0.217479680040134,"true"
"image-keyboard-response",606,2662931,"0.0-3.198-1.198","b7k0oo8p8tle93a",877,"134.csv","","null","resources/maskTrios/L1BB.jpg","null","",NA,NA,NA,NA,""
"image-keyboard-response",607,2664133,"0.0-3.198-2.198","b7k0oo8p8tle93a",877,"134.csv","","null","resources/images/coin2.png","null","",NA,NA,NA,NA,""
"image-keyboard-response",608,2668410,"0.0-3.199-0.199","b7k0oo8p8tle93a",877,"134.csv","","4273","resources/trios/L1T1A3.jpg","38","restless",0.3,0.6,0.5,0.770219310939026,"false"
"image-keyboard-response",609,2668812,"0.0-3.199-1.199","b7k0oo8p8tle93a",877,"134.csv","","null","resources/maskTrios/BT1B.jpg","null","",NA,NA,NA,NA,""
"image-keyboard-response",610,2670014,"0.0-3.199-2.199","b7k0oo8p8tle93a",877,"134.csv","","null","resources/images/fishbone.png","null","",NA,NA,NA,NA,""
"image-keyboard-response",611,2670555,"0.0-3.200-0.200","b7k0oo8p8tle93a",877,"134.csv","","539","resources/trios/L1T4A2.jpg","39","restless",0.3,0.6,0.5,0.186801404483406,"true"
"image-keyboard-response",612,2670958,"0.0-3.200-1.200","b7k0oo8p8tle93a",877,"134.csv","","null","resources/maskTrios/BBA2.jpg","null","",NA,NA,NA,NA,""
