"trial_type","trial_index","time_elapsed","internal_node_id","subject","walkNumber","success","rt","stimulus","key_press","test_part","leftProb","midProb","rightProb","generatedNum","correct"
"pavlovia",0,2018,"0.0-0.0","s2zthvxk4cjltjq","71.csv","","","","","",NA,NA,NA,NA,""
"fullscreen",1,16456,"0.0-1.0","s2zthvxk4cjltjq","71.csv","true","","","","",NA,NA,NA,NA,""
"html-keyboard-response",2,18467,"0.0-2.0-0.0","s2zthvxk4cjltjq","71.csv","","2008.5999999046326","<p><font size='6'>Arrrgh!</p></font><p>Can you be the best pirate? Try to find lots of gold! But beware, some islands have more gold than others, and over time, the island with the most gold may change. Can YOU figure it out? </p><font size='6'>GOOD LUCK, CAPTAIN!!!</font><p>Press any key to begin</p>","13","",NA,NA,NA,NA,""
"image-keyboard-response",3,21469,"0.0-2.0-1.0","s2zthvxk4cjltjq","71.csv","","null","resources/image_sets/111.png","null","",NA,NA,NA,NA,""
"image-keyboard-response",4,21954,"0.0-2.0-2.0","s2zthvxk4cjltjq","71.csv","","483.89999997615814","resources/image_sets/left_highlight.png","37","",NA,NA,NA,NA,""
"image-keyboard-response",5,22053,"0.0-2.0-3.0","s2zthvxk4cjltjq","71.csv","","96","resources/image_sets/mid_highlight.png","38","",NA,NA,NA,NA,""
"image-keyboard-response",6,22245,"0.0-2.0-4.0","s2zthvxk4cjltjq","71.csv","","190.39999997615814","resources/image_sets/right_highlight.png","39","",NA,NA,NA,NA,""
"image-keyboard-response",7,22541,"0.0-2.0-5.0","s2zthvxk4cjltjq","71.csv","","294.60000002384186","resources/image_sets/111.png","13","",NA,NA,NA,NA,""
"image-keyboard-response",8,22662,"0.0-2.0-6.0","s2zthvxk4cjltjq","71.csv","","119.60000002384186","resources/images/coin2.png","13","",NA,NA,NA,NA,""
"image-keyboard-response",9,23211,"0.0-2.0-7.0","s2zthvxk4cjltjq","71.csv","","548.9000000953674","resources/images/fishbone.png","13","",NA,NA,NA,NA,""
"html-keyboard-response",10,23831,"0.0-2.0-8.0","s2zthvxk4cjltjq","71.csv","","617.7999999523163","<p>Your first journey will be a long one, but you will get a well deserved break at the end</p><p>After the break you will have four more journeys, but each will be much shorter than the first, and you will have breaks in between each</p><p>Press Enter to begin</p>","13","",NA,NA,NA,NA,""
"image-keyboard-response",11,24144,"0.0-3.0-0.0","s2zthvxk4cjltjq","71.csv","","310.10000002384186","resources/trios/L2T2A1.jpg","37","restless",0.3,0.9,0.7,0.355023702328154,"false"
"image-keyboard-response",12,24548,"0.0-3.0-1.0","s2zthvxk4cjltjq","71.csv","","null","resources/maskTrios/L2BB.jpg","null","",NA,NA,NA,NA,""
"image-keyboard-response",13,25753,"0.0-3.0-2.0","s2zthvxk4cjltjq","71.csv","","null","resources/images/fishbone.png","null","",NA,NA,NA,NA,""
"image-keyboard-response",14,25858,"0.0-3.1-0.1","s2zthvxk4cjltjq","71.csv","","102.59999990463257","resources/trios/L2T4A2.jpg","37","restless",0.3,0.9,0.7,0.150378908753101,"true"
"image-keyboard-response",15,26266,"0.0-3.1-1.1","s2zthvxk4cjltjq","71.csv","","null","resources/maskTrios/L2BB.jpg","null","",NA,NA,NA,NA,""
"image-keyboard-response",16,27474,"0.0-3.1-2.1","s2zthvxk4cjltjq","71.csv","","null","resources/images/coin2.png","null","",NA,NA,NA,NA,""
"image-keyboard-response",17,27622,"0.0-3.2-0.2","s2zthvxk4cjltjq","71.csv","","145.79999995231628","resources/trios/L2T4A1.jpg","38","restless",0.3,0.9,0.7,0.0231344539919072,"true"
"image-keyboard-response",18,28025,"0.0-3.2-1.2","s2zthvxk4cjltjq","71.csv","","null","resources/maskTrios/BT4B.jpg","null","",NA,NA,NA,NA,""
"image-keyboard-response",19,29231,"0.0-3.2-2.2","s2zthvxk4cjltjq","71.csv","","null","resources/images/coin2.png","null","",NA,NA,NA,NA,""
"image-keyboard-response",20,29247,"0.0-3.3-0.3","s2zthvxk4cjltjq","71.csv","","14.299999952316284","resources/trios/L4T4A2.jpg","37","restless",0.3,0.9,0.7,0.763296318910845,"false"
"image-keyboard-response",21,29649,"0.0-3.3-1.3","s2zthvxk4cjltjq","71.csv","","null","resources/maskTrios/L4BB.jpg","null","",NA,NA,NA,NA,""
"image-keyboard-response",22,30851,"0.0-3.3-2.3","s2zthvxk4cjltjq","71.csv","","null","resources/images/fishbone.png","null","",NA,NA,NA,NA,""
"image-keyboard-response",23,31112,"0.0-3.4-0.4","s2zthvxk4cjltjq","71.csv","","258.89999997615814","resources/trios/L2T4A2.jpg","39","restless",0.3,0.9,0.7,0.797606447341534,"false"
"image-keyboard-response",24,31518,"0.0-3.4-1.4","s2zthvxk4cjltjq","71.csv","","null","resources/maskTrios/BBA2.jpg","null","",NA,NA,NA,NA,""
"image-keyboard-response",25,32722,"0.0-3.4-2.4","s2zthvxk4cjltjq","71.csv","","null","resources/images/fishbone.png","null","",NA,NA,NA,NA,""
"image-keyboard-response",26,32743,"0.0-3.5-0.5","s2zthvxk4cjltjq","71.csv","","18.600000023841858","resources/trios/L4T4A2.jpg","37","restless",0.3,0.9,0.7,0.555151228530751,"false"
"image-keyboard-response",27,33147,"0.0-3.5-1.5","s2zthvxk4cjltjq","71.csv","","null","resources/maskTrios/L4BB.jpg","null","",NA,NA,NA,NA,""
"image-keyboard-response",28,34351,"0.0-3.5-2.5","s2zthvxk4cjltjq","71.csv","","null","resources/images/fishbone.png","null","",NA,NA,NA,NA,""
"image-keyboard-response",29,34656,"0.0-3.6-0.6","s2zthvxk4cjltjq","71.csv","","302.5","resources/trios/L2T4A1.jpg","37","restless",0.3,0.9,0.7,0.476875078483955,"false"
"image-keyboard-response",30,35058,"0.0-3.6-1.6","s2zthvxk4cjltjq","71.csv","","null","resources/maskTrios/L2BB.jpg","null","",NA,NA,NA,NA,""
"image-keyboard-response",31,36262,"0.0-3.6-2.6","s2zthvxk4cjltjq","71.csv","","null","resources/images/fishbone.png","null","",NA,NA,NA,NA,""
"image-keyboard-response",32,36467,"0.0-3.7-0.7","s2zthvxk4cjltjq","71.csv","","202.89999997615814","resources/trios/L2T4A1.jpg","38","restless",0.3,0.9,0.7,0.614724531704536,"true"
"image-keyboard-response",33,36873,"0.0-3.7-1.7","s2zthvxk4cjltjq","71.csv","","null","resources/maskTrios/BT4B.jpg","null","",NA,NA,NA,NA,""
"image-keyboard-response",34,38077,"0.0-3.7-2.7","s2zthvxk4cjltjq","71.csv","","null","resources/images/coin2.png","null","",NA,NA,NA,NA,""
"image-keyboard-response",35,38186,"0.0-3.8-0.8","s2zthvxk4cjltjq","71.csv","","107","resources/trios/L4T2A1.jpg","38","restless",0.3,0.8,0.7,0.775335007088954,"true"
"image-keyboard-response",36,38591,"0.0-3.8-1.8","s2zthvxk4cjltjq","71.csv","","null","resources/maskTrios/BT2B.jpg","null","",NA,NA,NA,NA,""
"image-keyboard-response",37,39794,"0.0-3.8-2.8","s2zthvxk4cjltjq","71.csv","","null","resources/images/coin2.png","null","",NA,NA,NA,NA,""
"image-keyboard-response",38,40006,"0.0-3.9-0.9","s2zthvxk4cjltjq","71.csv","","209.20000004768372","resources/trios/L2T2A2.jpg","38","restless",0.3,0.8,0.7,0.833065334633193,"false"
"image-keyboard-response",39,40408,"0.0-3.9-1.9","s2zthvxk4cjltjq","71.csv","","null","resources/maskTrios/BT2B.jpg","null","",NA,NA,NA,NA,""
"image-keyboard-response",40,41615,"0.0-3.9-2.9","s2zthvxk4cjltjq","71.csv","","null","resources/images/fishbone.png","null","",NA,NA,NA,NA,""
"image-keyboard-response",41,41787,"0.0-3.10-0.10","s2zthvxk4cjltjq","71.csv","","169","resources/trios/L4T2A1.jpg","38","restless",0.3,0.8,0.7,0.6821824686198,"true"
"image-keyboard-response",42,42194,"0.0-3.10-1.10","s2zthvxk4cjltjq","71.csv","","null","resources/maskTrios/BT2B.jpg","null","",NA,NA,NA,NA,""
"image-keyboard-response",43,43397,"0.0-3.10-2.10","s2zthvxk4cjltjq","71.csv","","null","resources/images/coin2.png","null","",NA,NA,NA,NA,""
"image-keyboard-response",44,43942,"0.0-3.11-0.11","s2zthvxk4cjltjq","71.csv","","542.6999999284744","resources/trios/L2T4A1.jpg","38","restless",0.3,0.7,0.7,0.850253407386583,"false"
"image-keyboard-response",45,44349,"0.0-3.11-1.11","s2zthvxk4cjltjq","71.csv","","null","resources/maskTrios/BT4B.jpg","null","",NA,NA,NA,NA,""
"image-keyboard-response",46,45553,"0.0-3.11-2.11","s2zthvxk4cjltjq","71.csv","","null","resources/images/fishbone.png","null","",NA,NA,NA,NA,""
"image-keyboard-response",47,46065,"0.0-3.12-0.12","s2zthvxk4cjltjq","71.csv","","510.5","resources/trios/L2T4A2.jpg","37","restless",0.3,0.7,0.7,0.121468191684946,"true"
"image-keyboard-response",48,46470,"0.0-3.12-1.12","s2zthvxk4cjltjq","71.csv","","null","resources/maskTrios/L2BB.jpg","null","",NA,NA,NA,NA,""
"image-keyboard-response",49,47677,"0.0-3.12-2.12","s2zthvxk4cjltjq","71.csv","","null","resources/images/coin2.png","null","",NA,NA,NA,NA,""
"image-keyboard-response",50,47730,"0.0-3.13-0.13","s2zthvxk4cjltjq","71.csv","","50.300000071525574","resources/trios/L2T4A1.jpg","37","restless",0.3,0.7,0.7,0.352900705988713,"false"
"image-keyboard-response",51,48137,"0.0-3.13-1.13","s2zthvxk4cjltjq","71.csv","","null","resources/maskTrios/L2BB.jpg","null","",NA,NA,NA,NA,""
"image-keyboard-response",52,49341,"0.0-3.13-2.13","s2zthvxk4cjltjq","71.csv","","null","resources/images/fishbone.png","null","",NA,NA,NA,NA,""
"image-keyboard-response",53,49574,"0.0-3.14-0.14","s2zthvxk4cjltjq","71.csv","","229.69999992847443","resources/trios/L2T2A1.jpg","38","restless",0.3,0.7,0.7,0.760535972991069,"false"
"image-keyboard-response",54,49981,"0.0-3.14-1.14","s2zthvxk4cjltjq","71.csv","","null","resources/maskTrios/BT2B.jpg","null","",NA,NA,NA,NA,""
"image-keyboard-response",55,51186,"0.0-3.14-2.14","s2zthvxk4cjltjq","71.csv","","null","resources/images/fishbone.png","null","",NA,NA,NA,NA,""
"image-keyboard-response",56,51421,"0.0-3.15-0.15","s2zthvxk4cjltjq","71.csv","","231.10000002384186","resources/trios/L2T2A2.jpg","37","restless",0.3,0.7,0.8,0.122759976163921,"true"
"image-keyboard-response",57,51823,"0.0-3.15-1.15","s2zthvxk4cjltjq","71.csv","","null","resources/maskTrios/L2BB.jpg","null","",NA,NA,NA,NA,""
"image-keyboard-response",58,53025,"0.0-3.15-2.15","s2zthvxk4cjltjq","71.csv","","null","resources/images/coin2.png","null","",NA,NA,NA,NA,""
"image-keyboard-response",59,53183,"0.0-3.16-0.16","s2zthvxk4cjltjq","71.csv","","157.5","resources/trios/L2T2A2.jpg","37","restless",0.3,0.6,0.8,0.591635235621666,"false"
"image-keyboard-response",60,53588,"0.0-3.16-1.16","s2zthvxk4cjltjq","71.csv","","null","resources/maskTrios/L2BB.jpg","null","",NA,NA,NA,NA,""
"image-keyboard-response",61,54795,"0.0-3.16-2.16","s2zthvxk4cjltjq","71.csv","","null","resources/images/fishbone.png","null","",NA,NA,NA,NA,""
"image-keyboard-response",62,54859,"0.0-3.17-0.17","s2zthvxk4cjltjq","71.csv","","62.60000002384186","resources/trios/L4T4A2.jpg","38","restless",0.3,0.6,0.7,0.958297160102794,"false"
"image-keyboard-response",63,55265,"0.0-3.17-1.17","s2zthvxk4cjltjq","71.csv","","null","resources/maskTrios/BT4B.jpg","null","",NA,NA,NA,NA,""
"image-keyboard-response",64,56468,"0.0-3.17-2.17","s2zthvxk4cjltjq","71.csv","","null","resources/images/fishbone.png","null","",NA,NA,NA,NA,""
"image-keyboard-response",65,56573,"0.0-3.18-0.18","s2zthvxk4cjltjq","71.csv","","102.39999997615814","resources/trios/L2T2A2.jpg","37","restless",0.3,0.6,0.6,0.606052151618904,"false"
"image-keyboard-response",66,56977,"0.0-3.18-1.18","s2zthvxk4cjltjq","71.csv","","null","resources/maskTrios/L2BB.jpg","null","",NA,NA,NA,NA,""
"image-keyboard-response",67,58184,"0.0-3.18-2.18","s2zthvxk4cjltjq","71.csv","","null","resources/images/fishbone.png","null","",NA,NA,NA,NA,""
"image-keyboard-response",68,58301,"0.0-3.19-0.19","s2zthvxk4cjltjq","71.csv","","114.89999997615814","resources/trios/L2T4A2.jpg","37","restless",0.3,0.6,0.6,0.335328343314446,"false"
"image-keyboard-response",69,58707,"0.0-3.19-1.19","s2zthvxk4cjltjq","71.csv","","null","resources/maskTrios/L2BB.jpg","null","",NA,NA,NA,NA,""
"image-keyboard-response",70,59913,"0.0-3.19-2.19","s2zthvxk4cjltjq","71.csv","","null","resources/images/fishbone.png","null","",NA,NA,NA,NA,""
"image-keyboard-response",71,59924,"0.0-3.20-0.20","s2zthvxk4cjltjq","71.csv","","8.600000023841858","resources/trios/L4T4A2.jpg","39","restless",0.4,0.6,0.6,0.0845414834098943,"true"
"image-keyboard-response",72,60330,"0.0-3.20-1.20","s2zthvxk4cjltjq","71.csv","","null","resources/maskTrios/BBA2.jpg","null","",NA,NA,NA,NA,""
"image-keyboard-response",73,61537,"0.0-3.20-2.20","s2zthvxk4cjltjq","71.csv","","null","resources/images/coin2.png","null","",NA,NA,NA,NA,""
"image-keyboard-response",74,62225,"0.0-3.21-0.21","s2zthvxk4cjltjq","71.csv","","686.8000000715256","resources/trios/L4T4A1.jpg","39","restless",0.4,0.6,0.6,0.786256749491531,"false"
"image-keyboard-response",75,62630,"0.0-3.21-1.21","s2zthvxk4cjltjq","71.csv","","null","resources/maskTrios/BBA1.jpg","null","",NA,NA,NA,NA,""
"image-keyboard-response",76,63837,"0.0-3.21-2.21","s2zthvxk4cjltjq","71.csv","","null","resources/images/fishbone.png","null","",NA,NA,NA,NA,""
"image-keyboard-response",77,64265,"0.0-3.22-0.22","s2zthvxk4cjltjq","71.csv","","425.89999997615814","resources/trios/L2T4A1.jpg","38","restless",0.4,0.6,0.6,0.770353666534714,"false"
"image-keyboard-response",78,64668,"0.0-3.22-1.22","s2zthvxk4cjltjq","71.csv","","null","resources/maskTrios/BT4B.jpg","null","",NA,NA,NA,NA,""
"image-keyboard-response",79,65874,"0.0-3.22-2.22","s2zthvxk4cjltjq","71.csv","","null","resources/images/fishbone.png","null","",NA,NA,NA,NA,""
"image-keyboard-response",80,66043,"0.0-3.23-0.23","s2zthvxk4cjltjq","71.csv","","166.59999990463257","resources/trios/L2T4A2.jpg","37","restless",0.4,0.6,0.6,0.322784219007742,"true"
"image-keyboard-response",81,66448,"0.0-3.23-1.23","s2zthvxk4cjltjq","71.csv","","null","resources/maskTrios/L2BB.jpg","null","",NA,NA,NA,NA,""
"image-keyboard-response",82,67652,"0.0-3.23-2.23","s2zthvxk4cjltjq","71.csv","","null","resources/images/coin2.png","null","",NA,NA,NA,NA,""
"image-keyboard-response",83,67694,"0.0-3.24-0.24","s2zthvxk4cjltjq","71.csv","","39.60000002384186","resources/trios/L4T4A2.jpg","37","restless",0.4,0.5,0.6,0.778803808743456,"false"
"image-keyboard-response",84,68101,"0.0-3.24-1.24","s2zthvxk4cjltjq","71.csv","","null","resources/maskTrios/L4BB.jpg","null","",NA,NA,NA,NA,""
"image-keyboard-response",85,69308,"0.0-3.24-2.24","s2zthvxk4cjltjq","71.csv","","null","resources/images/fishbone.png","null","",NA,NA,NA,NA,""
"image-keyboard-response",86,69350,"0.0-3.25-0.25","s2zthvxk4cjltjq","71.csv","","40.10000002384186","resources/trios/L4T2A2.jpg","37","restless",0.4,0.5,0.6,0.0354597345842054,"true"
"image-keyboard-response",87,69756,"0.0-3.25-1.25","s2zthvxk4cjltjq","71.csv","","null","resources/maskTrios/L4BB.jpg","null","",NA,NA,NA,NA,""
"image-keyboard-response",88,70960,"0.0-3.25-2.25","s2zthvxk4cjltjq","71.csv","","null","resources/images/coin2.png","null","",NA,NA,NA,NA,""
"image-keyboard-response",89,71115,"0.0-3.26-0.26","s2zthvxk4cjltjq","71.csv","","152.40000009536743","resources/trios/L4T2A1.jpg","37","restless",0.4,0.5,0.7,0.0298432337605734,"true"
"image-keyboard-response",90,71518,"0.0-3.26-1.26","s2zthvxk4cjltjq","71.csv","","null","resources/maskTrios/L4BB.jpg","null","",NA,NA,NA,NA,""
"image-keyboard-response",91,72719,"0.0-3.26-2.26","s2zthvxk4cjltjq","71.csv","","null","resources/images/coin2.png","null","",NA,NA,NA,NA,""
"image-keyboard-response",92,72812,"0.0-3.27-0.27","s2zthvxk4cjltjq","71.csv","","90.79999995231628","resources/trios/L4T4A1.jpg","37","restless",0.4,0.5,0.7,0.0308912334914637,"true"
"image-keyboard-response",93,73220,"0.0-3.27-1.27","s2zthvxk4cjltjq","71.csv","","null","resources/maskTrios/L4BB.jpg","null","",NA,NA,NA,NA,""
"image-keyboard-response",94,74427,"0.0-3.27-2.27","s2zthvxk4cjltjq","71.csv","","null","resources/images/coin2.png","null","",NA,NA,NA,NA,""
"image-keyboard-response",95,74528,"0.0-3.28-0.28","s2zthvxk4cjltjq","71.csv","","98.60000002384186","resources/trios/L4T4A1.jpg","37","restless",0.4,0.4,0.7,0.253678583602891,"true"
"image-keyboard-response",96,74932,"0.0-3.28-1.28","s2zthvxk4cjltjq","71.csv","","null","resources/maskTrios/L4BB.jpg","null","",NA,NA,NA,NA,""
"image-keyboard-response",97,76136,"0.0-3.28-2.28","s2zthvxk4cjltjq","71.csv","","null","resources/images/coin2.png","null","",NA,NA,NA,NA,""
"image-keyboard-response",98,76170,"0.0-3.29-0.29","s2zthvxk4cjltjq","71.csv","","32.299999952316284","resources/trios/L2T2A2.jpg","37","restless",0.4,0.4,0.7,0.791941418431188,"false"
"image-keyboard-response",99,76577,"0.0-3.29-1.29","s2zthvxk4cjltjq","71.csv","","null","resources/maskTrios/L2BB.jpg","null","",NA,NA,NA,NA,""
"image-keyboard-response",100,77784,"0.0-3.29-2.29","s2zthvxk4cjltjq","71.csv","","null","resources/images/fishbone.png","null","",NA,NA,NA,NA,""
"image-keyboard-response",101,77869,"0.0-3.30-0.30","s2zthvxk4cjltjq","71.csv","","82.89999997615814","resources/trios/L4T4A1.jpg","37","restless",0.4,0.3,0.7,0.518369692269735,"false"
"image-keyboard-response",102,78276,"0.0-3.30-1.30","s2zthvxk4cjltjq","71.csv","","null","resources/maskTrios/L4BB.jpg","null","",NA,NA,NA,NA,""
"image-keyboard-response",103,79479,"0.0-3.30-2.30","s2zthvxk4cjltjq","71.csv","","null","resources/images/fishbone.png","null","",NA,NA,NA,NA,""
"image-keyboard-response",104,79778,"0.0-3.31-0.31","s2zthvxk4cjltjq","71.csv","","296.60000002384186","resources/trios/L2T4A2.jpg","38","restless",0.4,0.4,0.7,0.784109899345672,"false"
"image-keyboard-response",105,80185,"0.0-3.31-1.31","s2zthvxk4cjltjq","71.csv","","null","resources/maskTrios/BT4B.jpg","null","",NA,NA,NA,NA,""
"image-keyboard-response",106,81388,"0.0-3.31-2.31","s2zthvxk4cjltjq","71.csv","","null","resources/images/fishbone.png","null","",NA,NA,NA,NA,""
"image-keyboard-response",107,81500,"0.0-3.32-0.32","s2zthvxk4cjltjq","71.csv","","111","resources/trios/L2T4A1.jpg","37","restless",0.4,0.4,0.7,0.221599711881256,"true"
"image-keyboard-response",108,81907,"0.0-3.32-1.32","s2zthvxk4cjltjq","71.csv","","null","resources/maskTrios/L2BB.jpg","null","",NA,NA,NA,NA,""
"image-keyboard-response",109,83112,"0.0-3.32-2.32","s2zthvxk4cjltjq","71.csv","","null","resources/images/coin2.png","null","",NA,NA,NA,NA,""
"image-keyboard-response",110,83181,"0.0-3.33-0.33","s2zthvxk4cjltjq","71.csv","","66.70000004768372","resources/trios/L2T4A1.jpg","37","restless",0.4,0.4,0.7,0.050746421167726,"true"
"image-keyboard-response",111,83588,"0.0-3.33-1.33","s2zthvxk4cjltjq","71.csv","","null","resources/maskTrios/L2BB.jpg","null","",NA,NA,NA,NA,""
"image-keyboard-response",112,84795,"0.0-3.33-2.33","s2zthvxk4cjltjq","71.csv","","null","resources/images/coin2.png","null","",NA,NA,NA,NA,""
"image-keyboard-response",113,84951,"0.0-3.34-0.34","s2zthvxk4cjltjq","71.csv","","153.29999995231628","resources/trios/L2T4A1.jpg","37","restless",0.4,0.4,0.7,0.919456244200038,"false"
"image-keyboard-response",114,85358,"0.0-3.34-1.34","s2zthvxk4cjltjq","71.csv","","null","resources/maskTrios/L2BB.jpg","null","",NA,NA,NA,NA,""
"image-keyboard-response",115,86565,"0.0-3.34-2.34","s2zthvxk4cjltjq","71.csv","","null","resources/images/fishbone.png","null","",NA,NA,NA,NA,""
"image-keyboard-response",116,86661,"0.0-3.35-0.35","s2zthvxk4cjltjq","71.csv","","93.29999995231628","resources/trios/L2T4A1.jpg","39","restless",0.4,0.4,0.7,0.184998657767183,"true"
"image-keyboard-response",117,87066,"0.0-3.35-1.35","s2zthvxk4cjltjq","71.csv","","null","resources/maskTrios/BBA1.jpg","null","",NA,NA,NA,NA,""
"image-keyboard-response",118,88270,"0.0-3.35-2.35","s2zthvxk4cjltjq","71.csv","","null","resources/images/coin2.png","null","",NA,NA,NA,NA,""
"image-keyboard-response",119,88979,"0.0-3.36-0.36","s2zthvxk4cjltjq","71.csv","","707.3999999761581","resources/trios/L4T2A1.jpg","39","restless",0.4,0.4,0.7,0.970968482185847,"false"
"image-keyboard-response",120,89381,"0.0-3.36-1.36","s2zthvxk4cjltjq","71.csv","","null","resources/maskTrios/BBA1.jpg","null","",NA,NA,NA,NA,""
"image-keyboard-response",121,90585,"0.0-3.36-2.36","s2zthvxk4cjltjq","71.csv","","null","resources/images/fishbone.png","null","",NA,NA,NA,NA,""
"image-keyboard-response",122,90647,"0.0-3.37-0.37","s2zthvxk4cjltjq","71.csv","","60.5","resources/trios/L2T2A2.jpg","39","restless",0.4,0.4,0.7,0.0334344448346833,"true"
"image-keyboard-response",123,91054,"0.0-3.37-1.37","s2zthvxk4cjltjq","71.csv","","null","resources/maskTrios/BBA2.jpg","null","",NA,NA,NA,NA,""
"image-keyboard-response",124,92256,"0.0-3.37-2.37","s2zthvxk4cjltjq","71.csv","","null","resources/images/coin2.png","null","",NA,NA,NA,NA,""
"image-keyboard-response",125,92421,"0.0-3.38-0.38","s2zthvxk4cjltjq","71.csv","","163.19999992847443","resources/trios/L4T2A2.jpg","39","restless",0.4,0.4,0.7,0.809639192572793,"false"
"image-keyboard-response",126,92828,"0.0-3.38-1.38","s2zthvxk4cjltjq","71.csv","","null","resources/maskTrios/BBA2.jpg","null","",NA,NA,NA,NA,""
"image-keyboard-response",127,94032,"0.0-3.38-2.38","s2zthvxk4cjltjq","71.csv","","null","resources/images/fishbone.png","null","",NA,NA,NA,NA,""
"image-keyboard-response",128,94136,"0.0-3.39-0.39","s2zthvxk4cjltjq","71.csv","","101.39999997615814","resources/trios/L2T4A1.jpg","38","restless",0.4,0.4,0.8,0.565927820340114,"false"
"image-keyboard-response",129,94541,"0.0-3.39-1.39","s2zthvxk4cjltjq","71.csv","","null","resources/maskTrios/BT4B.jpg","null","",NA,NA,NA,NA,""
"image-keyboard-response",130,95748,"0.0-3.39-2.39","s2zthvxk4cjltjq","71.csv","","null","resources/images/fishbone.png","null","",NA,NA,NA,NA,""
"image-keyboard-response",131,95810,"0.0-3.40-0.40","s2zthvxk4cjltjq","71.csv","","60.700000047683716","resources/trios/L4T4A2.jpg","38","restless",0.4,0.4,0.8,0.348020866308725,"true"
"image-keyboard-response",132,96216,"0.0-3.40-1.40","s2zthvxk4cjltjq","71.csv","","null","resources/maskTrios/BT4B.jpg","null","",NA,NA,NA,NA,""
"image-keyboard-response",133,97421,"0.0-3.40-2.40","s2zthvxk4cjltjq","71.csv","","null","resources/images/coin2.png","null","",NA,NA,NA,NA,""
"image-keyboard-response",134,97481,"0.0-3.41-0.41","s2zthvxk4cjltjq","71.csv","","58","resources/trios/L4T4A1.jpg","38","restless",0.3,0.4,0.8,0.495792666463331,"false"
"image-keyboard-response",135,97888,"0.0-3.41-1.41","s2zthvxk4cjltjq","71.csv","","null","resources/maskTrios/BT4B.jpg","null","",NA,NA,NA,NA,""
"image-keyboard-response",136,99091,"0.0-3.41-2.41","s2zthvxk4cjltjq","71.csv","","null","resources/images/fishbone.png","null","",NA,NA,NA,NA,""
"image-keyboard-response",137,99204,"0.0-3.42-0.42","s2zthvxk4cjltjq","71.csv","","110.39999997615814","resources/trios/L2T4A1.jpg","39","restless",0.3,0.5,0.8,0.257837748383407,"true"
"image-keyboard-response",138,99608,"0.0-3.42-1.42","s2zthvxk4cjltjq","71.csv","","null","resources/maskTrios/BBA1.jpg","null","",NA,NA,NA,NA,""
"image-keyboard-response",139,100815,"0.0-3.42-2.42","s2zthvxk4cjltjq","71.csv","","null","resources/images/coin2.png","null","",NA,NA,NA,NA,""
"image-keyboard-response",140,100895,"0.0-3.43-0.43","s2zthvxk4cjltjq","71.csv","","77.89999997615814","resources/trios/L4T4A2.jpg","39","restless",0.3,0.5,0.8,0.893307205995919,"false"
"image-keyboard-response",141,101302,"0.0-3.43-1.43","s2zthvxk4cjltjq","71.csv","","null","resources/maskTrios/BBA2.jpg","null","",NA,NA,NA,NA,""
"image-keyboard-response",142,102506,"0.0-3.43-2.43","s2zthvxk4cjltjq","71.csv","","null","resources/images/fishbone.png","null","",NA,NA,NA,NA,""
"image-keyboard-response",143,102585,"0.0-3.44-0.44","s2zthvxk4cjltjq","71.csv","","76.09999990463257","resources/trios/L2T2A1.jpg","39","restless",0.3,0.5,0.8,0.600357387368565,"true"
"image-keyboard-response",144,102992,"0.0-3.44-1.44","s2zthvxk4cjltjq","71.csv","","null","resources/maskTrios/BBA1.jpg","null","",NA,NA,NA,NA,""
"image-keyboard-response",145,104199,"0.0-3.44-2.44","s2zthvxk4cjltjq","71.csv","","null","resources/images/coin2.png","null","",NA,NA,NA,NA,""
"image-keyboard-response",146,104365,"0.0-3.45-0.45","s2zthvxk4cjltjq","71.csv","","163.70000004768372","resources/trios/L2T4A1.jpg","39","restless",0.3,0.5,0.9,0.158974444137565,"true"
"image-keyboard-response",147,104771,"0.0-3.45-1.45","s2zthvxk4cjltjq","71.csv","","null","resources/maskTrios/BBA1.jpg","null","",NA,NA,NA,NA,""
"image-keyboard-response",148,105974,"0.0-3.45-2.45","s2zthvxk4cjltjq","71.csv","","null","resources/images/coin2.png","null","",NA,NA,NA,NA,""
"image-keyboard-response",149,105980,"0.0-3.46-0.46","s2zthvxk4cjltjq","71.csv","","2.799999952316284","resources/trios/L4T4A2.jpg","39","restless",0.3,0.5,0.9,0.502317064053348,"true"
"image-keyboard-response",150,106386,"0.0-3.46-1.46","s2zthvxk4cjltjq","71.csv","","null","resources/maskTrios/BBA2.jpg","null","",NA,NA,NA,NA,""
"image-keyboard-response",151,107591,"0.0-3.46-2.46","s2zthvxk4cjltjq","71.csv","","null","resources/images/coin2.png","null","",NA,NA,NA,NA,""
"image-keyboard-response",152,107678,"0.0-3.47-0.47","s2zthvxk4cjltjq","71.csv","","85.20000004768372","resources/trios/L2T2A2.jpg","39","restless",0.3,0.5,0.9,0.0895818602941192,"true"
"image-keyboard-response",153,108079,"0.0-3.47-1.47","s2zthvxk4cjltjq","71.csv","","null","resources/maskTrios/BBA2.jpg","null","",NA,NA,NA,NA,""
"image-keyboard-response",154,109283,"0.0-3.47-2.47","s2zthvxk4cjltjq","71.csv","","null","resources/images/coin2.png","null","",NA,NA,NA,NA,""
"image-keyboard-response",155,109370,"0.0-3.48-0.48","s2zthvxk4cjltjq","71.csv","","84.60000002384186","resources/trios/L2T4A2.jpg","39","restless",0.4,0.5,0.9,0.0583392135971359,"true"
"image-keyboard-response",156,109774,"0.0-3.48-1.48","s2zthvxk4cjltjq","71.csv","","null","resources/maskTrios/BBA2.jpg","null","",NA,NA,NA,NA,""
"image-keyboard-response",157,110980,"0.0-3.48-2.48","s2zthvxk4cjltjq","71.csv","","null","resources/images/coin2.png","null","",NA,NA,NA,NA,""
"image-keyboard-response",158,111028,"0.0-3.49-0.49","s2zthvxk4cjltjq","71.csv","","45.299999952316284","resources/trios/L2T2A2.jpg","39","restless",0.4,0.5,0.8,0.957464386922697,"false"
"image-keyboard-response",159,111432,"0.0-3.49-1.49","s2zthvxk4cjltjq","71.csv","","null","resources/maskTrios/BBA2.jpg","null","",NA,NA,NA,NA,""
"image-keyboard-response",160,112633,"0.0-3.49-2.49","s2zthvxk4cjltjq","71.csv","","null","resources/images/fishbone.png","null","",NA,NA,NA,NA,""
"image-keyboard-response",161,112795,"0.0-3.50-0.50","s2zthvxk4cjltjq","71.csv","","159.89999997615814","resources/trios/L4T4A2.jpg","39","restless",0.4,0.5,0.7,0.112803893148512,"true"
"image-keyboard-response",162,113202,"0.0-3.50-1.50","s2zthvxk4cjltjq","71.csv","","null","resources/maskTrios/BBA2.jpg","null","",NA,NA,NA,NA,""
"image-keyboard-response",163,114405,"0.0-3.50-2.50","s2zthvxk4cjltjq","71.csv","","null","resources/images/coin2.png","null","",NA,NA,NA,NA,""
"image-keyboard-response",164,114576,"0.0-3.51-0.51","s2zthvxk4cjltjq","71.csv","","169.39999997615814","resources/trios/L4T2A2.jpg","39","restless",0.4,0.5,0.7,0.869073603936087,"false"
"image-keyboard-response",165,114982,"0.0-3.51-1.51","s2zthvxk4cjltjq","71.csv","","null","resources/maskTrios/BBA2.jpg","null","",NA,NA,NA,NA,""
"image-keyboard-response",166,116186,"0.0-3.51-2.51","s2zthvxk4cjltjq","71.csv","","null","resources/images/fishbone.png","null","",NA,NA,NA,NA,""
"image-keyboard-response",167,116243,"0.0-3.52-0.52","s2zthvxk4cjltjq","71.csv","","55","resources/trios/L4T2A1.jpg","39","restless",0.4,0.5,0.7,0.225234743470411,"true"
"image-keyboard-response",168,116650,"0.0-3.52-1.52","s2zthvxk4cjltjq","71.csv","","null","resources/maskTrios/BBA1.jpg","null","",NA,NA,NA,NA,""
"image-keyboard-response",169,117857,"0.0-3.52-2.52","s2zthvxk4cjltjq","71.csv","","null","resources/images/coin2.png","null","",NA,NA,NA,NA,""
"image-keyboard-response",170,117868,"0.0-3.53-0.53","s2zthvxk4cjltjq","71.csv","","8.800000071525574","resources/trios/L2T4A1.jpg","39","restless",0.4,0.5,0.7,0.984837549126747,"false"
"image-keyboard-response",171,118275,"0.0-3.53-1.53","s2zthvxk4cjltjq","71.csv","","null","resources/maskTrios/BBA1.jpg","null","",NA,NA,NA,NA,""
"image-keyboard-response",172,119480,"0.0-3.53-2.53","s2zthvxk4cjltjq","71.csv","","null","resources/images/fishbone.png","null","",NA,NA,NA,NA,""
"image-keyboard-response",173,119892,"0.0-3.54-0.54","s2zthvxk4cjltjq","71.csv","","409.8000000715256","resources/trios/L2T4A1.jpg","39","restless",0.5,0.5,0.7,0.338205968508417,"true"
"image-keyboard-response",174,120295,"0.0-3.54-1.54","s2zthvxk4cjltjq","71.csv","","null","resources/maskTrios/BBA1.jpg","null","",NA,NA,NA,NA,""
"image-keyboard-response",175,121502,"0.0-3.54-2.54","s2zthvxk4cjltjq","71.csv","","null","resources/images/coin2.png","null","",NA,NA,NA,NA,""
"image-keyboard-response",176,121971,"0.0-3.55-0.55","s2zthvxk4cjltjq","71.csv","","466.59999990463257","resources/trios/L2T2A2.jpg","39","restless",0.5,0.5,0.6,0.308006708747966,"true"
"image-keyboard-response",177,122374,"0.0-3.55-1.55","s2zthvxk4cjltjq","71.csv","","null","resources/maskTrios/BBA2.jpg","null","",NA,NA,NA,NA,""
"image-keyboard-response",178,123579,"0.0-3.55-2.55","s2zthvxk4cjltjq","71.csv","","null","resources/images/coin2.png","null","",NA,NA,NA,NA,""
"image-keyboard-response",179,123911,"0.0-3.56-0.56","s2zthvxk4cjltjq","71.csv","","330.10000002384186","resources/trios/L4T4A1.jpg","39","restless",0.5,0.5,0.6,0.423226632310481,"true"
"image-keyboard-response",180,124318,"0.0-3.56-1.56","s2zthvxk4cjltjq","71.csv","","null","resources/maskTrios/BBA1.jpg","null","",NA,NA,NA,NA,""
"image-keyboard-response",181,125525,"0.0-3.56-2.56","s2zthvxk4cjltjq","71.csv","","null","resources/images/coin2.png","null","",NA,NA,NA,NA,""
"image-keyboard-response",182,126311,"0.0-3.57-0.57","s2zthvxk4cjltjq","71.csv","","784.5999999046326","resources/trios/L2T2A1.jpg","39","restless",0.5,0.5,0.6,0.387851200952575,"true"
"image-keyboard-response",183,126718,"0.0-3.57-1.57","s2zthvxk4cjltjq","71.csv","","null","resources/maskTrios/BBA1.jpg","null","",NA,NA,NA,NA,""
"image-keyboard-response",184,127924,"0.0-3.57-2.57","s2zthvxk4cjltjq","71.csv","","null","resources/images/coin2.png","null","",NA,NA,NA,NA,""
"image-keyboard-response",185,134026,"0.0-3.58-0.58","s2zthvxk4cjltjq","71.csv","","6100.5","resources/trios/L4T4A2.jpg","39","restless",0.5,0.5,0.6,0.0931790047397334,"true"
"image-keyboard-response",186,134432,"0.0-3.58-1.58","s2zthvxk4cjltjq","71.csv","","null","resources/maskTrios/BBA2.jpg","null","",NA,NA,NA,NA,""
"image-keyboard-response",187,135639,"0.0-3.58-2.58","s2zthvxk4cjltjq","71.csv","","null","resources/images/coin2.png","null","",NA,NA,NA,NA,""
"image-keyboard-response",188,137323,"0.0-3.59-0.59","s2zthvxk4cjltjq","71.csv","","1681.5","resources/trios/L4T2A2.jpg","39","restless",0.5,0.5,0.6,0.206612963358572,"true"
"image-keyboard-response",189,137730,"0.0-3.59-1.59","s2zthvxk4cjltjq","71.csv","","null","resources/maskTrios/BBA2.jpg","null","",NA,NA,NA,NA,""
"image-keyboard-response",190,138937,"0.0-3.59-2.59","s2zthvxk4cjltjq","71.csv","","null","resources/images/coin2.png","null","",NA,NA,NA,NA,""
"image-keyboard-response",191,140680,"0.0-3.60-0.60","s2zthvxk4cjltjq","71.csv","","1740.7000000476837","resources/trios/L2T4A1.jpg","39","restless",0.5,0.5,0.6,0.440893379871249,"true"
"image-keyboard-response",192,141086,"0.0-3.60-1.60","s2zthvxk4cjltjq","71.csv","","null","resources/maskTrios/BBA1.jpg","null","",NA,NA,NA,NA,""
"image-keyboard-response",193,142294,"0.0-3.60-2.60","s2zthvxk4cjltjq","71.csv","","null","resources/images/coin2.png","null","",NA,NA,NA,NA,""
"image-keyboard-response",194,142641,"0.0-3.61-0.61","s2zthvxk4cjltjq","71.csv","","344.7999999523163","resources/trios/L4T4A1.jpg","39","restless",0.5,0.5,0.6,0.024127732069406,"true"
"image-keyboard-response",195,143048,"0.0-3.61-1.61","s2zthvxk4cjltjq","71.csv","","null","resources/maskTrios/BBA1.jpg","null","",NA,NA,NA,NA,""
"image-keyboard-response",196,144255,"0.0-3.61-2.61","s2zthvxk4cjltjq","71.csv","","null","resources/images/coin2.png","null","",NA,NA,NA,NA,""
"image-keyboard-response",197,144488,"0.0-3.62-0.62","s2zthvxk4cjltjq","71.csv","","229.89999997615814","resources/trios/L4T2A2.jpg","39","restless",0.5,0.5,0.6,0.993596906111125,"false"
"image-keyboard-response",198,144893,"0.0-3.62-1.62","s2zthvxk4cjltjq","71.csv","","null","resources/maskTrios/BBA2.jpg","null","",NA,NA,NA,NA,""
"image-keyboard-response",199,146100,"0.0-3.62-2.62","s2zthvxk4cjltjq","71.csv","","null","resources/images/fishbone.png","null","",NA,NA,NA,NA,""
"image-keyboard-response",200,146823,"0.0-3.63-0.63","s2zthvxk4cjltjq","71.csv","","720.5","resources/trios/L2T2A1.jpg","39","restless",0.5,0.5,0.6,0.50099025118218,"true"
"image-keyboard-response",201,147230,"0.0-3.63-1.63","s2zthvxk4cjltjq","71.csv","","null","resources/maskTrios/BBA1.jpg","null","",NA,NA,NA,NA,""
"image-keyboard-response",202,148436,"0.0-3.63-2.63","s2zthvxk4cjltjq","71.csv","","null","resources/images/coin2.png","null","",NA,NA,NA,NA,""
"image-keyboard-response",203,148607,"0.0-3.64-0.64","s2zthvxk4cjltjq","71.csv","","168.20000004768372","resources/trios/L4T2A2.jpg","39","restless",0.5,0.4,0.6,0.883556302297361,"false"
"image-keyboard-response",204,149012,"0.0-3.64-1.64","s2zthvxk4cjltjq","71.csv","","null","resources/maskTrios/BBA2.jpg","null","",NA,NA,NA,NA,""
"image-keyboard-response",205,150215,"0.0-3.64-2.64","s2zthvxk4cjltjq","71.csv","","null","resources/images/fishbone.png","null","",NA,NA,NA,NA,""
"image-keyboard-response",206,150284,"0.0-3.65-0.65","s2zthvxk4cjltjq","71.csv","","66.5","resources/trios/L4T2A1.jpg","39","restless",0.5,0.4,0.6,0.059105256903728,"true"
"image-keyboard-response",207,150691,"0.0-3.65-1.65","s2zthvxk4cjltjq","71.csv","","null","resources/maskTrios/BBA1.jpg","null","",NA,NA,NA,NA,""
"image-keyboard-response",208,151898,"0.0-3.65-2.65","s2zthvxk4cjltjq","71.csv","","null","resources/images/coin2.png","null","",NA,NA,NA,NA,""
"image-keyboard-response",209,152226,"0.0-3.66-0.66","s2zthvxk4cjltjq","71.csv","","325.5","resources/trios/L2T2A2.jpg","39","restless",0.6,0.4,0.6,0.262185914658863,"true"
"image-keyboard-response",210,152633,"0.0-3.66-1.66","s2zthvxk4cjltjq","71.csv","","null","resources/maskTrios/BBA2.jpg","null","",NA,NA,NA,NA,""
"image-keyboard-response",211,153840,"0.0-3.66-2.66","s2zthvxk4cjltjq","71.csv","","null","resources/images/coin2.png","null","",NA,NA,NA,NA,""
"image-keyboard-response",212,154024,"0.0-3.67-0.67","s2zthvxk4cjltjq","71.csv","","182.29999995231628","resources/trios/L4T2A2.jpg","39","restless",0.6,0.4,0.5,0.671471940869599,"false"
"image-keyboard-response",213,154431,"0.0-3.67-1.67","s2zthvxk4cjltjq","71.csv","","null","resources/maskTrios/BBA2.jpg","null","",NA,NA,NA,NA,""
"image-keyboard-response",214,155632,"0.0-3.67-2.67","s2zthvxk4cjltjq","71.csv","","null","resources/images/fishbone.png","null","",NA,NA,NA,NA,""
"image-keyboard-response",215,155843,"0.0-3.68-0.68","s2zthvxk4cjltjq","71.csv","","208.20000004768372","resources/trios/L2T2A2.jpg","39","restless",0.5,0.4,0.5,0.482303174586909,"true"
"image-keyboard-response",216,156250,"0.0-3.68-1.68","s2zthvxk4cjltjq","71.csv","","null","resources/maskTrios/BBA2.jpg","null","",NA,NA,NA,NA,""
"image-keyboard-response",217,157457,"0.0-3.68-2.68","s2zthvxk4cjltjq","71.csv","","null","resources/images/coin2.png","null","",NA,NA,NA,NA,""
"image-keyboard-response",218,157688,"0.0-3.69-0.69","s2zthvxk4cjltjq","71.csv","","228.39999997615814","resources/trios/L2T4A2.jpg","39","restless",0.5,0.4,0.4,0.925762331534544,"false"
"image-keyboard-response",219,158095,"0.0-3.69-1.69","s2zthvxk4cjltjq","71.csv","","null","resources/maskTrios/BBA2.jpg","null","",NA,NA,NA,NA,""
"image-keyboard-response",220,159298,"0.0-3.69-2.69","s2zthvxk4cjltjq","71.csv","","null","resources/images/fishbone.png","null","",NA,NA,NA,NA,""
"image-keyboard-response",221,159357,"0.0-3.70-0.70","s2zthvxk4cjltjq","71.csv","","56.89999997615814","resources/trios/L2T2A2.jpg","39","restless",0.5,0.4,0.4,0.562018383464944,"false"
"image-keyboard-response",222,159764,"0.0-3.70-1.70","s2zthvxk4cjltjq","71.csv","","null","resources/maskTrios/BBA2.jpg","null","",NA,NA,NA,NA,""
"image-keyboard-response",223,160966,"0.0-3.70-2.70","s2zthvxk4cjltjq","71.csv","","null","resources/images/fishbone.png","null","",NA,NA,NA,NA,""
"image-keyboard-response",224,161267,"0.0-3.71-0.71","s2zthvxk4cjltjq","71.csv","","299","resources/trios/L4T2A1.jpg","38","restless",0.5,0.4,0.4,0.25127946546705,"true"
"image-keyboard-response",225,161673,"0.0-3.71-1.71","s2zthvxk4cjltjq","71.csv","","null","resources/maskTrios/BT2B.jpg","null","",NA,NA,NA,NA,""
"image-keyboard-response",226,162876,"0.0-3.71-2.71","s2zthvxk4cjltjq","71.csv","","null","resources/images/coin2.png","null","",NA,NA,NA,NA,""
"image-keyboard-response",227,162909,"0.0-3.72-0.72","s2zthvxk4cjltjq","71.csv","","30.799999952316284","resources/trios/L2T4A2.jpg","38","restless",0.5,0.4,0.4,0.22997256481241,"true"
"image-keyboard-response",228,163311,"0.0-3.72-1.72","s2zthvxk4cjltjq","71.csv","","null","resources/maskTrios/BT4B.jpg","null","",NA,NA,NA,NA,""
"image-keyboard-response",229,164518,"0.0-3.72-2.72","s2zthvxk4cjltjq","71.csv","","null","resources/images/coin2.png","null","",NA,NA,NA,NA,""
"image-keyboard-response",230,164714,"0.0-3.73-0.73","s2zthvxk4cjltjq","71.csv","","194.30000007152557","resources/trios/L2T4A1.jpg","38","restless",0.5,0.4,0.3,0.863816390170708,"false"
"image-keyboard-response",231,165122,"0.0-3.73-1.73","s2zthvxk4cjltjq","71.csv","","null","resources/maskTrios/BT4B.jpg","null","",NA,NA,NA,NA,""
"image-keyboard-response",232,166324,"0.0-3.73-2.73","s2zthvxk4cjltjq","71.csv","","null","resources/images/fishbone.png","null","",NA,NA,NA,NA,""
"image-keyboard-response",233,166341,"0.0-3.74-0.74","s2zthvxk4cjltjq","71.csv","","15","resources/trios/L2T4A1.jpg","38","restless",0.5,0.4,0.3,0.367226658845256,"true"
"image-keyboard-response",234,166747,"0.0-3.74-1.74","s2zthvxk4cjltjq","71.csv","","null","resources/maskTrios/BT4B.jpg","null","",NA,NA,NA,NA,""
"image-keyboard-response",235,167954,"0.0-3.74-2.74","s2zthvxk4cjltjq","71.csv","","null","resources/images/coin2.png","null","",NA,NA,NA,NA,""
"image-keyboard-response",236,168357,"0.0-3.75-0.75","s2zthvxk4cjltjq","71.csv","","400.3000000715256","resources/trios/L4T2A2.jpg","38","restless",0.5,0.4,0.3,0.274694920495949,"true"
"image-keyboard-response",237,168762,"0.0-3.75-1.75","s2zthvxk4cjltjq","71.csv","","null","resources/maskTrios/BT2B.jpg","null","",NA,NA,NA,NA,""
"image-keyboard-response",238,169969,"0.0-3.75-2.75","s2zthvxk4cjltjq","71.csv","","null","resources/images/coin2.png","null","",NA,NA,NA,NA,""
"image-keyboard-response",239,170027,"0.0-3.76-0.76","s2zthvxk4cjltjq","71.csv","","56.10000002384186","resources/trios/L2T4A1.jpg","38","restless",0.5,0.4,0.3,0.141533082851757,"true"
"image-keyboard-response",240,170434,"0.0-3.76-1.76","s2zthvxk4cjltjq","71.csv","","null","resources/maskTrios/BT4B.jpg","null","",NA,NA,NA,NA,""
"image-keyboard-response",241,171641,"0.0-3.76-2.76","s2zthvxk4cjltjq","71.csv","","null","resources/images/coin2.png","null","",NA,NA,NA,NA,""
"image-keyboard-response",242,171814,"0.0-3.77-0.77","s2zthvxk4cjltjq","71.csv","","171.10000002384186","resources/trios/L2T4A2.jpg","38","restless",0.5,0.4,0.3,0.52089195950738,"false"
"image-keyboard-response",243,172222,"0.0-3.77-1.77","s2zthvxk4cjltjq","71.csv","","null","resources/maskTrios/BT4B.jpg","null","",NA,NA,NA,NA,""
"image-keyboard-response",244,173429,"0.0-3.77-2.77","s2zthvxk4cjltjq","71.csv","","null","resources/images/fishbone.png","null","",NA,NA,NA,NA,""
"image-keyboard-response",245,174106,"0.0-3.78-0.78","s2zthvxk4cjltjq","71.csv","","675.7999999523163","resources/trios/L4T2A2.jpg","38","restless",0.5,0.4,0.3,0.82874051621884,"false"
"image-keyboard-response",246,174514,"0.0-3.78-1.78","s2zthvxk4cjltjq","71.csv","","null","resources/maskTrios/BT2B.jpg","null","",NA,NA,NA,NA,""
"image-keyboard-response",247,175720,"0.0-3.78-2.78","s2zthvxk4cjltjq","71.csv","","null","resources/images/fishbone.png","null","",NA,NA,NA,NA,""
"image-keyboard-response",248,175726,"0.0-3.79-0.79","s2zthvxk4cjltjq","71.csv","","4","resources/trios/L2T4A1.jpg","38","restless",0.5,0.4,0.3,0.0543455106532902,"true"
"image-keyboard-response",249,176132,"0.0-3.79-1.79","s2zthvxk4cjltjq","71.csv","","null","resources/maskTrios/BT4B.jpg","null","",NA,NA,NA,NA,""
"image-keyboard-response",250,177338,"0.0-3.79-2.79","s2zthvxk4cjltjq","71.csv","","null","resources/images/coin2.png","null","",NA,NA,NA,NA,""
"image-keyboard-response",251,177646,"0.0-3.80-0.80","s2zthvxk4cjltjq","71.csv","","305.2000000476837","resources/trios/L2T2A2.jpg","38","restless",0.5,0.4,0.3,0.752735650404546,"false"
"image-keyboard-response",252,178053,"0.0-3.80-1.80","s2zthvxk4cjltjq","71.csv","","null","resources/maskTrios/BT2B.jpg","null","",NA,NA,NA,NA,""
"image-keyboard-response",253,179256,"0.0-3.80-2.80","s2zthvxk4cjltjq","71.csv","","null","resources/images/fishbone.png","null","",NA,NA,NA,NA,""
"image-keyboard-response",254,179260,"0.0-3.81-0.81","s2zthvxk4cjltjq","71.csv","","2.799999952316284","resources/trios/L4T2A1.jpg","37","restless",0.5,0.3,0.3,0.161464424269454,"true"
"image-keyboard-response",255,179667,"0.0-3.81-1.81","s2zthvxk4cjltjq","71.csv","","null","resources/maskTrios/L4BB.jpg","null","",NA,NA,NA,NA,""
"image-keyboard-response",256,180870,"0.0-3.81-2.81","s2zthvxk4cjltjq","71.csv","","null","resources/images/coin2.png","null","",NA,NA,NA,NA,""
"image-keyboard-response",257,181112,"0.0-3.82-0.82","s2zthvxk4cjltjq","71.csv","","239.89999997615814","resources/trios/L4T4A1.jpg","37","restless",0.5,0.3,0.3,0.673049441372473,"false"
"image-keyboard-response",258,181515,"0.0-3.82-1.82","s2zthvxk4cjltjq","71.csv","","null","resources/maskTrios/L4BB.jpg","null","",NA,NA,NA,NA,""
"image-keyboard-response",259,182721,"0.0-3.82-2.82","s2zthvxk4cjltjq","71.csv","","null","resources/images/fishbone.png","null","",NA,NA,NA,NA,""
"image-keyboard-response",260,182735,"0.0-3.83-0.83","s2zthvxk4cjltjq","71.csv","","11.800000071525574","resources/trios/L2T4A2.jpg","37","restless",0.5,0.4,0.4,0.564827432937465,"false"
"image-keyboard-response",261,183141,"0.0-3.83-1.83","s2zthvxk4cjltjq","71.csv","","null","resources/maskTrios/L2BB.jpg","null","",NA,NA,NA,NA,""
"image-keyboard-response",262,184346,"0.0-3.83-2.83","s2zthvxk4cjltjq","71.csv","","null","resources/images/fishbone.png","null","",NA,NA,NA,NA,""
"image-keyboard-response",263,184683,"0.0-3.84-0.84","s2zthvxk4cjltjq","71.csv","","335.2000000476837","resources/trios/L2T4A2.jpg","37","restless",0.5,0.4,0.4,0.205706347067283,"true"
"image-keyboard-response",264,185087,"0.0-3.84-1.84","s2zthvxk4cjltjq","71.csv","","null","resources/maskTrios/L2BB.jpg","null","",NA,NA,NA,NA,""
"image-keyboard-response",265,186294,"0.0-3.84-2.84","s2zthvxk4cjltjq","71.csv","","null","resources/images/coin2.png","null","",NA,NA,NA,NA,""
"image-keyboard-response",266,187589,"0.0-3.85-0.85","s2zthvxk4cjltjq","71.csv","","1293.1999999284744","resources/trios/L4T2A2.jpg","37","restless",0.5,0.4,0.4,0.176114450558982,"true"
"image-keyboard-response",267,187996,"0.0-3.85-1.85","s2zthvxk4cjltjq","71.csv","","null","resources/maskTrios/L4BB.jpg","null","",NA,NA,NA,NA,""
"image-keyboard-response",268,189199,"0.0-3.85-2.85","s2zthvxk4cjltjq","71.csv","","null","resources/images/coin2.png","null","",NA,NA,NA,NA,""
"image-keyboard-response",269,189334,"0.0-3.86-0.86","s2zthvxk4cjltjq","71.csv","","133.59999990463257","resources/trios/L2T4A1.jpg","37","restless",0.5,0.4,0.4,0.0916865854827482,"true"
"image-keyboard-response",270,189737,"0.0-3.86-1.86","s2zthvxk4cjltjq","71.csv","","null","resources/maskTrios/L2BB.jpg","null","",NA,NA,NA,NA,""
"image-keyboard-response",271,190944,"0.0-3.86-2.86","s2zthvxk4cjltjq","71.csv","","null","resources/images/coin2.png","null","",NA,NA,NA,NA,""
"image-keyboard-response",272,191255,"0.0-3.87-0.87","s2zthvxk4cjltjq","71.csv","","308.10000002384186","resources/trios/L4T4A2.jpg","37","restless",0.5,0.4,0.4,0.891564696776456,"false"
"image-keyboard-response",273,191659,"0.0-3.87-1.87","s2zthvxk4cjltjq","71.csv","","null","resources/maskTrios/L4BB.jpg","null","",NA,NA,NA,NA,""
"image-keyboard-response",274,192864,"0.0-3.87-2.87","s2zthvxk4cjltjq","71.csv","","null","resources/images/fishbone.png","null","",NA,NA,NA,NA,""
"image-keyboard-response",275,192924,"0.0-3.88-0.88","s2zthvxk4cjltjq","71.csv","","58.39999997615814","resources/trios/L4T4A2.jpg","37","restless",0.5,0.4,0.4,0.225189390090585,"true"
"image-keyboard-response",276,193331,"0.0-3.88-1.88","s2zthvxk4cjltjq","71.csv","","null","resources/maskTrios/L4BB.jpg","null","",NA,NA,NA,NA,""
"image-keyboard-response",277,194535,"0.0-3.88-2.88","s2zthvxk4cjltjq","71.csv","","null","resources/images/coin2.png","null","",NA,NA,NA,NA,""
"image-keyboard-response",278,194655,"0.0-3.89-0.89","s2zthvxk4cjltjq","71.csv","","118.10000002384186","resources/trios/L2T4A2.jpg","37","restless",0.5,0.4,0.4,0.127447222847736,"true"
"image-keyboard-response",279,195058,"0.0-3.89-1.89","s2zthvxk4cjltjq","71.csv","","null","resources/maskTrios/L2BB.jpg","null","",NA,NA,NA,NA,""
"image-keyboard-response",280,196264,"0.0-3.89-2.89","s2zthvxk4cjltjq","71.csv","","null","resources/images/coin2.png","null","",NA,NA,NA,NA,""
"image-keyboard-response",281,196438,"0.0-3.90-0.90","s2zthvxk4cjltjq","71.csv","","171.70000004768372","resources/trios/L4T2A2.jpg","37","restless",0.5,0.4,0.4,0.601574976258577,"false"
"image-keyboard-response",282,196843,"0.0-3.90-1.90","s2zthvxk4cjltjq","71.csv","","null","resources/maskTrios/L4BB.jpg","null","",NA,NA,NA,NA,""
"image-keyboard-response",283,198049,"0.0-3.90-2.90","s2zthvxk4cjltjq","71.csv","","null","resources/images/fishbone.png","null","",NA,NA,NA,NA,""
"image-keyboard-response",284,217268,"0.0-3.91-0.91","s2zthvxk4cjltjq","71.csv","","19216.899999976158","resources/trios/L2T4A1.jpg","37","restless",0.5,0.4,0.4,0.122462566923141,"true"
"image-keyboard-response",285,217675,"0.0-3.91-1.91","s2zthvxk4cjltjq","71.csv","","null","resources/maskTrios/L2BB.jpg","null","",NA,NA,NA,NA,""
"image-keyboard-response",286,218881,"0.0-3.91-2.91","s2zthvxk4cjltjq","71.csv","","null","resources/images/coin2.png","null","",NA,NA,NA,NA,""
"image-keyboard-response",287,219153,"0.0-3.92-0.92","s2zthvxk4cjltjq","71.csv","","269.5","resources/trios/L2T2A2.jpg","37","restless",0.5,0.4,0.4,0.645017759895288,"false"
"image-keyboard-response",288,219560,"0.0-3.92-1.92","s2zthvxk4cjltjq","71.csv","","null","resources/maskTrios/L2BB.jpg","null","",NA,NA,NA,NA,""
"image-keyboard-response",289,220762,"0.0-3.92-2.92","s2zthvxk4cjltjq","71.csv","","null","resources/images/fishbone.png","null","",NA,NA,NA,NA,""
"image-keyboard-response",290,220926,"0.0-3.93-0.93","s2zthvxk4cjltjq","71.csv","","161.89999997615814","resources/trios/L4T2A2.jpg","37","restless",0.5,0.4,0.3,0.46723851637265,"true"
"image-keyboard-response",291,221330,"0.0-3.93-1.93","s2zthvxk4cjltjq","71.csv","","null","resources/maskTrios/L4BB.jpg","null","",NA,NA,NA,NA,""
"image-keyboard-response",292,222534,"0.0-3.93-2.93","s2zthvxk4cjltjq","71.csv","","null","resources/images/coin2.png","null","",NA,NA,NA,NA,""
"image-keyboard-response",293,222701,"0.0-3.94-0.94","s2zthvxk4cjltjq","71.csv","","164.90000009536743","resources/trios/L4T4A1.jpg","37","restless",0.5,0.4,0.2,0.981667512893837,"false"
"image-keyboard-response",294,223109,"0.0-3.94-1.94","s2zthvxk4cjltjq","71.csv","","null","resources/maskTrios/L4BB.jpg","null","",NA,NA,NA,NA,""
"image-keyboard-response",295,224315,"0.0-3.94-2.94","s2zthvxk4cjltjq","71.csv","","null","resources/images/fishbone.png","null","",NA,NA,NA,NA,""
"image-keyboard-response",296,224342,"0.0-3.95-0.95","s2zthvxk4cjltjq","71.csv","","24.200000047683716","resources/trios/L4T2A1.jpg","37","restless",0.5,0.4,0.2,0.632522639804068,"false"
"image-keyboard-response",297,224744,"0.0-3.95-1.95","s2zthvxk4cjltjq","71.csv","","null","resources/maskTrios/L4BB.jpg","null","",NA,NA,NA,NA,""
"image-keyboard-response",298,225951,"0.0-3.95-2.95","s2zthvxk4cjltjq","71.csv","","null","resources/images/fishbone.png","null","",NA,NA,NA,NA,""
"image-keyboard-response",299,225997,"0.0-3.96-0.96","s2zthvxk4cjltjq","71.csv","","44.200000047683716","resources/trios/L4T4A2.jpg","38","restless",0.5,0.4,0.2,0.359293416373829,"true"
"image-keyboard-response",300,226400,"0.0-3.96-1.96","s2zthvxk4cjltjq","71.csv","","null","resources/maskTrios/BT4B.jpg","null","",NA,NA,NA,NA,""
"image-keyboard-response",301,227606,"0.0-3.96-2.96","s2zthvxk4cjltjq","71.csv","","null","resources/images/coin2.png","null","",NA,NA,NA,NA,""
"image-keyboard-response",302,227659,"0.0-3.97-0.97","s2zthvxk4cjltjq","71.csv","","50.799999952316284","resources/trios/L2T4A1.jpg","38","restless",0.5,0.4,0.2,0.804850392441361,"false"
"image-keyboard-response",303,228066,"0.0-3.97-1.97","s2zthvxk4cjltjq","71.csv","","null","resources/maskTrios/BT4B.jpg","null","",NA,NA,NA,NA,""
"image-keyboard-response",304,229272,"0.0-3.97-2.97","s2zthvxk4cjltjq","71.csv","","null","resources/images/fishbone.png","null","",NA,NA,NA,NA,""
"image-keyboard-response",305,229451,"0.0-3.98-0.98","s2zthvxk4cjltjq","71.csv","","176.39999997615814","resources/trios/L2T2A1.jpg","38","restless",0.4,0.4,0.2,0.0550674661286874,"true"
"image-keyboard-response",306,229857,"0.0-3.98-1.98","s2zthvxk4cjltjq","71.csv","","null","resources/maskTrios/BT2B.jpg","null","",NA,NA,NA,NA,""
"image-keyboard-response",307,231060,"0.0-3.98-2.98","s2zthvxk4cjltjq","71.csv","","null","resources/images/coin2.png","null","",NA,NA,NA,NA,""
"image-keyboard-response",308,231162,"0.0-3.99-0.99","s2zthvxk4cjltjq","71.csv","","99.39999997615814","resources/trios/L2T2A1.jpg","38","restless",0.4,0.4,0.2,0.192316237612804,"true"
"image-keyboard-response",309,231568,"0.0-3.99-1.99","s2zthvxk4cjltjq","71.csv","","null","resources/maskTrios/BT2B.jpg","null","",NA,NA,NA,NA,""
"image-keyboard-response",310,232772,"0.0-3.99-2.99","s2zthvxk4cjltjq","71.csv","","null","resources/images/coin2.png","null","",NA,NA,NA,NA,""
"image-keyboard-response",311,232887,"0.0-3.100-0.100","s2zthvxk4cjltjq","71.csv","","112.69999992847443","resources/trios/L4T4A1.jpg","38","restless",0.4,0.4,0.2,0.782462060636433,"false"
"image-keyboard-response",312,233292,"0.0-3.100-1.100","s2zthvxk4cjltjq","71.csv","","null","resources/maskTrios/BT4B.jpg","null","",NA,NA,NA,NA,""
"image-keyboard-response",313,234498,"0.0-3.100-2.100","s2zthvxk4cjltjq","71.csv","","null","resources/images/fishbone.png","null","",NA,NA,NA,NA,""
"image-keyboard-response",314,234514,"0.0-3.101-0.101","s2zthvxk4cjltjq","71.csv","","14.099999904632568","resources/trios/L4T2A2.jpg","38","restless",0.4,0.4,0.2,0.168567174144906,"true"
"image-keyboard-response",315,234920,"0.0-3.101-1.101","s2zthvxk4cjltjq","71.csv","","null","resources/maskTrios/BT2B.jpg","null","",NA,NA,NA,NA,""
"image-keyboard-response",316,236122,"0.0-3.101-2.101","s2zthvxk4cjltjq","71.csv","","null","resources/images/coin2.png","null","",NA,NA,NA,NA,""
"image-keyboard-response",317,236211,"0.0-3.102-0.102","s2zthvxk4cjltjq","71.csv","","86.89999997615814","resources/trios/L2T2A1.jpg","38","restless",0.4,0.4,0.3,0.195442761464531,"true"
"image-keyboard-response",318,236617,"0.0-3.102-1.102","s2zthvxk4cjltjq","71.csv","","null","resources/maskTrios/BT2B.jpg","null","",NA,NA,NA,NA,""
"image-keyboard-response",319,237823,"0.0-3.102-2.102","s2zthvxk4cjltjq","71.csv","","null","resources/images/coin2.png","null","",NA,NA,NA,NA,""
"image-keyboard-response",320,237911,"0.0-3.103-0.103","s2zthvxk4cjltjq","71.csv","","85.70000004768372","resources/trios/L4T2A2.jpg","38","restless",0.5,0.4,0.3,0.716595244512547,"false"
"image-keyboard-response",321,238318,"0.0-3.103-1.103","s2zthvxk4cjltjq","71.csv","","null","resources/maskTrios/BT2B.jpg","null","",NA,NA,NA,NA,""
"image-keyboard-response",322,239520,"0.0-3.103-2.103","s2zthvxk4cjltjq","71.csv","","null","resources/images/fishbone.png","null","",NA,NA,NA,NA,""
"image-keyboard-response",323,239563,"0.0-3.104-0.104","s2zthvxk4cjltjq","71.csv","","41.200000047683716","resources/trios/L4T2A1.jpg","38","restless",0.4,0.4,0.3,0.710473089847554,"false"
"image-keyboard-response",324,239969,"0.0-3.104-1.104","s2zthvxk4cjltjq","71.csv","","null","resources/maskTrios/BT2B.jpg","null","",NA,NA,NA,NA,""
"image-keyboard-response",325,241173,"0.0-3.104-2.104","s2zthvxk4cjltjq","71.csv","","null","resources/images/fishbone.png","null","",NA,NA,NA,NA,""
"image-keyboard-response",326,241829,"0.0-3.105-0.105","s2zthvxk4cjltjq","71.csv","","653.5","resources/trios/L2T2A1.jpg","37","restless",0.4,0.3,0.3,0.378805564698946,"true"
"image-keyboard-response",327,242236,"0.0-3.105-1.105","s2zthvxk4cjltjq","71.csv","","null","resources/maskTrios/L2BB.jpg","null","",NA,NA,NA,NA,""
"image-keyboard-response",328,243440,"0.0-3.105-2.105","s2zthvxk4cjltjq","71.csv","","null","resources/images/coin2.png","null","",NA,NA,NA,NA,""
"image-keyboard-response",329,244006,"0.0-3.106-0.106","s2zthvxk4cjltjq","71.csv","","564","resources/trios/L4T4A1.jpg","37","restless",0.4,0.3,0.3,0.0699844445840816,"true"
"image-keyboard-response",330,244410,"0.0-3.106-1.106","s2zthvxk4cjltjq","71.csv","","null","resources/maskTrios/L4BB.jpg","null","",NA,NA,NA,NA,""
"image-keyboard-response",331,245617,"0.0-3.106-2.106","s2zthvxk4cjltjq","71.csv","","null","resources/images/coin2.png","null","",NA,NA,NA,NA,""
"image-keyboard-response",332,245966,"0.0-3.107-0.107","s2zthvxk4cjltjq","71.csv","","347.60000002384186","resources/trios/L4T4A2.jpg","37","restless",0.4,0.3,0.3,0.926002221103348,"false"
"image-keyboard-response",333,246374,"0.0-3.107-1.107","s2zthvxk4cjltjq","71.csv","","null","resources/maskTrios/L4BB.jpg","null","",NA,NA,NA,NA,""
"image-keyboard-response",334,247576,"0.0-3.107-2.107","s2zthvxk4cjltjq","71.csv","","null","resources/images/fishbone.png","null","",NA,NA,NA,NA,""
"image-keyboard-response",335,247772,"0.0-3.108-0.108","s2zthvxk4cjltjq","71.csv","","193.69999992847443","resources/trios/L4T2A2.jpg","37","restless",0.3,0.3,0.4,0.274949629951603,"true"
"image-keyboard-response",336,248176,"0.0-3.108-1.108","s2zthvxk4cjltjq","71.csv","","null","resources/maskTrios/L4BB.jpg","null","",NA,NA,NA,NA,""
"image-keyboard-response",337,249383,"0.0-3.108-2.108","s2zthvxk4cjltjq","71.csv","","null","resources/images/coin2.png","null","",NA,NA,NA,NA,""
"image-keyboard-response",338,249502,"0.0-3.109-0.109","s2zthvxk4cjltjq","71.csv","","117.20000004768372","resources/trios/L4T2A2.jpg","37","restless",0.3,0.3,0.4,0.726706620155603,"false"
"image-keyboard-response",339,249909,"0.0-3.109-1.109","s2zthvxk4cjltjq","71.csv","","null","resources/maskTrios/L4BB.jpg","null","",NA,NA,NA,NA,""
"image-keyboard-response",340,251116,"0.0-3.109-2.109","s2zthvxk4cjltjq","71.csv","","null","resources/images/fishbone.png","null","",NA,NA,NA,NA,""
"image-keyboard-response",341,251253,"0.0-3.110-0.110","s2zthvxk4cjltjq","71.csv","","135.60000002384186","resources/trios/L4T4A1.jpg","37","restless",0.3,0.3,0.4,0.338528225115766,"false"
"image-keyboard-response",342,251657,"0.0-3.110-1.110","s2zthvxk4cjltjq","71.csv","","null","resources/maskTrios/L4BB.jpg","null","",NA,NA,NA,NA,""
"image-keyboard-response",343,252864,"0.0-3.110-2.110","s2zthvxk4cjltjq","71.csv","","null","resources/images/fishbone.png","null","",NA,NA,NA,NA,""
"image-keyboard-response",344,253050,"0.0-3.111-0.111","s2zthvxk4cjltjq","71.csv","","183.79999995231628","resources/trios/L4T2A1.jpg","38","restless",0.3,0.3,0.4,0.183435842230943,"true"
"image-keyboard-response",345,253455,"0.0-3.111-1.111","s2zthvxk4cjltjq","71.csv","","null","resources/maskTrios/BT2B.jpg","null","",NA,NA,NA,NA,""
"image-keyboard-response",346,254662,"0.0-3.111-2.111","s2zthvxk4cjltjq","71.csv","","null","resources/images/coin2.png","null","",NA,NA,NA,NA,""
"image-keyboard-response",347,254705,"0.0-3.112-0.112","s2zthvxk4cjltjq","71.csv","","41.299999952316284","resources/trios/L4T2A2.jpg","38","restless",0.3,0.3,0.4,0.45500222107892,"false"
"image-keyboard-response",348,255112,"0.0-3.112-1.112","s2zthvxk4cjltjq","71.csv","","null","resources/maskTrios/BT2B.jpg","null","",NA,NA,NA,NA,""
"image-keyboard-response",349,256316,"0.0-3.112-2.112","s2zthvxk4cjltjq","71.csv","","null","resources/images/fishbone.png","null","",NA,NA,NA,NA,""
"image-keyboard-response",350,256318,"0.0-3.113-0.113","s2zthvxk4cjltjq","71.csv","","0.20000004768371582","resources/trios/L2T4A2.jpg","38","restless",0.3,0.3,0.4,0.0834323952155829,"true"
"image-keyboard-response",351,256721,"0.0-3.113-1.113","s2zthvxk4cjltjq","71.csv","","null","resources/maskTrios/BT4B.jpg","null","",NA,NA,NA,NA,""
"image-keyboard-response",352,257923,"0.0-3.113-2.113","s2zthvxk4cjltjq","71.csv","","null","resources/images/coin2.png","null","",NA,NA,NA,NA,""
"image-keyboard-response",353,257937,"0.0-3.114-0.114","s2zthvxk4cjltjq","71.csv","","12.100000023841858","resources/trios/L4T4A2.jpg","38","restless",0.3,0.3,0.3,0.23711675289198,"true"
"image-keyboard-response",354,258344,"0.0-3.114-1.114","s2zthvxk4cjltjq","71.csv","","null","resources/maskTrios/BT4B.jpg","null","",NA,NA,NA,NA,""
"image-keyboard-response",355,259547,"0.0-3.114-2.114","s2zthvxk4cjltjq","71.csv","","null","resources/images/coin2.png","null","",NA,NA,NA,NA,""
"image-keyboard-response",356,259691,"0.0-3.115-0.115","s2zthvxk4cjltjq","71.csv","","141.5","resources/trios/L2T4A1.jpg","38","restless",0.3,0.3,0.3,0.272611563962413,"true"
"image-keyboard-response",357,260097,"0.0-3.115-1.115","s2zthvxk4cjltjq","71.csv","","null","resources/maskTrios/BT4B.jpg","null","",NA,NA,NA,NA,""
"image-keyboard-response",358,261299,"0.0-3.115-2.115","s2zthvxk4cjltjq","71.csv","","null","resources/images/coin2.png","null","",NA,NA,NA,NA,""
"image-keyboard-response",359,261542,"0.0-3.116-0.116","s2zthvxk4cjltjq","71.csv","","241.5","resources/trios/L2T2A2.jpg","38","restless",0.3,0.4,0.3,0.674647682592258,"false"
"image-keyboard-response",360,261947,"0.0-3.116-1.116","s2zthvxk4cjltjq","71.csv","","null","resources/maskTrios/BT2B.jpg","null","",NA,NA,NA,NA,""
"image-keyboard-response",361,263154,"0.0-3.116-2.116","s2zthvxk4cjltjq","71.csv","","null","resources/images/fishbone.png","null","",NA,NA,NA,NA,""
"image-keyboard-response",362,263188,"0.0-3.117-0.117","s2zthvxk4cjltjq","71.csv","","32.09999990463257","resources/trios/L2T4A1.jpg","38","restless",0.3,0.4,0.3,0.381865278627556,"true"
"image-keyboard-response",363,263592,"0.0-3.117-1.117","s2zthvxk4cjltjq","71.csv","","null","resources/maskTrios/BT4B.jpg","null","",NA,NA,NA,NA,""
"image-keyboard-response",364,264798,"0.0-3.117-2.117","s2zthvxk4cjltjq","71.csv","","null","resources/images/coin2.png","null","",NA,NA,NA,NA,""
"image-keyboard-response",365,264808,"0.0-3.118-0.118","s2zthvxk4cjltjq","71.csv","","6.799999952316284","resources/trios/L4T4A1.jpg","38","restless",0.3,0.4,0.3,0.435583050406674,"false"
"image-keyboard-response",366,265214,"0.0-3.118-1.118","s2zthvxk4cjltjq","71.csv","","null","resources/maskTrios/BT4B.jpg","null","",NA,NA,NA,NA,""
"image-keyboard-response",367,266416,"0.0-3.118-2.118","s2zthvxk4cjltjq","71.csv","","null","resources/images/fishbone.png","null","",NA,NA,NA,NA,""
"image-keyboard-response",368,266545,"0.0-3.119-0.119","s2zthvxk4cjltjq","71.csv","","126.79999995231628","resources/trios/L2T4A1.jpg","38","restless",0.3,0.4,0.3,0.885334901427437,"false"
"image-keyboard-response",369,266953,"0.0-3.119-1.119","s2zthvxk4cjltjq","71.csv","","null","resources/maskTrios/BT4B.jpg","null","",NA,NA,NA,NA,""
"image-keyboard-response",370,268156,"0.0-3.119-2.119","s2zthvxk4cjltjq","71.csv","","null","resources/images/fishbone.png","null","",NA,NA,NA,NA,""
"image-keyboard-response",371,268258,"0.0-3.120-0.120","s2zthvxk4cjltjq","71.csv","","99.79999995231628","resources/trios/L2T4A2.jpg","38","restless",0.3,0.4,0.3,0.647576157409751,"false"
"image-keyboard-response",372,268665,"0.0-3.120-1.120","s2zthvxk4cjltjq","71.csv","","null","resources/maskTrios/BT4B.jpg","null","",NA,NA,NA,NA,""
"image-keyboard-response",373,269868,"0.0-3.120-2.120","s2zthvxk4cjltjq","71.csv","","null","resources/images/fishbone.png","null","",NA,NA,NA,NA,""
"image-keyboard-response",374,269966,"0.0-3.121-0.121","s2zthvxk4cjltjq","71.csv","","96.20000004768372","resources/trios/L4T2A2.jpg","38","restless",0.3,0.4,0.3,0.720268488788528,"false"
"image-keyboard-response",375,270372,"0.0-3.121-1.121","s2zthvxk4cjltjq","71.csv","","null","resources/maskTrios/BT2B.jpg","null","",NA,NA,NA,NA,""
"image-keyboard-response",376,271576,"0.0-3.121-2.121","s2zthvxk4cjltjq","71.csv","","null","resources/images/fishbone.png","null","",NA,NA,NA,NA,""
"image-keyboard-response",377,271607,"0.0-3.122-0.122","s2zthvxk4cjltjq","71.csv","","28.800000071525574","resources/trios/L2T2A2.jpg","38","restless",0.3,0.4,0.3,0.827572576897555,"false"
"image-keyboard-response",378,272013,"0.0-3.122-1.122","s2zthvxk4cjltjq","71.csv","","null","resources/maskTrios/BT2B.jpg","null","",NA,NA,NA,NA,""
"image-keyboard-response",379,273220,"0.0-3.122-2.122","s2zthvxk4cjltjq","71.csv","","null","resources/images/fishbone.png","null","",NA,NA,NA,NA,""
"image-keyboard-response",380,273244,"0.0-3.123-0.123","s2zthvxk4cjltjq","71.csv","","21.799999952316284","resources/trios/L2T2A1.jpg","39","restless",0.3,0.4,0.3,0.504881254243654,"false"
"image-keyboard-response",381,273647,"0.0-3.123-1.123","s2zthvxk4cjltjq","71.csv","","null","resources/maskTrios/BBA1.jpg","null","",NA,NA,NA,NA,""
"image-keyboard-response",382,274853,"0.0-3.123-2.123","s2zthvxk4cjltjq","71.csv","","null","resources/images/fishbone.png","null","",NA,NA,NA,NA,""
"image-keyboard-response",383,274863,"0.0-3.124-0.124","s2zthvxk4cjltjq","71.csv","","7.5","resources/trios/L2T2A1.jpg","39","restless",0.4,0.4,0.3,0.336828759922086,"false"
"image-keyboard-response",384,275269,"0.0-3.124-1.124","s2zthvxk4cjltjq","71.csv","","null","resources/maskTrios/BBA1.jpg","null","",NA,NA,NA,NA,""
"image-keyboard-response",385,276473,"0.0-3.124-2.124","s2zthvxk4cjltjq","71.csv","","null","resources/images/fishbone.png","null","",NA,NA,NA,NA,""
"image-keyboard-response",386,276623,"0.0-3.125-0.125","s2zthvxk4cjltjq","71.csv","","147.69999992847443","resources/trios/L2T4A1.jpg","39","restless",0.4,0.4,0.3,0.384906038273084,"false"
"image-keyboard-response",387,277026,"0.0-3.125-1.125","s2zthvxk4cjltjq","71.csv","","null","resources/maskTrios/BBA1.jpg","null","",NA,NA,NA,NA,""
"image-keyboard-response",388,278229,"0.0-3.125-2.125","s2zthvxk4cjltjq","71.csv","","null","resources/images/fishbone.png","null","",NA,NA,NA,NA,""
"image-keyboard-response",389,278332,"0.0-3.126-0.126","s2zthvxk4cjltjq","71.csv","","100.19999992847443","resources/trios/L2T4A2.jpg","38","restless",0.4,0.4,0.3,0.178827586307224,"true"
"image-keyboard-response",390,278738,"0.0-3.126-1.126","s2zthvxk4cjltjq","71.csv","","null","resources/maskTrios/BT4B.jpg","null","",NA,NA,NA,NA,""
"image-keyboard-response",391,279945,"0.0-3.126-2.126","s2zthvxk4cjltjq","71.csv","","null","resources/images/coin2.png","null","",NA,NA,NA,NA,""
"image-keyboard-response",392,279989,"0.0-3.127-0.127","s2zthvxk4cjltjq","71.csv","","41","resources/trios/L4T4A1.jpg","38","restless",0.5,0.4,0.3,0.678182706278471,"false"
"image-keyboard-response",393,280396,"0.0-3.127-1.127","s2zthvxk4cjltjq","71.csv","","null","resources/maskTrios/BT4B.jpg","null","",NA,NA,NA,NA,""
"image-keyboard-response",394,281603,"0.0-3.127-2.127","s2zthvxk4cjltjq","71.csv","","null","resources/images/fishbone.png","null","",NA,NA,NA,NA,""
"image-keyboard-response",395,281743,"0.0-3.128-0.128","s2zthvxk4cjltjq","71.csv","","138.30000007152557","resources/trios/L4T4A1.jpg","38","restless",0.5,0.4,0.3,0.114863725956319,"true"
"image-keyboard-response",396,282150,"0.0-3.128-1.128","s2zthvxk4cjltjq","71.csv","","null","resources/maskTrios/BT4B.jpg","null","",NA,NA,NA,NA,""
"image-keyboard-response",397,283353,"0.0-3.128-2.128","s2zthvxk4cjltjq","71.csv","","null","resources/images/coin2.png","null","",NA,NA,NA,NA,""
"image-keyboard-response",398,283546,"0.0-3.129-0.129","s2zthvxk4cjltjq","71.csv","","191.10000002384186","resources/trios/L2T4A1.jpg","38","restless",0.5,0.3,0.3,0.040415278492963,"true"
"image-keyboard-response",399,283949,"0.0-3.129-1.129","s2zthvxk4cjltjq","71.csv","","null","resources/maskTrios/BT4B.jpg","null","",NA,NA,NA,NA,""
"image-keyboard-response",400,285156,"0.0-3.129-2.129","s2zthvxk4cjltjq","71.csv","","null","resources/images/coin2.png","null","",NA,NA,NA,NA,""
"image-keyboard-response",401,285398,"0.0-3.130-0.130","s2zthvxk4cjltjq","71.csv","","239.60000002384186","resources/trios/L2T2A2.jpg","38","restless",0.5,0.4,0.3,0.00661463230371973,"true"
"image-keyboard-response",402,285805,"0.0-3.130-1.130","s2zthvxk4cjltjq","71.csv","","null","resources/maskTrios/BT2B.jpg","null","",NA,NA,NA,NA,""
"image-keyboard-response",403,287012,"0.0-3.130-2.130","s2zthvxk4cjltjq","71.csv","","null","resources/images/coin2.png","null","",NA,NA,NA,NA,""
"image-keyboard-response",404,287215,"0.0-3.131-0.131","s2zthvxk4cjltjq","71.csv","","200.5","resources/trios/L4T4A2.jpg","38","restless",0.5,0.4,0.3,0.106842550044455,"true"
"image-keyboard-response",405,287623,"0.0-3.131-1.131","s2zthvxk4cjltjq","71.csv","","null","resources/maskTrios/BT4B.jpg","null","",NA,NA,NA,NA,""
"image-keyboard-response",406,288830,"0.0-3.131-2.131","s2zthvxk4cjltjq","71.csv","","null","resources/images/coin2.png","null","",NA,NA,NA,NA,""
"image-keyboard-response",407,288987,"0.0-3.132-0.132","s2zthvxk4cjltjq","71.csv","","154.69999992847443","resources/trios/L2T2A1.jpg","38","restless",0.5,0.4,0.3,0.567626262621211,"false"
"image-keyboard-response",408,289394,"0.0-3.132-1.132","s2zthvxk4cjltjq","71.csv","","null","resources/maskTrios/BT2B.jpg","null","",NA,NA,NA,NA,""
"image-keyboard-response",409,290600,"0.0-3.132-2.132","s2zthvxk4cjltjq","71.csv","","null","resources/images/fishbone.png","null","",NA,NA,NA,NA,""
"image-keyboard-response",410,290652,"0.0-3.133-0.133","s2zthvxk4cjltjq","71.csv","","49.299999952316284","resources/trios/L4T2A2.jpg","38","restless",0.5,0.4,0.3,0.0598035483458241,"true"
"image-keyboard-response",411,291056,"0.0-3.133-1.133","s2zthvxk4cjltjq","71.csv","","null","resources/maskTrios/BT2B.jpg","null","",NA,NA,NA,NA,""
"image-keyboard-response",412,292262,"0.0-3.133-2.133","s2zthvxk4cjltjq","71.csv","","null","resources/images/coin2.png","null","",NA,NA,NA,NA,""
"image-keyboard-response",413,292502,"0.0-3.134-0.134","s2zthvxk4cjltjq","71.csv","","237.19999992847443","resources/trios/L4T4A1.jpg","38","restless",0.6,0.4,0.3,0.0323063729731725,"true"
"image-keyboard-response",414,292908,"0.0-3.134-1.134","s2zthvxk4cjltjq","71.csv","","null","resources/maskTrios/BT4B.jpg","null","",NA,NA,NA,NA,""
"image-keyboard-response",415,294112,"0.0-3.134-2.134","s2zthvxk4cjltjq","71.csv","","null","resources/images/coin2.png","null","",NA,NA,NA,NA,""
"image-keyboard-response",416,294260,"0.0-3.135-0.135","s2zthvxk4cjltjq","71.csv","","145.20000004768372","resources/trios/L2T4A2.jpg","38","restless",0.6,0.4,0.3,0.476812805748381,"false"
"image-keyboard-response",417,294667,"0.0-3.135-1.135","s2zthvxk4cjltjq","71.csv","","null","resources/maskTrios/BT4B.jpg","null","",NA,NA,NA,NA,""
"image-keyboard-response",418,295869,"0.0-3.135-2.135","s2zthvxk4cjltjq","71.csv","","null","resources/images/fishbone.png","null","",NA,NA,NA,NA,""
"image-keyboard-response",419,296012,"0.0-3.136-0.136","s2zthvxk4cjltjq","71.csv","","141.09999990463257","resources/trios/L2T2A2.jpg","38","restless",0.6,0.3,0.3,0.464786834883061,"false"
"image-keyboard-response",420,296415,"0.0-3.136-1.136","s2zthvxk4cjltjq","71.csv","","null","resources/maskTrios/BT2B.jpg","null","",NA,NA,NA,NA,""
"image-keyboard-response",421,297621,"0.0-3.136-2.136","s2zthvxk4cjltjq","71.csv","","null","resources/images/fishbone.png","null","",NA,NA,NA,NA,""
"image-keyboard-response",422,297626,"0.0-3.137-0.137","s2zthvxk4cjltjq","71.csv","","2.5","resources/trios/L2T4A1.jpg","38","restless",0.7,0.2,0.3,0.324294306836389,"false"
"image-keyboard-response",423,298028,"0.0-3.137-1.137","s2zthvxk4cjltjq","71.csv","","null","resources/maskTrios/BT4B.jpg","null","",NA,NA,NA,NA,""
"image-keyboard-response",424,299235,"0.0-3.137-2.137","s2zthvxk4cjltjq","71.csv","","null","resources/images/fishbone.png","null","",NA,NA,NA,NA,""
"image-keyboard-response",425,299741,"0.0-3.138-0.138","s2zthvxk4cjltjq","71.csv","","504.10000002384186","resources/trios/L2T4A2.jpg","37","restless",0.7,0.2,0.3,0.726334473524258,"false"
"image-keyboard-response",426,300146,"0.0-3.138-1.138","s2zthvxk4cjltjq","71.csv","","null","resources/maskTrios/L2BB.jpg","null","",NA,NA,NA,NA,""
"image-keyboard-response",427,301350,"0.0-3.138-2.138","s2zthvxk4cjltjq","71.csv","","null","resources/images/fishbone.png","null","",NA,NA,NA,NA,""
"image-keyboard-response",428,301382,"0.0-3.139-0.139","s2zthvxk4cjltjq","71.csv","","30.899999976158142","resources/trios/L2T2A2.jpg","37","restless",0.7,0.2,0.3,0.0105653033333988,"true"
"image-keyboard-response",429,301788,"0.0-3.139-1.139","s2zthvxk4cjltjq","71.csv","","null","resources/maskTrios/L2BB.jpg","null","",NA,NA,NA,NA,""
"image-keyboard-response",430,302995,"0.0-3.139-2.139","s2zthvxk4cjltjq","71.csv","","null","resources/images/coin2.png","null","",NA,NA,NA,NA,""
"image-keyboard-response",431,303211,"0.0-3.140-0.140","s2zthvxk4cjltjq","71.csv","","214.5","resources/trios/L2T4A2.jpg","37","restless",0.7,0.2,0.3,0.253335303688109,"true"
"image-keyboard-response",432,303619,"0.0-3.140-1.140","s2zthvxk4cjltjq","71.csv","","null","resources/maskTrios/L2BB.jpg","null","",NA,NA,NA,NA,""
"image-keyboard-response",433,304826,"0.0-3.140-2.140","s2zthvxk4cjltjq","71.csv","","null","resources/images/coin2.png","null","",NA,NA,NA,NA,""
"image-keyboard-response",434,305038,"0.0-3.141-0.141","s2zthvxk4cjltjq","71.csv","","210.5","resources/trios/L4T2A1.jpg","37","restless",0.7,0.2,0.3,0.0362731738117499,"true"
"image-keyboard-response",435,305443,"0.0-3.141-1.141","s2zthvxk4cjltjq","71.csv","","null","resources/maskTrios/L4BB.jpg","null","",NA,NA,NA,NA,""
"image-keyboard-response",436,306648,"0.0-3.141-2.141","s2zthvxk4cjltjq","71.csv","","null","resources/images/coin2.png","null","",NA,NA,NA,NA,""
"image-keyboard-response",437,306810,"0.0-3.142-0.142","s2zthvxk4cjltjq","71.csv","","159.79999995231628","resources/trios/L2T4A1.jpg","37","restless",0.8,0.2,0.3,0.651059551244392,"true"
"image-keyboard-response",438,307217,"0.0-3.142-1.142","s2zthvxk4cjltjq","71.csv","","null","resources/maskTrios/L2BB.jpg","null","",NA,NA,NA,NA,""
"image-keyboard-response",439,308423,"0.0-3.142-2.142","s2zthvxk4cjltjq","71.csv","","null","resources/images/coin2.png","null","",NA,NA,NA,NA,""
"image-keyboard-response",440,308630,"0.0-3.143-0.143","s2zthvxk4cjltjq","71.csv","","204.5","resources/trios/L4T4A2.jpg","37","restless",0.8,0.2,0.3,0.307716216294025,"true"
"image-keyboard-response",441,309034,"0.0-3.143-1.143","s2zthvxk4cjltjq","71.csv","","null","resources/maskTrios/L4BB.jpg","null","",NA,NA,NA,NA,""
"image-keyboard-response",442,310238,"0.0-3.143-2.143","s2zthvxk4cjltjq","71.csv","","null","resources/images/coin2.png","null","",NA,NA,NA,NA,""
"image-keyboard-response",443,310399,"0.0-3.144-0.144","s2zthvxk4cjltjq","71.csv","","158.39999997615814","resources/trios/L2T2A1.jpg","37","restless",0.8,0.2,0.3,0.721083198414366,"true"
"image-keyboard-response",444,310806,"0.0-3.144-1.144","s2zthvxk4cjltjq","71.csv","","null","resources/maskTrios/L2BB.jpg","null","",NA,NA,NA,NA,""
"image-keyboard-response",445,312009,"0.0-3.144-2.144","s2zthvxk4cjltjq","71.csv","","null","resources/images/coin2.png","null","",NA,NA,NA,NA,""
"image-keyboard-response",446,312172,"0.0-3.145-0.145","s2zthvxk4cjltjq","71.csv","","160.5","resources/trios/L2T2A2.jpg","37","restless",0.8,0.2,0.3,0.899944281850093,"false"
"image-keyboard-response",447,312579,"0.0-3.145-1.145","s2zthvxk4cjltjq","71.csv","","null","resources/maskTrios/L2BB.jpg","null","",NA,NA,NA,NA,""
"image-keyboard-response",448,313782,"0.0-3.145-2.145","s2zthvxk4cjltjq","71.csv","","null","resources/images/fishbone.png","null","",NA,NA,NA,NA,""
"image-keyboard-response",449,313811,"0.0-3.146-0.146","s2zthvxk4cjltjq","71.csv","","26.899999976158142","resources/trios/L4T2A1.jpg","37","restless",0.8,0.2,0.3,0.448349550714393,"true"
"image-keyboard-response",450,314217,"0.0-3.146-1.146","s2zthvxk4cjltjq","71.csv","","null","resources/maskTrios/L4BB.jpg","null","",NA,NA,NA,NA,""
"image-keyboard-response",451,315421,"0.0-3.146-2.146","s2zthvxk4cjltjq","71.csv","","null","resources/images/coin2.png","null","",NA,NA,NA,NA,""
"image-keyboard-response",452,315519,"0.0-3.147-0.147","s2zthvxk4cjltjq","71.csv","","95.20000004768372","resources/trios/L4T4A2.jpg","37","restless",0.8,0.2,0.3,0.200337662840393,"true"
"image-keyboard-response",453,315926,"0.0-3.147-1.147","s2zthvxk4cjltjq","71.csv","","null","resources/maskTrios/L4BB.jpg","null","",NA,NA,NA,NA,""
"image-keyboard-response",454,317132,"0.0-3.147-2.147","s2zthvxk4cjltjq","71.csv","","null","resources/images/coin2.png","null","",NA,NA,NA,NA,""
"image-keyboard-response",455,317344,"0.0-3.148-0.148","s2zthvxk4cjltjq","71.csv","","209.5","resources/trios/L2T4A1.jpg","37","restless",0.9,0.3,0.3,0.0515769051807402,"true"
"image-keyboard-response",456,317752,"0.0-3.148-1.148","s2zthvxk4cjltjq","71.csv","","null","resources/maskTrios/L2BB.jpg","null","",NA,NA,NA,NA,""
"image-keyboard-response",457,318957,"0.0-3.148-2.148","s2zthvxk4cjltjq","71.csv","","null","resources/images/coin2.png","null","",NA,NA,NA,NA,""
"image-keyboard-response",458,319016,"0.0-3.149-0.149","s2zthvxk4cjltjq","71.csv","","57.10000002384186","resources/trios/L4T2A2.jpg","37","restless",0.9,0.4,0.3,0.515809368467503,"true"
"image-keyboard-response",459,319421,"0.0-3.149-1.149","s2zthvxk4cjltjq","71.csv","","null","resources/maskTrios/L4BB.jpg","null","",NA,NA,NA,NA,""
"image-keyboard-response",460,320628,"0.0-3.149-2.149","s2zthvxk4cjltjq","71.csv","","null","resources/images/coin2.png","null","",NA,NA,NA,NA,""
"image-keyboard-response",461,320733,"0.0-3.150-0.150","s2zthvxk4cjltjq","71.csv","","103.09999990463257","resources/trios/L2T2A1.jpg","37","restless",0.9,0.5,0.3,0.123832603762459,"true"
"image-keyboard-response",462,321141,"0.0-3.150-1.150","s2zthvxk4cjltjq","71.csv","","null","resources/maskTrios/L2BB.jpg","null","",NA,NA,NA,NA,""
"image-keyboard-response",463,322347,"0.0-3.150-2.150","s2zthvxk4cjltjq","71.csv","","null","resources/images/coin2.png","null","",NA,NA,NA,NA,""
"image-keyboard-response",464,322505,"0.0-3.151-0.151","s2zthvxk4cjltjq","71.csv","","155.30000007152557","resources/trios/L4T2A1.jpg","37","restless",0.9,0.4,0.3,0.701165865555186,"true"
"image-keyboard-response",465,322912,"0.0-3.151-1.151","s2zthvxk4cjltjq","71.csv","","null","resources/maskTrios/L4BB.jpg","null","",NA,NA,NA,NA,""
"image-keyboard-response",466,324117,"0.0-3.151-2.151","s2zthvxk4cjltjq","71.csv","","null","resources/images/coin2.png","null","",NA,NA,NA,NA,""
"image-keyboard-response",467,324442,"0.0-3.152-0.152","s2zthvxk4cjltjq","71.csv","","323.39999997615814","resources/trios/L4T2A1.jpg","37","restless",0.9,0.4,0.3,0.168821173225473,"true"
"image-keyboard-response",468,324848,"0.0-3.152-1.152","s2zthvxk4cjltjq","71.csv","","null","resources/maskTrios/L4BB.jpg","null","",NA,NA,NA,NA,""
"image-keyboard-response",469,326051,"0.0-3.152-2.152","s2zthvxk4cjltjq","71.csv","","null","resources/images/coin2.png","null","",NA,NA,NA,NA,""
"image-keyboard-response",470,326105,"0.0-3.153-0.153","s2zthvxk4cjltjq","71.csv","","51.59999990463257","resources/trios/L4T4A2.jpg","37","restless",0.9,0.4,0.3,0.495289567540205,"true"
"image-keyboard-response",471,326511,"0.0-3.153-1.153","s2zthvxk4cjltjq","71.csv","","null","resources/maskTrios/L4BB.jpg","null","",NA,NA,NA,NA,""
"image-keyboard-response",472,327718,"0.0-3.153-2.153","s2zthvxk4cjltjq","71.csv","","null","resources/images/coin2.png","null","",NA,NA,NA,NA,""
"image-keyboard-response",473,327824,"0.0-3.154-0.154","s2zthvxk4cjltjq","71.csv","","103.5","resources/trios/L2T2A2.jpg","37","restless",0.9,0.4,0.3,0.897539985548111,"true"
"image-keyboard-response",474,328227,"0.0-3.154-1.154","s2zthvxk4cjltjq","71.csv","","null","resources/maskTrios/L2BB.jpg","null","",NA,NA,NA,NA,""
"image-keyboard-response",475,329432,"0.0-3.154-2.154","s2zthvxk4cjltjq","71.csv","","null","resources/images/coin2.png","null","",NA,NA,NA,NA,""
"image-keyboard-response",476,329462,"0.0-3.155-0.155","s2zthvxk4cjltjq","71.csv","","27.100000023841858","resources/trios/L2T2A1.jpg","37","restless",0.9,0.4,0.3,0.533432230175574,"true"
"image-keyboard-response",477,329866,"0.0-3.155-1.155","s2zthvxk4cjltjq","71.csv","","null","resources/maskTrios/L2BB.jpg","null","",NA,NA,NA,NA,""
"image-keyboard-response",478,331071,"0.0-3.155-2.155","s2zthvxk4cjltjq","71.csv","","null","resources/images/coin2.png","null","",NA,NA,NA,NA,""
"image-keyboard-response",479,331182,"0.0-3.156-0.156","s2zthvxk4cjltjq","71.csv","","108.5","resources/trios/L2T2A2.jpg","37","restless",0.9,0.4,0.3,0.287753024035029,"true"
"image-keyboard-response",480,331587,"0.0-3.156-1.156","s2zthvxk4cjltjq","71.csv","","null","resources/maskTrios/L2BB.jpg","null","",NA,NA,NA,NA,""
"image-keyboard-response",481,332793,"0.0-3.156-2.156","s2zthvxk4cjltjq","71.csv","","null","resources/images/coin2.png","null","",NA,NA,NA,NA,""
"image-keyboard-response",482,332841,"0.0-3.157-0.157","s2zthvxk4cjltjq","71.csv","","46.09999990463257","resources/trios/L2T2A2.jpg","37","restless",0.9,0.4,0.4,0.830710657972597,"true"
"image-keyboard-response",483,333248,"0.0-3.157-1.157","s2zthvxk4cjltjq","71.csv","","null","resources/maskTrios/L2BB.jpg","null","",NA,NA,NA,NA,""
"image-keyboard-response",484,334453,"0.0-3.157-2.157","s2zthvxk4cjltjq","71.csv","","null","resources/images/coin2.png","null","",NA,NA,NA,NA,""
"image-keyboard-response",485,334636,"0.0-3.158-0.158","s2zthvxk4cjltjq","71.csv","","180.79999995231628","resources/trios/L2T2A2.jpg","37","restless",0.9,0.4,0.4,0.106138270837677,"true"
"image-keyboard-response",486,335043,"0.0-3.158-1.158","s2zthvxk4cjltjq","71.csv","","null","resources/maskTrios/L2BB.jpg","null","",NA,NA,NA,NA,""
"image-keyboard-response",487,336247,"0.0-3.158-2.158","s2zthvxk4cjltjq","71.csv","","null","resources/images/coin2.png","null","",NA,NA,NA,NA,""
"image-keyboard-response",488,336310,"0.0-3.159-0.159","s2zthvxk4cjltjq","71.csv","","60.5","resources/trios/L2T2A2.jpg","37","restless",0.9,0.4,0.5,0.918060480657551,"false"
"image-keyboard-response",489,336713,"0.0-3.159-1.159","s2zthvxk4cjltjq","71.csv","","null","resources/maskTrios/L2BB.jpg","null","",NA,NA,NA,NA,""
"image-keyboard-response",490,337918,"0.0-3.159-2.159","s2zthvxk4cjltjq","71.csv","","null","resources/images/fishbone.png","null","",NA,NA,NA,NA,""
"image-keyboard-response",491,338060,"0.0-3.160-0.160","s2zthvxk4cjltjq","71.csv","","139.80000007152557","resources/trios/L4T2A2.jpg","37","restless",0.9,0.4,0.5,0.283346972091163,"true"
"image-keyboard-response",492,338463,"0.0-3.160-1.160","s2zthvxk4cjltjq","71.csv","","null","resources/maskTrios/L4BB.jpg","null","",NA,NA,NA,NA,""
"image-keyboard-response",493,339667,"0.0-3.160-2.160","s2zthvxk4cjltjq","71.csv","","null","resources/images/coin2.png","null","",NA,NA,NA,NA,""
"image-keyboard-response",494,339766,"0.0-3.161-0.161","s2zthvxk4cjltjq","71.csv","","96.19999992847443","resources/trios/L2T2A1.jpg","37","restless",0.8,0.4,0.5,0.940397395621034,"false"
"image-keyboard-response",495,340172,"0.0-3.161-1.161","s2zthvxk4cjltjq","71.csv","","null","resources/maskTrios/L2BB.jpg","null","",NA,NA,NA,NA,""
"image-keyboard-response",496,341376,"0.0-3.161-2.161","s2zthvxk4cjltjq","71.csv","","null","resources/images/fishbone.png","null","",NA,NA,NA,NA,""
"image-keyboard-response",497,341483,"0.0-3.162-0.162","s2zthvxk4cjltjq","71.csv","","105.79999995231628","resources/trios/L2T2A2.jpg","37","restless",0.9,0.4,0.5,0.135564121040409,"true"
"image-keyboard-response",498,341889,"0.0-3.162-1.162","s2zthvxk4cjltjq","71.csv","","null","resources/maskTrios/L2BB.jpg","null","",NA,NA,NA,NA,""
"image-keyboard-response",499,343096,"0.0-3.162-2.162","s2zthvxk4cjltjq","71.csv","","null","resources/images/coin2.png","null","",NA,NA,NA,NA,""
"image-keyboard-response",500,343322,"0.0-3.163-0.163","s2zthvxk4cjltjq","71.csv","","223.69999992847443","resources/trios/L4T2A2.jpg","37","restless",0.9,0.5,0.4,0.496906435815745,"true"
"image-keyboard-response",501,343727,"0.0-3.163-1.163","s2zthvxk4cjltjq","71.csv","","null","resources/maskTrios/L4BB.jpg","null","",NA,NA,NA,NA,""
"image-keyboard-response",502,344933,"0.0-3.163-2.163","s2zthvxk4cjltjq","71.csv","","null","resources/images/coin2.png","null","",NA,NA,NA,NA,""
"image-keyboard-response",503,344970,"0.0-3.164-0.164","s2zthvxk4cjltjq","71.csv","","34.699999928474426","resources/trios/L2T2A2.jpg","37","restless",0.9,0.5,0.4,0.624453242613711,"true"
"image-keyboard-response",504,345375,"0.0-3.164-1.164","s2zthvxk4cjltjq","71.csv","","null","resources/maskTrios/L2BB.jpg","null","",NA,NA,NA,NA,""
"image-keyboard-response",505,346580,"0.0-3.164-2.164","s2zthvxk4cjltjq","71.csv","","null","resources/images/coin2.png","null","",NA,NA,NA,NA,""
"image-keyboard-response",506,346677,"0.0-3.165-0.165","s2zthvxk4cjltjq","71.csv","","94.89999997615814","resources/trios/L4T2A2.jpg","37","restless",0.9,0.5,0.4,0.167877635023522,"true"
"image-keyboard-response",507,347085,"0.0-3.165-1.165","s2zthvxk4cjltjq","71.csv","","null","resources/maskTrios/L4BB.jpg","null","",NA,NA,NA,NA,""
"image-keyboard-response",508,348288,"0.0-3.165-2.165","s2zthvxk4cjltjq","71.csv","","null","resources/images/coin2.png","null","",NA,NA,NA,NA,""
"image-keyboard-response",509,348454,"0.0-3.166-0.166","s2zthvxk4cjltjq","71.csv","","164.20000004768372","resources/trios/L4T2A2.jpg","37","restless",0.9,0.5,0.4,0.112150328063939,"true"
"image-keyboard-response",510,348858,"0.0-3.166-1.166","s2zthvxk4cjltjq","71.csv","","null","resources/maskTrios/L4BB.jpg","null","",NA,NA,NA,NA,""
"image-keyboard-response",511,350065,"0.0-3.166-2.166","s2zthvxk4cjltjq","71.csv","","null","resources/images/coin2.png","null","",NA,NA,NA,NA,""
"image-keyboard-response",512,350130,"0.0-3.167-0.167","s2zthvxk4cjltjq","71.csv","","62.199999928474426","resources/trios/L4T4A1.jpg","37","restless",0.9,0.5,0.4,0.0484135613003911,"true"
"image-keyboard-response",513,350536,"0.0-3.167-1.167","s2zthvxk4cjltjq","71.csv","","null","resources/maskTrios/L4BB.jpg","null","",NA,NA,NA,NA,""
"image-keyboard-response",514,351743,"0.0-3.167-2.167","s2zthvxk4cjltjq","71.csv","","null","resources/images/coin2.png","null","",NA,NA,NA,NA,""
"image-keyboard-response",515,351800,"0.0-3.168-0.168","s2zthvxk4cjltjq","71.csv","","55","resources/trios/L2T4A1.jpg","37","restless",0.9,0.5,0.4,0.424112380014115,"true"
"image-keyboard-response",516,352204,"0.0-3.168-1.168","s2zthvxk4cjltjq","71.csv","","null","resources/maskTrios/L2BB.jpg","null","",NA,NA,NA,NA,""
"image-keyboard-response",517,353407,"0.0-3.168-2.168","s2zthvxk4cjltjq","71.csv","","null","resources/images/coin2.png","null","",NA,NA,NA,NA,""
"image-keyboard-response",518,353513,"0.0-3.169-0.169","s2zthvxk4cjltjq","71.csv","","104.09999990463257","resources/trios/L2T2A1.jpg","37","restless",0.9,0.5,0.4,0.0346539975168842,"true"
"image-keyboard-response",519,353918,"0.0-3.169-1.169","s2zthvxk4cjltjq","71.csv","","null","resources/maskTrios/L2BB.jpg","null","",NA,NA,NA,NA,""
"image-keyboard-response",520,355124,"0.0-3.169-2.169","s2zthvxk4cjltjq","71.csv","","null","resources/images/coin2.png","null","",NA,NA,NA,NA,""
"image-keyboard-response",521,355262,"0.0-3.170-0.170","s2zthvxk4cjltjq","71.csv","","135.39999997615814","resources/trios/L4T2A1.jpg","37","restless",0.9,0.5,0.4,0.940162998419038,"false"
"image-keyboard-response",522,355664,"0.0-3.170-1.170","s2zthvxk4cjltjq","71.csv","","null","resources/maskTrios/L4BB.jpg","null","",NA,NA,NA,NA,""
"image-keyboard-response",523,356869,"0.0-3.170-2.170","s2zthvxk4cjltjq","71.csv","","null","resources/images/fishbone.png","null","",NA,NA,NA,NA,""
"image-keyboard-response",524,356970,"0.0-3.171-0.171","s2zthvxk4cjltjq","71.csv","","99.10000002384186","resources/trios/L2T2A1.jpg","37","restless",0.9,0.6,0.4,0.144133016723157,"true"
"image-keyboard-response",525,357377,"0.0-3.171-1.171","s2zthvxk4cjltjq","71.csv","","null","resources/maskTrios/L2BB.jpg","null","",NA,NA,NA,NA,""
"image-keyboard-response",526,358584,"0.0-3.171-2.171","s2zthvxk4cjltjq","71.csv","","null","resources/images/coin2.png","null","",NA,NA,NA,NA,""
"image-keyboard-response",527,358778,"0.0-3.172-0.172","s2zthvxk4cjltjq","71.csv","","192.09999990463257","resources/trios/L4T2A2.jpg","37","restless",0.9,0.6,0.4,0.46962586631728,"true"
"image-keyboard-response",528,359182,"0.0-3.172-1.172","s2zthvxk4cjltjq","71.csv","","null","resources/maskTrios/L4BB.jpg","null","",NA,NA,NA,NA,""
"image-keyboard-response",529,360389,"0.0-3.172-2.172","s2zthvxk4cjltjq","71.csv","","null","resources/images/coin2.png","null","",NA,NA,NA,NA,""
"image-keyboard-response",530,360516,"0.0-3.173-0.173","s2zthvxk4cjltjq","71.csv","","125.09999990463257","resources/trios/L2T4A1.jpg","37","restless",0.9,0.6,0.4,0.804516705154665,"true"
"image-keyboard-response",531,360922,"0.0-3.173-1.173","s2zthvxk4cjltjq","71.csv","","null","resources/maskTrios/L2BB.jpg","null","",NA,NA,NA,NA,""
"image-keyboard-response",532,362124,"0.0-3.173-2.173","s2zthvxk4cjltjq","71.csv","","null","resources/images/coin2.png","null","",NA,NA,NA,NA,""
"image-keyboard-response",533,362224,"0.0-3.174-0.174","s2zthvxk4cjltjq","71.csv","","97.80000007152557","resources/trios/L2T4A1.jpg","37","restless",0.9,0.6,0.4,0.291958027739338,"true"
"image-keyboard-response",534,362628,"0.0-3.174-1.174","s2zthvxk4cjltjq","71.csv","","null","resources/maskTrios/L2BB.jpg","null","",NA,NA,NA,NA,""
"image-keyboard-response",535,363835,"0.0-3.174-2.174","s2zthvxk4cjltjq","71.csv","","null","resources/images/coin2.png","null","",NA,NA,NA,NA,""
"image-keyboard-response",536,363971,"0.0-3.175-0.175","s2zthvxk4cjltjq","71.csv","","134","resources/trios/L4T4A2.jpg","37","restless",0.9,0.6,0.4,0.269726195471407,"true"
"image-keyboard-response",537,364375,"0.0-3.175-1.175","s2zthvxk4cjltjq","71.csv","","null","resources/maskTrios/L4BB.jpg","null","",NA,NA,NA,NA,""
"image-keyboard-response",538,365580,"0.0-3.175-2.175","s2zthvxk4cjltjq","71.csv","","null","resources/images/coin2.png","null","",NA,NA,NA,NA,""
"image-keyboard-response",539,365783,"0.0-3.176-0.176","s2zthvxk4cjltjq","71.csv","","200.5","resources/trios/L2T4A2.jpg","37","restless",0.9,0.6,0.4,0.241214839476264,"true"
"image-keyboard-response",540,366191,"0.0-3.176-1.176","s2zthvxk4cjltjq","71.csv","","null","resources/maskTrios/L2BB.jpg","null","",NA,NA,NA,NA,""
"image-keyboard-response",541,367398,"0.0-3.176-2.176","s2zthvxk4cjltjq","71.csv","","null","resources/images/coin2.png","null","",NA,NA,NA,NA,""
"image-keyboard-response",542,367598,"0.0-3.177-0.177","s2zthvxk4cjltjq","71.csv","","198.20000004768372","resources/trios/L4T2A2.jpg","37","restless",0.8,0.5,0.4,0.975230425906016,"false"
"image-keyboard-response",543,368004,"0.0-3.177-1.177","s2zthvxk4cjltjq","71.csv","","null","resources/maskTrios/L4BB.jpg","null","",NA,NA,NA,NA,""
"image-keyboard-response",544,369206,"0.0-3.177-2.177","s2zthvxk4cjltjq","71.csv","","null","resources/images/fishbone.png","null","",NA,NA,NA,NA,""
"image-keyboard-response",545,369356,"0.0-3.178-0.178","s2zthvxk4cjltjq","71.csv","","148.20000004768372","resources/trios/L2T2A2.jpg","37","restless",0.9,0.5,0.3,0.299849645345193,"true"
"image-keyboard-response",546,369763,"0.0-3.178-1.178","s2zthvxk4cjltjq","71.csv","","null","resources/maskTrios/L2BB.jpg","null","",NA,NA,NA,NA,""
"image-keyboard-response",547,370970,"0.0-3.178-2.178","s2zthvxk4cjltjq","71.csv","","null","resources/images/coin2.png","null","",NA,NA,NA,NA,""
"image-keyboard-response",548,370995,"0.0-3.179-0.179","s2zthvxk4cjltjq","71.csv","","22.199999928474426","resources/trios/L4T4A2.jpg","37","restless",0.9,0.5,0.3,0.119834675277992,"true"
"image-keyboard-response",549,371397,"0.0-3.179-1.179","s2zthvxk4cjltjq","71.csv","","null","resources/maskTrios/L4BB.jpg","null","",NA,NA,NA,NA,""
"image-keyboard-response",550,372603,"0.0-3.179-2.179","s2zthvxk4cjltjq","71.csv","","null","resources/images/coin2.png","null","",NA,NA,NA,NA,""
"image-keyboard-response",551,372839,"0.0-3.180-0.180","s2zthvxk4cjltjq","71.csv","","233.60000002384186","resources/trios/L4T4A2.jpg","37","restless",0.8,0.5,0.3,0.863558197492537,"false"
"image-keyboard-response",552,373247,"0.0-3.180-1.180","s2zthvxk4cjltjq","71.csv","","null","resources/maskTrios/L4BB.jpg","null","",NA,NA,NA,NA,""
"image-keyboard-response",553,374452,"0.0-3.180-2.180","s2zthvxk4cjltjq","71.csv","","null","resources/images/fishbone.png","null","",NA,NA,NA,NA,""
"image-keyboard-response",554,374513,"0.0-3.181-0.181","s2zthvxk4cjltjq","71.csv","","58.89999997615814","resources/trios/L4T4A2.jpg","37","restless",0.8,0.5,0.3,0.836148773756155,"false"
"image-keyboard-response",555,374920,"0.0-3.181-1.181","s2zthvxk4cjltjq","71.csv","","null","resources/maskTrios/L4BB.jpg","null","",NA,NA,NA,NA,""
"image-keyboard-response",556,376127,"0.0-3.181-2.181","s2zthvxk4cjltjq","71.csv","","null","resources/images/fishbone.png","null","",NA,NA,NA,NA,""
"image-keyboard-response",557,376230,"0.0-3.182-0.182","s2zthvxk4cjltjq","71.csv","","100.5","resources/trios/L2T4A1.jpg","37","restless",0.8,0.5,0.3,0.20534086284366,"true"
"image-keyboard-response",558,376637,"0.0-3.182-1.182","s2zthvxk4cjltjq","71.csv","","null","resources/maskTrios/L2BB.jpg","null","",NA,NA,NA,NA,""
"image-keyboard-response",559,377845,"0.0-3.182-2.182","s2zthvxk4cjltjq","71.csv","","null","resources/images/coin2.png","null","",NA,NA,NA,NA,""
"image-keyboard-response",560,377924,"0.0-3.183-0.183","s2zthvxk4cjltjq","71.csv","","77.5","resources/trios/L2T4A2.jpg","37","restless",0.8,0.5,0.3,0.609499870001392,"true"
"image-keyboard-response",561,378332,"0.0-3.183-1.183","s2zthvxk4cjltjq","71.csv","","null","resources/maskTrios/L2BB.jpg","null","",NA,NA,NA,NA,""
"image-keyboard-response",562,379537,"0.0-3.183-2.183","s2zthvxk4cjltjq","71.csv","","null","resources/images/coin2.png","null","",NA,NA,NA,NA,""
"image-keyboard-response",563,379601,"0.0-3.184-0.184","s2zthvxk4cjltjq","71.csv","","61.699999928474426","resources/trios/L2T2A1.jpg","37","restless",0.8,0.5,0.3,0.447344342498955,"true"
"image-keyboard-response",564,380008,"0.0-3.184-1.184","s2zthvxk4cjltjq","71.csv","","null","resources/maskTrios/L2BB.jpg","null","",NA,NA,NA,NA,""
"image-keyboard-response",565,381215,"0.0-3.184-2.184","s2zthvxk4cjltjq","71.csv","","null","resources/images/coin2.png","null","",NA,NA,NA,NA,""
"image-keyboard-response",566,381308,"0.0-3.185-0.185","s2zthvxk4cjltjq","71.csv","","90.80000007152557","resources/trios/L4T2A2.jpg","37","restless",0.8,0.5,0.3,0.22817114540697,"true"
"image-keyboard-response",567,381711,"0.0-3.185-1.185","s2zthvxk4cjltjq","71.csv","","null","resources/maskTrios/L4BB.jpg","null","",NA,NA,NA,NA,""
"image-keyboard-response",568,382918,"0.0-3.185-2.185","s2zthvxk4cjltjq","71.csv","","null","resources/images/coin2.png","null","",NA,NA,NA,NA,""
"image-keyboard-response",569,383166,"0.0-3.186-0.186","s2zthvxk4cjltjq","71.csv","","246.09999990463257","resources/trios/L4T2A2.jpg","37","restless",0.8,0.5,0.3,0.932636123341866,"false"
"image-keyboard-response",570,383574,"0.0-3.186-1.186","s2zthvxk4cjltjq","71.csv","","null","resources/maskTrios/L4BB.jpg","null","",NA,NA,NA,NA,""
"image-keyboard-response",571,384777,"0.0-3.186-2.186","s2zthvxk4cjltjq","71.csv","","null","resources/images/fishbone.png","null","",NA,NA,NA,NA,""
"image-keyboard-response",572,384808,"0.0-3.187-0.187","s2zthvxk4cjltjq","71.csv","","28.5","resources/trios/L2T2A1.jpg","37","restless",0.8,0.5,0.3,0.588610746314655,"true"
"image-keyboard-response",573,385214,"0.0-3.187-1.187","s2zthvxk4cjltjq","71.csv","","null","resources/maskTrios/L2BB.jpg","null","",NA,NA,NA,NA,""
"image-keyboard-response",574,386421,"0.0-3.187-2.187","s2zthvxk4cjltjq","71.csv","","null","resources/images/coin2.png","null","",NA,NA,NA,NA,""
"image-keyboard-response",575,386434,"0.0-3.188-0.188","s2zthvxk4cjltjq","71.csv","","11.200000047683716","resources/trios/L4T2A2.jpg","37","restless",0.8,0.5,0.3,0.990938243343985,"false"
"image-keyboard-response",576,386840,"0.0-3.188-1.188","s2zthvxk4cjltjq","71.csv","","null","resources/maskTrios/L4BB.jpg","null","",NA,NA,NA,NA,""
"image-keyboard-response",577,388044,"0.0-3.188-2.188","s2zthvxk4cjltjq","71.csv","","null","resources/images/fishbone.png","null","",NA,NA,NA,NA,""
"image-keyboard-response",578,388190,"0.0-3.189-0.189","s2zthvxk4cjltjq","71.csv","","143.5","resources/trios/L2T2A1.jpg","37","restless",0.8,0.5,0.3,0.211833772560786,"true"
"image-keyboard-response",579,388595,"0.0-3.189-1.189","s2zthvxk4cjltjq","71.csv","","null","resources/maskTrios/L2BB.jpg","null","",NA,NA,NA,NA,""
"image-keyboard-response",580,389797,"0.0-3.189-2.189","s2zthvxk4cjltjq","71.csv","","null","resources/images/coin2.png","null","",NA,NA,NA,NA,""
"image-keyboard-response",581,389885,"0.0-3.190-0.190","s2zthvxk4cjltjq","71.csv","","85","resources/trios/L2T4A2.jpg","37","restless",0.8,0.6,0.3,0.865659144798967,"false"
"image-keyboard-response",582,390292,"0.0-3.190-1.190","s2zthvxk4cjltjq","71.csv","","null","resources/maskTrios/L2BB.jpg","null","",NA,NA,NA,NA,""
"image-keyboard-response",583,391497,"0.0-3.190-2.190","s2zthvxk4cjltjq","71.csv","","null","resources/images/fishbone.png","null","",NA,NA,NA,NA,""
"image-keyboard-response",584,391511,"0.0-3.191-0.191","s2zthvxk4cjltjq","71.csv","","12.599999904632568","resources/trios/L4T2A2.jpg","37","restless",0.8,0.6,0.3,0.590357217253485,"true"
"image-keyboard-response",585,391918,"0.0-3.191-1.191","s2zthvxk4cjltjq","71.csv","","null","resources/maskTrios/L4BB.jpg","null","",NA,NA,NA,NA,""
"image-keyboard-response",586,393120,"0.0-3.191-2.191","s2zthvxk4cjltjq","71.csv","","null","resources/images/coin2.png","null","",NA,NA,NA,NA,""
"image-keyboard-response",587,393350,"0.0-3.192-0.192","s2zthvxk4cjltjq","71.csv","","229.39999997615814","resources/trios/L2T4A2.jpg","37","restless",0.8,0.6,0.3,0.381812230008513,"true"
"image-keyboard-response",588,393753,"0.0-3.192-1.192","s2zthvxk4cjltjq","71.csv","","null","resources/maskTrios/L2BB.jpg","null","",NA,NA,NA,NA,""
"image-keyboard-response",589,394961,"0.0-3.192-2.192","s2zthvxk4cjltjq","71.csv","","null","resources/images/coin2.png","null","",NA,NA,NA,NA,""
"image-keyboard-response",590,394966,"0.0-3.193-0.193","s2zthvxk4cjltjq","71.csv","","3.6999999284744263","resources/trios/L4T2A2.jpg","37","restless",0.8,0.6,0.3,0.815203748724812,"false"
"image-keyboard-response",591,395369,"0.0-3.193-1.193","s2zthvxk4cjltjq","71.csv","","null","resources/maskTrios/L4BB.jpg","null","",NA,NA,NA,NA,""
"image-keyboard-response",592,396576,"0.0-3.193-2.193","s2zthvxk4cjltjq","71.csv","","null","resources/images/fishbone.png","null","",NA,NA,NA,NA,""
"image-keyboard-response",593,396771,"0.0-3.194-0.194","s2zthvxk4cjltjq","71.csv","","191.79999995231628","resources/trios/L2T2A2.jpg","37","restless",0.7,0.6,0.3,0.401248957508396,"true"
"image-keyboard-response",594,397175,"0.0-3.194-1.194","s2zthvxk4cjltjq","71.csv","","null","resources/maskTrios/L2BB.jpg","null","",NA,NA,NA,NA,""
"image-keyboard-response",595,398382,"0.0-3.194-2.194","s2zthvxk4cjltjq","71.csv","","null","resources/images/coin2.png","null","",NA,NA,NA,NA,""
"image-keyboard-response",596,398542,"0.0-3.195-0.195","s2zthvxk4cjltjq","71.csv","","158.10000002384186","resources/trios/L4T4A2.jpg","37","restless",0.7,0.6,0.3,0.0288547467525622,"true"
"image-keyboard-response",597,398945,"0.0-3.195-1.195","s2zthvxk4cjltjq","71.csv","","null","resources/maskTrios/L4BB.jpg","null","",NA,NA,NA,NA,""
"image-keyboard-response",598,400152,"0.0-3.195-2.195","s2zthvxk4cjltjq","71.csv","","null","resources/images/coin2.png","null","",NA,NA,NA,NA,""
"image-keyboard-response",599,400290,"0.0-3.196-0.196","s2zthvxk4cjltjq","71.csv","","135.39999997615814","resources/trios/L4T4A1.jpg","37","restless",0.7,0.6,0.4,0.461798315287455,"true"
"image-keyboard-response",600,400698,"0.0-3.196-1.196","s2zthvxk4cjltjq","71.csv","","null","resources/maskTrios/L4BB.jpg","null","",NA,NA,NA,NA,""
"image-keyboard-response",601,401905,"0.0-3.196-2.196","s2zthvxk4cjltjq","71.csv","","null","resources/images/coin2.png","null","",NA,NA,NA,NA,""
"image-keyboard-response",602,401908,"0.0-3.197-0.197","s2zthvxk4cjltjq","71.csv","","1.7000000476837158","resources/trios/L2T2A1.jpg","37","restless",0.7,0.6,0.4,0.519645367097844,"true"
"image-keyboard-response",603,402315,"0.0-3.197-1.197","s2zthvxk4cjltjq","71.csv","","null","resources/maskTrios/L2BB.jpg","null","",NA,NA,NA,NA,""
"image-keyboard-response",604,403520,"0.0-3.197-2.197","s2zthvxk4cjltjq","71.csv","","null","resources/images/coin2.png","null","",NA,NA,NA,NA,""
"image-keyboard-response",605,403539,"0.0-3.198-0.198","s2zthvxk4cjltjq","71.csv","","17.399999976158142","resources/trios/L4T2A2.jpg","37","restless",0.7,0.6,0.4,0.172792761342799,"true"
"image-keyboard-response",606,403945,"0.0-3.198-1.198","s2zthvxk4cjltjq","71.csv","","null","resources/maskTrios/L4BB.jpg","null","",NA,NA,NA,NA,""
"image-keyboard-response",607,405152,"0.0-3.198-2.198","s2zthvxk4cjltjq","71.csv","","null","resources/images/coin2.png","null","",NA,NA,NA,NA,""
"image-keyboard-response",608,405202,"0.0-3.199-0.199","s2zthvxk4cjltjq","71.csv","","47.5","resources/trios/L4T4A1.jpg","37","restless",0.7,0.6,0.4,0.155672119481504,"true"
"image-keyboard-response",609,405609,"0.0-3.199-1.199","s2zthvxk4cjltjq","71.csv","","null","resources/maskTrios/L4BB.jpg","null","",NA,NA,NA,NA,""
"image-keyboard-response",610,406812,"0.0-3.199-2.199","s2zthvxk4cjltjq","71.csv","","null","resources/images/coin2.png","null","",NA,NA,NA,NA,""
"image-keyboard-response",611,406980,"0.0-3.200-0.200","s2zthvxk4cjltjq","71.csv","","166","resources/trios/L4T4A2.jpg","37","restless",0.7,0.6,0.4,0.0458264902168322,"true"
"image-keyboard-response",612,407387,"0.0-3.200-1.200","s2zthvxk4cjltjq","71.csv","","null","resources/maskTrios/L4BB.jpg","null","",NA,NA,NA,NA,""
"image-keyboard-response",613,408592,"0.0-3.200-2.200","s2zthvxk4cjltjq","71.csv","","null","resources/images/coin2.png","null","",NA,NA,NA,NA,""
"image-keyboard-response",614,408704,"0.0-3.201-0.201","s2zthvxk4cjltjq","71.csv","","109.39999997615814","resources/trios/L4T4A2.jpg","37","restless",0.7,0.6,0.4,0.853577922595187,"false"
"image-keyboard-response",615,409107,"0.0-3.201-1.201","s2zthvxk4cjltjq","71.csv","","null","resources/maskTrios/L4BB.jpg","null","",NA,NA,NA,NA,""
"image-keyboard-response",616,410312,"0.0-3.201-2.201","s2zthvxk4cjltjq","71.csv","","null","resources/images/fishbone.png","null","",NA,NA,NA,NA,""
"image-keyboard-response",617,410399,"0.0-3.202-0.202","s2zthvxk4cjltjq","71.csv","","84.79999995231628","resources/trios/L2T2A1.jpg","37","restless",0.6,0.6,0.4,0.818846300922575,"false"
"image-keyboard-response",618,410802,"0.0-3.202-1.202","s2zthvxk4cjltjq","71.csv","","null","resources/maskTrios/L2BB.jpg","null","",NA,NA,NA,NA,""
"image-keyboard-response",619,412006,"0.0-3.202-2.202","s2zthvxk4cjltjq","71.csv","","null","resources/images/fishbone.png","null","",NA,NA,NA,NA,""
"image-keyboard-response",620,412216,"0.0-3.203-0.203","s2zthvxk4cjltjq","71.csv","","207.20000004768372","resources/trios/L4T4A2.jpg","37","restless",0.6,0.6,0.4,0.901679328625635,"false"
"image-keyboard-response",621,412623,"0.0-3.203-1.203","s2zthvxk4cjltjq","71.csv","","null","resources/maskTrios/L4BB.jpg","null","",NA,NA,NA,NA,""
"image-keyboard-response",622,413827,"0.0-3.203-2.203","s2zthvxk4cjltjq","71.csv","","null","resources/images/fishbone.png","null","",NA,NA,NA,NA,""
"image-keyboard-response",623,413885,"0.0-3.204-0.204","s2zthvxk4cjltjq","71.csv","","55.10000002384186","resources/trios/L4T4A2.jpg","38","restless",0.6,0.7,0.4,0.437587483576894,"true"
"image-keyboard-response",624,414292,"0.0-3.204-1.204","s2zthvxk4cjltjq","71.csv","","null","resources/maskTrios/BT4B.jpg","null","",NA,NA,NA,NA,""
"image-keyboard-response",625,415498,"0.0-3.204-2.204","s2zthvxk4cjltjq","71.csv","","null","resources/images/coin2.png","null","",NA,NA,NA,NA,""
