"trial_type","trial_index","time_elapsed","internal_node_id","subject","participantCode","walkNumber","success","rt","stimulus","key_press","test_part","leftProb","midProb","rightProb","generatedNum","correct"
"pavlovia",0,1196,"0.0-0.0","bmrr4wsj7s2fs1r",565,"8.csv","","","","","",NA,NA,NA,NA,""
"fullscreen",1,5916,"0.0-1.0","bmrr4wsj7s2fs1r",565,"8.csv","true","","","","",NA,NA,NA,NA,""
"html-keyboard-response",2,30087,"0.0-2.0-0.0","bmrr4wsj7s2fs1r",565,"8.csv","","24169","<p><font size='6'>Arrrgh!</p></font><p>Can you be the best pirate? Try to find lots of gold! But beware, some islands have more gold than others, and over time, the island with the most gold may change. Can YOU figure it out? </p><font size='6'>GOOD LUCK, CAPTAIN!!!</font><p>Press any key to begin</p>","32","",NA,NA,NA,NA,""
"image-keyboard-response",3,33094,"0.0-2.0-1.0","bmrr4wsj7s2fs1r",565,"8.csv","","null","resources/image_sets/111.png","null","",NA,NA,NA,NA,""
"image-keyboard-response",4,41545,"0.0-2.0-2.0","bmrr4wsj7s2fs1r",565,"8.csv","","8449.000000000007","resources/image_sets/left_highlight.png","37","",NA,NA,NA,NA,""
"image-keyboard-response",5,44926,"0.0-2.0-3.0","bmrr4wsj7s2fs1r",565,"8.csv","","3380","resources/image_sets/mid_highlight.png","38","",NA,NA,NA,NA,""
"image-keyboard-response",6,46414,"0.0-2.0-4.0","bmrr4wsj7s2fs1r",565,"8.csv","","1486.0000000000073","resources/image_sets/right_highlight.png","39","",NA,NA,NA,NA,""
"image-keyboard-response",7,52025,"0.0-2.0-5.0","bmrr4wsj7s2fs1r",565,"8.csv","","5609","resources/image_sets/111.png","13","",NA,NA,NA,NA,""
"image-keyboard-response",8,57939,"0.0-2.0-6.0","bmrr4wsj7s2fs1r",565,"8.csv","","5911.999999999993","resources/images/coin2.png","13","",NA,NA,NA,NA,""
"image-keyboard-response",9,60219,"0.0-2.0-7.0","bmrr4wsj7s2fs1r",565,"8.csv","","2279.0000000000073","resources/images/fishbone.png","13","",NA,NA,NA,NA,""
"html-keyboard-response",10,71553,"0.0-2.0-8.0","bmrr4wsj7s2fs1r",565,"8.csv","","11332","<p>Your first journey will be a long one, but you will get a well deserved break at the end</p><p>After the break you will have four more journeys, but each will be much shorter than the first, and you will have breaks in between each</p><p>Press Enter to begin</p>","13","",NA,NA,NA,NA,""
"image-keyboard-response",11,77664,"0.0-3.0-0.0","bmrr4wsj7s2fs1r",565,"8.csv","","6109","resources/trios/L2T1A1.jpg","38","restless",0.3,0.9,0.7,0.343618181990835,"true"
"image-keyboard-response",12,78070,"0.0-3.0-1.0","bmrr4wsj7s2fs1r",565,"8.csv","","null","resources/maskTrios/BT1B.jpg","null","",NA,NA,NA,NA,""
"image-keyboard-response",13,79274,"0.0-3.0-2.0","bmrr4wsj7s2fs1r",565,"8.csv","","null","resources/images/coin2.png","null","",NA,NA,NA,NA,""
"image-keyboard-response",14,82603,"0.0-3.1-0.1","bmrr4wsj7s2fs1r",565,"8.csv","","3325","resources/trios/L1T4A1.jpg","38","restless",0.3,0.9,0.7,0.564609384615097,"true"
"image-keyboard-response",15,83007,"0.0-3.1-1.1","bmrr4wsj7s2fs1r",565,"8.csv","","null","resources/maskTrios/BT4B.jpg","null","",NA,NA,NA,NA,""
"image-keyboard-response",16,84210,"0.0-3.1-2.1","bmrr4wsj7s2fs1r",565,"8.csv","","null","resources/images/coin2.png","null","",NA,NA,NA,NA,""
"image-keyboard-response",17,85688,"0.0-3.2-0.2","bmrr4wsj7s2fs1r",565,"8.csv","","1475","resources/trios/L1T4A2.jpg","38","restless",0.3,0.9,0.7,0.996056254657969,"false"
"image-keyboard-response",18,86091,"0.0-3.2-1.2","bmrr4wsj7s2fs1r",565,"8.csv","","null","resources/maskTrios/BT4B.jpg","null","",NA,NA,NA,NA,""
"image-keyboard-response",19,87294,"0.0-3.2-2.2","bmrr4wsj7s2fs1r",565,"8.csv","","null","resources/images/fishbone.png","null","",NA,NA,NA,NA,""
"image-keyboard-response",20,91527,"0.0-3.3-0.3","bmrr4wsj7s2fs1r",565,"8.csv","","4231","resources/trios/L1T1A1.jpg","38","restless",0.3,0.8,0.8,0.290672135783824,"true"
"image-keyboard-response",21,91930,"0.0-3.3-1.3","bmrr4wsj7s2fs1r",565,"8.csv","","null","resources/maskTrios/BT1B.jpg","null","",NA,NA,NA,NA,""
"image-keyboard-response",22,93134,"0.0-3.3-2.3","bmrr4wsj7s2fs1r",565,"8.csv","","null","resources/images/coin2.png","null","",NA,NA,NA,NA,""
"image-keyboard-response",23,96634,"0.0-3.4-0.4","bmrr4wsj7s2fs1r",565,"8.csv","","3497","resources/trios/L1T1A1.jpg","38","restless",0.3,0.7,0.8,0.819906365208545,"false"
"image-keyboard-response",24,97037,"0.0-3.4-1.4","bmrr4wsj7s2fs1r",565,"8.csv","","null","resources/maskTrios/BT1B.jpg","null","",NA,NA,NA,NA,""
"image-keyboard-response",25,98240,"0.0-3.4-2.4","bmrr4wsj7s2fs1r",565,"8.csv","","null","resources/images/fishbone.png","null","",NA,NA,NA,NA,""
"image-keyboard-response",26,99311,"0.0-3.5-0.5","bmrr4wsj7s2fs1r",565,"8.csv","","1068","resources/trios/L1T1A2.jpg","38","restless",0.3,0.7,0.8,0.0341880954318674,"true"
"image-keyboard-response",27,99714,"0.0-3.5-1.5","bmrr4wsj7s2fs1r",565,"8.csv","","null","resources/maskTrios/BT1B.jpg","null","",NA,NA,NA,NA,""
"image-keyboard-response",28,100917,"0.0-3.5-2.5","bmrr4wsj7s2fs1r",565,"8.csv","","null","resources/images/coin2.png","null","",NA,NA,NA,NA,""
"image-keyboard-response",29,101266,"0.0-3.6-0.6","bmrr4wsj7s2fs1r",565,"8.csv","","347","resources/trios/L1T4A1.jpg","37","restless",0.3,0.7,0.8,0.186787433947889,"true"
"image-keyboard-response",30,101669,"0.0-3.6-1.6","bmrr4wsj7s2fs1r",565,"8.csv","","null","resources/maskTrios/L1BB.jpg","null","",NA,NA,NA,NA,""
"image-keyboard-response",31,102872,"0.0-3.6-2.6","bmrr4wsj7s2fs1r",565,"8.csv","","null","resources/images/coin2.png","null","",NA,NA,NA,NA,""
"image-keyboard-response",32,105212,"0.0-3.7-0.7","bmrr4wsj7s2fs1r",565,"8.csv","","2337","resources/trios/L2T4A2.jpg","38","restless",0.3,0.7,0.8,0.828702735594892,"false"
"image-keyboard-response",33,105615,"0.0-3.7-1.7","bmrr4wsj7s2fs1r",565,"8.csv","","null","resources/maskTrios/BT4B.jpg","null","",NA,NA,NA,NA,""
"image-keyboard-response",34,106818,"0.0-3.7-2.7","bmrr4wsj7s2fs1r",565,"8.csv","","null","resources/images/fishbone.png","null","",NA,NA,NA,NA,""
"image-keyboard-response",35,109511,"0.0-3.8-0.8","bmrr4wsj7s2fs1r",565,"8.csv","","2690.9999999999854","resources/trios/L1T1A1.jpg","38","restless",0.3,0.7,0.8,0.955758431287035,"false"
"image-keyboard-response",36,109915,"0.0-3.8-1.8","bmrr4wsj7s2fs1r",565,"8.csv","","null","resources/maskTrios/BT1B.jpg","null","",NA,NA,NA,NA,""
"image-keyboard-response",37,111118,"0.0-3.8-2.8","bmrr4wsj7s2fs1r",565,"8.csv","","null","resources/images/fishbone.png","null","",NA,NA,NA,NA,""
"image-keyboard-response",38,113975,"0.0-3.9-0.9","bmrr4wsj7s2fs1r",565,"8.csv","","2854","resources/trios/L1T4A1.jpg","37","restless",0.3,0.7,0.8,0.0296009006582176,"true"
"image-keyboard-response",39,114378,"0.0-3.9-1.9","bmrr4wsj7s2fs1r",565,"8.csv","","null","resources/maskTrios/L1BB.jpg","null","",NA,NA,NA,NA,""
"image-keyboard-response",40,115582,"0.0-3.9-2.9","bmrr4wsj7s2fs1r",565,"8.csv","","null","resources/images/coin2.png","null","",NA,NA,NA,NA,""
"image-keyboard-response",41,119221,"0.0-3.10-0.10","bmrr4wsj7s2fs1r",565,"8.csv","","3637","resources/trios/L1T1A2.jpg","38","restless",0.3,0.6,0.8,0.564996322946979,"true"
"image-keyboard-response",42,119625,"0.0-3.10-1.10","bmrr4wsj7s2fs1r",565,"8.csv","","null","resources/maskTrios/BT1B.jpg","null","",NA,NA,NA,NA,""
"image-keyboard-response",43,120828,"0.0-3.10-2.10","bmrr4wsj7s2fs1r",565,"8.csv","","null","resources/images/coin2.png","null","",NA,NA,NA,NA,""
"image-keyboard-response",44,121641,"0.0-3.11-0.11","bmrr4wsj7s2fs1r",565,"8.csv","","810","resources/trios/L1T4A2.jpg","37","restless",0.3,0.6,0.8,0.779266650640732,"false"
"image-keyboard-response",45,122044,"0.0-3.11-1.11","bmrr4wsj7s2fs1r",565,"8.csv","","null","resources/maskTrios/L1BB.jpg","null","",NA,NA,NA,NA,""
"image-keyboard-response",46,123247,"0.0-3.11-2.11","bmrr4wsj7s2fs1r",565,"8.csv","","null","resources/images/fishbone.png","null","",NA,NA,NA,NA,""
"image-keyboard-response",47,127991,"0.0-3.12-0.12","bmrr4wsj7s2fs1r",565,"8.csv","","4742","resources/trios/L1T1A1.jpg","38","restless",0.3,0.6,0.8,0.541750949944218,"true"
"image-keyboard-response",48,128395,"0.0-3.12-1.12","bmrr4wsj7s2fs1r",565,"8.csv","","null","resources/maskTrios/BT1B.jpg","null","",NA,NA,NA,NA,""
"image-keyboard-response",49,129598,"0.0-3.12-2.12","bmrr4wsj7s2fs1r",565,"8.csv","","null","resources/images/coin2.png","null","",NA,NA,NA,NA,""
"image-keyboard-response",50,130367,"0.0-3.13-0.13","bmrr4wsj7s2fs1r",565,"8.csv","","767","resources/trios/L1T4A2.jpg","37","restless",0.3,0.6,0.8,0.966133866081843,"false"
"image-keyboard-response",51,130771,"0.0-3.13-1.13","bmrr4wsj7s2fs1r",565,"8.csv","","null","resources/maskTrios/L1BB.jpg","null","",NA,NA,NA,NA,""
"image-keyboard-response",52,131974,"0.0-3.13-2.13","bmrr4wsj7s2fs1r",565,"8.csv","","null","resources/images/fishbone.png","null","",NA,NA,NA,NA,""
"image-keyboard-response",53,133890,"0.0-3.14-0.14","bmrr4wsj7s2fs1r",565,"8.csv","","1915","resources/trios/L1T1A2.jpg","38","restless",0.3,0.6,0.8,0.694250021577403,"false"
"image-keyboard-response",54,134294,"0.0-3.14-1.14","bmrr4wsj7s2fs1r",565,"8.csv","","null","resources/maskTrios/BT1B.jpg","null","",NA,NA,NA,NA,""
"image-keyboard-response",55,135496,"0.0-3.14-2.14","bmrr4wsj7s2fs1r",565,"8.csv","","null","resources/images/fishbone.png","null","",NA,NA,NA,NA,""
"image-keyboard-response",56,137417,"0.0-3.15-0.15","bmrr4wsj7s2fs1r",565,"8.csv","","1919.000000000029","resources/trios/L2T4A1.jpg","39","restless",0.2,0.5,0.8,0.653878328693357,"true"
"image-keyboard-response",57,137821,"0.0-3.15-1.15","bmrr4wsj7s2fs1r",565,"8.csv","","null","resources/maskTrios/BBA1.jpg","null","",NA,NA,NA,NA,""
"image-keyboard-response",58,139024,"0.0-3.15-2.15","bmrr4wsj7s2fs1r",565,"8.csv","","null","resources/images/coin2.png","null","",NA,NA,NA,NA,""
"image-keyboard-response",59,141168,"0.0-3.16-0.16","bmrr4wsj7s2fs1r",565,"8.csv","","2142","resources/trios/L2T1A2.jpg","38","restless",0.2,0.5,0.8,0.198228209350316,"true"
"image-keyboard-response",60,141572,"0.0-3.16-1.16","bmrr4wsj7s2fs1r",565,"8.csv","","null","resources/maskTrios/BT1B.jpg","null","",NA,NA,NA,NA,""
"image-keyboard-response",61,142775,"0.0-3.16-2.16","bmrr4wsj7s2fs1r",565,"8.csv","","null","resources/images/coin2.png","null","",NA,NA,NA,NA,""
"image-keyboard-response",62,143371,"0.0-3.17-0.17","bmrr4wsj7s2fs1r",565,"8.csv","","594","resources/trios/L2T1A1.jpg","37","restless",0.2,0.5,0.8,0.321328261008882,"false"
"image-keyboard-response",63,143774,"0.0-3.17-1.17","bmrr4wsj7s2fs1r",565,"8.csv","","null","resources/maskTrios/L2BB.jpg","null","",NA,NA,NA,NA,""
"image-keyboard-response",64,144978,"0.0-3.17-2.17","bmrr4wsj7s2fs1r",565,"8.csv","","null","resources/images/fishbone.png","null","",NA,NA,NA,NA,""
"image-keyboard-response",65,147511,"0.0-3.18-0.18","bmrr4wsj7s2fs1r",565,"8.csv","","2532","resources/trios/L2T4A1.jpg","39","restless",0.2,0.5,0.8,0.564513623682693,"true"
"image-keyboard-response",66,147915,"0.0-3.18-1.18","bmrr4wsj7s2fs1r",565,"8.csv","","null","resources/maskTrios/BBA1.jpg","null","",NA,NA,NA,NA,""
"image-keyboard-response",67,149118,"0.0-3.18-2.18","bmrr4wsj7s2fs1r",565,"8.csv","","null","resources/images/coin2.png","null","",NA,NA,NA,NA,""
"image-keyboard-response",68,150406,"0.0-3.19-0.19","bmrr4wsj7s2fs1r",565,"8.csv","","1285.000000000029","resources/trios/L2T4A1.jpg","37","restless",0.2,0.5,0.8,0.61664941070707,"false"
"image-keyboard-response",69,150809,"0.0-3.19-1.19","bmrr4wsj7s2fs1r",565,"8.csv","","null","resources/maskTrios/L2BB.jpg","null","",NA,NA,NA,NA,""
"image-keyboard-response",70,152012,"0.0-3.19-2.19","bmrr4wsj7s2fs1r",565,"8.csv","","null","resources/images/fishbone.png","null","",NA,NA,NA,NA,""
"image-keyboard-response",71,152696,"0.0-3.20-0.20","bmrr4wsj7s2fs1r",565,"8.csv","","682","resources/trios/L2T4A2.jpg","38","restless",0.2,0.5,0.8,0.018259336860257,"true"
"image-keyboard-response",72,153100,"0.0-3.20-1.20","bmrr4wsj7s2fs1r",565,"8.csv","","null","resources/maskTrios/BT4B.jpg","null","",NA,NA,NA,NA,""
"image-keyboard-response",73,154303,"0.0-3.20-2.20","bmrr4wsj7s2fs1r",565,"8.csv","","null","resources/images/coin2.png","null","",NA,NA,NA,NA,""
"image-keyboard-response",74,154782,"0.0-3.21-0.21","bmrr4wsj7s2fs1r",565,"8.csv","","477.9999999999709","resources/trios/L2T1A1.jpg","39","restless",0.2,0.5,0.8,0.319078918094818,"true"
"image-keyboard-response",75,155185,"0.0-3.21-1.21","bmrr4wsj7s2fs1r",565,"8.csv","","null","resources/maskTrios/BBA1.jpg","null","",NA,NA,NA,NA,""
"image-keyboard-response",76,156388,"0.0-3.21-2.21","bmrr4wsj7s2fs1r",565,"8.csv","","null","resources/images/coin2.png","null","",NA,NA,NA,NA,""
"image-keyboard-response",77,157297,"0.0-3.22-0.22","bmrr4wsj7s2fs1r",565,"8.csv","","907","resources/trios/L2T1A2.jpg","37","restless",0.1,0.5,0.8,0.468807885905207,"false"
"image-keyboard-response",78,157701,"0.0-3.22-1.22","bmrr4wsj7s2fs1r",565,"8.csv","","null","resources/maskTrios/L2BB.jpg","null","",NA,NA,NA,NA,""
"image-keyboard-response",79,158904,"0.0-3.22-2.22","bmrr4wsj7s2fs1r",565,"8.csv","","null","resources/images/fishbone.png","null","",NA,NA,NA,NA,""
"image-keyboard-response",80,159818,"0.0-3.23-0.23","bmrr4wsj7s2fs1r",565,"8.csv","","912","resources/trios/L1T4A2.jpg","38","restless",0.1,0.5,0.8,0.903782619759423,"false"
"image-keyboard-response",81,160221,"0.0-3.23-1.23","bmrr4wsj7s2fs1r",565,"8.csv","","null","resources/maskTrios/BT4B.jpg","null","",NA,NA,NA,NA,""
"image-keyboard-response",82,161424,"0.0-3.23-2.23","bmrr4wsj7s2fs1r",565,"8.csv","","null","resources/images/fishbone.png","null","",NA,NA,NA,NA,""
"image-keyboard-response",83,163553,"0.0-3.24-0.24","bmrr4wsj7s2fs1r",565,"8.csv","","2127","resources/trios/L1T1A2.jpg","39","restless",0.1,0.5,0.8,0.321301562628161,"true"
"image-keyboard-response",84,163956,"0.0-3.24-1.24","bmrr4wsj7s2fs1r",565,"8.csv","","null","resources/maskTrios/BBA2.jpg","null","",NA,NA,NA,NA,""
"image-keyboard-response",85,165159,"0.0-3.24-2.24","bmrr4wsj7s2fs1r",565,"8.csv","","null","resources/images/coin2.png","null","",NA,NA,NA,NA,""
"image-keyboard-response",86,165753,"0.0-3.25-0.25","bmrr4wsj7s2fs1r",565,"8.csv","","591.9999999999709","resources/trios/L1T4A2.jpg","38","restless",0.1,0.5,0.8,0.417443615270826,"true"
"image-keyboard-response",87,166156,"0.0-3.25-1.25","bmrr4wsj7s2fs1r",565,"8.csv","","null","resources/maskTrios/BT4B.jpg","null","",NA,NA,NA,NA,""
"image-keyboard-response",88,167359,"0.0-3.25-2.25","bmrr4wsj7s2fs1r",565,"8.csv","","null","resources/images/coin2.png","null","",NA,NA,NA,NA,""
"image-keyboard-response",89,168479,"0.0-3.26-0.26","bmrr4wsj7s2fs1r",565,"8.csv","","1118","resources/trios/L1T1A1.jpg","39","restless",0.1,0.5,0.8,0.454683781282234,"true"
"image-keyboard-response",90,168882,"0.0-3.26-1.26","bmrr4wsj7s2fs1r",565,"8.csv","","null","resources/maskTrios/BBA1.jpg","null","",NA,NA,NA,NA,""
"image-keyboard-response",91,170085,"0.0-3.26-2.26","bmrr4wsj7s2fs1r",565,"8.csv","","null","resources/images/coin2.png","null","",NA,NA,NA,NA,""
"image-keyboard-response",92,170710,"0.0-3.27-0.27","bmrr4wsj7s2fs1r",565,"8.csv","","623","resources/trios/L1T1A2.jpg","38","restless",0.1,0.5,0.9,0.857658999111343,"false"
"image-keyboard-response",93,171113,"0.0-3.27-1.27","bmrr4wsj7s2fs1r",565,"8.csv","","null","resources/maskTrios/BT1B.jpg","null","",NA,NA,NA,NA,""
"image-keyboard-response",94,172316,"0.0-3.27-2.27","bmrr4wsj7s2fs1r",565,"8.csv","","null","resources/images/fishbone.png","null","",NA,NA,NA,NA,""
"image-keyboard-response",95,173200,"0.0-3.28-0.28","bmrr4wsj7s2fs1r",565,"8.csv","","882","resources/trios/L2T1A2.jpg","37","restless",0.1,0.5,0.9,0.214378064468259,"false"
"image-keyboard-response",96,173603,"0.0-3.28-1.28","bmrr4wsj7s2fs1r",565,"8.csv","","null","resources/maskTrios/L2BB.jpg","null","",NA,NA,NA,NA,""
"image-keyboard-response",97,174806,"0.0-3.28-2.28","bmrr4wsj7s2fs1r",565,"8.csv","","null","resources/images/fishbone.png","null","",NA,NA,NA,NA,""
"image-keyboard-response",98,175163,"0.0-3.29-0.29","bmrr4wsj7s2fs1r",565,"8.csv","","355","resources/trios/L2T1A1.jpg","39","restless",0.1,0.5,0.9,0.335737268527755,"true"
"image-keyboard-response",99,175567,"0.0-3.29-1.29","bmrr4wsj7s2fs1r",565,"8.csv","","null","resources/maskTrios/BBA1.jpg","null","",NA,NA,NA,NA,""
"image-keyboard-response",100,176770,"0.0-3.29-2.29","bmrr4wsj7s2fs1r",565,"8.csv","","null","resources/images/coin2.png","null","",NA,NA,NA,NA,""
"image-keyboard-response",101,177290,"0.0-3.30-0.30","bmrr4wsj7s2fs1r",565,"8.csv","","518","resources/trios/L2T1A1.jpg","38","restless",0.1,0.5,0.8,0.821007410757358,"false"
"image-keyboard-response",102,177693,"0.0-3.30-1.30","bmrr4wsj7s2fs1r",565,"8.csv","","null","resources/maskTrios/BT1B.jpg","null","",NA,NA,NA,NA,""
"image-keyboard-response",103,178896,"0.0-3.30-2.30","bmrr4wsj7s2fs1r",565,"8.csv","","null","resources/images/fishbone.png","null","",NA,NA,NA,NA,""
"image-keyboard-response",104,179689,"0.0-3.31-0.31","bmrr4wsj7s2fs1r",565,"8.csv","","789.9999999999709","resources/trios/L2T1A2.jpg","39","restless",0.1,0.5,0.8,0.502981827577064,"true"
"image-keyboard-response",105,180092,"0.0-3.31-1.31","bmrr4wsj7s2fs1r",565,"8.csv","","null","resources/maskTrios/BBA2.jpg","null","",NA,NA,NA,NA,""
"image-keyboard-response",106,181296,"0.0-3.31-2.31","bmrr4wsj7s2fs1r",565,"8.csv","","null","resources/images/coin2.png","null","",NA,NA,NA,NA,""
"image-keyboard-response",107,181954,"0.0-3.32-0.32","bmrr4wsj7s2fs1r",565,"8.csv","","655","resources/trios/L2T4A1.jpg","39","restless",0.1,0.6,0.8,0.831648083009568,"false"
"image-keyboard-response",108,182360,"0.0-3.32-1.32","bmrr4wsj7s2fs1r",565,"8.csv","","null","resources/maskTrios/BBA1.jpg","null","",NA,NA,NA,NA,""
"image-keyboard-response",109,183562,"0.0-3.32-2.32","bmrr4wsj7s2fs1r",565,"8.csv","","null","resources/images/fishbone.png","null","",NA,NA,NA,NA,""
"image-keyboard-response",110,183996,"0.0-3.33-0.33","bmrr4wsj7s2fs1r",565,"8.csv","","431","resources/trios/L1T1A2.jpg","37","restless",0.1,0.6,0.8,0.667830156419402,"false"
"image-keyboard-response",111,184399,"0.0-3.33-1.33","bmrr4wsj7s2fs1r",565,"8.csv","","null","resources/maskTrios/L1BB.jpg","null","",NA,NA,NA,NA,""
"image-keyboard-response",112,185602,"0.0-3.33-2.33","bmrr4wsj7s2fs1r",565,"8.csv","","null","resources/images/fishbone.png","null","",NA,NA,NA,NA,""
"image-keyboard-response",113,185894,"0.0-3.34-0.34","bmrr4wsj7s2fs1r",565,"8.csv","","290","resources/trios/L1T1A1.jpg","38","restless",0.1,0.6,0.8,0.340115294499421,"true"
"image-keyboard-response",114,186297,"0.0-3.34-1.34","bmrr4wsj7s2fs1r",565,"8.csv","","null","resources/maskTrios/BT1B.jpg","null","",NA,NA,NA,NA,""
"image-keyboard-response",115,187500,"0.0-3.34-2.34","bmrr4wsj7s2fs1r",565,"8.csv","","null","resources/images/coin2.png","null","",NA,NA,NA,NA,""
"image-keyboard-response",116,188062,"0.0-3.35-0.35","bmrr4wsj7s2fs1r",565,"8.csv","","559","resources/trios/L2T1A1.jpg","39","restless",0.1,0.6,0.8,0.985603437935741,"false"
"image-keyboard-response",117,188465,"0.0-3.35-1.35","bmrr4wsj7s2fs1r",565,"8.csv","","null","resources/maskTrios/BBA1.jpg","null","",NA,NA,NA,NA,""
"image-keyboard-response",118,189668,"0.0-3.35-2.35","bmrr4wsj7s2fs1r",565,"8.csv","","null","resources/images/fishbone.png","null","",NA,NA,NA,NA,""
"image-keyboard-response",119,190037,"0.0-3.36-0.36","bmrr4wsj7s2fs1r",565,"8.csv","","367","resources/trios/L1T1A2.jpg","37","restless",0.2,0.6,0.8,0.62196518849592,"false"
"image-keyboard-response",120,190440,"0.0-3.36-1.36","bmrr4wsj7s2fs1r",565,"8.csv","","null","resources/maskTrios/L1BB.jpg","null","",NA,NA,NA,NA,""
"image-keyboard-response",121,191643,"0.0-3.36-2.36","bmrr4wsj7s2fs1r",565,"8.csv","","null","resources/images/fishbone.png","null","",NA,NA,NA,NA,""
"image-keyboard-response",122,191924,"0.0-3.37-0.37","bmrr4wsj7s2fs1r",565,"8.csv","","278","resources/trios/L2T4A2.jpg","38","restless",0.2,0.6,0.9,0.60023021289575,"false"
"image-keyboard-response",123,192327,"0.0-3.37-1.37","bmrr4wsj7s2fs1r",565,"8.csv","","null","resources/maskTrios/BT4B.jpg","null","",NA,NA,NA,NA,""
"image-keyboard-response",124,193530,"0.0-3.37-2.37","bmrr4wsj7s2fs1r",565,"8.csv","","null","resources/images/fishbone.png","null","",NA,NA,NA,NA,""
"image-keyboard-response",125,193867,"0.0-3.38-0.38","bmrr4wsj7s2fs1r",565,"8.csv","","335","resources/trios/L2T1A2.jpg","39","restless",0.2,0.6,0.9,0.196253169446245,"true"
"image-keyboard-response",126,194271,"0.0-3.38-1.38","bmrr4wsj7s2fs1r",565,"8.csv","","null","resources/maskTrios/BBA2.jpg","null","",NA,NA,NA,NA,""
"image-keyboard-response",127,195474,"0.0-3.38-2.38","bmrr4wsj7s2fs1r",565,"8.csv","","null","resources/images/coin2.png","null","",NA,NA,NA,NA,""
"image-keyboard-response",128,195907,"0.0-3.39-0.39","bmrr4wsj7s2fs1r",565,"8.csv","","431","resources/trios/L1T1A1.jpg","39","restless",0.2,0.6,0.9,0.336569696119291,"true"
"image-keyboard-response",129,196310,"0.0-3.39-1.39","bmrr4wsj7s2fs1r",565,"8.csv","","null","resources/maskTrios/BBA1.jpg","null","",NA,NA,NA,NA,""
"image-keyboard-response",130,197513,"0.0-3.39-2.39","bmrr4wsj7s2fs1r",565,"8.csv","","null","resources/images/coin2.png","null","",NA,NA,NA,NA,""
"image-keyboard-response",131,197815,"0.0-3.40-0.40","bmrr4wsj7s2fs1r",565,"8.csv","","299","resources/trios/L2T1A1.jpg","38","restless",0.2,0.6,0.8,0.409140903379825,"true"
"image-keyboard-response",132,198218,"0.0-3.40-1.40","bmrr4wsj7s2fs1r",565,"8.csv","","null","resources/maskTrios/BT1B.jpg","null","",NA,NA,NA,NA,""
"image-keyboard-response",133,199422,"0.0-3.40-2.40","bmrr4wsj7s2fs1r",565,"8.csv","","null","resources/images/coin2.png","null","",NA,NA,NA,NA,""
"image-keyboard-response",134,199738,"0.0-3.41-0.41","bmrr4wsj7s2fs1r",565,"8.csv","","314","resources/trios/L1T1A2.jpg","38","restless",0.2,0.6,0.8,0.0196186064342236,"true"
"image-keyboard-response",135,200141,"0.0-3.41-1.41","bmrr4wsj7s2fs1r",565,"8.csv","","null","resources/maskTrios/BT1B.jpg","null","",NA,NA,NA,NA,""
"image-keyboard-response",136,201345,"0.0-3.41-2.41","bmrr4wsj7s2fs1r",565,"8.csv","","null","resources/images/coin2.png","null","",NA,NA,NA,NA,""
"image-keyboard-response",137,201706,"0.0-3.42-0.42","bmrr4wsj7s2fs1r",565,"8.csv","","359","resources/trios/L2T1A2.jpg","37","restless",0.2,0.6,0.8,0.0108905781124621,"true"
"image-keyboard-response",138,202109,"0.0-3.42-1.42","bmrr4wsj7s2fs1r",565,"8.csv","","null","resources/maskTrios/L2BB.jpg","null","",NA,NA,NA,NA,""
"image-keyboard-response",139,203312,"0.0-3.42-2.42","bmrr4wsj7s2fs1r",565,"8.csv","","null","resources/images/coin2.png","null","",NA,NA,NA,NA,""
"image-keyboard-response",140,203643,"0.0-3.43-0.43","bmrr4wsj7s2fs1r",565,"8.csv","","328.0000000000291","resources/trios/L2T1A2.jpg","37","restless",0.3,0.6,0.8,0.256866980724596,"true"
"image-keyboard-response",141,204046,"0.0-3.43-1.43","bmrr4wsj7s2fs1r",565,"8.csv","","null","resources/maskTrios/L2BB.jpg","null","",NA,NA,NA,NA,""
"image-keyboard-response",142,205250,"0.0-3.43-2.43","bmrr4wsj7s2fs1r",565,"8.csv","","null","resources/images/coin2.png","null","",NA,NA,NA,NA,""
"image-keyboard-response",143,205846,"0.0-3.44-0.44","bmrr4wsj7s2fs1r",565,"8.csv","","594.0000000000291","resources/trios/L1T1A2.jpg","39","restless",0.3,0.6,0.8,0.0382978151610084,"true"
"image-keyboard-response",144,206249,"0.0-3.44-1.44","bmrr4wsj7s2fs1r",565,"8.csv","","null","resources/maskTrios/BBA2.jpg","null","",NA,NA,NA,NA,""
"image-keyboard-response",145,207453,"0.0-3.44-2.44","bmrr4wsj7s2fs1r",565,"8.csv","","null","resources/images/coin2.png","null","",NA,NA,NA,NA,""
"image-keyboard-response",146,207763,"0.0-3.45-0.45","bmrr4wsj7s2fs1r",565,"8.csv","","308","resources/trios/L1T1A2.jpg","39","restless",0.3,0.6,0.9,0.94340492563331,"false"
"image-keyboard-response",147,208167,"0.0-3.45-1.45","bmrr4wsj7s2fs1r",565,"8.csv","","null","resources/maskTrios/BBA2.jpg","null","",NA,NA,NA,NA,""
"image-keyboard-response",148,209370,"0.0-3.45-2.45","bmrr4wsj7s2fs1r",565,"8.csv","","null","resources/images/fishbone.png","null","",NA,NA,NA,NA,""
"image-keyboard-response",149,209941,"0.0-3.46-0.46","bmrr4wsj7s2fs1r",565,"8.csv","","569","resources/trios/L2T1A1.jpg","38","restless",0.3,0.6,0.9,0.671769031991276,"false"
"image-keyboard-response",150,210345,"0.0-3.46-1.46","bmrr4wsj7s2fs1r",565,"8.csv","","null","resources/maskTrios/BT1B.jpg","null","",NA,NA,NA,NA,""
"image-keyboard-response",151,211548,"0.0-3.46-2.46","bmrr4wsj7s2fs1r",565,"8.csv","","null","resources/images/fishbone.png","null","",NA,NA,NA,NA,""
"image-keyboard-response",152,211941,"0.0-3.47-0.47","bmrr4wsj7s2fs1r",565,"8.csv","","391","resources/trios/L1T4A2.jpg","37","restless",0.3,0.6,0.9,0.405845376842377,"false"
"image-keyboard-response",153,212344,"0.0-3.47-1.47","bmrr4wsj7s2fs1r",565,"8.csv","","null","resources/maskTrios/L1BB.jpg","null","",NA,NA,NA,NA,""
"image-keyboard-response",154,213548,"0.0-3.47-2.47","bmrr4wsj7s2fs1r",565,"8.csv","","null","resources/images/fishbone.png","null","",NA,NA,NA,NA,""
"image-keyboard-response",155,213873,"0.0-3.48-0.48","bmrr4wsj7s2fs1r",565,"8.csv","","323","resources/trios/L1T4A2.jpg","39","restless",0.4,0.6,0.9,0.377051924500838,"true"
"image-keyboard-response",156,214275,"0.0-3.48-1.48","bmrr4wsj7s2fs1r",565,"8.csv","","null","resources/maskTrios/BBA2.jpg","null","",NA,NA,NA,NA,""
"image-keyboard-response",157,215478,"0.0-3.48-2.48","bmrr4wsj7s2fs1r",565,"8.csv","","null","resources/images/coin2.png","null","",NA,NA,NA,NA,""
"image-keyboard-response",158,215776,"0.0-3.49-0.49","bmrr4wsj7s2fs1r",565,"8.csv","","295","resources/trios/L2T4A2.jpg","39","restless",0.4,0.6,0.9,0.70552713962513,"true"
"image-keyboard-response",159,216179,"0.0-3.49-1.49","bmrr4wsj7s2fs1r",565,"8.csv","","null","resources/maskTrios/BBA2.jpg","null","",NA,NA,NA,NA,""
"image-keyboard-response",160,217382,"0.0-3.49-2.49","bmrr4wsj7s2fs1r",565,"8.csv","","null","resources/images/coin2.png","null","",NA,NA,NA,NA,""
"image-keyboard-response",161,217642,"0.0-3.50-0.50","bmrr4wsj7s2fs1r",565,"8.csv","","258.0000000000291","resources/trios/L2T1A1.jpg","38","restless",0.4,0.6,0.9,0.826505943135068,"false"
"image-keyboard-response",162,218046,"0.0-3.50-1.50","bmrr4wsj7s2fs1r",565,"8.csv","","null","resources/maskTrios/BT1B.jpg","null","",NA,NA,NA,NA,""
"image-keyboard-response",163,219248,"0.0-3.50-2.50","bmrr4wsj7s2fs1r",565,"8.csv","","null","resources/images/fishbone.png","null","",NA,NA,NA,NA,""
"image-keyboard-response",164,219502,"0.0-3.51-0.51","bmrr4wsj7s2fs1r",565,"8.csv","","251","resources/trios/L1T4A1.jpg","37","restless",0.4,0.6,0.9,0.132831784758361,"true"
"image-keyboard-response",165,219905,"0.0-3.51-1.51","bmrr4wsj7s2fs1r",565,"8.csv","","null","resources/maskTrios/L1BB.jpg","null","",NA,NA,NA,NA,""
"image-keyboard-response",166,221109,"0.0-3.51-2.51","bmrr4wsj7s2fs1r",565,"8.csv","","null","resources/images/coin2.png","null","",NA,NA,NA,NA,""
"image-keyboard-response",167,221349,"0.0-3.52-0.52","bmrr4wsj7s2fs1r",565,"8.csv","","239","resources/trios/L1T4A1.jpg","37","restless",0.4,0.6,0.9,0.407140606588688,"false"
"image-keyboard-response",168,221753,"0.0-3.52-1.52","bmrr4wsj7s2fs1r",565,"8.csv","","null","resources/maskTrios/L1BB.jpg","null","",NA,NA,NA,NA,""
"image-keyboard-response",169,222956,"0.0-3.52-2.52","bmrr4wsj7s2fs1r",565,"8.csv","","null","resources/images/fishbone.png","null","",NA,NA,NA,NA,""
"image-keyboard-response",170,223354,"0.0-3.53-0.53","bmrr4wsj7s2fs1r",565,"8.csv","","396","resources/trios/L1T4A1.jpg","39","restless",0.4,0.6,0.9,0.73232023651566,"true"
"image-keyboard-response",171,223757,"0.0-3.53-1.53","bmrr4wsj7s2fs1r",565,"8.csv","","null","resources/maskTrios/BBA1.jpg","null","",NA,NA,NA,NA,""
"image-keyboard-response",172,224959,"0.0-3.53-2.53","bmrr4wsj7s2fs1r",565,"8.csv","","null","resources/images/coin2.png","null","",NA,NA,NA,NA,""
"image-keyboard-response",173,225288,"0.0-3.54-0.54","bmrr4wsj7s2fs1r",565,"8.csv","","326","resources/trios/L1T1A2.jpg","39","restless",0.4,0.6,0.8,0.435908661555924,"true"
"image-keyboard-response",174,225691,"0.0-3.54-1.54","bmrr4wsj7s2fs1r",565,"8.csv","","null","resources/maskTrios/BBA2.jpg","null","",NA,NA,NA,NA,""
"image-keyboard-response",175,226894,"0.0-3.54-2.54","bmrr4wsj7s2fs1r",565,"8.csv","","null","resources/images/coin2.png","null","",NA,NA,NA,NA,""
"image-keyboard-response",176,227233,"0.0-3.55-0.55","bmrr4wsj7s2fs1r",565,"8.csv","","336.0000000000291","resources/trios/L1T4A1.jpg","37","restless",0.4,0.5,0.8,0.897823388495202,"false"
"image-keyboard-response",177,227636,"0.0-3.55-1.55","bmrr4wsj7s2fs1r",565,"8.csv","","null","resources/maskTrios/L1BB.jpg","null","",NA,NA,NA,NA,""
"image-keyboard-response",178,228839,"0.0-3.55-2.55","bmrr4wsj7s2fs1r",565,"8.csv","","null","resources/images/fishbone.png","null","",NA,NA,NA,NA,""
"image-keyboard-response",179,229084,"0.0-3.56-0.56","bmrr4wsj7s2fs1r",565,"8.csv","","244","resources/trios/L1T1A1.jpg","38","restless",0.4,0.4,0.8,0.000394402039089692,"true"
"image-keyboard-response",180,229487,"0.0-3.56-1.56","bmrr4wsj7s2fs1r",565,"8.csv","","null","resources/maskTrios/BT1B.jpg","null","",NA,NA,NA,NA,""
"image-keyboard-response",181,230691,"0.0-3.56-2.56","bmrr4wsj7s2fs1r",565,"8.csv","","null","resources/images/coin2.png","null","",NA,NA,NA,NA,""
"image-keyboard-response",182,231046,"0.0-3.57-0.57","bmrr4wsj7s2fs1r",565,"8.csv","","352","resources/trios/L2T4A1.jpg","37","restless",0.4,0.4,0.8,0.256568692936403,"true"
"image-keyboard-response",183,231449,"0.0-3.57-1.57","bmrr4wsj7s2fs1r",565,"8.csv","","null","resources/maskTrios/L2BB.jpg","null","",NA,NA,NA,NA,""
"image-keyboard-response",184,232652,"0.0-3.57-2.57","bmrr4wsj7s2fs1r",565,"8.csv","","null","resources/images/coin2.png","null","",NA,NA,NA,NA,""
"image-keyboard-response",185,232846,"0.0-3.58-0.58","bmrr4wsj7s2fs1r",565,"8.csv","","191","resources/trios/L1T1A1.jpg","37","restless",0.4,0.3,0.8,0.616289226845656,"false"
"image-keyboard-response",186,233249,"0.0-3.58-1.58","bmrr4wsj7s2fs1r",565,"8.csv","","null","resources/maskTrios/L1BB.jpg","null","",NA,NA,NA,NA,""
"image-keyboard-response",187,234452,"0.0-3.58-2.58","bmrr4wsj7s2fs1r",565,"8.csv","","null","resources/images/fishbone.png","null","",NA,NA,NA,NA,""
"image-keyboard-response",188,234920,"0.0-3.59-0.59","bmrr4wsj7s2fs1r",565,"8.csv","","466","resources/trios/L1T1A2.jpg","39","restless",0.4,0.3,0.8,0.940796873325163,"false"
"image-keyboard-response",189,235324,"0.0-3.59-1.59","bmrr4wsj7s2fs1r",565,"8.csv","","null","resources/maskTrios/BBA2.jpg","null","",NA,NA,NA,NA,""
"image-keyboard-response",190,236527,"0.0-3.59-2.59","bmrr4wsj7s2fs1r",565,"8.csv","","null","resources/images/fishbone.png","null","",NA,NA,NA,NA,""
"image-keyboard-response",191,236897,"0.0-3.60-0.60","bmrr4wsj7s2fs1r",565,"8.csv","","369","resources/trios/L2T1A1.jpg","38","restless",0.4,0.3,0.7,0.852214696959703,"false"
"image-keyboard-response",192,237301,"0.0-3.60-1.60","bmrr4wsj7s2fs1r",565,"8.csv","","null","resources/maskTrios/BT1B.jpg","null","",NA,NA,NA,NA,""
"image-keyboard-response",193,238504,"0.0-3.60-2.60","bmrr4wsj7s2fs1r",565,"8.csv","","null","resources/images/fishbone.png","null","",NA,NA,NA,NA,""
"image-keyboard-response",194,238823,"0.0-3.61-0.61","bmrr4wsj7s2fs1r",565,"8.csv","","317","resources/trios/L2T4A1.jpg","39","restless",0.4,0.3,0.7,0.886357619537037,"false"
"image-keyboard-response",195,239226,"0.0-3.61-1.61","bmrr4wsj7s2fs1r",565,"8.csv","","null","resources/maskTrios/BBA1.jpg","null","",NA,NA,NA,NA,""
"image-keyboard-response",196,240429,"0.0-3.61-2.61","bmrr4wsj7s2fs1r",565,"8.csv","","null","resources/images/fishbone.png","null","",NA,NA,NA,NA,""
"image-keyboard-response",197,240559,"0.0-3.62-0.62","bmrr4wsj7s2fs1r",565,"8.csv","","127","resources/trios/L1T4A2.jpg","37","restless",0.4,0.3,0.7,0.839738719429597,"false"
"image-keyboard-response",198,240962,"0.0-3.62-1.62","bmrr4wsj7s2fs1r",565,"8.csv","","null","resources/maskTrios/L1BB.jpg","null","",NA,NA,NA,NA,""
"image-keyboard-response",199,242165,"0.0-3.62-2.62","bmrr4wsj7s2fs1r",565,"8.csv","","null","resources/images/fishbone.png","null","",NA,NA,NA,NA,""
"image-keyboard-response",200,242414,"0.0-3.63-0.63","bmrr4wsj7s2fs1r",565,"8.csv","","246","resources/trios/L1T4A1.jpg","38","restless",0.4,0.3,0.7,0.374380664564631,"false"
"image-keyboard-response",201,242817,"0.0-3.63-1.63","bmrr4wsj7s2fs1r",565,"8.csv","","null","resources/maskTrios/BT4B.jpg","null","",NA,NA,NA,NA,""
"image-keyboard-response",202,244020,"0.0-3.63-2.63","bmrr4wsj7s2fs1r",565,"8.csv","","null","resources/images/fishbone.png","null","",NA,NA,NA,NA,""
"image-keyboard-response",203,244127,"0.0-3.64-0.64","bmrr4wsj7s2fs1r",565,"8.csv","","105","resources/trios/L2T1A1.jpg","39","restless",0.4,0.3,0.7,0.606955855124096,"true"
"image-keyboard-response",204,244530,"0.0-3.64-1.64","bmrr4wsj7s2fs1r",565,"8.csv","","null","resources/maskTrios/BBA1.jpg","null","",NA,NA,NA,NA,""
"image-keyboard-response",205,245733,"0.0-3.64-2.64","bmrr4wsj7s2fs1r",565,"8.csv","","null","resources/images/coin2.png","null","",NA,NA,NA,NA,""
"image-keyboard-response",206,246096,"0.0-3.65-0.65","bmrr4wsj7s2fs1r",565,"8.csv","","361","resources/trios/L2T4A1.jpg","39","restless",0.4,0.3,0.7,0.910171089512783,"false"
"image-keyboard-response",207,246500,"0.0-3.65-1.65","bmrr4wsj7s2fs1r",565,"8.csv","","null","resources/maskTrios/BBA1.jpg","null","",NA,NA,NA,NA,""
"image-keyboard-response",208,247703,"0.0-3.65-2.65","bmrr4wsj7s2fs1r",565,"8.csv","","null","resources/images/fishbone.png","null","",NA,NA,NA,NA,""
"image-keyboard-response",209,247971,"0.0-3.66-0.66","bmrr4wsj7s2fs1r",565,"8.csv","","265.0000000000291","resources/trios/L1T1A1.jpg","38","restless",0.3,0.3,0.7,0.833561130293362,"false"
"image-keyboard-response",210,248374,"0.0-3.66-1.66","bmrr4wsj7s2fs1r",565,"8.csv","","null","resources/maskTrios/BT1B.jpg","null","",NA,NA,NA,NA,""
"image-keyboard-response",211,249577,"0.0-3.66-2.66","bmrr4wsj7s2fs1r",565,"8.csv","","null","resources/images/fishbone.png","null","",NA,NA,NA,NA,""
"image-keyboard-response",212,250024,"0.0-3.67-0.67","bmrr4wsj7s2fs1r",565,"8.csv","","445","resources/trios/L2T4A2.jpg","37","restless",0.3,0.3,0.7,0.982108985603085,"false"
"image-keyboard-response",213,250427,"0.0-3.67-1.67","bmrr4wsj7s2fs1r",565,"8.csv","","null","resources/maskTrios/L2BB.jpg","null","",NA,NA,NA,NA,""
"image-keyboard-response",214,251630,"0.0-3.67-2.67","bmrr4wsj7s2fs1r",565,"8.csv","","null","resources/images/fishbone.png","null","",NA,NA,NA,NA,""
"image-keyboard-response",215,251952,"0.0-3.68-0.68","bmrr4wsj7s2fs1r",565,"8.csv","","320.0000000000291","resources/trios/L1T4A2.jpg","37","restless",0.3,0.3,0.7,0.323539636958365,"false"
"image-keyboard-response",216,252356,"0.0-3.68-1.68","bmrr4wsj7s2fs1r",565,"8.csv","","null","resources/maskTrios/L1BB.jpg","null","",NA,NA,NA,NA,""
"image-keyboard-response",217,253558,"0.0-3.68-2.68","bmrr4wsj7s2fs1r",565,"8.csv","","null","resources/images/fishbone.png","null","",NA,NA,NA,NA,""
"image-keyboard-response",218,253849,"0.0-3.69-0.69","bmrr4wsj7s2fs1r",565,"8.csv","","287.9999999999709","resources/trios/L2T4A1.jpg","39","restless",0.3,0.3,0.7,0.0138907132257816,"true"
"image-keyboard-response",219,254253,"0.0-3.69-1.69","bmrr4wsj7s2fs1r",565,"8.csv","","null","resources/maskTrios/BBA1.jpg","null","",NA,NA,NA,NA,""
"image-keyboard-response",220,255455,"0.0-3.69-2.69","bmrr4wsj7s2fs1r",565,"8.csv","","null","resources/images/coin2.png","null","",NA,NA,NA,NA,""
"image-keyboard-response",221,255936,"0.0-3.70-0.70","bmrr4wsj7s2fs1r",565,"8.csv","","479.0000000000582","resources/trios/L1T4A2.jpg","37","restless",0.3,0.3,0.7,0.475070195991861,"false"
"image-keyboard-response",222,256338,"0.0-3.70-1.70","bmrr4wsj7s2fs1r",565,"8.csv","","null","resources/maskTrios/L1BB.jpg","null","",NA,NA,NA,NA,""
"image-keyboard-response",223,257541,"0.0-3.70-2.70","bmrr4wsj7s2fs1r",565,"8.csv","","null","resources/images/fishbone.png","null","",NA,NA,NA,NA,""
"image-keyboard-response",224,257822,"0.0-3.71-0.71","bmrr4wsj7s2fs1r",565,"8.csv","","279","resources/trios/L1T4A2.jpg","38","restless",0.3,0.3,0.7,0.232866354492747,"true"
"image-keyboard-response",225,258225,"0.0-3.71-1.71","bmrr4wsj7s2fs1r",565,"8.csv","","null","resources/maskTrios/BT4B.jpg","null","",NA,NA,NA,NA,""
"image-keyboard-response",226,259429,"0.0-3.71-2.71","bmrr4wsj7s2fs1r",565,"8.csv","","null","resources/images/coin2.png","null","",NA,NA,NA,NA,""
"image-keyboard-response",227,261591,"0.0-3.72-0.72","bmrr4wsj7s2fs1r",565,"8.csv","","2159.999999999971","resources/trios/L1T1A2.jpg","39","restless",0.3,0.3,0.7,0.311471415164171,"true"
"image-keyboard-response",228,261994,"0.0-3.72-1.72","bmrr4wsj7s2fs1r",565,"8.csv","","null","resources/maskTrios/BBA2.jpg","null","",NA,NA,NA,NA,""
"image-keyboard-response",229,263197,"0.0-3.72-2.72","bmrr4wsj7s2fs1r",565,"8.csv","","null","resources/images/coin2.png","null","",NA,NA,NA,NA,""
"image-keyboard-response",230,265401,"0.0-3.73-0.73","bmrr4wsj7s2fs1r",565,"8.csv","","2201","resources/trios/L1T4A2.jpg","37","restless",0.3,0.2,0.6,0.0283679208730884,"true"
"image-keyboard-response",231,265804,"0.0-3.73-1.73","bmrr4wsj7s2fs1r",565,"8.csv","","null","resources/maskTrios/L1BB.jpg","null","",NA,NA,NA,NA,""
"image-keyboard-response",232,267007,"0.0-3.73-2.73","bmrr4wsj7s2fs1r",565,"8.csv","","null","resources/images/coin2.png","null","",NA,NA,NA,NA,""
"image-keyboard-response",233,268710,"0.0-3.74-0.74","bmrr4wsj7s2fs1r",565,"8.csv","","1700","resources/trios/L1T4A1.jpg","39","restless",0.3,0.2,0.6,0.164078452369886,"true"
"image-keyboard-response",234,269113,"0.0-3.74-1.74","bmrr4wsj7s2fs1r",565,"8.csv","","null","resources/maskTrios/BBA1.jpg","null","",NA,NA,NA,NA,""
"image-keyboard-response",235,270320,"0.0-3.74-2.74","bmrr4wsj7s2fs1r",565,"8.csv","","null","resources/images/coin2.png","null","",NA,NA,NA,NA,""
"image-keyboard-response",236,271834,"0.0-3.75-0.75","bmrr4wsj7s2fs1r",565,"8.csv","","1510","resources/trios/L2T1A2.jpg","38","restless",0.3,0.2,0.6,0.317388093453351,"false"
"image-keyboard-response",237,272237,"0.0-3.75-1.75","bmrr4wsj7s2fs1r",565,"8.csv","","null","resources/maskTrios/BT1B.jpg","null","",NA,NA,NA,NA,""
"image-keyboard-response",238,273440,"0.0-3.75-2.75","bmrr4wsj7s2fs1r",565,"8.csv","","null","resources/images/fishbone.png","null","",NA,NA,NA,NA,""
"image-keyboard-response",239,274981,"0.0-3.76-0.76","bmrr4wsj7s2fs1r",565,"8.csv","","1537.9999999999418","resources/trios/L1T1A2.jpg","39","restless",0.3,0.2,0.6,0.558788579697706,"true"
"image-keyboard-response",240,275384,"0.0-3.76-1.76","bmrr4wsj7s2fs1r",565,"8.csv","","null","resources/maskTrios/BBA2.jpg","null","",NA,NA,NA,NA,""
"image-keyboard-response",241,276587,"0.0-3.76-2.76","bmrr4wsj7s2fs1r",565,"8.csv","","null","resources/images/coin2.png","null","",NA,NA,NA,NA,""
"image-keyboard-response",242,277039,"0.0-3.77-0.77","bmrr4wsj7s2fs1r",565,"8.csv","","450","resources/trios/L1T1A2.jpg","37","restless",0.3,0.2,0.6,0.422198005245158,"false"
"image-keyboard-response",243,277442,"0.0-3.77-1.77","bmrr4wsj7s2fs1r",565,"8.csv","","null","resources/maskTrios/L1BB.jpg","null","",NA,NA,NA,NA,""
"image-keyboard-response",244,278645,"0.0-3.77-2.77","bmrr4wsj7s2fs1r",565,"8.csv","","null","resources/images/fishbone.png","null","",NA,NA,NA,NA,""
"image-keyboard-response",245,278961,"0.0-3.78-0.78","bmrr4wsj7s2fs1r",565,"8.csv","","313","resources/trios/L2T4A1.jpg","39","restless",0.3,0.2,0.6,0.71486924042891,"false"
"image-keyboard-response",246,279364,"0.0-3.78-1.78","bmrr4wsj7s2fs1r",565,"8.csv","","null","resources/maskTrios/BBA1.jpg","null","",NA,NA,NA,NA,""
"image-keyboard-response",247,280567,"0.0-3.78-2.78","bmrr4wsj7s2fs1r",565,"8.csv","","null","resources/images/fishbone.png","null","",NA,NA,NA,NA,""
"image-keyboard-response",248,280641,"0.0-3.79-0.79","bmrr4wsj7s2fs1r",565,"8.csv","","72","resources/trios/L1T4A2.jpg","38","restless",0.3,0.2,0.6,0.280484980960289,"false"
"image-keyboard-response",249,281044,"0.0-3.79-1.79","bmrr4wsj7s2fs1r",565,"8.csv","","null","resources/maskTrios/BT4B.jpg","null","",NA,NA,NA,NA,""
"image-keyboard-response",250,282247,"0.0-3.79-2.79","bmrr4wsj7s2fs1r",565,"8.csv","","null","resources/images/fishbone.png","null","",NA,NA,NA,NA,""
"image-keyboard-response",251,282629,"0.0-3.80-0.80","bmrr4wsj7s2fs1r",565,"8.csv","","379","resources/trios/L2T1A1.jpg","39","restless",0.3,0.2,0.6,0.16026962073203,"true"
"image-keyboard-response",252,283032,"0.0-3.80-1.80","bmrr4wsj7s2fs1r",565,"8.csv","","null","resources/maskTrios/BBA1.jpg","null","",NA,NA,NA,NA,""
"image-keyboard-response",253,284235,"0.0-3.80-2.80","bmrr4wsj7s2fs1r",565,"8.csv","","null","resources/images/coin2.png","null","",NA,NA,NA,NA,""
"image-keyboard-response",254,284995,"0.0-3.81-0.81","bmrr4wsj7s2fs1r",565,"8.csv","","756","resources/trios/L1T1A2.jpg","39","restless",0.4,0.2,0.5,0.101146231865644,"true"
"image-keyboard-response",255,285399,"0.0-3.81-1.81","bmrr4wsj7s2fs1r",565,"8.csv","","null","resources/maskTrios/BBA2.jpg","null","",NA,NA,NA,NA,""
"image-keyboard-response",256,286602,"0.0-3.81-2.81","bmrr4wsj7s2fs1r",565,"8.csv","","null","resources/images/coin2.png","null","",NA,NA,NA,NA,""
"image-keyboard-response",257,287388,"0.0-3.82-0.82","bmrr4wsj7s2fs1r",565,"8.csv","","784","resources/trios/L1T4A1.jpg","39","restless",0.4,0.2,0.5,0.241085869367885,"true"
"image-keyboard-response",258,287792,"0.0-3.82-1.82","bmrr4wsj7s2fs1r",565,"8.csv","","null","resources/maskTrios/BBA1.jpg","null","",NA,NA,NA,NA,""
"image-keyboard-response",259,288995,"0.0-3.82-2.82","bmrr4wsj7s2fs1r",565,"8.csv","","null","resources/images/coin2.png","null","",NA,NA,NA,NA,""
"image-keyboard-response",260,289601,"0.0-3.83-0.83","bmrr4wsj7s2fs1r",565,"8.csv","","605","resources/trios/L2T4A2.jpg","39","restless",0.4,0.2,0.5,0.36489482743221,"true"
"image-keyboard-response",261,290005,"0.0-3.83-1.83","bmrr4wsj7s2fs1r",565,"8.csv","","null","resources/maskTrios/BBA2.jpg","null","",NA,NA,NA,NA,""
"image-keyboard-response",262,291212,"0.0-3.83-2.83","bmrr4wsj7s2fs1r",565,"8.csv","","null","resources/images/coin2.png","null","",NA,NA,NA,NA,""
"image-keyboard-response",263,291946,"0.0-3.84-0.84","bmrr4wsj7s2fs1r",565,"8.csv","","732","resources/trios/L2T4A2.jpg","39","restless",0.4,0.2,0.5,0.794546370119486,"false"
"image-keyboard-response",264,292349,"0.0-3.84-1.84","bmrr4wsj7s2fs1r",565,"8.csv","","null","resources/maskTrios/BBA2.jpg","null","",NA,NA,NA,NA,""
"image-keyboard-response",265,293552,"0.0-3.84-2.84","bmrr4wsj7s2fs1r",565,"8.csv","","null","resources/images/fishbone.png","null","",NA,NA,NA,NA,""
"image-keyboard-response",266,294169,"0.0-3.85-0.85","bmrr4wsj7s2fs1r",565,"8.csv","","614.0000000000582","resources/trios/L2T1A2.jpg","38","restless",0.4,0.2,0.5,0.839019438457562,"false"
"image-keyboard-response",267,294572,"0.0-3.85-1.85","bmrr4wsj7s2fs1r",565,"8.csv","","null","resources/maskTrios/BT1B.jpg","null","",NA,NA,NA,NA,""
"image-keyboard-response",268,295775,"0.0-3.85-2.85","bmrr4wsj7s2fs1r",565,"8.csv","","null","resources/images/fishbone.png","null","",NA,NA,NA,NA,""
"image-keyboard-response",269,296175,"0.0-3.86-0.86","bmrr4wsj7s2fs1r",565,"8.csv","","397","resources/trios/L1T4A2.jpg","37","restless",0.4,0.3,0.5,0.528665776251405,"false"
"image-keyboard-response",270,296578,"0.0-3.86-1.86","bmrr4wsj7s2fs1r",565,"8.csv","","null","resources/maskTrios/L1BB.jpg","null","",NA,NA,NA,NA,""
"image-keyboard-response",271,297781,"0.0-3.86-2.86","bmrr4wsj7s2fs1r",565,"8.csv","","null","resources/images/fishbone.png","null","",NA,NA,NA,NA,""
"image-keyboard-response",272,298280,"0.0-3.87-0.87","bmrr4wsj7s2fs1r",565,"8.csv","","497","resources/trios/L1T4A1.jpg","38","restless",0.4,0.3,0.6,0.67185185573335,"false"
"image-keyboard-response",273,298683,"0.0-3.87-1.87","bmrr4wsj7s2fs1r",565,"8.csv","","null","resources/maskTrios/BT4B.jpg","null","",NA,NA,NA,NA,""
"image-keyboard-response",274,299887,"0.0-3.87-2.87","bmrr4wsj7s2fs1r",565,"8.csv","","null","resources/images/fishbone.png","null","",NA,NA,NA,NA,""
"image-keyboard-response",275,300353,"0.0-3.88-0.88","bmrr4wsj7s2fs1r",565,"8.csv","","464","resources/trios/L1T4A2.jpg","37","restless",0.4,0.3,0.6,0.821184009720775,"false"
"image-keyboard-response",276,300757,"0.0-3.88-1.88","bmrr4wsj7s2fs1r",565,"8.csv","","null","resources/maskTrios/L1BB.jpg","null","",NA,NA,NA,NA,""
"image-keyboard-response",277,301960,"0.0-3.88-2.88","bmrr4wsj7s2fs1r",565,"8.csv","","null","resources/images/fishbone.png","null","",NA,NA,NA,NA,""
"image-keyboard-response",278,302392,"0.0-3.89-0.89","bmrr4wsj7s2fs1r",565,"8.csv","","430","resources/trios/L2T1A1.jpg","39","restless",0.4,0.3,0.6,0.837721025177828,"false"
"image-keyboard-response",279,302795,"0.0-3.89-1.89","bmrr4wsj7s2fs1r",565,"8.csv","","null","resources/maskTrios/BBA1.jpg","null","",NA,NA,NA,NA,""
"image-keyboard-response",280,303998,"0.0-3.89-2.89","bmrr4wsj7s2fs1r",565,"8.csv","","null","resources/images/fishbone.png","null","",NA,NA,NA,NA,""
"image-keyboard-response",281,304339,"0.0-3.90-0.90","bmrr4wsj7s2fs1r",565,"8.csv","","339","resources/trios/L2T4A2.jpg","38","restless",0.4,0.3,0.6,0.291843467116349,"true"
"image-keyboard-response",282,304743,"0.0-3.90-1.90","bmrr4wsj7s2fs1r",565,"8.csv","","null","resources/maskTrios/BT4B.jpg","null","",NA,NA,NA,NA,""
"image-keyboard-response",283,305946,"0.0-3.90-2.90","bmrr4wsj7s2fs1r",565,"8.csv","","null","resources/images/coin2.png","null","",NA,NA,NA,NA,""
"image-keyboard-response",284,306250,"0.0-3.91-0.91","bmrr4wsj7s2fs1r",565,"8.csv","","301","resources/trios/L1T4A1.jpg","38","restless",0.4,0.3,0.6,0.13439894232982,"true"
"image-keyboard-response",285,306653,"0.0-3.91-1.91","bmrr4wsj7s2fs1r",565,"8.csv","","null","resources/maskTrios/BT4B.jpg","null","",NA,NA,NA,NA,""
"image-keyboard-response",286,307856,"0.0-3.91-2.91","bmrr4wsj7s2fs1r",565,"8.csv","","null","resources/images/coin2.png","null","",NA,NA,NA,NA,""
"image-keyboard-response",287,308513,"0.0-3.92-0.92","bmrr4wsj7s2fs1r",565,"8.csv","","656","resources/trios/L1T4A2.jpg","37","restless",0.4,0.3,0.6,0.98940909088794,"false"
"image-keyboard-response",288,308916,"0.0-3.92-1.92","bmrr4wsj7s2fs1r",565,"8.csv","","null","resources/maskTrios/L1BB.jpg","null","",NA,NA,NA,NA,""
"image-keyboard-response",289,310119,"0.0-3.92-2.92","bmrr4wsj7s2fs1r",565,"8.csv","","null","resources/images/fishbone.png","null","",NA,NA,NA,NA,""
"image-keyboard-response",290,310440,"0.0-3.93-0.93","bmrr4wsj7s2fs1r",565,"8.csv","","319","resources/trios/L2T1A2.jpg","39","restless",0.4,0.4,0.6,0.757939146722526,"false"
"image-keyboard-response",291,310842,"0.0-3.93-1.93","bmrr4wsj7s2fs1r",565,"8.csv","","null","resources/maskTrios/BBA2.jpg","null","",NA,NA,NA,NA,""
"image-keyboard-response",292,312045,"0.0-3.93-2.93","bmrr4wsj7s2fs1r",565,"8.csv","","null","resources/images/fishbone.png","null","",NA,NA,NA,NA,""
"image-keyboard-response",293,312318,"0.0-3.94-0.94","bmrr4wsj7s2fs1r",565,"8.csv","","270.0000000000582","resources/trios/L1T1A2.jpg","38","restless",0.4,0.4,0.6,0.22253811772639,"true"
"image-keyboard-response",294,312724,"0.0-3.94-1.94","bmrr4wsj7s2fs1r",565,"8.csv","","null","resources/maskTrios/BT1B.jpg","null","",NA,NA,NA,NA,""
"image-keyboard-response",295,313927,"0.0-3.94-2.94","bmrr4wsj7s2fs1r",565,"8.csv","","null","resources/images/coin2.png","null","",NA,NA,NA,NA,""
"image-keyboard-response",296,314237,"0.0-3.95-0.95","bmrr4wsj7s2fs1r",565,"8.csv","","305.9999999999418","resources/trios/L1T4A2.jpg","38","restless",0.4,0.4,0.6,0.653567650486174,"false"
"image-keyboard-response",297,314640,"0.0-3.95-1.95","bmrr4wsj7s2fs1r",565,"8.csv","","null","resources/maskTrios/BT4B.jpg","null","",NA,NA,NA,NA,""
"image-keyboard-response",298,315843,"0.0-3.95-2.95","bmrr4wsj7s2fs1r",565,"8.csv","","null","resources/images/fishbone.png","null","",NA,NA,NA,NA,""
"image-keyboard-response",299,316172,"0.0-3.96-0.96","bmrr4wsj7s2fs1r",565,"8.csv","","327","resources/trios/L1T1A1.jpg","37","restless",0.4,0.4,0.6,0.442705078958689,"false"
"image-keyboard-response",300,316576,"0.0-3.96-1.96","bmrr4wsj7s2fs1r",565,"8.csv","","null","resources/maskTrios/L1BB.jpg","null","",NA,NA,NA,NA,""
"image-keyboard-response",301,317778,"0.0-3.96-2.96","bmrr4wsj7s2fs1r",565,"8.csv","","null","resources/images/fishbone.png","null","",NA,NA,NA,NA,""
"image-keyboard-response",302,318173,"0.0-3.97-0.97","bmrr4wsj7s2fs1r",565,"8.csv","","392","resources/trios/L1T1A1.jpg","39","restless",0.4,0.4,0.6,0.436723128463399,"true"
"image-keyboard-response",303,318576,"0.0-3.97-1.97","bmrr4wsj7s2fs1r",565,"8.csv","","null","resources/maskTrios/BBA1.jpg","null","",NA,NA,NA,NA,""
"image-keyboard-response",304,319779,"0.0-3.97-2.97","bmrr4wsj7s2fs1r",565,"8.csv","","null","resources/images/coin2.png","null","",NA,NA,NA,NA,""
"image-keyboard-response",305,320118,"0.0-3.98-0.98","bmrr4wsj7s2fs1r",565,"8.csv","","335.9999999999418","resources/trios/L2T4A2.jpg","39","restless",0.4,0.4,0.5,0.406162860850217,"true"
"image-keyboard-response",306,320521,"0.0-3.98-1.98","bmrr4wsj7s2fs1r",565,"8.csv","","null","resources/maskTrios/BBA2.jpg","null","",NA,NA,NA,NA,""
"image-keyboard-response",307,321726,"0.0-3.98-2.98","bmrr4wsj7s2fs1r",565,"8.csv","","null","resources/images/coin2.png","null","",NA,NA,NA,NA,""
"image-keyboard-response",308,322154,"0.0-3.99-0.99","bmrr4wsj7s2fs1r",565,"8.csv","","424","resources/trios/L2T4A1.jpg","39","restless",0.4,0.4,0.5,0.739101668931713,"false"
"image-keyboard-response",309,322557,"0.0-3.99-1.99","bmrr4wsj7s2fs1r",565,"8.csv","","null","resources/maskTrios/BBA1.jpg","null","",NA,NA,NA,NA,""
"image-keyboard-response",310,323760,"0.0-3.99-2.99","bmrr4wsj7s2fs1r",565,"8.csv","","null","resources/images/fishbone.png","null","",NA,NA,NA,NA,""
"image-keyboard-response",311,324194,"0.0-3.100-0.100","bmrr4wsj7s2fs1r",565,"8.csv","","432","resources/trios/L2T1A2.jpg","38","restless",0.4,0.4,0.5,0.737625663324471,"false"
"image-keyboard-response",312,324599,"0.0-3.100-1.100","bmrr4wsj7s2fs1r",565,"8.csv","","null","resources/maskTrios/BT1B.jpg","null","",NA,NA,NA,NA,""
"image-keyboard-response",313,325802,"0.0-3.100-2.100","bmrr4wsj7s2fs1r",565,"8.csv","","null","resources/images/fishbone.png","null","",NA,NA,NA,NA,""
"image-keyboard-response",314,326075,"0.0-3.101-0.101","bmrr4wsj7s2fs1r",565,"8.csv","","269.9999999999418","resources/trios/L2T1A2.jpg","38","restless",0.5,0.4,0.5,0.145680237817642,"true"
"image-keyboard-response",315,326479,"0.0-3.101-1.101","bmrr4wsj7s2fs1r",565,"8.csv","","null","resources/maskTrios/BT1B.jpg","null","",NA,NA,NA,NA,""
"image-keyboard-response",316,327682,"0.0-3.101-2.101","bmrr4wsj7s2fs1r",565,"8.csv","","null","resources/images/coin2.png","null","",NA,NA,NA,NA,""
"image-keyboard-response",317,327989,"0.0-3.102-0.102","bmrr4wsj7s2fs1r",565,"8.csv","","305","resources/trios/L2T4A1.jpg","38","restless",0.5,0.4,0.5,0.122057801533508,"true"
"image-keyboard-response",318,328393,"0.0-3.102-1.102","bmrr4wsj7s2fs1r",565,"8.csv","","null","resources/maskTrios/BT4B.jpg","null","",NA,NA,NA,NA,""
"image-keyboard-response",319,329595,"0.0-3.102-2.102","bmrr4wsj7s2fs1r",565,"8.csv","","null","resources/images/coin2.png","null","",NA,NA,NA,NA,""
"image-keyboard-response",320,329915,"0.0-3.103-0.103","bmrr4wsj7s2fs1r",565,"8.csv","","318","resources/trios/L2T1A1.jpg","38","restless",0.5,0.4,0.5,0.277896618403421,"true"
"image-keyboard-response",321,330319,"0.0-3.103-1.103","bmrr4wsj7s2fs1r",565,"8.csv","","null","resources/maskTrios/BT1B.jpg","null","",NA,NA,NA,NA,""
"image-keyboard-response",322,331522,"0.0-3.103-2.103","bmrr4wsj7s2fs1r",565,"8.csv","","null","resources/images/coin2.png","null","",NA,NA,NA,NA,""
"image-keyboard-response",323,331859,"0.0-3.104-0.104","bmrr4wsj7s2fs1r",565,"8.csv","","334","resources/trios/L1T4A1.jpg","38","restless",0.6,0.4,0.5,0.950598385076522,"false"
"image-keyboard-response",324,332262,"0.0-3.104-1.104","bmrr4wsj7s2fs1r",565,"8.csv","","null","resources/maskTrios/BT4B.jpg","null","",NA,NA,NA,NA,""
"image-keyboard-response",325,333465,"0.0-3.104-2.104","bmrr4wsj7s2fs1r",565,"8.csv","","null","resources/images/fishbone.png","null","",NA,NA,NA,NA,""
"image-keyboard-response",326,333807,"0.0-3.105-0.105","bmrr4wsj7s2fs1r",565,"8.csv","","338.0000000000582","resources/trios/L1T1A2.jpg","37","restless",0.6,0.4,0.5,0.201605116151878,"true"
"image-keyboard-response",327,334211,"0.0-3.105-1.105","bmrr4wsj7s2fs1r",565,"8.csv","","null","resources/maskTrios/L1BB.jpg","null","",NA,NA,NA,NA,""
"image-keyboard-response",328,335414,"0.0-3.105-2.105","bmrr4wsj7s2fs1r",565,"8.csv","","null","resources/images/coin2.png","null","",NA,NA,NA,NA,""
"image-keyboard-response",329,335751,"0.0-3.106-0.106","bmrr4wsj7s2fs1r",565,"8.csv","","334","resources/trios/L1T1A2.jpg","37","restless",0.6,0.3,0.5,0.427555726392806,"true"
"image-keyboard-response",330,336154,"0.0-3.106-1.106","bmrr4wsj7s2fs1r",565,"8.csv","","null","resources/maskTrios/L1BB.jpg","null","",NA,NA,NA,NA,""
"image-keyboard-response",331,337357,"0.0-3.106-2.106","bmrr4wsj7s2fs1r",565,"8.csv","","null","resources/images/coin2.png","null","",NA,NA,NA,NA,""
"image-keyboard-response",332,337770,"0.0-3.107-0.107","bmrr4wsj7s2fs1r",565,"8.csv","","410.0000000000582","resources/trios/L1T1A2.jpg","37","restless",0.6,0.3,0.5,0.792920424459668,"false"
"image-keyboard-response",333,338173,"0.0-3.107-1.107","bmrr4wsj7s2fs1r",565,"8.csv","","null","resources/maskTrios/L1BB.jpg","null","",NA,NA,NA,NA,""
"image-keyboard-response",334,339375,"0.0-3.107-2.107","bmrr4wsj7s2fs1r",565,"8.csv","","null","resources/images/fishbone.png","null","",NA,NA,NA,NA,""
"image-keyboard-response",335,339939,"0.0-3.108-0.108","bmrr4wsj7s2fs1r",565,"8.csv","","560.9999999999418","resources/trios/L2T4A1.jpg","39","restless",0.6,0.3,0.5,0.113954715801031,"true"
"image-keyboard-response",336,340342,"0.0-3.108-1.108","bmrr4wsj7s2fs1r",565,"8.csv","","null","resources/maskTrios/BBA1.jpg","null","",NA,NA,NA,NA,""
"image-keyboard-response",337,341545,"0.0-3.108-2.108","bmrr4wsj7s2fs1r",565,"8.csv","","null","resources/images/coin2.png","null","",NA,NA,NA,NA,""
"image-keyboard-response",338,341996,"0.0-3.109-0.109","bmrr4wsj7s2fs1r",565,"8.csv","","445","resources/trios/L1T1A1.jpg","39","restless",0.6,0.3,0.5,0.918899811247033,"false"
"image-keyboard-response",339,342400,"0.0-3.109-1.109","bmrr4wsj7s2fs1r",565,"8.csv","","null","resources/maskTrios/BBA1.jpg","null","",NA,NA,NA,NA,""
"image-keyboard-response",340,343602,"0.0-3.109-2.109","bmrr4wsj7s2fs1r",565,"8.csv","","null","resources/images/fishbone.png","null","",NA,NA,NA,NA,""
"image-keyboard-response",341,344007,"0.0-3.110-0.110","bmrr4wsj7s2fs1r",565,"8.csv","","402","resources/trios/L1T4A2.jpg","38","restless",0.6,0.3,0.5,0.431125886208665,"false"
"image-keyboard-response",342,344410,"0.0-3.110-1.110","bmrr4wsj7s2fs1r",565,"8.csv","","null","resources/maskTrios/BT4B.jpg","null","",NA,NA,NA,NA,""
"image-keyboard-response",343,345612,"0.0-3.110-2.110","bmrr4wsj7s2fs1r",565,"8.csv","","null","resources/images/fishbone.png","null","",NA,NA,NA,NA,""
"image-keyboard-response",344,345871,"0.0-3.111-0.111","bmrr4wsj7s2fs1r",565,"8.csv","","257","resources/trios/L1T1A2.jpg","38","restless",0.7,0.3,0.5,0.10356094082255,"true"
"image-keyboard-response",345,346274,"0.0-3.111-1.111","bmrr4wsj7s2fs1r",565,"8.csv","","null","resources/maskTrios/BT1B.jpg","null","",NA,NA,NA,NA,""
"image-keyboard-response",346,347477,"0.0-3.111-2.111","bmrr4wsj7s2fs1r",565,"8.csv","","null","resources/images/coin2.png","null","",NA,NA,NA,NA,""
"image-keyboard-response",347,347759,"0.0-3.112-0.112","bmrr4wsj7s2fs1r",565,"8.csv","","279","resources/trios/L1T1A2.jpg","38","restless",0.7,0.3,0.5,0.369387126044207,"false"
"image-keyboard-response",348,348162,"0.0-3.112-1.112","bmrr4wsj7s2fs1r",565,"8.csv","","null","resources/maskTrios/BT1B.jpg","null","",NA,NA,NA,NA,""
"image-keyboard-response",349,349365,"0.0-3.112-2.112","bmrr4wsj7s2fs1r",565,"8.csv","","null","resources/images/fishbone.png","null","",NA,NA,NA,NA,""
"image-keyboard-response",350,349595,"0.0-3.113-0.113","bmrr4wsj7s2fs1r",565,"8.csv","","225","resources/trios/L2T1A2.jpg","37","restless",0.7,0.3,0.5,0.0382201393365168,"true"
"image-keyboard-response",351,349999,"0.0-3.113-1.113","bmrr4wsj7s2fs1r",565,"8.csv","","null","resources/maskTrios/L2BB.jpg","null","",NA,NA,NA,NA,""
"image-keyboard-response",352,351202,"0.0-3.113-2.113","bmrr4wsj7s2fs1r",565,"8.csv","","null","resources/images/coin2.png","null","",NA,NA,NA,NA,""
"image-keyboard-response",353,351539,"0.0-3.114-0.114","bmrr4wsj7s2fs1r",565,"8.csv","","334.9999999999418","resources/trios/L1T1A1.jpg","37","restless",0.8,0.3,0.5,0.0462580476316582,"true"
"image-keyboard-response",354,351942,"0.0-3.114-1.114","bmrr4wsj7s2fs1r",565,"8.csv","","null","resources/maskTrios/L1BB.jpg","null","",NA,NA,NA,NA,""
"image-keyboard-response",355,353146,"0.0-3.114-2.114","bmrr4wsj7s2fs1r",565,"8.csv","","null","resources/images/coin2.png","null","",NA,NA,NA,NA,""
"image-keyboard-response",356,353451,"0.0-3.115-0.115","bmrr4wsj7s2fs1r",565,"8.csv","","303","resources/trios/L2T4A2.jpg","37","restless",0.8,0.3,0.5,0.849350166282946,"false"
"image-keyboard-response",357,353854,"0.0-3.115-1.115","bmrr4wsj7s2fs1r",565,"8.csv","","null","resources/maskTrios/L2BB.jpg","null","",NA,NA,NA,NA,""
"image-keyboard-response",358,355057,"0.0-3.115-2.115","bmrr4wsj7s2fs1r",565,"8.csv","","null","resources/images/fishbone.png","null","",NA,NA,NA,NA,""
"image-keyboard-response",359,355478,"0.0-3.116-0.116","bmrr4wsj7s2fs1r",565,"8.csv","","419.0000000000582","resources/trios/L2T1A1.jpg","39","restless",0.8,0.3,0.6,0.716617806896464,"false"
"image-keyboard-response",360,355880,"0.0-3.116-1.116","bmrr4wsj7s2fs1r",565,"8.csv","","null","resources/maskTrios/BBA1.jpg","null","",NA,NA,NA,NA,""
"image-keyboard-response",361,357083,"0.0-3.116-2.116","bmrr4wsj7s2fs1r",565,"8.csv","","null","resources/images/fishbone.png","null","",NA,NA,NA,NA,""
"image-keyboard-response",362,357431,"0.0-3.117-0.117","bmrr4wsj7s2fs1r",565,"8.csv","","343","resources/trios/L2T4A2.jpg","39","restless",0.8,0.3,0.6,0.729969566139115,"false"
"image-keyboard-response",363,357835,"0.0-3.117-1.117","bmrr4wsj7s2fs1r",565,"8.csv","","null","resources/maskTrios/BBA2.jpg","null","",NA,NA,NA,NA,""
"image-keyboard-response",364,359038,"0.0-3.117-2.117","bmrr4wsj7s2fs1r",565,"8.csv","","null","resources/images/fishbone.png","null","",NA,NA,NA,NA,""
"image-keyboard-response",365,359377,"0.0-3.118-0.118","bmrr4wsj7s2fs1r",565,"8.csv","","336.0000000000582","resources/trios/L1T1A2.jpg","37","restless",0.8,0.4,0.6,0.920677158124312,"false"
"image-keyboard-response",366,359780,"0.0-3.118-1.118","bmrr4wsj7s2fs1r",565,"8.csv","","null","resources/maskTrios/L1BB.jpg","null","",NA,NA,NA,NA,""
"image-keyboard-response",367,360983,"0.0-3.118-2.118","bmrr4wsj7s2fs1r",565,"8.csv","","null","resources/images/fishbone.png","null","",NA,NA,NA,NA,""
"image-keyboard-response",368,361253,"0.0-3.119-0.119","bmrr4wsj7s2fs1r",565,"8.csv","","267","resources/trios/L2T1A2.jpg","38","restless",0.8,0.4,0.6,0.617754427100494,"false"
"image-keyboard-response",369,361657,"0.0-3.119-1.119","bmrr4wsj7s2fs1r",565,"8.csv","","null","resources/maskTrios/BT1B.jpg","null","",NA,NA,NA,NA,""
"image-keyboard-response",370,362859,"0.0-3.119-2.119","bmrr4wsj7s2fs1r",565,"8.csv","","null","resources/images/fishbone.png","null","",NA,NA,NA,NA,""
"image-keyboard-response",371,363131,"0.0-3.120-0.120","bmrr4wsj7s2fs1r",565,"8.csv","","269","resources/trios/L1T1A2.jpg","39","restless",0.8,0.4,0.6,0.368586390501809,"true"
"image-keyboard-response",372,363535,"0.0-3.120-1.120","bmrr4wsj7s2fs1r",565,"8.csv","","null","resources/maskTrios/BBA2.jpg","null","",NA,NA,NA,NA,""
"image-keyboard-response",373,364738,"0.0-3.120-2.120","bmrr4wsj7s2fs1r",565,"8.csv","","null","resources/images/coin2.png","null","",NA,NA,NA,NA,""
"image-keyboard-response",374,365064,"0.0-3.121-0.121","bmrr4wsj7s2fs1r",565,"8.csv","","323.9999999999418","resources/trios/L2T1A2.jpg","39","restless",0.8,0.4,0.6,0.870095304757833,"false"
"image-keyboard-response",375,365467,"0.0-3.121-1.121","bmrr4wsj7s2fs1r",565,"8.csv","","null","resources/maskTrios/BBA2.jpg","null","",NA,NA,NA,NA,""
"image-keyboard-response",376,366670,"0.0-3.121-2.121","bmrr4wsj7s2fs1r",565,"8.csv","","null","resources/images/fishbone.png","null","",NA,NA,NA,NA,""
"image-keyboard-response",377,366985,"0.0-3.122-0.122","bmrr4wsj7s2fs1r",565,"8.csv","","312","resources/trios/L2T1A2.jpg","38","restless",0.8,0.4,0.6,0.566343916632693,"false"
"image-keyboard-response",378,367388,"0.0-3.122-1.122","bmrr4wsj7s2fs1r",565,"8.csv","","null","resources/maskTrios/BT1B.jpg","null","",NA,NA,NA,NA,""
"image-keyboard-response",379,368591,"0.0-3.122-2.122","bmrr4wsj7s2fs1r",565,"8.csv","","null","resources/images/fishbone.png","null","",NA,NA,NA,NA,""
"image-keyboard-response",380,369042,"0.0-3.123-0.123","bmrr4wsj7s2fs1r",565,"8.csv","","449","resources/trios/L2T4A1.jpg","39","restless",0.8,0.4,0.6,0.652885686935399,"false"
"image-keyboard-response",381,369445,"0.0-3.123-1.123","bmrr4wsj7s2fs1r",565,"8.csv","","null","resources/maskTrios/BBA1.jpg","null","",NA,NA,NA,NA,""
"image-keyboard-response",382,370648,"0.0-3.123-2.123","bmrr4wsj7s2fs1r",565,"8.csv","","null","resources/images/fishbone.png","null","",NA,NA,NA,NA,""
"image-keyboard-response",383,371021,"0.0-3.124-0.124","bmrr4wsj7s2fs1r",565,"8.csv","","368.9999999999418","resources/trios/L1T1A1.jpg","37","restless",0.8,0.5,0.6,0.1118608572394,"true"
"image-keyboard-response",384,371424,"0.0-3.124-1.124","bmrr4wsj7s2fs1r",565,"8.csv","","null","resources/maskTrios/L1BB.jpg","null","",NA,NA,NA,NA,""
"image-keyboard-response",385,372626,"0.0-3.124-2.124","bmrr4wsj7s2fs1r",565,"8.csv","","null","resources/images/coin2.png","null","",NA,NA,NA,NA,""
"image-keyboard-response",386,372892,"0.0-3.125-0.125","bmrr4wsj7s2fs1r",565,"8.csv","","260","resources/trios/L2T1A2.jpg","37","restless",0.8,0.5,0.6,0.424702887413163,"true"
"image-keyboard-response",387,373295,"0.0-3.125-1.125","bmrr4wsj7s2fs1r",565,"8.csv","","null","resources/maskTrios/L2BB.jpg","null","",NA,NA,NA,NA,""
"image-keyboard-response",388,374498,"0.0-3.125-2.125","bmrr4wsj7s2fs1r",565,"8.csv","","null","resources/images/coin2.png","null","",NA,NA,NA,NA,""
"image-keyboard-response",389,374837,"0.0-3.126-0.126","bmrr4wsj7s2fs1r",565,"8.csv","","336","resources/trios/L1T4A2.jpg","37","restless",0.8,0.5,0.6,0.639569318719782,"true"
"image-keyboard-response",390,375240,"0.0-3.126-1.126","bmrr4wsj7s2fs1r",565,"8.csv","","null","resources/maskTrios/L1BB.jpg","null","",NA,NA,NA,NA,""
"image-keyboard-response",391,376444,"0.0-3.126-2.126","bmrr4wsj7s2fs1r",565,"8.csv","","null","resources/images/coin2.png","null","",NA,NA,NA,NA,""
"image-keyboard-response",392,376696,"0.0-3.127-0.127","bmrr4wsj7s2fs1r",565,"8.csv","","249","resources/trios/L1T1A1.jpg","37","restless",0.8,0.5,0.6,0.0447555958356944,"true"
"image-keyboard-response",393,377099,"0.0-3.127-1.127","bmrr4wsj7s2fs1r",565,"8.csv","","null","resources/maskTrios/L1BB.jpg","null","",NA,NA,NA,NA,""
"image-keyboard-response",394,378302,"0.0-3.127-2.127","bmrr4wsj7s2fs1r",565,"8.csv","","null","resources/images/coin2.png","null","",NA,NA,NA,NA,""
"image-keyboard-response",395,378738,"0.0-3.128-0.128","bmrr4wsj7s2fs1r",565,"8.csv","","430","resources/trios/L2T4A1.jpg","37","restless",0.8,0.5,0.6,0.517267574468744,"true"
"image-keyboard-response",396,379141,"0.0-3.128-1.128","bmrr4wsj7s2fs1r",565,"8.csv","","null","resources/maskTrios/L2BB.jpg","null","",NA,NA,NA,NA,""
"image-keyboard-response",397,380344,"0.0-3.128-2.128","bmrr4wsj7s2fs1r",565,"8.csv","","null","resources/images/coin2.png","null","",NA,NA,NA,NA,""
"image-keyboard-response",398,380644,"0.0-3.129-0.129","bmrr4wsj7s2fs1r",565,"8.csv","","297.0000000000582","resources/trios/L1T4A1.jpg","37","restless",0.8,0.5,0.6,0.5297011586742,"true"
"image-keyboard-response",399,381047,"0.0-3.129-1.129","bmrr4wsj7s2fs1r",565,"8.csv","","null","resources/maskTrios/L1BB.jpg","null","",NA,NA,NA,NA,""
"image-keyboard-response",400,382250,"0.0-3.129-2.129","bmrr4wsj7s2fs1r",565,"8.csv","","null","resources/images/coin2.png","null","",NA,NA,NA,NA,""
"image-keyboard-response",401,382669,"0.0-3.130-0.130","bmrr4wsj7s2fs1r",565,"8.csv","","416","resources/trios/L2T4A2.jpg","37","restless",0.8,0.5,0.6,0.220152870729479,"true"
"image-keyboard-response",402,383073,"0.0-3.130-1.130","bmrr4wsj7s2fs1r",565,"8.csv","","null","resources/maskTrios/L2BB.jpg","null","",NA,NA,NA,NA,""
"image-keyboard-response",403,384276,"0.0-3.130-2.130","bmrr4wsj7s2fs1r",565,"8.csv","","null","resources/images/coin2.png","null","",NA,NA,NA,NA,""
"image-keyboard-response",404,384543,"0.0-3.131-0.131","bmrr4wsj7s2fs1r",565,"8.csv","","264.0000000000582","resources/trios/L1T4A1.jpg","37","restless",0.8,0.6,0.6,0.453156535153108,"true"
"image-keyboard-response",405,384946,"0.0-3.131-1.131","bmrr4wsj7s2fs1r",565,"8.csv","","null","resources/maskTrios/L1BB.jpg","null","",NA,NA,NA,NA,""
"image-keyboard-response",406,386149,"0.0-3.131-2.131","bmrr4wsj7s2fs1r",565,"8.csv","","null","resources/images/coin2.png","null","",NA,NA,NA,NA,""
"image-keyboard-response",407,386206,"0.0-3.132-0.132","bmrr4wsj7s2fs1r",565,"8.csv","","55","resources/trios/L2T4A2.jpg","37","restless",0.7,0.6,0.6,0.65230426911787,"true"
"image-keyboard-response",408,386608,"0.0-3.132-1.132","bmrr4wsj7s2fs1r",565,"8.csv","","null","resources/maskTrios/L2BB.jpg","null","",NA,NA,NA,NA,""
"image-keyboard-response",409,387811,"0.0-3.132-2.132","bmrr4wsj7s2fs1r",565,"8.csv","","null","resources/images/coin2.png","null","",NA,NA,NA,NA,""
"image-keyboard-response",410,388034,"0.0-3.133-0.133","bmrr4wsj7s2fs1r",565,"8.csv","","220","resources/trios/L1T4A1.jpg","37","restless",0.7,0.6,0.6,0.807840685297411,"false"
"image-keyboard-response",411,388437,"0.0-3.133-1.133","bmrr4wsj7s2fs1r",565,"8.csv","","null","resources/maskTrios/L1BB.jpg","null","",NA,NA,NA,NA,""
"image-keyboard-response",412,389640,"0.0-3.133-2.133","bmrr4wsj7s2fs1r",565,"8.csv","","null","resources/images/fishbone.png","null","",NA,NA,NA,NA,""
"image-keyboard-response",413,389917,"0.0-3.134-0.134","bmrr4wsj7s2fs1r",565,"8.csv","","271","resources/trios/L1T4A1.jpg","39","restless",0.7,0.6,0.6,0.894241644647612,"false"
"image-keyboard-response",414,390321,"0.0-3.134-1.134","bmrr4wsj7s2fs1r",565,"8.csv","","null","resources/maskTrios/BBA1.jpg","null","",NA,NA,NA,NA,""
"image-keyboard-response",415,391524,"0.0-3.134-2.134","bmrr4wsj7s2fs1r",565,"8.csv","","null","resources/images/fishbone.png","null","",NA,NA,NA,NA,""
"image-keyboard-response",416,391829,"0.0-3.135-0.135","bmrr4wsj7s2fs1r",565,"8.csv","","303","resources/trios/L2T4A1.jpg","38","restless",0.7,0.6,0.6,0.49682560660284,"true"
"image-keyboard-response",417,392233,"0.0-3.135-1.135","bmrr4wsj7s2fs1r",565,"8.csv","","null","resources/maskTrios/BT4B.jpg","null","",NA,NA,NA,NA,""
"image-keyboard-response",418,393439,"0.0-3.135-2.135","bmrr4wsj7s2fs1r",565,"8.csv","","null","resources/images/coin2.png","null","",NA,NA,NA,NA,""
"image-keyboard-response",419,393759,"0.0-3.136-0.136","bmrr4wsj7s2fs1r",565,"8.csv","","317","resources/trios/L1T4A2.jpg","38","restless",0.7,0.6,0.6,0.467610306666969,"true"
"image-keyboard-response",420,394162,"0.0-3.136-1.136","bmrr4wsj7s2fs1r",565,"8.csv","","null","resources/maskTrios/BT4B.jpg","null","",NA,NA,NA,NA,""
"image-keyboard-response",421,395366,"0.0-3.136-2.136","bmrr4wsj7s2fs1r",565,"8.csv","","null","resources/images/coin2.png","null","",NA,NA,NA,NA,""
"image-keyboard-response",422,395796,"0.0-3.137-0.137","bmrr4wsj7s2fs1r",565,"8.csv","","427","resources/trios/L2T1A2.jpg","38","restless",0.7,0.6,0.6,0.788905589442245,"false"
"image-keyboard-response",423,396200,"0.0-3.137-1.137","bmrr4wsj7s2fs1r",565,"8.csv","","null","resources/maskTrios/BT1B.jpg","null","",NA,NA,NA,NA,""
"image-keyboard-response",424,397403,"0.0-3.137-2.137","bmrr4wsj7s2fs1r",565,"8.csv","","null","resources/images/fishbone.png","null","",NA,NA,NA,NA,""
"image-keyboard-response",425,397740,"0.0-3.138-0.138","bmrr4wsj7s2fs1r",565,"8.csv","","334.9999999999418","resources/trios/L2T4A1.jpg","39","restless",0.7,0.6,0.5,0.630750380547673,"false"
"image-keyboard-response",426,398143,"0.0-3.138-1.138","bmrr4wsj7s2fs1r",565,"8.csv","","null","resources/maskTrios/BBA1.jpg","null","",NA,NA,NA,NA,""
"image-keyboard-response",427,399346,"0.0-3.138-2.138","bmrr4wsj7s2fs1r",565,"8.csv","","null","resources/images/fishbone.png","null","",NA,NA,NA,NA,""
"image-keyboard-response",428,399721,"0.0-3.139-0.139","bmrr4wsj7s2fs1r",565,"8.csv","","372","resources/trios/L1T4A1.jpg","38","restless",0.6,0.6,0.5,0.401295525967945,"true"
"image-keyboard-response",429,400124,"0.0-3.139-1.139","bmrr4wsj7s2fs1r",565,"8.csv","","null","resources/maskTrios/BT4B.jpg","null","",NA,NA,NA,NA,""
"image-keyboard-response",430,401327,"0.0-3.139-2.139","bmrr4wsj7s2fs1r",565,"8.csv","","null","resources/images/coin2.png","null","",NA,NA,NA,NA,""
"image-keyboard-response",431,402775,"0.0-3.140-0.140","bmrr4wsj7s2fs1r",565,"8.csv","","1445","resources/trios/L2T1A2.jpg","39","restless",0.6,0.6,0.5,0.260542574588155,"true"
"image-keyboard-response",432,403178,"0.0-3.140-1.140","bmrr4wsj7s2fs1r",565,"8.csv","","null","resources/maskTrios/BBA2.jpg","null","",NA,NA,NA,NA,""
"image-keyboard-response",433,404383,"0.0-3.140-2.140","bmrr4wsj7s2fs1r",565,"8.csv","","null","resources/images/coin2.png","null","",NA,NA,NA,NA,""
"image-keyboard-response",434,405867,"0.0-3.141-0.141","bmrr4wsj7s2fs1r",565,"8.csv","","1480","resources/trios/L2T1A2.jpg","39","restless",0.6,0.6,0.5,0.411597022541851,"true"
"image-keyboard-response",435,406270,"0.0-3.141-1.141","bmrr4wsj7s2fs1r",565,"8.csv","","null","resources/maskTrios/BBA2.jpg","null","",NA,NA,NA,NA,""
"image-keyboard-response",436,407473,"0.0-3.141-2.141","bmrr4wsj7s2fs1r",565,"8.csv","","null","resources/images/coin2.png","null","",NA,NA,NA,NA,""
"image-keyboard-response",437,408850,"0.0-3.142-0.142","bmrr4wsj7s2fs1r",565,"8.csv","","1375","resources/trios/L2T1A1.jpg","39","restless",0.6,0.6,0.5,0.999911124459837,"false"
"image-keyboard-response",438,409253,"0.0-3.142-1.142","bmrr4wsj7s2fs1r",565,"8.csv","","null","resources/maskTrios/BBA1.jpg","null","",NA,NA,NA,NA,""
"image-keyboard-response",439,410457,"0.0-3.142-2.142","bmrr4wsj7s2fs1r",565,"8.csv","","null","resources/images/fishbone.png","null","",NA,NA,NA,NA,""
"image-keyboard-response",440,412471,"0.0-3.143-0.143","bmrr4wsj7s2fs1r",565,"8.csv","","2011","resources/trios/L1T4A1.jpg","38","restless",0.5,0.6,0.5,0.0968325761182148,"true"
"image-keyboard-response",441,412874,"0.0-3.143-1.143","bmrr4wsj7s2fs1r",565,"8.csv","","null","resources/maskTrios/BT4B.jpg","null","",NA,NA,NA,NA,""
"image-keyboard-response",442,414077,"0.0-3.143-2.143","bmrr4wsj7s2fs1r",565,"8.csv","","null","resources/images/coin2.png","null","",NA,NA,NA,NA,""
"image-keyboard-response",443,415543,"0.0-3.144-0.144","bmrr4wsj7s2fs1r",565,"8.csv","","1464","resources/trios/L2T1A1.jpg","37","restless",0.5,0.6,0.5,0.0804446937149095,"true"
"image-keyboard-response",444,415946,"0.0-3.144-1.144","bmrr4wsj7s2fs1r",565,"8.csv","","null","resources/maskTrios/L2BB.jpg","null","",NA,NA,NA,NA,""
"image-keyboard-response",445,417149,"0.0-3.144-2.144","bmrr4wsj7s2fs1r",565,"8.csv","","null","resources/images/coin2.png","null","",NA,NA,NA,NA,""
"image-keyboard-response",446,418299,"0.0-3.145-0.145","bmrr4wsj7s2fs1r",565,"8.csv","","1148.0000000000582","resources/trios/L1T4A2.jpg","38","restless",0.5,0.6,0.5,0.00265354208911683,"true"
"image-keyboard-response",447,418702,"0.0-3.145-1.145","bmrr4wsj7s2fs1r",565,"8.csv","","null","resources/maskTrios/BT4B.jpg","null","",NA,NA,NA,NA,""
"image-keyboard-response",448,419906,"0.0-3.145-2.145","bmrr4wsj7s2fs1r",565,"8.csv","","null","resources/images/coin2.png","null","",NA,NA,NA,NA,""
"image-keyboard-response",449,421901,"0.0-3.146-0.146","bmrr4wsj7s2fs1r",565,"8.csv","","1992.0000000000582","resources/trios/L1T1A1.jpg","37","restless",0.5,0.6,0.5,0.311502041782453,"true"
"image-keyboard-response",450,422304,"0.0-3.146-1.146","bmrr4wsj7s2fs1r",565,"8.csv","","null","resources/maskTrios/L1BB.jpg","null","",NA,NA,NA,NA,""
"image-keyboard-response",451,423508,"0.0-3.146-2.146","bmrr4wsj7s2fs1r",565,"8.csv","","null","resources/images/coin2.png","null","",NA,NA,NA,NA,""
"image-keyboard-response",452,425170,"0.0-3.147-0.147","bmrr4wsj7s2fs1r",565,"8.csv","","1660","resources/trios/L1T4A2.jpg","38","restless",0.4,0.6,0.5,0.37341923277093,"true"
"image-keyboard-response",453,425573,"0.0-3.147-1.147","bmrr4wsj7s2fs1r",565,"8.csv","","null","resources/maskTrios/BT4B.jpg","null","",NA,NA,NA,NA,""
"image-keyboard-response",454,426776,"0.0-3.147-2.147","bmrr4wsj7s2fs1r",565,"8.csv","","null","resources/images/coin2.png","null","",NA,NA,NA,NA,""
"image-keyboard-response",455,429322,"0.0-3.148-0.148","bmrr4wsj7s2fs1r",565,"8.csv","","2543","resources/trios/L1T1A2.jpg","37","restless",0.4,0.6,0.5,0.231180618878237,"true"
"image-keyboard-response",456,429724,"0.0-3.148-1.148","bmrr4wsj7s2fs1r",565,"8.csv","","null","resources/maskTrios/L1BB.jpg","null","",NA,NA,NA,NA,""
"image-keyboard-response",457,430928,"0.0-3.148-2.148","bmrr4wsj7s2fs1r",565,"8.csv","","null","resources/images/coin2.png","null","",NA,NA,NA,NA,""
"image-keyboard-response",458,433469,"0.0-3.149-0.149","bmrr4wsj7s2fs1r",565,"8.csv","","2538","resources/trios/L2T4A1.jpg","38","restless",0.4,0.6,0.5,0.175939370482263,"true"
"image-keyboard-response",459,433873,"0.0-3.149-1.149","bmrr4wsj7s2fs1r",565,"8.csv","","null","resources/maskTrios/BT4B.jpg","null","",NA,NA,NA,NA,""
"image-keyboard-response",460,435076,"0.0-3.149-2.149","bmrr4wsj7s2fs1r",565,"8.csv","","null","resources/images/coin2.png","null","",NA,NA,NA,NA,""
"image-keyboard-response",461,438286,"0.0-3.150-0.150","bmrr4wsj7s2fs1r",565,"8.csv","","3207.999999999942","resources/trios/L1T1A2.jpg","37","restless",0.3,0.6,0.5,0.828317424143357,"false"
"image-keyboard-response",462,438690,"0.0-3.150-1.150","bmrr4wsj7s2fs1r",565,"8.csv","","null","resources/maskTrios/L1BB.jpg","null","",NA,NA,NA,NA,""
"image-keyboard-response",463,439893,"0.0-3.150-2.150","bmrr4wsj7s2fs1r",565,"8.csv","","null","resources/images/fishbone.png","null","",NA,NA,NA,NA,""
"image-keyboard-response",464,440825,"0.0-3.151-0.151","bmrr4wsj7s2fs1r",565,"8.csv","","930","resources/trios/L1T1A1.jpg","39","restless",0.3,0.7,0.5,0.279601334815636,"true"
"image-keyboard-response",465,441228,"0.0-3.151-1.151","bmrr4wsj7s2fs1r",565,"8.csv","","null","resources/maskTrios/BBA1.jpg","null","",NA,NA,NA,NA,""
"image-keyboard-response",466,442431,"0.0-3.151-2.151","bmrr4wsj7s2fs1r",565,"8.csv","","null","resources/images/coin2.png","null","",NA,NA,NA,NA,""
"image-keyboard-response",467,443952,"0.0-3.152-0.152","bmrr4wsj7s2fs1r",565,"8.csv","","1518","resources/trios/L2T4A2.jpg","38","restless",0.3,0.7,0.5,0.0815954994566463,"true"
"image-keyboard-response",468,444355,"0.0-3.152-1.152","bmrr4wsj7s2fs1r",565,"8.csv","","null","resources/maskTrios/BT4B.jpg","null","",NA,NA,NA,NA,""
"image-keyboard-response",469,445559,"0.0-3.152-2.152","bmrr4wsj7s2fs1r",565,"8.csv","","null","resources/images/coin2.png","null","",NA,NA,NA,NA,""
"image-keyboard-response",470,446567,"0.0-3.153-0.153","bmrr4wsj7s2fs1r",565,"8.csv","","1005.9999999999418","resources/trios/L2T4A1.jpg","38","restless",0.3,0.7,0.5,0.867345440925706,"false"
"image-keyboard-response",471,446971,"0.0-3.153-1.153","bmrr4wsj7s2fs1r",565,"8.csv","","null","resources/maskTrios/BT4B.jpg","null","",NA,NA,NA,NA,""
"image-keyboard-response",472,448173,"0.0-3.153-2.153","bmrr4wsj7s2fs1r",565,"8.csv","","null","resources/images/fishbone.png","null","",NA,NA,NA,NA,""
"image-keyboard-response",473,449363,"0.0-3.154-0.154","bmrr4wsj7s2fs1r",565,"8.csv","","1187","resources/trios/L2T4A2.jpg","37","restless",0.3,0.7,0.5,0.188499136502051,"true"
"image-keyboard-response",474,449768,"0.0-3.154-1.154","bmrr4wsj7s2fs1r",565,"8.csv","","null","resources/maskTrios/L2BB.jpg","null","",NA,NA,NA,NA,""
"image-keyboard-response",475,450971,"0.0-3.154-2.154","bmrr4wsj7s2fs1r",565,"8.csv","","null","resources/images/coin2.png","null","",NA,NA,NA,NA,""
"image-keyboard-response",476,452491,"0.0-3.155-0.155","bmrr4wsj7s2fs1r",565,"8.csv","","1517","resources/trios/L2T4A1.jpg","39","restless",0.3,0.7,0.5,0.846499968472392,"false"
"image-keyboard-response",477,452894,"0.0-3.155-1.155","bmrr4wsj7s2fs1r",565,"8.csv","","null","resources/maskTrios/BBA1.jpg","null","",NA,NA,NA,NA,""
"image-keyboard-response",478,454097,"0.0-3.155-2.155","bmrr4wsj7s2fs1r",565,"8.csv","","null","resources/images/fishbone.png","null","",NA,NA,NA,NA,""
"image-keyboard-response",479,457473,"0.0-3.156-0.156","bmrr4wsj7s2fs1r",565,"8.csv","","3373","resources/trios/L1T1A2.jpg","37","restless",0.3,0.7,0.5,0.599626300789576,"false"
"image-keyboard-response",480,457877,"0.0-3.156-1.156","bmrr4wsj7s2fs1r",565,"8.csv","","null","resources/maskTrios/L1BB.jpg","null","",NA,NA,NA,NA,""
"image-keyboard-response",481,459080,"0.0-3.156-2.156","bmrr4wsj7s2fs1r",565,"8.csv","","null","resources/images/fishbone.png","null","",NA,NA,NA,NA,""
"image-keyboard-response",482,462911,"0.0-3.157-0.157","bmrr4wsj7s2fs1r",565,"8.csv","","3829","resources/trios/L2T4A2.jpg","38","restless",0.3,0.7,0.5,0.0465954448927389,"true"
"image-keyboard-response",483,463314,"0.0-3.157-1.157","bmrr4wsj7s2fs1r",565,"8.csv","","null","resources/maskTrios/BT4B.jpg","null","",NA,NA,NA,NA,""
"image-keyboard-response",484,464518,"0.0-3.157-2.157","bmrr4wsj7s2fs1r",565,"8.csv","","null","resources/images/coin2.png","null","",NA,NA,NA,NA,""
"image-keyboard-response",485,467304,"0.0-3.158-0.158","bmrr4wsj7s2fs1r",565,"8.csv","","2784.000000000058","resources/trios/L1T4A1.jpg","38","restless",0.3,0.7,0.5,0.241532359284284,"true"
"image-keyboard-response",486,467707,"0.0-3.158-1.158","bmrr4wsj7s2fs1r",565,"8.csv","","null","resources/maskTrios/BT4B.jpg","null","",NA,NA,NA,NA,""
"image-keyboard-response",487,468910,"0.0-3.158-2.158","bmrr4wsj7s2fs1r",565,"8.csv","","null","resources/images/coin2.png","null","",NA,NA,NA,NA,""
"image-keyboard-response",488,474187,"0.0-3.159-0.159","bmrr4wsj7s2fs1r",565,"8.csv","","5274","resources/trios/L2T1A2.jpg","37","restless",0.3,0.7,0.4,0.127599775113748,"true"
"image-keyboard-response",489,474590,"0.0-3.159-1.159","bmrr4wsj7s2fs1r",565,"8.csv","","null","resources/maskTrios/L2BB.jpg","null","",NA,NA,NA,NA,""
"image-keyboard-response",490,475794,"0.0-3.159-2.159","bmrr4wsj7s2fs1r",565,"8.csv","","null","resources/images/coin2.png","null","",NA,NA,NA,NA,""
"image-keyboard-response",491,477872,"0.0-3.160-0.160","bmrr4wsj7s2fs1r",565,"8.csv","","2075","resources/trios/L2T4A1.jpg","38","restless",0.3,0.6,0.4,0.0408474396107688,"true"
"image-keyboard-response",492,478276,"0.0-3.160-1.160","bmrr4wsj7s2fs1r",565,"8.csv","","null","resources/maskTrios/BT4B.jpg","null","",NA,NA,NA,NA,""
"image-keyboard-response",493,479479,"0.0-3.160-2.160","bmrr4wsj7s2fs1r",565,"8.csv","","null","resources/images/coin2.png","null","",NA,NA,NA,NA,""
"image-keyboard-response",494,482218,"0.0-3.161-0.161","bmrr4wsj7s2fs1r",565,"8.csv","","2736","resources/trios/L1T4A2.jpg","38","restless",0.3,0.6,0.4,0.393859871277619,"true"
"image-keyboard-response",495,482621,"0.0-3.161-1.161","bmrr4wsj7s2fs1r",565,"8.csv","","null","resources/maskTrios/BT4B.jpg","null","",NA,NA,NA,NA,""
"image-keyboard-response",496,483825,"0.0-3.161-2.161","bmrr4wsj7s2fs1r",565,"8.csv","","null","resources/images/coin2.png","null","",NA,NA,NA,NA,""
"image-keyboard-response",497,485600,"0.0-3.162-0.162","bmrr4wsj7s2fs1r",565,"8.csv","","1772.9999999999418","resources/trios/L2T1A1.jpg","37","restless",0.3,0.6,0.4,0.120124338234349,"true"
"image-keyboard-response",498,486004,"0.0-3.162-1.162","bmrr4wsj7s2fs1r",565,"8.csv","","null","resources/maskTrios/L2BB.jpg","null","",NA,NA,NA,NA,""
"image-keyboard-response",499,487207,"0.0-3.162-2.162","bmrr4wsj7s2fs1r",565,"8.csv","","null","resources/images/coin2.png","null","",NA,NA,NA,NA,""
"image-keyboard-response",500,489642,"0.0-3.163-0.163","bmrr4wsj7s2fs1r",565,"8.csv","","2431.999999999942","resources/trios/L2T4A1.jpg","38","restless",0.4,0.6,0.4,0.246850969496243,"true"
"image-keyboard-response",501,490045,"0.0-3.163-1.163","bmrr4wsj7s2fs1r",565,"8.csv","","null","resources/maskTrios/BT4B.jpg","null","",NA,NA,NA,NA,""
"image-keyboard-response",502,491248,"0.0-3.163-2.163","bmrr4wsj7s2fs1r",565,"8.csv","","null","resources/images/coin2.png","null","",NA,NA,NA,NA,""
"image-keyboard-response",503,493176,"0.0-3.164-0.164","bmrr4wsj7s2fs1r",565,"8.csv","","1923","resources/trios/L1T4A2.jpg","38","restless",0.4,0.6,0.4,0.741194048739699,"false"
"image-keyboard-response",504,493579,"0.0-3.164-1.164","bmrr4wsj7s2fs1r",565,"8.csv","","null","resources/maskTrios/BT4B.jpg","null","",NA,NA,NA,NA,""
"image-keyboard-response",505,494781,"0.0-3.164-2.164","bmrr4wsj7s2fs1r",565,"8.csv","","null","resources/images/fishbone.png","null","",NA,NA,NA,NA,""
"image-keyboard-response",506,496320,"0.0-3.165-0.165","bmrr4wsj7s2fs1r",565,"8.csv","","1536","resources/trios/L1T4A2.jpg","38","restless",0.4,0.6,0.4,0.0765700564356863,"true"
"image-keyboard-response",507,496723,"0.0-3.165-1.165","bmrr4wsj7s2fs1r",565,"8.csv","","null","resources/maskTrios/BT4B.jpg","null","",NA,NA,NA,NA,""
"image-keyboard-response",508,497927,"0.0-3.165-2.165","bmrr4wsj7s2fs1r",565,"8.csv","","null","resources/images/coin2.png","null","",NA,NA,NA,NA,""
"image-keyboard-response",509,502078,"0.0-3.166-0.166","bmrr4wsj7s2fs1r",565,"8.csv","","4148.000000000058","resources/trios/L2T1A2.jpg","37","restless",0.4,0.6,0.4,0.938766389373842,"false"
"image-keyboard-response",510,502481,"0.0-3.166-1.166","bmrr4wsj7s2fs1r",565,"8.csv","","null","resources/maskTrios/L2BB.jpg","null","",NA,NA,NA,NA,""
"image-keyboard-response",511,503684,"0.0-3.166-2.166","bmrr4wsj7s2fs1r",565,"8.csv","","null","resources/images/fishbone.png","null","",NA,NA,NA,NA,""
"image-keyboard-response",512,505124,"0.0-3.167-0.167","bmrr4wsj7s2fs1r",565,"8.csv","","1437","resources/trios/L2T4A1.jpg","38","restless",0.4,0.6,0.4,0.275883460546594,"true"
"image-keyboard-response",513,505527,"0.0-3.167-1.167","bmrr4wsj7s2fs1r",565,"8.csv","","null","resources/maskTrios/BT4B.jpg","null","",NA,NA,NA,NA,""
"image-keyboard-response",514,506730,"0.0-3.167-2.167","bmrr4wsj7s2fs1r",565,"8.csv","","null","resources/images/coin2.png","null","",NA,NA,NA,NA,""
"image-keyboard-response",515,511534,"0.0-3.168-0.168","bmrr4wsj7s2fs1r",565,"8.csv","","4801.000000000058","resources/trios/L2T4A2.jpg","38","restless",0.4,0.6,0.4,0.37447354366626,"true"
"image-keyboard-response",516,511938,"0.0-3.168-1.168","bmrr4wsj7s2fs1r",565,"8.csv","","null","resources/maskTrios/BT4B.jpg","null","",NA,NA,NA,NA,""
"image-keyboard-response",517,513141,"0.0-3.168-2.168","bmrr4wsj7s2fs1r",565,"8.csv","","null","resources/images/coin2.png","null","",NA,NA,NA,NA,""
"image-keyboard-response",518,513801,"0.0-3.169-0.169","bmrr4wsj7s2fs1r",565,"8.csv","","656.9999999999418","resources/trios/L2T4A2.jpg","37","restless",0.4,0.6,0.4,0.889771803859436,"false"
"image-keyboard-response",519,514204,"0.0-3.169-1.169","bmrr4wsj7s2fs1r",565,"8.csv","","null","resources/maskTrios/L2BB.jpg","null","",NA,NA,NA,NA,""
"image-keyboard-response",520,515407,"0.0-3.169-2.169","bmrr4wsj7s2fs1r",565,"8.csv","","null","resources/images/fishbone.png","null","",NA,NA,NA,NA,""
"image-keyboard-response",521,518953,"0.0-3.170-0.170","bmrr4wsj7s2fs1r",565,"8.csv","","3543.000000000058","resources/trios/L2T1A1.jpg","37","restless",0.4,0.5,0.4,0.110957715062804,"true"
"image-keyboard-response",522,519356,"0.0-3.170-1.170","bmrr4wsj7s2fs1r",565,"8.csv","","null","resources/maskTrios/L2BB.jpg","null","",NA,NA,NA,NA,""
"image-keyboard-response",523,520560,"0.0-3.170-2.170","bmrr4wsj7s2fs1r",565,"8.csv","","null","resources/images/coin2.png","null","",NA,NA,NA,NA,""
"image-keyboard-response",524,522078,"0.0-3.171-0.171","bmrr4wsj7s2fs1r",565,"8.csv","","1514.9999999999418","resources/trios/L2T4A1.jpg","38","restless",0.4,0.5,0.4,0.263797853358623,"true"
"image-keyboard-response",525,522481,"0.0-3.171-1.171","bmrr4wsj7s2fs1r",565,"8.csv","","null","resources/maskTrios/BT4B.jpg","null","",NA,NA,NA,NA,""
"image-keyboard-response",526,523685,"0.0-3.171-2.171","bmrr4wsj7s2fs1r",565,"8.csv","","null","resources/images/coin2.png","null","",NA,NA,NA,NA,""
"image-keyboard-response",527,525256,"0.0-3.172-0.172","bmrr4wsj7s2fs1r",565,"8.csv","","1569","resources/trios/L2T1A2.jpg","39","restless",0.4,0.5,0.4,0.864514515618909,"false"
"image-keyboard-response",528,525659,"0.0-3.172-1.172","bmrr4wsj7s2fs1r",565,"8.csv","","null","resources/maskTrios/BBA2.jpg","null","",NA,NA,NA,NA,""
"image-keyboard-response",529,526861,"0.0-3.172-2.172","bmrr4wsj7s2fs1r",565,"8.csv","","null","resources/images/fishbone.png","null","",NA,NA,NA,NA,""
"image-keyboard-response",530,528293,"0.0-3.173-0.173","bmrr4wsj7s2fs1r",565,"8.csv","","1428.9999999998836","resources/trios/L1T4A1.jpg","38","restless",0.4,0.5,0.4,0.483185834785713,"true"
"image-keyboard-response",531,528697,"0.0-3.173-1.173","bmrr4wsj7s2fs1r",565,"8.csv","","null","resources/maskTrios/BT4B.jpg","null","",NA,NA,NA,NA,""
"image-keyboard-response",532,529899,"0.0-3.173-2.173","bmrr4wsj7s2fs1r",565,"8.csv","","null","resources/images/coin2.png","null","",NA,NA,NA,NA,""
"image-keyboard-response",533,531239,"0.0-3.174-0.174","bmrr4wsj7s2fs1r",565,"8.csv","","1334","resources/trios/L2T1A1.jpg","37","restless",0.4,0.5,0.4,0.159814864139049,"true"
"image-keyboard-response",534,531642,"0.0-3.174-1.174","bmrr4wsj7s2fs1r",565,"8.csv","","null","resources/maskTrios/L2BB.jpg","null","",NA,NA,NA,NA,""
"image-keyboard-response",535,532846,"0.0-3.174-2.174","bmrr4wsj7s2fs1r",565,"8.csv","","null","resources/images/coin2.png","null","",NA,NA,NA,NA,""
"image-keyboard-response",536,535445,"0.0-3.175-0.175","bmrr4wsj7s2fs1r",565,"8.csv","","2597","resources/trios/L2T1A1.jpg","37","restless",0.4,0.5,0.4,0.566141440924169,"false"
"image-keyboard-response",537,535849,"0.0-3.175-1.175","bmrr4wsj7s2fs1r",565,"8.csv","","null","resources/maskTrios/L2BB.jpg","null","",NA,NA,NA,NA,""
"image-keyboard-response",538,537052,"0.0-3.175-2.175","bmrr4wsj7s2fs1r",565,"8.csv","","null","resources/images/fishbone.png","null","",NA,NA,NA,NA,""
"image-keyboard-response",539,538154,"0.0-3.176-0.176","bmrr4wsj7s2fs1r",565,"8.csv","","1100","resources/trios/L2T1A1.jpg","37","restless",0.4,0.5,0.4,0.588102802643386,"false"
"image-keyboard-response",540,538560,"0.0-3.176-1.176","bmrr4wsj7s2fs1r",565,"8.csv","","null","resources/maskTrios/L2BB.jpg","null","",NA,NA,NA,NA,""
"image-keyboard-response",541,539762,"0.0-3.176-2.176","bmrr4wsj7s2fs1r",565,"8.csv","","null","resources/images/fishbone.png","null","",NA,NA,NA,NA,""
"image-keyboard-response",542,540344,"0.0-3.177-0.177","bmrr4wsj7s2fs1r",565,"8.csv","","578","resources/trios/L2T1A2.jpg","39","restless",0.4,0.5,0.4,0.125510350739417,"true"
"image-keyboard-response",543,540747,"0.0-3.177-1.177","bmrr4wsj7s2fs1r",565,"8.csv","","null","resources/maskTrios/BBA2.jpg","null","",NA,NA,NA,NA,""
"image-keyboard-response",544,541950,"0.0-3.177-2.177","bmrr4wsj7s2fs1r",565,"8.csv","","null","resources/images/coin2.png","null","",NA,NA,NA,NA,""
"image-keyboard-response",545,542940,"0.0-3.178-0.178","bmrr4wsj7s2fs1r",565,"8.csv","","987","resources/trios/L2T4A1.jpg","38","restless",0.4,0.5,0.4,0.584832626197124,"false"
"image-keyboard-response",546,543342,"0.0-3.178-1.178","bmrr4wsj7s2fs1r",565,"8.csv","","null","resources/maskTrios/BT4B.jpg","null","",NA,NA,NA,NA,""
"image-keyboard-response",547,544545,"0.0-3.178-2.178","bmrr4wsj7s2fs1r",565,"8.csv","","null","resources/images/fishbone.png","null","",NA,NA,NA,NA,""
"image-keyboard-response",548,545539,"0.0-3.179-0.179","bmrr4wsj7s2fs1r",565,"8.csv","","991","resources/trios/L2T4A2.jpg","39","restless",0.4,0.5,0.4,0.293466730713401,"true"
"image-keyboard-response",549,545942,"0.0-3.179-1.179","bmrr4wsj7s2fs1r",565,"8.csv","","null","resources/maskTrios/BBA2.jpg","null","",NA,NA,NA,NA,""
"image-keyboard-response",550,547146,"0.0-3.179-2.179","bmrr4wsj7s2fs1r",565,"8.csv","","null","resources/images/coin2.png","null","",NA,NA,NA,NA,""
"image-keyboard-response",551,548738,"0.0-3.180-0.180","bmrr4wsj7s2fs1r",565,"8.csv","","1590","resources/trios/L2T4A2.jpg","37","restless",0.4,0.5,0.4,0.653532501296297,"false"
"image-keyboard-response",552,549141,"0.0-3.180-1.180","bmrr4wsj7s2fs1r",565,"8.csv","","null","resources/maskTrios/L2BB.jpg","null","",NA,NA,NA,NA,""
"image-keyboard-response",553,550344,"0.0-3.180-2.180","bmrr4wsj7s2fs1r",565,"8.csv","","null","resources/images/fishbone.png","null","",NA,NA,NA,NA,""
"image-keyboard-response",554,551023,"0.0-3.181-0.181","bmrr4wsj7s2fs1r",565,"8.csv","","677","resources/trios/L1T4A1.jpg","39","restless",0.4,0.5,0.4,0.279888964076881,"true"
"image-keyboard-response",555,551427,"0.0-3.181-1.181","bmrr4wsj7s2fs1r",565,"8.csv","","null","resources/maskTrios/BBA1.jpg","null","",NA,NA,NA,NA,""
"image-keyboard-response",556,552630,"0.0-3.181-2.181","bmrr4wsj7s2fs1r",565,"8.csv","","null","resources/images/coin2.png","null","",NA,NA,NA,NA,""
"image-keyboard-response",557,553310,"0.0-3.182-0.182","bmrr4wsj7s2fs1r",565,"8.csv","","675","resources/trios/L1T1A1.jpg","39","restless",0.4,0.5,0.5,0.927038788015503,"false"
"image-keyboard-response",558,553714,"0.0-3.182-1.182","bmrr4wsj7s2fs1r",565,"8.csv","","null","resources/maskTrios/BBA1.jpg","null","",NA,NA,NA,NA,""
"image-keyboard-response",559,554917,"0.0-3.182-2.182","bmrr4wsj7s2fs1r",565,"8.csv","","null","resources/images/fishbone.png","null","",NA,NA,NA,NA,""
"image-keyboard-response",560,555935,"0.0-3.183-0.183","bmrr4wsj7s2fs1r",565,"8.csv","","1016","resources/trios/L1T1A1.jpg","38","restless",0.5,0.5,0.5,0.495060695558065,"true"
"image-keyboard-response",561,556338,"0.0-3.183-1.183","bmrr4wsj7s2fs1r",565,"8.csv","","null","resources/maskTrios/BT1B.jpg","null","",NA,NA,NA,NA,""
"image-keyboard-response",562,557542,"0.0-3.183-2.183","bmrr4wsj7s2fs1r",565,"8.csv","","null","resources/images/coin2.png","null","",NA,NA,NA,NA,""
"image-keyboard-response",563,559481,"0.0-3.184-0.184","bmrr4wsj7s2fs1r",565,"8.csv","","1937","resources/trios/L1T4A2.jpg","37","restless",0.5,0.4,0.5,0.510999375489348,"false"
"image-keyboard-response",564,559886,"0.0-3.184-1.184","bmrr4wsj7s2fs1r",565,"8.csv","","null","resources/maskTrios/L1BB.jpg","null","",NA,NA,NA,NA,""
"image-keyboard-response",565,561089,"0.0-3.184-2.184","bmrr4wsj7s2fs1r",565,"8.csv","","null","resources/images/fishbone.png","null","",NA,NA,NA,NA,""
"image-keyboard-response",566,563112,"0.0-3.185-0.185","bmrr4wsj7s2fs1r",565,"8.csv","","2020","resources/trios/L2T4A2.jpg","38","restless",0.5,0.4,0.5,0.653462741963732,"false"
"image-keyboard-response",567,563515,"0.0-3.185-1.185","bmrr4wsj7s2fs1r",565,"8.csv","","null","resources/maskTrios/BT4B.jpg","null","",NA,NA,NA,NA,""
"image-keyboard-response",568,564718,"0.0-3.185-2.185","bmrr4wsj7s2fs1r",565,"8.csv","","null","resources/images/fishbone.png","null","",NA,NA,NA,NA,""
"image-keyboard-response",569,566163,"0.0-3.186-0.186","bmrr4wsj7s2fs1r",565,"8.csv","","1442.9999999998836","resources/trios/L1T1A1.jpg","39","restless",0.5,0.4,0.5,0.840571893596352,"false"
"image-keyboard-response",570,566566,"0.0-3.186-1.186","bmrr4wsj7s2fs1r",565,"8.csv","","null","resources/maskTrios/BBA1.jpg","null","",NA,NA,NA,NA,""
"image-keyboard-response",571,567769,"0.0-3.186-2.186","bmrr4wsj7s2fs1r",565,"8.csv","","null","resources/images/fishbone.png","null","",NA,NA,NA,NA,""
"image-keyboard-response",572,568726,"0.0-3.187-0.187","bmrr4wsj7s2fs1r",565,"8.csv","","954","resources/trios/L2T1A2.jpg","37","restless",0.5,0.4,0.5,0.424294787329988,"true"
"image-keyboard-response",573,569129,"0.0-3.187-1.187","bmrr4wsj7s2fs1r",565,"8.csv","","null","resources/maskTrios/L2BB.jpg","null","",NA,NA,NA,NA,""
"image-keyboard-response",574,570333,"0.0-3.187-2.187","bmrr4wsj7s2fs1r",565,"8.csv","","null","resources/images/coin2.png","null","",NA,NA,NA,NA,""
"image-keyboard-response",575,571221,"0.0-3.188-0.188","bmrr4wsj7s2fs1r",565,"8.csv","","883","resources/trios/L2T4A1.jpg","37","restless",0.5,0.4,0.5,0.510889183699661,"false"
"image-keyboard-response",576,571625,"0.0-3.188-1.188","bmrr4wsj7s2fs1r",565,"8.csv","","null","resources/maskTrios/L2BB.jpg","null","",NA,NA,NA,NA,""
"image-keyboard-response",577,572828,"0.0-3.188-2.188","bmrr4wsj7s2fs1r",565,"8.csv","","null","resources/images/fishbone.png","null","",NA,NA,NA,NA,""
"image-keyboard-response",578,574028,"0.0-3.189-0.189","bmrr4wsj7s2fs1r",565,"8.csv","","1198","resources/trios/L1T4A1.jpg","38","restless",0.5,0.4,0.5,0.633051338013311,"false"
"image-keyboard-response",579,574431,"0.0-3.189-1.189","bmrr4wsj7s2fs1r",565,"8.csv","","null","resources/maskTrios/BT4B.jpg","null","",NA,NA,NA,NA,""
"image-keyboard-response",580,575633,"0.0-3.189-2.189","bmrr4wsj7s2fs1r",565,"8.csv","","null","resources/images/fishbone.png","null","",NA,NA,NA,NA,""
"image-keyboard-response",581,576381,"0.0-3.190-0.190","bmrr4wsj7s2fs1r",565,"8.csv","","745","resources/trios/L1T4A2.jpg","39","restless",0.5,0.4,0.5,0.643164295009065,"false"
"image-keyboard-response",582,576784,"0.0-3.190-1.190","bmrr4wsj7s2fs1r",565,"8.csv","","null","resources/maskTrios/BBA2.jpg","null","",NA,NA,NA,NA,""
"image-keyboard-response",583,577986,"0.0-3.190-2.190","bmrr4wsj7s2fs1r",565,"8.csv","","null","resources/images/fishbone.png","null","",NA,NA,NA,NA,""
"image-keyboard-response",584,578447,"0.0-3.191-0.191","bmrr4wsj7s2fs1r",565,"8.csv","","457.9999999998836","resources/trios/L2T4A1.jpg","37","restless",0.5,0.3,0.5,0.341449534195563,"true"
"image-keyboard-response",585,578850,"0.0-3.191-1.191","bmrr4wsj7s2fs1r",565,"8.csv","","null","resources/maskTrios/L2BB.jpg","null","",NA,NA,NA,NA,""
"image-keyboard-response",586,580053,"0.0-3.191-2.191","bmrr4wsj7s2fs1r",565,"8.csv","","null","resources/images/coin2.png","null","",NA,NA,NA,NA,""
"image-keyboard-response",587,581149,"0.0-3.192-0.192","bmrr4wsj7s2fs1r",565,"8.csv","","1091","resources/trios/L2T4A1.jpg","38","restless",0.5,0.3,0.5,0.0929488628364659,"true"
"image-keyboard-response",588,581553,"0.0-3.192-1.192","bmrr4wsj7s2fs1r",565,"8.csv","","null","resources/maskTrios/BT4B.jpg","null","",NA,NA,NA,NA,""
"image-keyboard-response",589,582756,"0.0-3.192-2.192","bmrr4wsj7s2fs1r",565,"8.csv","","null","resources/images/coin2.png","null","",NA,NA,NA,NA,""
"image-keyboard-response",590,583822,"0.0-3.193-0.193","bmrr4wsj7s2fs1r",565,"8.csv","","1063","resources/trios/L1T1A1.jpg","37","restless",0.5,0.4,0.5,0.936758091358226,"false"
"image-keyboard-response",591,584226,"0.0-3.193-1.193","bmrr4wsj7s2fs1r",565,"8.csv","","null","resources/maskTrios/L1BB.jpg","null","",NA,NA,NA,NA,""
"image-keyboard-response",592,585429,"0.0-3.193-2.193","bmrr4wsj7s2fs1r",565,"8.csv","","null","resources/images/fishbone.png","null","",NA,NA,NA,NA,""
"image-keyboard-response",593,586517,"0.0-3.194-0.194","bmrr4wsj7s2fs1r",565,"8.csv","","1085","resources/trios/L1T1A2.jpg","39","restless",0.5,0.4,0.5,0.0396015575752352,"true"
"image-keyboard-response",594,586920,"0.0-3.194-1.194","bmrr4wsj7s2fs1r",565,"8.csv","","null","resources/maskTrios/BBA2.jpg","null","",NA,NA,NA,NA,""
"image-keyboard-response",595,588123,"0.0-3.194-2.194","bmrr4wsj7s2fs1r",565,"8.csv","","null","resources/images/coin2.png","null","",NA,NA,NA,NA,""
"image-keyboard-response",596,588762,"0.0-3.195-0.195","bmrr4wsj7s2fs1r",565,"8.csv","","634","resources/trios/L1T1A2.jpg","39","restless",0.5,0.4,0.4,0.288803734032883,"true"
"image-keyboard-response",597,589166,"0.0-3.195-1.195","bmrr4wsj7s2fs1r",565,"8.csv","","null","resources/maskTrios/BBA2.jpg","null","",NA,NA,NA,NA,""
"image-keyboard-response",598,590369,"0.0-3.195-2.195","bmrr4wsj7s2fs1r",565,"8.csv","","null","resources/images/coin2.png","null","",NA,NA,NA,NA,""
"image-keyboard-response",599,591351,"0.0-3.196-0.196","bmrr4wsj7s2fs1r",565,"8.csv","","979","resources/trios/L2T4A1.jpg","38","restless",0.5,0.4,0.4,0.977450874169844,"false"
"image-keyboard-response",600,591754,"0.0-3.196-1.196","bmrr4wsj7s2fs1r",565,"8.csv","","null","resources/maskTrios/BT4B.jpg","null","",NA,NA,NA,NA,""
"image-keyboard-response",601,592957,"0.0-3.196-2.196","bmrr4wsj7s2fs1r",565,"8.csv","","null","resources/images/fishbone.png","null","",NA,NA,NA,NA,""
"image-keyboard-response",602,594605,"0.0-3.197-0.197","bmrr4wsj7s2fs1r",565,"8.csv","","1645","resources/trios/L1T4A1.jpg","39","restless",0.5,0.4,0.4,0.461944628968762,"false"
"image-keyboard-response",603,595009,"0.0-3.197-1.197","bmrr4wsj7s2fs1r",565,"8.csv","","null","resources/maskTrios/BBA1.jpg","null","",NA,NA,NA,NA,""
"image-keyboard-response",604,596212,"0.0-3.197-2.197","bmrr4wsj7s2fs1r",565,"8.csv","","null","resources/images/fishbone.png","null","",NA,NA,NA,NA,""
"image-keyboard-response",605,597323,"0.0-3.198-0.198","bmrr4wsj7s2fs1r",565,"8.csv","","1106","resources/trios/L1T1A2.jpg","37","restless",0.5,0.4,0.4,0.41444666104241,"true"
"image-keyboard-response",606,597726,"0.0-3.198-1.198","bmrr4wsj7s2fs1r",565,"8.csv","","null","resources/maskTrios/L1BB.jpg","null","",NA,NA,NA,NA,""
"image-keyboard-response",607,598929,"0.0-3.198-2.198","bmrr4wsj7s2fs1r",565,"8.csv","","null","resources/images/coin2.png","null","",NA,NA,NA,NA,""
"image-keyboard-response",608,600380,"0.0-3.199-0.199","bmrr4wsj7s2fs1r",565,"8.csv","","1447","resources/trios/L1T4A2.jpg","37","restless",0.6,0.5,0.4,0.254878577742548,"true"
"image-keyboard-response",609,600783,"0.0-3.199-1.199","bmrr4wsj7s2fs1r",565,"8.csv","","null","resources/maskTrios/L1BB.jpg","null","",NA,NA,NA,NA,""
"image-keyboard-response",610,601986,"0.0-3.199-2.199","bmrr4wsj7s2fs1r",565,"8.csv","","null","resources/images/coin2.png","null","",NA,NA,NA,NA,""
"image-keyboard-response",611,602614,"0.0-3.200-0.200","bmrr4wsj7s2fs1r",565,"8.csv","","624.0000000001164","resources/trios/L1T4A2.jpg","37","restless",0.6,0.5,0.4,0.0886246595885741,"true"
"image-keyboard-response",612,603017,"0.0-3.200-1.200","bmrr4wsj7s2fs1r",565,"8.csv","","null","resources/maskTrios/L1BB.jpg","null","",NA,NA,NA,NA,""
"image-keyboard-response",613,604223,"0.0-3.200-2.200","bmrr4wsj7s2fs1r",565,"8.csv","","null","resources/images/coin2.png","null","",NA,NA,NA,NA,""
"image-keyboard-response",614,604802,"0.0-3.201-0.201","bmrr4wsj7s2fs1r",565,"8.csv","","576","resources/trios/L1T4A1.jpg","37","restless",0.6,0.6,0.4,0.72474714650761,"false"
"image-keyboard-response",615,605205,"0.0-3.201-1.201","bmrr4wsj7s2fs1r",565,"8.csv","","null","resources/maskTrios/L1BB.jpg","null","",NA,NA,NA,NA,""
"image-keyboard-response",616,606408,"0.0-3.201-2.201","bmrr4wsj7s2fs1r",565,"8.csv","","null","resources/images/fishbone.png","null","",NA,NA,NA,NA,""
"image-keyboard-response",617,606982,"0.0-3.202-0.202","bmrr4wsj7s2fs1r",565,"8.csv","","572","resources/trios/L1T4A2.jpg","39","restless",0.6,0.6,0.4,0.775898163664813,"false"
"image-keyboard-response",618,607385,"0.0-3.202-1.202","bmrr4wsj7s2fs1r",565,"8.csv","","null","resources/maskTrios/BBA2.jpg","null","",NA,NA,NA,NA,""
"image-keyboard-response",619,608588,"0.0-3.202-2.202","bmrr4wsj7s2fs1r",565,"8.csv","","null","resources/images/fishbone.png","null","",NA,NA,NA,NA,""
"image-keyboard-response",620,609877,"0.0-3.203-0.203","bmrr4wsj7s2fs1r",565,"8.csv","","1286","resources/trios/L2T4A1.jpg","37","restless",0.7,0.6,0.4,0.592126569520735,"true"
"image-keyboard-response",621,610280,"0.0-3.203-1.203","bmrr4wsj7s2fs1r",565,"8.csv","","null","resources/maskTrios/L2BB.jpg","null","",NA,NA,NA,NA,""
"image-keyboard-response",622,611483,"0.0-3.203-2.203","bmrr4wsj7s2fs1r",565,"8.csv","","null","resources/images/coin2.png","null","",NA,NA,NA,NA,""
"image-keyboard-response",623,614858,"0.0-3.204-0.204","bmrr4wsj7s2fs1r",565,"8.csv","","3372","resources/trios/L2T4A2.jpg","37","restless",0.7,0.6,0.4,0.650577497276252,"true"
