"trial_type","trial_index","time_elapsed","internal_node_id","subject","participantCode","walkNumber","success","rt","stimulus","key_press","test_part","leftProb","midProb","rightProb","generatedNum","correct"
"pavlovia",0,1680,"0.0-0.0","arsr9nr3h5q6lsx",241,"83.csv","","","","","",NA,NA,NA,NA,""
"fullscreen",1,6036,"0.0-1.0","arsr9nr3h5q6lsx",241,"83.csv","true","","","","",NA,NA,NA,NA,""
"html-keyboard-response",2,13459,"0.0-2.0-0.0","arsr9nr3h5q6lsx",241,"83.csv","","7421.399999976158","<p><font size='6'>Arrrgh!</p></font><p>Can you be the best pirate? Try to find lots of gold! But beware, some islands have more gold than others, and over time, the island with the most gold may change. Can YOU figure it out? </p><font size='6'>GOOD LUCK, CAPTAIN!!!</font><p>Press any key to begin</p>","32","",NA,NA,NA,NA,""
"image-keyboard-response",3,16467,"0.0-2.0-1.0","arsr9nr3h5q6lsx",241,"83.csv","","null","resources/image_sets/111.png","null","",NA,NA,NA,NA,""
"image-keyboard-response",4,23957,"0.0-2.0-2.0","arsr9nr3h5q6lsx",241,"83.csv","","7488","resources/image_sets/left_highlight.png","37","",NA,NA,NA,NA,""
"image-keyboard-response",5,30717,"0.0-2.0-3.0","arsr9nr3h5q6lsx",241,"83.csv","","6758.399999976158","resources/image_sets/mid_highlight.png","38","",NA,NA,NA,NA,""
"image-keyboard-response",6,32092,"0.0-2.0-4.0","arsr9nr3h5q6lsx",241,"83.csv","","1372.3999999761581","resources/image_sets/right_highlight.png","39","",NA,NA,NA,NA,""
"image-keyboard-response",7,40641,"0.0-2.0-5.0","arsr9nr3h5q6lsx",241,"83.csv","","8548.100000023842","resources/image_sets/111.png","13","",NA,NA,NA,NA,""
"image-keyboard-response",8,42814,"0.0-2.0-6.0","arsr9nr3h5q6lsx",241,"83.csv","","2171.8000000715256","resources/images/coin2.png","13","",NA,NA,NA,NA,""
"image-keyboard-response",9,43863,"0.0-2.0-7.0","arsr9nr3h5q6lsx",241,"83.csv","","1047.2000000476837","resources/images/fishbone.png","13","",NA,NA,NA,NA,""
"html-keyboard-response",10,53462,"0.0-2.0-8.0","arsr9nr3h5q6lsx",241,"83.csv","","9597.899999976158","<p>Your first journey will be a long one, but you will get a well deserved break at the end</p><p>After the break you will have four more journeys, but each will be much shorter than the first, and you will have breaks in between each</p><p>Press Enter to begin</p>","13","",NA,NA,NA,NA,""
"image-keyboard-response",11,56673,"0.0-3.0-0.0","arsr9nr3h5q6lsx",241,"83.csv","","3208.899999976158","resources/trios/L1T4A3.jpg","37","restless",0.9,0.3,0.7,0.856488674647088,"true"
"image-keyboard-response",12,57081,"0.0-3.0-1.0","arsr9nr3h5q6lsx",241,"83.csv","","null","resources/maskTrios/L1BB.jpg","null","",NA,NA,NA,NA,""
"image-keyboard-response",13,58291,"0.0-3.0-2.0","arsr9nr3h5q6lsx",241,"83.csv","","null","resources/images/coin2.png","null","",NA,NA,NA,NA,""
"image-keyboard-response",14,61926,"0.0-3.1-0.1","arsr9nr3h5q6lsx",241,"83.csv","","3632","resources/trios/L1T4A3.jpg","38","restless",0.9,0.2,0.7,0.924054175315045,"false"
"image-keyboard-response",15,62334,"0.0-3.1-1.1","arsr9nr3h5q6lsx",241,"83.csv","","null","resources/maskTrios/BT4B.jpg","null","",NA,NA,NA,NA,""
"image-keyboard-response",16,63540,"0.0-3.1-2.1","arsr9nr3h5q6lsx",241,"83.csv","","null","resources/images/fishbone.png","null","",NA,NA,NA,NA,""
"image-keyboard-response",17,66008,"0.0-3.2-0.2","arsr9nr3h5q6lsx",241,"83.csv","","2465.5","resources/trios/L2T4A3.jpg","37","restless",0.8,0.2,0.7,0.630119180166634,"true"
"image-keyboard-response",18,66415,"0.0-3.2-1.2","arsr9nr3h5q6lsx",241,"83.csv","","null","resources/maskTrios/L2BB.jpg","null","",NA,NA,NA,NA,""
"image-keyboard-response",19,67622,"0.0-3.2-2.2","arsr9nr3h5q6lsx",241,"83.csv","","null","resources/images/coin2.png","null","",NA,NA,NA,NA,""
"image-keyboard-response",20,68657,"0.0-3.3-0.3","arsr9nr3h5q6lsx",241,"83.csv","","1032.1000000238419","resources/trios/L2T4A3.jpg","37","restless",0.8,0.2,0.7,0.237213022783986,"true"
"image-keyboard-response",21,69063,"0.0-3.3-1.3","arsr9nr3h5q6lsx",241,"83.csv","","null","resources/maskTrios/L2BB.jpg","null","",NA,NA,NA,NA,""
"image-keyboard-response",22,70270,"0.0-3.3-2.3","arsr9nr3h5q6lsx",241,"83.csv","","null","resources/images/coin2.png","null","",NA,NA,NA,NA,""
"image-keyboard-response",23,71227,"0.0-3.4-0.4","arsr9nr3h5q6lsx",241,"83.csv","","954.5999999046326","resources/trios/L2T1A3.jpg","37","restless",0.8,0.2,0.7,0.416622108800024,"true"
"image-keyboard-response",24,71635,"0.0-3.4-1.4","arsr9nr3h5q6lsx",241,"83.csv","","null","resources/maskTrios/L2BB.jpg","null","",NA,NA,NA,NA,""
"image-keyboard-response",25,72842,"0.0-3.4-2.4","arsr9nr3h5q6lsx",241,"83.csv","","null","resources/images/coin2.png","null","",NA,NA,NA,NA,""
"image-keyboard-response",26,74810,"0.0-3.5-0.5","arsr9nr3h5q6lsx",241,"83.csv","","1966.7000000476837","resources/trios/L2T1A2.jpg","37","restless",0.8,0.2,0.7,0.575702794777193,"true"
"image-keyboard-response",27,75215,"0.0-3.5-1.5","arsr9nr3h5q6lsx",241,"83.csv","","null","resources/maskTrios/L2BB.jpg","null","",NA,NA,NA,NA,""
"image-keyboard-response",28,76422,"0.0-3.5-2.5","arsr9nr3h5q6lsx",241,"83.csv","","null","resources/images/coin2.png","null","",NA,NA,NA,NA,""
"image-keyboard-response",29,76953,"0.0-3.6-0.6","arsr9nr3h5q6lsx",241,"83.csv","","529.1000000238419","resources/trios/L2T1A3.jpg","37","restless",0.8,0.2,0.7,0.673799743133312,"true"
"image-keyboard-response",30,77360,"0.0-3.6-1.6","arsr9nr3h5q6lsx",241,"83.csv","","null","resources/maskTrios/L2BB.jpg","null","",NA,NA,NA,NA,""
"image-keyboard-response",31,78567,"0.0-3.6-2.6","arsr9nr3h5q6lsx",241,"83.csv","","null","resources/images/coin2.png","null","",NA,NA,NA,NA,""
"image-keyboard-response",32,79013,"0.0-3.7-0.7","arsr9nr3h5q6lsx",241,"83.csv","","443","resources/trios/L2T4A2.jpg","37","restless",0.8,0.2,0.7,0.085344924748936,"true"
"image-keyboard-response",33,79420,"0.0-3.7-1.7","arsr9nr3h5q6lsx",241,"83.csv","","null","resources/maskTrios/L2BB.jpg","null","",NA,NA,NA,NA,""
"image-keyboard-response",34,80627,"0.0-3.7-2.7","arsr9nr3h5q6lsx",241,"83.csv","","null","resources/images/coin2.png","null","",NA,NA,NA,NA,""
"image-keyboard-response",35,81209,"0.0-3.8-0.8","arsr9nr3h5q6lsx",241,"83.csv","","579.2999999523163","resources/trios/L1T1A3.jpg","37","restless",0.8,0.2,0.7,0.395214820177293,"true"
"image-keyboard-response",36,81612,"0.0-3.8-1.8","arsr9nr3h5q6lsx",241,"83.csv","","null","resources/maskTrios/L1BB.jpg","null","",NA,NA,NA,NA,""
"image-keyboard-response",37,82819,"0.0-3.8-2.8","arsr9nr3h5q6lsx",241,"83.csv","","null","resources/images/coin2.png","null","",NA,NA,NA,NA,""
"image-keyboard-response",38,83235,"0.0-3.9-0.9","arsr9nr3h5q6lsx",241,"83.csv","","413.2999999523163","resources/trios/L1T4A3.jpg","37","restless",0.8,0.2,0.7,0.590327732810584,"true"
"image-keyboard-response",39,83642,"0.0-3.9-1.9","arsr9nr3h5q6lsx",241,"83.csv","","null","resources/maskTrios/L1BB.jpg","null","",NA,NA,NA,NA,""
"image-keyboard-response",40,84845,"0.0-3.9-2.9","arsr9nr3h5q6lsx",241,"83.csv","","null","resources/images/coin2.png","null","",NA,NA,NA,NA,""
"image-keyboard-response",41,85198,"0.0-3.10-0.10","arsr9nr3h5q6lsx",241,"83.csv","","350.89999997615814","resources/trios/L2T1A2.jpg","37","restless",0.8,0.2,0.7,0.900848819491655,"false"
"image-keyboard-response",42,85606,"0.0-3.10-1.10","arsr9nr3h5q6lsx",241,"83.csv","","null","resources/maskTrios/L2BB.jpg","null","",NA,NA,NA,NA,""
"image-keyboard-response",43,86813,"0.0-3.10-2.10","arsr9nr3h5q6lsx",241,"83.csv","","null","resources/images/fishbone.png","null","",NA,NA,NA,NA,""
"image-keyboard-response",44,87427,"0.0-3.11-0.11","arsr9nr3h5q6lsx",241,"83.csv","","613.3000000715256","resources/trios/L1T4A2.jpg","37","restless",0.8,0.2,0.7,0.275524795678845,"true"
"image-keyboard-response",45,87834,"0.0-3.11-1.11","arsr9nr3h5q6lsx",241,"83.csv","","null","resources/maskTrios/L1BB.jpg","null","",NA,NA,NA,NA,""
"image-keyboard-response",46,89041,"0.0-3.11-2.11","arsr9nr3h5q6lsx",241,"83.csv","","null","resources/images/coin2.png","null","",NA,NA,NA,NA,""
"image-keyboard-response",47,89818,"0.0-3.12-0.12","arsr9nr3h5q6lsx",241,"83.csv","","774.8999999761581","resources/trios/L1T4A2.jpg","39","restless",0.8,0.2,0.7,0.859804595016249,"false"
"image-keyboard-response",48,90226,"0.0-3.12-1.12","arsr9nr3h5q6lsx",241,"83.csv","","null","resources/maskTrios/BBA2.jpg","null","",NA,NA,NA,NA,""
"image-keyboard-response",49,91433,"0.0-3.12-2.12","arsr9nr3h5q6lsx",241,"83.csv","","null","resources/images/fishbone.png","null","",NA,NA,NA,NA,""
"image-keyboard-response",50,93236,"0.0-3.13-0.13","arsr9nr3h5q6lsx",241,"83.csv","","1800.8999999761581","resources/trios/L2T1A3.jpg","38","restless",0.7,0.2,0.7,0.740502792175733,"false"
"image-keyboard-response",51,93644,"0.0-3.13-1.13","arsr9nr3h5q6lsx",241,"83.csv","","null","resources/maskTrios/BT1B.jpg","null","",NA,NA,NA,NA,""
"image-keyboard-response",52,94847,"0.0-3.13-2.13","arsr9nr3h5q6lsx",241,"83.csv","","null","resources/images/fishbone.png","null","",NA,NA,NA,NA,""
"image-keyboard-response",53,95242,"0.0-3.14-0.14","arsr9nr3h5q6lsx",241,"83.csv","","392.5","resources/trios/L2T4A2.jpg","37","restless",0.7,0.2,0.7,0.658520542187517,"true"
"image-keyboard-response",54,95649,"0.0-3.14-1.14","arsr9nr3h5q6lsx",241,"83.csv","","null","resources/maskTrios/L2BB.jpg","null","",NA,NA,NA,NA,""
"image-keyboard-response",55,96853,"0.0-3.14-2.14","arsr9nr3h5q6lsx",241,"83.csv","","null","resources/images/coin2.png","null","",NA,NA,NA,NA,""
"image-keyboard-response",56,97814,"0.0-3.15-0.15","arsr9nr3h5q6lsx",241,"83.csv","","959.3999999761581","resources/trios/L2T1A2.jpg","37","restless",0.7,0.2,0.7,0.262258658757017,"true"
"image-keyboard-response",57,98221,"0.0-3.15-1.15","arsr9nr3h5q6lsx",241,"83.csv","","null","resources/maskTrios/L2BB.jpg","null","",NA,NA,NA,NA,""
"image-keyboard-response",58,99427,"0.0-3.15-2.15","arsr9nr3h5q6lsx",241,"83.csv","","null","resources/images/coin2.png","null","",NA,NA,NA,NA,""
"image-keyboard-response",59,99769,"0.0-3.16-0.16","arsr9nr3h5q6lsx",241,"83.csv","","339.2999999523163","resources/trios/L1T1A3.jpg","37","restless",0.7,0.2,0.7,0.952505582298119,"false"
"image-keyboard-response",60,100176,"0.0-3.16-1.16","arsr9nr3h5q6lsx",241,"83.csv","","null","resources/maskTrios/L1BB.jpg","null","",NA,NA,NA,NA,""
"image-keyboard-response",61,101383,"0.0-3.16-2.16","arsr9nr3h5q6lsx",241,"83.csv","","null","resources/images/fishbone.png","null","",NA,NA,NA,NA,""
"image-keyboard-response",62,102015,"0.0-3.17-0.17","arsr9nr3h5q6lsx",241,"83.csv","","629.7999999523163","resources/trios/L2T4A2.jpg","39","restless",0.7,0.1,0.7,0.876098715409299,"false"
"image-keyboard-response",63,102422,"0.0-3.17-1.17","arsr9nr3h5q6lsx",241,"83.csv","","null","resources/maskTrios/BBA2.jpg","null","",NA,NA,NA,NA,""
"image-keyboard-response",64,103629,"0.0-3.17-2.17","arsr9nr3h5q6lsx",241,"83.csv","","null","resources/images/fishbone.png","null","",NA,NA,NA,NA,""
"image-keyboard-response",65,104735,"0.0-3.18-0.18","arsr9nr3h5q6lsx",241,"83.csv","","1104.3999999761581","resources/trios/L2T1A3.jpg","38","restless",0.7,0.1,0.7,0.244832995054534,"false"
"image-keyboard-response",66,105139,"0.0-3.18-1.18","arsr9nr3h5q6lsx",241,"83.csv","","null","resources/maskTrios/BT1B.jpg","null","",NA,NA,NA,NA,""
"image-keyboard-response",67,106345,"0.0-3.18-2.18","arsr9nr3h5q6lsx",241,"83.csv","","null","resources/images/fishbone.png","null","",NA,NA,NA,NA,""
"image-keyboard-response",68,108294,"0.0-3.19-0.19","arsr9nr3h5q6lsx",241,"83.csv","","1946.2000000476837","resources/trios/L2T1A2.jpg","37","restless",0.7,0.1,0.7,0.942865519911492,"false"
"image-keyboard-response",69,108700,"0.0-3.19-1.19","arsr9nr3h5q6lsx",241,"83.csv","","null","resources/maskTrios/L2BB.jpg","null","",NA,NA,NA,NA,""
"image-keyboard-response",70,109907,"0.0-3.19-2.19","arsr9nr3h5q6lsx",241,"83.csv","","null","resources/images/fishbone.png","null","",NA,NA,NA,NA,""
"image-keyboard-response",71,110559,"0.0-3.20-0.20","arsr9nr3h5q6lsx",241,"83.csv","","649.3000000715256","resources/trios/L2T1A3.jpg","38","restless",0.7,0.1,0.7,0.722004387004355,"false"
"image-keyboard-response",72,110966,"0.0-3.20-1.20","arsr9nr3h5q6lsx",241,"83.csv","","null","resources/maskTrios/BT1B.jpg","null","",NA,NA,NA,NA,""
"image-keyboard-response",73,112172,"0.0-3.20-2.20","arsr9nr3h5q6lsx",241,"83.csv","","null","resources/images/fishbone.png","null","",NA,NA,NA,NA,""
"image-keyboard-response",74,112681,"0.0-3.21-0.21","arsr9nr3h5q6lsx",241,"83.csv","","506.10000002384186","resources/trios/L2T1A2.jpg","39","restless",0.6,0.1,0.6,0.467427869888672,"true"
"image-keyboard-response",75,113088,"0.0-3.21-1.21","arsr9nr3h5q6lsx",241,"83.csv","","null","resources/maskTrios/BBA2.jpg","null","",NA,NA,NA,NA,""
"image-keyboard-response",76,114293,"0.0-3.21-2.21","arsr9nr3h5q6lsx",241,"83.csv","","null","resources/images/coin2.png","null","",NA,NA,NA,NA,""
"image-keyboard-response",77,114708,"0.0-3.22-0.22","arsr9nr3h5q6lsx",241,"83.csv","","412.7000000476837","resources/trios/L2T4A2.jpg","39","restless",0.6,0.1,0.6,0.941167015260259,"false"
"image-keyboard-response",78,115115,"0.0-3.22-1.22","arsr9nr3h5q6lsx",241,"83.csv","","null","resources/maskTrios/BBA2.jpg","null","",NA,NA,NA,NA,""
"image-keyboard-response",79,116322,"0.0-3.22-2.22","arsr9nr3h5q6lsx",241,"83.csv","","null","resources/images/fishbone.png","null","",NA,NA,NA,NA,""
"image-keyboard-response",80,118211,"0.0-3.23-0.23","arsr9nr3h5q6lsx",241,"83.csv","","1886.2999999523163","resources/trios/L1T4A2.jpg","39","restless",0.6,0.2,0.6,0.794734007454607,"false"
"image-keyboard-response",81,118618,"0.0-3.23-1.23","arsr9nr3h5q6lsx",241,"83.csv","","null","resources/maskTrios/BBA2.jpg","null","",NA,NA,NA,NA,""
"image-keyboard-response",82,119825,"0.0-3.23-2.23","arsr9nr3h5q6lsx",241,"83.csv","","null","resources/images/fishbone.png","null","",NA,NA,NA,NA,""
"image-keyboard-response",83,120242,"0.0-3.24-0.24","arsr9nr3h5q6lsx",241,"83.csv","","414.60000002384186","resources/trios/L2T4A2.jpg","38","restless",0.6,0.2,0.6,0.454151274150973,"false"
"image-keyboard-response",84,120649,"0.0-3.24-1.24","arsr9nr3h5q6lsx",241,"83.csv","","null","resources/maskTrios/BT4B.jpg","null","",NA,NA,NA,NA,""
"image-keyboard-response",85,121856,"0.0-3.24-2.24","arsr9nr3h5q6lsx",241,"83.csv","","null","resources/images/fishbone.png","null","",NA,NA,NA,NA,""
"image-keyboard-response",86,122195,"0.0-3.25-0.25","arsr9nr3h5q6lsx",241,"83.csv","","336.5","resources/trios/L1T4A3.jpg","37","restless",0.6,0.2,0.6,0.862105091044288,"false"
"image-keyboard-response",87,122599,"0.0-3.25-1.25","arsr9nr3h5q6lsx",241,"83.csv","","null","resources/maskTrios/L1BB.jpg","null","",NA,NA,NA,NA,""
"image-keyboard-response",88,123802,"0.0-3.25-2.25","arsr9nr3h5q6lsx",241,"83.csv","","null","resources/images/fishbone.png","null","",NA,NA,NA,NA,""
"image-keyboard-response",89,124221,"0.0-3.26-0.26","arsr9nr3h5q6lsx",241,"83.csv","","416.8000000715256","resources/trios/L1T4A2.jpg","37","restless",0.6,0.2,0.6,0.672069468284439,"false"
"image-keyboard-response",90,124628,"0.0-3.26-1.26","arsr9nr3h5q6lsx",241,"83.csv","","null","resources/maskTrios/L1BB.jpg","null","",NA,NA,NA,NA,""
"image-keyboard-response",91,125835,"0.0-3.26-2.26","arsr9nr3h5q6lsx",241,"83.csv","","null","resources/images/fishbone.png","null","",NA,NA,NA,NA,""
"image-keyboard-response",92,126206,"0.0-3.27-0.27","arsr9nr3h5q6lsx",241,"83.csv","","369.2000000476837","resources/trios/L1T1A3.jpg","37","restless",0.7,0.2,0.6,0.441182803028808,"true"
"image-keyboard-response",93,126613,"0.0-3.27-1.27","arsr9nr3h5q6lsx",241,"83.csv","","null","resources/maskTrios/L1BB.jpg","null","",NA,NA,NA,NA,""
"image-keyboard-response",94,127820,"0.0-3.27-2.27","arsr9nr3h5q6lsx",241,"83.csv","","null","resources/images/coin2.png","null","",NA,NA,NA,NA,""
"image-keyboard-response",95,128280,"0.0-3.28-0.28","arsr9nr3h5q6lsx",241,"83.csv","","457.6999999284744","resources/trios/L1T1A2.jpg","37","restless",0.7,0.2,0.6,6.68899007212342e-05,"true"
"image-keyboard-response",96,128683,"0.0-3.28-1.28","arsr9nr3h5q6lsx",241,"83.csv","","null","resources/maskTrios/L1BB.jpg","null","",NA,NA,NA,NA,""
"image-keyboard-response",97,129890,"0.0-3.28-2.28","arsr9nr3h5q6lsx",241,"83.csv","","null","resources/images/coin2.png","null","",NA,NA,NA,NA,""
"image-keyboard-response",98,130246,"0.0-3.29-0.29","arsr9nr3h5q6lsx",241,"83.csv","","353.10000002384186","resources/trios/L2T4A2.jpg","37","restless",0.7,0.2,0.6,0.487105583486637,"true"
"image-keyboard-response",99,130654,"0.0-3.29-1.29","arsr9nr3h5q6lsx",241,"83.csv","","null","resources/maskTrios/L2BB.jpg","null","",NA,NA,NA,NA,""
"image-keyboard-response",100,131861,"0.0-3.29-2.29","arsr9nr3h5q6lsx",241,"83.csv","","null","resources/images/coin2.png","null","",NA,NA,NA,NA,""
"image-keyboard-response",101,132427,"0.0-3.30-0.30","arsr9nr3h5q6lsx",241,"83.csv","","563.6999999284744","resources/trios/L2T1A2.jpg","37","restless",0.7,0.2,0.6,0.643529794602235,"true"
"image-keyboard-response",102,132831,"0.0-3.30-1.30","arsr9nr3h5q6lsx",241,"83.csv","","null","resources/maskTrios/L2BB.jpg","null","",NA,NA,NA,NA,""
"image-keyboard-response",103,134038,"0.0-3.30-2.30","arsr9nr3h5q6lsx",241,"83.csv","","null","resources/images/coin2.png","null","",NA,NA,NA,NA,""
"image-keyboard-response",104,134206,"0.0-3.31-0.31","arsr9nr3h5q6lsx",241,"83.csv","","165.60000002384186","resources/trios/L2T1A3.jpg","37","restless",0.7,0.2,0.5,0.522271865362605,"true"
"image-keyboard-response",105,134609,"0.0-3.31-1.31","arsr9nr3h5q6lsx",241,"83.csv","","null","resources/maskTrios/L2BB.jpg","null","",NA,NA,NA,NA,""
"image-keyboard-response",106,135816,"0.0-3.31-2.31","arsr9nr3h5q6lsx",241,"83.csv","","null","resources/images/coin2.png","null","",NA,NA,NA,NA,""
"image-keyboard-response",107,136181,"0.0-3.32-0.32","arsr9nr3h5q6lsx",241,"83.csv","","362.89999997615814","resources/trios/L1T1A3.jpg","37","restless",0.6,0.1,0.5,0.455958083989047,"true"
"image-keyboard-response",108,136587,"0.0-3.32-1.32","arsr9nr3h5q6lsx",241,"83.csv","","null","resources/maskTrios/L1BB.jpg","null","",NA,NA,NA,NA,""
"image-keyboard-response",109,137793,"0.0-3.32-2.32","arsr9nr3h5q6lsx",241,"83.csv","","null","resources/images/coin2.png","null","",NA,NA,NA,NA,""
"image-keyboard-response",110,138098,"0.0-3.33-0.33","arsr9nr3h5q6lsx",241,"83.csv","","302.89999997615814","resources/trios/L1T4A2.jpg","37","restless",0.6,0.1,0.5,0.418430226117696,"true"
"image-keyboard-response",111,138505,"0.0-3.33-1.33","arsr9nr3h5q6lsx",241,"83.csv","","null","resources/maskTrios/L1BB.jpg","null","",NA,NA,NA,NA,""
"image-keyboard-response",112,139709,"0.0-3.33-2.33","arsr9nr3h5q6lsx",241,"83.csv","","null","resources/images/coin2.png","null","",NA,NA,NA,NA,""
"image-keyboard-response",113,139841,"0.0-3.34-0.34","arsr9nr3h5q6lsx",241,"83.csv","","130.39999997615814","resources/trios/L2T1A3.jpg","37","restless",0.6,0.2,0.5,0.693308723940703,"false"
"image-keyboard-response",114,140248,"0.0-3.34-1.34","arsr9nr3h5q6lsx",241,"83.csv","","null","resources/maskTrios/L2BB.jpg","null","",NA,NA,NA,NA,""
"image-keyboard-response",115,141452,"0.0-3.34-2.34","arsr9nr3h5q6lsx",241,"83.csv","","null","resources/images/fishbone.png","null","",NA,NA,NA,NA,""
"image-keyboard-response",116,142123,"0.0-3.35-0.35","arsr9nr3h5q6lsx",241,"83.csv","","668.6000000238419","resources/trios/L2T4A2.jpg","37","restless",0.6,0.2,0.5,0.246284144099082,"true"
"image-keyboard-response",117,142525,"0.0-3.35-1.35","arsr9nr3h5q6lsx",241,"83.csv","","null","resources/maskTrios/L2BB.jpg","null","",NA,NA,NA,NA,""
"image-keyboard-response",118,143728,"0.0-3.35-2.35","arsr9nr3h5q6lsx",241,"83.csv","","null","resources/images/coin2.png","null","",NA,NA,NA,NA,""
"image-keyboard-response",119,144274,"0.0-3.36-0.36","arsr9nr3h5q6lsx",241,"83.csv","","544.5","resources/trios/L1T4A2.jpg","37","restless",0.6,0.2,0.5,0.546219178938831,"true"
"image-keyboard-response",120,144678,"0.0-3.36-1.36","arsr9nr3h5q6lsx",241,"83.csv","","null","resources/maskTrios/L1BB.jpg","null","",NA,NA,NA,NA,""
"image-keyboard-response",121,145886,"0.0-3.36-2.36","arsr9nr3h5q6lsx",241,"83.csv","","null","resources/images/coin2.png","null","",NA,NA,NA,NA,""
"image-keyboard-response",122,146020,"0.0-3.37-0.37","arsr9nr3h5q6lsx",241,"83.csv","","132.60000002384186","resources/trios/L2T1A2.jpg","37","restless",0.6,0.3,0.5,0.457920198419531,"true"
"image-keyboard-response",123,146428,"0.0-3.37-1.37","arsr9nr3h5q6lsx",241,"83.csv","","null","resources/maskTrios/L2BB.jpg","null","",NA,NA,NA,NA,""
"image-keyboard-response",124,147635,"0.0-3.37-2.37","arsr9nr3h5q6lsx",241,"83.csv","","null","resources/images/coin2.png","null","",NA,NA,NA,NA,""
"image-keyboard-response",125,147702,"0.0-3.38-0.38","arsr9nr3h5q6lsx",241,"83.csv","","64.70000004768372","resources/trios/L2T4A2.jpg","37","restless",0.6,0.3,0.4,0.149958487939066,"true"
"image-keyboard-response",126,148106,"0.0-3.38-1.38","arsr9nr3h5q6lsx",241,"83.csv","","null","resources/maskTrios/L2BB.jpg","null","",NA,NA,NA,NA,""
"image-keyboard-response",127,149308,"0.0-3.38-2.38","arsr9nr3h5q6lsx",241,"83.csv","","null","resources/images/coin2.png","null","",NA,NA,NA,NA,""
"image-keyboard-response",128,149351,"0.0-3.39-0.39","arsr9nr3h5q6lsx",241,"83.csv","","40.89999997615814","resources/trios/L1T4A3.jpg","37","restless",0.6,0.4,0.4,0.891568517747906,"false"
"image-keyboard-response",129,149759,"0.0-3.39-1.39","arsr9nr3h5q6lsx",241,"83.csv","","null","resources/maskTrios/L1BB.jpg","null","",NA,NA,NA,NA,""
"image-keyboard-response",130,150961,"0.0-3.39-2.39","arsr9nr3h5q6lsx",241,"83.csv","","null","resources/images/fishbone.png","null","",NA,NA,NA,NA,""
"image-keyboard-response",131,151071,"0.0-3.40-0.40","arsr9nr3h5q6lsx",241,"83.csv","","107.80000007152557","resources/trios/L2T1A2.jpg","37","restless",0.6,0.4,0.3,0.341271442985964,"true"
"image-keyboard-response",132,151474,"0.0-3.40-1.40","arsr9nr3h5q6lsx",241,"83.csv","","null","resources/maskTrios/L2BB.jpg","null","",NA,NA,NA,NA,""
"image-keyboard-response",133,152681,"0.0-3.40-2.40","arsr9nr3h5q6lsx",241,"83.csv","","null","resources/images/coin2.png","null","",NA,NA,NA,NA,""
"image-keyboard-response",134,152716,"0.0-3.41-0.41","arsr9nr3h5q6lsx",241,"83.csv","","33","resources/trios/L1T4A2.jpg","37","restless",0.6,0.4,0.3,0.532863969154834,"true"
"image-keyboard-response",135,153118,"0.0-3.41-1.41","arsr9nr3h5q6lsx",241,"83.csv","","null","resources/maskTrios/L1BB.jpg","null","",NA,NA,NA,NA,""
"image-keyboard-response",136,154325,"0.0-3.41-2.41","arsr9nr3h5q6lsx",241,"83.csv","","null","resources/images/coin2.png","null","",NA,NA,NA,NA,""
"image-keyboard-response",137,154436,"0.0-3.42-0.42","arsr9nr3h5q6lsx",241,"83.csv","","107.90000009536743","resources/trios/L1T4A3.jpg","37","restless",0.5,0.4,0.3,0.334098316777257,"true"
"image-keyboard-response",138,154843,"0.0-3.42-1.42","arsr9nr3h5q6lsx",241,"83.csv","","null","resources/maskTrios/L1BB.jpg","null","",NA,NA,NA,NA,""
"image-keyboard-response",139,156050,"0.0-3.42-2.42","arsr9nr3h5q6lsx",241,"83.csv","","null","resources/images/coin2.png","null","",NA,NA,NA,NA,""
"image-keyboard-response",140,156074,"0.0-3.43-0.43","arsr9nr3h5q6lsx",241,"83.csv","","22.100000023841858","resources/trios/L2T4A3.jpg","37","restless",0.5,0.4,0.3,0.333461829932902,"true"
"image-keyboard-response",141,156480,"0.0-3.43-1.43","arsr9nr3h5q6lsx",241,"83.csv","","null","resources/maskTrios/L2BB.jpg","null","",NA,NA,NA,NA,""
"image-keyboard-response",142,157683,"0.0-3.43-2.43","arsr9nr3h5q6lsx",241,"83.csv","","null","resources/images/coin2.png","null","",NA,NA,NA,NA,""
"image-keyboard-response",143,158290,"0.0-3.44-0.44","arsr9nr3h5q6lsx",241,"83.csv","","603.8999999761581","resources/trios/L1T1A3.jpg","37","restless",0.5,0.4,0.3,0.00462521595771159,"true"
"image-keyboard-response",144,158697,"0.0-3.44-1.44","arsr9nr3h5q6lsx",241,"83.csv","","null","resources/maskTrios/L1BB.jpg","null","",NA,NA,NA,NA,""
"image-keyboard-response",145,159904,"0.0-3.44-2.44","arsr9nr3h5q6lsx",241,"83.csv","","null","resources/images/coin2.png","null","",NA,NA,NA,NA,""
"image-keyboard-response",146,160195,"0.0-3.45-0.45","arsr9nr3h5q6lsx",241,"83.csv","","289.09999990463257","resources/trios/L1T4A3.jpg","37","restless",0.5,0.4,0.3,0.630181510193931,"false"
"image-keyboard-response",147,160602,"0.0-3.45-1.45","arsr9nr3h5q6lsx",241,"83.csv","","null","resources/maskTrios/L1BB.jpg","null","",NA,NA,NA,NA,""
"image-keyboard-response",148,161807,"0.0-3.45-2.45","arsr9nr3h5q6lsx",241,"83.csv","","null","resources/images/fishbone.png","null","",NA,NA,NA,NA,""
"image-keyboard-response",149,161952,"0.0-3.46-0.46","arsr9nr3h5q6lsx",241,"83.csv","","142.89999997615814","resources/trios/L1T4A2.jpg","37","restless",0.5,0.4,0.3,0.415657631587193,"true"
"image-keyboard-response",150,162360,"0.0-3.46-1.46","arsr9nr3h5q6lsx",241,"83.csv","","null","resources/maskTrios/L1BB.jpg","null","",NA,NA,NA,NA,""
"image-keyboard-response",151,163567,"0.0-3.46-2.46","arsr9nr3h5q6lsx",241,"83.csv","","null","resources/images/coin2.png","null","",NA,NA,NA,NA,""
"image-keyboard-response",152,163594,"0.0-3.47-0.47","arsr9nr3h5q6lsx",241,"83.csv","","26.100000023841858","resources/trios/L2T4A3.jpg","37","restless",0.5,0.4,0.4,0.796768331859142,"false"
"image-keyboard-response",153,164000,"0.0-3.47-1.47","arsr9nr3h5q6lsx",241,"83.csv","","null","resources/maskTrios/L2BB.jpg","null","",NA,NA,NA,NA,""
"image-keyboard-response",154,165207,"0.0-3.47-2.47","arsr9nr3h5q6lsx",241,"83.csv","","null","resources/images/fishbone.png","null","",NA,NA,NA,NA,""
"image-keyboard-response",155,165505,"0.0-3.48-0.48","arsr9nr3h5q6lsx",241,"83.csv","","295.89999997615814","resources/trios/L1T1A2.jpg","37","restless",0.5,0.4,0.4,0.757635998561207,"false"
"image-keyboard-response",156,165910,"0.0-3.48-1.48","arsr9nr3h5q6lsx",241,"83.csv","","null","resources/maskTrios/L1BB.jpg","null","",NA,NA,NA,NA,""
"image-keyboard-response",157,167112,"0.0-3.48-2.48","arsr9nr3h5q6lsx",241,"83.csv","","null","resources/images/fishbone.png","null","",NA,NA,NA,NA,""
"image-keyboard-response",158,167480,"0.0-3.49-0.49","arsr9nr3h5q6lsx",241,"83.csv","","365.10000002384186","resources/trios/L2T4A3.jpg","39","restless",0.5,0.4,0.4,0.354958309143993,"true"
"image-keyboard-response",159,167887,"0.0-3.49-1.49","arsr9nr3h5q6lsx",241,"83.csv","","null","resources/maskTrios/BBA3.jpg","null","",NA,NA,NA,NA,""
"image-keyboard-response",160,169094,"0.0-3.49-2.49","arsr9nr3h5q6lsx",241,"83.csv","","null","resources/images/coin2.png","null","",NA,NA,NA,NA,""
"image-keyboard-response",161,169194,"0.0-3.50-0.50","arsr9nr3h5q6lsx",241,"83.csv","","97.69999992847443","resources/trios/L1T4A2.jpg","39","restless",0.5,0.4,0.4,0.713187786760643,"false"
"image-keyboard-response",162,169601,"0.0-3.50-1.50","arsr9nr3h5q6lsx",241,"83.csv","","null","resources/maskTrios/BBA2.jpg","null","",NA,NA,NA,NA,""
"image-keyboard-response",163,170807,"0.0-3.50-2.50","arsr9nr3h5q6lsx",241,"83.csv","","null","resources/images/fishbone.png","null","",NA,NA,NA,NA,""
"image-keyboard-response",164,170895,"0.0-3.51-0.51","arsr9nr3h5q6lsx",241,"83.csv","","85.79999995231628","resources/trios/L2T1A3.jpg","39","restless",0.5,0.4,0.4,0.574340689115803,"false"
"image-keyboard-response",165,171302,"0.0-3.51-1.51","arsr9nr3h5q6lsx",241,"83.csv","","null","resources/maskTrios/BBA3.jpg","null","",NA,NA,NA,NA,""
"image-keyboard-response",166,172505,"0.0-3.51-2.51","arsr9nr3h5q6lsx",241,"83.csv","","null","resources/images/fishbone.png","null","",NA,NA,NA,NA,""
"image-keyboard-response",167,172723,"0.0-3.52-0.52","arsr9nr3h5q6lsx",241,"83.csv","","216.20000004768372","resources/trios/L1T1A2.jpg","37","restless",0.5,0.4,0.4,0.9375172879319,"false"
"image-keyboard-response",168,173130,"0.0-3.52-1.52","arsr9nr3h5q6lsx",241,"83.csv","","null","resources/maskTrios/L1BB.jpg","null","",NA,NA,NA,NA,""
"image-keyboard-response",169,174337,"0.0-3.52-2.52","arsr9nr3h5q6lsx",241,"83.csv","","null","resources/images/fishbone.png","null","",NA,NA,NA,NA,""
"image-keyboard-response",170,174816,"0.0-3.53-0.53","arsr9nr3h5q6lsx",241,"83.csv","","477.2999999523163","resources/trios/L2T1A3.jpg","38","restless",0.5,0.4,0.4,0.00162901696698259,"true"
"image-keyboard-response",171,175224,"0.0-3.53-1.53","arsr9nr3h5q6lsx",241,"83.csv","","null","resources/maskTrios/BT1B.jpg","null","",NA,NA,NA,NA,""
"image-keyboard-response",172,176426,"0.0-3.53-2.53","arsr9nr3h5q6lsx",241,"83.csv","","null","resources/images/coin2.png","null","",NA,NA,NA,NA,""
"image-keyboard-response",173,176636,"0.0-3.54-0.54","arsr9nr3h5q6lsx",241,"83.csv","","207","resources/trios/L2T1A3.jpg","37","restless",0.5,0.4,0.4,0.364841888932109,"true"
"image-keyboard-response",174,177041,"0.0-3.54-1.54","arsr9nr3h5q6lsx",241,"83.csv","","null","resources/maskTrios/L2BB.jpg","null","",NA,NA,NA,NA,""
"image-keyboard-response",175,178244,"0.0-3.54-2.54","arsr9nr3h5q6lsx",241,"83.csv","","null","resources/images/coin2.png","null","",NA,NA,NA,NA,""
"image-keyboard-response",176,178557,"0.0-3.55-0.55","arsr9nr3h5q6lsx",241,"83.csv","","310.60000002384186","resources/trios/L2T4A3.jpg","38","restless",0.4,0.4,0.4,0.52395860058013,"false"
"image-keyboard-response",177,178962,"0.0-3.55-1.55","arsr9nr3h5q6lsx",241,"83.csv","","null","resources/maskTrios/BT4B.jpg","null","",NA,NA,NA,NA,""
"image-keyboard-response",178,180169,"0.0-3.55-2.55","arsr9nr3h5q6lsx",241,"83.csv","","null","resources/images/fishbone.png","null","",NA,NA,NA,NA,""
"image-keyboard-response",179,180499,"0.0-3.56-0.56","arsr9nr3h5q6lsx",241,"83.csv","","327.10000002384186","resources/trios/L2T4A2.jpg","37","restless",0.4,0.4,0.5,0.593726485417563,"false"
"image-keyboard-response",180,180906,"0.0-3.56-1.56","arsr9nr3h5q6lsx",241,"83.csv","","null","resources/maskTrios/L2BB.jpg","null","",NA,NA,NA,NA,""
"image-keyboard-response",181,182109,"0.0-3.56-2.56","arsr9nr3h5q6lsx",241,"83.csv","","null","resources/images/fishbone.png","null","",NA,NA,NA,NA,""
"image-keyboard-response",182,182396,"0.0-3.57-0.57","arsr9nr3h5q6lsx",241,"83.csv","","284.2999999523163","resources/trios/L1T1A3.jpg","39","restless",0.4,0.4,0.5,0.267713971798348,"true"
"image-keyboard-response",183,182803,"0.0-3.57-1.57","arsr9nr3h5q6lsx",241,"83.csv","","null","resources/maskTrios/BBA3.jpg","null","",NA,NA,NA,NA,""
"image-keyboard-response",184,184006,"0.0-3.57-2.57","arsr9nr3h5q6lsx",241,"83.csv","","null","resources/images/coin2.png","null","",NA,NA,NA,NA,""
"image-keyboard-response",185,184361,"0.0-3.58-0.58","arsr9nr3h5q6lsx",241,"83.csv","","351.39999997615814","resources/trios/L1T4A3.jpg","38","restless",0.4,0.4,0.5,0.460012573342768,"false"
"image-keyboard-response",186,184765,"0.0-3.58-1.58","arsr9nr3h5q6lsx",241,"83.csv","","null","resources/maskTrios/BT4B.jpg","null","",NA,NA,NA,NA,""
"image-keyboard-response",187,185972,"0.0-3.58-2.58","arsr9nr3h5q6lsx",241,"83.csv","","null","resources/images/fishbone.png","null","",NA,NA,NA,NA,""
"image-keyboard-response",188,186301,"0.0-3.59-0.59","arsr9nr3h5q6lsx",241,"83.csv","","327","resources/trios/L1T4A3.jpg","39","restless",0.4,0.4,0.5,0.378186710656765,"true"
"image-keyboard-response",189,186706,"0.0-3.59-1.59","arsr9nr3h5q6lsx",241,"83.csv","","null","resources/maskTrios/BBA3.jpg","null","",NA,NA,NA,NA,""
"image-keyboard-response",190,187911,"0.0-3.59-2.59","arsr9nr3h5q6lsx",241,"83.csv","","null","resources/images/coin2.png","null","",NA,NA,NA,NA,""
"image-keyboard-response",191,189901,"0.0-3.60-0.60","arsr9nr3h5q6lsx",241,"83.csv","","1988.5999999046326","resources/trios/L2T1A3.jpg","38","restless",0.4,0.4,0.5,0.381769392877205,"true"
"image-keyboard-response",192,190309,"0.0-3.60-1.60","arsr9nr3h5q6lsx",241,"83.csv","","null","resources/maskTrios/BT1B.jpg","null","",NA,NA,NA,NA,""
"image-keyboard-response",193,191516,"0.0-3.60-2.60","arsr9nr3h5q6lsx",241,"83.csv","","null","resources/images/coin2.png","null","",NA,NA,NA,NA,""
"image-keyboard-response",194,191861,"0.0-3.61-0.61","arsr9nr3h5q6lsx",241,"83.csv","","342.39999997615814","resources/trios/L1T1A2.jpg","39","restless",0.3,0.4,0.5,0.158110633737594,"true"
"image-keyboard-response",195,192268,"0.0-3.61-1.61","arsr9nr3h5q6lsx",241,"83.csv","","null","resources/maskTrios/BBA2.jpg","null","",NA,NA,NA,NA,""
"image-keyboard-response",196,193473,"0.0-3.61-2.61","arsr9nr3h5q6lsx",241,"83.csv","","null","resources/images/coin2.png","null","",NA,NA,NA,NA,""
"image-keyboard-response",197,193956,"0.0-3.62-0.62","arsr9nr3h5q6lsx",241,"83.csv","","481.1999999284744","resources/trios/L2T4A2.jpg","37","restless",0.3,0.4,0.5,0.641062166047067,"false"
"image-keyboard-response",198,194362,"0.0-3.62-1.62","arsr9nr3h5q6lsx",241,"83.csv","","null","resources/maskTrios/L2BB.jpg","null","",NA,NA,NA,NA,""
"image-keyboard-response",199,195565,"0.0-3.62-2.62","arsr9nr3h5q6lsx",241,"83.csv","","null","resources/images/fishbone.png","null","",NA,NA,NA,NA,""
"image-keyboard-response",200,195853,"0.0-3.63-0.63","arsr9nr3h5q6lsx",241,"83.csv","","285.10000002384186","resources/trios/L2T1A2.jpg","39","restless",0.2,0.4,0.5,0.944560607103462,"false"
"image-keyboard-response",201,196259,"0.0-3.63-1.63","arsr9nr3h5q6lsx",241,"83.csv","","null","resources/maskTrios/BBA2.jpg","null","",NA,NA,NA,NA,""
"image-keyboard-response",202,197466,"0.0-3.63-2.63","arsr9nr3h5q6lsx",241,"83.csv","","null","resources/images/fishbone.png","null","",NA,NA,NA,NA,""
"image-keyboard-response",203,197779,"0.0-3.64-0.64","arsr9nr3h5q6lsx",241,"83.csv","","310.8000000715256","resources/trios/L1T4A3.jpg","38","restless",0.3,0.4,0.5,0.891234284693233,"false"
"image-keyboard-response",204,198186,"0.0-3.64-1.64","arsr9nr3h5q6lsx",241,"83.csv","","null","resources/maskTrios/BT4B.jpg","null","",NA,NA,NA,NA,""
"image-keyboard-response",205,199390,"0.0-3.64-2.64","arsr9nr3h5q6lsx",241,"83.csv","","null","resources/images/fishbone.png","null","",NA,NA,NA,NA,""
"image-keyboard-response",206,199542,"0.0-3.65-0.65","arsr9nr3h5q6lsx",241,"83.csv","","149.29999995231628","resources/trios/L2T4A3.jpg","37","restless",0.3,0.4,0.5,0.622979281742735,"false"
"image-keyboard-response",207,199946,"0.0-3.65-1.65","arsr9nr3h5q6lsx",241,"83.csv","","null","resources/maskTrios/L2BB.jpg","null","",NA,NA,NA,NA,""
"image-keyboard-response",208,201153,"0.0-3.65-2.65","arsr9nr3h5q6lsx",241,"83.csv","","null","resources/images/fishbone.png","null","",NA,NA,NA,NA,""
"image-keyboard-response",209,201204,"0.0-3.66-0.66","arsr9nr3h5q6lsx",241,"83.csv","","48.700000047683716","resources/trios/L2T4A2.jpg","39","restless",0.3,0.5,0.5,0.526967849161175,"false"
"image-keyboard-response",210,201608,"0.0-3.66-1.66","arsr9nr3h5q6lsx",241,"83.csv","","null","resources/maskTrios/BBA2.jpg","null","",NA,NA,NA,NA,""
"image-keyboard-response",211,202815,"0.0-3.66-2.66","arsr9nr3h5q6lsx",241,"83.csv","","null","resources/images/fishbone.png","null","",NA,NA,NA,NA,""
"image-keyboard-response",212,202988,"0.0-3.67-0.67","arsr9nr3h5q6lsx",241,"83.csv","","171.30000007152557","resources/trios/L1T4A2.jpg","37","restless",0.3,0.6,0.5,0.233040996611303,"true"
"image-keyboard-response",213,203393,"0.0-3.67-1.67","arsr9nr3h5q6lsx",241,"83.csv","","null","resources/maskTrios/L1BB.jpg","null","",NA,NA,NA,NA,""
"image-keyboard-response",214,204599,"0.0-3.67-2.67","arsr9nr3h5q6lsx",241,"83.csv","","null","resources/images/coin2.png","null","",NA,NA,NA,NA,""
"image-keyboard-response",215,204687,"0.0-3.68-0.68","arsr9nr3h5q6lsx",241,"83.csv","","85.20000004768372","resources/trios/L2T4A2.jpg","37","restless",0.2,0.6,0.5,0.287530161268996,"false"
"image-keyboard-response",216,205094,"0.0-3.68-1.68","arsr9nr3h5q6lsx",241,"83.csv","","null","resources/maskTrios/L2BB.jpg","null","",NA,NA,NA,NA,""
"image-keyboard-response",217,206301,"0.0-3.68-2.68","arsr9nr3h5q6lsx",241,"83.csv","","null","resources/images/fishbone.png","null","",NA,NA,NA,NA,""
"image-keyboard-response",218,206479,"0.0-3.69-0.69","arsr9nr3h5q6lsx",241,"83.csv","","175.70000004768372","resources/trios/L2T4A2.jpg","37","restless",0.1,0.6,0.6,0.609165245126529,"false"
"image-keyboard-response",219,206881,"0.0-3.69-1.69","arsr9nr3h5q6lsx",241,"83.csv","","null","resources/maskTrios/L2BB.jpg","null","",NA,NA,NA,NA,""
"image-keyboard-response",220,208088,"0.0-3.69-2.69","arsr9nr3h5q6lsx",241,"83.csv","","null","resources/images/fishbone.png","null","",NA,NA,NA,NA,""
"image-keyboard-response",221,208332,"0.0-3.70-0.70","arsr9nr3h5q6lsx",241,"83.csv","","241.39999997615814","resources/trios/L2T1A3.jpg","39","restless",0.1,0.5,0.6,0.172335564977531,"true"
"image-keyboard-response",222,208739,"0.0-3.70-1.70","arsr9nr3h5q6lsx",241,"83.csv","","null","resources/maskTrios/BBA3.jpg","null","",NA,NA,NA,NA,""
"image-keyboard-response",223,209945,"0.0-3.70-2.70","arsr9nr3h5q6lsx",241,"83.csv","","null","resources/images/coin2.png","null","",NA,NA,NA,NA,""
"image-keyboard-response",224,210131,"0.0-3.71-0.71","arsr9nr3h5q6lsx",241,"83.csv","","183.79999995231628","resources/trios/L2T1A3.jpg","39","restless",0.1,0.5,0.6,0.726476113537827,"false"
"image-keyboard-response",225,210534,"0.0-3.71-1.71","arsr9nr3h5q6lsx",241,"83.csv","","null","resources/maskTrios/BBA3.jpg","null","",NA,NA,NA,NA,""
"image-keyboard-response",226,211739,"0.0-3.71-2.71","arsr9nr3h5q6lsx",241,"83.csv","","null","resources/images/fishbone.png","null","",NA,NA,NA,NA,""
"image-keyboard-response",227,212005,"0.0-3.72-0.72","arsr9nr3h5q6lsx",241,"83.csv","","263.5","resources/trios/L1T4A2.jpg","39","restless",0.1,0.5,0.6,0.159246409700227,"true"
"image-keyboard-response",228,212411,"0.0-3.72-1.72","arsr9nr3h5q6lsx",241,"83.csv","","null","resources/maskTrios/BBA2.jpg","null","",NA,NA,NA,NA,""
"image-keyboard-response",229,213617,"0.0-3.72-2.72","arsr9nr3h5q6lsx",241,"83.csv","","null","resources/images/coin2.png","null","",NA,NA,NA,NA,""
"image-keyboard-response",230,213640,"0.0-3.73-0.73","arsr9nr3h5q6lsx",241,"83.csv","","20.100000023841858","resources/trios/L1T4A2.jpg","39","restless",0.1,0.5,0.6,0.364853777330861,"true"
"image-keyboard-response",231,214043,"0.0-3.73-1.73","arsr9nr3h5q6lsx",241,"83.csv","","null","resources/maskTrios/BBA2.jpg","null","",NA,NA,NA,NA,""
"image-keyboard-response",232,215250,"0.0-3.73-2.73","arsr9nr3h5q6lsx",241,"83.csv","","null","resources/images/coin2.png","null","",NA,NA,NA,NA,""
"image-keyboard-response",233,215434,"0.0-3.74-0.74","arsr9nr3h5q6lsx",241,"83.csv","","181.89999997615814","resources/trios/L2T1A2.jpg","39","restless",0.1,0.5,0.6,0.618387004218996,"false"
"image-keyboard-response",234,215840,"0.0-3.74-1.74","arsr9nr3h5q6lsx",241,"83.csv","","null","resources/maskTrios/BBA2.jpg","null","",NA,NA,NA,NA,""
"image-keyboard-response",235,217044,"0.0-3.74-2.74","arsr9nr3h5q6lsx",241,"83.csv","","null","resources/images/fishbone.png","null","",NA,NA,NA,NA,""
"image-keyboard-response",236,217347,"0.0-3.75-0.75","arsr9nr3h5q6lsx",241,"83.csv","","301.1999999284744","resources/trios/L2T4A2.jpg","39","restless",0.1,0.5,0.6,0.072413461560064,"true"
"image-keyboard-response",237,217753,"0.0-3.75-1.75","arsr9nr3h5q6lsx",241,"83.csv","","null","resources/maskTrios/BBA2.jpg","null","",NA,NA,NA,NA,""
"image-keyboard-response",238,218957,"0.0-3.75-2.75","arsr9nr3h5q6lsx",241,"83.csv","","null","resources/images/coin2.png","null","",NA,NA,NA,NA,""
"image-keyboard-response",239,219075,"0.0-3.76-0.76","arsr9nr3h5q6lsx",241,"83.csv","","115.39999997615814","resources/trios/L1T4A3.jpg","39","restless",0.1,0.5,0.6,0.97465918964035,"false"
"image-keyboard-response",240,219478,"0.0-3.76-1.76","arsr9nr3h5q6lsx",241,"83.csv","","null","resources/maskTrios/BBA3.jpg","null","",NA,NA,NA,NA,""
"image-keyboard-response",241,220685,"0.0-3.76-2.76","arsr9nr3h5q6lsx",241,"83.csv","","null","resources/images/fishbone.png","null","",NA,NA,NA,NA,""
"image-keyboard-response",242,220819,"0.0-3.77-0.77","arsr9nr3h5q6lsx",241,"83.csv","","132.09999990463257","resources/trios/L2T1A2.jpg","39","restless",0.1,0.5,0.6,0.3077754195227,"true"
"image-keyboard-response",243,221222,"0.0-3.77-1.77","arsr9nr3h5q6lsx",241,"83.csv","","null","resources/maskTrios/BBA2.jpg","null","",NA,NA,NA,NA,""
"image-keyboard-response",244,222429,"0.0-3.77-2.77","arsr9nr3h5q6lsx",241,"83.csv","","null","resources/images/coin2.png","null","",NA,NA,NA,NA,""
"image-keyboard-response",245,222780,"0.0-3.78-0.78","arsr9nr3h5q6lsx",241,"83.csv","","348.5","resources/trios/L1T1A3.jpg","39","restless",0.2,0.5,0.6,0.388498470724617,"true"
"image-keyboard-response",246,223184,"0.0-3.78-1.78","arsr9nr3h5q6lsx",241,"83.csv","","null","resources/maskTrios/BBA3.jpg","null","",NA,NA,NA,NA,""
"image-keyboard-response",247,224389,"0.0-3.78-2.78","arsr9nr3h5q6lsx",241,"83.csv","","null","resources/images/coin2.png","null","",NA,NA,NA,NA,""
"image-keyboard-response",248,224536,"0.0-3.79-0.79","arsr9nr3h5q6lsx",241,"83.csv","","144.5","resources/trios/L1T4A2.jpg","39","restless",0.2,0.5,0.6,0.824320140780301,"false"
"image-keyboard-response",249,224941,"0.0-3.79-1.79","arsr9nr3h5q6lsx",241,"83.csv","","null","resources/maskTrios/BBA2.jpg","null","",NA,NA,NA,NA,""
"image-keyboard-response",250,226148,"0.0-3.79-2.79","arsr9nr3h5q6lsx",241,"83.csv","","null","resources/images/fishbone.png","null","",NA,NA,NA,NA,""
"image-keyboard-response",251,226427,"0.0-3.80-0.80","arsr9nr3h5q6lsx",241,"83.csv","","277.39999997615814","resources/trios/L1T4A2.jpg","39","restless",0.3,0.5,0.6,0.26318582596149,"true"
"image-keyboard-response",252,226834,"0.0-3.80-1.80","arsr9nr3h5q6lsx",241,"83.csv","","null","resources/maskTrios/BBA2.jpg","null","",NA,NA,NA,NA,""
"image-keyboard-response",253,228042,"0.0-3.80-2.80","arsr9nr3h5q6lsx",241,"83.csv","","null","resources/images/coin2.png","null","",NA,NA,NA,NA,""
"image-keyboard-response",254,235972,"0.0-3.81-0.81","arsr9nr3h5q6lsx",241,"83.csv","","7927.699999928474","resources/trios/L2T4A2.jpg","39","restless",0.3,0.5,0.6,0.487227502467495,"true"
"image-keyboard-response",255,236380,"0.0-3.81-1.81","arsr9nr3h5q6lsx",241,"83.csv","","null","resources/maskTrios/BBA2.jpg","null","",NA,NA,NA,NA,""
"image-keyboard-response",256,237582,"0.0-3.81-2.81","arsr9nr3h5q6lsx",241,"83.csv","","null","resources/images/coin2.png","null","",NA,NA,NA,NA,""
"image-keyboard-response",257,237734,"0.0-3.82-0.82","arsr9nr3h5q6lsx",241,"83.csv","","150.30000007152557","resources/trios/L1T1A3.jpg","39","restless",0.3,0.5,0.6,0.101766840262783,"true"
"image-keyboard-response",258,238139,"0.0-3.82-1.82","arsr9nr3h5q6lsx",241,"83.csv","","null","resources/maskTrios/BBA3.jpg","null","",NA,NA,NA,NA,""
"image-keyboard-response",259,239344,"0.0-3.82-2.82","arsr9nr3h5q6lsx",241,"83.csv","","null","resources/images/coin2.png","null","",NA,NA,NA,NA,""
"image-keyboard-response",260,239350,"0.0-3.83-0.83","arsr9nr3h5q6lsx",241,"83.csv","","4.099999904632568","resources/trios/L2T1A3.jpg","39","restless",0.3,0.6,0.6,0.682385736822576,"false"
"image-keyboard-response",261,239755,"0.0-3.83-1.83","arsr9nr3h5q6lsx",241,"83.csv","","null","resources/maskTrios/BBA3.jpg","null","",NA,NA,NA,NA,""
"image-keyboard-response",262,240962,"0.0-3.83-2.83","arsr9nr3h5q6lsx",241,"83.csv","","null","resources/images/fishbone.png","null","",NA,NA,NA,NA,""
"image-keyboard-response",263,241186,"0.0-3.84-0.84","arsr9nr3h5q6lsx",241,"83.csv","","221.60000002384186","resources/trios/L2T1A2.jpg","37","restless",0.3,0.6,0.6,0.710390108757877,"false"
"image-keyboard-response",264,241592,"0.0-3.84-1.84","arsr9nr3h5q6lsx",241,"83.csv","","null","resources/maskTrios/L2BB.jpg","null","",NA,NA,NA,NA,""
"image-keyboard-response",265,242799,"0.0-3.84-2.84","arsr9nr3h5q6lsx",241,"83.csv","","null","resources/images/fishbone.png","null","",NA,NA,NA,NA,""
"image-keyboard-response",266,243194,"0.0-3.85-0.85","arsr9nr3h5q6lsx",241,"83.csv","","392.2000000476837","resources/trios/L2T1A2.jpg","38","restless",0.3,0.6,0.6,0.796274490238605,"false"
"image-keyboard-response",267,243596,"0.0-3.85-1.85","arsr9nr3h5q6lsx",241,"83.csv","","null","resources/maskTrios/BT1B.jpg","null","",NA,NA,NA,NA,""
"image-keyboard-response",268,244803,"0.0-3.85-2.85","arsr9nr3h5q6lsx",241,"83.csv","","null","resources/images/fishbone.png","null","",NA,NA,NA,NA,""
"image-keyboard-response",269,244979,"0.0-3.86-0.86","arsr9nr3h5q6lsx",241,"83.csv","","174.09999990463257","resources/trios/L2T4A2.jpg","39","restless",0.3,0.6,0.6,0.870873049086613,"false"
"image-keyboard-response",270,245386,"0.0-3.86-1.86","arsr9nr3h5q6lsx",241,"83.csv","","null","resources/maskTrios/BBA2.jpg","null","",NA,NA,NA,NA,""
"image-keyboard-response",271,246593,"0.0-3.86-2.86","arsr9nr3h5q6lsx",241,"83.csv","","null","resources/images/fishbone.png","null","",NA,NA,NA,NA,""
"image-keyboard-response",272,246876,"0.0-3.87-0.87","arsr9nr3h5q6lsx",241,"83.csv","","281","resources/trios/L2T1A2.jpg","39","restless",0.3,0.6,0.6,0.439334664217863,"true"
"image-keyboard-response",273,247284,"0.0-3.87-1.87","arsr9nr3h5q6lsx",241,"83.csv","","null","resources/maskTrios/BBA2.jpg","null","",NA,NA,NA,NA,""
"image-keyboard-response",274,248491,"0.0-3.87-2.87","arsr9nr3h5q6lsx",241,"83.csv","","null","resources/images/coin2.png","null","",NA,NA,NA,NA,""
"image-keyboard-response",275,248612,"0.0-3.88-0.88","arsr9nr3h5q6lsx",241,"83.csv","","119.40000009536743","resources/trios/L1T1A3.jpg","39","restless",0.3,0.6,0.6,0.317651085323238,"true"
"image-keyboard-response",276,249019,"0.0-3.88-1.88","arsr9nr3h5q6lsx",241,"83.csv","","null","resources/maskTrios/BBA3.jpg","null","",NA,NA,NA,NA,""
"image-keyboard-response",277,250226,"0.0-3.88-2.88","arsr9nr3h5q6lsx",241,"83.csv","","null","resources/images/coin2.png","null","",NA,NA,NA,NA,""
"image-keyboard-response",278,250336,"0.0-3.89-0.89","arsr9nr3h5q6lsx",241,"83.csv","","108.19999992847443","resources/trios/L1T4A3.jpg","39","restless",0.3,0.6,0.7,0.217880890131039,"true"
"image-keyboard-response",279,250743,"0.0-3.89-1.89","arsr9nr3h5q6lsx",241,"83.csv","","null","resources/maskTrios/BBA3.jpg","null","",NA,NA,NA,NA,""
"image-keyboard-response",280,251950,"0.0-3.89-2.89","arsr9nr3h5q6lsx",241,"83.csv","","null","resources/images/coin2.png","null","",NA,NA,NA,NA,""
"image-keyboard-response",281,251975,"0.0-3.90-0.90","arsr9nr3h5q6lsx",241,"83.csv","","22.200000047683716","resources/trios/L2T4A2.jpg","39","restless",0.3,0.6,0.7,0.954998069878814,"false"
"image-keyboard-response",282,252379,"0.0-3.90-1.90","arsr9nr3h5q6lsx",241,"83.csv","","null","resources/maskTrios/BBA2.jpg","null","",NA,NA,NA,NA,""
"image-keyboard-response",283,253586,"0.0-3.90-2.90","arsr9nr3h5q6lsx",241,"83.csv","","null","resources/images/fishbone.png","null","",NA,NA,NA,NA,""
"image-keyboard-response",284,254007,"0.0-3.91-0.91","arsr9nr3h5q6lsx",241,"83.csv","","418.1999999284744","resources/trios/L2T1A2.jpg","37","restless",0.3,0.6,0.7,0.0850973221202953,"true"
"image-keyboard-response",285,254414,"0.0-3.91-1.91","arsr9nr3h5q6lsx",241,"83.csv","","null","resources/maskTrios/L2BB.jpg","null","",NA,NA,NA,NA,""
"image-keyboard-response",286,255619,"0.0-3.91-2.91","arsr9nr3h5q6lsx",241,"83.csv","","null","resources/images/coin2.png","null","",NA,NA,NA,NA,""
"image-keyboard-response",287,256063,"0.0-3.92-0.92","arsr9nr3h5q6lsx",241,"83.csv","","441.1999999284744","resources/trios/L1T4A3.jpg","37","restless",0.3,0.6,0.7,0.751291497629818,"false"
"image-keyboard-response",288,256465,"0.0-3.92-1.92","arsr9nr3h5q6lsx",241,"83.csv","","null","resources/maskTrios/L1BB.jpg","null","",NA,NA,NA,NA,""
"image-keyboard-response",289,257668,"0.0-3.92-2.92","arsr9nr3h5q6lsx",241,"83.csv","","null","resources/images/fishbone.png","null","",NA,NA,NA,NA,""
"image-keyboard-response",290,258029,"0.0-3.93-0.93","arsr9nr3h5q6lsx",241,"83.csv","","359","resources/trios/L2T4A3.jpg","37","restless",0.3,0.6,0.7,0.747625938273585,"false"
"image-keyboard-response",291,258436,"0.0-3.93-1.93","arsr9nr3h5q6lsx",241,"83.csv","","null","resources/maskTrios/L2BB.jpg","null","",NA,NA,NA,NA,""
"image-keyboard-response",292,259643,"0.0-3.93-2.93","arsr9nr3h5q6lsx",241,"83.csv","","null","resources/images/fishbone.png","null","",NA,NA,NA,NA,""
"image-keyboard-response",293,259980,"0.0-3.94-0.94","arsr9nr3h5q6lsx",241,"83.csv","","335.10000002384186","resources/trios/L2T4A3.jpg","37","restless",0.3,0.7,0.7,0.963492016393114,"false"
"image-keyboard-response",294,260387,"0.0-3.94-1.94","arsr9nr3h5q6lsx",241,"83.csv","","null","resources/maskTrios/L2BB.jpg","null","",NA,NA,NA,NA,""
"image-keyboard-response",295,261593,"0.0-3.94-2.94","arsr9nr3h5q6lsx",241,"83.csv","","null","resources/images/fishbone.png","null","",NA,NA,NA,NA,""
"image-keyboard-response",296,261987,"0.0-3.95-0.95","arsr9nr3h5q6lsx",241,"83.csv","","392","resources/trios/L1T4A3.jpg","38","restless",0.4,0.7,0.7,0.617377694625285,"true"
"image-keyboard-response",297,262392,"0.0-3.95-1.95","arsr9nr3h5q6lsx",241,"83.csv","","null","resources/maskTrios/BT4B.jpg","null","",NA,NA,NA,NA,""
"image-keyboard-response",298,263598,"0.0-3.95-2.95","arsr9nr3h5q6lsx",241,"83.csv","","null","resources/images/coin2.png","null","",NA,NA,NA,NA,""
"image-keyboard-response",299,263673,"0.0-3.96-0.96","arsr9nr3h5q6lsx",241,"83.csv","","73.60000002384186","resources/trios/L1T4A2.jpg","38","restless",0.3,0.7,0.7,0.775238443276467,"false"
"image-keyboard-response",300,264076,"0.0-3.96-1.96","arsr9nr3h5q6lsx",241,"83.csv","","null","resources/maskTrios/BT4B.jpg","null","",NA,NA,NA,NA,""
"image-keyboard-response",301,265283,"0.0-3.96-2.96","arsr9nr3h5q6lsx",241,"83.csv","","null","resources/images/fishbone.png","null","",NA,NA,NA,NA,""
"image-keyboard-response",302,265485,"0.0-3.97-0.97","arsr9nr3h5q6lsx",241,"83.csv","","199.70000004768372","resources/trios/L1T1A2.jpg","39","restless",0.4,0.7,0.7,0.429765316084634,"true"
"image-keyboard-response",303,265892,"0.0-3.97-1.97","arsr9nr3h5q6lsx",241,"83.csv","","null","resources/maskTrios/BBA2.jpg","null","",NA,NA,NA,NA,""
"image-keyboard-response",304,267095,"0.0-3.97-2.97","arsr9nr3h5q6lsx",241,"83.csv","","null","resources/images/coin2.png","null","",NA,NA,NA,NA,""
"image-keyboard-response",305,267305,"0.0-3.98-0.98","arsr9nr3h5q6lsx",241,"83.csv","","208.79999995231628","resources/trios/L2T1A2.jpg","39","restless",0.4,0.7,0.7,0.223327236346404,"true"
"image-keyboard-response",306,267713,"0.0-3.98-1.98","arsr9nr3h5q6lsx",241,"83.csv","","null","resources/maskTrios/BBA2.jpg","null","",NA,NA,NA,NA,""
"image-keyboard-response",307,268918,"0.0-3.98-2.98","arsr9nr3h5q6lsx",241,"83.csv","","null","resources/images/coin2.png","null","",NA,NA,NA,NA,""
"image-keyboard-response",308,269064,"0.0-3.99-0.99","arsr9nr3h5q6lsx",241,"83.csv","","144.39999997615814","resources/trios/L2T1A2.jpg","39","restless",0.5,0.7,0.7,0.885367654002022,"false"
"image-keyboard-response",309,269471,"0.0-3.99-1.99","arsr9nr3h5q6lsx",241,"83.csv","","null","resources/maskTrios/BBA2.jpg","null","",NA,NA,NA,NA,""
"image-keyboard-response",310,270676,"0.0-3.99-2.99","arsr9nr3h5q6lsx",241,"83.csv","","null","resources/images/fishbone.png","null","",NA,NA,NA,NA,""
"image-keyboard-response",311,270829,"0.0-3.100-0.100","arsr9nr3h5q6lsx",241,"83.csv","","151.19999992847443","resources/trios/L2T1A3.jpg","39","restless",0.5,0.7,0.7,0.294255422151046,"true"
"image-keyboard-response",312,271236,"0.0-3.100-1.100","arsr9nr3h5q6lsx",241,"83.csv","","null","resources/maskTrios/BBA3.jpg","null","",NA,NA,NA,NA,""
"image-keyboard-response",313,272443,"0.0-3.100-2.100","arsr9nr3h5q6lsx",241,"83.csv","","null","resources/images/coin2.png","null","",NA,NA,NA,NA,""
"image-keyboard-response",314,272840,"0.0-3.101-0.101","arsr9nr3h5q6lsx",241,"83.csv","","395.1999999284744","resources/trios/L1T4A3.jpg","39","restless",0.6,0.7,0.8,0.783860035807678,"true"
"image-keyboard-response",315,273247,"0.0-3.101-1.101","arsr9nr3h5q6lsx",241,"83.csv","","null","resources/maskTrios/BBA3.jpg","null","",NA,NA,NA,NA,""
"image-keyboard-response",316,274453,"0.0-3.101-2.101","arsr9nr3h5q6lsx",241,"83.csv","","null","resources/images/coin2.png","null","",NA,NA,NA,NA,""
"image-keyboard-response",317,274719,"0.0-3.102-0.102","arsr9nr3h5q6lsx",241,"83.csv","","263.40000009536743","resources/trios/L1T4A2.jpg","39","restless",0.6,0.7,0.8,0.437863179869854,"true"
"image-keyboard-response",318,275123,"0.0-3.102-1.102","arsr9nr3h5q6lsx",241,"83.csv","","null","resources/maskTrios/BBA2.jpg","null","",NA,NA,NA,NA,""
"image-keyboard-response",319,276330,"0.0-3.102-2.102","arsr9nr3h5q6lsx",241,"83.csv","","null","resources/images/coin2.png","null","",NA,NA,NA,NA,""
"image-keyboard-response",320,276395,"0.0-3.103-0.103","arsr9nr3h5q6lsx",241,"83.csv","","63","resources/trios/L2T4A3.jpg","39","restless",0.6,0.7,0.8,0.384084650118115,"true"
"image-keyboard-response",321,276803,"0.0-3.103-1.103","arsr9nr3h5q6lsx",241,"83.csv","","null","resources/maskTrios/BBA3.jpg","null","",NA,NA,NA,NA,""
"image-keyboard-response",322,278010,"0.0-3.103-2.103","arsr9nr3h5q6lsx",241,"83.csv","","null","resources/images/coin2.png","null","",NA,NA,NA,NA,""
"image-keyboard-response",323,278140,"0.0-3.104-0.104","arsr9nr3h5q6lsx",241,"83.csv","","128.79999995231628","resources/trios/L1T1A2.jpg","39","restless",0.6,0.7,0.8,0.780136329182763,"true"
"image-keyboard-response",324,278548,"0.0-3.104-1.104","arsr9nr3h5q6lsx",241,"83.csv","","null","resources/maskTrios/BBA2.jpg","null","",NA,NA,NA,NA,""
"image-keyboard-response",325,279753,"0.0-3.104-2.104","arsr9nr3h5q6lsx",241,"83.csv","","null","resources/images/coin2.png","null","",NA,NA,NA,NA,""
"image-keyboard-response",326,279791,"0.0-3.105-0.105","arsr9nr3h5q6lsx",241,"83.csv","","35.800000071525574","resources/trios/L2T1A3.jpg","39","restless",0.6,0.7,0.8,0.22937073958012,"true"
"image-keyboard-response",327,280198,"0.0-3.105-1.105","arsr9nr3h5q6lsx",241,"83.csv","","null","resources/maskTrios/BBA3.jpg","null","",NA,NA,NA,NA,""
"image-keyboard-response",328,281405,"0.0-3.105-2.105","arsr9nr3h5q6lsx",241,"83.csv","","null","resources/images/coin2.png","null","",NA,NA,NA,NA,""
"image-keyboard-response",329,281482,"0.0-3.106-0.106","arsr9nr3h5q6lsx",241,"83.csv","","74.89999997615814","resources/trios/L1T4A2.jpg","39","restless",0.6,0.7,0.8,0.927354331235033,"false"
"image-keyboard-response",330,281889,"0.0-3.106-1.106","arsr9nr3h5q6lsx",241,"83.csv","","null","resources/maskTrios/BBA2.jpg","null","",NA,NA,NA,NA,""
"image-keyboard-response",331,283092,"0.0-3.106-2.106","arsr9nr3h5q6lsx",241,"83.csv","","null","resources/images/fishbone.png","null","",NA,NA,NA,NA,""
"image-keyboard-response",332,283298,"0.0-3.107-0.107","arsr9nr3h5q6lsx",241,"83.csv","","203.5","resources/trios/L1T1A3.jpg","39","restless",0.6,0.7,0.8,0.321375127612736,"true"
"image-keyboard-response",333,283705,"0.0-3.107-1.107","arsr9nr3h5q6lsx",241,"83.csv","","null","resources/maskTrios/BBA3.jpg","null","",NA,NA,NA,NA,""
"image-keyboard-response",334,284908,"0.0-3.107-2.107","arsr9nr3h5q6lsx",241,"83.csv","","null","resources/images/coin2.png","null","",NA,NA,NA,NA,""
"image-keyboard-response",335,285266,"0.0-3.108-0.108","arsr9nr3h5q6lsx",241,"83.csv","","356.5","resources/trios/L1T1A3.jpg","39","restless",0.6,0.7,0.8,0.125529314071937,"true"
"image-keyboard-response",336,285673,"0.0-3.108-1.108","arsr9nr3h5q6lsx",241,"83.csv","","null","resources/maskTrios/BBA3.jpg","null","",NA,NA,NA,NA,""
"image-keyboard-response",337,286877,"0.0-3.108-2.108","arsr9nr3h5q6lsx",241,"83.csv","","null","resources/images/coin2.png","null","",NA,NA,NA,NA,""
"image-keyboard-response",338,287209,"0.0-3.109-0.109","arsr9nr3h5q6lsx",241,"83.csv","","329.60000002384186","resources/trios/L2T1A2.jpg","39","restless",0.6,0.7,0.8,0.074485042994813,"true"
"image-keyboard-response",339,287616,"0.0-3.109-1.109","arsr9nr3h5q6lsx",241,"83.csv","","null","resources/maskTrios/BBA2.jpg","null","",NA,NA,NA,NA,""
"image-keyboard-response",340,288819,"0.0-3.109-2.109","arsr9nr3h5q6lsx",241,"83.csv","","null","resources/images/coin2.png","null","",NA,NA,NA,NA,""
"image-keyboard-response",341,289133,"0.0-3.110-0.110","arsr9nr3h5q6lsx",241,"83.csv","","312","resources/trios/L1T4A3.jpg","39","restless",0.6,0.7,0.8,0.17200781667244,"true"
"image-keyboard-response",342,289540,"0.0-3.110-1.110","arsr9nr3h5q6lsx",241,"83.csv","","null","resources/maskTrios/BBA3.jpg","null","",NA,NA,NA,NA,""
"image-keyboard-response",343,290747,"0.0-3.110-2.110","arsr9nr3h5q6lsx",241,"83.csv","","null","resources/images/coin2.png","null","",NA,NA,NA,NA,""
"image-keyboard-response",344,290832,"0.0-3.111-0.111","arsr9nr3h5q6lsx",241,"83.csv","","83.09999990463257","resources/trios/L1T1A2.jpg","39","restless",0.6,0.7,0.8,0.515420062863391,"true"
"image-keyboard-response",345,291239,"0.0-3.111-1.111","arsr9nr3h5q6lsx",241,"83.csv","","null","resources/maskTrios/BBA2.jpg","null","",NA,NA,NA,NA,""
"image-keyboard-response",346,292446,"0.0-3.111-2.111","arsr9nr3h5q6lsx",241,"83.csv","","null","resources/images/coin2.png","null","",NA,NA,NA,NA,""
"image-keyboard-response",347,292556,"0.0-3.112-0.112","arsr9nr3h5q6lsx",241,"83.csv","","106.90000009536743","resources/trios/L1T1A3.jpg","39","restless",0.6,0.7,0.8,0.770893224377237,"true"
"image-keyboard-response",348,292960,"0.0-3.112-1.112","arsr9nr3h5q6lsx",241,"83.csv","","null","resources/maskTrios/BBA3.jpg","null","",NA,NA,NA,NA,""
"image-keyboard-response",349,294167,"0.0-3.112-2.112","arsr9nr3h5q6lsx",241,"83.csv","","null","resources/images/coin2.png","null","",NA,NA,NA,NA,""
"image-keyboard-response",350,294247,"0.0-3.113-0.113","arsr9nr3h5q6lsx",241,"83.csv","","78","resources/trios/L1T4A3.jpg","39","restless",0.6,0.7,0.8,0.184003591375618,"true"
"image-keyboard-response",351,294653,"0.0-3.113-1.113","arsr9nr3h5q6lsx",241,"83.csv","","null","resources/maskTrios/BBA3.jpg","null","",NA,NA,NA,NA,""
"image-keyboard-response",352,295858,"0.0-3.113-2.113","arsr9nr3h5q6lsx",241,"83.csv","","null","resources/images/coin2.png","null","",NA,NA,NA,NA,""
"image-keyboard-response",353,295961,"0.0-3.114-0.114","arsr9nr3h5q6lsx",241,"83.csv","","101.39999997615814","resources/trios/L1T4A2.jpg","39","restless",0.6,0.7,0.8,0.323341293565877,"true"
"image-keyboard-response",354,296368,"0.0-3.114-1.114","arsr9nr3h5q6lsx",241,"83.csv","","null","resources/maskTrios/BBA2.jpg","null","",NA,NA,NA,NA,""
"image-keyboard-response",355,297575,"0.0-3.114-2.114","arsr9nr3h5q6lsx",241,"83.csv","","null","resources/images/coin2.png","null","",NA,NA,NA,NA,""
"image-keyboard-response",356,297729,"0.0-3.115-0.115","arsr9nr3h5q6lsx",241,"83.csv","","151.5","resources/trios/L1T1A3.jpg","39","restless",0.6,0.7,0.8,0.547762345318618,"true"
"image-keyboard-response",357,298133,"0.0-3.115-1.115","arsr9nr3h5q6lsx",241,"83.csv","","null","resources/maskTrios/BBA3.jpg","null","",NA,NA,NA,NA,""
"image-keyboard-response",358,299335,"0.0-3.115-2.115","arsr9nr3h5q6lsx",241,"83.csv","","null","resources/images/coin2.png","null","",NA,NA,NA,NA,""
"image-keyboard-response",359,299379,"0.0-3.116-0.116","arsr9nr3h5q6lsx",241,"83.csv","","41","resources/trios/L2T4A2.jpg","39","restless",0.6,0.7,0.8,0.956729648048594,"false"
"image-keyboard-response",360,299781,"0.0-3.116-1.116","arsr9nr3h5q6lsx",241,"83.csv","","null","resources/maskTrios/BBA2.jpg","null","",NA,NA,NA,NA,""
"image-keyboard-response",361,300988,"0.0-3.116-2.116","arsr9nr3h5q6lsx",241,"83.csv","","null","resources/images/fishbone.png","null","",NA,NA,NA,NA,""
"image-keyboard-response",362,301121,"0.0-3.117-0.117","arsr9nr3h5q6lsx",241,"83.csv","","130.39999997615814","resources/trios/L1T4A2.jpg","37","restless",0.7,0.7,0.8,0.315852236162345,"true"
"image-keyboard-response",363,301527,"0.0-3.117-1.117","arsr9nr3h5q6lsx",241,"83.csv","","null","resources/maskTrios/L1BB.jpg","null","",NA,NA,NA,NA,""
"image-keyboard-response",364,302734,"0.0-3.117-2.117","arsr9nr3h5q6lsx",241,"83.csv","","null","resources/images/coin2.png","null","",NA,NA,NA,NA,""
"image-keyboard-response",365,302886,"0.0-3.118-0.118","arsr9nr3h5q6lsx",241,"83.csv","","149.60000002384186","resources/trios/L2T4A3.jpg","37","restless",0.7,0.8,0.8,0.287391853658008,"true"
"image-keyboard-response",366,303289,"0.0-3.118-1.118","arsr9nr3h5q6lsx",241,"83.csv","","null","resources/maskTrios/L2BB.jpg","null","",NA,NA,NA,NA,""
"image-keyboard-response",367,304495,"0.0-3.118-2.118","arsr9nr3h5q6lsx",241,"83.csv","","null","resources/images/coin2.png","null","",NA,NA,NA,NA,""
"image-keyboard-response",368,304555,"0.0-3.119-0.119","arsr9nr3h5q6lsx",241,"83.csv","","56.299999952316284","resources/trios/L1T1A3.jpg","37","restless",0.7,0.9,0.8,0.171678331134742,"true"
"image-keyboard-response",369,304961,"0.0-3.119-1.119","arsr9nr3h5q6lsx",241,"83.csv","","null","resources/maskTrios/L1BB.jpg","null","",NA,NA,NA,NA,""
"image-keyboard-response",370,306167,"0.0-3.119-2.119","arsr9nr3h5q6lsx",241,"83.csv","","null","resources/images/coin2.png","null","",NA,NA,NA,NA,""
"image-keyboard-response",371,306342,"0.0-3.120-0.120","arsr9nr3h5q6lsx",241,"83.csv","","172.79999995231628","resources/trios/L2T4A3.jpg","37","restless",0.7,0.9,0.8,0.300053821789788,"true"
"image-keyboard-response",372,306749,"0.0-3.120-1.120","arsr9nr3h5q6lsx",241,"83.csv","","null","resources/maskTrios/L2BB.jpg","null","",NA,NA,NA,NA,""
"image-keyboard-response",373,307956,"0.0-3.120-2.120","arsr9nr3h5q6lsx",241,"83.csv","","null","resources/images/coin2.png","null","",NA,NA,NA,NA,""
"image-keyboard-response",374,308012,"0.0-3.121-0.121","arsr9nr3h5q6lsx",241,"83.csv","","53.300000071525574","resources/trios/L2T1A3.jpg","39","restless",0.7,0.9,0.8,0.406928538725405,"true"
"image-keyboard-response",375,308419,"0.0-3.121-1.121","arsr9nr3h5q6lsx",241,"83.csv","","null","resources/maskTrios/BBA3.jpg","null","",NA,NA,NA,NA,""
"image-keyboard-response",376,309627,"0.0-3.121-2.121","arsr9nr3h5q6lsx",241,"83.csv","","null","resources/images/coin2.png","null","",NA,NA,NA,NA,""
"image-keyboard-response",377,309637,"0.0-3.122-0.122","arsr9nr3h5q6lsx",241,"83.csv","","8.200000047683716","resources/trios/L1T1A2.jpg","39","restless",0.7,0.8,0.7,0.261479412133889,"true"
"image-keyboard-response",378,310040,"0.0-3.122-1.122","arsr9nr3h5q6lsx",241,"83.csv","","null","resources/maskTrios/BBA2.jpg","null","",NA,NA,NA,NA,""
"image-keyboard-response",379,311247,"0.0-3.122-2.122","arsr9nr3h5q6lsx",241,"83.csv","","null","resources/images/coin2.png","null","",NA,NA,NA,NA,""
"image-keyboard-response",380,311394,"0.0-3.123-0.123","arsr9nr3h5q6lsx",241,"83.csv","","144.89999997615814","resources/trios/L2T4A2.jpg","39","restless",0.7,0.8,0.7,0.239657255381404,"true"
"image-keyboard-response",381,311801,"0.0-3.123-1.123","arsr9nr3h5q6lsx",241,"83.csv","","null","resources/maskTrios/BBA2.jpg","null","",NA,NA,NA,NA,""
"image-keyboard-response",382,313005,"0.0-3.123-2.123","arsr9nr3h5q6lsx",241,"83.csv","","null","resources/images/coin2.png","null","",NA,NA,NA,NA,""
"image-keyboard-response",383,313233,"0.0-3.124-0.124","arsr9nr3h5q6lsx",241,"83.csv","","226.59999990463257","resources/trios/L1T4A3.jpg","39","restless",0.7,0.8,0.7,0.45564047130927,"true"
"image-keyboard-response",384,313640,"0.0-3.124-1.124","arsr9nr3h5q6lsx",241,"83.csv","","null","resources/maskTrios/BBA3.jpg","null","",NA,NA,NA,NA,""
"image-keyboard-response",385,314848,"0.0-3.124-2.124","arsr9nr3h5q6lsx",241,"83.csv","","null","resources/images/coin2.png","null","",NA,NA,NA,NA,""
"image-keyboard-response",386,314890,"0.0-3.125-0.125","arsr9nr3h5q6lsx",241,"83.csv","","39.5","resources/trios/L2T1A3.jpg","37","restless",0.7,0.8,0.7,0.528544448939006,"true"
"image-keyboard-response",387,315291,"0.0-3.125-1.125","arsr9nr3h5q6lsx",241,"83.csv","","null","resources/maskTrios/L2BB.jpg","null","",NA,NA,NA,NA,""
"image-keyboard-response",388,316498,"0.0-3.125-2.125","arsr9nr3h5q6lsx",241,"83.csv","","null","resources/images/coin2.png","null","",NA,NA,NA,NA,""
"image-keyboard-response",389,316505,"0.0-3.126-0.126","arsr9nr3h5q6lsx",241,"83.csv","","4.300000071525574","resources/trios/L1T1A2.jpg","37","restless",0.7,0.8,0.7,0.644397527352841,"true"
"image-keyboard-response",390,316911,"0.0-3.126-1.126","arsr9nr3h5q6lsx",241,"83.csv","","null","resources/maskTrios/L1BB.jpg","null","",NA,NA,NA,NA,""
"image-keyboard-response",391,318116,"0.0-3.126-2.126","arsr9nr3h5q6lsx",241,"83.csv","","null","resources/images/coin2.png","null","",NA,NA,NA,NA,""
"image-keyboard-response",392,318144,"0.0-3.127-0.127","arsr9nr3h5q6lsx",241,"83.csv","","25.799999952316284","resources/trios/L2T4A3.jpg","37","restless",0.7,0.8,0.6,0.119308494403054,"true"
"image-keyboard-response",393,318550,"0.0-3.127-1.127","arsr9nr3h5q6lsx",241,"83.csv","","null","resources/maskTrios/L2BB.jpg","null","",NA,NA,NA,NA,""
"image-keyboard-response",394,319757,"0.0-3.127-2.127","arsr9nr3h5q6lsx",241,"83.csv","","null","resources/images/coin2.png","null","",NA,NA,NA,NA,""
"image-keyboard-response",395,319839,"0.0-3.128-0.128","arsr9nr3h5q6lsx",241,"83.csv","","79.70000004768372","resources/trios/L2T4A2.jpg","37","restless",0.7,0.8,0.7,0.552647133815096,"true"
"image-keyboard-response",396,320242,"0.0-3.128-1.128","arsr9nr3h5q6lsx",241,"83.csv","","null","resources/maskTrios/L2BB.jpg","null","",NA,NA,NA,NA,""
"image-keyboard-response",397,321446,"0.0-3.128-2.128","arsr9nr3h5q6lsx",241,"83.csv","","null","resources/images/coin2.png","null","",NA,NA,NA,NA,""
"image-keyboard-response",398,321571,"0.0-3.129-0.129","arsr9nr3h5q6lsx",241,"83.csv","","123.5","resources/trios/L2T4A2.jpg","37","restless",0.7,0.8,0.7,0.0718368450741811,"true"
"image-keyboard-response",399,321979,"0.0-3.129-1.129","arsr9nr3h5q6lsx",241,"83.csv","","null","resources/maskTrios/L2BB.jpg","null","",NA,NA,NA,NA,""
"image-keyboard-response",400,323182,"0.0-3.129-2.129","arsr9nr3h5q6lsx",241,"83.csv","","null","resources/images/coin2.png","null","",NA,NA,NA,NA,""
"image-keyboard-response",401,323288,"0.0-3.130-0.130","arsr9nr3h5q6lsx",241,"83.csv","","103.79999995231628","resources/trios/L2T4A2.jpg","37","restless",0.7,0.8,0.7,0.77055232274761,"false"
"image-keyboard-response",402,323694,"0.0-3.130-1.130","arsr9nr3h5q6lsx",241,"83.csv","","null","resources/maskTrios/L2BB.jpg","null","",NA,NA,NA,NA,""
"image-keyboard-response",403,324899,"0.0-3.130-2.130","arsr9nr3h5q6lsx",241,"83.csv","","null","resources/images/fishbone.png","null","",NA,NA,NA,NA,""
"image-keyboard-response",404,325039,"0.0-3.131-0.131","arsr9nr3h5q6lsx",241,"83.csv","","137.89999997615814","resources/trios/L1T4A2.jpg","39","restless",0.7,0.8,0.6,0.0105202049248658,"true"
"image-keyboard-response",405,325446,"0.0-3.131-1.131","arsr9nr3h5q6lsx",241,"83.csv","","null","resources/maskTrios/BBA2.jpg","null","",NA,NA,NA,NA,""
"image-keyboard-response",406,326653,"0.0-3.131-2.131","arsr9nr3h5q6lsx",241,"83.csv","","null","resources/images/coin2.png","null","",NA,NA,NA,NA,""
"image-keyboard-response",407,326837,"0.0-3.132-0.132","arsr9nr3h5q6lsx",241,"83.csv","","181.39999997615814","resources/trios/L2T4A2.jpg","39","restless",0.7,0.8,0.5,0.217385833768501,"true"
"image-keyboard-response",408,327243,"0.0-3.132-1.132","arsr9nr3h5q6lsx",241,"83.csv","","null","resources/maskTrios/BBA2.jpg","null","",NA,NA,NA,NA,""
"image-keyboard-response",409,328450,"0.0-3.132-2.132","arsr9nr3h5q6lsx",241,"83.csv","","null","resources/images/coin2.png","null","",NA,NA,NA,NA,""
"image-keyboard-response",410,328610,"0.0-3.133-0.133","arsr9nr3h5q6lsx",241,"83.csv","","157.39999997615814","resources/trios/L1T1A3.jpg","39","restless",0.7,0.8,0.5,0.120665962571433,"true"
"image-keyboard-response",411,329012,"0.0-3.133-1.133","arsr9nr3h5q6lsx",241,"83.csv","","null","resources/maskTrios/BBA3.jpg","null","",NA,NA,NA,NA,""
"image-keyboard-response",412,330214,"0.0-3.133-2.133","arsr9nr3h5q6lsx",241,"83.csv","","null","resources/images/coin2.png","null","",NA,NA,NA,NA,""
"image-keyboard-response",413,343233,"0.0-3.134-0.134","arsr9nr3h5q6lsx",241,"83.csv","","13017.200000047684","resources/trios/L1T4A3.jpg","39","restless",0.7,0.8,0.5,0.451825319832085,"true"
"image-keyboard-response",414,343641,"0.0-3.134-1.134","arsr9nr3h5q6lsx",241,"83.csv","","null","resources/maskTrios/BBA3.jpg","null","",NA,NA,NA,NA,""
"image-keyboard-response",415,344847,"0.0-3.134-2.134","arsr9nr3h5q6lsx",241,"83.csv","","null","resources/images/coin2.png","null","",NA,NA,NA,NA,""
"image-keyboard-response",416,344887,"0.0-3.135-0.135","arsr9nr3h5q6lsx",241,"83.csv","","38.299999952316284","resources/trios/L1T4A3.jpg","39","restless",0.7,0.8,0.5,0.689996459105184,"false"
"image-keyboard-response",417,345289,"0.0-3.135-1.135","arsr9nr3h5q6lsx",241,"83.csv","","null","resources/maskTrios/BBA3.jpg","null","",NA,NA,NA,NA,""
"image-keyboard-response",418,346496,"0.0-3.135-2.135","arsr9nr3h5q6lsx",241,"83.csv","","null","resources/images/fishbone.png","null","",NA,NA,NA,NA,""
"image-keyboard-response",419,347111,"0.0-3.136-0.136","arsr9nr3h5q6lsx",241,"83.csv","","611.8999999761581","resources/trios/L2T4A2.jpg","39","restless",0.7,0.8,0.5,0.238254927520571,"true"
"image-keyboard-response",420,347518,"0.0-3.136-1.136","arsr9nr3h5q6lsx",241,"83.csv","","null","resources/maskTrios/BBA2.jpg","null","",NA,NA,NA,NA,""
"image-keyboard-response",421,348725,"0.0-3.136-2.136","arsr9nr3h5q6lsx",241,"83.csv","","null","resources/images/coin2.png","null","",NA,NA,NA,NA,""
"image-keyboard-response",422,349786,"0.0-3.137-0.137","arsr9nr3h5q6lsx",241,"83.csv","","1058.9000000953674","resources/trios/L1T4A2.jpg","39","restless",0.7,0.8,0.5,0.564420165639448,"false"
"image-keyboard-response",423,350193,"0.0-3.137-1.137","arsr9nr3h5q6lsx",241,"83.csv","","null","resources/maskTrios/BBA2.jpg","null","",NA,NA,NA,NA,""
"image-keyboard-response",424,351400,"0.0-3.137-2.137","arsr9nr3h5q6lsx",241,"83.csv","","null","resources/images/fishbone.png","null","",NA,NA,NA,NA,""
"image-keyboard-response",425,353925,"0.0-3.138-0.138","arsr9nr3h5q6lsx",241,"83.csv","","2522.2999999523163","resources/trios/L2T1A2.jpg","39","restless",0.7,0.8,0.5,0.64534959529133,"false"
"image-keyboard-response",426,354332,"0.0-3.138-1.138","arsr9nr3h5q6lsx",241,"83.csv","","null","resources/maskTrios/BBA2.jpg","null","",NA,NA,NA,NA,""
"image-keyboard-response",427,355539,"0.0-3.138-2.138","arsr9nr3h5q6lsx",241,"83.csv","","null","resources/images/fishbone.png","null","",NA,NA,NA,NA,""
"image-keyboard-response",428,355694,"0.0-3.139-0.139","arsr9nr3h5q6lsx",241,"83.csv","","152.70000004768372","resources/trios/L1T1A3.jpg","37","restless",0.8,0.8,0.5,0.956825261654219,"false"
"image-keyboard-response",429,356096,"0.0-3.139-1.139","arsr9nr3h5q6lsx",241,"83.csv","","null","resources/maskTrios/L1BB.jpg","null","",NA,NA,NA,NA,""
"image-keyboard-response",430,357303,"0.0-3.139-2.139","arsr9nr3h5q6lsx",241,"83.csv","","null","resources/images/fishbone.png","null","",NA,NA,NA,NA,""
"image-keyboard-response",431,357335,"0.0-3.140-0.140","arsr9nr3h5q6lsx",241,"83.csv","","29.200000047683716","resources/trios/L1T1A3.jpg","37","restless",0.8,0.8,0.5,0.134045193795623,"true"
"image-keyboard-response",432,357741,"0.0-3.140-1.140","arsr9nr3h5q6lsx",241,"83.csv","","null","resources/maskTrios/L1BB.jpg","null","",NA,NA,NA,NA,""
"image-keyboard-response",433,358948,"0.0-3.140-2.140","arsr9nr3h5q6lsx",241,"83.csv","","null","resources/images/coin2.png","null","",NA,NA,NA,NA,""
"image-keyboard-response",434,359290,"0.0-3.141-0.141","arsr9nr3h5q6lsx",241,"83.csv","","338.8000000715256","resources/trios/L1T1A2.jpg","38","restless",0.8,0.8,0.5,0.36971247896072,"true"
"image-keyboard-response",435,359694,"0.0-3.141-1.141","arsr9nr3h5q6lsx",241,"83.csv","","null","resources/maskTrios/BT1B.jpg","null","",NA,NA,NA,NA,""
"image-keyboard-response",436,360901,"0.0-3.141-2.141","arsr9nr3h5q6lsx",241,"83.csv","","null","resources/images/coin2.png","null","",NA,NA,NA,NA,""
"image-keyboard-response",437,361083,"0.0-3.142-0.142","arsr9nr3h5q6lsx",241,"83.csv","","179.79999995231628","resources/trios/L2T1A2.jpg","38","restless",0.8,0.8,0.5,0.984083810898858,"false"
"image-keyboard-response",438,361486,"0.0-3.142-1.142","arsr9nr3h5q6lsx",241,"83.csv","","null","resources/maskTrios/BT1B.jpg","null","",NA,NA,NA,NA,""
"image-keyboard-response",439,362690,"0.0-3.142-2.142","arsr9nr3h5q6lsx",241,"83.csv","","null","resources/images/fishbone.png","null","",NA,NA,NA,NA,""
"image-keyboard-response",440,362819,"0.0-3.143-0.143","arsr9nr3h5q6lsx",241,"83.csv","","127.10000002384186","resources/trios/L1T1A3.jpg","37","restless",0.8,0.7,0.5,0.924729625477199,"false"
"image-keyboard-response",441,363226,"0.0-3.143-1.143","arsr9nr3h5q6lsx",241,"83.csv","","null","resources/maskTrios/L1BB.jpg","null","",NA,NA,NA,NA,""
"image-keyboard-response",442,364433,"0.0-3.143-2.143","arsr9nr3h5q6lsx",241,"83.csv","","null","resources/images/fishbone.png","null","",NA,NA,NA,NA,""
"image-keyboard-response",443,364501,"0.0-3.144-0.144","arsr9nr3h5q6lsx",241,"83.csv","","66.19999992847443","resources/trios/L1T1A3.jpg","37","restless",0.7,0.7,0.5,0.178991508538362,"true"
"image-keyboard-response",444,364908,"0.0-3.144-1.144","arsr9nr3h5q6lsx",241,"83.csv","","null","resources/maskTrios/L1BB.jpg","null","",NA,NA,NA,NA,""
"image-keyboard-response",445,366111,"0.0-3.144-2.144","arsr9nr3h5q6lsx",241,"83.csv","","null","resources/images/coin2.png","null","",NA,NA,NA,NA,""
"image-keyboard-response",446,366266,"0.0-3.145-0.145","arsr9nr3h5q6lsx",241,"83.csv","","152.39999997615814","resources/trios/L1T1A3.jpg","37","restless",0.7,0.7,0.4,0.977093769729876,"false"
"image-keyboard-response",447,366672,"0.0-3.145-1.145","arsr9nr3h5q6lsx",241,"83.csv","","null","resources/maskTrios/L1BB.jpg","null","",NA,NA,NA,NA,""
"image-keyboard-response",448,367876,"0.0-3.145-2.145","arsr9nr3h5q6lsx",241,"83.csv","","null","resources/images/fishbone.png","null","",NA,NA,NA,NA,""
"image-keyboard-response",449,368127,"0.0-3.146-0.146","arsr9nr3h5q6lsx",241,"83.csv","","249.10000002384186","resources/trios/L1T1A2.jpg","39","restless",0.7,0.7,0.4,0.873048934343252,"false"
"image-keyboard-response",450,368533,"0.0-3.146-1.146","arsr9nr3h5q6lsx",241,"83.csv","","null","resources/maskTrios/BBA2.jpg","null","",NA,NA,NA,NA,""
"image-keyboard-response",451,369740,"0.0-3.146-2.146","arsr9nr3h5q6lsx",241,"83.csv","","null","resources/images/fishbone.png","null","",NA,NA,NA,NA,""
"image-keyboard-response",452,369938,"0.0-3.147-0.147","arsr9nr3h5q6lsx",241,"83.csv","","195.69999992847443","resources/trios/L2T1A3.jpg","38","restless",0.7,0.7,0.4,0.485121428027287,"true"
"image-keyboard-response",453,370345,"0.0-3.147-1.147","arsr9nr3h5q6lsx",241,"83.csv","","null","resources/maskTrios/BT1B.jpg","null","",NA,NA,NA,NA,""
"image-keyboard-response",454,371552,"0.0-3.147-2.147","arsr9nr3h5q6lsx",241,"83.csv","","null","resources/images/coin2.png","null","",NA,NA,NA,NA,""
"image-keyboard-response",455,371847,"0.0-3.148-0.148","arsr9nr3h5q6lsx",241,"83.csv","","293.5","resources/trios/L1T4A2.jpg","38","restless",0.8,0.7,0.4,0.312182078952772,"true"
"image-keyboard-response",456,372250,"0.0-3.148-1.148","arsr9nr3h5q6lsx",241,"83.csv","","null","resources/maskTrios/BT4B.jpg","null","",NA,NA,NA,NA,""
"image-keyboard-response",457,373457,"0.0-3.148-2.148","arsr9nr3h5q6lsx",241,"83.csv","","null","resources/images/coin2.png","null","",NA,NA,NA,NA,""
"image-keyboard-response",458,373554,"0.0-3.149-0.149","arsr9nr3h5q6lsx",241,"83.csv","","94.40000009536743","resources/trios/L2T1A2.jpg","38","restless",0.8,0.7,0.4,0.669552092955193,"true"
"image-keyboard-response",459,373961,"0.0-3.149-1.149","arsr9nr3h5q6lsx",241,"83.csv","","null","resources/maskTrios/BT1B.jpg","null","",NA,NA,NA,NA,""
"image-keyboard-response",460,375163,"0.0-3.149-2.149","arsr9nr3h5q6lsx",241,"83.csv","","null","resources/images/coin2.png","null","",NA,NA,NA,NA,""
"image-keyboard-response",461,375266,"0.0-3.150-0.150","arsr9nr3h5q6lsx",241,"83.csv","","100.39999997615814","resources/trios/L1T4A3.jpg","38","restless",0.8,0.7,0.3,0.865812000303186,"false"
"image-keyboard-response",462,375671,"0.0-3.150-1.150","arsr9nr3h5q6lsx",241,"83.csv","","null","resources/maskTrios/BT4B.jpg","null","",NA,NA,NA,NA,""
"image-keyboard-response",463,376877,"0.0-3.150-2.150","arsr9nr3h5q6lsx",241,"83.csv","","null","resources/images/fishbone.png","null","",NA,NA,NA,NA,""
"image-keyboard-response",464,377383,"0.0-3.151-0.151","arsr9nr3h5q6lsx",241,"83.csv","","503.89999997615814","resources/trios/L1T1A2.jpg","38","restless",0.8,0.7,0.3,0.759262609042984,"false"
"image-keyboard-response",465,377790,"0.0-3.151-1.151","arsr9nr3h5q6lsx",241,"83.csv","","null","resources/maskTrios/BT1B.jpg","null","",NA,NA,NA,NA,""
"image-keyboard-response",466,378996,"0.0-3.151-2.151","arsr9nr3h5q6lsx",241,"83.csv","","null","resources/images/fishbone.png","null","",NA,NA,NA,NA,""
"image-keyboard-response",467,379741,"0.0-3.152-0.152","arsr9nr3h5q6lsx",241,"83.csv","","742.2999999523163","resources/trios/L2T1A3.jpg","38","restless",0.8,0.7,0.3,0.361141723094895,"true"
"image-keyboard-response",468,380144,"0.0-3.152-1.152","arsr9nr3h5q6lsx",241,"83.csv","","null","resources/maskTrios/BT1B.jpg","null","",NA,NA,NA,NA,""
"image-keyboard-response",469,381349,"0.0-3.152-2.152","arsr9nr3h5q6lsx",241,"83.csv","","null","resources/images/coin2.png","null","",NA,NA,NA,NA,""
"image-keyboard-response",470,381356,"0.0-3.153-0.153","arsr9nr3h5q6lsx",241,"83.csv","","3.899999976158142","resources/trios/L2T4A3.jpg","38","restless",0.7,0.7,0.3,0.633459498719651,"true"
"image-keyboard-response",471,381762,"0.0-3.153-1.153","arsr9nr3h5q6lsx",241,"83.csv","","null","resources/maskTrios/BT4B.jpg","null","",NA,NA,NA,NA,""
"image-keyboard-response",472,382964,"0.0-3.153-2.153","arsr9nr3h5q6lsx",241,"83.csv","","null","resources/images/coin2.png","null","",NA,NA,NA,NA,""
"image-keyboard-response",473,383098,"0.0-3.154-0.154","arsr9nr3h5q6lsx",241,"83.csv","","131.30000007152557","resources/trios/L2T4A2.jpg","38","restless",0.7,0.7,0.3,0.615953032126228,"true"
"image-keyboard-response",474,383501,"0.0-3.154-1.154","arsr9nr3h5q6lsx",241,"83.csv","","null","resources/maskTrios/BT4B.jpg","null","",NA,NA,NA,NA,""
"image-keyboard-response",475,384708,"0.0-3.154-2.154","arsr9nr3h5q6lsx",241,"83.csv","","null","resources/images/coin2.png","null","",NA,NA,NA,NA,""
"image-keyboard-response",476,384745,"0.0-3.155-0.155","arsr9nr3h5q6lsx",241,"83.csv","","34.700000047683716","resources/trios/L2T4A2.jpg","38","restless",0.7,0.7,0.3,0.132924201451541,"true"
"image-keyboard-response",477,385149,"0.0-3.155-1.155","arsr9nr3h5q6lsx",241,"83.csv","","null","resources/maskTrios/BT4B.jpg","null","",NA,NA,NA,NA,""
"image-keyboard-response",478,386356,"0.0-3.155-2.155","arsr9nr3h5q6lsx",241,"83.csv","","null","resources/images/coin2.png","null","",NA,NA,NA,NA,""
"image-keyboard-response",479,386380,"0.0-3.156-0.156","arsr9nr3h5q6lsx",241,"83.csv","","21.799999952316284","resources/trios/L2T1A2.jpg","38","restless",0.7,0.7,0.3,0.541649372491734,"true"
"image-keyboard-response",480,386784,"0.0-3.156-1.156","arsr9nr3h5q6lsx",241,"83.csv","","null","resources/maskTrios/BT1B.jpg","null","",NA,NA,NA,NA,""
"image-keyboard-response",481,387991,"0.0-3.156-2.156","arsr9nr3h5q6lsx",241,"83.csv","","null","resources/images/coin2.png","null","",NA,NA,NA,NA,""
"image-keyboard-response",482,388059,"0.0-3.157-0.157","arsr9nr3h5q6lsx",241,"83.csv","","65.40000009536743","resources/trios/L1T4A2.jpg","38","restless",0.7,0.7,0.3,0.0382626826406141,"true"
"image-keyboard-response",483,388466,"0.0-3.157-1.157","arsr9nr3h5q6lsx",241,"83.csv","","null","resources/maskTrios/BT4B.jpg","null","",NA,NA,NA,NA,""
"image-keyboard-response",484,389671,"0.0-3.157-2.157","arsr9nr3h5q6lsx",241,"83.csv","","null","resources/images/coin2.png","null","",NA,NA,NA,NA,""
"image-keyboard-response",485,389800,"0.0-3.158-0.158","arsr9nr3h5q6lsx",241,"83.csv","","126.40000009536743","resources/trios/L1T1A3.jpg","38","restless",0.7,0.6,0.3,0.618498066679132,"false"
"image-keyboard-response",486,390207,"0.0-3.158-1.158","arsr9nr3h5q6lsx",241,"83.csv","","null","resources/maskTrios/BT1B.jpg","null","",NA,NA,NA,NA,""
"image-keyboard-response",487,391414,"0.0-3.158-2.158","arsr9nr3h5q6lsx",241,"83.csv","","null","resources/images/fishbone.png","null","",NA,NA,NA,NA,""
"image-keyboard-response",488,391560,"0.0-3.159-0.159","arsr9nr3h5q6lsx",241,"83.csv","","144.39999997615814","resources/trios/L2T4A2.jpg","37","restless",0.7,0.6,0.3,0.469991361646082,"true"
"image-keyboard-response",489,391967,"0.0-3.159-1.159","arsr9nr3h5q6lsx",241,"83.csv","","null","resources/maskTrios/L2BB.jpg","null","",NA,NA,NA,NA,""
"image-keyboard-response",490,393175,"0.0-3.159-2.159","arsr9nr3h5q6lsx",241,"83.csv","","null","resources/images/coin2.png","null","",NA,NA,NA,NA,""
"image-keyboard-response",491,393368,"0.0-3.160-0.160","arsr9nr3h5q6lsx",241,"83.csv","","190.59999990463257","resources/trios/L2T4A3.jpg","37","restless",0.8,0.5,0.2,0.932631733730785,"false"
"image-keyboard-response",492,393772,"0.0-3.160-1.160","arsr9nr3h5q6lsx",241,"83.csv","","null","resources/maskTrios/L2BB.jpg","null","",NA,NA,NA,NA,""
"image-keyboard-response",493,394978,"0.0-3.160-2.160","arsr9nr3h5q6lsx",241,"83.csv","","null","resources/images/fishbone.png","null","",NA,NA,NA,NA,""
"image-keyboard-response",494,395219,"0.0-3.161-0.161","arsr9nr3h5q6lsx",241,"83.csv","","238.5","resources/trios/L2T1A3.jpg","39","restless",0.8,0.5,0.2,0.703625631151844,"false"
"image-keyboard-response",495,395624,"0.0-3.161-1.161","arsr9nr3h5q6lsx",241,"83.csv","","null","resources/maskTrios/BBA3.jpg","null","",NA,NA,NA,NA,""
"image-keyboard-response",496,396831,"0.0-3.161-2.161","arsr9nr3h5q6lsx",241,"83.csv","","null","resources/images/fishbone.png","null","",NA,NA,NA,NA,""
"image-keyboard-response",497,397158,"0.0-3.162-0.162","arsr9nr3h5q6lsx",241,"83.csv","","325","resources/trios/L2T4A2.jpg","39","restless",0.8,0.6,0.2,0.36485961816842,"false"
"image-keyboard-response",498,397562,"0.0-3.162-1.162","arsr9nr3h5q6lsx",241,"83.csv","","null","resources/maskTrios/BBA2.jpg","null","",NA,NA,NA,NA,""
"image-keyboard-response",499,398769,"0.0-3.162-2.162","arsr9nr3h5q6lsx",241,"83.csv","","null","resources/images/fishbone.png","null","",NA,NA,NA,NA,""
"image-keyboard-response",500,399003,"0.0-3.163-0.163","arsr9nr3h5q6lsx",241,"83.csv","","231.5","resources/trios/L1T4A2.jpg","37","restless",0.8,0.6,0.2,0.504615184263301,"true"
"image-keyboard-response",501,399410,"0.0-3.163-1.163","arsr9nr3h5q6lsx",241,"83.csv","","null","resources/maskTrios/L1BB.jpg","null","",NA,NA,NA,NA,""
"image-keyboard-response",502,400614,"0.0-3.163-2.163","arsr9nr3h5q6lsx",241,"83.csv","","null","resources/images/coin2.png","null","",NA,NA,NA,NA,""
"image-keyboard-response",503,400821,"0.0-3.164-0.164","arsr9nr3h5q6lsx",241,"83.csv","","205.19999992847443","resources/trios/L1T1A3.jpg","37","restless",0.8,0.6,0.2,0.31171829413925,"true"
"image-keyboard-response",504,401224,"0.0-3.164-1.164","arsr9nr3h5q6lsx",241,"83.csv","","null","resources/maskTrios/L1BB.jpg","null","",NA,NA,NA,NA,""
"image-keyboard-response",505,402431,"0.0-3.164-2.164","arsr9nr3h5q6lsx",241,"83.csv","","null","resources/images/coin2.png","null","",NA,NA,NA,NA,""
"image-keyboard-response",506,402494,"0.0-3.165-0.165","arsr9nr3h5q6lsx",241,"83.csv","","60.299999952316284","resources/trios/L2T1A3.jpg","37","restless",0.8,0.6,0.1,0.936827115050539,"false"
"image-keyboard-response",507,402897,"0.0-3.165-1.165","arsr9nr3h5q6lsx",241,"83.csv","","null","resources/maskTrios/L2BB.jpg","null","",NA,NA,NA,NA,""
"image-keyboard-response",508,404099,"0.0-3.165-2.165","arsr9nr3h5q6lsx",241,"83.csv","","null","resources/images/fishbone.png","null","",NA,NA,NA,NA,""
"image-keyboard-response",509,404338,"0.0-3.166-0.166","arsr9nr3h5q6lsx",241,"83.csv","","237.89999997615814","resources/trios/L2T1A2.jpg","37","restless",0.8,0.6,0.1,0.962252008155871,"false"
"image-keyboard-response",510,404746,"0.0-3.166-1.166","arsr9nr3h5q6lsx",241,"83.csv","","null","resources/maskTrios/L2BB.jpg","null","",NA,NA,NA,NA,""
"image-keyboard-response",511,405953,"0.0-3.166-2.166","arsr9nr3h5q6lsx",241,"83.csv","","null","resources/images/fishbone.png","null","",NA,NA,NA,NA,""
"image-keyboard-response",512,406160,"0.0-3.167-0.167","arsr9nr3h5q6lsx",241,"83.csv","","205.30000007152557","resources/trios/L2T4A3.jpg","37","restless",0.8,0.6,0.1,0.267564909817487,"true"
"image-keyboard-response",513,406567,"0.0-3.167-1.167","arsr9nr3h5q6lsx",241,"83.csv","","null","resources/maskTrios/L2BB.jpg","null","",NA,NA,NA,NA,""
"image-keyboard-response",514,407775,"0.0-3.167-2.167","arsr9nr3h5q6lsx",241,"83.csv","","null","resources/images/coin2.png","null","",NA,NA,NA,NA,""
"image-keyboard-response",515,407865,"0.0-3.168-0.168","arsr9nr3h5q6lsx",241,"83.csv","","88.90000009536743","resources/trios/L1T4A2.jpg","37","restless",0.8,0.6,0.1,0.605824098682784,"true"
"image-keyboard-response",516,408272,"0.0-3.168-1.168","arsr9nr3h5q6lsx",241,"83.csv","","null","resources/maskTrios/L1BB.jpg","null","",NA,NA,NA,NA,""
"image-keyboard-response",517,409479,"0.0-3.168-2.168","arsr9nr3h5q6lsx",241,"83.csv","","null","resources/images/coin2.png","null","",NA,NA,NA,NA,""
"image-keyboard-response",518,409494,"0.0-3.169-0.169","arsr9nr3h5q6lsx",241,"83.csv","","12","resources/trios/L2T4A2.jpg","37","restless",0.8,0.6,0.1,0.518925981051635,"true"
"image-keyboard-response",519,409900,"0.0-3.169-1.169","arsr9nr3h5q6lsx",241,"83.csv","","null","resources/maskTrios/L2BB.jpg","null","",NA,NA,NA,NA,""
"image-keyboard-response",520,411107,"0.0-3.169-2.169","arsr9nr3h5q6lsx",241,"83.csv","","null","resources/images/coin2.png","null","",NA,NA,NA,NA,""
"image-keyboard-response",521,411198,"0.0-3.170-0.170","arsr9nr3h5q6lsx",241,"83.csv","","88.30000007152557","resources/trios/L2T4A3.jpg","37","restless",0.8,0.6,0.1,0.292946261931337,"true"
"image-keyboard-response",522,411605,"0.0-3.170-1.170","arsr9nr3h5q6lsx",241,"83.csv","","null","resources/maskTrios/L2BB.jpg","null","",NA,NA,NA,NA,""
"image-keyboard-response",523,412811,"0.0-3.170-2.170","arsr9nr3h5q6lsx",241,"83.csv","","null","resources/images/coin2.png","null","",NA,NA,NA,NA,""
"image-keyboard-response",524,412819,"0.0-3.171-0.171","arsr9nr3h5q6lsx",241,"83.csv","","5.900000095367432","resources/trios/L1T4A3.jpg","37","restless",0.8,0.6,0.1,0.538481207997066,"true"
"image-keyboard-response",525,413226,"0.0-3.171-1.171","arsr9nr3h5q6lsx",241,"83.csv","","null","resources/maskTrios/L1BB.jpg","null","",NA,NA,NA,NA,""
"image-keyboard-response",526,414434,"0.0-3.171-2.171","arsr9nr3h5q6lsx",241,"83.csv","","null","resources/images/coin2.png","null","",NA,NA,NA,NA,""
"image-keyboard-response",527,414493,"0.0-3.172-0.172","arsr9nr3h5q6lsx",241,"83.csv","","56.800000071525574","resources/trios/L2T1A2.jpg","37","restless",0.8,0.7,0.1,0.252309224637403,"true"
"image-keyboard-response",528,414899,"0.0-3.172-1.172","arsr9nr3h5q6lsx",241,"83.csv","","null","resources/maskTrios/L2BB.jpg","null","",NA,NA,NA,NA,""
"image-keyboard-response",529,416105,"0.0-3.172-2.172","arsr9nr3h5q6lsx",241,"83.csv","","null","resources/images/coin2.png","null","",NA,NA,NA,NA,""
"image-keyboard-response",530,416261,"0.0-3.173-0.173","arsr9nr3h5q6lsx",241,"83.csv","","154.79999995231628","resources/trios/L2T4A2.jpg","37","restless",0.8,0.7,0.2,0.0821453185693253,"true"
"image-keyboard-response",531,416665,"0.0-3.173-1.173","arsr9nr3h5q6lsx",241,"83.csv","","null","resources/maskTrios/L2BB.jpg","null","",NA,NA,NA,NA,""
"image-keyboard-response",532,417873,"0.0-3.173-2.173","arsr9nr3h5q6lsx",241,"83.csv","","null","resources/images/coin2.png","null","",NA,NA,NA,NA,""
"image-keyboard-response",533,417882,"0.0-3.174-0.174","arsr9nr3h5q6lsx",241,"83.csv","","6.899999976158142","resources/trios/L2T4A2.jpg","37","restless",0.8,0.7,0.2,0.745757116579029,"true"
"image-keyboard-response",534,418284,"0.0-3.174-1.174","arsr9nr3h5q6lsx",241,"83.csv","","null","resources/maskTrios/L2BB.jpg","null","",NA,NA,NA,NA,""
"image-keyboard-response",535,419491,"0.0-3.174-2.174","arsr9nr3h5q6lsx",241,"83.csv","","null","resources/images/coin2.png","null","",NA,NA,NA,NA,""
"image-keyboard-response",536,419537,"0.0-3.175-0.175","arsr9nr3h5q6lsx",241,"83.csv","","43.699999928474426","resources/trios/L1T4A2.jpg","37","restless",0.7,0.7,0.3,0.0894271858623885,"true"
"image-keyboard-response",537,419944,"0.0-3.175-1.175","arsr9nr3h5q6lsx",241,"83.csv","","null","resources/maskTrios/L1BB.jpg","null","",NA,NA,NA,NA,""
"image-keyboard-response",538,421149,"0.0-3.175-2.175","arsr9nr3h5q6lsx",241,"83.csv","","null","resources/images/coin2.png","null","",NA,NA,NA,NA,""
"image-keyboard-response",539,421155,"0.0-3.176-0.176","arsr9nr3h5q6lsx",241,"83.csv","","3.5","resources/trios/L1T4A2.jpg","37","restless",0.7,0.7,0.3,0.625249924468195,"true"
"image-keyboard-response",540,421560,"0.0-3.176-1.176","arsr9nr3h5q6lsx",241,"83.csv","","null","resources/maskTrios/L1BB.jpg","null","",NA,NA,NA,NA,""
"image-keyboard-response",541,422767,"0.0-3.176-2.176","arsr9nr3h5q6lsx",241,"83.csv","","null","resources/images/coin2.png","null","",NA,NA,NA,NA,""
"image-keyboard-response",542,422804,"0.0-3.177-0.177","arsr9nr3h5q6lsx",241,"83.csv","","34.200000047683716","resources/trios/L2T4A2.jpg","37","restless",0.7,0.7,0.3,0.119411122335354,"true"
"image-keyboard-response",543,423209,"0.0-3.177-1.177","arsr9nr3h5q6lsx",241,"83.csv","","null","resources/maskTrios/L2BB.jpg","null","",NA,NA,NA,NA,""
"image-keyboard-response",544,424413,"0.0-3.177-2.177","arsr9nr3h5q6lsx",241,"83.csv","","null","resources/images/coin2.png","null","",NA,NA,NA,NA,""
"image-keyboard-response",545,424496,"0.0-3.178-0.178","arsr9nr3h5q6lsx",241,"83.csv","","81.10000002384186","resources/trios/L1T1A2.jpg","37","restless",0.7,0.7,0.3,0.8656624123939,"false"
"image-keyboard-response",546,424899,"0.0-3.178-1.178","arsr9nr3h5q6lsx",241,"83.csv","","null","resources/maskTrios/L1BB.jpg","null","",NA,NA,NA,NA,""
"image-keyboard-response",547,426101,"0.0-3.178-2.178","arsr9nr3h5q6lsx",241,"83.csv","","null","resources/images/fishbone.png","null","",NA,NA,NA,NA,""
"image-keyboard-response",548,426210,"0.0-3.179-0.179","arsr9nr3h5q6lsx",241,"83.csv","","106.5","resources/trios/L2T4A2.jpg","37","restless",0.6,0.7,0.4,0.651136252341281,"false"
"image-keyboard-response",549,426614,"0.0-3.179-1.179","arsr9nr3h5q6lsx",241,"83.csv","","null","resources/maskTrios/L2BB.jpg","null","",NA,NA,NA,NA,""
"image-keyboard-response",550,427821,"0.0-3.179-2.179","arsr9nr3h5q6lsx",241,"83.csv","","null","resources/images/fishbone.png","null","",NA,NA,NA,NA,""
"image-keyboard-response",551,427846,"0.0-3.180-0.180","arsr9nr3h5q6lsx",241,"83.csv","","23.199999928474426","resources/trios/L2T4A2.jpg","39","restless",0.6,0.7,0.4,0.833863310112032,"false"
"image-keyboard-response",552,428251,"0.0-3.180-1.180","arsr9nr3h5q6lsx",241,"83.csv","","null","resources/maskTrios/BBA2.jpg","null","",NA,NA,NA,NA,""
"image-keyboard-response",553,429456,"0.0-3.180-2.180","arsr9nr3h5q6lsx",241,"83.csv","","null","resources/images/fishbone.png","null","",NA,NA,NA,NA,""
"image-keyboard-response",554,431180,"0.0-3.181-0.181","arsr9nr3h5q6lsx",241,"83.csv","","1721.3999999761581","resources/trios/L1T1A2.jpg","38","restless",0.6,0.7,0.5,0.907514971329611,"false"
"image-keyboard-response",555,431587,"0.0-3.181-1.181","arsr9nr3h5q6lsx",241,"83.csv","","null","resources/maskTrios/BT1B.jpg","null","",NA,NA,NA,NA,""
"image-keyboard-response",556,432790,"0.0-3.181-2.181","arsr9nr3h5q6lsx",241,"83.csv","","null","resources/images/fishbone.png","null","",NA,NA,NA,NA,""
"image-keyboard-response",557,432818,"0.0-3.182-0.182","arsr9nr3h5q6lsx",241,"83.csv","","26.800000071525574","resources/trios/L1T4A3.jpg","38","restless",0.6,0.7,0.5,0.611694868142994,"true"
"image-keyboard-response",558,433224,"0.0-3.182-1.182","arsr9nr3h5q6lsx",241,"83.csv","","null","resources/maskTrios/BT4B.jpg","null","",NA,NA,NA,NA,""
"image-keyboard-response",559,434431,"0.0-3.182-2.182","arsr9nr3h5q6lsx",241,"83.csv","","null","resources/images/coin2.png","null","",NA,NA,NA,NA,""
"image-keyboard-response",560,434708,"0.0-3.183-0.183","arsr9nr3h5q6lsx",241,"83.csv","","275.10000002384186","resources/trios/L1T4A2.jpg","38","restless",0.6,0.7,0.5,0.465902547388585,"true"
"image-keyboard-response",561,435115,"0.0-3.183-1.183","arsr9nr3h5q6lsx",241,"83.csv","","null","resources/maskTrios/BT4B.jpg","null","",NA,NA,NA,NA,""
"image-keyboard-response",562,436322,"0.0-3.183-2.183","arsr9nr3h5q6lsx",241,"83.csv","","null","resources/images/coin2.png","null","",NA,NA,NA,NA,""
"image-keyboard-response",563,436397,"0.0-3.184-0.184","arsr9nr3h5q6lsx",241,"83.csv","","72.5","resources/trios/L1T4A2.jpg","38","restless",0.6,0.6,0.5,0.309477450206479,"true"
"image-keyboard-response",564,436800,"0.0-3.184-1.184","arsr9nr3h5q6lsx",241,"83.csv","","null","resources/maskTrios/BT4B.jpg","null","",NA,NA,NA,NA,""
"image-keyboard-response",565,438003,"0.0-3.184-2.184","arsr9nr3h5q6lsx",241,"83.csv","","null","resources/images/coin2.png","null","",NA,NA,NA,NA,""
"image-keyboard-response",566,438072,"0.0-3.185-0.185","arsr9nr3h5q6lsx",241,"83.csv","","67.5","resources/trios/L2T1A3.jpg","38","restless",0.6,0.6,0.5,0.947124536293811,"false"
"image-keyboard-response",567,438478,"0.0-3.185-1.185","arsr9nr3h5q6lsx",241,"83.csv","","null","resources/maskTrios/BT1B.jpg","null","",NA,NA,NA,NA,""
"image-keyboard-response",568,439682,"0.0-3.185-2.185","arsr9nr3h5q6lsx",241,"83.csv","","null","resources/images/fishbone.png","null","",NA,NA,NA,NA,""
"image-keyboard-response",569,439692,"0.0-3.186-0.186","arsr9nr3h5q6lsx",241,"83.csv","","7.900000095367432","resources/trios/L1T4A3.jpg","37","restless",0.6,0.6,0.5,0.443345731027142,"true"
"image-keyboard-response",570,440098,"0.0-3.186-1.186","arsr9nr3h5q6lsx",241,"83.csv","","null","resources/maskTrios/L1BB.jpg","null","",NA,NA,NA,NA,""
"image-keyboard-response",571,441300,"0.0-3.186-2.186","arsr9nr3h5q6lsx",241,"83.csv","","null","resources/images/coin2.png","null","",NA,NA,NA,NA,""
"image-keyboard-response",572,441347,"0.0-3.187-0.187","arsr9nr3h5q6lsx",241,"83.csv","","44.59999990463257","resources/trios/L1T4A3.jpg","37","restless",0.6,0.6,0.5,0.800323560839551,"false"
"image-keyboard-response",573,441754,"0.0-3.187-1.187","arsr9nr3h5q6lsx",241,"83.csv","","null","resources/maskTrios/L1BB.jpg","null","",NA,NA,NA,NA,""
"image-keyboard-response",574,442961,"0.0-3.187-2.187","arsr9nr3h5q6lsx",241,"83.csv","","null","resources/images/fishbone.png","null","",NA,NA,NA,NA,""
"image-keyboard-response",575,443300,"0.0-3.188-0.188","arsr9nr3h5q6lsx",241,"83.csv","","337.10000002384186","resources/trios/L1T4A2.jpg","39","restless",0.6,0.6,0.5,0.680963667284581,"false"
"image-keyboard-response",576,443702,"0.0-3.188-1.188","arsr9nr3h5q6lsx",241,"83.csv","","null","resources/maskTrios/BBA2.jpg","null","",NA,NA,NA,NA,""
"image-keyboard-response",577,444905,"0.0-3.188-2.188","arsr9nr3h5q6lsx",241,"83.csv","","null","resources/images/fishbone.png","null","",NA,NA,NA,NA,""
"image-keyboard-response",578,444970,"0.0-3.189-0.189","arsr9nr3h5q6lsx",241,"83.csv","","63.299999952316284","resources/trios/L1T1A2.jpg","37","restless",0.5,0.6,0.5,0.391020970352215,"true"
"image-keyboard-response",579,445374,"0.0-3.189-1.189","arsr9nr3h5q6lsx",241,"83.csv","","null","resources/maskTrios/L1BB.jpg","null","",NA,NA,NA,NA,""
"image-keyboard-response",580,446581,"0.0-3.189-2.189","arsr9nr3h5q6lsx",241,"83.csv","","null","resources/images/coin2.png","null","",NA,NA,NA,NA,""
"image-keyboard-response",581,446851,"0.0-3.190-0.190","arsr9nr3h5q6lsx",241,"83.csv","","267.2000000476837","resources/trios/L2T4A3.jpg","37","restless",0.5,0.6,0.5,0.0374577036464414,"true"
"image-keyboard-response",582,447258,"0.0-3.190-1.190","arsr9nr3h5q6lsx",241,"83.csv","","null","resources/maskTrios/L2BB.jpg","null","",NA,NA,NA,NA,""
"image-keyboard-response",583,448466,"0.0-3.190-2.190","arsr9nr3h5q6lsx",241,"83.csv","","null","resources/images/coin2.png","null","",NA,NA,NA,NA,""
"image-keyboard-response",584,448527,"0.0-3.191-0.191","arsr9nr3h5q6lsx",241,"83.csv","","59","resources/trios/L1T4A2.jpg","37","restless",0.5,0.7,0.5,0.900897839403122,"false"
"image-keyboard-response",585,448934,"0.0-3.191-1.191","arsr9nr3h5q6lsx",241,"83.csv","","null","resources/maskTrios/L1BB.jpg","null","",NA,NA,NA,NA,""
"image-keyboard-response",586,450141,"0.0-3.191-2.191","arsr9nr3h5q6lsx",241,"83.csv","","null","resources/images/fishbone.png","null","",NA,NA,NA,NA,""
"image-keyboard-response",587,450294,"0.0-3.192-0.192","arsr9nr3h5q6lsx",241,"83.csv","","151.10000002384186","resources/trios/L1T1A3.jpg","38","restless",0.5,0.7,0.5,0.0342510508428577,"true"
"image-keyboard-response",588,450702,"0.0-3.192-1.192","arsr9nr3h5q6lsx",241,"83.csv","","null","resources/maskTrios/BT1B.jpg","null","",NA,NA,NA,NA,""
"image-keyboard-response",589,451908,"0.0-3.192-2.192","arsr9nr3h5q6lsx",241,"83.csv","","null","resources/images/coin2.png","null","",NA,NA,NA,NA,""
"image-keyboard-response",590,451999,"0.0-3.193-0.193","arsr9nr3h5q6lsx",241,"83.csv","","88.20000004768372","resources/trios/L1T4A2.jpg","37","restless",0.5,0.7,0.5,0.729173138103822,"false"
"image-keyboard-response",591,452406,"0.0-3.193-1.193","arsr9nr3h5q6lsx",241,"83.csv","","null","resources/maskTrios/L1BB.jpg","null","",NA,NA,NA,NA,""
"image-keyboard-response",592,453613,"0.0-3.193-2.193","arsr9nr3h5q6lsx",241,"83.csv","","null","resources/images/fishbone.png","null","",NA,NA,NA,NA,""
"image-keyboard-response",593,453869,"0.0-3.194-0.194","arsr9nr3h5q6lsx",241,"83.csv","","253.60000002384186","resources/trios/L2T4A2.jpg","38","restless",0.5,0.7,0.5,0.0680767298204601,"true"
"image-keyboard-response",594,454276,"0.0-3.194-1.194","arsr9nr3h5q6lsx",241,"83.csv","","null","resources/maskTrios/BT4B.jpg","null","",NA,NA,NA,NA,""
"image-keyboard-response",595,455480,"0.0-3.194-2.194","arsr9nr3h5q6lsx",241,"83.csv","","null","resources/images/coin2.png","null","",NA,NA,NA,NA,""
"image-keyboard-response",596,455697,"0.0-3.195-0.195","arsr9nr3h5q6lsx",241,"83.csv","","215.10000002384186","resources/trios/L2T1A2.jpg","38","restless",0.5,0.7,0.5,0.387120913543427,"true"
"image-keyboard-response",597,456099,"0.0-3.195-1.195","arsr9nr3h5q6lsx",241,"83.csv","","null","resources/maskTrios/BT1B.jpg","null","",NA,NA,NA,NA,""
"image-keyboard-response",598,457305,"0.0-3.195-2.195","arsr9nr3h5q6lsx",241,"83.csv","","null","resources/images/coin2.png","null","",NA,NA,NA,NA,""
"image-keyboard-response",599,457361,"0.0-3.196-0.196","arsr9nr3h5q6lsx",241,"83.csv","","53.60000002384186","resources/trios/L2T4A2.jpg","38","restless",0.4,0.7,0.5,0.635166575893816,"true"
"image-keyboard-response",600,457765,"0.0-3.196-1.196","arsr9nr3h5q6lsx",241,"83.csv","","null","resources/maskTrios/BT4B.jpg","null","",NA,NA,NA,NA,""
"image-keyboard-response",601,458971,"0.0-3.196-2.196","arsr9nr3h5q6lsx",241,"83.csv","","null","resources/images/coin2.png","null","",NA,NA,NA,NA,""
"image-keyboard-response",602,459164,"0.0-3.197-0.197","arsr9nr3h5q6lsx",241,"83.csv","","189.89999997615814","resources/trios/L1T1A2.jpg","38","restless",0.4,0.7,0.4,0.519411953824945,"true"
"image-keyboard-response",603,459571,"0.0-3.197-1.197","arsr9nr3h5q6lsx",241,"83.csv","","null","resources/maskTrios/BT1B.jpg","null","",NA,NA,NA,NA,""
"image-keyboard-response",604,460778,"0.0-3.197-2.197","arsr9nr3h5q6lsx",241,"83.csv","","null","resources/images/coin2.png","null","",NA,NA,NA,NA,""
"image-keyboard-response",605,460892,"0.0-3.198-0.198","arsr9nr3h5q6lsx",241,"83.csv","","111","resources/trios/L1T1A2.jpg","38","restless",0.4,0.7,0.4,0.684231077774029,"true"
"image-keyboard-response",606,461298,"0.0-3.198-1.198","arsr9nr3h5q6lsx",241,"83.csv","","null","resources/maskTrios/BT1B.jpg","null","",NA,NA,NA,NA,""
"image-keyboard-response",607,462505,"0.0-3.198-2.198","arsr9nr3h5q6lsx",241,"83.csv","","null","resources/images/coin2.png","null","",NA,NA,NA,NA,""
"image-keyboard-response",608,462786,"0.0-3.199-0.199","arsr9nr3h5q6lsx",241,"83.csv","","278.3000000715256","resources/trios/L1T4A3.jpg","38","restless",0.4,0.7,0.4,0.0350095850666996,"true"
"image-keyboard-response",609,463193,"0.0-3.199-1.199","arsr9nr3h5q6lsx",241,"83.csv","","null","resources/maskTrios/BT4B.jpg","null","",NA,NA,NA,NA,""
