"trial_type","trial_index","time_elapsed","internal_node_id","subject","participantCode","walkNumber","success","rt","stimulus","key_press","test_part","leftProb","midProb","rightProb","generatedNum","correct"
"pavlovia",0,996,"0.0-0.0","t9rqkczb733s42z",394,"152.csv","","","","","",NA,NA,NA,NA,""
"fullscreen",1,4455,"0.0-1.0","t9rqkczb733s42z",394,"152.csv","true","","","","",NA,NA,NA,NA,""
"html-keyboard-response",2,11081,"0.0-2.0-0.0","t9rqkczb733s42z",394,"152.csv","","6624.400000002235","<p><font size='6'>Arrrgh!</p></font><p>Can you be the best pirate? Try to find lots of gold! But beware, some islands have more gold than others, and over time, the island with the most gold may change. Can YOU figure it out? </p><font size='6'>GOOD LUCK, CAPTAIN!!!</font><p>Press any key to begin</p>","32","",NA,NA,NA,NA,""
"image-keyboard-response",3,14088,"0.0-2.0-1.0","t9rqkczb733s42z",394,"152.csv","","null","resources/image_sets/111.png","null","",NA,NA,NA,NA,""
"image-keyboard-response",4,17405,"0.0-2.0-2.0","t9rqkczb733s42z",394,"152.csv","","3315.2000000029802","resources/image_sets/left_highlight.png","37","",NA,NA,NA,NA,""
"image-keyboard-response",5,23149,"0.0-2.0-3.0","t9rqkczb733s42z",394,"152.csv","","5742.39999999851","resources/image_sets/mid_highlight.png","38","",NA,NA,NA,NA,""
"image-keyboard-response",6,24901,"0.0-2.0-4.0","t9rqkczb733s42z",394,"152.csv","","1750.5","resources/image_sets/right_highlight.png","39","",NA,NA,NA,NA,""
"image-keyboard-response",7,29237,"0.0-2.0-5.0","t9rqkczb733s42z",394,"152.csv","","4333.89999999851","resources/image_sets/111.png","13","",NA,NA,NA,NA,""
"image-keyboard-response",8,30924,"0.0-2.0-6.0","t9rqkczb733s42z",394,"152.csv","","1685.1000000014901","resources/images/coin2.png","13","",NA,NA,NA,NA,""
"image-keyboard-response",9,32836,"0.0-2.0-7.0","t9rqkczb733s42z",394,"152.csv","","1911.199999999255","resources/images/fishbone.png","13","",NA,NA,NA,NA,""
"html-keyboard-response",10,38071,"0.0-2.0-8.0","t9rqkczb733s42z",394,"152.csv","","5233.199999999255","<p>Your first journey will be a long one, but you will get a well deserved break at the end</p><p>After the break you will have four more journeys, but each will be much shorter than the first, and you will have breaks in between each</p><p>Press Enter to begin</p>","13","",NA,NA,NA,NA,""
"image-keyboard-response",11,39692,"0.0-3.0-0.0","t9rqkczb733s42z",394,"152.csv","","1619.8999999985099","resources/trios/L1T1A2.jpg","37","restless",0.9,0.3,0.7,0.582414151615003,"true"
"image-keyboard-response",12,40099,"0.0-3.0-1.0","t9rqkczb733s42z",394,"152.csv","","null","resources/maskTrios/L1BB.jpg","null","",NA,NA,NA,NA,""
"image-keyboard-response",13,41304,"0.0-3.0-2.0","t9rqkczb733s42z",394,"152.csv","","null","resources/images/coin2.png","null","",NA,NA,NA,NA,""
"image-keyboard-response",14,44256,"0.0-3.1-0.1","t9rqkczb733s42z",394,"152.csv","","2948.89999999851","resources/trios/L4T2A1.jpg","38","restless",0.9,0.3,0.7,0.480573454884961,"false"
"image-keyboard-response",15,44663,"0.0-3.1-1.1","t9rqkczb733s42z",394,"152.csv","","null","resources/maskTrios/BT2B.jpg","null","",NA,NA,NA,NA,""
"image-keyboard-response",16,45868,"0.0-3.1-2.1","t9rqkczb733s42z",394,"152.csv","","null","resources/images/fishbone.png","null","",NA,NA,NA,NA,""
"image-keyboard-response",17,47669,"0.0-3.2-0.2","t9rqkczb733s42z",394,"152.csv","","1799.0999999977648","resources/trios/L4T2A1.jpg","37","restless",0.9,0.3,0.7,0.969869281473943,"false"
"image-keyboard-response",18,48077,"0.0-3.2-1.2","t9rqkczb733s42z",394,"152.csv","","null","resources/maskTrios/L4BB.jpg","null","",NA,NA,NA,NA,""
"image-keyboard-response",19,49279,"0.0-3.2-2.2","t9rqkczb733s42z",394,"152.csv","","null","resources/images/fishbone.png","null","",NA,NA,NA,NA,""
"image-keyboard-response",20,51898,"0.0-3.3-0.3","t9rqkczb733s42z",394,"152.csv","","2616.60000000149","resources/trios/L4T1A2.jpg","38","restless",0.9,0.3,0.7,0.766571275220016,"false"
"image-keyboard-response",21,52305,"0.0-3.3-1.3","t9rqkczb733s42z",394,"152.csv","","null","resources/maskTrios/BT1B.jpg","null","",NA,NA,NA,NA,""
"image-keyboard-response",22,53511,"0.0-3.3-2.3","t9rqkczb733s42z",394,"152.csv","","null","resources/images/fishbone.png","null","",NA,NA,NA,NA,""
"image-keyboard-response",23,55492,"0.0-3.4-0.4","t9rqkczb733s42z",394,"152.csv","","1978.8999999985099","resources/trios/L4T2A2.jpg","39","restless",0.9,0.3,0.7,0.480524679757616,"true"
"image-keyboard-response",24,55895,"0.0-3.4-1.4","t9rqkczb733s42z",394,"152.csv","","null","resources/maskTrios/BBA2.jpg","null","",NA,NA,NA,NA,""
"image-keyboard-response",25,57102,"0.0-3.4-2.4","t9rqkczb733s42z",394,"152.csv","","null","resources/images/coin2.png","null","",NA,NA,NA,NA,""
"image-keyboard-response",26,59523,"0.0-3.5-0.5","t9rqkczb733s42z",394,"152.csv","","2418.89999999851","resources/trios/L4T2A1.jpg","38","restless",0.9,0.4,0.7,0.208590741974279,"true"
"image-keyboard-response",27,59929,"0.0-3.5-1.5","t9rqkczb733s42z",394,"152.csv","","null","resources/maskTrios/BT2B.jpg","null","",NA,NA,NA,NA,""
"image-keyboard-response",28,61136,"0.0-3.5-2.5","t9rqkczb733s42z",394,"152.csv","","null","resources/images/coin2.png","null","",NA,NA,NA,NA,""
"image-keyboard-response",29,62346,"0.0-3.6-0.6","t9rqkczb733s42z",394,"152.csv","","1208","resources/trios/L4T1A2.jpg","37","restless",0.9,0.4,0.7,0.618215378996482,"true"
"image-keyboard-response",30,62749,"0.0-3.6-1.6","t9rqkczb733s42z",394,"152.csv","","null","resources/maskTrios/L4BB.jpg","null","",NA,NA,NA,NA,""
"image-keyboard-response",31,63951,"0.0-3.6-2.6","t9rqkczb733s42z",394,"152.csv","","null","resources/images/coin2.png","null","",NA,NA,NA,NA,""
"image-keyboard-response",32,65583,"0.0-3.7-0.7","t9rqkczb733s42z",394,"152.csv","","1629.5","resources/trios/L1T1A1.jpg","38","restless",0.8,0.4,0.7,0.421132388754183,"false"
"image-keyboard-response",33,65990,"0.0-3.7-1.7","t9rqkczb733s42z",394,"152.csv","","null","resources/maskTrios/BT1B.jpg","null","",NA,NA,NA,NA,""
"image-keyboard-response",34,67193,"0.0-3.7-2.7","t9rqkczb733s42z",394,"152.csv","","null","resources/images/fishbone.png","null","",NA,NA,NA,NA,""
"image-keyboard-response",35,68449,"0.0-3.8-0.8","t9rqkczb733s42z",394,"152.csv","","1254.4000000022352","resources/trios/L4T2A1.jpg","38","restless",0.8,0.4,0.7,0.0211722672799339,"true"
"image-keyboard-response",36,68852,"0.0-3.8-1.8","t9rqkczb733s42z",394,"152.csv","","null","resources/maskTrios/BT2B.jpg","null","",NA,NA,NA,NA,""
"image-keyboard-response",37,70059,"0.0-3.8-2.8","t9rqkczb733s42z",394,"152.csv","","null","resources/images/coin2.png","null","",NA,NA,NA,NA,""
"image-keyboard-response",38,71731,"0.0-3.9-0.9","t9rqkczb733s42z",394,"152.csv","","1669.5999999977648","resources/trios/L1T2A1.jpg","37","restless",0.8,0.4,0.7,0.800306671843804,"false"
"image-keyboard-response",39,72133,"0.0-3.9-1.9","t9rqkczb733s42z",394,"152.csv","","null","resources/maskTrios/L1BB.jpg","null","",NA,NA,NA,NA,""
"image-keyboard-response",40,73337,"0.0-3.9-2.9","t9rqkczb733s42z",394,"152.csv","","null","resources/images/fishbone.png","null","",NA,NA,NA,NA,""
"image-keyboard-response",41,74483,"0.0-3.10-0.10","t9rqkczb733s42z",394,"152.csv","","1143.800000000745","resources/trios/L4T1A1.jpg","38","restless",0.8,0.4,0.7,0.960249993317106,"false"
"image-keyboard-response",42,74889,"0.0-3.10-1.10","t9rqkczb733s42z",394,"152.csv","","null","resources/maskTrios/BT1B.jpg","null","",NA,NA,NA,NA,""
"image-keyboard-response",43,76093,"0.0-3.10-2.10","t9rqkczb733s42z",394,"152.csv","","null","resources/images/fishbone.png","null","",NA,NA,NA,NA,""
"image-keyboard-response",44,76628,"0.0-3.11-0.11","t9rqkczb733s42z",394,"152.csv","","533","resources/trios/L1T2A2.jpg","39","restless",0.8,0.4,0.7,0.2844910215995,"true"
"image-keyboard-response",45,77035,"0.0-3.11-1.11","t9rqkczb733s42z",394,"152.csv","","null","resources/maskTrios/BBA2.jpg","null","",NA,NA,NA,NA,""
"image-keyboard-response",46,78240,"0.0-3.11-2.11","t9rqkczb733s42z",394,"152.csv","","null","resources/images/coin2.png","null","",NA,NA,NA,NA,""
"image-keyboard-response",47,78815,"0.0-3.12-0.12","t9rqkczb733s42z",394,"152.csv","","574.0999999977648","resources/trios/L1T1A1.jpg","37","restless",0.8,0.4,0.7,0.141276493577968,"true"
"image-keyboard-response",48,79218,"0.0-3.12-1.12","t9rqkczb733s42z",394,"152.csv","","null","resources/maskTrios/L1BB.jpg","null","",NA,NA,NA,NA,""
"image-keyboard-response",49,80425,"0.0-3.12-2.12","t9rqkczb733s42z",394,"152.csv","","null","resources/images/coin2.png","null","",NA,NA,NA,NA,""
"image-keyboard-response",50,80821,"0.0-3.13-0.13","t9rqkczb733s42z",394,"152.csv","","394.3999999985099","resources/trios/L4T1A2.jpg","38","restless",0.7,0.4,0.7,0.745074910713949,"false"
"image-keyboard-response",51,81228,"0.0-3.13-1.13","t9rqkczb733s42z",394,"152.csv","","null","resources/maskTrios/BT1B.jpg","null","",NA,NA,NA,NA,""
"image-keyboard-response",52,82431,"0.0-3.13-2.13","t9rqkczb733s42z",394,"152.csv","","null","resources/images/fishbone.png","null","",NA,NA,NA,NA,""
"image-keyboard-response",53,83032,"0.0-3.14-0.14","t9rqkczb733s42z",394,"152.csv","","599.4000000022352","resources/trios/L4T2A2.jpg","37","restless",0.7,0.4,0.7,0.881714204102918,"false"
"image-keyboard-response",54,83436,"0.0-3.14-1.14","t9rqkczb733s42z",394,"152.csv","","null","resources/maskTrios/L4BB.jpg","null","",NA,NA,NA,NA,""
"image-keyboard-response",55,84640,"0.0-3.14-2.14","t9rqkczb733s42z",394,"152.csv","","null","resources/images/fishbone.png","null","",NA,NA,NA,NA,""
"image-keyboard-response",56,85834,"0.0-3.15-0.15","t9rqkczb733s42z",394,"152.csv","","1191.7999999970198","resources/trios/L4T1A2.jpg","37","restless",0.7,0.4,0.7,0.969084604849572,"false"
"image-keyboard-response",57,86241,"0.0-3.15-1.15","t9rqkczb733s42z",394,"152.csv","","null","resources/maskTrios/L4BB.jpg","null","",NA,NA,NA,NA,""
"image-keyboard-response",58,87443,"0.0-3.15-2.15","t9rqkczb733s42z",394,"152.csv","","null","resources/images/fishbone.png","null","",NA,NA,NA,NA,""
"image-keyboard-response",59,87805,"0.0-3.16-0.16","t9rqkczb733s42z",394,"152.csv","","361","resources/trios/L4T1A1.jpg","37","restless",0.7,0.4,0.7,0.000146512138543775,"true"
"image-keyboard-response",60,88212,"0.0-3.16-1.16","t9rqkczb733s42z",394,"152.csv","","null","resources/maskTrios/L4BB.jpg","null","",NA,NA,NA,NA,""
"image-keyboard-response",61,89418,"0.0-3.16-2.16","t9rqkczb733s42z",394,"152.csv","","null","resources/images/coin2.png","null","",NA,NA,NA,NA,""
"image-keyboard-response",62,90065,"0.0-3.17-0.17","t9rqkczb733s42z",394,"152.csv","","645.5","resources/trios/L4T1A2.jpg","39","restless",0.7,0.4,0.8,0.609176311683633,"true"
"image-keyboard-response",63,90472,"0.0-3.17-1.17","t9rqkczb733s42z",394,"152.csv","","null","resources/maskTrios/BBA2.jpg","null","",NA,NA,NA,NA,""
"image-keyboard-response",64,91677,"0.0-3.17-2.17","t9rqkczb733s42z",394,"152.csv","","null","resources/images/coin2.png","null","",NA,NA,NA,NA,""
"image-keyboard-response",65,92043,"0.0-3.18-0.18","t9rqkczb733s42z",394,"152.csv","","364.1000000014901","resources/trios/L1T2A1.jpg","38","restless",0.6,0.4,0.8,0.0551063706710326,"true"
"image-keyboard-response",66,92450,"0.0-3.18-1.18","t9rqkczb733s42z",394,"152.csv","","null","resources/maskTrios/BT2B.jpg","null","",NA,NA,NA,NA,""
"image-keyboard-response",67,93655,"0.0-3.18-2.18","t9rqkczb733s42z",394,"152.csv","","null","resources/images/coin2.png","null","",NA,NA,NA,NA,""
"image-keyboard-response",68,94274,"0.0-3.19-0.19","t9rqkczb733s42z",394,"152.csv","","617.1999999992549","resources/trios/L4T2A1.jpg","39","restless",0.6,0.4,0.8,0.272897958356217,"true"
"image-keyboard-response",69,94681,"0.0-3.19-1.19","t9rqkczb733s42z",394,"152.csv","","null","resources/maskTrios/BBA1.jpg","null","",NA,NA,NA,NA,""
"image-keyboard-response",70,95884,"0.0-3.19-2.19","t9rqkczb733s42z",394,"152.csv","","null","resources/images/coin2.png","null","",NA,NA,NA,NA,""
"image-keyboard-response",71,96329,"0.0-3.20-0.20","t9rqkczb733s42z",394,"152.csv","","443.3999999985099","resources/trios/L1T2A1.jpg","38","restless",0.6,0.4,0.8,0.856394073952266,"false"
"image-keyboard-response",72,96734,"0.0-3.20-1.20","t9rqkczb733s42z",394,"152.csv","","null","resources/maskTrios/BT2B.jpg","null","",NA,NA,NA,NA,""
"image-keyboard-response",73,97941,"0.0-3.20-2.20","t9rqkczb733s42z",394,"152.csv","","null","resources/images/fishbone.png","null","",NA,NA,NA,NA,""
"image-keyboard-response",74,98377,"0.0-3.21-0.21","t9rqkczb733s42z",394,"152.csv","","434.1000000014901","resources/trios/L1T2A1.jpg","37","restless",0.6,0.4,0.8,0.22962889693383,"true"
"image-keyboard-response",75,98778,"0.0-3.21-1.21","t9rqkczb733s42z",394,"152.csv","","null","resources/maskTrios/L1BB.jpg","null","",NA,NA,NA,NA,""
"image-keyboard-response",76,99982,"0.0-3.21-2.21","t9rqkczb733s42z",394,"152.csv","","null","resources/images/coin2.png","null","",NA,NA,NA,NA,""
"image-keyboard-response",77,100955,"0.0-3.22-0.22","t9rqkczb733s42z",394,"152.csv","","971.1000000014901","resources/trios/L4T1A2.jpg","37","restless",0.6,0.4,0.8,0.0885876293092602,"true"
"image-keyboard-response",78,101361,"0.0-3.22-1.22","t9rqkczb733s42z",394,"152.csv","","null","resources/maskTrios/L4BB.jpg","null","",NA,NA,NA,NA,""
"image-keyboard-response",79,102564,"0.0-3.22-2.22","t9rqkczb733s42z",394,"152.csv","","null","resources/images/coin2.png","null","",NA,NA,NA,NA,""
"image-keyboard-response",80,103861,"0.0-3.23-0.23","t9rqkczb733s42z",394,"152.csv","","1294.7000000029802","resources/trios/L4T2A2.jpg","37","restless",0.6,0.4,0.8,0.557348376559036,"true"
"image-keyboard-response",81,104266,"0.0-3.23-1.23","t9rqkczb733s42z",394,"152.csv","","null","resources/maskTrios/L4BB.jpg","null","",NA,NA,NA,NA,""
"image-keyboard-response",82,105473,"0.0-3.23-2.23","t9rqkczb733s42z",394,"152.csv","","null","resources/images/coin2.png","null","",NA,NA,NA,NA,""
"image-keyboard-response",83,106472,"0.0-3.24-0.24","t9rqkczb733s42z",394,"152.csv","","997.0999999977648","resources/trios/L1T1A1.jpg","39","restless",0.6,0.4,0.7,0.108638281730323,"true"
"image-keyboard-response",84,106877,"0.0-3.24-1.24","t9rqkczb733s42z",394,"152.csv","","null","resources/maskTrios/BBA1.jpg","null","",NA,NA,NA,NA,""
"image-keyboard-response",85,108084,"0.0-3.24-2.24","t9rqkczb733s42z",394,"152.csv","","null","resources/images/coin2.png","null","",NA,NA,NA,NA,""
"image-keyboard-response",86,109381,"0.0-3.25-0.25","t9rqkczb733s42z",394,"152.csv","","1295.1000000014901","resources/trios/L1T2A2.jpg","38","restless",0.6,0.4,0.7,0.842966658434236,"false"
"image-keyboard-response",87,109784,"0.0-3.25-1.25","t9rqkczb733s42z",394,"152.csv","","null","resources/maskTrios/BT2B.jpg","null","",NA,NA,NA,NA,""
"image-keyboard-response",88,110986,"0.0-3.25-2.25","t9rqkczb733s42z",394,"152.csv","","null","resources/images/fishbone.png","null","",NA,NA,NA,NA,""
"image-keyboard-response",89,111418,"0.0-3.26-0.26","t9rqkczb733s42z",394,"152.csv","","430.9000000022352","resources/trios/L4T2A1.jpg","39","restless",0.6,0.4,0.7,0.790674414451224,"false"
"image-keyboard-response",90,111824,"0.0-3.26-1.26","t9rqkczb733s42z",394,"152.csv","","null","resources/maskTrios/BBA1.jpg","null","",NA,NA,NA,NA,""
"image-keyboard-response",91,113030,"0.0-3.26-2.26","t9rqkczb733s42z",394,"152.csv","","null","resources/images/fishbone.png","null","",NA,NA,NA,NA,""
"image-keyboard-response",92,113587,"0.0-3.27-0.27","t9rqkczb733s42z",394,"152.csv","","554.3000000007451","resources/trios/L1T2A2.jpg","37","restless",0.6,0.4,0.7,0.818730721516638,"false"
"image-keyboard-response",93,113994,"0.0-3.27-1.27","t9rqkczb733s42z",394,"152.csv","","null","resources/maskTrios/L1BB.jpg","null","",NA,NA,NA,NA,""
"image-keyboard-response",94,115199,"0.0-3.27-2.27","t9rqkczb733s42z",394,"152.csv","","null","resources/images/fishbone.png","null","",NA,NA,NA,NA,""
"image-keyboard-response",95,115768,"0.0-3.28-0.28","t9rqkczb733s42z",394,"152.csv","","567.3999999985099","resources/trios/L4T2A2.jpg","38","restless",0.6,0.4,0.7,0.962361177811976,"false"
"image-keyboard-response",96,116172,"0.0-3.28-1.28","t9rqkczb733s42z",394,"152.csv","","null","resources/maskTrios/BT2B.jpg","null","",NA,NA,NA,NA,""
"image-keyboard-response",97,117378,"0.0-3.28-2.28","t9rqkczb733s42z",394,"152.csv","","null","resources/images/fishbone.png","null","",NA,NA,NA,NA,""
"image-keyboard-response",98,117682,"0.0-3.29-0.29","t9rqkczb733s42z",394,"152.csv","","301.5999999977648","resources/trios/L4T2A2.jpg","39","restless",0.6,0.4,0.7,0.0203742245174539,"true"
"image-keyboard-response",99,118089,"0.0-3.29-1.29","t9rqkczb733s42z",394,"152.csv","","null","resources/maskTrios/BBA2.jpg","null","",NA,NA,NA,NA,""
"image-keyboard-response",100,119294,"0.0-3.29-2.29","t9rqkczb733s42z",394,"152.csv","","null","resources/images/coin2.png","null","",NA,NA,NA,NA,""
"image-keyboard-response",101,119632,"0.0-3.30-0.30","t9rqkczb733s42z",394,"152.csv","","335.8999999985099","resources/trios/L4T1A1.jpg","39","restless",0.6,0.4,0.7,0.104613299668143,"true"
"image-keyboard-response",102,120035,"0.0-3.30-1.30","t9rqkczb733s42z",394,"152.csv","","null","resources/maskTrios/BBA1.jpg","null","",NA,NA,NA,NA,""
"image-keyboard-response",103,121241,"0.0-3.30-2.30","t9rqkczb733s42z",394,"152.csv","","null","resources/images/coin2.png","null","",NA,NA,NA,NA,""
"image-keyboard-response",104,121654,"0.0-3.31-0.31","t9rqkczb733s42z",394,"152.csv","","410.5","resources/trios/L1T1A2.jpg","39","restless",0.6,0.4,0.7,0.187238154804364,"true"
"image-keyboard-response",105,122061,"0.0-3.31-1.31","t9rqkczb733s42z",394,"152.csv","","null","resources/maskTrios/BBA2.jpg","null","",NA,NA,NA,NA,""
"image-keyboard-response",106,123267,"0.0-3.31-2.31","t9rqkczb733s42z",394,"152.csv","","null","resources/images/coin2.png","null","",NA,NA,NA,NA,""
"image-keyboard-response",107,124103,"0.0-3.32-0.32","t9rqkczb733s42z",394,"152.csv","","833.8999999985099","resources/trios/L1T1A2.jpg","39","restless",0.6,0.4,0.6,0.281593106963731,"true"
"image-keyboard-response",108,124510,"0.0-3.32-1.32","t9rqkczb733s42z",394,"152.csv","","null","resources/maskTrios/BBA2.jpg","null","",NA,NA,NA,NA,""
"image-keyboard-response",109,125715,"0.0-3.32-2.32","t9rqkczb733s42z",394,"152.csv","","null","resources/images/coin2.png","null","",NA,NA,NA,NA,""
"image-keyboard-response",110,126298,"0.0-3.33-0.33","t9rqkczb733s42z",394,"152.csv","","581.1999999992549","resources/trios/L1T1A1.jpg","39","restless",0.6,0.4,0.6,0.714797678014252,"false"
"image-keyboard-response",111,126703,"0.0-3.33-1.33","t9rqkczb733s42z",394,"152.csv","","null","resources/maskTrios/BBA1.jpg","null","",NA,NA,NA,NA,""
"image-keyboard-response",112,127910,"0.0-3.33-2.33","t9rqkczb733s42z",394,"152.csv","","null","resources/images/fishbone.png","null","",NA,NA,NA,NA,""
"image-keyboard-response",113,129049,"0.0-3.34-0.34","t9rqkczb733s42z",394,"152.csv","","1137.699999999255","resources/trios/L1T1A1.jpg","38","restless",0.6,0.4,0.5,0.325905033589164,"true"
"image-keyboard-response",114,129452,"0.0-3.34-1.34","t9rqkczb733s42z",394,"152.csv","","null","resources/maskTrios/BT1B.jpg","null","",NA,NA,NA,NA,""
"image-keyboard-response",115,130659,"0.0-3.34-2.34","t9rqkczb733s42z",394,"152.csv","","null","resources/images/coin2.png","null","",NA,NA,NA,NA,""
"image-keyboard-response",116,131089,"0.0-3.35-0.35","t9rqkczb733s42z",394,"152.csv","","428","resources/trios/L1T1A1.jpg","38","restless",0.6,0.4,0.5,0.966181262013457,"false"
"image-keyboard-response",117,131497,"0.0-3.35-1.35","t9rqkczb733s42z",394,"152.csv","","null","resources/maskTrios/BT1B.jpg","null","",NA,NA,NA,NA,""
"image-keyboard-response",118,132702,"0.0-3.35-2.35","t9rqkczb733s42z",394,"152.csv","","null","resources/images/fishbone.png","null","",NA,NA,NA,NA,""
"image-keyboard-response",119,134995,"0.0-3.36-0.36","t9rqkczb733s42z",394,"152.csv","","2291.300000000745","resources/trios/L4T2A2.jpg","37","restless",0.7,0.4,0.5,0.807593673413936,"false"
"image-keyboard-response",120,135400,"0.0-3.36-1.36","t9rqkczb733s42z",394,"152.csv","","null","resources/maskTrios/L4BB.jpg","null","",NA,NA,NA,NA,""
"image-keyboard-response",121,136602,"0.0-3.36-2.36","t9rqkczb733s42z",394,"152.csv","","null","resources/images/fishbone.png","null","",NA,NA,NA,NA,""
"image-keyboard-response",122,145716,"0.0-3.37-0.37","t9rqkczb733s42z",394,"152.csv","","9112","resources/trios/L1T1A1.jpg","39","restless",0.7,0.5,0.5,0.441670393221284,"true"
"image-keyboard-response",123,146122,"0.0-3.37-1.37","t9rqkczb733s42z",394,"152.csv","","null","resources/maskTrios/BBA1.jpg","null","",NA,NA,NA,NA,""
"image-keyboard-response",124,147329,"0.0-3.37-2.37","t9rqkczb733s42z",394,"152.csv","","null","resources/images/coin2.png","null","",NA,NA,NA,NA,""
"image-keyboard-response",125,148252,"0.0-3.38-0.38","t9rqkczb733s42z",394,"152.csv","","920.8000000007451","resources/trios/L1T1A2.jpg","37","restless",0.7,0.4,0.5,0.106817264161741,"true"
"image-keyboard-response",126,148660,"0.0-3.38-1.38","t9rqkczb733s42z",394,"152.csv","","null","resources/maskTrios/L1BB.jpg","null","",NA,NA,NA,NA,""
"image-keyboard-response",127,149867,"0.0-3.38-2.38","t9rqkczb733s42z",394,"152.csv","","null","resources/images/coin2.png","null","",NA,NA,NA,NA,""
"image-keyboard-response",128,150345,"0.0-3.39-0.39","t9rqkczb733s42z",394,"152.csv","","476.69999999925494","resources/trios/L1T2A1.jpg","38","restless",0.7,0.4,0.5,0.335141946275145,"true"
"image-keyboard-response",129,150749,"0.0-3.39-1.39","t9rqkczb733s42z",394,"152.csv","","null","resources/maskTrios/BT2B.jpg","null","",NA,NA,NA,NA,""
"image-keyboard-response",130,151957,"0.0-3.39-2.39","t9rqkczb733s42z",394,"152.csv","","null","resources/images/coin2.png","null","",NA,NA,NA,NA,""
"image-keyboard-response",131,152241,"0.0-3.40-0.40","t9rqkczb733s42z",394,"152.csv","","282.80000000074506","resources/trios/L4T2A2.jpg","38","restless",0.7,0.4,0.5,0.756076230415482,"false"
"image-keyboard-response",132,152648,"0.0-3.40-1.40","t9rqkczb733s42z",394,"152.csv","","null","resources/maskTrios/BT2B.jpg","null","",NA,NA,NA,NA,""
"image-keyboard-response",133,153855,"0.0-3.40-2.40","t9rqkczb733s42z",394,"152.csv","","null","resources/images/fishbone.png","null","",NA,NA,NA,NA,""
"image-keyboard-response",134,154258,"0.0-3.41-0.41","t9rqkczb733s42z",394,"152.csv","","400.9000000022352","resources/trios/L1T1A2.jpg","39","restless",0.7,0.4,0.5,0.50068808302238,"false"
"image-keyboard-response",135,154665,"0.0-3.41-1.41","t9rqkczb733s42z",394,"152.csv","","null","resources/maskTrios/BBA2.jpg","null","",NA,NA,NA,NA,""
"image-keyboard-response",136,155871,"0.0-3.41-2.41","t9rqkczb733s42z",394,"152.csv","","null","resources/images/fishbone.png","null","",NA,NA,NA,NA,""
"image-keyboard-response",137,156227,"0.0-3.42-0.42","t9rqkczb733s42z",394,"152.csv","","354.69999999925494","resources/trios/L4T1A2.jpg","39","restless",0.7,0.4,0.5,0.341226351986095,"true"
"image-keyboard-response",138,156632,"0.0-3.42-1.42","t9rqkczb733s42z",394,"152.csv","","null","resources/maskTrios/BBA2.jpg","null","",NA,NA,NA,NA,""
"image-keyboard-response",139,157835,"0.0-3.42-2.42","t9rqkczb733s42z",394,"152.csv","","null","resources/images/coin2.png","null","",NA,NA,NA,NA,""
"image-keyboard-response",140,158252,"0.0-3.43-0.43","t9rqkczb733s42z",394,"152.csv","","414.9000000022352","resources/trios/L4T2A1.jpg","38","restless",0.7,0.4,0.5,0.957198747442276,"false"
"image-keyboard-response",141,158659,"0.0-3.43-1.43","t9rqkczb733s42z",394,"152.csv","","null","resources/maskTrios/BT2B.jpg","null","",NA,NA,NA,NA,""
"image-keyboard-response",142,159865,"0.0-3.43-2.43","t9rqkczb733s42z",394,"152.csv","","null","resources/images/fishbone.png","null","",NA,NA,NA,NA,""
"image-keyboard-response",143,160134,"0.0-3.44-0.44","t9rqkczb733s42z",394,"152.csv","","266.69999999925494","resources/trios/L4T2A2.jpg","37","restless",0.7,0.4,0.5,0.132586519985864,"true"
"image-keyboard-response",144,160541,"0.0-3.44-1.44","t9rqkczb733s42z",394,"152.csv","","null","resources/maskTrios/L4BB.jpg","null","",NA,NA,NA,NA,""
"image-keyboard-response",145,161744,"0.0-3.44-2.44","t9rqkczb733s42z",394,"152.csv","","null","resources/images/coin2.png","null","",NA,NA,NA,NA,""
"image-keyboard-response",146,162555,"0.0-3.45-0.45","t9rqkczb733s42z",394,"152.csv","","808.1999999992549","resources/trios/L1T2A1.jpg","37","restless",0.7,0.5,0.5,0.405508694172314,"true"
"image-keyboard-response",147,162962,"0.0-3.45-1.45","t9rqkczb733s42z",394,"152.csv","","null","resources/maskTrios/L1BB.jpg","null","",NA,NA,NA,NA,""
"image-keyboard-response",148,164169,"0.0-3.45-2.45","t9rqkczb733s42z",394,"152.csv","","null","resources/images/coin2.png","null","",NA,NA,NA,NA,""
"image-keyboard-response",149,164434,"0.0-3.46-0.46","t9rqkczb733s42z",394,"152.csv","","262.6000000014901","resources/trios/L1T2A1.jpg","37","restless",0.7,0.5,0.5,0.424801969254825,"true"
"image-keyboard-response",150,164838,"0.0-3.46-1.46","t9rqkczb733s42z",394,"152.csv","","null","resources/maskTrios/L1BB.jpg","null","",NA,NA,NA,NA,""
"image-keyboard-response",151,166045,"0.0-3.46-2.46","t9rqkczb733s42z",394,"152.csv","","null","resources/images/coin2.png","null","",NA,NA,NA,NA,""
"image-keyboard-response",152,166293,"0.0-3.47-0.47","t9rqkczb733s42z",394,"152.csv","","245.19999999925494","resources/trios/L4T1A2.jpg","37","restless",0.7,0.5,0.5,0.542959713469424,"true"
"image-keyboard-response",153,166696,"0.0-3.47-1.47","t9rqkczb733s42z",394,"152.csv","","null","resources/maskTrios/L4BB.jpg","null","",NA,NA,NA,NA,""
"image-keyboard-response",154,167903,"0.0-3.47-2.47","t9rqkczb733s42z",394,"152.csv","","null","resources/images/coin2.png","null","",NA,NA,NA,NA,""
"image-keyboard-response",155,168775,"0.0-3.48-0.48","t9rqkczb733s42z",394,"152.csv","","869.8000000007451","resources/trios/L4T2A1.jpg","39","restless",0.7,0.5,0.5,0.234105832371406,"true"
"image-keyboard-response",156,169182,"0.0-3.48-1.48","t9rqkczb733s42z",394,"152.csv","","null","resources/maskTrios/BBA1.jpg","null","",NA,NA,NA,NA,""
"image-keyboard-response",157,170389,"0.0-3.48-2.48","t9rqkczb733s42z",394,"152.csv","","null","resources/images/coin2.png","null","",NA,NA,NA,NA,""
"image-keyboard-response",158,170590,"0.0-3.49-0.49","t9rqkczb733s42z",394,"152.csv","","199.39999999850988","resources/trios/L4T2A1.jpg","39","restless",0.7,0.5,0.5,0.411299578310621,"true"
"image-keyboard-response",159,170998,"0.0-3.49-1.49","t9rqkczb733s42z",394,"152.csv","","null","resources/maskTrios/BBA1.jpg","null","",NA,NA,NA,NA,""
"image-keyboard-response",160,172205,"0.0-3.49-2.49","t9rqkczb733s42z",394,"152.csv","","null","resources/images/coin2.png","null","",NA,NA,NA,NA,""
"image-keyboard-response",161,172481,"0.0-3.50-0.50","t9rqkczb733s42z",394,"152.csv","","273.80000000074506","resources/trios/L4T1A1.jpg","39","restless",0.7,0.5,0.5,0.128098454136303,"true"
"image-keyboard-response",162,172888,"0.0-3.50-1.50","t9rqkczb733s42z",394,"152.csv","","null","resources/maskTrios/BBA1.jpg","null","",NA,NA,NA,NA,""
"image-keyboard-response",163,174093,"0.0-3.50-2.50","t9rqkczb733s42z",394,"152.csv","","null","resources/images/coin2.png","null","",NA,NA,NA,NA,""
"image-keyboard-response",164,174848,"0.0-3.51-0.51","t9rqkczb733s42z",394,"152.csv","","752.8000000007451","resources/trios/L4T1A1.jpg","39","restless",0.7,0.6,0.5,0.391118968067235,"true"
"image-keyboard-response",165,175255,"0.0-3.51-1.51","t9rqkczb733s42z",394,"152.csv","","null","resources/maskTrios/BBA1.jpg","null","",NA,NA,NA,NA,""
"image-keyboard-response",166,176459,"0.0-3.51-2.51","t9rqkczb733s42z",394,"152.csv","","null","resources/images/coin2.png","null","",NA,NA,NA,NA,""
"image-keyboard-response",167,176950,"0.0-3.52-0.52","t9rqkczb733s42z",394,"152.csv","","489.8999999985099","resources/trios/L4T1A1.jpg","39","restless",0.7,0.6,0.5,0.17689140345582,"true"
"image-keyboard-response",168,177356,"0.0-3.52-1.52","t9rqkczb733s42z",394,"152.csv","","null","resources/maskTrios/BBA1.jpg","null","",NA,NA,NA,NA,""
"image-keyboard-response",169,178563,"0.0-3.52-2.52","t9rqkczb733s42z",394,"152.csv","","null","resources/images/coin2.png","null","",NA,NA,NA,NA,""
"image-keyboard-response",170,179278,"0.0-3.53-0.53","t9rqkczb733s42z",394,"152.csv","","712.7999999970198","resources/trios/L1T1A2.jpg","39","restless",0.7,0.6,0.5,0.436043983968411,"true"
"image-keyboard-response",171,179682,"0.0-3.53-1.53","t9rqkczb733s42z",394,"152.csv","","null","resources/maskTrios/BBA2.jpg","null","",NA,NA,NA,NA,""
"image-keyboard-response",172,180885,"0.0-3.53-2.53","t9rqkczb733s42z",394,"152.csv","","null","resources/images/coin2.png","null","",NA,NA,NA,NA,""
"image-keyboard-response",173,181237,"0.0-3.54-0.54","t9rqkczb733s42z",394,"152.csv","","350.1000000014901","resources/trios/L4T2A1.jpg","39","restless",0.6,0.6,0.5,0.35321694895437,"true"
"image-keyboard-response",174,181643,"0.0-3.54-1.54","t9rqkczb733s42z",394,"152.csv","","null","resources/maskTrios/BBA1.jpg","null","",NA,NA,NA,NA,""
"image-keyboard-response",175,182850,"0.0-3.54-2.54","t9rqkczb733s42z",394,"152.csv","","null","resources/images/coin2.png","null","",NA,NA,NA,NA,""
"image-keyboard-response",176,183084,"0.0-3.55-0.55","t9rqkczb733s42z",394,"152.csv","","232.19999999925494","resources/trios/L4T1A2.jpg","39","restless",0.6,0.6,0.5,0.943038641192599,"false"
"image-keyboard-response",177,183491,"0.0-3.55-1.55","t9rqkczb733s42z",394,"152.csv","","null","resources/maskTrios/BBA2.jpg","null","",NA,NA,NA,NA,""
"image-keyboard-response",178,184698,"0.0-3.55-2.55","t9rqkczb733s42z",394,"152.csv","","null","resources/images/fishbone.png","null","",NA,NA,NA,NA,""
"image-keyboard-response",179,185035,"0.0-3.56-0.56","t9rqkczb733s42z",394,"152.csv","","334.69999999925494","resources/trios/L1T2A1.jpg","38","restless",0.6,0.6,0.5,0.838832623602264,"false"
"image-keyboard-response",180,185442,"0.0-3.56-1.56","t9rqkczb733s42z",394,"152.csv","","null","resources/maskTrios/BT2B.jpg","null","",NA,NA,NA,NA,""
"image-keyboard-response",181,186646,"0.0-3.56-2.56","t9rqkczb733s42z",394,"152.csv","","null","resources/images/fishbone.png","null","",NA,NA,NA,NA,""
"image-keyboard-response",182,186936,"0.0-3.57-0.57","t9rqkczb733s42z",394,"152.csv","","288.3999999985099","resources/trios/L4T2A2.jpg","38","restless",0.6,0.6,0.5,0.775923908377963,"false"
"image-keyboard-response",183,187343,"0.0-3.57-1.57","t9rqkczb733s42z",394,"152.csv","","null","resources/maskTrios/BT2B.jpg","null","",NA,NA,NA,NA,""
"image-keyboard-response",184,188550,"0.0-3.57-2.57","t9rqkczb733s42z",394,"152.csv","","null","resources/images/fishbone.png","null","",NA,NA,NA,NA,""
"image-keyboard-response",185,188851,"0.0-3.58-0.58","t9rqkczb733s42z",394,"152.csv","","298.9000000022352","resources/trios/L4T2A1.jpg","37","restless",0.6,0.6,0.5,0.0424792035309738,"true"
"image-keyboard-response",186,189253,"0.0-3.58-1.58","t9rqkczb733s42z",394,"152.csv","","null","resources/maskTrios/L4BB.jpg","null","",NA,NA,NA,NA,""
"image-keyboard-response",187,190460,"0.0-3.58-2.58","t9rqkczb733s42z",394,"152.csv","","null","resources/images/coin2.png","null","",NA,NA,NA,NA,""
"image-keyboard-response",188,190682,"0.0-3.59-0.59","t9rqkczb733s42z",394,"152.csv","","219.5","resources/trios/L4T2A2.jpg","37","restless",0.6,0.6,0.5,0.972473797327146,"false"
"image-keyboard-response",189,191085,"0.0-3.59-1.59","t9rqkczb733s42z",394,"152.csv","","null","resources/maskTrios/L4BB.jpg","null","",NA,NA,NA,NA,""
"image-keyboard-response",190,192287,"0.0-3.59-2.59","t9rqkczb733s42z",394,"152.csv","","null","resources/images/fishbone.png","null","",NA,NA,NA,NA,""
"image-keyboard-response",191,192487,"0.0-3.60-0.60","t9rqkczb733s42z",394,"152.csv","","197.70000000298023","resources/trios/L4T1A2.jpg","39","restless",0.6,0.6,0.5,0.785301081721948,"false"
"image-keyboard-response",192,192893,"0.0-3.60-1.60","t9rqkczb733s42z",394,"152.csv","","null","resources/maskTrios/BBA2.jpg","null","",NA,NA,NA,NA,""
"image-keyboard-response",193,194096,"0.0-3.60-2.60","t9rqkczb733s42z",394,"152.csv","","null","resources/images/fishbone.png","null","",NA,NA,NA,NA,""
"image-keyboard-response",194,194663,"0.0-3.61-0.61","t9rqkczb733s42z",394,"152.csv","","564.7999999970198","resources/trios/L1T1A2.jpg","38","restless",0.5,0.6,0.5,0.460084909026329,"true"
"image-keyboard-response",195,195070,"0.0-3.61-1.61","t9rqkczb733s42z",394,"152.csv","","null","resources/maskTrios/BT1B.jpg","null","",NA,NA,NA,NA,""
"image-keyboard-response",196,196277,"0.0-3.61-2.61","t9rqkczb733s42z",394,"152.csv","","null","resources/images/coin2.png","null","",NA,NA,NA,NA,""
"image-keyboard-response",197,196530,"0.0-3.62-0.62","t9rqkczb733s42z",394,"152.csv","","250.60000000149012","resources/trios/L1T2A1.jpg","38","restless",0.5,0.6,0.5,0.910468188494713,"false"
"image-keyboard-response",198,196937,"0.0-3.62-1.62","t9rqkczb733s42z",394,"152.csv","","null","resources/maskTrios/BT2B.jpg","null","",NA,NA,NA,NA,""
"image-keyboard-response",199,198144,"0.0-3.62-2.62","t9rqkczb733s42z",394,"152.csv","","null","resources/images/fishbone.png","null","",NA,NA,NA,NA,""
"image-keyboard-response",200,198439,"0.0-3.63-0.63","t9rqkczb733s42z",394,"152.csv","","293.29999999701977","resources/trios/L1T1A2.jpg","37","restless",0.5,0.6,0.5,0.56105878217471,"false"
"image-keyboard-response",201,198842,"0.0-3.63-1.63","t9rqkczb733s42z",394,"152.csv","","null","resources/maskTrios/L1BB.jpg","null","",NA,NA,NA,NA,""
"image-keyboard-response",202,200044,"0.0-3.63-2.63","t9rqkczb733s42z",394,"152.csv","","null","resources/images/fishbone.png","null","",NA,NA,NA,NA,""
"image-keyboard-response",203,200342,"0.0-3.64-0.64","t9rqkczb733s42z",394,"152.csv","","295.8999999985099","resources/trios/L1T2A1.jpg","39","restless",0.5,0.6,0.5,0.26069354928056,"true"
"image-keyboard-response",204,200749,"0.0-3.64-1.64","t9rqkczb733s42z",394,"152.csv","","null","resources/maskTrios/BBA1.jpg","null","",NA,NA,NA,NA,""
"image-keyboard-response",205,201952,"0.0-3.64-2.64","t9rqkczb733s42z",394,"152.csv","","null","resources/images/coin2.png","null","",NA,NA,NA,NA,""
"image-keyboard-response",206,202403,"0.0-3.65-0.65","t9rqkczb733s42z",394,"152.csv","","448.5","resources/trios/L1T1A1.jpg","39","restless",0.5,0.6,0.5,0.372462804323863,"true"
"image-keyboard-response",207,202808,"0.0-3.65-1.65","t9rqkczb733s42z",394,"152.csv","","null","resources/maskTrios/BBA1.jpg","null","",NA,NA,NA,NA,""
"image-keyboard-response",208,204010,"0.0-3.65-2.65","t9rqkczb733s42z",394,"152.csv","","null","resources/images/coin2.png","null","",NA,NA,NA,NA,""
"image-keyboard-response",209,204733,"0.0-3.66-0.66","t9rqkczb733s42z",394,"152.csv","","720.3000000007451","resources/trios/L1T2A2.jpg","38","restless",0.5,0.6,0.5,0.883849702015155,"false"
"image-keyboard-response",210,205140,"0.0-3.66-1.66","t9rqkczb733s42z",394,"152.csv","","null","resources/maskTrios/BT2B.jpg","null","",NA,NA,NA,NA,""
"image-keyboard-response",211,206344,"0.0-3.66-2.66","t9rqkczb733s42z",394,"152.csv","","null","resources/images/fishbone.png","null","",NA,NA,NA,NA,""
"image-keyboard-response",212,206782,"0.0-3.67-0.67","t9rqkczb733s42z",394,"152.csv","","435.8999999985099","resources/trios/L1T2A1.jpg","39","restless",0.5,0.6,0.5,0.793083910708132,"false"
"image-keyboard-response",213,207189,"0.0-3.67-1.67","t9rqkczb733s42z",394,"152.csv","","null","resources/maskTrios/BBA1.jpg","null","",NA,NA,NA,NA,""
"image-keyboard-response",214,208392,"0.0-3.67-2.67","t9rqkczb733s42z",394,"152.csv","","null","resources/images/fishbone.png","null","",NA,NA,NA,NA,""
"image-keyboard-response",215,210027,"0.0-3.68-0.68","t9rqkczb733s42z",394,"152.csv","","1634.3999999985099","resources/trios/L1T1A1.jpg","37","restless",0.5,0.6,0.5,0.428915122150684,"true"
"image-keyboard-response",216,210430,"0.0-3.68-1.68","t9rqkczb733s42z",394,"152.csv","","null","resources/maskTrios/L1BB.jpg","null","",NA,NA,NA,NA,""
"image-keyboard-response",217,211634,"0.0-3.68-2.68","t9rqkczb733s42z",394,"152.csv","","null","resources/images/coin2.png","null","",NA,NA,NA,NA,""
"image-keyboard-response",218,211956,"0.0-3.69-0.69","t9rqkczb733s42z",394,"152.csv","","320.80000000074506","resources/trios/L1T1A1.jpg","37","restless",0.5,0.6,0.5,0.0579930592085207,"true"
"image-keyboard-response",219,212361,"0.0-3.69-1.69","t9rqkczb733s42z",394,"152.csv","","null","resources/maskTrios/L1BB.jpg","null","",NA,NA,NA,NA,""
"image-keyboard-response",220,213568,"0.0-3.69-2.69","t9rqkczb733s42z",394,"152.csv","","null","resources/images/coin2.png","null","",NA,NA,NA,NA,""
"image-keyboard-response",221,213924,"0.0-3.70-0.70","t9rqkczb733s42z",394,"152.csv","","354.1000000014901","resources/trios/L4T2A2.jpg","37","restless",0.4,0.6,0.5,0.827163609983216,"false"
"image-keyboard-response",222,214331,"0.0-3.70-1.70","t9rqkczb733s42z",394,"152.csv","","null","resources/maskTrios/L4BB.jpg","null","",NA,NA,NA,NA,""
"image-keyboard-response",223,215538,"0.0-3.70-2.70","t9rqkczb733s42z",394,"152.csv","","null","resources/images/fishbone.png","null","",NA,NA,NA,NA,""
"image-keyboard-response",224,216054,"0.0-3.71-0.71","t9rqkczb733s42z",394,"152.csv","","514.6999999992549","resources/trios/L4T2A1.jpg","39","restless",0.4,0.6,0.5,0.230226913185029,"true"
"image-keyboard-response",225,216461,"0.0-3.71-1.71","t9rqkczb733s42z",394,"152.csv","","null","resources/maskTrios/BBA1.jpg","null","",NA,NA,NA,NA,""
"image-keyboard-response",226,217665,"0.0-3.71-2.71","t9rqkczb733s42z",394,"152.csv","","null","resources/images/coin2.png","null","",NA,NA,NA,NA,""
"image-keyboard-response",227,218302,"0.0-3.72-0.72","t9rqkczb733s42z",394,"152.csv","","635.0999999977648","resources/trios/L1T1A1.jpg","39","restless",0.4,0.6,0.5,0.530843349088818,"false"
"image-keyboard-response",228,218708,"0.0-3.72-1.72","t9rqkczb733s42z",394,"152.csv","","null","resources/maskTrios/BBA1.jpg","null","",NA,NA,NA,NA,""
"image-keyboard-response",229,219912,"0.0-3.72-2.72","t9rqkczb733s42z",394,"152.csv","","null","resources/images/fishbone.png","null","",NA,NA,NA,NA,""
"image-keyboard-response",230,220276,"0.0-3.73-0.73","t9rqkczb733s42z",394,"152.csv","","361.1000000014901","resources/trios/L1T1A2.jpg","38","restless",0.4,0.6,0.5,0.617771775344221,"false"
"image-keyboard-response",231,220683,"0.0-3.73-1.73","t9rqkczb733s42z",394,"152.csv","","null","resources/maskTrios/BT1B.jpg","null","",NA,NA,NA,NA,""
"image-keyboard-response",232,221888,"0.0-3.73-2.73","t9rqkczb733s42z",394,"152.csv","","null","resources/images/fishbone.png","null","",NA,NA,NA,NA,""
"image-keyboard-response",233,222301,"0.0-3.74-0.74","t9rqkczb733s42z",394,"152.csv","","410.80000000074506","resources/trios/L1T1A1.jpg","37","restless",0.4,0.6,0.5,0.106602898881126,"true"
"image-keyboard-response",234,222706,"0.0-3.74-1.74","t9rqkczb733s42z",394,"152.csv","","null","resources/maskTrios/L1BB.jpg","null","",NA,NA,NA,NA,""
"image-keyboard-response",235,223913,"0.0-3.74-2.74","t9rqkczb733s42z",394,"152.csv","","null","resources/images/coin2.png","null","",NA,NA,NA,NA,""
"image-keyboard-response",236,224154,"0.0-3.75-0.75","t9rqkczb733s42z",394,"152.csv","","239.60000000149012","resources/trios/L1T2A1.jpg","37","restless",0.4,0.6,0.5,0.448371691854381,"false"
"image-keyboard-response",237,224562,"0.0-3.75-1.75","t9rqkczb733s42z",394,"152.csv","","null","resources/maskTrios/L1BB.jpg","null","",NA,NA,NA,NA,""
"image-keyboard-response",238,225765,"0.0-3.75-2.75","t9rqkczb733s42z",394,"152.csv","","null","resources/images/fishbone.png","null","",NA,NA,NA,NA,""
"image-keyboard-response",239,225816,"0.0-3.76-0.76","t9rqkczb733s42z",394,"152.csv","","50.19999999925494","resources/trios/L4T1A1.jpg","38","restless",0.4,0.6,0.5,0.751674096416508,"false"
"image-keyboard-response",240,226224,"0.0-3.76-1.76","t9rqkczb733s42z",394,"152.csv","","null","resources/maskTrios/BT1B.jpg","null","",NA,NA,NA,NA,""
"image-keyboard-response",241,227429,"0.0-3.76-2.76","t9rqkczb733s42z",394,"152.csv","","null","resources/images/fishbone.png","null","",NA,NA,NA,NA,""
"image-keyboard-response",242,227688,"0.0-3.77-0.77","t9rqkczb733s42z",394,"152.csv","","257.70000000298023","resources/trios/L4T1A1.jpg","39","restless",0.4,0.6,0.5,0.353468584959159,"true"
"image-keyboard-response",243,228095,"0.0-3.77-1.77","t9rqkczb733s42z",394,"152.csv","","null","resources/maskTrios/BBA1.jpg","null","",NA,NA,NA,NA,""
"image-keyboard-response",244,229302,"0.0-3.77-2.77","t9rqkczb733s42z",394,"152.csv","","null","resources/images/coin2.png","null","",NA,NA,NA,NA,""
"image-keyboard-response",245,229590,"0.0-3.78-0.78","t9rqkczb733s42z",394,"152.csv","","286.20000000298023","resources/trios/L4T1A1.jpg","39","restless",0.4,0.6,0.5,0.322345015326166,"true"
"image-keyboard-response",246,229998,"0.0-3.78-1.78","t9rqkczb733s42z",394,"152.csv","","null","resources/maskTrios/BBA1.jpg","null","",NA,NA,NA,NA,""
"image-keyboard-response",247,231202,"0.0-3.78-2.78","t9rqkczb733s42z",394,"152.csv","","null","resources/images/coin2.png","null","",NA,NA,NA,NA,""
"image-keyboard-response",248,231499,"0.0-3.79-0.79","t9rqkczb733s42z",394,"152.csv","","295","resources/trios/L4T2A2.jpg","39","restless",0.4,0.6,0.5,0.766474972942993,"false"
"image-keyboard-response",249,231905,"0.0-3.79-1.79","t9rqkczb733s42z",394,"152.csv","","null","resources/maskTrios/BBA2.jpg","null","",NA,NA,NA,NA,""
"image-keyboard-response",250,233110,"0.0-3.79-2.79","t9rqkczb733s42z",394,"152.csv","","null","resources/images/fishbone.png","null","",NA,NA,NA,NA,""
"image-keyboard-response",251,233447,"0.0-3.80-0.80","t9rqkczb733s42z",394,"152.csv","","335.3999999985099","resources/trios/L4T1A1.jpg","38","restless",0.5,0.6,0.5,0.822277650679308,"false"
"image-keyboard-response",252,233851,"0.0-3.80-1.80","t9rqkczb733s42z",394,"152.csv","","null","resources/maskTrios/BT1B.jpg","null","",NA,NA,NA,NA,""
"image-keyboard-response",253,235056,"0.0-3.80-2.80","t9rqkczb733s42z",394,"152.csv","","null","resources/images/fishbone.png","null","",NA,NA,NA,NA,""
"image-keyboard-response",254,235483,"0.0-3.81-0.81","t9rqkczb733s42z",394,"152.csv","","425.0999999977648","resources/trios/L4T1A1.jpg","37","restless",0.5,0.6,0.6,0.434912721796879,"true"
"image-keyboard-response",255,235885,"0.0-3.81-1.81","t9rqkczb733s42z",394,"152.csv","","null","resources/maskTrios/L4BB.jpg","null","",NA,NA,NA,NA,""
"image-keyboard-response",256,237092,"0.0-3.81-2.81","t9rqkczb733s42z",394,"152.csv","","null","resources/images/coin2.png","null","",NA,NA,NA,NA,""
"image-keyboard-response",257,237671,"0.0-3.82-0.82","t9rqkczb733s42z",394,"152.csv","","577.0999999977648","resources/trios/L1T1A2.jpg","37","restless",0.5,0.6,0.6,0.227955224208628,"true"
"image-keyboard-response",258,238073,"0.0-3.82-1.82","t9rqkczb733s42z",394,"152.csv","","null","resources/maskTrios/L1BB.jpg","null","",NA,NA,NA,NA,""
"image-keyboard-response",259,239277,"0.0-3.82-2.82","t9rqkczb733s42z",394,"152.csv","","null","resources/images/coin2.png","null","",NA,NA,NA,NA,""
"image-keyboard-response",260,239677,"0.0-3.83-0.83","t9rqkczb733s42z",394,"152.csv","","397.3999999985099","resources/trios/L4T1A2.jpg","37","restless",0.5,0.6,0.6,0.847223658765855,"false"
"image-keyboard-response",261,240084,"0.0-3.83-1.83","t9rqkczb733s42z",394,"152.csv","","null","resources/maskTrios/L4BB.jpg","null","",NA,NA,NA,NA,""
"image-keyboard-response",262,241291,"0.0-3.83-2.83","t9rqkczb733s42z",394,"152.csv","","null","resources/images/fishbone.png","null","",NA,NA,NA,NA,""
"image-keyboard-response",263,241628,"0.0-3.84-0.84","t9rqkczb733s42z",394,"152.csv","","335.4000000022352","resources/trios/L1T1A1.jpg","39","restless",0.5,0.6,0.6,0.188967987360498,"true"
"image-keyboard-response",264,242035,"0.0-3.84-1.84","t9rqkczb733s42z",394,"152.csv","","null","resources/maskTrios/BBA1.jpg","null","",NA,NA,NA,NA,""
"image-keyboard-response",265,243238,"0.0-3.84-2.84","t9rqkczb733s42z",394,"152.csv","","null","resources/images/coin2.png","null","",NA,NA,NA,NA,""
"image-keyboard-response",266,243839,"0.0-3.85-0.85","t9rqkczb733s42z",394,"152.csv","","599","resources/trios/L1T2A1.jpg","38","restless",0.5,0.6,0.6,0.177439471770317,"true"
"image-keyboard-response",267,244244,"0.0-3.85-1.85","t9rqkczb733s42z",394,"152.csv","","null","resources/maskTrios/BT2B.jpg","null","",NA,NA,NA,NA,""
"image-keyboard-response",268,245451,"0.0-3.85-2.85","t9rqkczb733s42z",394,"152.csv","","null","resources/images/coin2.png","null","",NA,NA,NA,NA,""
"image-keyboard-response",269,247154,"0.0-3.86-0.86","t9rqkczb733s42z",394,"152.csv","","1701.2000000029802","resources/trios/L1T1A2.jpg","37","restless",0.5,0.6,0.6,0.277149932398048,"true"
"image-keyboard-response",270,247561,"0.0-3.86-1.86","t9rqkczb733s42z",394,"152.csv","","null","resources/maskTrios/L1BB.jpg","null","",NA,NA,NA,NA,""
"image-keyboard-response",271,248765,"0.0-3.86-2.86","t9rqkczb733s42z",394,"152.csv","","null","resources/images/coin2.png","null","",NA,NA,NA,NA,""
"image-keyboard-response",272,249801,"0.0-3.87-0.87","t9rqkczb733s42z",394,"152.csv","","1034","resources/trios/L4T1A1.jpg","37","restless",0.5,0.6,0.6,0.849078713028319,"false"
"image-keyboard-response",273,250205,"0.0-3.87-1.87","t9rqkczb733s42z",394,"152.csv","","null","resources/maskTrios/L4BB.jpg","null","",NA,NA,NA,NA,""
"image-keyboard-response",274,251409,"0.0-3.87-2.87","t9rqkczb733s42z",394,"152.csv","","null","resources/images/fishbone.png","null","",NA,NA,NA,NA,""
"image-keyboard-response",275,251912,"0.0-3.88-0.88","t9rqkczb733s42z",394,"152.csv","","500.9000000022352","resources/trios/L4T2A2.jpg","38","restless",0.5,0.6,0.6,0.817089742496551,"false"
"image-keyboard-response",276,252319,"0.0-3.88-1.88","t9rqkczb733s42z",394,"152.csv","","null","resources/maskTrios/BT2B.jpg","null","",NA,NA,NA,NA,""
"image-keyboard-response",277,253521,"0.0-3.88-2.88","t9rqkczb733s42z",394,"152.csv","","null","resources/images/fishbone.png","null","",NA,NA,NA,NA,""
"image-keyboard-response",278,253830,"0.0-3.89-0.89","t9rqkczb733s42z",394,"152.csv","","307.19999999925494","resources/trios/L4T2A1.jpg","39","restless",0.5,0.6,0.6,0.673829299593024,"false"
"image-keyboard-response",279,254237,"0.0-3.89-1.89","t9rqkczb733s42z",394,"152.csv","","null","resources/maskTrios/BBA1.jpg","null","",NA,NA,NA,NA,""
"image-keyboard-response",280,255441,"0.0-3.89-2.89","t9rqkczb733s42z",394,"152.csv","","null","resources/images/fishbone.png","null","",NA,NA,NA,NA,""
"image-keyboard-response",281,255750,"0.0-3.90-0.90","t9rqkczb733s42z",394,"152.csv","","308.69999999925494","resources/trios/L1T1A1.jpg","38","restless",0.6,0.6,0.6,0.810301912242664,"false"
"image-keyboard-response",282,256157,"0.0-3.90-1.90","t9rqkczb733s42z",394,"152.csv","","null","resources/maskTrios/BT1B.jpg","null","",NA,NA,NA,NA,""
"image-keyboard-response",283,257364,"0.0-3.90-2.90","t9rqkczb733s42z",394,"152.csv","","null","resources/images/fishbone.png","null","",NA,NA,NA,NA,""
"image-keyboard-response",284,257608,"0.0-3.91-0.91","t9rqkczb733s42z",394,"152.csv","","241.39999999850988","resources/trios/L4T1A2.jpg","37","restless",0.6,0.6,0.6,0.475623774739102,"true"
"image-keyboard-response",285,258013,"0.0-3.91-1.91","t9rqkczb733s42z",394,"152.csv","","null","resources/maskTrios/L4BB.jpg","null","",NA,NA,NA,NA,""
"image-keyboard-response",286,259220,"0.0-3.91-2.91","t9rqkczb733s42z",394,"152.csv","","null","resources/images/coin2.png","null","",NA,NA,NA,NA,""
"image-keyboard-response",287,259855,"0.0-3.92-0.92","t9rqkczb733s42z",394,"152.csv","","632.5","resources/trios/L4T2A2.jpg","38","restless",0.5,0.6,0.6,0.474149291875524,"true"
"image-keyboard-response",288,260262,"0.0-3.92-1.92","t9rqkczb733s42z",394,"152.csv","","null","resources/maskTrios/BT2B.jpg","null","",NA,NA,NA,NA,""
"image-keyboard-response",289,261469,"0.0-3.92-2.92","t9rqkczb733s42z",394,"152.csv","","null","resources/images/coin2.png","null","",NA,NA,NA,NA,""
"image-keyboard-response",290,261784,"0.0-3.93-0.93","t9rqkczb733s42z",394,"152.csv","","313.5","resources/trios/L4T1A1.jpg","37","restless",0.5,0.6,0.6,0.798419755327884,"false"
"image-keyboard-response",291,262191,"0.0-3.93-1.93","t9rqkczb733s42z",394,"152.csv","","null","resources/maskTrios/L4BB.jpg","null","",NA,NA,NA,NA,""
"image-keyboard-response",292,263397,"0.0-3.93-2.93","t9rqkczb733s42z",394,"152.csv","","null","resources/images/fishbone.png","null","",NA,NA,NA,NA,""
"image-keyboard-response",293,263870,"0.0-3.94-0.94","t9rqkczb733s42z",394,"152.csv","","470.9000000022352","resources/trios/L1T1A2.jpg","39","restless",0.5,0.6,0.6,0.857620280618316,"false"
"image-keyboard-response",294,264272,"0.0-3.94-1.94","t9rqkczb733s42z",394,"152.csv","","null","resources/maskTrios/BBA2.jpg","null","",NA,NA,NA,NA,""
"image-keyboard-response",295,265479,"0.0-3.94-2.94","t9rqkczb733s42z",394,"152.csv","","null","resources/images/fishbone.png","null","",NA,NA,NA,NA,""
"image-keyboard-response",296,265833,"0.0-3.95-0.95","t9rqkczb733s42z",394,"152.csv","","352.30000000074506","resources/trios/L1T1A2.jpg","38","restless",0.5,0.6,0.6,0.986884050003784,"false"
"image-keyboard-response",297,266240,"0.0-3.95-1.95","t9rqkczb733s42z",394,"152.csv","","null","resources/maskTrios/BT1B.jpg","null","",NA,NA,NA,NA,""
"image-keyboard-response",298,267447,"0.0-3.95-2.95","t9rqkczb733s42z",394,"152.csv","","null","resources/images/fishbone.png","null","",NA,NA,NA,NA,""
"image-keyboard-response",299,267694,"0.0-3.96-0.96","t9rqkczb733s42z",394,"152.csv","","244.80000000074506","resources/trios/L1T1A1.jpg","37","restless",0.5,0.6,0.6,0.113493635110559,"true"
"image-keyboard-response",300,268101,"0.0-3.96-1.96","t9rqkczb733s42z",394,"152.csv","","null","resources/maskTrios/L1BB.jpg","null","",NA,NA,NA,NA,""
"image-keyboard-response",301,269304,"0.0-3.96-2.96","t9rqkczb733s42z",394,"152.csv","","null","resources/images/coin2.png","null","",NA,NA,NA,NA,""
"image-keyboard-response",302,269793,"0.0-3.97-0.97","t9rqkczb733s42z",394,"152.csv","","486.69999999925494","resources/trios/L4T2A1.jpg","38","restless",0.4,0.6,0.7,0.192109885504903,"true"
"image-keyboard-response",303,270200,"0.0-3.97-1.97","t9rqkczb733s42z",394,"152.csv","","null","resources/maskTrios/BT2B.jpg","null","",NA,NA,NA,NA,""
"image-keyboard-response",304,271404,"0.0-3.97-2.97","t9rqkczb733s42z",394,"152.csv","","null","resources/images/coin2.png","null","",NA,NA,NA,NA,""
"image-keyboard-response",305,271736,"0.0-3.98-0.98","t9rqkczb733s42z",394,"152.csv","","330.70000000298023","resources/trios/L4T1A2.jpg","39","restless",0.4,0.6,0.7,0.183848713593027,"true"
"image-keyboard-response",306,272143,"0.0-3.98-1.98","t9rqkczb733s42z",394,"152.csv","","null","resources/maskTrios/BBA2.jpg","null","",NA,NA,NA,NA,""
"image-keyboard-response",307,273351,"0.0-3.98-2.98","t9rqkczb733s42z",394,"152.csv","","null","resources/images/coin2.png","null","",NA,NA,NA,NA,""
"image-keyboard-response",308,274325,"0.0-3.99-0.99","t9rqkczb733s42z",394,"152.csv","","972.1999999992549","resources/trios/L4T1A1.jpg","39","restless",0.4,0.6,0.7,0.344326440274334,"true"
"image-keyboard-response",309,274730,"0.0-3.99-1.99","t9rqkczb733s42z",394,"152.csv","","null","resources/maskTrios/BBA1.jpg","null","",NA,NA,NA,NA,""
"image-keyboard-response",310,275932,"0.0-3.99-2.99","t9rqkczb733s42z",394,"152.csv","","null","resources/images/coin2.png","null","",NA,NA,NA,NA,""
"image-keyboard-response",311,276576,"0.0-3.100-0.100","t9rqkczb733s42z",394,"152.csv","","641.6999999992549","resources/trios/L1T1A2.jpg","39","restless",0.4,0.6,0.7,0.828922603524269,"false"
"image-keyboard-response",312,276982,"0.0-3.100-1.100","t9rqkczb733s42z",394,"152.csv","","null","resources/maskTrios/BBA2.jpg","null","",NA,NA,NA,NA,""
"image-keyboard-response",313,278187,"0.0-3.100-2.100","t9rqkczb733s42z",394,"152.csv","","null","resources/images/fishbone.png","null","",NA,NA,NA,NA,""
"image-keyboard-response",314,279271,"0.0-3.101-0.101","t9rqkczb733s42z",394,"152.csv","","1082.4000000022352","resources/trios/L4T2A1.jpg","38","restless",0.4,0.6,0.7,0.125830807219253,"true"
"image-keyboard-response",315,279674,"0.0-3.101-1.101","t9rqkczb733s42z",394,"152.csv","","null","resources/maskTrios/BT2B.jpg","null","",NA,NA,NA,NA,""
"image-keyboard-response",316,280877,"0.0-3.101-2.101","t9rqkczb733s42z",394,"152.csv","","null","resources/images/coin2.png","null","",NA,NA,NA,NA,""
"image-keyboard-response",317,281646,"0.0-3.102-0.102","t9rqkczb733s42z",394,"152.csv","","767.6999999992549","resources/trios/L4T2A2.jpg","38","restless",0.4,0.6,0.8,0.900333318396269,"false"
"image-keyboard-response",318,282054,"0.0-3.102-1.102","t9rqkczb733s42z",394,"152.csv","","null","resources/maskTrios/BT2B.jpg","null","",NA,NA,NA,NA,""
"image-keyboard-response",319,283261,"0.0-3.102-2.102","t9rqkczb733s42z",394,"152.csv","","null","resources/images/fishbone.png","null","",NA,NA,NA,NA,""
"image-keyboard-response",320,283669,"0.0-3.103-0.103","t9rqkczb733s42z",394,"152.csv","","406.20000000298023","resources/trios/L4T1A1.jpg","37","restless",0.4,0.6,0.8,0.201856392913623,"true"
"image-keyboard-response",321,284074,"0.0-3.103-1.103","t9rqkczb733s42z",394,"152.csv","","null","resources/maskTrios/L4BB.jpg","null","",NA,NA,NA,NA,""
"image-keyboard-response",322,285281,"0.0-3.103-2.103","t9rqkczb733s42z",394,"152.csv","","null","resources/images/coin2.png","null","",NA,NA,NA,NA,""
"image-keyboard-response",323,285922,"0.0-3.104-0.104","t9rqkczb733s42z",394,"152.csv","","639.1000000014901","resources/trios/L4T2A1.jpg","38","restless",0.4,0.6,0.8,0.548214568449624,"true"
"image-keyboard-response",324,286326,"0.0-3.104-1.104","t9rqkczb733s42z",394,"152.csv","","null","resources/maskTrios/BT2B.jpg","null","",NA,NA,NA,NA,""
"image-keyboard-response",325,287533,"0.0-3.104-2.104","t9rqkczb733s42z",394,"152.csv","","null","resources/images/coin2.png","null","",NA,NA,NA,NA,""
"image-keyboard-response",326,288309,"0.0-3.105-0.105","t9rqkczb733s42z",394,"152.csv","","774.0999999977648","resources/trios/L4T2A1.jpg","39","restless",0.4,0.6,0.8,0.0069500409827874,"true"
"image-keyboard-response",327,288714,"0.0-3.105-1.105","t9rqkczb733s42z",394,"152.csv","","null","resources/maskTrios/BBA1.jpg","null","",NA,NA,NA,NA,""
"image-keyboard-response",328,289917,"0.0-3.105-2.105","t9rqkczb733s42z",394,"152.csv","","null","resources/images/coin2.png","null","",NA,NA,NA,NA,""
"image-keyboard-response",329,291293,"0.0-3.106-0.106","t9rqkczb733s42z",394,"152.csv","","1373.199999999255","resources/trios/L1T1A2.jpg","39","restless",0.4,0.6,0.9,0.803305807834683,"true"
"image-keyboard-response",330,291699,"0.0-3.106-1.106","t9rqkczb733s42z",394,"152.csv","","null","resources/maskTrios/BBA2.jpg","null","",NA,NA,NA,NA,""
"image-keyboard-response",331,292903,"0.0-3.106-2.106","t9rqkczb733s42z",394,"152.csv","","null","resources/images/coin2.png","null","",NA,NA,NA,NA,""
"image-keyboard-response",332,293488,"0.0-3.107-0.107","t9rqkczb733s42z",394,"152.csv","","582.3999999985099","resources/trios/L1T1A1.jpg","39","restless",0.4,0.6,0.9,0.222911787688723,"true"
"image-keyboard-response",333,293890,"0.0-3.107-1.107","t9rqkczb733s42z",394,"152.csv","","null","resources/maskTrios/BBA1.jpg","null","",NA,NA,NA,NA,""
"image-keyboard-response",334,295093,"0.0-3.107-2.107","t9rqkczb733s42z",394,"152.csv","","null","resources/images/coin2.png","null","",NA,NA,NA,NA,""
"image-keyboard-response",335,295604,"0.0-3.108-0.108","t9rqkczb733s42z",394,"152.csv","","508.1000000014901","resources/trios/L1T2A2.jpg","39","restless",0.4,0.6,0.9,0.655784319144883,"true"
"image-keyboard-response",336,296008,"0.0-3.108-1.108","t9rqkczb733s42z",394,"152.csv","","null","resources/maskTrios/BBA2.jpg","null","",NA,NA,NA,NA,""
"image-keyboard-response",337,297211,"0.0-3.108-2.108","t9rqkczb733s42z",394,"152.csv","","null","resources/images/coin2.png","null","",NA,NA,NA,NA,""
"image-keyboard-response",338,297702,"0.0-3.109-0.109","t9rqkczb733s42z",394,"152.csv","","489.1000000014901","resources/trios/L1T2A1.jpg","39","restless",0.4,0.6,0.9,0.584527744208877,"true"
"image-keyboard-response",339,298108,"0.0-3.109-1.109","t9rqkczb733s42z",394,"152.csv","","null","resources/maskTrios/BBA1.jpg","null","",NA,NA,NA,NA,""
"image-keyboard-response",340,299315,"0.0-3.109-2.109","t9rqkczb733s42z",394,"152.csv","","null","resources/images/coin2.png","null","",NA,NA,NA,NA,""
"image-keyboard-response",341,299589,"0.0-3.110-0.110","t9rqkczb733s42z",394,"152.csv","","272.80000000074506","resources/trios/L4T1A2.jpg","39","restless",0.4,0.6,0.9,0.607377504808973,"true"
"image-keyboard-response",342,299996,"0.0-3.110-1.110","t9rqkczb733s42z",394,"152.csv","","null","resources/maskTrios/BBA2.jpg","null","",NA,NA,NA,NA,""
"image-keyboard-response",343,301203,"0.0-3.110-2.110","t9rqkczb733s42z",394,"152.csv","","null","resources/images/coin2.png","null","",NA,NA,NA,NA,""
"image-keyboard-response",344,301487,"0.0-3.111-0.111","t9rqkczb733s42z",394,"152.csv","","282","resources/trios/L4T1A1.jpg","39","restless",0.4,0.6,0.9,0.965061972034934,"false"
"image-keyboard-response",345,301895,"0.0-3.111-1.111","t9rqkczb733s42z",394,"152.csv","","null","resources/maskTrios/BBA1.jpg","null","",NA,NA,NA,NA,""
"image-keyboard-response",346,303102,"0.0-3.111-2.111","t9rqkczb733s42z",394,"152.csv","","null","resources/images/fishbone.png","null","",NA,NA,NA,NA,""
"image-keyboard-response",347,303331,"0.0-3.112-0.112","t9rqkczb733s42z",394,"152.csv","","227.69999999925494","resources/trios/L1T1A1.jpg","37","restless",0.3,0.7,0.9,0.926263616103535,"false"
"image-keyboard-response",348,303734,"0.0-3.112-1.112","t9rqkczb733s42z",394,"152.csv","","null","resources/maskTrios/L1BB.jpg","null","",NA,NA,NA,NA,""
"image-keyboard-response",349,304940,"0.0-3.112-2.112","t9rqkczb733s42z",394,"152.csv","","null","resources/images/fishbone.png","null","",NA,NA,NA,NA,""
"image-keyboard-response",350,305266,"0.0-3.113-0.113","t9rqkczb733s42z",394,"152.csv","","323.9000000022352","resources/trios/L1T2A2.jpg","38","restless",0.2,0.7,0.9,0.468884408716566,"true"
"image-keyboard-response",351,305673,"0.0-3.113-1.113","t9rqkczb733s42z",394,"152.csv","","null","resources/maskTrios/BT2B.jpg","null","",NA,NA,NA,NA,""
"image-keyboard-response",352,306877,"0.0-3.113-2.113","t9rqkczb733s42z",394,"152.csv","","null","resources/images/coin2.png","null","",NA,NA,NA,NA,""
"image-keyboard-response",353,307484,"0.0-3.114-0.114","t9rqkczb733s42z",394,"152.csv","","605.0999999977648","resources/trios/L1T2A2.jpg","37","restless",0.2,0.8,0.8,0.617974633743326,"false"
"image-keyboard-response",354,307887,"0.0-3.114-1.114","t9rqkczb733s42z",394,"152.csv","","null","resources/maskTrios/L1BB.jpg","null","",NA,NA,NA,NA,""
"image-keyboard-response",355,309094,"0.0-3.114-2.114","t9rqkczb733s42z",394,"152.csv","","null","resources/images/fishbone.png","null","",NA,NA,NA,NA,""
"image-keyboard-response",356,309711,"0.0-3.115-0.115","t9rqkczb733s42z",394,"152.csv","","614.6999999992549","resources/trios/L1T2A1.jpg","39","restless",0.2,0.8,0.8,0.419837327830425,"true"
"image-keyboard-response",357,310117,"0.0-3.115-1.115","t9rqkczb733s42z",394,"152.csv","","null","resources/maskTrios/BBA1.jpg","null","",NA,NA,NA,NA,""
"image-keyboard-response",358,311324,"0.0-3.115-2.115","t9rqkczb733s42z",394,"152.csv","","null","resources/images/coin2.png","null","",NA,NA,NA,NA,""
"image-keyboard-response",359,312989,"0.0-3.116-0.116","t9rqkczb733s42z",394,"152.csv","","1662.5","resources/trios/L4T1A1.jpg","39","restless",0.3,0.8,0.8,0.884715783944393,"false"
"image-keyboard-response",360,313396,"0.0-3.116-1.116","t9rqkczb733s42z",394,"152.csv","","null","resources/maskTrios/BBA1.jpg","null","",NA,NA,NA,NA,""
"image-keyboard-response",361,314600,"0.0-3.116-2.116","t9rqkczb733s42z",394,"152.csv","","null","resources/images/fishbone.png","null","",NA,NA,NA,NA,""
"image-keyboard-response",362,314957,"0.0-3.117-0.117","t9rqkczb733s42z",394,"152.csv","","355.3999999985099","resources/trios/L1T2A2.jpg","37","restless",0.3,0.7,0.8,0.355766621394549,"false"
"image-keyboard-response",363,315361,"0.0-3.117-1.117","t9rqkczb733s42z",394,"152.csv","","null","resources/maskTrios/L1BB.jpg","null","",NA,NA,NA,NA,""
"image-keyboard-response",364,316562,"0.0-3.117-2.117","t9rqkczb733s42z",394,"152.csv","","null","resources/images/fishbone.png","null","",NA,NA,NA,NA,""
"image-keyboard-response",365,317156,"0.0-3.118-0.118","t9rqkczb733s42z",394,"152.csv","","591.7999999970198","resources/trios/L1T1A2.jpg","37","restless",0.3,0.7,0.8,0.363520180874924,"false"
"image-keyboard-response",366,317563,"0.0-3.118-1.118","t9rqkczb733s42z",394,"152.csv","","null","resources/maskTrios/L1BB.jpg","null","",NA,NA,NA,NA,""
"image-keyboard-response",367,318768,"0.0-3.118-2.118","t9rqkczb733s42z",394,"152.csv","","null","resources/images/fishbone.png","null","",NA,NA,NA,NA,""
"image-keyboard-response",368,319230,"0.0-3.119-0.119","t9rqkczb733s42z",394,"152.csv","","460.30000000074506","resources/trios/L1T2A2.jpg","39","restless",0.3,0.7,0.8,0.503984551623405,"true"
"image-keyboard-response",369,319638,"0.0-3.119-1.119","t9rqkczb733s42z",394,"152.csv","","null","resources/maskTrios/BBA2.jpg","null","",NA,NA,NA,NA,""
"image-keyboard-response",370,320842,"0.0-3.119-2.119","t9rqkczb733s42z",394,"152.csv","","null","resources/images/coin2.png","null","",NA,NA,NA,NA,""
"image-keyboard-response",371,321347,"0.0-3.120-0.120","t9rqkczb733s42z",394,"152.csv","","503","resources/trios/L1T2A1.jpg","38","restless",0.4,0.7,0.8,0.316772092378527,"true"
"image-keyboard-response",372,321754,"0.0-3.120-1.120","t9rqkczb733s42z",394,"152.csv","","null","resources/maskTrios/BT2B.jpg","null","",NA,NA,NA,NA,""
"image-keyboard-response",373,322961,"0.0-3.120-2.120","t9rqkczb733s42z",394,"152.csv","","null","resources/images/coin2.png","null","",NA,NA,NA,NA,""
"image-keyboard-response",374,323380,"0.0-3.121-0.121","t9rqkczb733s42z",394,"152.csv","","416.80000000074506","resources/trios/L4T1A1.jpg","39","restless",0.4,0.7,0.8,0.115135282100701,"true"
"image-keyboard-response",375,323784,"0.0-3.121-1.121","t9rqkczb733s42z",394,"152.csv","","null","resources/maskTrios/BBA1.jpg","null","",NA,NA,NA,NA,""
"image-keyboard-response",376,324987,"0.0-3.121-2.121","t9rqkczb733s42z",394,"152.csv","","null","resources/images/coin2.png","null","",NA,NA,NA,NA,""
"image-keyboard-response",377,325725,"0.0-3.122-0.122","t9rqkczb733s42z",394,"152.csv","","736.6999999992549","resources/trios/L4T2A1.jpg","38","restless",0.4,0.7,0.7,0.3654004294204,"true"
"image-keyboard-response",378,326132,"0.0-3.122-1.122","t9rqkczb733s42z",394,"152.csv","","null","resources/maskTrios/BT2B.jpg","null","",NA,NA,NA,NA,""
"image-keyboard-response",379,327339,"0.0-3.122-2.122","t9rqkczb733s42z",394,"152.csv","","null","resources/images/coin2.png","null","",NA,NA,NA,NA,""
"image-keyboard-response",380,328165,"0.0-3.123-0.123","t9rqkczb733s42z",394,"152.csv","","823.3999999985099","resources/trios/L1T2A1.jpg","37","restless",0.5,0.7,0.6,0.630675533447308,"false"
"image-keyboard-response",381,328572,"0.0-3.123-1.123","t9rqkczb733s42z",394,"152.csv","","null","resources/maskTrios/L1BB.jpg","null","",NA,NA,NA,NA,""
"image-keyboard-response",382,329775,"0.0-3.123-2.123","t9rqkczb733s42z",394,"152.csv","","null","resources/images/fishbone.png","null","",NA,NA,NA,NA,""
"image-keyboard-response",383,330193,"0.0-3.124-0.124","t9rqkczb733s42z",394,"152.csv","","416.6000000014901","resources/trios/L4T1A2.jpg","38","restless",0.5,0.7,0.6,0.216805025869061,"true"
"image-keyboard-response",384,330598,"0.0-3.124-1.124","t9rqkczb733s42z",394,"152.csv","","null","resources/maskTrios/BT1B.jpg","null","",NA,NA,NA,NA,""
"image-keyboard-response",385,331805,"0.0-3.124-2.124","t9rqkczb733s42z",394,"152.csv","","null","resources/images/coin2.png","null","",NA,NA,NA,NA,""
"image-keyboard-response",386,332048,"0.0-3.125-0.125","t9rqkczb733s42z",394,"152.csv","","240.59999999776483","resources/trios/L4T1A2.jpg","39","restless",0.5,0.7,0.6,0.0707925431767105,"true"
"image-keyboard-response",387,332452,"0.0-3.125-1.125","t9rqkczb733s42z",394,"152.csv","","null","resources/maskTrios/BBA2.jpg","null","",NA,NA,NA,NA,""
"image-keyboard-response",388,333657,"0.0-3.125-2.125","t9rqkczb733s42z",394,"152.csv","","null","resources/images/coin2.png","null","",NA,NA,NA,NA,""
"image-keyboard-response",389,334210,"0.0-3.126-0.126","t9rqkczb733s42z",394,"152.csv","","550.8999999985099","resources/trios/L4T2A2.jpg","38","restless",0.5,0.8,0.6,0.2920234053414,"true"
"image-keyboard-response",390,334618,"0.0-3.126-1.126","t9rqkczb733s42z",394,"152.csv","","null","resources/maskTrios/BT2B.jpg","null","",NA,NA,NA,NA,""
"image-keyboard-response",391,335825,"0.0-3.126-2.126","t9rqkczb733s42z",394,"152.csv","","null","resources/images/coin2.png","null","",NA,NA,NA,NA,""
"image-keyboard-response",392,336138,"0.0-3.127-0.127","t9rqkczb733s42z",394,"152.csv","","311.4000000022352","resources/trios/L1T1A1.jpg","37","restless",0.5,0.8,0.6,0.893868188877224,"false"
"image-keyboard-response",393,336546,"0.0-3.127-1.127","t9rqkczb733s42z",394,"152.csv","","null","resources/maskTrios/L1BB.jpg","null","",NA,NA,NA,NA,""
"image-keyboard-response",394,337752,"0.0-3.127-2.127","t9rqkczb733s42z",394,"152.csv","","null","resources/images/fishbone.png","null","",NA,NA,NA,NA,""
"image-keyboard-response",395,338050,"0.0-3.128-0.128","t9rqkczb733s42z",394,"152.csv","","295.5","resources/trios/L4T2A2.jpg","39","restless",0.5,0.8,0.5,0.615874877145909,"false"
"image-keyboard-response",396,338457,"0.0-3.128-1.128","t9rqkczb733s42z",394,"152.csv","","null","resources/maskTrios/BBA2.jpg","null","",NA,NA,NA,NA,""
"image-keyboard-response",397,339663,"0.0-3.128-2.128","t9rqkczb733s42z",394,"152.csv","","null","resources/images/fishbone.png","null","",NA,NA,NA,NA,""
"image-keyboard-response",398,340217,"0.0-3.129-0.129","t9rqkczb733s42z",394,"152.csv","","551.6999999992549","resources/trios/L4T2A1.jpg","38","restless",0.5,0.8,0.5,0.874901648884878,"false"
"image-keyboard-response",399,340622,"0.0-3.129-1.129","t9rqkczb733s42z",394,"152.csv","","null","resources/maskTrios/BT2B.jpg","null","",NA,NA,NA,NA,""
"image-keyboard-response",400,341829,"0.0-3.129-2.129","t9rqkczb733s42z",394,"152.csv","","null","resources/images/fishbone.png","null","",NA,NA,NA,NA,""
"image-keyboard-response",401,342341,"0.0-3.130-0.130","t9rqkczb733s42z",394,"152.csv","","510.69999999925494","resources/trios/L1T2A2.jpg","37","restless",0.4,0.8,0.5,0.183315384349388,"true"
"image-keyboard-response",402,342745,"0.0-3.130-1.130","t9rqkczb733s42z",394,"152.csv","","null","resources/maskTrios/L1BB.jpg","null","",NA,NA,NA,NA,""
"image-keyboard-response",403,343952,"0.0-3.130-2.130","t9rqkczb733s42z",394,"152.csv","","null","resources/images/coin2.png","null","",NA,NA,NA,NA,""
"image-keyboard-response",404,344581,"0.0-3.131-0.131","t9rqkczb733s42z",394,"152.csv","","626.3999999985099","resources/trios/L1T2A2.jpg","39","restless",0.4,0.8,0.5,0.00536253054221514,"true"
"image-keyboard-response",405,344984,"0.0-3.131-1.131","t9rqkczb733s42z",394,"152.csv","","null","resources/maskTrios/BBA2.jpg","null","",NA,NA,NA,NA,""
"image-keyboard-response",406,346191,"0.0-3.131-2.131","t9rqkczb733s42z",394,"152.csv","","null","resources/images/coin2.png","null","",NA,NA,NA,NA,""
"image-keyboard-response",407,347034,"0.0-3.132-0.132","t9rqkczb733s42z",394,"152.csv","","840.4000000022352","resources/trios/L4T1A1.jpg","37","restless",0.4,0.9,0.5,0.480827516233939,"false"
"image-keyboard-response",408,347441,"0.0-3.132-1.132","t9rqkczb733s42z",394,"152.csv","","null","resources/maskTrios/L4BB.jpg","null","",NA,NA,NA,NA,""
"image-keyboard-response",409,348648,"0.0-3.132-2.132","t9rqkczb733s42z",394,"152.csv","","null","resources/images/fishbone.png","null","",NA,NA,NA,NA,""
"image-keyboard-response",410,348998,"0.0-3.133-0.133","t9rqkczb733s42z",394,"152.csv","","348","resources/trios/L4T2A1.jpg","37","restless",0.4,0.9,0.5,0.83916903131801,"false"
"image-keyboard-response",411,349405,"0.0-3.133-1.133","t9rqkczb733s42z",394,"152.csv","","null","resources/maskTrios/L4BB.jpg","null","",NA,NA,NA,NA,""
"image-keyboard-response",412,350611,"0.0-3.133-2.133","t9rqkczb733s42z",394,"152.csv","","null","resources/images/fishbone.png","null","",NA,NA,NA,NA,""
"image-keyboard-response",413,351057,"0.0-3.134-0.134","t9rqkczb733s42z",394,"152.csv","","444.19999999925494","resources/trios/L1T1A1.jpg","38","restless",0.4,0.9,0.5,0.98609308410653,"false"
"image-keyboard-response",414,351460,"0.0-3.134-1.134","t9rqkczb733s42z",394,"152.csv","","null","resources/maskTrios/BT1B.jpg","null","",NA,NA,NA,NA,""
"image-keyboard-response",415,352667,"0.0-3.134-2.134","t9rqkczb733s42z",394,"152.csv","","null","resources/images/fishbone.png","null","",NA,NA,NA,NA,""
"image-keyboard-response",416,367468,"0.0-3.135-0.135","t9rqkczb733s42z",394,"152.csv","","14799.5","resources/trios/L4T2A2.jpg","39","restless",0.4,0.9,0.5,0.749889954773061,"false"
"image-keyboard-response",417,367874,"0.0-3.135-1.135","t9rqkczb733s42z",394,"152.csv","","null","resources/maskTrios/BBA2.jpg","null","",NA,NA,NA,NA,""
"image-keyboard-response",418,369078,"0.0-3.135-2.135","t9rqkczb733s42z",394,"152.csv","","null","resources/images/fishbone.png","null","",NA,NA,NA,NA,""
"image-keyboard-response",419,369503,"0.0-3.136-0.136","t9rqkczb733s42z",394,"152.csv","","423.6000000014901","resources/trios/L4T2A2.jpg","38","restless",0.4,0.8,0.5,0.546085923627671,"true"
"image-keyboard-response",420,369907,"0.0-3.136-1.136","t9rqkczb733s42z",394,"152.csv","","null","resources/maskTrios/BT2B.jpg","null","",NA,NA,NA,NA,""
"image-keyboard-response",421,371110,"0.0-3.136-2.136","t9rqkczb733s42z",394,"152.csv","","null","resources/images/coin2.png","null","",NA,NA,NA,NA,""
"image-keyboard-response",422,371479,"0.0-3.137-0.137","t9rqkczb733s42z",394,"152.csv","","367.80000000074506","resources/trios/L4T2A1.jpg","38","restless",0.4,0.8,0.5,0.422259483810242,"true"
"image-keyboard-response",423,371887,"0.0-3.137-1.137","t9rqkczb733s42z",394,"152.csv","","null","resources/maskTrios/BT2B.jpg","null","",NA,NA,NA,NA,""
"image-keyboard-response",424,373091,"0.0-3.137-2.137","t9rqkczb733s42z",394,"152.csv","","null","resources/images/coin2.png","null","",NA,NA,NA,NA,""
"image-keyboard-response",425,376081,"0.0-3.138-0.138","t9rqkczb733s42z",394,"152.csv","","2987.89999999851","resources/trios/L1T1A1.jpg","38","restless",0.4,0.8,0.5,0.326764386441347,"true"
"image-keyboard-response",426,376484,"0.0-3.138-1.138","t9rqkczb733s42z",394,"152.csv","","null","resources/maskTrios/BT1B.jpg","null","",NA,NA,NA,NA,""
"image-keyboard-response",427,377687,"0.0-3.138-2.138","t9rqkczb733s42z",394,"152.csv","","null","resources/images/coin2.png","null","",NA,NA,NA,NA,""
"image-keyboard-response",428,378102,"0.0-3.139-0.139","t9rqkczb733s42z",394,"152.csv","","413.19999999925494","resources/trios/L1T1A1.jpg","37","restless",0.4,0.8,0.5,0.109158055099957,"true"
"image-keyboard-response",429,378504,"0.0-3.139-1.139","t9rqkczb733s42z",394,"152.csv","","null","resources/maskTrios/L1BB.jpg","null","",NA,NA,NA,NA,""
"image-keyboard-response",430,379707,"0.0-3.139-2.139","t9rqkczb733s42z",394,"152.csv","","null","resources/images/coin2.png","null","",NA,NA,NA,NA,""
"image-keyboard-response",431,380190,"0.0-3.140-0.140","t9rqkczb733s42z",394,"152.csv","","481.80000000074506","resources/trios/L1T1A2.jpg","37","restless",0.4,0.8,0.5,0.519824011156124,"false"
"image-keyboard-response",432,380597,"0.0-3.140-1.140","t9rqkczb733s42z",394,"152.csv","","null","resources/maskTrios/L1BB.jpg","null","",NA,NA,NA,NA,""
"image-keyboard-response",433,381800,"0.0-3.140-2.140","t9rqkczb733s42z",394,"152.csv","","null","resources/images/fishbone.png","null","",NA,NA,NA,NA,""
"image-keyboard-response",434,382501,"0.0-3.141-0.141","t9rqkczb733s42z",394,"152.csv","","699","resources/trios/L4T1A2.jpg","38","restless",0.4,0.8,0.5,0.982183545023974,"false"
"image-keyboard-response",435,382909,"0.0-3.141-1.141","t9rqkczb733s42z",394,"152.csv","","null","resources/maskTrios/BT1B.jpg","null","",NA,NA,NA,NA,""
"image-keyboard-response",436,384113,"0.0-3.141-2.141","t9rqkczb733s42z",394,"152.csv","","null","resources/images/fishbone.png","null","",NA,NA,NA,NA,""
"image-keyboard-response",437,385867,"0.0-3.142-0.142","t9rqkczb733s42z",394,"152.csv","","1751.9000000022352","resources/trios/L4T2A2.jpg","39","restless",0.4,0.8,0.5,0.624321684858377,"false"
"image-keyboard-response",438,386271,"0.0-3.142-1.142","t9rqkczb733s42z",394,"152.csv","","null","resources/maskTrios/BBA2.jpg","null","",NA,NA,NA,NA,""
"image-keyboard-response",439,387477,"0.0-3.142-2.142","t9rqkczb733s42z",394,"152.csv","","null","resources/images/fishbone.png","null","",NA,NA,NA,NA,""
"image-keyboard-response",440,388041,"0.0-3.143-0.143","t9rqkczb733s42z",394,"152.csv","","561.8999999985099","resources/trios/L4T1A2.jpg","38","restless",0.4,0.8,0.5,0.967232303958316,"false"
"image-keyboard-response",441,388449,"0.0-3.143-1.143","t9rqkczb733s42z",394,"152.csv","","null","resources/maskTrios/BT1B.jpg","null","",NA,NA,NA,NA,""
"image-keyboard-response",442,389655,"0.0-3.143-2.143","t9rqkczb733s42z",394,"152.csv","","null","resources/images/fishbone.png","null","",NA,NA,NA,NA,""
"image-keyboard-response",443,389936,"0.0-3.144-0.144","t9rqkczb733s42z",394,"152.csv","","278.5","resources/trios/L1T1A2.jpg","37","restless",0.3,0.7,0.5,0.357343545664941,"false"
"image-keyboard-response",444,390343,"0.0-3.144-1.144","t9rqkczb733s42z",394,"152.csv","","null","resources/maskTrios/L1BB.jpg","null","",NA,NA,NA,NA,""
"image-keyboard-response",445,391550,"0.0-3.144-2.144","t9rqkczb733s42z",394,"152.csv","","null","resources/images/fishbone.png","null","",NA,NA,NA,NA,""
"image-keyboard-response",446,392404,"0.0-3.145-0.145","t9rqkczb733s42z",394,"152.csv","","852.5","resources/trios/L4T1A1.jpg","37","restless",0.3,0.7,0.5,0.490495061727425,"false"
"image-keyboard-response",447,392811,"0.0-3.145-1.145","t9rqkczb733s42z",394,"152.csv","","null","resources/maskTrios/L4BB.jpg","null","",NA,NA,NA,NA,""
"image-keyboard-response",448,394015,"0.0-3.145-2.145","t9rqkczb733s42z",394,"152.csv","","null","resources/images/fishbone.png","null","",NA,NA,NA,NA,""
"image-keyboard-response",449,394334,"0.0-3.146-0.146","t9rqkczb733s42z",394,"152.csv","","317","resources/trios/L4T1A2.jpg","39","restless",0.3,0.7,0.5,0.424898242858209,"true"
"image-keyboard-response",450,394741,"0.0-3.146-1.146","t9rqkczb733s42z",394,"152.csv","","null","resources/maskTrios/BBA2.jpg","null","",NA,NA,NA,NA,""
"image-keyboard-response",451,395947,"0.0-3.146-2.146","t9rqkczb733s42z",394,"152.csv","","null","resources/images/coin2.png","null","",NA,NA,NA,NA,""
"image-keyboard-response",452,396171,"0.0-3.147-0.147","t9rqkczb733s42z",394,"152.csv","","221.70000000298023","resources/trios/L4T1A2.jpg","38","restless",0.3,0.6,0.5,0.0590514831251929,"true"
"image-keyboard-response",453,396579,"0.0-3.147-1.147","t9rqkczb733s42z",394,"152.csv","","null","resources/maskTrios/BT1B.jpg","null","",NA,NA,NA,NA,""
"image-keyboard-response",454,397784,"0.0-3.147-2.147","t9rqkczb733s42z",394,"152.csv","","null","resources/images/coin2.png","null","",NA,NA,NA,NA,""
"image-keyboard-response",455,398179,"0.0-3.148-0.148","t9rqkczb733s42z",394,"152.csv","","393.80000000074506","resources/trios/L4T2A1.jpg","37","restless",0.3,0.6,0.6,0.769159665280949,"false"
"image-keyboard-response",456,398587,"0.0-3.148-1.148","t9rqkczb733s42z",394,"152.csv","","null","resources/maskTrios/L4BB.jpg","null","",NA,NA,NA,NA,""
"image-keyboard-response",457,399792,"0.0-3.148-2.148","t9rqkczb733s42z",394,"152.csv","","null","resources/images/fishbone.png","null","",NA,NA,NA,NA,""
"image-keyboard-response",458,401932,"0.0-3.149-0.149","t9rqkczb733s42z",394,"152.csv","","2137.800000000745","resources/trios/L4T2A2.jpg","39","restless",0.3,0.6,0.6,0.90642460122946,"false"
"image-keyboard-response",459,402339,"0.0-3.149-1.149","t9rqkczb733s42z",394,"152.csv","","null","resources/maskTrios/BBA2.jpg","null","",NA,NA,NA,NA,""
"image-keyboard-response",460,403543,"0.0-3.149-2.149","t9rqkczb733s42z",394,"152.csv","","null","resources/images/fishbone.png","null","",NA,NA,NA,NA,""
"image-keyboard-response",461,403893,"0.0-3.150-0.150","t9rqkczb733s42z",394,"152.csv","","347.80000000074506","resources/trios/L4T1A2.jpg","38","restless",0.3,0.6,0.6,0.42064765790191,"true"
"image-keyboard-response",462,404296,"0.0-3.150-1.150","t9rqkczb733s42z",394,"152.csv","","null","resources/maskTrios/BT1B.jpg","null","",NA,NA,NA,NA,""
"image-keyboard-response",463,405503,"0.0-3.150-2.150","t9rqkczb733s42z",394,"152.csv","","null","resources/images/coin2.png","null","",NA,NA,NA,NA,""
"image-keyboard-response",464,405887,"0.0-3.151-0.151","t9rqkczb733s42z",394,"152.csv","","381.9000000022352","resources/trios/L4T2A2.jpg","37","restless",0.3,0.6,0.6,0.409203714364005,"false"
"image-keyboard-response",465,406295,"0.0-3.151-1.151","t9rqkczb733s42z",394,"152.csv","","null","resources/maskTrios/L4BB.jpg","null","",NA,NA,NA,NA,""
"image-keyboard-response",466,407501,"0.0-3.151-2.151","t9rqkczb733s42z",394,"152.csv","","null","resources/images/fishbone.png","null","",NA,NA,NA,NA,""
"image-keyboard-response",467,407917,"0.0-3.152-0.152","t9rqkczb733s42z",394,"152.csv","","412.80000000074506","resources/trios/L1T2A1.jpg","38","restless",0.3,0.6,0.6,0.454576752869677,"true"
"image-keyboard-response",468,408324,"0.0-3.152-1.152","t9rqkczb733s42z",394,"152.csv","","null","resources/maskTrios/BT2B.jpg","null","",NA,NA,NA,NA,""
"image-keyboard-response",469,409531,"0.0-3.152-2.152","t9rqkczb733s42z",394,"152.csv","","null","resources/images/coin2.png","null","",NA,NA,NA,NA,""
"image-keyboard-response",470,410040,"0.0-3.153-0.153","t9rqkczb733s42z",394,"152.csv","","506.5999999977648","resources/trios/L4T2A2.jpg","39","restless",0.3,0.6,0.6,0.169939380356224,"true"
"image-keyboard-response",471,410447,"0.0-3.153-1.153","t9rqkczb733s42z",394,"152.csv","","null","resources/maskTrios/BBA2.jpg","null","",NA,NA,NA,NA,""
"image-keyboard-response",472,411654,"0.0-3.153-2.153","t9rqkczb733s42z",394,"152.csv","","null","resources/images/coin2.png","null","",NA,NA,NA,NA,""
"image-keyboard-response",473,411999,"0.0-3.154-0.154","t9rqkczb733s42z",394,"152.csv","","342.0999999977648","resources/trios/L1T2A1.jpg","39","restless",0.3,0.6,0.6,0.578403547262186,"true"
"image-keyboard-response",474,412406,"0.0-3.154-1.154","t9rqkczb733s42z",394,"152.csv","","null","resources/maskTrios/BBA1.jpg","null","",NA,NA,NA,NA,""
"image-keyboard-response",475,413613,"0.0-3.154-2.154","t9rqkczb733s42z",394,"152.csv","","null","resources/images/coin2.png","null","",NA,NA,NA,NA,""
"image-keyboard-response",476,413931,"0.0-3.155-0.155","t9rqkczb733s42z",394,"152.csv","","315.69999999925494","resources/trios/L1T1A2.jpg","38","restless",0.3,0.5,0.6,0.12135360097588,"true"
"image-keyboard-response",477,414336,"0.0-3.155-1.155","t9rqkczb733s42z",394,"152.csv","","null","resources/maskTrios/BT1B.jpg","null","",NA,NA,NA,NA,""
"image-keyboard-response",478,415539,"0.0-3.155-2.155","t9rqkczb733s42z",394,"152.csv","","null","resources/images/coin2.png","null","",NA,NA,NA,NA,""
"image-keyboard-response",479,415959,"0.0-3.156-0.156","t9rqkczb733s42z",394,"152.csv","","418.69999999925494","resources/trios/L1T2A2.jpg","39","restless",0.3,0.5,0.6,0.808630438611239,"false"
"image-keyboard-response",480,416360,"0.0-3.156-1.156","t9rqkczb733s42z",394,"152.csv","","null","resources/maskTrios/BBA2.jpg","null","",NA,NA,NA,NA,""
"image-keyboard-response",481,417564,"0.0-3.156-2.156","t9rqkczb733s42z",394,"152.csv","","null","resources/images/fishbone.png","null","",NA,NA,NA,NA,""
"image-keyboard-response",482,417959,"0.0-3.157-0.157","t9rqkczb733s42z",394,"152.csv","","394.4000000022352","resources/trios/L1T1A1.jpg","37","restless",0.3,0.5,0.6,0.213857594055565,"true"
"image-keyboard-response",483,418365,"0.0-3.157-1.157","t9rqkczb733s42z",394,"152.csv","","null","resources/maskTrios/L1BB.jpg","null","",NA,NA,NA,NA,""
"image-keyboard-response",484,419570,"0.0-3.157-2.157","t9rqkczb733s42z",394,"152.csv","","null","resources/images/coin2.png","null","",NA,NA,NA,NA,""
"image-keyboard-response",485,420140,"0.0-3.158-0.158","t9rqkczb733s42z",394,"152.csv","","568.3999999985099","resources/trios/L1T2A2.jpg","37","restless",0.3,0.5,0.6,0.209140785614123,"true"
"image-keyboard-response",486,420547,"0.0-3.158-1.158","t9rqkczb733s42z",394,"152.csv","","null","resources/maskTrios/L1BB.jpg","null","",NA,NA,NA,NA,""
"image-keyboard-response",487,421752,"0.0-3.158-2.158","t9rqkczb733s42z",394,"152.csv","","null","resources/images/coin2.png","null","",NA,NA,NA,NA,""
"image-keyboard-response",488,422104,"0.0-3.159-0.159","t9rqkczb733s42z",394,"152.csv","","350.0999999977648","resources/trios/L1T1A2.jpg","37","restless",0.3,0.5,0.6,0.317229763797095,"false"
"image-keyboard-response",489,422506,"0.0-3.159-1.159","t9rqkczb733s42z",394,"152.csv","","null","resources/maskTrios/L1BB.jpg","null","",NA,NA,NA,NA,""
"image-keyboard-response",490,423712,"0.0-3.159-2.159","t9rqkczb733s42z",394,"152.csv","","null","resources/images/fishbone.png","null","",NA,NA,NA,NA,""
"image-keyboard-response",491,424122,"0.0-3.160-0.160","t9rqkczb733s42z",394,"152.csv","","408.0999999977648","resources/trios/L1T2A2.jpg","38","restless",0.3,0.5,0.6,0.943613260983995,"false"
"image-keyboard-response",492,424528,"0.0-3.160-1.160","t9rqkczb733s42z",394,"152.csv","","null","resources/maskTrios/BT2B.jpg","null","",NA,NA,NA,NA,""
"image-keyboard-response",493,425734,"0.0-3.160-2.160","t9rqkczb733s42z",394,"152.csv","","null","resources/images/fishbone.png","null","",NA,NA,NA,NA,""
"image-keyboard-response",494,426127,"0.0-3.161-0.161","t9rqkczb733s42z",394,"152.csv","","391","resources/trios/L4T2A2.jpg","39","restless",0.3,0.5,0.6,0.721309276433391,"false"
"image-keyboard-response",495,426529,"0.0-3.161-1.161","t9rqkczb733s42z",394,"152.csv","","null","resources/maskTrios/BBA2.jpg","null","",NA,NA,NA,NA,""
"image-keyboard-response",496,427732,"0.0-3.161-2.161","t9rqkczb733s42z",394,"152.csv","","null","resources/images/fishbone.png","null","",NA,NA,NA,NA,""
"image-keyboard-response",497,428040,"0.0-3.162-0.162","t9rqkczb733s42z",394,"152.csv","","306.3999999985099","resources/trios/L4T2A1.jpg","38","restless",0.3,0.5,0.6,0.652357774583057,"false"
"image-keyboard-response",498,428447,"0.0-3.162-1.162","t9rqkczb733s42z",394,"152.csv","","null","resources/maskTrios/BT2B.jpg","null","",NA,NA,NA,NA,""
"image-keyboard-response",499,429654,"0.0-3.162-2.162","t9rqkczb733s42z",394,"152.csv","","null","resources/images/fishbone.png","null","",NA,NA,NA,NA,""
"image-keyboard-response",500,430112,"0.0-3.163-0.163","t9rqkczb733s42z",394,"152.csv","","455.6000000014901","resources/trios/L1T2A2.jpg","37","restless",0.3,0.5,0.6,0.871633937124625,"false"
"image-keyboard-response",501,430519,"0.0-3.163-1.163","t9rqkczb733s42z",394,"152.csv","","null","resources/maskTrios/L1BB.jpg","null","",NA,NA,NA,NA,""
"image-keyboard-response",502,431724,"0.0-3.163-2.163","t9rqkczb733s42z",394,"152.csv","","null","resources/images/fishbone.png","null","",NA,NA,NA,NA,""
"image-keyboard-response",503,432194,"0.0-3.164-0.164","t9rqkczb733s42z",394,"152.csv","","468.30000000074506","resources/trios/L4T2A2.jpg","39","restless",0.3,0.5,0.6,0.951449834112045,"false"
"image-keyboard-response",504,432599,"0.0-3.164-1.164","t9rqkczb733s42z",394,"152.csv","","null","resources/maskTrios/BBA2.jpg","null","",NA,NA,NA,NA,""
"image-keyboard-response",505,433806,"0.0-3.164-2.164","t9rqkczb733s42z",394,"152.csv","","null","resources/images/fishbone.png","null","",NA,NA,NA,NA,""
"image-keyboard-response",506,434378,"0.0-3.165-0.165","t9rqkczb733s42z",394,"152.csv","","570","resources/trios/L4T2A1.jpg","38","restless",0.3,0.5,0.6,0.501071313478301,"false"
"image-keyboard-response",507,434782,"0.0-3.165-1.165","t9rqkczb733s42z",394,"152.csv","","null","resources/maskTrios/BT2B.jpg","null","",NA,NA,NA,NA,""
"image-keyboard-response",508,435989,"0.0-3.165-2.165","t9rqkczb733s42z",394,"152.csv","","null","resources/images/fishbone.png","null","",NA,NA,NA,NA,""
"image-keyboard-response",509,436574,"0.0-3.166-0.166","t9rqkczb733s42z",394,"152.csv","","584","resources/trios/L1T2A2.jpg","37","restless",0.3,0.5,0.6,0.522582536374136,"false"
"image-keyboard-response",510,436981,"0.0-3.166-1.166","t9rqkczb733s42z",394,"152.csv","","null","resources/maskTrios/L1BB.jpg","null","",NA,NA,NA,NA,""
"image-keyboard-response",511,438187,"0.0-3.166-2.166","t9rqkczb733s42z",394,"152.csv","","null","resources/images/fishbone.png","null","",NA,NA,NA,NA,""
"image-keyboard-response",512,438791,"0.0-3.167-0.167","t9rqkczb733s42z",394,"152.csv","","601.6000000014901","resources/trios/L1T2A1.jpg","37","restless",0.3,0.5,0.6,0.558074375635019,"false"
"image-keyboard-response",513,439193,"0.0-3.167-1.167","t9rqkczb733s42z",394,"152.csv","","null","resources/maskTrios/L1BB.jpg","null","",NA,NA,NA,NA,""
"image-keyboard-response",514,440400,"0.0-3.167-2.167","t9rqkczb733s42z",394,"152.csv","","null","resources/images/fishbone.png","null","",NA,NA,NA,NA,""
"image-keyboard-response",515,441056,"0.0-3.168-0.168","t9rqkczb733s42z",394,"152.csv","","653.5","resources/trios/L4T1A1.jpg","37","restless",0.3,0.5,0.7,0.592435468322567,"false"
"image-keyboard-response",516,441461,"0.0-3.168-1.168","t9rqkczb733s42z",394,"152.csv","","null","resources/maskTrios/L4BB.jpg","null","",NA,NA,NA,NA,""
"image-keyboard-response",517,442668,"0.0-3.168-2.168","t9rqkczb733s42z",394,"152.csv","","null","resources/images/fishbone.png","null","",NA,NA,NA,NA,""
"image-keyboard-response",518,443746,"0.0-3.169-0.169","t9rqkczb733s42z",394,"152.csv","","1075.5","resources/trios/L1T2A2.jpg","38","restless",0.3,0.5,0.7,0.711802026952249,"false"
"image-keyboard-response",519,444153,"0.0-3.169-1.169","t9rqkczb733s42z",394,"152.csv","","null","resources/maskTrios/BT2B.jpg","null","",NA,NA,NA,NA,""
"image-keyboard-response",520,445359,"0.0-3.169-2.169","t9rqkczb733s42z",394,"152.csv","","null","resources/images/fishbone.png","null","",NA,NA,NA,NA,""
"image-keyboard-response",521,445836,"0.0-3.170-0.170","t9rqkczb733s42z",394,"152.csv","","474.80000000074506","resources/trios/L4T1A2.jpg","39","restless",0.3,0.5,0.7,0.00153308708067312,"true"
"image-keyboard-response",522,446241,"0.0-3.170-1.170","t9rqkczb733s42z",394,"152.csv","","null","resources/maskTrios/BBA2.jpg","null","",NA,NA,NA,NA,""
"image-keyboard-response",523,447444,"0.0-3.170-2.170","t9rqkczb733s42z",394,"152.csv","","null","resources/images/coin2.png","null","",NA,NA,NA,NA,""
"image-keyboard-response",524,451391,"0.0-3.171-0.171","t9rqkczb733s42z",394,"152.csv","","3945.89999999851","resources/trios/L1T2A1.jpg","39","restless",0.3,0.5,0.7,0.984181029287547,"false"
"image-keyboard-response",525,451796,"0.0-3.171-1.171","t9rqkczb733s42z",394,"152.csv","","null","resources/maskTrios/BBA1.jpg","null","",NA,NA,NA,NA,""
"image-keyboard-response",526,453003,"0.0-3.171-2.171","t9rqkczb733s42z",394,"152.csv","","null","resources/images/fishbone.png","null","",NA,NA,NA,NA,""
"image-keyboard-response",527,453706,"0.0-3.172-0.172","t9rqkczb733s42z",394,"152.csv","","700.1000000014901","resources/trios/L1T1A2.jpg","38","restless",0.3,0.5,0.7,0.599120995761941,"false"
"image-keyboard-response",528,454110,"0.0-3.172-1.172","t9rqkczb733s42z",394,"152.csv","","null","resources/maskTrios/BT1B.jpg","null","",NA,NA,NA,NA,""
"image-keyboard-response",529,455317,"0.0-3.172-2.172","t9rqkczb733s42z",394,"152.csv","","null","resources/images/fishbone.png","null","",NA,NA,NA,NA,""
"image-keyboard-response",530,455673,"0.0-3.173-0.173","t9rqkczb733s42z",394,"152.csv","","354.4000000022352","resources/trios/L4T2A2.jpg","38","restless",0.2,0.5,0.7,0.436246923889116,"true"
"image-keyboard-response",531,456080,"0.0-3.173-1.173","t9rqkczb733s42z",394,"152.csv","","null","resources/maskTrios/BT2B.jpg","null","",NA,NA,NA,NA,""
"image-keyboard-response",532,457287,"0.0-3.173-2.173","t9rqkczb733s42z",394,"152.csv","","null","resources/images/coin2.png","null","",NA,NA,NA,NA,""
"image-keyboard-response",533,457620,"0.0-3.174-0.174","t9rqkczb733s42z",394,"152.csv","","331.29999999701977","resources/trios/L1T2A2.jpg","37","restless",0.2,0.5,0.7,0.538072333887947,"false"
"image-keyboard-response",534,458027,"0.0-3.174-1.174","t9rqkczb733s42z",394,"152.csv","","null","resources/maskTrios/L1BB.jpg","null","",NA,NA,NA,NA,""
"image-keyboard-response",535,459232,"0.0-3.174-2.174","t9rqkczb733s42z",394,"152.csv","","null","resources/images/fishbone.png","null","",NA,NA,NA,NA,""
"image-keyboard-response",536,459502,"0.0-3.175-0.175","t9rqkczb733s42z",394,"152.csv","","267.3999999985099","resources/trios/L1T1A1.jpg","39","restless",0.3,0.5,0.7,0.315789065899555,"true"
"image-keyboard-response",537,459909,"0.0-3.175-1.175","t9rqkczb733s42z",394,"152.csv","","null","resources/maskTrios/BBA1.jpg","null","",NA,NA,NA,NA,""
"image-keyboard-response",538,461116,"0.0-3.175-2.175","t9rqkczb733s42z",394,"152.csv","","null","resources/images/coin2.png","null","",NA,NA,NA,NA,""
"image-keyboard-response",539,461728,"0.0-3.176-0.176","t9rqkczb733s42z",394,"152.csv","","609.6999999992549","resources/trios/L1T1A2.jpg","38","restless",0.3,0.5,0.7,0.293393051758629,"true"
"image-keyboard-response",540,462132,"0.0-3.176-1.176","t9rqkczb733s42z",394,"152.csv","","null","resources/maskTrios/BT1B.jpg","null","",NA,NA,NA,NA,""
"image-keyboard-response",541,463335,"0.0-3.176-2.176","t9rqkczb733s42z",394,"152.csv","","null","resources/images/coin2.png","null","",NA,NA,NA,NA,""
"image-keyboard-response",542,463762,"0.0-3.177-0.177","t9rqkczb733s42z",394,"152.csv","","425.30000000074506","resources/trios/L1T2A1.jpg","39","restless",0.3,0.5,0.7,0.968017995547499,"false"
"image-keyboard-response",543,464165,"0.0-3.177-1.177","t9rqkczb733s42z",394,"152.csv","","null","resources/maskTrios/BBA1.jpg","null","",NA,NA,NA,NA,""
"image-keyboard-response",544,465368,"0.0-3.177-2.177","t9rqkczb733s42z",394,"152.csv","","null","resources/images/fishbone.png","null","",NA,NA,NA,NA,""
"image-keyboard-response",545,466027,"0.0-3.178-0.178","t9rqkczb733s42z",394,"152.csv","","657.3999999985099","resources/trios/L1T1A1.jpg","38","restless",0.3,0.5,0.7,0.155376633126748,"true"
"image-keyboard-response",546,466433,"0.0-3.178-1.178","t9rqkczb733s42z",394,"152.csv","","null","resources/maskTrios/BT1B.jpg","null","",NA,NA,NA,NA,""
"image-keyboard-response",547,467640,"0.0-3.178-2.178","t9rqkczb733s42z",394,"152.csv","","null","resources/images/coin2.png","null","",NA,NA,NA,NA,""
"image-keyboard-response",548,467935,"0.0-3.179-0.179","t9rqkczb733s42z",394,"152.csv","","292.3999999985099","resources/trios/L1T1A1.jpg","37","restless",0.3,0.4,0.7,0.8903058382817,"false"
"image-keyboard-response",549,468341,"0.0-3.179-1.179","t9rqkczb733s42z",394,"152.csv","","null","resources/maskTrios/L1BB.jpg","null","",NA,NA,NA,NA,""
"image-keyboard-response",550,469548,"0.0-3.179-2.179","t9rqkczb733s42z",394,"152.csv","","null","resources/images/fishbone.png","null","",NA,NA,NA,NA,""
"image-keyboard-response",551,469809,"0.0-3.180-0.180","t9rqkczb733s42z",394,"152.csv","","258.1000000014901","resources/trios/L1T2A1.jpg","39","restless",0.3,0.4,0.7,0.346841554869285,"true"
"image-keyboard-response",552,470213,"0.0-3.180-1.180","t9rqkczb733s42z",394,"152.csv","","null","resources/maskTrios/BBA1.jpg","null","",NA,NA,NA,NA,""
"image-keyboard-response",553,471420,"0.0-3.180-2.180","t9rqkczb733s42z",394,"152.csv","","null","resources/images/coin2.png","null","",NA,NA,NA,NA,""
"image-keyboard-response",554,471691,"0.0-3.181-0.181","t9rqkczb733s42z",394,"152.csv","","268.9000000022352","resources/trios/L1T2A2.jpg","38","restless",0.3,0.4,0.7,0.339469325210873,"true"
"image-keyboard-response",555,472099,"0.0-3.181-1.181","t9rqkczb733s42z",394,"152.csv","","null","resources/maskTrios/BT2B.jpg","null","",NA,NA,NA,NA,""
"image-keyboard-response",556,473305,"0.0-3.181-2.181","t9rqkczb733s42z",394,"152.csv","","null","resources/images/coin2.png","null","",NA,NA,NA,NA,""
"image-keyboard-response",557,473569,"0.0-3.182-0.182","t9rqkczb733s42z",394,"152.csv","","262","resources/trios/L1T2A2.jpg","39","restless",0.2,0.4,0.7,0.383278749790621,"true"
"image-keyboard-response",558,473977,"0.0-3.182-1.182","t9rqkczb733s42z",394,"152.csv","","null","resources/maskTrios/BBA2.jpg","null","",NA,NA,NA,NA,""
"image-keyboard-response",559,475184,"0.0-3.182-2.182","t9rqkczb733s42z",394,"152.csv","","null","resources/images/coin2.png","null","",NA,NA,NA,NA,""
"image-keyboard-response",560,475476,"0.0-3.183-0.183","t9rqkczb733s42z",394,"152.csv","","290.4000000022352","resources/trios/L1T2A2.jpg","38","restless",0.1,0.4,0.7,0.933218194110389,"false"
"image-keyboard-response",561,475883,"0.0-3.183-1.183","t9rqkczb733s42z",394,"152.csv","","null","resources/maskTrios/BT2B.jpg","null","",NA,NA,NA,NA,""
"image-keyboard-response",562,477089,"0.0-3.183-2.183","t9rqkczb733s42z",394,"152.csv","","null","resources/images/fishbone.png","null","",NA,NA,NA,NA,""
"image-keyboard-response",563,477480,"0.0-3.184-0.184","t9rqkczb733s42z",394,"152.csv","","389.5","resources/trios/L4T2A2.jpg","37","restless",0.1,0.4,0.7,0.283329391343462,"false"
"image-keyboard-response",564,477882,"0.0-3.184-1.184","t9rqkczb733s42z",394,"152.csv","","null","resources/maskTrios/L4BB.jpg","null","",NA,NA,NA,NA,""
"image-keyboard-response",565,479088,"0.0-3.184-2.184","t9rqkczb733s42z",394,"152.csv","","null","resources/images/fishbone.png","null","",NA,NA,NA,NA,""
"image-keyboard-response",566,479427,"0.0-3.185-0.185","t9rqkczb733s42z",394,"152.csv","","337.20000000298023","resources/trios/L1T2A2.jpg","38","restless",0.1,0.4,0.7,0.100096270270757,"true"
"image-keyboard-response",567,479834,"0.0-3.185-1.185","t9rqkczb733s42z",394,"152.csv","","null","resources/maskTrios/BT2B.jpg","null","",NA,NA,NA,NA,""
"image-keyboard-response",568,481040,"0.0-3.185-2.185","t9rqkczb733s42z",394,"152.csv","","null","resources/images/coin2.png","null","",NA,NA,NA,NA,""
"image-keyboard-response",569,481357,"0.0-3.186-0.186","t9rqkczb733s42z",394,"152.csv","","314.4000000022352","resources/trios/L1T1A1.jpg","39","restless",0.1,0.4,0.7,0.933009211040073,"false"
"image-keyboard-response",570,481764,"0.0-3.186-1.186","t9rqkczb733s42z",394,"152.csv","","null","resources/maskTrios/BBA1.jpg","null","",NA,NA,NA,NA,""
"image-keyboard-response",571,482971,"0.0-3.186-2.186","t9rqkczb733s42z",394,"152.csv","","null","resources/images/fishbone.png","null","",NA,NA,NA,NA,""
"image-keyboard-response",572,483342,"0.0-3.187-0.187","t9rqkczb733s42z",394,"152.csv","","369.3999999985099","resources/trios/L4T1A1.jpg","38","restless",0.1,0.4,0.7,0.279665027056032,"true"
"image-keyboard-response",573,483747,"0.0-3.187-1.187","t9rqkczb733s42z",394,"152.csv","","null","resources/maskTrios/BT1B.jpg","null","",NA,NA,NA,NA,""
"image-keyboard-response",574,484954,"0.0-3.187-2.187","t9rqkczb733s42z",394,"152.csv","","null","resources/images/coin2.png","null","",NA,NA,NA,NA,""
"image-keyboard-response",575,485919,"0.0-3.188-0.188","t9rqkczb733s42z",394,"152.csv","","962","resources/trios/L1T1A2.jpg","38","restless",0.1,0.4,0.7,0.522682017470816,"false"
"image-keyboard-response",576,486324,"0.0-3.188-1.188","t9rqkczb733s42z",394,"152.csv","","null","resources/maskTrios/BT1B.jpg","null","",NA,NA,NA,NA,""
"image-keyboard-response",577,487530,"0.0-3.188-2.188","t9rqkczb733s42z",394,"152.csv","","null","resources/images/fishbone.png","null","",NA,NA,NA,NA,""
"image-keyboard-response",578,487995,"0.0-3.189-0.189","t9rqkczb733s42z",394,"152.csv","","462.5","resources/trios/L4T1A2.jpg","39","restless",0.2,0.4,0.7,0.604446032221069,"true"
"image-keyboard-response",579,488402,"0.0-3.189-1.189","t9rqkczb733s42z",394,"152.csv","","null","resources/maskTrios/BBA2.jpg","null","",NA,NA,NA,NA,""
"image-keyboard-response",580,489609,"0.0-3.189-2.189","t9rqkczb733s42z",394,"152.csv","","null","resources/images/coin2.png","null","",NA,NA,NA,NA,""
"image-keyboard-response",581,489914,"0.0-3.190-0.190","t9rqkczb733s42z",394,"152.csv","","302.6000000014901","resources/trios/L4T2A1.jpg","38","restless",0.2,0.5,0.7,0.353313264512625,"true"
"image-keyboard-response",582,490321,"0.0-3.190-1.190","t9rqkczb733s42z",394,"152.csv","","null","resources/maskTrios/BT2B.jpg","null","",NA,NA,NA,NA,""
"image-keyboard-response",583,491524,"0.0-3.190-2.190","t9rqkczb733s42z",394,"152.csv","","null","resources/images/coin2.png","null","",NA,NA,NA,NA,""
"image-keyboard-response",584,491876,"0.0-3.191-0.191","t9rqkczb733s42z",394,"152.csv","","349.6000000014901","resources/trios/L1T1A2.jpg","37","restless",0.3,0.5,0.7,0.880802863672297,"false"
"image-keyboard-response",585,492283,"0.0-3.191-1.191","t9rqkczb733s42z",394,"152.csv","","null","resources/maskTrios/L1BB.jpg","null","",NA,NA,NA,NA,""
"image-keyboard-response",586,493487,"0.0-3.191-2.191","t9rqkczb733s42z",394,"152.csv","","null","resources/images/fishbone.png","null","",NA,NA,NA,NA,""
"image-keyboard-response",587,494024,"0.0-3.192-0.192","t9rqkczb733s42z",394,"152.csv","","535.8999999985099","resources/trios/L4T1A1.jpg","38","restless",0.3,0.5,0.7,0.673938835116845,"false"
"image-keyboard-response",588,494431,"0.0-3.192-1.192","t9rqkczb733s42z",394,"152.csv","","null","resources/maskTrios/BT1B.jpg","null","",NA,NA,NA,NA,""
"image-keyboard-response",589,495638,"0.0-3.192-2.192","t9rqkczb733s42z",394,"152.csv","","null","resources/images/fishbone.png","null","",NA,NA,NA,NA,""
"image-keyboard-response",590,495920,"0.0-3.193-0.193","t9rqkczb733s42z",394,"152.csv","","279.69999999925494","resources/trios/L4T2A1.jpg","39","restless",0.3,0.5,0.7,0.235075142876656,"true"
"image-keyboard-response",591,496327,"0.0-3.193-1.193","t9rqkczb733s42z",394,"152.csv","","null","resources/maskTrios/BBA1.jpg","null","",NA,NA,NA,NA,""
"image-keyboard-response",592,497534,"0.0-3.193-2.193","t9rqkczb733s42z",394,"152.csv","","null","resources/images/coin2.png","null","",NA,NA,NA,NA,""
"image-keyboard-response",593,497774,"0.0-3.194-0.194","t9rqkczb733s42z",394,"152.csv","","237.89999999850988","resources/trios/L4T2A2.jpg","38","restless",0.4,0.5,0.7,0.512482669707091,"false"
"image-keyboard-response",594,498179,"0.0-3.194-1.194","t9rqkczb733s42z",394,"152.csv","","null","resources/maskTrios/BT2B.jpg","null","",NA,NA,NA,NA,""
"image-keyboard-response",595,499382,"0.0-3.194-2.194","t9rqkczb733s42z",394,"152.csv","","null","resources/images/fishbone.png","null","",NA,NA,NA,NA,""
"image-keyboard-response",596,499684,"0.0-3.195-0.195","t9rqkczb733s42z",394,"152.csv","","299.30000000074506","resources/trios/L1T1A1.jpg","39","restless",0.5,0.4,0.6,0.063702701786911,"true"
"image-keyboard-response",597,500089,"0.0-3.195-1.195","t9rqkczb733s42z",394,"152.csv","","null","resources/maskTrios/BBA1.jpg","null","",NA,NA,NA,NA,""
"image-keyboard-response",598,501292,"0.0-3.195-2.195","t9rqkczb733s42z",394,"152.csv","","null","resources/images/coin2.png","null","",NA,NA,NA,NA,""
"image-keyboard-response",599,501641,"0.0-3.196-0.196","t9rqkczb733s42z",394,"152.csv","","346.6000000014901","resources/trios/L1T2A2.jpg","39","restless",0.6,0.4,0.6,0.446775135022652,"true"
"image-keyboard-response",600,502046,"0.0-3.196-1.196","t9rqkczb733s42z",394,"152.csv","","null","resources/maskTrios/BBA2.jpg","null","",NA,NA,NA,NA,""
"image-keyboard-response",601,503253,"0.0-3.196-2.196","t9rqkczb733s42z",394,"152.csv","","null","resources/images/coin2.png","null","",NA,NA,NA,NA,""
"image-keyboard-response",602,503514,"0.0-3.197-0.197","t9rqkczb733s42z",394,"152.csv","","259.19999999925494","resources/trios/L1T2A2.jpg","39","restless",0.6,0.4,0.6,0.560261243109391,"true"
"image-keyboard-response",603,503919,"0.0-3.197-1.197","t9rqkczb733s42z",394,"152.csv","","null","resources/maskTrios/BBA2.jpg","null","",NA,NA,NA,NA,""
"image-keyboard-response",604,505124,"0.0-3.197-2.197","t9rqkczb733s42z",394,"152.csv","","null","resources/images/coin2.png","null","",NA,NA,NA,NA,""
"image-keyboard-response",605,505402,"0.0-3.198-0.198","t9rqkczb733s42z",394,"152.csv","","276","resources/trios/L4T2A2.jpg","39","restless",0.6,0.4,0.6,0.261586228778599,"true"
