"trial_type","trial_index","time_elapsed","internal_node_id","subject","participantCode","walkNumber","success","rt","stimulus","key_press","test_part","leftProb","midProb","rightProb","generatedNum","correct"
"pavlovia",0,1075,"0.0-0.0","knwvpf2z2hqk2gl",739,"137.csv","","","","","",NA,NA,NA,NA,""
"fullscreen",1,7531,"0.0-1.0","knwvpf2z2hqk2gl",739,"137.csv","true","","","","",NA,NA,NA,NA,""
"html-keyboard-response",2,14743,"0.0-2.0-0.0","knwvpf2z2hqk2gl",739,"137.csv","","7209.300000011921","<p><font size='6'>Arrrgh!</p></font><p>Can you be the best pirate? Try to find lots of gold! But beware, some islands have more gold than others, and over time, the island with the most gold may change. Can YOU figure it out? </p><font size='6'>GOOD LUCK, CAPTAIN!!!</font><p>Press any key to begin</p>","32","",NA,NA,NA,NA,""
"image-keyboard-response",3,17746,"0.0-2.0-1.0","knwvpf2z2hqk2gl",739,"137.csv","","null","resources/image_sets/111.png","null","",NA,NA,NA,NA,""
"image-keyboard-response",4,21795,"0.0-2.0-2.0","knwvpf2z2hqk2gl",739,"137.csv","","4047.099999964237","resources/image_sets/left_highlight.png","37","",NA,NA,NA,NA,""
"image-keyboard-response",5,25227,"0.0-2.0-3.0","knwvpf2z2hqk2gl",739,"137.csv","","3430.100000023842","resources/image_sets/mid_highlight.png","38","",NA,NA,NA,NA,""
"image-keyboard-response",6,27583,"0.0-2.0-4.0","knwvpf2z2hqk2gl",739,"137.csv","","2354","resources/image_sets/right_highlight.png","39","",NA,NA,NA,NA,""
"image-keyboard-response",7,31572,"0.0-2.0-5.0","knwvpf2z2hqk2gl",739,"137.csv","","3987.399999976158","resources/image_sets/111.png","13","",NA,NA,NA,NA,""
"image-keyboard-response",8,36391,"0.0-2.0-6.0","knwvpf2z2hqk2gl",739,"137.csv","","4816.699999988079","resources/images/coin2.png","13","",NA,NA,NA,NA,""
"image-keyboard-response",9,38409,"0.0-2.0-7.0","knwvpf2z2hqk2gl",739,"137.csv","","2015.7999999523163","resources/images/fishbone.png","13","",NA,NA,NA,NA,""
"html-keyboard-response",10,43591,"0.0-2.0-8.0","knwvpf2z2hqk2gl",739,"137.csv","","5180.599999964237","<p>Your first journey will be a long one, but you will get a well deserved break at the end</p><p>After the break you will have four more journeys, but each will be much shorter than the first, and you will have breaks in between each</p><p>Press Enter to begin</p>","13","",NA,NA,NA,NA,""
"image-keyboard-response",11,47383,"0.0-3.0-0.0","knwvpf2z2hqk2gl",739,"137.csv","","3788.899999976158","resources/trios/L1T2A3.jpg","39","restless",0.3,0.7,0.9,0.905642901133496,"false"
"image-keyboard-response",12,47792,"0.0-3.0-1.0","knwvpf2z2hqk2gl",739,"137.csv","","null","resources/maskTrios/BBA3.jpg","null","",NA,NA,NA,NA,""
"image-keyboard-response",13,48999,"0.0-3.0-2.0","knwvpf2z2hqk2gl",739,"137.csv","","null","resources/images/fishbone.png","null","",NA,NA,NA,NA,""
"image-keyboard-response",14,49752,"0.0-3.1-0.1","knwvpf2z2hqk2gl",739,"137.csv","","750.1999999880791","resources/trios/L1T2A1.jpg","37","restless",0.3,0.6,0.9,0.692656928029508,"false"
"image-keyboard-response",15,50160,"0.0-3.1-1.1","knwvpf2z2hqk2gl",739,"137.csv","","null","resources/maskTrios/L1BB.jpg","null","",NA,NA,NA,NA,""
"image-keyboard-response",16,51367,"0.0-3.1-2.1","knwvpf2z2hqk2gl",739,"137.csv","","null","resources/images/fishbone.png","null","",NA,NA,NA,NA,""
"image-keyboard-response",17,53076,"0.0-3.2-0.2","knwvpf2z2hqk2gl",739,"137.csv","","1707.5","resources/trios/L2T4A3.jpg","38","restless",0.3,0.6,0.9,0.399096024023475,"true"
"image-keyboard-response",18,53484,"0.0-3.2-1.2","knwvpf2z2hqk2gl",739,"137.csv","","null","resources/maskTrios/BT4B.jpg","null","",NA,NA,NA,NA,""
"image-keyboard-response",19,54692,"0.0-3.2-2.2","knwvpf2z2hqk2gl",739,"137.csv","","null","resources/images/coin2.png","null","",NA,NA,NA,NA,""
"image-keyboard-response",20,56732,"0.0-3.3-0.3","knwvpf2z2hqk2gl",739,"137.csv","","2037.800000011921","resources/trios/L2T2A1.jpg","38","restless",0.4,0.6,0.9,0.707854083030101,"false"
"image-keyboard-response",21,57139,"0.0-3.3-1.3","knwvpf2z2hqk2gl",739,"137.csv","","null","resources/maskTrios/BT2B.jpg","null","",NA,NA,NA,NA,""
"image-keyboard-response",22,58346,"0.0-3.3-2.3","knwvpf2z2hqk2gl",739,"137.csv","","null","resources/images/fishbone.png","null","",NA,NA,NA,NA,""
"image-keyboard-response",23,58818,"0.0-3.4-0.4","knwvpf2z2hqk2gl",739,"137.csv","","468.80000001192093","resources/trios/L1T2A1.jpg","37","restless",0.4,0.6,0.9,0.946307717875601,"false"
"image-keyboard-response",24,59225,"0.0-3.4-1.4","knwvpf2z2hqk2gl",739,"137.csv","","null","resources/maskTrios/L1BB.jpg","null","",NA,NA,NA,NA,""
"image-keyboard-response",25,60430,"0.0-3.4-2.4","knwvpf2z2hqk2gl",739,"137.csv","","null","resources/images/fishbone.png","null","",NA,NA,NA,NA,""
"image-keyboard-response",26,60795,"0.0-3.5-0.5","knwvpf2z2hqk2gl",739,"137.csv","","363.9000000357628","resources/trios/L1T4A1.jpg","39","restless",0.4,0.6,0.9,0.596638214092065,"true"
"image-keyboard-response",27,61201,"0.0-3.5-1.5","knwvpf2z2hqk2gl",739,"137.csv","","null","resources/maskTrios/BBA1.jpg","null","",NA,NA,NA,NA,""
"image-keyboard-response",28,62408,"0.0-3.5-2.5","knwvpf2z2hqk2gl",739,"137.csv","","null","resources/images/coin2.png","null","",NA,NA,NA,NA,""
"image-keyboard-response",29,63902,"0.0-3.6-0.6","knwvpf2z2hqk2gl",739,"137.csv","","1491.5999999642372","resources/trios/L2T2A1.jpg","37","restless",0.4,0.6,0.9,0.696954795415521,"false"
"image-keyboard-response",30,64310,"0.0-3.6-1.6","knwvpf2z2hqk2gl",739,"137.csv","","null","resources/maskTrios/L2BB.jpg","null","",NA,NA,NA,NA,""
"image-keyboard-response",31,65517,"0.0-3.6-2.6","knwvpf2z2hqk2gl",739,"137.csv","","null","resources/images/fishbone.png","null","",NA,NA,NA,NA,""
"image-keyboard-response",32,65903,"0.0-3.7-0.7","knwvpf2z2hqk2gl",739,"137.csv","","384","resources/trios/L1T4A1.jpg","38","restless",0.4,0.6,0.9,0.141715763845858,"true"
"image-keyboard-response",33,66309,"0.0-3.7-1.7","knwvpf2z2hqk2gl",739,"137.csv","","null","resources/maskTrios/BT4B.jpg","null","",NA,NA,NA,NA,""
"image-keyboard-response",34,67512,"0.0-3.7-2.7","knwvpf2z2hqk2gl",739,"137.csv","","null","resources/images/coin2.png","null","",NA,NA,NA,NA,""
"image-keyboard-response",35,68628,"0.0-3.8-0.8","knwvpf2z2hqk2gl",739,"137.csv","","1113.5999999642372","resources/trios/L1T2A3.jpg","38","restless",0.4,0.6,0.9,0.237172606363828,"true"
"image-keyboard-response",36,69032,"0.0-3.8-1.8","knwvpf2z2hqk2gl",739,"137.csv","","null","resources/maskTrios/BT2B.jpg","null","",NA,NA,NA,NA,""
"image-keyboard-response",37,70238,"0.0-3.8-2.8","knwvpf2z2hqk2gl",739,"137.csv","","null","resources/images/coin2.png","null","",NA,NA,NA,NA,""
"image-keyboard-response",38,70677,"0.0-3.9-0.9","knwvpf2z2hqk2gl",739,"137.csv","","437.0999999642372","resources/trios/L2T2A1.jpg","38","restless",0.4,0.6,0.9,0.738186743093897,"false"
"image-keyboard-response",39,71084,"0.0-3.9-1.9","knwvpf2z2hqk2gl",739,"137.csv","","null","resources/maskTrios/BT2B.jpg","null","",NA,NA,NA,NA,""
"image-keyboard-response",40,72291,"0.0-3.9-2.9","knwvpf2z2hqk2gl",739,"137.csv","","null","resources/images/fishbone.png","null","",NA,NA,NA,NA,""
"image-keyboard-response",41,72613,"0.0-3.10-0.10","knwvpf2z2hqk2gl",739,"137.csv","","320.5","resources/trios/L2T4A3.jpg","39","restless",0.4,0.6,0.9,0.165809661979642,"true"
"image-keyboard-response",42,73021,"0.0-3.10-1.10","knwvpf2z2hqk2gl",739,"137.csv","","null","resources/maskTrios/BBA3.jpg","null","",NA,NA,NA,NA,""
"image-keyboard-response",43,74225,"0.0-3.10-2.10","knwvpf2z2hqk2gl",739,"137.csv","","null","resources/images/coin2.png","null","",NA,NA,NA,NA,""
"image-keyboard-response",44,74823,"0.0-3.11-0.11","knwvpf2z2hqk2gl",739,"137.csv","","596.4000000357628","resources/trios/L2T4A1.jpg","38","restless",0.4,0.6,0.9,0.643561178594027,"false"
"image-keyboard-response",45,75230,"0.0-3.11-1.11","knwvpf2z2hqk2gl",739,"137.csv","","null","resources/maskTrios/BT4B.jpg","null","",NA,NA,NA,NA,""
"image-keyboard-response",46,76432,"0.0-3.11-2.11","knwvpf2z2hqk2gl",739,"137.csv","","null","resources/images/fishbone.png","null","",NA,NA,NA,NA,""
"image-keyboard-response",47,76786,"0.0-3.12-0.12","knwvpf2z2hqk2gl",739,"137.csv","","352","resources/trios/L1T2A3.jpg","39","restless",0.4,0.6,0.9,0.490391833740611,"true"
"image-keyboard-response",48,77193,"0.0-3.12-1.12","knwvpf2z2hqk2gl",739,"137.csv","","null","resources/maskTrios/BBA3.jpg","null","",NA,NA,NA,NA,""
"image-keyboard-response",49,78397,"0.0-3.12-2.12","knwvpf2z2hqk2gl",739,"137.csv","","null","resources/images/coin2.png","null","",NA,NA,NA,NA,""
"image-keyboard-response",50,78855,"0.0-3.13-0.13","knwvpf2z2hqk2gl",739,"137.csv","","456.80000001192093","resources/trios/L2T4A1.jpg","39","restless",0.4,0.6,0.9,0.262189726879221,"true"
"image-keyboard-response",51,79258,"0.0-3.13-1.13","knwvpf2z2hqk2gl",739,"137.csv","","null","resources/maskTrios/BBA1.jpg","null","",NA,NA,NA,NA,""
"image-keyboard-response",52,80465,"0.0-3.13-2.13","knwvpf2z2hqk2gl",739,"137.csv","","null","resources/images/coin2.png","null","",NA,NA,NA,NA,""
"image-keyboard-response",53,80930,"0.0-3.14-0.14","knwvpf2z2hqk2gl",739,"137.csv","","462.19999998807907","resources/trios/L1T4A3.jpg","39","restless",0.4,0.6,0.9,0.257746607750538,"true"
"image-keyboard-response",54,81337,"0.0-3.14-1.14","knwvpf2z2hqk2gl",739,"137.csv","","null","resources/maskTrios/BBA3.jpg","null","",NA,NA,NA,NA,""
"image-keyboard-response",55,82544,"0.0-3.14-2.14","knwvpf2z2hqk2gl",739,"137.csv","","null","resources/images/coin2.png","null","",NA,NA,NA,NA,""
"image-keyboard-response",56,82974,"0.0-3.15-0.15","knwvpf2z2hqk2gl",739,"137.csv","","427.5","resources/trios/L2T4A1.jpg","39","restless",0.4,0.6,0.9,0.811716971151962,"true"
"image-keyboard-response",57,83381,"0.0-3.15-1.15","knwvpf2z2hqk2gl",739,"137.csv","","null","resources/maskTrios/BBA1.jpg","null","",NA,NA,NA,NA,""
"image-keyboard-response",58,84588,"0.0-3.15-2.15","knwvpf2z2hqk2gl",739,"137.csv","","null","resources/images/coin2.png","null","",NA,NA,NA,NA,""
"image-keyboard-response",59,84937,"0.0-3.16-0.16","knwvpf2z2hqk2gl",739,"137.csv","","346.5","resources/trios/L2T2A1.jpg","39","restless",0.4,0.6,0.9,0.2761711070978,"true"
"image-keyboard-response",60,85343,"0.0-3.16-1.16","knwvpf2z2hqk2gl",739,"137.csv","","null","resources/maskTrios/BBA1.jpg","null","",NA,NA,NA,NA,""
"image-keyboard-response",61,86550,"0.0-3.16-2.16","knwvpf2z2hqk2gl",739,"137.csv","","null","resources/images/coin2.png","null","",NA,NA,NA,NA,""
"image-keyboard-response",62,86905,"0.0-3.17-0.17","knwvpf2z2hqk2gl",739,"137.csv","","353.10000002384186","resources/trios/L2T2A1.jpg","39","restless",0.4,0.6,0.8,0.344436005134398,"true"
"image-keyboard-response",63,87311,"0.0-3.17-1.17","knwvpf2z2hqk2gl",739,"137.csv","","null","resources/maskTrios/BBA1.jpg","null","",NA,NA,NA,NA,""
"image-keyboard-response",64,88518,"0.0-3.17-2.17","knwvpf2z2hqk2gl",739,"137.csv","","null","resources/images/coin2.png","null","",NA,NA,NA,NA,""
"image-keyboard-response",65,88895,"0.0-3.18-0.18","knwvpf2z2hqk2gl",739,"137.csv","","375.60000002384186","resources/trios/L1T4A1.jpg","39","restless",0.4,0.6,0.7,0.775629270668739,"false"
"image-keyboard-response",66,89300,"0.0-3.18-1.18","knwvpf2z2hqk2gl",739,"137.csv","","null","resources/maskTrios/BBA1.jpg","null","",NA,NA,NA,NA,""
"image-keyboard-response",67,90505,"0.0-3.18-2.18","knwvpf2z2hqk2gl",739,"137.csv","","null","resources/images/fishbone.png","null","",NA,NA,NA,NA,""
"image-keyboard-response",68,91259,"0.0-3.19-0.19","knwvpf2z2hqk2gl",739,"137.csv","","751.5","resources/trios/L1T2A3.jpg","38","restless",0.4,0.6,0.7,0.0125008663217843,"true"
"image-keyboard-response",69,91661,"0.0-3.19-1.19","knwvpf2z2hqk2gl",739,"137.csv","","null","resources/maskTrios/BT2B.jpg","null","",NA,NA,NA,NA,""
"image-keyboard-response",70,92865,"0.0-3.19-2.19","knwvpf2z2hqk2gl",739,"137.csv","","null","resources/images/coin2.png","null","",NA,NA,NA,NA,""
"image-keyboard-response",71,94406,"0.0-3.20-0.20","knwvpf2z2hqk2gl",739,"137.csv","","1538.8999999761581","resources/trios/L2T2A3.jpg","38","restless",0.4,0.6,0.7,0.576340439172329,"true"
"image-keyboard-response",72,94813,"0.0-3.20-1.20","knwvpf2z2hqk2gl",739,"137.csv","","null","resources/maskTrios/BT2B.jpg","null","",NA,NA,NA,NA,""
"image-keyboard-response",73,96018,"0.0-3.20-2.20","knwvpf2z2hqk2gl",739,"137.csv","","null","resources/images/coin2.png","null","",NA,NA,NA,NA,""
"image-keyboard-response",74,96838,"0.0-3.21-0.21","knwvpf2z2hqk2gl",739,"137.csv","","817.8000000119209","resources/trios/L2T4A3.jpg","38","restless",0.4,0.6,0.7,0.249285517409863,"true"
"image-keyboard-response",75,97241,"0.0-3.21-1.21","knwvpf2z2hqk2gl",739,"137.csv","","null","resources/maskTrios/BT4B.jpg","null","",NA,NA,NA,NA,""
"image-keyboard-response",76,98447,"0.0-3.21-2.21","knwvpf2z2hqk2gl",739,"137.csv","","null","resources/images/coin2.png","null","",NA,NA,NA,NA,""
"image-keyboard-response",77,98872,"0.0-3.22-0.22","knwvpf2z2hqk2gl",739,"137.csv","","422.39999997615814","resources/trios/L2T4A3.jpg","38","restless",0.4,0.5,0.7,0.200848674005365,"true"
"image-keyboard-response",78,99279,"0.0-3.22-1.22","knwvpf2z2hqk2gl",739,"137.csv","","null","resources/maskTrios/BT4B.jpg","null","",NA,NA,NA,NA,""
"image-keyboard-response",79,100486,"0.0-3.22-2.22","knwvpf2z2hqk2gl",739,"137.csv","","null","resources/images/coin2.png","null","",NA,NA,NA,NA,""
"image-keyboard-response",80,100897,"0.0-3.23-0.23","knwvpf2z2hqk2gl",739,"137.csv","","408.80000001192093","resources/trios/L2T4A1.jpg","38","restless",0.4,0.5,0.7,0.807014943815341,"false"
"image-keyboard-response",81,101304,"0.0-3.23-1.23","knwvpf2z2hqk2gl",739,"137.csv","","null","resources/maskTrios/BT4B.jpg","null","",NA,NA,NA,NA,""
"image-keyboard-response",82,102508,"0.0-3.23-2.23","knwvpf2z2hqk2gl",739,"137.csv","","null","resources/images/fishbone.png","null","",NA,NA,NA,NA,""
"image-keyboard-response",83,102772,"0.0-3.24-0.24","knwvpf2z2hqk2gl",739,"137.csv","","262.30000001192093","resources/trios/L2T4A3.jpg","39","restless",0.4,0.5,0.7,0.570533230542142,"true"
"image-keyboard-response",84,103176,"0.0-3.24-1.24","knwvpf2z2hqk2gl",739,"137.csv","","null","resources/maskTrios/BBA3.jpg","null","",NA,NA,NA,NA,""
"image-keyboard-response",85,104383,"0.0-3.24-2.24","knwvpf2z2hqk2gl",739,"137.csv","","null","resources/images/coin2.png","null","",NA,NA,NA,NA,""
"image-keyboard-response",86,105123,"0.0-3.25-0.25","knwvpf2z2hqk2gl",739,"137.csv","","737.8000000119209","resources/trios/L1T4A1.jpg","39","restless",0.4,0.5,0.7,0.656125341547999,"true"
"image-keyboard-response",87,105525,"0.0-3.25-1.25","knwvpf2z2hqk2gl",739,"137.csv","","null","resources/maskTrios/BBA1.jpg","null","",NA,NA,NA,NA,""
"image-keyboard-response",88,106729,"0.0-3.25-2.25","knwvpf2z2hqk2gl",739,"137.csv","","null","resources/images/coin2.png","null","",NA,NA,NA,NA,""
"image-keyboard-response",89,107171,"0.0-3.26-0.26","knwvpf2z2hqk2gl",739,"137.csv","","440.5","resources/trios/L2T2A1.jpg","39","restless",0.4,0.5,0.7,0.504960365074116,"true"
"image-keyboard-response",90,107579,"0.0-3.26-1.26","knwvpf2z2hqk2gl",739,"137.csv","","null","resources/maskTrios/BBA1.jpg","null","",NA,NA,NA,NA,""
"image-keyboard-response",91,108786,"0.0-3.26-2.26","knwvpf2z2hqk2gl",739,"137.csv","","null","resources/images/coin2.png","null","",NA,NA,NA,NA,""
"image-keyboard-response",92,109135,"0.0-3.27-0.27","knwvpf2z2hqk2gl",739,"137.csv","","347.39999997615814","resources/trios/L1T4A1.jpg","38","restless",0.4,0.5,0.7,0.192036014581818,"true"
"image-keyboard-response",93,109540,"0.0-3.27-1.27","knwvpf2z2hqk2gl",739,"137.csv","","null","resources/maskTrios/BT4B.jpg","null","",NA,NA,NA,NA,""
"image-keyboard-response",94,110747,"0.0-3.27-2.27","knwvpf2z2hqk2gl",739,"137.csv","","null","resources/images/coin2.png","null","",NA,NA,NA,NA,""
"image-keyboard-response",95,111129,"0.0-3.28-0.28","knwvpf2z2hqk2gl",739,"137.csv","","380.5999999642372","resources/trios/L2T2A1.jpg","38","restless",0.5,0.5,0.7,0.47935390364603,"true"
"image-keyboard-response",96,111532,"0.0-3.28-1.28","knwvpf2z2hqk2gl",739,"137.csv","","null","resources/maskTrios/BT2B.jpg","null","",NA,NA,NA,NA,""
"image-keyboard-response",97,112739,"0.0-3.28-2.28","knwvpf2z2hqk2gl",739,"137.csv","","null","resources/images/coin2.png","null","",NA,NA,NA,NA,""
"image-keyboard-response",98,113124,"0.0-3.29-0.29","knwvpf2z2hqk2gl",739,"137.csv","","382.19999998807907","resources/trios/L1T2A1.jpg","38","restless",0.5,0.5,0.7,0.223572190692988,"true"
"image-keyboard-response",99,113530,"0.0-3.29-1.29","knwvpf2z2hqk2gl",739,"137.csv","","null","resources/maskTrios/BT2B.jpg","null","",NA,NA,NA,NA,""
"image-keyboard-response",100,114738,"0.0-3.29-2.29","knwvpf2z2hqk2gl",739,"137.csv","","null","resources/images/coin2.png","null","",NA,NA,NA,NA,""
"image-keyboard-response",101,115193,"0.0-3.30-0.30","knwvpf2z2hqk2gl",739,"137.csv","","453.19999998807907","resources/trios/L1T4A3.jpg","39","restless",0.5,0.5,0.7,0.261496212098598,"true"
"image-keyboard-response",102,115598,"0.0-3.30-1.30","knwvpf2z2hqk2gl",739,"137.csv","","null","resources/maskTrios/BBA3.jpg","null","",NA,NA,NA,NA,""
"image-keyboard-response",103,116805,"0.0-3.30-2.30","knwvpf2z2hqk2gl",739,"137.csv","","null","resources/images/coin2.png","null","",NA,NA,NA,NA,""
"image-keyboard-response",104,117236,"0.0-3.31-0.31","knwvpf2z2hqk2gl",739,"137.csv","","429","resources/trios/L1T2A1.jpg","39","restless",0.5,0.5,0.7,0.0651064512343653,"true"
"image-keyboard-response",105,117644,"0.0-3.31-1.31","knwvpf2z2hqk2gl",739,"137.csv","","null","resources/maskTrios/BBA1.jpg","null","",NA,NA,NA,NA,""
"image-keyboard-response",106,118851,"0.0-3.31-2.31","knwvpf2z2hqk2gl",739,"137.csv","","null","resources/images/coin2.png","null","",NA,NA,NA,NA,""
"image-keyboard-response",107,119199,"0.0-3.32-0.32","knwvpf2z2hqk2gl",739,"137.csv","","346.30000001192093","resources/trios/L2T2A1.jpg","39","restless",0.5,0.5,0.7,0.923195753970843,"false"
"image-keyboard-response",108,119606,"0.0-3.32-1.32","knwvpf2z2hqk2gl",739,"137.csv","","null","resources/maskTrios/BBA1.jpg","null","",NA,NA,NA,NA,""
"image-keyboard-response",109,120809,"0.0-3.32-2.32","knwvpf2z2hqk2gl",739,"137.csv","","null","resources/images/fishbone.png","null","",NA,NA,NA,NA,""
"image-keyboard-response",110,121368,"0.0-3.33-0.33","knwvpf2z2hqk2gl",739,"137.csv","","556.6999999880791","resources/trios/L1T2A1.jpg","38","restless",0.5,0.5,0.7,0.478187165310353,"true"
"image-keyboard-response",111,121775,"0.0-3.33-1.33","knwvpf2z2hqk2gl",739,"137.csv","","null","resources/maskTrios/BT2B.jpg","null","",NA,NA,NA,NA,""
"image-keyboard-response",112,122983,"0.0-3.33-2.33","knwvpf2z2hqk2gl",739,"137.csv","","null","resources/images/coin2.png","null","",NA,NA,NA,NA,""
"image-keyboard-response",113,123364,"0.0-3.34-0.34","knwvpf2z2hqk2gl",739,"137.csv","","379.7000000476837","resources/trios/L1T4A1.jpg","38","restless",0.5,0.5,0.8,0.930543660724982,"false"
"image-keyboard-response",114,123770,"0.0-3.34-1.34","knwvpf2z2hqk2gl",739,"137.csv","","null","resources/maskTrios/BT4B.jpg","null","",NA,NA,NA,NA,""
"image-keyboard-response",115,124972,"0.0-3.34-2.34","knwvpf2z2hqk2gl",739,"137.csv","","null","resources/images/fishbone.png","null","",NA,NA,NA,NA,""
"image-keyboard-response",116,125431,"0.0-3.35-0.35","knwvpf2z2hqk2gl",739,"137.csv","","456.4000000357628","resources/trios/L1T2A1.jpg","39","restless",0.5,0.5,0.8,0.714084195678509,"true"
"image-keyboard-response",117,125837,"0.0-3.35-1.35","knwvpf2z2hqk2gl",739,"137.csv","","null","resources/maskTrios/BBA1.jpg","null","",NA,NA,NA,NA,""
"image-keyboard-response",118,127044,"0.0-3.35-2.35","knwvpf2z2hqk2gl",739,"137.csv","","null","resources/images/coin2.png","null","",NA,NA,NA,NA,""
"image-keyboard-response",119,127450,"0.0-3.36-0.36","knwvpf2z2hqk2gl",739,"137.csv","","403.60000002384186","resources/trios/L2T2A3.jpg","38","restless",0.5,0.5,0.8,0.591086470850124,"false"
"image-keyboard-response",120,127853,"0.0-3.36-1.36","knwvpf2z2hqk2gl",739,"137.csv","","null","resources/maskTrios/BT2B.jpg","null","",NA,NA,NA,NA,""
"image-keyboard-response",121,129055,"0.0-3.36-2.36","knwvpf2z2hqk2gl",739,"137.csv","","null","resources/images/fishbone.png","null","",NA,NA,NA,NA,""
"image-keyboard-response",122,129420,"0.0-3.37-0.37","knwvpf2z2hqk2gl",739,"137.csv","","362.60000002384186","resources/trios/L2T2A1.jpg","39","restless",0.5,0.5,0.7,0.460859458968702,"true"
"image-keyboard-response",123,129826,"0.0-3.37-1.37","knwvpf2z2hqk2gl",739,"137.csv","","null","resources/maskTrios/BBA1.jpg","null","",NA,NA,NA,NA,""
"image-keyboard-response",124,131032,"0.0-3.37-2.37","knwvpf2z2hqk2gl",739,"137.csv","","null","resources/images/coin2.png","null","",NA,NA,NA,NA,""
"image-keyboard-response",125,131487,"0.0-3.38-0.38","knwvpf2z2hqk2gl",739,"137.csv","","452.5","resources/trios/L1T4A1.jpg","39","restless",0.5,0.5,0.7,0.0471624257336511,"true"
"image-keyboard-response",126,131892,"0.0-3.38-1.38","knwvpf2z2hqk2gl",739,"137.csv","","null","resources/maskTrios/BBA1.jpg","null","",NA,NA,NA,NA,""
"image-keyboard-response",127,133099,"0.0-3.38-2.38","knwvpf2z2hqk2gl",739,"137.csv","","null","resources/images/coin2.png","null","",NA,NA,NA,NA,""
"image-keyboard-response",128,133426,"0.0-3.39-0.39","knwvpf2z2hqk2gl",739,"137.csv","","324.9000000357628","resources/trios/L2T4A3.jpg","38","restless",0.5,0.5,0.7,0.93638219749285,"false"
"image-keyboard-response",129,133832,"0.0-3.39-1.39","knwvpf2z2hqk2gl",739,"137.csv","","null","resources/maskTrios/BT4B.jpg","null","",NA,NA,NA,NA,""
"image-keyboard-response",130,135039,"0.0-3.39-2.39","knwvpf2z2hqk2gl",739,"137.csv","","null","resources/images/fishbone.png","null","",NA,NA,NA,NA,""
"image-keyboard-response",131,135370,"0.0-3.40-0.40","knwvpf2z2hqk2gl",739,"137.csv","","329.5","resources/trios/L2T4A3.jpg","39","restless",0.5,0.5,0.7,0.791086070483241,"false"
"image-keyboard-response",132,135777,"0.0-3.40-1.40","knwvpf2z2hqk2gl",739,"137.csv","","null","resources/maskTrios/BBA3.jpg","null","",NA,NA,NA,NA,""
"image-keyboard-response",133,136983,"0.0-3.40-2.40","knwvpf2z2hqk2gl",739,"137.csv","","null","resources/images/fishbone.png","null","",NA,NA,NA,NA,""
"image-keyboard-response",134,138099,"0.0-3.41-0.41","knwvpf2z2hqk2gl",739,"137.csv","","1113.3999999761581","resources/trios/L2T4A1.jpg","37","restless",0.5,0.5,0.7,0.687977024000457,"false"
"image-keyboard-response",135,138506,"0.0-3.41-1.41","knwvpf2z2hqk2gl",739,"137.csv","","null","resources/maskTrios/L2BB.jpg","null","",NA,NA,NA,NA,""
"image-keyboard-response",136,139713,"0.0-3.41-2.41","knwvpf2z2hqk2gl",739,"137.csv","","null","resources/images/fishbone.png","null","",NA,NA,NA,NA,""
"image-keyboard-response",137,139939,"0.0-3.42-0.42","knwvpf2z2hqk2gl",739,"137.csv","","224.69999998807907","resources/trios/L1T4A1.jpg","38","restless",0.5,0.5,0.7,0.0199305721512995,"true"
"image-keyboard-response",138,140342,"0.0-3.42-1.42","knwvpf2z2hqk2gl",739,"137.csv","","null","resources/maskTrios/BT4B.jpg","null","",NA,NA,NA,NA,""
"image-keyboard-response",139,141545,"0.0-3.42-2.42","knwvpf2z2hqk2gl",739,"137.csv","","null","resources/images/coin2.png","null","",NA,NA,NA,NA,""
"image-keyboard-response",140,141863,"0.0-3.43-0.43","knwvpf2z2hqk2gl",739,"137.csv","","315.2000000476837","resources/trios/L1T4A1.jpg","38","restless",0.5,0.6,0.7,0.371215007165664,"true"
"image-keyboard-response",141,142270,"0.0-3.43-1.43","knwvpf2z2hqk2gl",739,"137.csv","","null","resources/maskTrios/BT4B.jpg","null","",NA,NA,NA,NA,""
"image-keyboard-response",142,143476,"0.0-3.43-2.43","knwvpf2z2hqk2gl",739,"137.csv","","null","resources/images/coin2.png","null","",NA,NA,NA,NA,""
"image-keyboard-response",143,143832,"0.0-3.44-0.44","knwvpf2z2hqk2gl",739,"137.csv","","354.2000000476837","resources/trios/L1T2A3.jpg","39","restless",0.6,0.6,0.7,0.917603455868377,"false"
"image-keyboard-response",144,144239,"0.0-3.44-1.44","knwvpf2z2hqk2gl",739,"137.csv","","null","resources/maskTrios/BBA3.jpg","null","",NA,NA,NA,NA,""
"image-keyboard-response",145,145445,"0.0-3.44-2.44","knwvpf2z2hqk2gl",739,"137.csv","","null","resources/images/fishbone.png","null","",NA,NA,NA,NA,""
"image-keyboard-response",146,145747,"0.0-3.45-0.45","knwvpf2z2hqk2gl",739,"137.csv","","300","resources/trios/L1T2A1.jpg","38","restless",0.6,0.6,0.7,0.943784493651818,"false"
"image-keyboard-response",147,146149,"0.0-3.45-1.45","knwvpf2z2hqk2gl",739,"137.csv","","null","resources/maskTrios/BT2B.jpg","null","",NA,NA,NA,NA,""
"image-keyboard-response",148,147356,"0.0-3.45-2.45","knwvpf2z2hqk2gl",739,"137.csv","","null","resources/images/fishbone.png","null","",NA,NA,NA,NA,""
"image-keyboard-response",149,147636,"0.0-3.46-0.46","knwvpf2z2hqk2gl",739,"137.csv","","278.19999998807907","resources/trios/L1T4A3.jpg","39","restless",0.6,0.6,0.7,0.446867329257591,"true"
"image-keyboard-response",150,148044,"0.0-3.46-1.46","knwvpf2z2hqk2gl",739,"137.csv","","null","resources/maskTrios/BBA3.jpg","null","",NA,NA,NA,NA,""
"image-keyboard-response",151,149250,"0.0-3.46-2.46","knwvpf2z2hqk2gl",739,"137.csv","","null","resources/images/coin2.png","null","",NA,NA,NA,NA,""
"image-keyboard-response",152,149744,"0.0-3.47-0.47","knwvpf2z2hqk2gl",739,"137.csv","","491.19999998807907","resources/trios/L1T4A1.jpg","39","restless",0.6,0.6,0.7,0.710817664008229,"false"
"image-keyboard-response",153,150147,"0.0-3.47-1.47","knwvpf2z2hqk2gl",739,"137.csv","","null","resources/maskTrios/BBA1.jpg","null","",NA,NA,NA,NA,""
"image-keyboard-response",154,151353,"0.0-3.47-2.47","knwvpf2z2hqk2gl",739,"137.csv","","null","resources/images/fishbone.png","null","",NA,NA,NA,NA,""
"image-keyboard-response",155,151633,"0.0-3.48-0.48","knwvpf2z2hqk2gl",739,"137.csv","","278.19999998807907","resources/trios/L1T2A3.jpg","38","restless",0.6,0.6,0.6,0.0373779148862483,"true"
"image-keyboard-response",156,152038,"0.0-3.48-1.48","knwvpf2z2hqk2gl",739,"137.csv","","null","resources/maskTrios/BT2B.jpg","null","",NA,NA,NA,NA,""
"image-keyboard-response",157,153245,"0.0-3.48-2.48","knwvpf2z2hqk2gl",739,"137.csv","","null","resources/images/coin2.png","null","",NA,NA,NA,NA,""
"image-keyboard-response",158,153592,"0.0-3.49-0.49","knwvpf2z2hqk2gl",739,"137.csv","","345.39999997615814","resources/trios/L2T4A1.jpg","38","restless",0.6,0.6,0.6,0.882683761108295,"false"
"image-keyboard-response",159,153999,"0.0-3.49-1.49","knwvpf2z2hqk2gl",739,"137.csv","","null","resources/maskTrios/BT4B.jpg","null","",NA,NA,NA,NA,""
"image-keyboard-response",160,155206,"0.0-3.49-2.49","knwvpf2z2hqk2gl",739,"137.csv","","null","resources/images/fishbone.png","null","",NA,NA,NA,NA,""
"image-keyboard-response",161,155581,"0.0-3.50-0.50","knwvpf2z2hqk2gl",739,"137.csv","","373","resources/trios/L1T4A1.jpg","39","restless",0.6,0.6,0.6,0.822598857274899,"false"
"image-keyboard-response",162,155986,"0.0-3.50-1.50","knwvpf2z2hqk2gl",739,"137.csv","","null","resources/maskTrios/BBA1.jpg","null","",NA,NA,NA,NA,""
"image-keyboard-response",163,157193,"0.0-3.50-2.50","knwvpf2z2hqk2gl",739,"137.csv","","null","resources/images/fishbone.png","null","",NA,NA,NA,NA,""
"image-keyboard-response",164,157272,"0.0-3.51-0.51","knwvpf2z2hqk2gl",739,"137.csv","","77.30000001192093","resources/trios/L1T4A1.jpg","37","restless",0.6,0.6,0.6,0.0304556763200656,"true"
"image-keyboard-response",165,157678,"0.0-3.51-1.51","knwvpf2z2hqk2gl",739,"137.csv","","null","resources/maskTrios/L1BB.jpg","null","",NA,NA,NA,NA,""
"image-keyboard-response",166,158885,"0.0-3.51-2.51","knwvpf2z2hqk2gl",739,"137.csv","","null","resources/images/coin2.png","null","",NA,NA,NA,NA,""
"image-keyboard-response",167,159373,"0.0-3.52-0.52","knwvpf2z2hqk2gl",739,"137.csv","","486.60000002384186","resources/trios/L2T4A3.jpg","37","restless",0.6,0.6,0.6,0.920331532870864,"false"
"image-keyboard-response",168,159780,"0.0-3.52-1.52","knwvpf2z2hqk2gl",739,"137.csv","","null","resources/maskTrios/L2BB.jpg","null","",NA,NA,NA,NA,""
"image-keyboard-response",169,160987,"0.0-3.52-2.52","knwvpf2z2hqk2gl",739,"137.csv","","null","resources/images/fishbone.png","null","",NA,NA,NA,NA,""
"image-keyboard-response",170,161208,"0.0-3.53-0.53","knwvpf2z2hqk2gl",739,"137.csv","","218.69999998807907","resources/trios/L2T2A3.jpg","38","restless",0.6,0.6,0.7,0.452960495083278,"true"
"image-keyboard-response",171,161615,"0.0-3.53-1.53","knwvpf2z2hqk2gl",739,"137.csv","","null","resources/maskTrios/BT2B.jpg","null","",NA,NA,NA,NA,""
"image-keyboard-response",172,162822,"0.0-3.53-2.53","knwvpf2z2hqk2gl",739,"137.csv","","null","resources/images/coin2.png","null","",NA,NA,NA,NA,""
"image-keyboard-response",173,163142,"0.0-3.54-0.54","knwvpf2z2hqk2gl",739,"137.csv","","318.7000000476837","resources/trios/L2T2A1.jpg","37","restless",0.6,0.6,0.7,0.107357956348006,"true"
"image-keyboard-response",174,163549,"0.0-3.54-1.54","knwvpf2z2hqk2gl",739,"137.csv","","null","resources/maskTrios/L2BB.jpg","null","",NA,NA,NA,NA,""
"image-keyboard-response",175,164755,"0.0-3.54-2.54","knwvpf2z2hqk2gl",739,"137.csv","","null","resources/images/coin2.png","null","",NA,NA,NA,NA,""
"image-keyboard-response",176,164994,"0.0-3.55-0.55","knwvpf2z2hqk2gl",739,"137.csv","","236.69999998807907","resources/trios/L2T4A1.jpg","38","restless",0.6,0.6,0.7,0.0416127344147053,"true"
"image-keyboard-response",177,165398,"0.0-3.55-1.55","knwvpf2z2hqk2gl",739,"137.csv","","null","resources/maskTrios/BT4B.jpg","null","",NA,NA,NA,NA,""
"image-keyboard-response",178,166601,"0.0-3.55-2.55","knwvpf2z2hqk2gl",739,"137.csv","","null","resources/images/coin2.png","null","",NA,NA,NA,NA,""
"image-keyboard-response",179,166880,"0.0-3.56-0.56","knwvpf2z2hqk2gl",739,"137.csv","","277.10000002384186","resources/trios/L1T4A3.jpg","37","restless",0.6,0.6,0.8,0.657729266962332,"false"
"image-keyboard-response",180,167284,"0.0-3.56-1.56","knwvpf2z2hqk2gl",739,"137.csv","","null","resources/maskTrios/L1BB.jpg","null","",NA,NA,NA,NA,""
"image-keyboard-response",181,168486,"0.0-3.56-2.56","knwvpf2z2hqk2gl",739,"137.csv","","null","resources/images/fishbone.png","null","",NA,NA,NA,NA,""
"image-keyboard-response",182,168774,"0.0-3.57-0.57","knwvpf2z2hqk2gl",739,"137.csv","","286.89999997615814","resources/trios/L2T4A1.jpg","38","restless",0.6,0.6,0.8,0.0931903535897938,"true"
"image-keyboard-response",183,169178,"0.0-3.57-1.57","knwvpf2z2hqk2gl",739,"137.csv","","null","resources/maskTrios/BT4B.jpg","null","",NA,NA,NA,NA,""
"image-keyboard-response",184,170385,"0.0-3.57-2.57","knwvpf2z2hqk2gl",739,"137.csv","","null","resources/images/coin2.png","null","",NA,NA,NA,NA,""
"image-keyboard-response",185,170766,"0.0-3.58-0.58","knwvpf2z2hqk2gl",739,"137.csv","","379.5","resources/trios/L1T2A3.jpg","38","restless",0.6,0.6,0.8,0.101371415048871,"true"
"image-keyboard-response",186,171173,"0.0-3.58-1.58","knwvpf2z2hqk2gl",739,"137.csv","","null","resources/maskTrios/BT2B.jpg","null","",NA,NA,NA,NA,""
"image-keyboard-response",187,172376,"0.0-3.58-2.58","knwvpf2z2hqk2gl",739,"137.csv","","null","resources/images/coin2.png","null","",NA,NA,NA,NA,""
"image-keyboard-response",188,172656,"0.0-3.59-0.59","knwvpf2z2hqk2gl",739,"137.csv","","278.30000001192093","resources/trios/L1T2A1.jpg","38","restless",0.7,0.6,0.8,0.11016049452883,"true"
"image-keyboard-response",189,173063,"0.0-3.59-1.59","knwvpf2z2hqk2gl",739,"137.csv","","null","resources/maskTrios/BT2B.jpg","null","",NA,NA,NA,NA,""
"image-keyboard-response",190,174266,"0.0-3.59-2.59","knwvpf2z2hqk2gl",739,"137.csv","","null","resources/images/coin2.png","null","",NA,NA,NA,NA,""
"image-keyboard-response",191,174441,"0.0-3.60-0.60","knwvpf2z2hqk2gl",739,"137.csv","","173.39999997615814","resources/trios/L1T2A3.jpg","38","restless",0.7,0.6,0.8,0.965331424443932,"false"
"image-keyboard-response",192,174848,"0.0-3.60-1.60","knwvpf2z2hqk2gl",739,"137.csv","","null","resources/maskTrios/BT2B.jpg","null","",NA,NA,NA,NA,""
"image-keyboard-response",193,176054,"0.0-3.60-2.60","knwvpf2z2hqk2gl",739,"137.csv","","null","resources/images/fishbone.png","null","",NA,NA,NA,NA,""
"image-keyboard-response",194,176540,"0.0-3.61-0.61","knwvpf2z2hqk2gl",739,"137.csv","","484.2000000476837","resources/trios/L1T4A1.jpg","37","restless",0.7,0.6,0.8,0.836209807872899,"false"
"image-keyboard-response",195,176944,"0.0-3.61-1.61","knwvpf2z2hqk2gl",739,"137.csv","","null","resources/maskTrios/L1BB.jpg","null","",NA,NA,NA,NA,""
"image-keyboard-response",196,178150,"0.0-3.61-2.61","knwvpf2z2hqk2gl",739,"137.csv","","null","resources/images/fishbone.png","null","",NA,NA,NA,NA,""
"image-keyboard-response",197,178216,"0.0-3.62-0.62","knwvpf2z2hqk2gl",739,"137.csv","","64.5","resources/trios/L2T2A3.jpg","39","restless",0.7,0.6,0.8,0.569972843777019,"true"
"image-keyboard-response",198,178618,"0.0-3.62-1.62","knwvpf2z2hqk2gl",739,"137.csv","","null","resources/maskTrios/BBA3.jpg","null","",NA,NA,NA,NA,""
"image-keyboard-response",199,179823,"0.0-3.62-2.62","knwvpf2z2hqk2gl",739,"137.csv","","null","resources/images/coin2.png","null","",NA,NA,NA,NA,""
"image-keyboard-response",200,180249,"0.0-3.63-0.63","knwvpf2z2hqk2gl",739,"137.csv","","423.30000001192093","resources/trios/L2T4A1.jpg","39","restless",0.7,0.6,0.8,0.216560161837025,"true"
"image-keyboard-response",201,180655,"0.0-3.63-1.63","knwvpf2z2hqk2gl",739,"137.csv","","null","resources/maskTrios/BBA1.jpg","null","",NA,NA,NA,NA,""
"image-keyboard-response",202,181861,"0.0-3.63-2.63","knwvpf2z2hqk2gl",739,"137.csv","","null","resources/images/coin2.png","null","",NA,NA,NA,NA,""
"image-keyboard-response",203,182141,"0.0-3.64-0.64","knwvpf2z2hqk2gl",739,"137.csv","","278.10000002384186","resources/trios/L1T4A3.jpg","39","restless",0.7,0.6,0.8,0.401036506277332,"true"
"image-keyboard-response",204,182544,"0.0-3.64-1.64","knwvpf2z2hqk2gl",739,"137.csv","","null","resources/maskTrios/BBA3.jpg","null","",NA,NA,NA,NA,""
"image-keyboard-response",205,183751,"0.0-3.64-2.64","knwvpf2z2hqk2gl",739,"137.csv","","null","resources/images/coin2.png","null","",NA,NA,NA,NA,""
"image-keyboard-response",206,184063,"0.0-3.65-0.65","knwvpf2z2hqk2gl",739,"137.csv","","310.69999998807907","resources/trios/L2T2A3.jpg","38","restless",0.7,0.6,0.8,0.33614941784218,"true"
"image-keyboard-response",207,184470,"0.0-3.65-1.65","knwvpf2z2hqk2gl",739,"137.csv","","null","resources/maskTrios/BT2B.jpg","null","",NA,NA,NA,NA,""
"image-keyboard-response",208,185677,"0.0-3.65-2.65","knwvpf2z2hqk2gl",739,"137.csv","","null","resources/images/coin2.png","null","",NA,NA,NA,NA,""
"image-keyboard-response",209,185984,"0.0-3.66-0.66","knwvpf2z2hqk2gl",739,"137.csv","","305.39999997615814","resources/trios/L1T4A3.jpg","38","restless",0.7,0.6,0.8,0.0298316585437337,"true"
"image-keyboard-response",210,186391,"0.0-3.66-1.66","knwvpf2z2hqk2gl",739,"137.csv","","null","resources/maskTrios/BT4B.jpg","null","",NA,NA,NA,NA,""
"image-keyboard-response",211,187598,"0.0-3.66-2.66","knwvpf2z2hqk2gl",739,"137.csv","","null","resources/images/coin2.png","null","",NA,NA,NA,NA,""
"image-keyboard-response",212,187786,"0.0-3.67-0.67","knwvpf2z2hqk2gl",739,"137.csv","","186.0999999642372","resources/trios/L2T4A1.jpg","38","restless",0.7,0.6,0.8,0.449206424989918,"true"
"image-keyboard-response",213,188193,"0.0-3.67-1.67","knwvpf2z2hqk2gl",739,"137.csv","","null","resources/maskTrios/BT4B.jpg","null","",NA,NA,NA,NA,""
"image-keyboard-response",214,189400,"0.0-3.67-2.67","knwvpf2z2hqk2gl",739,"137.csv","","null","resources/images/coin2.png","null","",NA,NA,NA,NA,""
"image-keyboard-response",215,189713,"0.0-3.68-0.68","knwvpf2z2hqk2gl",739,"137.csv","","311.60000002384186","resources/trios/L2T4A1.jpg","39","restless",0.7,0.6,0.7,0.428093907813161,"true"
"image-keyboard-response",216,190118,"0.0-3.68-1.68","knwvpf2z2hqk2gl",739,"137.csv","","null","resources/maskTrios/BBA1.jpg","null","",NA,NA,NA,NA,""
"image-keyboard-response",217,191325,"0.0-3.68-2.68","knwvpf2z2hqk2gl",739,"137.csv","","null","resources/images/coin2.png","null","",NA,NA,NA,NA,""
"image-keyboard-response",218,191657,"0.0-3.69-0.69","knwvpf2z2hqk2gl",739,"137.csv","","330.5","resources/trios/L1T4A3.jpg","39","restless",0.7,0.6,0.7,0.221156128144191,"true"
"image-keyboard-response",219,192064,"0.0-3.69-1.69","knwvpf2z2hqk2gl",739,"137.csv","","null","resources/maskTrios/BBA3.jpg","null","",NA,NA,NA,NA,""
"image-keyboard-response",220,193271,"0.0-3.69-2.69","knwvpf2z2hqk2gl",739,"137.csv","","null","resources/images/coin2.png","null","",NA,NA,NA,NA,""
"image-keyboard-response",221,193304,"0.0-3.70-0.70","knwvpf2z2hqk2gl",739,"137.csv","","31.69999998807907","resources/trios/L2T4A1.jpg","39","restless",0.7,0.6,0.7,0.651933602051275,"true"
"image-keyboard-response",222,193709,"0.0-3.70-1.70","knwvpf2z2hqk2gl",739,"137.csv","","null","resources/maskTrios/BBA1.jpg","null","",NA,NA,NA,NA,""
"image-keyboard-response",223,194913,"0.0-3.70-2.70","knwvpf2z2hqk2gl",739,"137.csv","","null","resources/images/coin2.png","null","",NA,NA,NA,NA,""
"image-keyboard-response",224,195538,"0.0-3.71-0.71","knwvpf2z2hqk2gl",739,"137.csv","","623.1000000238419","resources/trios/L2T4A3.jpg","39","restless",0.7,0.6,0.7,0.374857208556922,"true"
"image-keyboard-response",225,195940,"0.0-3.71-1.71","knwvpf2z2hqk2gl",739,"137.csv","","null","resources/maskTrios/BBA3.jpg","null","",NA,NA,NA,NA,""
"image-keyboard-response",226,197147,"0.0-3.71-2.71","knwvpf2z2hqk2gl",739,"137.csv","","null","resources/images/coin2.png","null","",NA,NA,NA,NA,""
"image-keyboard-response",227,197545,"0.0-3.72-0.72","knwvpf2z2hqk2gl",739,"137.csv","","396.10000002384186","resources/trios/L1T2A1.jpg","38","restless",0.7,0.6,0.7,0.327805309636359,"true"
"image-keyboard-response",228,197952,"0.0-3.72-1.72","knwvpf2z2hqk2gl",739,"137.csv","","null","resources/maskTrios/BT2B.jpg","null","",NA,NA,NA,NA,""
"image-keyboard-response",229,199159,"0.0-3.72-2.72","knwvpf2z2hqk2gl",739,"137.csv","","null","resources/images/coin2.png","null","",NA,NA,NA,NA,""
"image-keyboard-response",230,199324,"0.0-3.73-0.73","knwvpf2z2hqk2gl",739,"137.csv","","163.30000001192093","resources/trios/L2T4A3.jpg","38","restless",0.7,0.6,0.7,0.0306937131814091,"true"
"image-keyboard-response",231,199731,"0.0-3.73-1.73","knwvpf2z2hqk2gl",739,"137.csv","","null","resources/maskTrios/BT4B.jpg","null","",NA,NA,NA,NA,""
"image-keyboard-response",232,200933,"0.0-3.73-2.73","knwvpf2z2hqk2gl",739,"137.csv","","null","resources/images/coin2.png","null","",NA,NA,NA,NA,""
"image-keyboard-response",233,201274,"0.0-3.74-0.74","knwvpf2z2hqk2gl",739,"137.csv","","338.80000001192093","resources/trios/L2T2A3.jpg","38","restless",0.7,0.6,0.6,0.478730318230306,"true"
"image-keyboard-response",234,201679,"0.0-3.74-1.74","knwvpf2z2hqk2gl",739,"137.csv","","null","resources/maskTrios/BT2B.jpg","null","",NA,NA,NA,NA,""
"image-keyboard-response",235,202885,"0.0-3.74-2.74","knwvpf2z2hqk2gl",739,"137.csv","","null","resources/images/coin2.png","null","",NA,NA,NA,NA,""
"image-keyboard-response",236,203270,"0.0-3.75-0.75","knwvpf2z2hqk2gl",739,"137.csv","","382.39999997615814","resources/trios/L1T4A3.jpg","38","restless",0.7,0.6,0.6,0.873692981709846,"false"
"image-keyboard-response",237,203672,"0.0-3.75-1.75","knwvpf2z2hqk2gl",739,"137.csv","","null","resources/maskTrios/BT4B.jpg","null","",NA,NA,NA,NA,""
"image-keyboard-response",238,204879,"0.0-3.75-2.75","knwvpf2z2hqk2gl",739,"137.csv","","null","resources/images/fishbone.png","null","",NA,NA,NA,NA,""
"image-keyboard-response",239,205091,"0.0-3.76-0.76","knwvpf2z2hqk2gl",739,"137.csv","","209.89999997615814","resources/trios/L2T2A3.jpg","39","restless",0.8,0.6,0.6,0.242434551565776,"true"
"image-keyboard-response",240,205497,"0.0-3.76-1.76","knwvpf2z2hqk2gl",739,"137.csv","","null","resources/maskTrios/BBA3.jpg","null","",NA,NA,NA,NA,""
"image-keyboard-response",241,206704,"0.0-3.76-2.76","knwvpf2z2hqk2gl",739,"137.csv","","null","resources/images/coin2.png","null","",NA,NA,NA,NA,""
"image-keyboard-response",242,206936,"0.0-3.77-0.77","knwvpf2z2hqk2gl",739,"137.csv","","230.19999998807907","resources/trios/L1T4A1.jpg","39","restless",0.8,0.6,0.6,0.597609610069556,"true"
"image-keyboard-response",243,207339,"0.0-3.77-1.77","knwvpf2z2hqk2gl",739,"137.csv","","null","resources/maskTrios/BBA1.jpg","null","",NA,NA,NA,NA,""
"image-keyboard-response",244,208546,"0.0-3.77-2.77","knwvpf2z2hqk2gl",739,"137.csv","","null","resources/images/coin2.png","null","",NA,NA,NA,NA,""
"image-keyboard-response",245,208852,"0.0-3.78-0.78","knwvpf2z2hqk2gl",739,"137.csv","","304.30000001192093","resources/trios/L2T4A3.jpg","39","restless",0.8,0.6,0.6,0.014811795336106,"true"
"image-keyboard-response",246,209259,"0.0-3.78-1.78","knwvpf2z2hqk2gl",739,"137.csv","","null","resources/maskTrios/BBA3.jpg","null","",NA,NA,NA,NA,""
"image-keyboard-response",247,210466,"0.0-3.78-2.78","knwvpf2z2hqk2gl",739,"137.csv","","null","resources/images/coin2.png","null","",NA,NA,NA,NA,""
"image-keyboard-response",248,210735,"0.0-3.79-0.79","knwvpf2z2hqk2gl",739,"137.csv","","267","resources/trios/L1T2A1.jpg","39","restless",0.8,0.6,0.6,0.175643693346733,"true"
"image-keyboard-response",249,211142,"0.0-3.79-1.79","knwvpf2z2hqk2gl",739,"137.csv","","null","resources/maskTrios/BBA1.jpg","null","",NA,NA,NA,NA,""
"image-keyboard-response",250,212349,"0.0-3.79-2.79","knwvpf2z2hqk2gl",739,"137.csv","","null","resources/images/coin2.png","null","",NA,NA,NA,NA,""
"image-keyboard-response",251,212652,"0.0-3.80-0.80","knwvpf2z2hqk2gl",739,"137.csv","","301.4000000357628","resources/trios/L2T2A1.jpg","38","restless",0.8,0.6,0.6,0.0856789975551755,"true"
"image-keyboard-response",252,213058,"0.0-3.80-1.80","knwvpf2z2hqk2gl",739,"137.csv","","null","resources/maskTrios/BT2B.jpg","null","",NA,NA,NA,NA,""
"image-keyboard-response",253,214265,"0.0-3.80-2.80","knwvpf2z2hqk2gl",739,"137.csv","","null","resources/images/coin2.png","null","",NA,NA,NA,NA,""
"image-keyboard-response",254,214550,"0.0-3.81-0.81","knwvpf2z2hqk2gl",739,"137.csv","","284","resources/trios/L1T4A1.jpg","38","restless",0.8,0.6,0.5,0.328681734319604,"true"
"image-keyboard-response",255,214957,"0.0-3.81-1.81","knwvpf2z2hqk2gl",739,"137.csv","","null","resources/maskTrios/BT4B.jpg","null","",NA,NA,NA,NA,""
"image-keyboard-response",256,216164,"0.0-3.81-2.81","knwvpf2z2hqk2gl",739,"137.csv","","null","resources/images/coin2.png","null","",NA,NA,NA,NA,""
"image-keyboard-response",257,216402,"0.0-3.82-0.82","knwvpf2z2hqk2gl",739,"137.csv","","236.19999998807907","resources/trios/L1T4A3.jpg","38","restless",0.8,0.6,0.5,0.417657311837764,"true"
"image-keyboard-response",258,216808,"0.0-3.82-1.82","knwvpf2z2hqk2gl",739,"137.csv","","null","resources/maskTrios/BT4B.jpg","null","",NA,NA,NA,NA,""
"image-keyboard-response",259,218015,"0.0-3.82-2.82","knwvpf2z2hqk2gl",739,"137.csv","","null","resources/images/coin2.png","null","",NA,NA,NA,NA,""
"image-keyboard-response",260,218421,"0.0-3.83-0.83","knwvpf2z2hqk2gl",739,"137.csv","","404.5999999642372","resources/trios/L2T4A3.jpg","39","restless",0.8,0.6,0.5,0.116204817052524,"true"
"image-keyboard-response",261,218828,"0.0-3.83-1.83","knwvpf2z2hqk2gl",739,"137.csv","","null","resources/maskTrios/BBA3.jpg","null","",NA,NA,NA,NA,""
"image-keyboard-response",262,220030,"0.0-3.83-2.83","knwvpf2z2hqk2gl",739,"137.csv","","null","resources/images/coin2.png","null","",NA,NA,NA,NA,""
"image-keyboard-response",263,220338,"0.0-3.84-0.84","knwvpf2z2hqk2gl",739,"137.csv","","306.30000001192093","resources/trios/L1T4A1.jpg","39","restless",0.8,0.6,0.5,0.634477469929728,"false"
"image-keyboard-response",264,220741,"0.0-3.84-1.84","knwvpf2z2hqk2gl",739,"137.csv","","null","resources/maskTrios/BBA1.jpg","null","",NA,NA,NA,NA,""
"image-keyboard-response",265,221947,"0.0-3.84-2.84","knwvpf2z2hqk2gl",739,"137.csv","","null","resources/images/fishbone.png","null","",NA,NA,NA,NA,""
"image-keyboard-response",266,222206,"0.0-3.85-0.85","knwvpf2z2hqk2gl",739,"137.csv","","256.5","resources/trios/L2T4A1.jpg","38","restless",0.7,0.6,0.5,0.0386720003574199,"true"
"image-keyboard-response",267,222613,"0.0-3.85-1.85","knwvpf2z2hqk2gl",739,"137.csv","","null","resources/maskTrios/BT4B.jpg","null","",NA,NA,NA,NA,""
"image-keyboard-response",268,223819,"0.0-3.85-2.85","knwvpf2z2hqk2gl",739,"137.csv","","null","resources/images/coin2.png","null","",NA,NA,NA,NA,""
"image-keyboard-response",269,224138,"0.0-3.86-0.86","knwvpf2z2hqk2gl",739,"137.csv","","316.89999997615814","resources/trios/L2T4A1.jpg","38","restless",0.7,0.6,0.4,0.40116829428036,"true"
"image-keyboard-response",270,224545,"0.0-3.86-1.86","knwvpf2z2hqk2gl",739,"137.csv","","null","resources/maskTrios/BT4B.jpg","null","",NA,NA,NA,NA,""
"image-keyboard-response",271,225748,"0.0-3.86-2.86","knwvpf2z2hqk2gl",739,"137.csv","","null","resources/images/coin2.png","null","",NA,NA,NA,NA,""
"image-keyboard-response",272,226058,"0.0-3.87-0.87","knwvpf2z2hqk2gl",739,"137.csv","","308.60000002384186","resources/trios/L2T2A3.jpg","38","restless",0.7,0.6,0.4,0.304318155918404,"true"
"image-keyboard-response",273,226464,"0.0-3.87-1.87","knwvpf2z2hqk2gl",739,"137.csv","","null","resources/maskTrios/BT2B.jpg","null","",NA,NA,NA,NA,""
"image-keyboard-response",274,227671,"0.0-3.87-2.87","knwvpf2z2hqk2gl",739,"137.csv","","null","resources/images/coin2.png","null","",NA,NA,NA,NA,""
"image-keyboard-response",275,227950,"0.0-3.88-0.88","knwvpf2z2hqk2gl",739,"137.csv","","276.80000001192093","resources/trios/L2T4A3.jpg","38","restless",0.7,0.6,0.4,0.488865243978174,"true"
"image-keyboard-response",276,228355,"0.0-3.88-1.88","knwvpf2z2hqk2gl",739,"137.csv","","null","resources/maskTrios/BT4B.jpg","null","",NA,NA,NA,NA,""
"image-keyboard-response",277,229561,"0.0-3.88-2.88","knwvpf2z2hqk2gl",739,"137.csv","","null","resources/images/coin2.png","null","",NA,NA,NA,NA,""
"image-keyboard-response",278,229941,"0.0-3.89-0.89","knwvpf2z2hqk2gl",739,"137.csv","","378.10000002384186","resources/trios/L1T2A1.jpg","39","restless",0.7,0.6,0.4,0.450290828561654,"false"
"image-keyboard-response",279,230348,"0.0-3.89-1.89","knwvpf2z2hqk2gl",739,"137.csv","","null","resources/maskTrios/BBA1.jpg","null","",NA,NA,NA,NA,""
"image-keyboard-response",280,231555,"0.0-3.89-2.89","knwvpf2z2hqk2gl",739,"137.csv","","null","resources/images/fishbone.png","null","",NA,NA,NA,NA,""
"image-keyboard-response",281,231911,"0.0-3.90-0.90","knwvpf2z2hqk2gl",739,"137.csv","","354.69999998807907","resources/trios/L2T4A1.jpg","38","restless",0.7,0.6,0.4,0.871668613664917,"false"
"image-keyboard-response",282,232313,"0.0-3.90-1.90","knwvpf2z2hqk2gl",739,"137.csv","","null","resources/maskTrios/BT4B.jpg","null","",NA,NA,NA,NA,""
"image-keyboard-response",283,233520,"0.0-3.90-2.90","knwvpf2z2hqk2gl",739,"137.csv","","null","resources/images/fishbone.png","null","",NA,NA,NA,NA,""
"image-keyboard-response",284,233574,"0.0-3.91-0.91","knwvpf2z2hqk2gl",739,"137.csv","","51.90000003576279","resources/trios/L1T4A3.jpg","38","restless",0.7,0.6,0.4,0.423186771884544,"true"
"image-keyboard-response",285,233982,"0.0-3.91-1.91","knwvpf2z2hqk2gl",739,"137.csv","","null","resources/maskTrios/BT4B.jpg","null","",NA,NA,NA,NA,""
"image-keyboard-response",286,235187,"0.0-3.91-2.91","knwvpf2z2hqk2gl",739,"137.csv","","null","resources/images/coin2.png","null","",NA,NA,NA,NA,""
"image-keyboard-response",287,235232,"0.0-3.92-0.92","knwvpf2z2hqk2gl",739,"137.csv","","43.10000002384186","resources/trios/L1T4A1.jpg","38","restless",0.7,0.6,0.4,0.139522807316947,"true"
"image-keyboard-response",288,235639,"0.0-3.92-1.92","knwvpf2z2hqk2gl",739,"137.csv","","null","resources/maskTrios/BT4B.jpg","null","",NA,NA,NA,NA,""
"image-keyboard-response",289,236847,"0.0-3.92-2.92","knwvpf2z2hqk2gl",739,"137.csv","","null","resources/images/coin2.png","null","",NA,NA,NA,NA,""
"image-keyboard-response",290,237003,"0.0-3.93-0.93","knwvpf2z2hqk2gl",739,"137.csv","","154.10000002384186","resources/trios/L2T2A1.jpg","38","restless",0.7,0.6,0.4,0.907761632874753,"false"
"image-keyboard-response",291,237406,"0.0-3.93-1.93","knwvpf2z2hqk2gl",739,"137.csv","","null","resources/maskTrios/BT2B.jpg","null","",NA,NA,NA,NA,""
"image-keyboard-response",292,238608,"0.0-3.93-2.93","knwvpf2z2hqk2gl",739,"137.csv","","null","resources/images/fishbone.png","null","",NA,NA,NA,NA,""
"image-keyboard-response",293,238705,"0.0-3.94-0.94","knwvpf2z2hqk2gl",739,"137.csv","","94.89999997615814","resources/trios/L2T4A3.jpg","39","restless",0.8,0.6,0.4,0.443488516606459,"false"
"image-keyboard-response",294,239113,"0.0-3.94-1.94","knwvpf2z2hqk2gl",739,"137.csv","","null","resources/maskTrios/BBA3.jpg","null","",NA,NA,NA,NA,""
"image-keyboard-response",295,240315,"0.0-3.94-2.94","knwvpf2z2hqk2gl",739,"137.csv","","null","resources/images/fishbone.png","null","",NA,NA,NA,NA,""
"image-keyboard-response",296,240522,"0.0-3.95-0.95","knwvpf2z2hqk2gl",739,"137.csv","","205","resources/trios/L2T4A3.jpg","38","restless",0.8,0.6,0.4,0.895265737955272,"false"
"image-keyboard-response",297,240929,"0.0-3.95-1.95","knwvpf2z2hqk2gl",739,"137.csv","","null","resources/maskTrios/BT4B.jpg","null","",NA,NA,NA,NA,""
"image-keyboard-response",298,242133,"0.0-3.95-2.95","knwvpf2z2hqk2gl",739,"137.csv","","null","resources/images/fishbone.png","null","",NA,NA,NA,NA,""
"image-keyboard-response",299,242353,"0.0-3.96-0.96","knwvpf2z2hqk2gl",739,"137.csv","","216.89999997615814","resources/trios/L2T2A1.jpg","37","restless",0.8,0.6,0.4,0.414493347889175,"true"
"image-keyboard-response",300,242760,"0.0-3.96-1.96","knwvpf2z2hqk2gl",739,"137.csv","","null","resources/maskTrios/L2BB.jpg","null","",NA,NA,NA,NA,""
"image-keyboard-response",301,243962,"0.0-3.96-2.96","knwvpf2z2hqk2gl",739,"137.csv","","null","resources/images/coin2.png","null","",NA,NA,NA,NA,""
"image-keyboard-response",302,244118,"0.0-3.97-0.97","knwvpf2z2hqk2gl",739,"137.csv","","153.69999998807907","resources/trios/L1T2A3.jpg","38","restless",0.8,0.6,0.4,0.978646702874914,"false"
"image-keyboard-response",303,244526,"0.0-3.97-1.97","knwvpf2z2hqk2gl",739,"137.csv","","null","resources/maskTrios/BT2B.jpg","null","",NA,NA,NA,NA,""
"image-keyboard-response",304,245732,"0.0-3.97-2.97","knwvpf2z2hqk2gl",739,"137.csv","","null","resources/images/fishbone.png","null","",NA,NA,NA,NA,""
"image-keyboard-response",305,245773,"0.0-3.98-0.98","knwvpf2z2hqk2gl",739,"137.csv","","38.40000003576279","resources/trios/L2T2A1.jpg","38","restless",0.8,0.6,0.5,0.800215309687053,"false"
"image-keyboard-response",306,246180,"0.0-3.98-1.98","knwvpf2z2hqk2gl",739,"137.csv","","null","resources/maskTrios/BT2B.jpg","null","",NA,NA,NA,NA,""
"image-keyboard-response",307,247387,"0.0-3.98-2.98","knwvpf2z2hqk2gl",739,"137.csv","","null","resources/images/fishbone.png","null","",NA,NA,NA,NA,""
"image-keyboard-response",308,247390,"0.0-3.99-0.99","knwvpf2z2hqk2gl",739,"137.csv","","1.800000011920929","resources/trios/L1T4A1.jpg","39","restless",0.9,0.5,0.5,0.422860235623874,"true"
"image-keyboard-response",309,247795,"0.0-3.99-1.99","knwvpf2z2hqk2gl",739,"137.csv","","null","resources/maskTrios/BBA1.jpg","null","",NA,NA,NA,NA,""
"image-keyboard-response",310,249003,"0.0-3.99-2.99","knwvpf2z2hqk2gl",739,"137.csv","","null","resources/images/coin2.png","null","",NA,NA,NA,NA,""
"image-keyboard-response",311,249204,"0.0-3.100-0.100","knwvpf2z2hqk2gl",739,"137.csv","","199.30000001192093","resources/trios/L2T4A3.jpg","39","restless",0.9,0.5,0.5,0.521635905452713,"false"
"image-keyboard-response",312,249608,"0.0-3.100-1.100","knwvpf2z2hqk2gl",739,"137.csv","","null","resources/maskTrios/BBA3.jpg","null","",NA,NA,NA,NA,""
"image-keyboard-response",313,250814,"0.0-3.100-2.100","knwvpf2z2hqk2gl",739,"137.csv","","null","resources/images/fishbone.png","null","",NA,NA,NA,NA,""
"image-keyboard-response",314,250985,"0.0-3.101-0.101","knwvpf2z2hqk2gl",739,"137.csv","","168.4000000357628","resources/trios/L2T4A1.jpg","38","restless",0.9,0.5,0.5,0.575402735834462,"false"
"image-keyboard-response",315,251392,"0.0-3.101-1.101","knwvpf2z2hqk2gl",739,"137.csv","","null","resources/maskTrios/BT4B.jpg","null","",NA,NA,NA,NA,""
"image-keyboard-response",316,252597,"0.0-3.101-2.101","knwvpf2z2hqk2gl",739,"137.csv","","null","resources/images/fishbone.png","null","",NA,NA,NA,NA,""
"image-keyboard-response",317,252938,"0.0-3.102-0.102","knwvpf2z2hqk2gl",739,"137.csv","","338.5","resources/trios/L2T4A1.jpg","38","restless",0.8,0.5,0.5,0.544354785107383,"false"
"image-keyboard-response",318,253345,"0.0-3.102-1.102","knwvpf2z2hqk2gl",739,"137.csv","","null","resources/maskTrios/BT4B.jpg","null","",NA,NA,NA,NA,""
"image-keyboard-response",319,254548,"0.0-3.102-2.102","knwvpf2z2hqk2gl",739,"137.csv","","null","resources/images/fishbone.png","null","",NA,NA,NA,NA,""
"image-keyboard-response",320,263026,"0.0-3.103-0.103","knwvpf2z2hqk2gl",739,"137.csv","","8476.900000035763","resources/trios/L1T2A1.jpg","38","restless",0.8,0.5,0.5,0.13992101979672,"true"
"image-keyboard-response",321,263431,"0.0-3.103-1.103","knwvpf2z2hqk2gl",739,"137.csv","","null","resources/maskTrios/BT2B.jpg","null","",NA,NA,NA,NA,""
"image-keyboard-response",322,264634,"0.0-3.103-2.103","knwvpf2z2hqk2gl",739,"137.csv","","null","resources/images/coin2.png","null","",NA,NA,NA,NA,""
"image-keyboard-response",323,265076,"0.0-3.104-0.104","knwvpf2z2hqk2gl",739,"137.csv","","439.89999997615814","resources/trios/L2T4A3.jpg","38","restless",0.8,0.5,0.5,0.073932999153324,"true"
"image-keyboard-response",324,265483,"0.0-3.104-1.104","knwvpf2z2hqk2gl",739,"137.csv","","null","resources/maskTrios/BT4B.jpg","null","",NA,NA,NA,NA,""
"image-keyboard-response",325,266690,"0.0-3.104-2.104","knwvpf2z2hqk2gl",739,"137.csv","","null","resources/images/coin2.png","null","",NA,NA,NA,NA,""
"image-keyboard-response",326,267292,"0.0-3.105-0.105","knwvpf2z2hqk2gl",739,"137.csv","","599.2999999523163","resources/trios/L1T2A1.jpg","38","restless",0.8,0.5,0.5,0.360150864018446,"true"
"image-keyboard-response",327,267696,"0.0-3.105-1.105","knwvpf2z2hqk2gl",739,"137.csv","","null","resources/maskTrios/BT2B.jpg","null","",NA,NA,NA,NA,""
"image-keyboard-response",328,268903,"0.0-3.105-2.105","knwvpf2z2hqk2gl",739,"137.csv","","null","resources/images/coin2.png","null","",NA,NA,NA,NA,""
"image-keyboard-response",329,269259,"0.0-3.106-0.106","knwvpf2z2hqk2gl",739,"137.csv","","354","resources/trios/L1T4A3.jpg","38","restless",0.8,0.5,0.5,0.253225843431021,"true"
"image-keyboard-response",330,269664,"0.0-3.106-1.106","knwvpf2z2hqk2gl",739,"137.csv","","null","resources/maskTrios/BT4B.jpg","null","",NA,NA,NA,NA,""
"image-keyboard-response",331,270872,"0.0-3.106-2.106","knwvpf2z2hqk2gl",739,"137.csv","","null","resources/images/coin2.png","null","",NA,NA,NA,NA,""
"image-keyboard-response",332,270924,"0.0-3.107-0.107","knwvpf2z2hqk2gl",739,"137.csv","","50.5","resources/trios/L1T2A1.jpg","38","restless",0.8,0.5,0.5,0.299617188189933,"true"
"image-keyboard-response",333,271331,"0.0-3.107-1.107","knwvpf2z2hqk2gl",739,"137.csv","","null","resources/maskTrios/BT2B.jpg","null","",NA,NA,NA,NA,""
"image-keyboard-response",334,272534,"0.0-3.107-2.107","knwvpf2z2hqk2gl",739,"137.csv","","null","resources/images/coin2.png","null","",NA,NA,NA,NA,""
"image-keyboard-response",335,272629,"0.0-3.108-0.108","knwvpf2z2hqk2gl",739,"137.csv","","93","resources/trios/L2T2A3.jpg","38","restless",0.8,0.5,0.5,0.866101870648755,"false"
"image-keyboard-response",336,273034,"0.0-3.108-1.108","knwvpf2z2hqk2gl",739,"137.csv","","null","resources/maskTrios/BT2B.jpg","null","",NA,NA,NA,NA,""
"image-keyboard-response",337,274241,"0.0-3.108-2.108","knwvpf2z2hqk2gl",739,"137.csv","","null","resources/images/fishbone.png","null","",NA,NA,NA,NA,""
"image-keyboard-response",338,274828,"0.0-3.109-0.109","knwvpf2z2hqk2gl",739,"137.csv","","585.0999999642372","resources/trios/L1T4A1.jpg","39","restless",0.8,0.5,0.5,0.149543831236161,"true"
"image-keyboard-response",339,275234,"0.0-3.109-1.109","knwvpf2z2hqk2gl",739,"137.csv","","null","resources/maskTrios/BBA1.jpg","null","",NA,NA,NA,NA,""
"image-keyboard-response",340,276441,"0.0-3.109-2.109","knwvpf2z2hqk2gl",739,"137.csv","","null","resources/images/coin2.png","null","",NA,NA,NA,NA,""
"image-keyboard-response",341,276802,"0.0-3.110-0.110","knwvpf2z2hqk2gl",739,"137.csv","","358.60000002384186","resources/trios/L2T4A1.jpg","39","restless",0.8,0.4,0.5,0.236347190663255,"true"
"image-keyboard-response",342,277206,"0.0-3.110-1.110","knwvpf2z2hqk2gl",739,"137.csv","","null","resources/maskTrios/BBA1.jpg","null","",NA,NA,NA,NA,""
"image-keyboard-response",343,278414,"0.0-3.110-2.110","knwvpf2z2hqk2gl",739,"137.csv","","null","resources/images/coin2.png","null","",NA,NA,NA,NA,""
"image-keyboard-response",344,278907,"0.0-3.111-0.111","knwvpf2z2hqk2gl",739,"137.csv","","491.80000001192093","resources/trios/L2T4A1.jpg","39","restless",0.8,0.4,0.5,0.748701750636385,"false"
"image-keyboard-response",345,279309,"0.0-3.111-1.111","knwvpf2z2hqk2gl",739,"137.csv","","null","resources/maskTrios/BBA1.jpg","null","",NA,NA,NA,NA,""
"image-keyboard-response",346,280516,"0.0-3.111-2.111","knwvpf2z2hqk2gl",739,"137.csv","","null","resources/images/fishbone.png","null","",NA,NA,NA,NA,""
"image-keyboard-response",347,280850,"0.0-3.112-0.112","knwvpf2z2hqk2gl",739,"137.csv","","331.4000000357628","resources/trios/L1T2A3.jpg","38","restless",0.8,0.4,0.4,0.162605234192108,"true"
"image-keyboard-response",348,281257,"0.0-3.112-1.112","knwvpf2z2hqk2gl",739,"137.csv","","null","resources/maskTrios/BT2B.jpg","null","",NA,NA,NA,NA,""
"image-keyboard-response",349,282464,"0.0-3.112-2.112","knwvpf2z2hqk2gl",739,"137.csv","","null","resources/images/coin2.png","null","",NA,NA,NA,NA,""
"image-keyboard-response",350,282790,"0.0-3.113-0.113","knwvpf2z2hqk2gl",739,"137.csv","","323.69999998807907","resources/trios/L1T4A3.jpg","38","restless",0.8,0.4,0.4,0.220311203088247,"true"
"image-keyboard-response",351,283195,"0.0-3.113-1.113","knwvpf2z2hqk2gl",739,"137.csv","","null","resources/maskTrios/BT4B.jpg","null","",NA,NA,NA,NA,""
"image-keyboard-response",352,284398,"0.0-3.113-2.113","knwvpf2z2hqk2gl",739,"137.csv","","null","resources/images/coin2.png","null","",NA,NA,NA,NA,""
"image-keyboard-response",353,284821,"0.0-3.114-0.114","knwvpf2z2hqk2gl",739,"137.csv","","420.5","resources/trios/L1T2A1.jpg","38","restless",0.8,0.4,0.4,0.0300030776709737,"true"
"image-keyboard-response",354,285227,"0.0-3.114-1.114","knwvpf2z2hqk2gl",739,"137.csv","","null","resources/maskTrios/BT2B.jpg","null","",NA,NA,NA,NA,""
"image-keyboard-response",355,286431,"0.0-3.114-2.114","knwvpf2z2hqk2gl",739,"137.csv","","null","resources/images/coin2.png","null","",NA,NA,NA,NA,""
"image-keyboard-response",356,286772,"0.0-3.115-0.115","knwvpf2z2hqk2gl",739,"137.csv","","339.39999997615814","resources/trios/L2T4A3.jpg","38","restless",0.8,0.4,0.4,0.352673720538193,"true"
"image-keyboard-response",357,287180,"0.0-3.115-1.115","knwvpf2z2hqk2gl",739,"137.csv","","null","resources/maskTrios/BT4B.jpg","null","",NA,NA,NA,NA,""
"image-keyboard-response",358,288382,"0.0-3.115-2.115","knwvpf2z2hqk2gl",739,"137.csv","","null","resources/images/coin2.png","null","",NA,NA,NA,NA,""
"image-keyboard-response",359,288745,"0.0-3.116-0.116","knwvpf2z2hqk2gl",739,"137.csv","","360.9000000357628","resources/trios/L2T2A1.jpg","38","restless",0.8,0.4,0.4,0.302603846249837,"true"
"image-keyboard-response",360,289149,"0.0-3.116-1.116","knwvpf2z2hqk2gl",739,"137.csv","","null","resources/maskTrios/BT2B.jpg","null","",NA,NA,NA,NA,""
"image-keyboard-response",361,290352,"0.0-3.116-2.116","knwvpf2z2hqk2gl",739,"137.csv","","null","resources/images/coin2.png","null","",NA,NA,NA,NA,""
"image-keyboard-response",362,290676,"0.0-3.117-0.117","knwvpf2z2hqk2gl",739,"137.csv","","321.7000000476837","resources/trios/L1T4A1.jpg","38","restless",0.8,0.4,0.4,0.631157351632035,"false"
"image-keyboard-response",363,291079,"0.0-3.117-1.117","knwvpf2z2hqk2gl",739,"137.csv","","null","resources/maskTrios/BT4B.jpg","null","",NA,NA,NA,NA,""
"image-keyboard-response",364,292282,"0.0-3.117-2.117","knwvpf2z2hqk2gl",739,"137.csv","","null","resources/images/fishbone.png","null","",NA,NA,NA,NA,""
"image-keyboard-response",365,292370,"0.0-3.118-0.118","knwvpf2z2hqk2gl",739,"137.csv","","86.40000003576279","resources/trios/L1T4A3.jpg","39","restless",0.8,0.4,0.4,0.380370919525257,"true"
"image-keyboard-response",366,292773,"0.0-3.118-1.118","knwvpf2z2hqk2gl",739,"137.csv","","null","resources/maskTrios/BBA3.jpg","null","",NA,NA,NA,NA,""
"image-keyboard-response",367,293979,"0.0-3.118-2.118","knwvpf2z2hqk2gl",739,"137.csv","","null","resources/images/coin2.png","null","",NA,NA,NA,NA,""
"image-keyboard-response",368,294337,"0.0-3.119-0.119","knwvpf2z2hqk2gl",739,"137.csv","","355.30000001192093","resources/trios/L1T4A1.jpg","39","restless",0.8,0.3,0.4,0.594347775227966,"false"
"image-keyboard-response",369,294742,"0.0-3.119-1.119","knwvpf2z2hqk2gl",739,"137.csv","","null","resources/maskTrios/BBA1.jpg","null","",NA,NA,NA,NA,""
"image-keyboard-response",370,295945,"0.0-3.119-2.119","knwvpf2z2hqk2gl",739,"137.csv","","null","resources/images/fishbone.png","null","",NA,NA,NA,NA,""
"image-keyboard-response",371,296268,"0.0-3.120-0.120","knwvpf2z2hqk2gl",739,"137.csv","","320.69999998807907","resources/trios/L2T2A1.jpg","38","restless",0.8,0.3,0.4,0.408882413885605,"false"
"image-keyboard-response",372,296670,"0.0-3.120-1.120","knwvpf2z2hqk2gl",739,"137.csv","","null","resources/maskTrios/BT2B.jpg","null","",NA,NA,NA,NA,""
"image-keyboard-response",373,297877,"0.0-3.120-2.120","knwvpf2z2hqk2gl",739,"137.csv","","null","resources/images/fishbone.png","null","",NA,NA,NA,NA,""
"image-keyboard-response",374,297998,"0.0-3.121-0.121","knwvpf2z2hqk2gl",739,"137.csv","","118.30000001192093","resources/trios/L2T4A3.jpg","37","restless",0.8,0.3,0.4,0.209811757920653,"true"
"image-keyboard-response",375,298404,"0.0-3.121-1.121","knwvpf2z2hqk2gl",739,"137.csv","","null","resources/maskTrios/L2BB.jpg","null","",NA,NA,NA,NA,""
"image-keyboard-response",376,299609,"0.0-3.121-2.121","knwvpf2z2hqk2gl",739,"137.csv","","null","resources/images/coin2.png","null","",NA,NA,NA,NA,""
"image-keyboard-response",377,299949,"0.0-3.122-0.122","knwvpf2z2hqk2gl",739,"137.csv","","338","resources/trios/L2T4A1.jpg","38","restless",0.9,0.3,0.4,0.527456912420385,"false"
"image-keyboard-response",378,300351,"0.0-3.122-1.122","knwvpf2z2hqk2gl",739,"137.csv","","null","resources/maskTrios/BT4B.jpg","null","",NA,NA,NA,NA,""
"image-keyboard-response",379,301555,"0.0-3.122-2.122","knwvpf2z2hqk2gl",739,"137.csv","","null","resources/images/fishbone.png","null","",NA,NA,NA,NA,""
"image-keyboard-response",380,301950,"0.0-3.123-0.123","knwvpf2z2hqk2gl",739,"137.csv","","392.5","resources/trios/L2T2A1.jpg","37","restless",0.9,0.3,0.4,0.323444411614708,"true"
"image-keyboard-response",381,302356,"0.0-3.123-1.123","knwvpf2z2hqk2gl",739,"137.csv","","null","resources/maskTrios/L2BB.jpg","null","",NA,NA,NA,NA,""
"image-keyboard-response",382,303564,"0.0-3.123-2.123","knwvpf2z2hqk2gl",739,"137.csv","","null","resources/images/coin2.png","null","",NA,NA,NA,NA,""
"image-keyboard-response",383,303873,"0.0-3.124-0.124","knwvpf2z2hqk2gl",739,"137.csv","","307.60000002384186","resources/trios/L1T4A1.jpg","37","restless",0.8,0.3,0.4,0.908155781510111,"false"
"image-keyboard-response",384,304276,"0.0-3.124-1.124","knwvpf2z2hqk2gl",739,"137.csv","","null","resources/maskTrios/L1BB.jpg","null","",NA,NA,NA,NA,""
"image-keyboard-response",385,305482,"0.0-3.124-2.124","knwvpf2z2hqk2gl",739,"137.csv","","null","resources/images/fishbone.png","null","",NA,NA,NA,NA,""
"image-keyboard-response",386,305517,"0.0-3.125-0.125","knwvpf2z2hqk2gl",739,"137.csv","","32.39999997615814","resources/trios/L1T2A3.jpg","39","restless",0.8,0.3,0.4,0.985219492526016,"false"
"image-keyboard-response",387,305924,"0.0-3.125-1.125","knwvpf2z2hqk2gl",739,"137.csv","","null","resources/maskTrios/BBA3.jpg","null","",NA,NA,NA,NA,""
"image-keyboard-response",388,307128,"0.0-3.125-2.125","knwvpf2z2hqk2gl",739,"137.csv","","null","resources/images/fishbone.png","null","",NA,NA,NA,NA,""
"image-keyboard-response",389,307408,"0.0-3.126-0.126","knwvpf2z2hqk2gl",739,"137.csv","","277.5999999642372","resources/trios/L1T4A1.jpg","38","restless",0.8,0.3,0.4,0.242437080323637,"true"
"image-keyboard-response",390,307815,"0.0-3.126-1.126","knwvpf2z2hqk2gl",739,"137.csv","","null","resources/maskTrios/BT4B.jpg","null","",NA,NA,NA,NA,""
"image-keyboard-response",391,309021,"0.0-3.126-2.126","knwvpf2z2hqk2gl",739,"137.csv","","null","resources/images/coin2.png","null","",NA,NA,NA,NA,""
"image-keyboard-response",392,309697,"0.0-3.127-0.127","knwvpf2z2hqk2gl",739,"137.csv","","674.8999999761581","resources/trios/L2T4A1.jpg","38","restless",0.8,0.3,0.4,0.669637487774912,"false"
"image-keyboard-response",393,310102,"0.0-3.127-1.127","knwvpf2z2hqk2gl",739,"137.csv","","null","resources/maskTrios/BT4B.jpg","null","",NA,NA,NA,NA,""
"image-keyboard-response",394,311305,"0.0-3.127-2.127","knwvpf2z2hqk2gl",739,"137.csv","","null","resources/images/fishbone.png","null","",NA,NA,NA,NA,""
"image-keyboard-response",395,311788,"0.0-3.128-0.128","knwvpf2z2hqk2gl",739,"137.csv","","481.10000002384186","resources/trios/L2T2A1.jpg","39","restless",0.8,0.3,0.4,0.0374461420206773,"true"
"image-keyboard-response",396,312195,"0.0-3.128-1.128","knwvpf2z2hqk2gl",739,"137.csv","","null","resources/maskTrios/BBA1.jpg","null","",NA,NA,NA,NA,""
"image-keyboard-response",397,313401,"0.0-3.128-2.128","knwvpf2z2hqk2gl",739,"137.csv","","null","resources/images/coin2.png","null","",NA,NA,NA,NA,""
"image-keyboard-response",398,313520,"0.0-3.129-0.129","knwvpf2z2hqk2gl",739,"137.csv","","116","resources/trios/L2T4A1.jpg","38","restless",0.8,0.3,0.3,0.957656506025995,"false"
"image-keyboard-response",399,313927,"0.0-3.129-1.129","knwvpf2z2hqk2gl",739,"137.csv","","null","resources/maskTrios/BT4B.jpg","null","",NA,NA,NA,NA,""
"image-keyboard-response",400,315132,"0.0-3.129-2.129","knwvpf2z2hqk2gl",739,"137.csv","","null","resources/images/fishbone.png","null","",NA,NA,NA,NA,""
"image-keyboard-response",401,315334,"0.0-3.130-0.130","knwvpf2z2hqk2gl",739,"137.csv","","199.79999995231628","resources/trios/L2T2A1.jpg","37","restless",0.8,0.3,0.3,0.306307674448983,"true"
"image-keyboard-response",402,315739,"0.0-3.130-1.130","knwvpf2z2hqk2gl",739,"137.csv","","null","resources/maskTrios/L2BB.jpg","null","",NA,NA,NA,NA,""
"image-keyboard-response",403,316942,"0.0-3.130-2.130","knwvpf2z2hqk2gl",739,"137.csv","","null","resources/images/coin2.png","null","",NA,NA,NA,NA,""
"image-keyboard-response",404,317312,"0.0-3.131-0.131","knwvpf2z2hqk2gl",739,"137.csv","","367.5","resources/trios/L1T2A1.jpg","37","restless",0.8,0.3,0.3,0.652625060051078,"true"
"image-keyboard-response",405,317718,"0.0-3.131-1.131","knwvpf2z2hqk2gl",739,"137.csv","","null","resources/maskTrios/L1BB.jpg","null","",NA,NA,NA,NA,""
"image-keyboard-response",406,318925,"0.0-3.131-2.131","knwvpf2z2hqk2gl",739,"137.csv","","null","resources/images/coin2.png","null","",NA,NA,NA,NA,""
"image-keyboard-response",407,319230,"0.0-3.132-0.132","knwvpf2z2hqk2gl",739,"137.csv","","302.69999998807907","resources/trios/L1T4A3.jpg","37","restless",0.8,0.4,0.3,0.58967809864166,"true"
"image-keyboard-response",408,319634,"0.0-3.132-1.132","knwvpf2z2hqk2gl",739,"137.csv","","null","resources/maskTrios/L1BB.jpg","null","",NA,NA,NA,NA,""
"image-keyboard-response",409,320841,"0.0-3.132-2.132","knwvpf2z2hqk2gl",739,"137.csv","","null","resources/images/coin2.png","null","",NA,NA,NA,NA,""
"image-keyboard-response",410,321204,"0.0-3.133-0.133","knwvpf2z2hqk2gl",739,"137.csv","","360.39999997615814","resources/trios/L2T2A1.jpg","39","restless",0.8,0.4,0.3,0.7476547460265,"false"
"image-keyboard-response",411,321607,"0.0-3.133-1.133","knwvpf2z2hqk2gl",739,"137.csv","","null","resources/maskTrios/BBA1.jpg","null","",NA,NA,NA,NA,""
"image-keyboard-response",412,322813,"0.0-3.133-2.133","knwvpf2z2hqk2gl",739,"137.csv","","null","resources/images/fishbone.png","null","",NA,NA,NA,NA,""
"image-keyboard-response",413,323145,"0.0-3.134-0.134","knwvpf2z2hqk2gl",739,"137.csv","","330.0999999642372","resources/trios/L2T4A3.jpg","37","restless",0.8,0.4,0.3,0.239830531687191,"true"
"image-keyboard-response",414,323552,"0.0-3.134-1.134","knwvpf2z2hqk2gl",739,"137.csv","","null","resources/maskTrios/L2BB.jpg","null","",NA,NA,NA,NA,""
"image-keyboard-response",415,324758,"0.0-3.134-2.134","knwvpf2z2hqk2gl",739,"137.csv","","null","resources/images/coin2.png","null","",NA,NA,NA,NA,""
"image-keyboard-response",416,325024,"0.0-3.135-0.135","knwvpf2z2hqk2gl",739,"137.csv","","264","resources/trios/L1T2A1.jpg","37","restless",0.8,0.4,0.3,0.154934667236096,"true"
"image-keyboard-response",417,325430,"0.0-3.135-1.135","knwvpf2z2hqk2gl",739,"137.csv","","null","resources/maskTrios/L1BB.jpg","null","",NA,NA,NA,NA,""
"image-keyboard-response",418,326634,"0.0-3.135-2.135","knwvpf2z2hqk2gl",739,"137.csv","","null","resources/images/coin2.png","null","",NA,NA,NA,NA,""
"image-keyboard-response",419,326883,"0.0-3.136-0.136","knwvpf2z2hqk2gl",739,"137.csv","","246.70000004768372","resources/trios/L2T4A1.jpg","37","restless",0.8,0.4,0.3,0.932475943494502,"false"
"image-keyboard-response",420,327289,"0.0-3.136-1.136","knwvpf2z2hqk2gl",739,"137.csv","","null","resources/maskTrios/L2BB.jpg","null","",NA,NA,NA,NA,""
"image-keyboard-response",421,328491,"0.0-3.136-2.136","knwvpf2z2hqk2gl",739,"137.csv","","null","resources/images/fishbone.png","null","",NA,NA,NA,NA,""
"image-keyboard-response",422,328775,"0.0-3.137-0.137","knwvpf2z2hqk2gl",739,"137.csv","","281.5999999642372","resources/trios/L2T4A3.jpg","38","restless",0.8,0.4,0.3,0.152596241440911,"true"
"image-keyboard-response",423,329182,"0.0-3.137-1.137","knwvpf2z2hqk2gl",739,"137.csv","","null","resources/maskTrios/BT4B.jpg","null","",NA,NA,NA,NA,""
"image-keyboard-response",424,330387,"0.0-3.137-2.137","knwvpf2z2hqk2gl",739,"137.csv","","null","resources/images/coin2.png","null","",NA,NA,NA,NA,""
"image-keyboard-response",425,330719,"0.0-3.138-0.138","knwvpf2z2hqk2gl",739,"137.csv","","330.19999998807907","resources/trios/L2T2A3.jpg","38","restless",0.8,0.4,0.3,0.404462550068281,"false"
"image-keyboard-response",426,331126,"0.0-3.138-1.138","knwvpf2z2hqk2gl",739,"137.csv","","null","resources/maskTrios/BT2B.jpg","null","",NA,NA,NA,NA,""
"image-keyboard-response",427,332331,"0.0-3.138-2.138","knwvpf2z2hqk2gl",739,"137.csv","","null","resources/images/fishbone.png","null","",NA,NA,NA,NA,""
"image-keyboard-response",428,332916,"0.0-3.139-0.139","knwvpf2z2hqk2gl",739,"137.csv","","582.6999999880791","resources/trios/L2T4A3.jpg","39","restless",0.8,0.3,0.3,0.929415622311311,"false"
"image-keyboard-response",429,333321,"0.0-3.139-1.139","knwvpf2z2hqk2gl",739,"137.csv","","null","resources/maskTrios/BBA3.jpg","null","",NA,NA,NA,NA,""
"image-keyboard-response",430,334527,"0.0-3.139-2.139","knwvpf2z2hqk2gl",739,"137.csv","","null","resources/images/fishbone.png","null","",NA,NA,NA,NA,""
"image-keyboard-response",431,334947,"0.0-3.140-0.140","knwvpf2z2hqk2gl",739,"137.csv","","417.39999997615814","resources/trios/L2T4A1.jpg","37","restless",0.7,0.3,0.3,0.354025635687812,"true"
"image-keyboard-response",432,335354,"0.0-3.140-1.140","knwvpf2z2hqk2gl",739,"137.csv","","null","resources/maskTrios/L2BB.jpg","null","",NA,NA,NA,NA,""
"image-keyboard-response",433,336561,"0.0-3.140-2.140","knwvpf2z2hqk2gl",739,"137.csv","","null","resources/images/coin2.png","null","",NA,NA,NA,NA,""
"image-keyboard-response",434,336937,"0.0-3.141-0.141","knwvpf2z2hqk2gl",739,"137.csv","","373.30000001192093","resources/trios/L1T4A1.jpg","37","restless",0.7,0.3,0.3,0.852187144705816,"false"
"image-keyboard-response",435,337343,"0.0-3.141-1.141","knwvpf2z2hqk2gl",739,"137.csv","","null","resources/maskTrios/L1BB.jpg","null","",NA,NA,NA,NA,""
"image-keyboard-response",436,338548,"0.0-3.141-2.141","knwvpf2z2hqk2gl",739,"137.csv","","null","resources/images/fishbone.png","null","",NA,NA,NA,NA,""
"image-keyboard-response",437,339177,"0.0-3.142-0.142","knwvpf2z2hqk2gl",739,"137.csv","","626.6000000238419","resources/trios/L1T2A1.jpg","38","restless",0.7,0.3,0.3,0.0837497650381414,"true"
"image-keyboard-response",438,339584,"0.0-3.142-1.142","knwvpf2z2hqk2gl",739,"137.csv","","null","resources/maskTrios/BT2B.jpg","null","",NA,NA,NA,NA,""
"image-keyboard-response",439,340788,"0.0-3.142-2.142","knwvpf2z2hqk2gl",739,"137.csv","","null","resources/images/coin2.png","null","",NA,NA,NA,NA,""
"image-keyboard-response",440,341092,"0.0-3.143-0.143","knwvpf2z2hqk2gl",739,"137.csv","","302.39999997615814","resources/trios/L2T2A1.jpg","38","restless",0.7,0.3,0.3,0.786763242318673,"false"
"image-keyboard-response",441,341497,"0.0-3.143-1.143","knwvpf2z2hqk2gl",739,"137.csv","","null","resources/maskTrios/BT2B.jpg","null","",NA,NA,NA,NA,""
"image-keyboard-response",442,342704,"0.0-3.143-2.143","knwvpf2z2hqk2gl",739,"137.csv","","null","resources/images/fishbone.png","null","",NA,NA,NA,NA,""
"image-keyboard-response",443,343043,"0.0-3.144-0.144","knwvpf2z2hqk2gl",739,"137.csv","","337.10000002384186","resources/trios/L2T2A3.jpg","37","restless",0.7,0.4,0.3,0.160428929063767,"true"
"image-keyboard-response",444,343446,"0.0-3.144-1.144","knwvpf2z2hqk2gl",739,"137.csv","","null","resources/maskTrios/L2BB.jpg","null","",NA,NA,NA,NA,""
"image-keyboard-response",445,344649,"0.0-3.144-2.144","knwvpf2z2hqk2gl",739,"137.csv","","null","resources/images/coin2.png","null","",NA,NA,NA,NA,""
"image-keyboard-response",446,344754,"0.0-3.145-0.145","knwvpf2z2hqk2gl",739,"137.csv","","102.69999998807907","resources/trios/L2T2A1.jpg","37","restless",0.7,0.4,0.3,0.140219175651248,"true"
"image-keyboard-response",447,345161,"0.0-3.145-1.145","knwvpf2z2hqk2gl",739,"137.csv","","null","resources/maskTrios/L2BB.jpg","null","",NA,NA,NA,NA,""
"image-keyboard-response",448,346368,"0.0-3.145-2.145","knwvpf2z2hqk2gl",739,"137.csv","","null","resources/images/coin2.png","null","",NA,NA,NA,NA,""
"image-keyboard-response",449,346772,"0.0-3.146-0.146","knwvpf2z2hqk2gl",739,"137.csv","","402.5","resources/trios/L2T2A3.jpg","37","restless",0.7,0.4,0.3,0.317637197545365,"true"
"image-keyboard-response",450,347177,"0.0-3.146-1.146","knwvpf2z2hqk2gl",739,"137.csv","","null","resources/maskTrios/L2BB.jpg","null","",NA,NA,NA,NA,""
"image-keyboard-response",451,348383,"0.0-3.146-2.146","knwvpf2z2hqk2gl",739,"137.csv","","null","resources/images/coin2.png","null","",NA,NA,NA,NA,""
"image-keyboard-response",452,348658,"0.0-3.147-0.147","knwvpf2z2hqk2gl",739,"137.csv","","273.0999999642372","resources/trios/L1T2A1.jpg","38","restless",0.7,0.4,0.3,0.0267260580096702,"true"
"image-keyboard-response",453,349066,"0.0-3.147-1.147","knwvpf2z2hqk2gl",739,"137.csv","","null","resources/maskTrios/BT2B.jpg","null","",NA,NA,NA,NA,""
"image-keyboard-response",454,350272,"0.0-3.147-2.147","knwvpf2z2hqk2gl",739,"137.csv","","null","resources/images/coin2.png","null","",NA,NA,NA,NA,""
"image-keyboard-response",455,350346,"0.0-3.148-0.148","knwvpf2z2hqk2gl",739,"137.csv","","71.10000002384186","resources/trios/L2T4A1.jpg","38","restless",0.7,0.5,0.3,0.0755628813000333,"true"
"image-keyboard-response",456,350748,"0.0-3.148-1.148","knwvpf2z2hqk2gl",739,"137.csv","","null","resources/maskTrios/BT4B.jpg","null","",NA,NA,NA,NA,""
"image-keyboard-response",457,351956,"0.0-3.148-2.148","knwvpf2z2hqk2gl",739,"137.csv","","null","resources/images/coin2.png","null","",NA,NA,NA,NA,""
"image-keyboard-response",458,352623,"0.0-3.149-0.149","knwvpf2z2hqk2gl",739,"137.csv","","665.1999999880791","resources/trios/L1T2A3.jpg","39","restless",0.7,0.5,0.3,0.232057838615007,"true"
"image-keyboard-response",459,353030,"0.0-3.149-1.149","knwvpf2z2hqk2gl",739,"137.csv","","null","resources/maskTrios/BBA3.jpg","null","",NA,NA,NA,NA,""
"image-keyboard-response",460,354235,"0.0-3.149-2.149","knwvpf2z2hqk2gl",739,"137.csv","","null","resources/images/coin2.png","null","",NA,NA,NA,NA,""
"image-keyboard-response",461,354531,"0.0-3.150-0.150","knwvpf2z2hqk2gl",739,"137.csv","","294.39999997615814","resources/trios/L2T4A1.jpg","39","restless",0.7,0.5,0.3,0.679248863142764,"false"
"image-keyboard-response",462,354935,"0.0-3.150-1.150","knwvpf2z2hqk2gl",739,"137.csv","","null","resources/maskTrios/BBA1.jpg","null","",NA,NA,NA,NA,""
"image-keyboard-response",463,356141,"0.0-3.150-2.150","knwvpf2z2hqk2gl",739,"137.csv","","null","resources/images/fishbone.png","null","",NA,NA,NA,NA,""
"image-keyboard-response",464,356389,"0.0-3.151-0.151","knwvpf2z2hqk2gl",739,"137.csv","","245.30000001192093","resources/trios/L2T4A3.jpg","38","restless",0.6,0.5,0.3,0.118720700935312,"true"
"image-keyboard-response",465,356796,"0.0-3.151-1.151","knwvpf2z2hqk2gl",739,"137.csv","","null","resources/maskTrios/BT4B.jpg","null","",NA,NA,NA,NA,""
"image-keyboard-response",466,358003,"0.0-3.151-2.151","knwvpf2z2hqk2gl",739,"137.csv","","null","resources/images/coin2.png","null","",NA,NA,NA,NA,""
"image-keyboard-response",467,358301,"0.0-3.152-0.152","knwvpf2z2hqk2gl",739,"137.csv","","294.80000001192093","resources/trios/L2T4A1.jpg","38","restless",0.6,0.5,0.3,0.939162858332452,"false"
"image-keyboard-response",468,358705,"0.0-3.152-1.152","knwvpf2z2hqk2gl",739,"137.csv","","null","resources/maskTrios/BT4B.jpg","null","",NA,NA,NA,NA,""
"image-keyboard-response",469,359912,"0.0-3.152-2.152","knwvpf2z2hqk2gl",739,"137.csv","","null","resources/images/fishbone.png","null","",NA,NA,NA,NA,""
"image-keyboard-response",470,360295,"0.0-3.153-0.153","knwvpf2z2hqk2gl",739,"137.csv","","381","resources/trios/L2T4A1.jpg","37","restless",0.5,0.5,0.3,0.763754342085903,"false"
"image-keyboard-response",471,360702,"0.0-3.153-1.153","knwvpf2z2hqk2gl",739,"137.csv","","null","resources/maskTrios/L2BB.jpg","null","",NA,NA,NA,NA,""
"image-keyboard-response",472,361909,"0.0-3.153-2.153","knwvpf2z2hqk2gl",739,"137.csv","","null","resources/images/fishbone.png","null","",NA,NA,NA,NA,""
"image-keyboard-response",473,362052,"0.0-3.154-0.154","knwvpf2z2hqk2gl",739,"137.csv","","141.19999998807907","resources/trios/L1T2A1.jpg","39","restless",0.5,0.6,0.3,0.0932704123284018,"true"
"image-keyboard-response",474,362457,"0.0-3.154-1.154","knwvpf2z2hqk2gl",739,"137.csv","","null","resources/maskTrios/BBA1.jpg","null","",NA,NA,NA,NA,""
"image-keyboard-response",475,363661,"0.0-3.154-2.154","knwvpf2z2hqk2gl",739,"137.csv","","null","resources/images/coin2.png","null","",NA,NA,NA,NA,""
"image-keyboard-response",476,363805,"0.0-3.155-0.155","knwvpf2z2hqk2gl",739,"137.csv","","141.9000000357628","resources/trios/L1T2A1.jpg","38","restless",0.5,0.6,0.3,0.741674249364034,"false"
"image-keyboard-response",477,364212,"0.0-3.155-1.155","knwvpf2z2hqk2gl",739,"137.csv","","null","resources/maskTrios/BT2B.jpg","null","",NA,NA,NA,NA,""
"image-keyboard-response",478,365418,"0.0-3.155-2.155","knwvpf2z2hqk2gl",739,"137.csv","","null","resources/images/fishbone.png","null","",NA,NA,NA,NA,""
"image-keyboard-response",479,365510,"0.0-3.156-0.156","knwvpf2z2hqk2gl",739,"137.csv","","89.80000001192093","resources/trios/L2T4A3.jpg","39","restless",0.5,0.6,0.2,0.606840845479522,"false"
"image-keyboard-response",480,365917,"0.0-3.156-1.156","knwvpf2z2hqk2gl",739,"137.csv","","null","resources/maskTrios/BBA3.jpg","null","",NA,NA,NA,NA,""
"image-keyboard-response",481,367124,"0.0-3.156-2.156","knwvpf2z2hqk2gl",739,"137.csv","","null","resources/images/fishbone.png","null","",NA,NA,NA,NA,""
"image-keyboard-response",482,367175,"0.0-3.157-0.157","knwvpf2z2hqk2gl",739,"137.csv","","48.89999997615814","resources/trios/L1T2A1.jpg","39","restless",0.4,0.6,0.2,0.470948787644081,"false"
"image-keyboard-response",483,367580,"0.0-3.157-1.157","knwvpf2z2hqk2gl",739,"137.csv","","null","resources/maskTrios/BBA1.jpg","null","",NA,NA,NA,NA,""
"image-keyboard-response",484,368786,"0.0-3.157-2.157","knwvpf2z2hqk2gl",739,"137.csv","","null","resources/images/fishbone.png","null","",NA,NA,NA,NA,""
"image-keyboard-response",485,369024,"0.0-3.158-0.158","knwvpf2z2hqk2gl",739,"137.csv","","235.39999997615814","resources/trios/L2T2A3.jpg","38","restless",0.4,0.7,0.2,0.293252198632902,"true"
"image-keyboard-response",486,369430,"0.0-3.158-1.158","knwvpf2z2hqk2gl",739,"137.csv","","null","resources/maskTrios/BT2B.jpg","null","",NA,NA,NA,NA,""
"image-keyboard-response",487,370635,"0.0-3.158-2.158","knwvpf2z2hqk2gl",739,"137.csv","","null","resources/images/coin2.png","null","",NA,NA,NA,NA,""
"image-keyboard-response",488,370700,"0.0-3.159-0.159","knwvpf2z2hqk2gl",739,"137.csv","","63.60000002384186","resources/trios/L2T4A3.jpg","37","restless",0.4,0.7,0.1,0.692471762243802,"false"
"image-keyboard-response",489,371105,"0.0-3.159-1.159","knwvpf2z2hqk2gl",739,"137.csv","","null","resources/maskTrios/L2BB.jpg","null","",NA,NA,NA,NA,""
"image-keyboard-response",490,372312,"0.0-3.159-2.159","knwvpf2z2hqk2gl",739,"137.csv","","null","resources/images/fishbone.png","null","",NA,NA,NA,NA,""
"image-keyboard-response",491,372395,"0.0-3.160-0.160","knwvpf2z2hqk2gl",739,"137.csv","","80.39999997615814","resources/trios/L2T2A1.jpg","39","restless",0.4,0.7,0.1,0.884073614413811,"false"
"image-keyboard-response",492,372798,"0.0-3.160-1.160","knwvpf2z2hqk2gl",739,"137.csv","","null","resources/maskTrios/BBA1.jpg","null","",NA,NA,NA,NA,""
"image-keyboard-response",493,374002,"0.0-3.160-2.160","knwvpf2z2hqk2gl",739,"137.csv","","null","resources/images/fishbone.png","null","",NA,NA,NA,NA,""
"image-keyboard-response",494,374250,"0.0-3.161-0.161","knwvpf2z2hqk2gl",739,"137.csv","","246.60000002384186","resources/trios/L2T4A3.jpg","37","restless",0.4,0.8,0.1,0.731557077307661,"false"
"image-keyboard-response",495,374653,"0.0-3.161-1.161","knwvpf2z2hqk2gl",739,"137.csv","","null","resources/maskTrios/L2BB.jpg","null","",NA,NA,NA,NA,""
"image-keyboard-response",496,375858,"0.0-3.161-2.161","knwvpf2z2hqk2gl",739,"137.csv","","null","resources/images/fishbone.png","null","",NA,NA,NA,NA,""
"image-keyboard-response",497,376141,"0.0-3.162-0.162","knwvpf2z2hqk2gl",739,"137.csv","","280.19999998807907","resources/trios/L1T4A1.jpg","39","restless",0.4,0.8,0.1,0.250908567119671,"false"
"image-keyboard-response",498,376543,"0.0-3.162-1.162","knwvpf2z2hqk2gl",739,"137.csv","","null","resources/maskTrios/BBA1.jpg","null","",NA,NA,NA,NA,""
"image-keyboard-response",499,377749,"0.0-3.162-2.162","knwvpf2z2hqk2gl",739,"137.csv","","null","resources/images/fishbone.png","null","",NA,NA,NA,NA,""
"image-keyboard-response",500,378042,"0.0-3.163-0.163","knwvpf2z2hqk2gl",739,"137.csv","","291.0999999642372","resources/trios/L2T4A1.jpg","38","restless",0.4,0.9,0.1,0.453487734413416,"true"
"image-keyboard-response",501,378446,"0.0-3.163-1.163","knwvpf2z2hqk2gl",739,"137.csv","","null","resources/maskTrios/BT4B.jpg","null","",NA,NA,NA,NA,""
"image-keyboard-response",502,379649,"0.0-3.163-2.163","knwvpf2z2hqk2gl",739,"137.csv","","null","resources/images/coin2.png","null","",NA,NA,NA,NA,""
"image-keyboard-response",503,379945,"0.0-3.164-0.164","knwvpf2z2hqk2gl",739,"137.csv","","293.5","resources/trios/L2T2A3.jpg","38","restless",0.4,0.9,0.2,0.243952007260718,"true"
"image-keyboard-response",504,380350,"0.0-3.164-1.164","knwvpf2z2hqk2gl",739,"137.csv","","null","resources/maskTrios/BT2B.jpg","null","",NA,NA,NA,NA,""
"image-keyboard-response",505,381556,"0.0-3.164-2.164","knwvpf2z2hqk2gl",739,"137.csv","","null","resources/images/coin2.png","null","",NA,NA,NA,NA,""
"image-keyboard-response",506,381558,"0.0-3.165-0.165","knwvpf2z2hqk2gl",739,"137.csv","","0.19999998807907104","resources/trios/L1T2A3.jpg","38","restless",0.4,0.9,0.2,0.740531274074185,"true"
"image-keyboard-response",507,381960,"0.0-3.165-1.165","knwvpf2z2hqk2gl",739,"137.csv","","null","resources/maskTrios/BT2B.jpg","null","",NA,NA,NA,NA,""
"image-keyboard-response",508,383165,"0.0-3.165-2.165","knwvpf2z2hqk2gl",739,"137.csv","","null","resources/images/coin2.png","null","",NA,NA,NA,NA,""
"image-keyboard-response",509,383527,"0.0-3.166-0.166","knwvpf2z2hqk2gl",739,"137.csv","","360.10000002384186","resources/trios/L1T2A3.jpg","38","restless",0.4,0.9,0.2,0.277965187703669,"true"
"image-keyboard-response",510,383934,"0.0-3.166-1.166","knwvpf2z2hqk2gl",739,"137.csv","","null","resources/maskTrios/BT2B.jpg","null","",NA,NA,NA,NA,""
"image-keyboard-response",511,385142,"0.0-3.166-2.166","knwvpf2z2hqk2gl",739,"137.csv","","null","resources/images/coin2.png","null","",NA,NA,NA,NA,""
"image-keyboard-response",512,385145,"0.0-3.167-0.167","knwvpf2z2hqk2gl",739,"137.csv","","2","resources/trios/L1T2A1.jpg","38","restless",0.4,0.9,0.2,0.220396080350503,"true"
"image-keyboard-response",513,385552,"0.0-3.167-1.167","knwvpf2z2hqk2gl",739,"137.csv","","null","resources/maskTrios/BT2B.jpg","null","",NA,NA,NA,NA,""
"image-keyboard-response",514,386759,"0.0-3.167-2.167","knwvpf2z2hqk2gl",739,"137.csv","","null","resources/images/coin2.png","null","",NA,NA,NA,NA,""
"image-keyboard-response",515,387093,"0.0-3.168-0.168","knwvpf2z2hqk2gl",739,"137.csv","","332.60000002384186","resources/trios/L2T2A1.jpg","38","restless",0.4,0.9,0.2,0.0493397126630095,"true"
"image-keyboard-response",516,387501,"0.0-3.168-1.168","knwvpf2z2hqk2gl",739,"137.csv","","null","resources/maskTrios/BT2B.jpg","null","",NA,NA,NA,NA,""
"image-keyboard-response",517,388707,"0.0-3.168-2.168","knwvpf2z2hqk2gl",739,"137.csv","","null","resources/images/coin2.png","null","",NA,NA,NA,NA,""
"image-keyboard-response",518,388756,"0.0-3.169-0.169","knwvpf2z2hqk2gl",739,"137.csv","","46.80000001192093","resources/trios/L2T2A3.jpg","38","restless",0.4,0.8,0.2,0.0211582806401662,"true"
"image-keyboard-response",519,389163,"0.0-3.169-1.169","knwvpf2z2hqk2gl",739,"137.csv","","null","resources/maskTrios/BT2B.jpg","null","",NA,NA,NA,NA,""
"image-keyboard-response",520,390368,"0.0-3.169-2.169","knwvpf2z2hqk2gl",739,"137.csv","","null","resources/images/coin2.png","null","",NA,NA,NA,NA,""
"image-keyboard-response",521,390382,"0.0-3.170-0.170","knwvpf2z2hqk2gl",739,"137.csv","","11.599999964237213","resources/trios/L1T2A1.jpg","38","restless",0.4,0.8,0.2,0.622757275523415,"true"
"image-keyboard-response",522,390788,"0.0-3.170-1.170","knwvpf2z2hqk2gl",739,"137.csv","","null","resources/maskTrios/BT2B.jpg","null","",NA,NA,NA,NA,""
"image-keyboard-response",523,391993,"0.0-3.170-2.170","knwvpf2z2hqk2gl",739,"137.csv","","null","resources/images/coin2.png","null","",NA,NA,NA,NA,""
"image-keyboard-response",524,392164,"0.0-3.171-0.171","knwvpf2z2hqk2gl",739,"137.csv","","169","resources/trios/L2T4A1.jpg","38","restless",0.4,0.7,0.2,0.480253942624989,"true"
"image-keyboard-response",525,392566,"0.0-3.171-1.171","knwvpf2z2hqk2gl",739,"137.csv","","null","resources/maskTrios/BT4B.jpg","null","",NA,NA,NA,NA,""
"image-keyboard-response",526,393773,"0.0-3.171-2.171","knwvpf2z2hqk2gl",739,"137.csv","","null","resources/images/coin2.png","null","",NA,NA,NA,NA,""
"image-keyboard-response",527,393875,"0.0-3.172-0.172","knwvpf2z2hqk2gl",739,"137.csv","","99.80000001192093","resources/trios/L1T4A1.jpg","38","restless",0.4,0.6,0.2,0.532082984754427,"true"
"image-keyboard-response",528,394282,"0.0-3.172-1.172","knwvpf2z2hqk2gl",739,"137.csv","","null","resources/maskTrios/BT4B.jpg","null","",NA,NA,NA,NA,""
"image-keyboard-response",529,395489,"0.0-3.172-2.172","knwvpf2z2hqk2gl",739,"137.csv","","null","resources/images/coin2.png","null","",NA,NA,NA,NA,""
"image-keyboard-response",530,395558,"0.0-3.173-0.173","knwvpf2z2hqk2gl",739,"137.csv","","66.90000003576279","resources/trios/L1T4A3.jpg","38","restless",0.4,0.6,0.2,0.405125820564531,"true"
"image-keyboard-response",531,395961,"0.0-3.173-1.173","knwvpf2z2hqk2gl",739,"137.csv","","null","resources/maskTrios/BT4B.jpg","null","",NA,NA,NA,NA,""
"image-keyboard-response",532,397164,"0.0-3.173-2.173","knwvpf2z2hqk2gl",739,"137.csv","","null","resources/images/coin2.png","null","",NA,NA,NA,NA,""
"image-keyboard-response",533,397194,"0.0-3.174-0.174","knwvpf2z2hqk2gl",739,"137.csv","","27.700000047683716","resources/trios/L2T2A1.jpg","38","restless",0.4,0.6,0.3,0.532102858438927,"true"
"image-keyboard-response",534,397599,"0.0-3.174-1.174","knwvpf2z2hqk2gl",739,"137.csv","","null","resources/maskTrios/BT2B.jpg","null","",NA,NA,NA,NA,""
"image-keyboard-response",535,398803,"0.0-3.174-2.174","knwvpf2z2hqk2gl",739,"137.csv","","null","resources/images/coin2.png","null","",NA,NA,NA,NA,""
"image-keyboard-response",536,399160,"0.0-3.175-0.175","knwvpf2z2hqk2gl",739,"137.csv","","355","resources/trios/L2T2A1.jpg","38","restless",0.4,0.6,0.3,0.977977127933627,"false"
"image-keyboard-response",537,399567,"0.0-3.175-1.175","knwvpf2z2hqk2gl",739,"137.csv","","null","resources/maskTrios/BT2B.jpg","null","",NA,NA,NA,NA,""
"image-keyboard-response",538,400770,"0.0-3.175-2.175","knwvpf2z2hqk2gl",739,"137.csv","","null","resources/images/fishbone.png","null","",NA,NA,NA,NA,""
"image-keyboard-response",539,401033,"0.0-3.176-0.176","knwvpf2z2hqk2gl",739,"137.csv","","261.10000002384186","resources/trios/L1T2A3.jpg","39","restless",0.4,0.6,0.4,0.428466380374261,"false"
"image-keyboard-response",540,401435,"0.0-3.176-1.176","knwvpf2z2hqk2gl",739,"137.csv","","null","resources/maskTrios/BBA3.jpg","null","",NA,NA,NA,NA,""
"image-keyboard-response",541,402642,"0.0-3.176-2.176","knwvpf2z2hqk2gl",739,"137.csv","","null","resources/images/fishbone.png","null","",NA,NA,NA,NA,""
"image-keyboard-response",542,402948,"0.0-3.177-0.177","knwvpf2z2hqk2gl",739,"137.csv","","304.4000000357628","resources/trios/L2T2A1.jpg","37","restless",0.4,0.6,0.4,0.928437619290412,"false"
"image-keyboard-response",543,403353,"0.0-3.177-1.177","knwvpf2z2hqk2gl",739,"137.csv","","null","resources/maskTrios/L2BB.jpg","null","",NA,NA,NA,NA,""
"image-keyboard-response",544,404556,"0.0-3.177-2.177","knwvpf2z2hqk2gl",739,"137.csv","","null","resources/images/fishbone.png","null","",NA,NA,NA,NA,""
"image-keyboard-response",545,404838,"0.0-3.178-0.178","knwvpf2z2hqk2gl",739,"137.csv","","280.10000002384186","resources/trios/L2T4A1.jpg","38","restless",0.4,0.6,0.4,0.912981381345088,"false"
"image-keyboard-response",546,405242,"0.0-3.178-1.178","knwvpf2z2hqk2gl",739,"137.csv","","null","resources/maskTrios/BT4B.jpg","null","",NA,NA,NA,NA,""
"image-keyboard-response",547,406447,"0.0-3.178-2.178","knwvpf2z2hqk2gl",739,"137.csv","","null","resources/images/fishbone.png","null","",NA,NA,NA,NA,""
"image-keyboard-response",548,406820,"0.0-3.179-0.179","knwvpf2z2hqk2gl",739,"137.csv","","370.80000001192093","resources/trios/L1T4A3.jpg","39","restless",0.4,0.6,0.4,0.909867799540102,"false"
"image-keyboard-response",549,407227,"0.0-3.179-1.179","knwvpf2z2hqk2gl",739,"137.csv","","null","resources/maskTrios/BBA3.jpg","null","",NA,NA,NA,NA,""
"image-keyboard-response",550,408431,"0.0-3.179-2.179","knwvpf2z2hqk2gl",739,"137.csv","","null","resources/images/fishbone.png","null","",NA,NA,NA,NA,""
"image-keyboard-response",551,408864,"0.0-3.180-0.180","knwvpf2z2hqk2gl",739,"137.csv","","429.89999997615814","resources/trios/L2T2A3.jpg","37","restless",0.4,0.5,0.4,0.145021404950239,"true"
"image-keyboard-response",552,409266,"0.0-3.180-1.180","knwvpf2z2hqk2gl",739,"137.csv","","null","resources/maskTrios/L2BB.jpg","null","",NA,NA,NA,NA,""
"image-keyboard-response",553,410474,"0.0-3.180-2.180","knwvpf2z2hqk2gl",739,"137.csv","","null","resources/images/coin2.png","null","",NA,NA,NA,NA,""
"image-keyboard-response",554,410742,"0.0-3.181-0.181","knwvpf2z2hqk2gl",739,"137.csv","","265.80000001192093","resources/trios/L1T2A3.jpg","37","restless",0.4,0.5,0.4,0.764120814303402,"false"
"image-keyboard-response",555,411148,"0.0-3.181-1.181","knwvpf2z2hqk2gl",739,"137.csv","","null","resources/maskTrios/L1BB.jpg","null","",NA,NA,NA,NA,""
"image-keyboard-response",556,412355,"0.0-3.181-2.181","knwvpf2z2hqk2gl",739,"137.csv","","null","resources/images/fishbone.png","null","",NA,NA,NA,NA,""
"image-keyboard-response",557,412607,"0.0-3.182-0.182","knwvpf2z2hqk2gl",739,"137.csv","","250","resources/trios/L2T4A1.jpg","39","restless",0.4,0.5,0.4,0.614303905453422,"false"
"image-keyboard-response",558,413011,"0.0-3.182-1.182","knwvpf2z2hqk2gl",739,"137.csv","","null","resources/maskTrios/BBA1.jpg","null","",NA,NA,NA,NA,""
"image-keyboard-response",559,414215,"0.0-3.182-2.182","knwvpf2z2hqk2gl",739,"137.csv","","null","resources/images/fishbone.png","null","",NA,NA,NA,NA,""
"image-keyboard-response",560,414386,"0.0-3.183-0.183","knwvpf2z2hqk2gl",739,"137.csv","","169.30000001192093","resources/trios/L1T4A3.jpg","38","restless",0.4,0.5,0.4,0.902324336791673,"false"
"image-keyboard-response",561,414793,"0.0-3.183-1.183","knwvpf2z2hqk2gl",739,"137.csv","","null","resources/maskTrios/BT4B.jpg","null","",NA,NA,NA,NA,""
"image-keyboard-response",562,415996,"0.0-3.183-2.183","knwvpf2z2hqk2gl",739,"137.csv","","null","resources/images/fishbone.png","null","",NA,NA,NA,NA,""
"image-keyboard-response",563,416200,"0.0-3.184-0.184","knwvpf2z2hqk2gl",739,"137.csv","","201.69999998807907","resources/trios/L1T2A1.jpg","37","restless",0.4,0.5,0.4,0.302683542054484,"true"
"image-keyboard-response",564,416602,"0.0-3.184-1.184","knwvpf2z2hqk2gl",739,"137.csv","","null","resources/maskTrios/L1BB.jpg","null","",NA,NA,NA,NA,""
"image-keyboard-response",565,417809,"0.0-3.184-2.184","knwvpf2z2hqk2gl",739,"137.csv","","null","resources/images/coin2.png","null","",NA,NA,NA,NA,""
"image-keyboard-response",566,418162,"0.0-3.185-0.185","knwvpf2z2hqk2gl",739,"137.csv","","350.30000001192093","resources/trios/L2T2A1.jpg","37","restless",0.4,0.5,0.4,0.156167363259042,"true"
"image-keyboard-response",567,418564,"0.0-3.185-1.185","knwvpf2z2hqk2gl",739,"137.csv","","null","resources/maskTrios/L2BB.jpg","null","",NA,NA,NA,NA,""
"image-keyboard-response",568,419770,"0.0-3.185-2.185","knwvpf2z2hqk2gl",739,"137.csv","","null","resources/images/coin2.png","null","",NA,NA,NA,NA,""
"image-keyboard-response",569,419806,"0.0-3.186-0.186","knwvpf2z2hqk2gl",739,"137.csv","","33.09999996423721","resources/trios/L1T4A3.jpg","37","restless",0.4,0.5,0.4,0.444533826251001,"false"
"image-keyboard-response",570,420212,"0.0-3.186-1.186","knwvpf2z2hqk2gl",739,"137.csv","","null","resources/maskTrios/L1BB.jpg","null","",NA,NA,NA,NA,""
"image-keyboard-response",571,421419,"0.0-3.186-2.186","knwvpf2z2hqk2gl",739,"137.csv","","null","resources/images/fishbone.png","null","",NA,NA,NA,NA,""
"image-keyboard-response",572,421878,"0.0-3.187-0.187","knwvpf2z2hqk2gl",739,"137.csv","","458.89999997615814","resources/trios/L1T2A1.jpg","38","restless",0.4,0.5,0.4,0.566637019303127,"false"
"image-keyboard-response",573,422285,"0.0-3.187-1.187","knwvpf2z2hqk2gl",739,"137.csv","","null","resources/maskTrios/BT2B.jpg","null","",NA,NA,NA,NA,""
"image-keyboard-response",574,423492,"0.0-3.187-2.187","knwvpf2z2hqk2gl",739,"137.csv","","null","resources/images/fishbone.png","null","",NA,NA,NA,NA,""
"image-keyboard-response",575,423753,"0.0-3.188-0.188","knwvpf2z2hqk2gl",739,"137.csv","","259.2000000476837","resources/trios/L1T2A1.jpg","39","restless",0.4,0.6,0.5,0.769523197171149,"false"
"image-keyboard-response",576,424159,"0.0-3.188-1.188","knwvpf2z2hqk2gl",739,"137.csv","","null","resources/maskTrios/BBA1.jpg","null","",NA,NA,NA,NA,""
"image-keyboard-response",577,425362,"0.0-3.188-2.188","knwvpf2z2hqk2gl",739,"137.csv","","null","resources/images/fishbone.png","null","",NA,NA,NA,NA,""
"image-keyboard-response",578,425680,"0.0-3.189-0.189","knwvpf2z2hqk2gl",739,"137.csv","","315.80000001192093","resources/trios/L2T4A3.jpg","37","restless",0.4,0.6,0.6,0.105822930051423,"true"
"image-keyboard-response",579,426087,"0.0-3.189-1.189","knwvpf2z2hqk2gl",739,"137.csv","","null","resources/maskTrios/L2BB.jpg","null","",NA,NA,NA,NA,""
"image-keyboard-response",580,427291,"0.0-3.189-2.189","knwvpf2z2hqk2gl",739,"137.csv","","null","resources/images/coin2.png","null","",NA,NA,NA,NA,""
"image-keyboard-response",581,427708,"0.0-3.190-0.190","knwvpf2z2hqk2gl",739,"137.csv","","415.5","resources/trios/L2T4A3.jpg","37","restless",0.4,0.6,0.6,0.923469559828959,"false"
"image-keyboard-response",582,428110,"0.0-3.190-1.190","knwvpf2z2hqk2gl",739,"137.csv","","null","resources/maskTrios/L2BB.jpg","null","",NA,NA,NA,NA,""
"image-keyboard-response",583,429315,"0.0-3.190-2.190","knwvpf2z2hqk2gl",739,"137.csv","","null","resources/images/fishbone.png","null","",NA,NA,NA,NA,""
"image-keyboard-response",584,429721,"0.0-3.191-0.191","knwvpf2z2hqk2gl",739,"137.csv","","404.10000002384186","resources/trios/L2T2A3.jpg","37","restless",0.4,0.6,0.5,0.0780964438703222,"true"
"image-keyboard-response",585,430128,"0.0-3.191-1.191","knwvpf2z2hqk2gl",739,"137.csv","","null","resources/maskTrios/L2BB.jpg","null","",NA,NA,NA,NA,""
"image-keyboard-response",586,431330,"0.0-3.191-2.191","knwvpf2z2hqk2gl",739,"137.csv","","null","resources/images/coin2.png","null","",NA,NA,NA,NA,""
"image-keyboard-response",587,431436,"0.0-3.192-0.192","knwvpf2z2hqk2gl",739,"137.csv","","104.80000001192093","resources/trios/L2T4A1.jpg","37","restless",0.4,0.6,0.5,0.674606485704165,"false"
"image-keyboard-response",588,431843,"0.0-3.192-1.192","knwvpf2z2hqk2gl",739,"137.csv","","null","resources/maskTrios/L2BB.jpg","null","",NA,NA,NA,NA,""
"image-keyboard-response",589,433050,"0.0-3.192-2.192","knwvpf2z2hqk2gl",739,"137.csv","","null","resources/images/fishbone.png","null","",NA,NA,NA,NA,""
"image-keyboard-response",590,433333,"0.0-3.193-0.193","knwvpf2z2hqk2gl",739,"137.csv","","281.5","resources/trios/L1T2A3.jpg","37","restless",0.4,0.6,0.4,0.823245583943783,"false"
"image-keyboard-response",591,433741,"0.0-3.193-1.193","knwvpf2z2hqk2gl",739,"137.csv","","null","resources/maskTrios/L1BB.jpg","null","",NA,NA,NA,NA,""
"image-keyboard-response",592,434947,"0.0-3.193-2.193","knwvpf2z2hqk2gl",739,"137.csv","","null","resources/images/fishbone.png","null","",NA,NA,NA,NA,""
"image-keyboard-response",593,435314,"0.0-3.194-0.194","knwvpf2z2hqk2gl",739,"137.csv","","364.80000001192093","resources/trios/L1T2A1.jpg","37","restless",0.4,0.6,0.4,0.311658466954805,"true"
"image-keyboard-response",594,435721,"0.0-3.194-1.194","knwvpf2z2hqk2gl",739,"137.csv","","null","resources/maskTrios/L1BB.jpg","null","",NA,NA,NA,NA,""
"image-keyboard-response",595,436928,"0.0-3.194-2.194","knwvpf2z2hqk2gl",739,"137.csv","","null","resources/images/coin2.png","null","",NA,NA,NA,NA,""
"image-keyboard-response",596,437356,"0.0-3.195-0.195","knwvpf2z2hqk2gl",739,"137.csv","","425.5999999642372","resources/trios/L2T2A3.jpg","37","restless",0.4,0.5,0.4,0.799276123451892,"false"
"image-keyboard-response",597,437759,"0.0-3.195-1.195","knwvpf2z2hqk2gl",739,"137.csv","","null","resources/maskTrios/L2BB.jpg","null","",NA,NA,NA,NA,""
"image-keyboard-response",598,438965,"0.0-3.195-2.195","knwvpf2z2hqk2gl",739,"137.csv","","null","resources/images/fishbone.png","null","",NA,NA,NA,NA,""
"image-keyboard-response",599,439057,"0.0-3.196-0.196","knwvpf2z2hqk2gl",739,"137.csv","","89.90000003576279","resources/trios/L2T4A1.jpg","37","restless",0.4,0.5,0.4,0.787864194627496,"false"
"image-keyboard-response",600,439464,"0.0-3.196-1.196","knwvpf2z2hqk2gl",739,"137.csv","","null","resources/maskTrios/L2BB.jpg","null","",NA,NA,NA,NA,""
"image-keyboard-response",601,440671,"0.0-3.196-2.196","knwvpf2z2hqk2gl",739,"137.csv","","null","resources/images/fishbone.png","null","",NA,NA,NA,NA,""
"image-keyboard-response",602,440950,"0.0-3.197-0.197","knwvpf2z2hqk2gl",739,"137.csv","","276.9000000357628","resources/trios/L1T4A1.jpg","37","restless",0.4,0.5,0.4,0.77451175428882,"false"
"image-keyboard-response",603,441357,"0.0-3.197-1.197","knwvpf2z2hqk2gl",739,"137.csv","","null","resources/maskTrios/L1BB.jpg","null","",NA,NA,NA,NA,""
"image-keyboard-response",604,442564,"0.0-3.197-2.197","knwvpf2z2hqk2gl",739,"137.csv","","null","resources/images/fishbone.png","null","",NA,NA,NA,NA,""
"image-keyboard-response",605,442807,"0.0-3.198-0.198","knwvpf2z2hqk2gl",739,"137.csv","","241.4000000357628","resources/trios/L1T4A3.jpg","37","restless",0.4,0.5,0.4,0.0993353736651965,"true"
"image-keyboard-response",606,443212,"0.0-3.198-1.198","knwvpf2z2hqk2gl",739,"137.csv","","null","resources/maskTrios/L1BB.jpg","null","",NA,NA,NA,NA,""
