"trial_type","trial_index","time_elapsed","internal_node_id","subject","participantCode","walkNumber","success","rt","stimulus","key_press","test_part","leftProb","midProb","rightProb","generatedNum","correct"
"pavlovia",0,1085,"0.0-0.0","vyhe9ps38qy4qdp",662,"195.csv","","","","","",NA,NA,NA,NA,""
"fullscreen",1,6585,"0.0-1.0","vyhe9ps38qy4qdp",662,"195.csv","true","","","","",NA,NA,NA,NA,""
"html-keyboard-response",2,11591,"0.0-2.0-0.0","vyhe9ps38qy4qdp",662,"195.csv","","5004.5","<p><font size='6'>Arrrgh!</p></font><p>Can you be the best pirate? Try to find lots of gold! But beware, some islands have more gold than others, and over time, the island with the most gold may change. Can YOU figure it out? </p><font size='6'>GOOD LUCK, CAPTAIN!!!</font><p>Press any key to begin</p>","32","",NA,NA,NA,NA,""
"image-keyboard-response",3,14601,"0.0-2.0-1.0","vyhe9ps38qy4qdp",662,"195.csv","","null","resources/image_sets/111.png","null","",NA,NA,NA,NA,""
"image-keyboard-response",4,16841,"0.0-2.0-2.0","vyhe9ps38qy4qdp",662,"195.csv","","2237","resources/image_sets/left_highlight.png","37","",NA,NA,NA,NA,""
"image-keyboard-response",5,18235,"0.0-2.0-3.0","vyhe9ps38qy4qdp",662,"195.csv","","1392.1000000238419","resources/image_sets/mid_highlight.png","38","",NA,NA,NA,NA,""
"image-keyboard-response",6,19093,"0.0-2.0-4.0","vyhe9ps38qy4qdp",662,"195.csv","","856.4000000357628","resources/image_sets/right_highlight.png","39","",NA,NA,NA,NA,""
"image-keyboard-response",7,20481,"0.0-2.0-5.0","vyhe9ps38qy4qdp",662,"195.csv","","1385.5999999642372","resources/image_sets/111.png","13","",NA,NA,NA,NA,""
"image-keyboard-response",8,22517,"0.0-2.0-6.0","vyhe9ps38qy4qdp",662,"195.csv","","2034.6000000238419","resources/images/coin2.png","13","",NA,NA,NA,NA,""
"image-keyboard-response",9,23792,"0.0-2.0-7.0","vyhe9ps38qy4qdp",662,"195.csv","","1272.5999999642372","resources/images/fishbone.png","13","",NA,NA,NA,NA,""
"html-keyboard-response",10,26006,"0.0-2.0-8.0","vyhe9ps38qy4qdp",662,"195.csv","","2213.300000011921","<p>Your first journey will be a long one, but you will get a well deserved break at the end</p><p>After the break you will have four more journeys, but each will be much shorter than the first, and you will have breaks in between each</p><p>Press Enter to begin</p>","13","",NA,NA,NA,NA,""
"image-keyboard-response",11,28024,"0.0-3.0-0.0","vyhe9ps38qy4qdp",662,"195.csv","","2014.699999988079","resources/trios/L1T2A3.jpg","39","restless",0.9,0.7,0.3,0.78355660547464,"false"
"image-keyboard-response",12,28433,"0.0-3.0-1.0","vyhe9ps38qy4qdp",662,"195.csv","","null","resources/maskTrios/BBA3.jpg","null","",NA,NA,NA,NA,""
"image-keyboard-response",13,29638,"0.0-3.0-2.0","vyhe9ps38qy4qdp",662,"195.csv","","null","resources/images/fishbone.png","null","",NA,NA,NA,NA,""
"image-keyboard-response",14,31348,"0.0-3.1-0.1","vyhe9ps38qy4qdp",662,"195.csv","","1707","resources/trios/L1T2A3.jpg","37","restless",0.9,0.7,0.3,0.790690906185028,"true"
"image-keyboard-response",15,31761,"0.0-3.1-1.1","vyhe9ps38qy4qdp",662,"195.csv","","null","resources/maskTrios/L1BB.jpg","null","",NA,NA,NA,NA,""
"image-keyboard-response",16,32967,"0.0-3.1-2.1","vyhe9ps38qy4qdp",662,"195.csv","","null","resources/images/coin2.png","null","",NA,NA,NA,NA,""
"image-keyboard-response",17,33640,"0.0-3.2-0.2","vyhe9ps38qy4qdp",662,"195.csv","","671.8000000119209","resources/trios/L4T2A3.jpg","37","restless",0.8,0.7,0.3,0.12538485317656,"true"
"image-keyboard-response",18,34045,"0.0-3.2-1.2","vyhe9ps38qy4qdp",662,"195.csv","","null","resources/maskTrios/L4BB.jpg","null","",NA,NA,NA,NA,""
"image-keyboard-response",19,35256,"0.0-3.2-2.2","vyhe9ps38qy4qdp",662,"195.csv","","null","resources/images/coin2.png","null","",NA,NA,NA,NA,""
"image-keyboard-response",20,36228,"0.0-3.3-0.3","vyhe9ps38qy4qdp",662,"195.csv","","968.8999999761581","resources/trios/L1T4A2.jpg","37","restless",0.8,0.7,0.3,0.961886484790707,"false"
"image-keyboard-response",21,36637,"0.0-3.3-1.3","vyhe9ps38qy4qdp",662,"195.csv","","null","resources/maskTrios/L1BB.jpg","null","",NA,NA,NA,NA,""
"image-keyboard-response",22,37849,"0.0-3.3-2.3","vyhe9ps38qy4qdp",662,"195.csv","","null","resources/images/fishbone.png","null","",NA,NA,NA,NA,""
"image-keyboard-response",23,38532,"0.0-3.4-0.4","vyhe9ps38qy4qdp",662,"195.csv","","681.6000000238419","resources/trios/L1T2A2.jpg","38","restless",0.8,0.7,0.3,0.576803244603387,"true"
"image-keyboard-response",24,38943,"0.0-3.4-1.4","vyhe9ps38qy4qdp",662,"195.csv","","null","resources/maskTrios/BT2B.jpg","null","",NA,NA,NA,NA,""
"image-keyboard-response",25,40149,"0.0-3.4-2.4","vyhe9ps38qy4qdp",662,"195.csv","","null","resources/images/coin2.png","null","",NA,NA,NA,NA,""
"image-keyboard-response",26,40918,"0.0-3.5-0.5","vyhe9ps38qy4qdp",662,"195.csv","","766.6999999880791","resources/trios/L4T4A3.jpg","37","restless",0.8,0.7,0.3,0.750135720748321,"true"
"image-keyboard-response",27,41327,"0.0-3.5-1.5","vyhe9ps38qy4qdp",662,"195.csv","","null","resources/maskTrios/L4BB.jpg","null","",NA,NA,NA,NA,""
"image-keyboard-response",28,42533,"0.0-3.5-2.5","vyhe9ps38qy4qdp",662,"195.csv","","null","resources/images/coin2.png","null","",NA,NA,NA,NA,""
"image-keyboard-response",29,42859,"0.0-3.6-0.6","vyhe9ps38qy4qdp",662,"195.csv","","323.5","resources/trios/L1T4A2.jpg","38","restless",0.8,0.7,0.3,0.102421844056182,"true"
"image-keyboard-response",30,43274,"0.0-3.6-1.6","vyhe9ps38qy4qdp",662,"195.csv","","null","resources/maskTrios/BT4B.jpg","null","",NA,NA,NA,NA,""
"image-keyboard-response",31,44477,"0.0-3.6-2.6","vyhe9ps38qy4qdp",662,"195.csv","","null","resources/images/coin2.png","null","",NA,NA,NA,NA,""
"image-keyboard-response",32,44776,"0.0-3.7-0.7","vyhe9ps38qy4qdp",662,"195.csv","","296.89999997615814","resources/trios/L4T4A3.jpg","37","restless",0.8,0.7,0.4,0.12600766896031,"true"
"image-keyboard-response",33,45183,"0.0-3.7-1.7","vyhe9ps38qy4qdp",662,"195.csv","","null","resources/maskTrios/L4BB.jpg","null","",NA,NA,NA,NA,""
"image-keyboard-response",34,46393,"0.0-3.7-2.7","vyhe9ps38qy4qdp",662,"195.csv","","null","resources/images/coin2.png","null","",NA,NA,NA,NA,""
"image-keyboard-response",35,46691,"0.0-3.8-0.8","vyhe9ps38qy4qdp",662,"195.csv","","296.2999999523163","resources/trios/L4T4A2.jpg","38","restless",0.8,0.7,0.4,0.435007417768056,"true"
"image-keyboard-response",36,47105,"0.0-3.8-1.8","vyhe9ps38qy4qdp",662,"195.csv","","null","resources/maskTrios/BT4B.jpg","null","",NA,NA,NA,NA,""
"image-keyboard-response",37,48310,"0.0-3.8-2.8","vyhe9ps38qy4qdp",662,"195.csv","","null","resources/images/coin2.png","null","",NA,NA,NA,NA,""
"image-keyboard-response",38,48636,"0.0-3.9-0.9","vyhe9ps38qy4qdp",662,"195.csv","","324.19999998807907","resources/trios/L4T2A3.jpg","37","restless",0.8,0.7,0.4,0.601681764823121,"true"
"image-keyboard-response",39,49049,"0.0-3.9-1.9","vyhe9ps38qy4qdp",662,"195.csv","","null","resources/maskTrios/L4BB.jpg","null","",NA,NA,NA,NA,""
"image-keyboard-response",40,50253,"0.0-3.9-2.9","vyhe9ps38qy4qdp",662,"195.csv","","null","resources/images/coin2.png","null","",NA,NA,NA,NA,""
"image-keyboard-response",41,50613,"0.0-3.10-0.10","vyhe9ps38qy4qdp",662,"195.csv","","358.0999999642372","resources/trios/L1T2A3.jpg","38","restless",0.7,0.7,0.4,0.0513321810553351,"true"
"image-keyboard-response",42,51025,"0.0-3.10-1.10","vyhe9ps38qy4qdp",662,"195.csv","","null","resources/maskTrios/BT2B.jpg","null","",NA,NA,NA,NA,""
"image-keyboard-response",43,52232,"0.0-3.10-2.10","vyhe9ps38qy4qdp",662,"195.csv","","null","resources/images/coin2.png","null","",NA,NA,NA,NA,""
"image-keyboard-response",44,52711,"0.0-3.11-0.11","vyhe9ps38qy4qdp",662,"195.csv","","476.9000000357628","resources/trios/L1T4A3.jpg","37","restless",0.7,0.7,0.4,0.707967266459695,"false"
"image-keyboard-response",45,53121,"0.0-3.11-1.11","vyhe9ps38qy4qdp",662,"195.csv","","null","resources/maskTrios/L1BB.jpg","null","",NA,NA,NA,NA,""
"image-keyboard-response",46,54326,"0.0-3.11-2.11","vyhe9ps38qy4qdp",662,"195.csv","","null","resources/images/fishbone.png","null","",NA,NA,NA,NA,""
"image-keyboard-response",47,54622,"0.0-3.12-0.12","vyhe9ps38qy4qdp",662,"195.csv","","294.30000001192093","resources/trios/L4T2A3.jpg","38","restless",0.7,0.7,0.5,0.579683023080824,"true"
"image-keyboard-response",48,55032,"0.0-3.12-1.12","vyhe9ps38qy4qdp",662,"195.csv","","null","resources/maskTrios/BT2B.jpg","null","",NA,NA,NA,NA,""
"image-keyboard-response",49,56241,"0.0-3.12-2.12","vyhe9ps38qy4qdp",662,"195.csv","","null","resources/images/coin2.png","null","",NA,NA,NA,NA,""
"image-keyboard-response",50,56572,"0.0-3.13-0.13","vyhe9ps38qy4qdp",662,"195.csv","","328.89999997615814","resources/trios/L4T2A3.jpg","38","restless",0.7,0.7,0.5,0.419923598522387,"true"
"image-keyboard-response",51,56982,"0.0-3.13-1.13","vyhe9ps38qy4qdp",662,"195.csv","","null","resources/maskTrios/BT2B.jpg","null","",NA,NA,NA,NA,""
"image-keyboard-response",52,58192,"0.0-3.13-2.13","vyhe9ps38qy4qdp",662,"195.csv","","null","resources/images/coin2.png","null","",NA,NA,NA,NA,""
"image-keyboard-response",53,58536,"0.0-3.14-0.14","vyhe9ps38qy4qdp",662,"195.csv","","341.80000001192093","resources/trios/L1T2A2.jpg","38","restless",0.7,0.7,0.5,0.403333322789416,"true"
"image-keyboard-response",54,58942,"0.0-3.14-1.14","vyhe9ps38qy4qdp",662,"195.csv","","null","resources/maskTrios/BT2B.jpg","null","",NA,NA,NA,NA,""
"image-keyboard-response",55,60149,"0.0-3.14-2.14","vyhe9ps38qy4qdp",662,"195.csv","","null","resources/images/coin2.png","null","",NA,NA,NA,NA,""
"image-keyboard-response",56,60472,"0.0-3.15-0.15","vyhe9ps38qy4qdp",662,"195.csv","","322","resources/trios/L4T2A2.jpg","37","restless",0.7,0.7,0.5,0.272992077337372,"true"
"image-keyboard-response",57,60881,"0.0-3.15-1.15","vyhe9ps38qy4qdp",662,"195.csv","","null","resources/maskTrios/L4BB.jpg","null","",NA,NA,NA,NA,""
"image-keyboard-response",58,62089,"0.0-3.15-2.15","vyhe9ps38qy4qdp",662,"195.csv","","null","resources/images/coin2.png","null","",NA,NA,NA,NA,""
"image-keyboard-response",59,62441,"0.0-3.16-0.16","vyhe9ps38qy4qdp",662,"195.csv","","350.19999998807907","resources/trios/L4T4A3.jpg","38","restless",0.7,0.7,0.5,0.320027804517584,"true"
"image-keyboard-response",60,62849,"0.0-3.16-1.16","vyhe9ps38qy4qdp",662,"195.csv","","null","resources/maskTrios/BT4B.jpg","null","",NA,NA,NA,NA,""
"image-keyboard-response",61,64053,"0.0-3.16-2.16","vyhe9ps38qy4qdp",662,"195.csv","","null","resources/images/coin2.png","null","",NA,NA,NA,NA,""
"image-keyboard-response",62,64325,"0.0-3.17-0.17","vyhe9ps38qy4qdp",662,"195.csv","","270.4000000357628","resources/trios/L1T2A2.jpg","38","restless",0.7,0.6,0.5,0.580252281870562,"true"
"image-keyboard-response",63,64732,"0.0-3.17-1.17","vyhe9ps38qy4qdp",662,"195.csv","","null","resources/maskTrios/BT2B.jpg","null","",NA,NA,NA,NA,""
"image-keyboard-response",64,65942,"0.0-3.17-2.17","vyhe9ps38qy4qdp",662,"195.csv","","null","resources/images/coin2.png","null","",NA,NA,NA,NA,""
"image-keyboard-response",65,66262,"0.0-3.18-0.18","vyhe9ps38qy4qdp",662,"195.csv","","317.5","resources/trios/L1T4A3.jpg","37","restless",0.7,0.6,0.6,0.938016320756939,"false"
"image-keyboard-response",66,66673,"0.0-3.18-1.18","vyhe9ps38qy4qdp",662,"195.csv","","null","resources/maskTrios/L1BB.jpg","null","",NA,NA,NA,NA,""
"image-keyboard-response",67,67881,"0.0-3.18-2.18","vyhe9ps38qy4qdp",662,"195.csv","","null","resources/images/fishbone.png","null","",NA,NA,NA,NA,""
"image-keyboard-response",68,68155,"0.0-3.19-0.19","vyhe9ps38qy4qdp",662,"195.csv","","272.69999998807907","resources/trios/L4T2A2.jpg","38","restless",0.7,0.6,0.6,0.0539058867346343,"true"
"image-keyboard-response",69,68565,"0.0-3.19-1.19","vyhe9ps38qy4qdp",662,"195.csv","","null","resources/maskTrios/BT2B.jpg","null","",NA,NA,NA,NA,""
"image-keyboard-response",70,69775,"0.0-3.19-2.19","vyhe9ps38qy4qdp",662,"195.csv","","null","resources/images/coin2.png","null","",NA,NA,NA,NA,""
"image-keyboard-response",71,70104,"0.0-3.20-0.20","vyhe9ps38qy4qdp",662,"195.csv","","326.19999998807907","resources/trios/L1T4A2.jpg","38","restless",0.7,0.6,0.6,0.227808729490115,"true"
"image-keyboard-response",72,70509,"0.0-3.20-1.20","vyhe9ps38qy4qdp",662,"195.csv","","null","resources/maskTrios/BT4B.jpg","null","",NA,NA,NA,NA,""
"image-keyboard-response",73,71717,"0.0-3.20-2.20","vyhe9ps38qy4qdp",662,"195.csv","","null","resources/images/coin2.png","null","",NA,NA,NA,NA,""
"image-keyboard-response",74,71964,"0.0-3.21-0.21","vyhe9ps38qy4qdp",662,"195.csv","","244.4000000357628","resources/trios/L1T4A3.jpg","38","restless",0.7,0.6,0.6,0.73873850903946,"false"
"image-keyboard-response",75,72375,"0.0-3.21-1.21","vyhe9ps38qy4qdp",662,"195.csv","","null","resources/maskTrios/BT4B.jpg","null","",NA,NA,NA,NA,""
"image-keyboard-response",76,73581,"0.0-3.21-2.21","vyhe9ps38qy4qdp",662,"195.csv","","null","resources/images/fishbone.png","null","",NA,NA,NA,NA,""
"image-keyboard-response",77,73887,"0.0-3.22-0.22","vyhe9ps38qy4qdp",662,"195.csv","","303","resources/trios/L1T2A3.jpg","37","restless",0.7,0.6,0.6,0.587421909368952,"true"
"image-keyboard-response",78,74292,"0.0-3.22-1.22","vyhe9ps38qy4qdp",662,"195.csv","","null","resources/maskTrios/L1BB.jpg","null","",NA,NA,NA,NA,""
"image-keyboard-response",79,75502,"0.0-3.22-2.22","vyhe9ps38qy4qdp",662,"195.csv","","null","resources/images/coin2.png","null","",NA,NA,NA,NA,""
"image-keyboard-response",80,76111,"0.0-3.23-0.23","vyhe9ps38qy4qdp",662,"195.csv","","606.4000000357628","resources/trios/L1T2A3.jpg","37","restless",0.7,0.6,0.6,0.517188557487319,"true"
"image-keyboard-response",81,76519,"0.0-3.23-1.23","vyhe9ps38qy4qdp",662,"195.csv","","null","resources/maskTrios/L1BB.jpg","null","",NA,NA,NA,NA,""
"image-keyboard-response",82,77725,"0.0-3.23-2.23","vyhe9ps38qy4qdp",662,"195.csv","","null","resources/images/coin2.png","null","",NA,NA,NA,NA,""
"image-keyboard-response",83,77897,"0.0-3.24-0.24","vyhe9ps38qy4qdp",662,"195.csv","","169.5999999642372","resources/trios/L1T4A2.jpg","38","restless",0.7,0.6,0.6,0.0833739014831827,"true"
"image-keyboard-response",84,78303,"0.0-3.24-1.24","vyhe9ps38qy4qdp",662,"195.csv","","null","resources/maskTrios/BT4B.jpg","null","",NA,NA,NA,NA,""
"image-keyboard-response",85,79508,"0.0-3.24-2.24","vyhe9ps38qy4qdp",662,"195.csv","","null","resources/images/coin2.png","null","",NA,NA,NA,NA,""
"image-keyboard-response",86,79937,"0.0-3.25-0.25","vyhe9ps38qy4qdp",662,"195.csv","","426.7000000476837","resources/trios/L4T2A2.jpg","37","restless",0.7,0.6,0.6,0.782088811663056,"false"
"image-keyboard-response",87,80343,"0.0-3.25-1.25","vyhe9ps38qy4qdp",662,"195.csv","","null","resources/maskTrios/L4BB.jpg","null","",NA,NA,NA,NA,""
"image-keyboard-response",88,81548,"0.0-3.25-2.25","vyhe9ps38qy4qdp",662,"195.csv","","null","resources/images/fishbone.png","null","",NA,NA,NA,NA,""
"image-keyboard-response",89,82443,"0.0-3.26-0.26","vyhe9ps38qy4qdp",662,"195.csv","","893.5","resources/trios/L4T2A2.jpg","38","restless",0.7,0.6,0.6,0.207607308818645,"true"
"image-keyboard-response",90,82857,"0.0-3.26-1.26","vyhe9ps38qy4qdp",662,"195.csv","","null","resources/maskTrios/BT2B.jpg","null","",NA,NA,NA,NA,""
"image-keyboard-response",91,84064,"0.0-3.26-2.26","vyhe9ps38qy4qdp",662,"195.csv","","null","resources/images/coin2.png","null","",NA,NA,NA,NA,""
"image-keyboard-response",92,85144,"0.0-3.27-0.27","vyhe9ps38qy4qdp",662,"195.csv","","1078.8999999761581","resources/trios/L1T2A3.jpg","38","restless",0.7,0.6,0.7,0.0705838417990339,"true"
"image-keyboard-response",93,85553,"0.0-3.27-1.27","vyhe9ps38qy4qdp",662,"195.csv","","null","resources/maskTrios/BT2B.jpg","null","",NA,NA,NA,NA,""
"image-keyboard-response",94,86758,"0.0-3.27-2.27","vyhe9ps38qy4qdp",662,"195.csv","","null","resources/images/coin2.png","null","",NA,NA,NA,NA,""
"image-keyboard-response",95,87252,"0.0-3.28-0.28","vyhe9ps38qy4qdp",662,"195.csv","","492.0999999642372","resources/trios/L1T2A2.jpg","37","restless",0.7,0.6,0.8,0.559647044982271,"true"
"image-keyboard-response",96,87664,"0.0-3.28-1.28","vyhe9ps38qy4qdp",662,"195.csv","","null","resources/maskTrios/L1BB.jpg","null","",NA,NA,NA,NA,""
"image-keyboard-response",97,88869,"0.0-3.28-2.28","vyhe9ps38qy4qdp",662,"195.csv","","null","resources/images/coin2.png","null","",NA,NA,NA,NA,""
"image-keyboard-response",98,90801,"0.0-3.29-0.29","vyhe9ps38qy4qdp",662,"195.csv","","1930.0999999642372","resources/trios/L1T2A3.jpg","38","restless",0.7,0.6,0.8,0.290073844229838,"true"
"image-keyboard-response",99,91208,"0.0-3.29-1.29","vyhe9ps38qy4qdp",662,"195.csv","","null","resources/maskTrios/BT2B.jpg","null","",NA,NA,NA,NA,""
"image-keyboard-response",100,92413,"0.0-3.29-2.29","vyhe9ps38qy4qdp",662,"195.csv","","null","resources/images/coin2.png","null","",NA,NA,NA,NA,""
"image-keyboard-response",101,92674,"0.0-3.30-0.30","vyhe9ps38qy4qdp",662,"195.csv","","259","resources/trios/L4T2A3.jpg","38","restless",0.7,0.6,0.8,0.308030201964191,"true"
"image-keyboard-response",102,93089,"0.0-3.30-1.30","vyhe9ps38qy4qdp",662,"195.csv","","null","resources/maskTrios/BT2B.jpg","null","",NA,NA,NA,NA,""
"image-keyboard-response",103,94294,"0.0-3.30-2.30","vyhe9ps38qy4qdp",662,"195.csv","","null","resources/images/coin2.png","null","",NA,NA,NA,NA,""
"image-keyboard-response",104,94762,"0.0-3.31-0.31","vyhe9ps38qy4qdp",662,"195.csv","","465.80000001192093","resources/trios/L1T2A3.jpg","37","restless",0.7,0.6,0.8,0.248148496269839,"true"
"image-keyboard-response",105,95174,"0.0-3.31-1.31","vyhe9ps38qy4qdp",662,"195.csv","","null","resources/maskTrios/L1BB.jpg","null","",NA,NA,NA,NA,""
"image-keyboard-response",106,96380,"0.0-3.31-2.31","vyhe9ps38qy4qdp",662,"195.csv","","null","resources/images/coin2.png","null","",NA,NA,NA,NA,""
"image-keyboard-response",107,96632,"0.0-3.32-0.32","vyhe9ps38qy4qdp",662,"195.csv","","250.0999999642372","resources/trios/L4T4A3.jpg","38","restless",0.7,0.6,0.8,0.409574581464968,"true"
"image-keyboard-response",108,97041,"0.0-3.32-1.32","vyhe9ps38qy4qdp",662,"195.csv","","null","resources/maskTrios/BT4B.jpg","null","",NA,NA,NA,NA,""
"image-keyboard-response",109,98247,"0.0-3.32-2.32","vyhe9ps38qy4qdp",662,"195.csv","","null","resources/images/coin2.png","null","",NA,NA,NA,NA,""
"image-keyboard-response",110,98251,"0.0-3.33-0.33","vyhe9ps38qy4qdp",662,"195.csv","","2.100000023841858","resources/trios/L4T4A2.jpg","38","restless",0.7,0.6,0.8,0.10042769396035,"true"
"image-keyboard-response",111,98664,"0.0-3.33-1.33","vyhe9ps38qy4qdp",662,"195.csv","","null","resources/maskTrios/BT4B.jpg","null","",NA,NA,NA,NA,""
"image-keyboard-response",112,99869,"0.0-3.33-2.33","vyhe9ps38qy4qdp",662,"195.csv","","null","resources/images/coin2.png","null","",NA,NA,NA,NA,""
"image-keyboard-response",113,100034,"0.0-3.34-0.34","vyhe9ps38qy4qdp",662,"195.csv","","162.80000001192093","resources/trios/L1T4A2.jpg","37","restless",0.7,0.6,0.8,0.742519482587064,"false"
"image-keyboard-response",114,100447,"0.0-3.34-1.34","vyhe9ps38qy4qdp",662,"195.csv","","null","resources/maskTrios/L1BB.jpg","null","",NA,NA,NA,NA,""
"image-keyboard-response",115,101654,"0.0-3.34-2.34","vyhe9ps38qy4qdp",662,"195.csv","","null","resources/images/fishbone.png","null","",NA,NA,NA,NA,""
"image-keyboard-response",116,101960,"0.0-3.35-0.35","vyhe9ps38qy4qdp",662,"195.csv","","303.4000000357628","resources/trios/L1T4A2.jpg","38","restless",0.7,0.6,0.8,0.668854525001039,"false"
"image-keyboard-response",117,102367,"0.0-3.35-1.35","vyhe9ps38qy4qdp",662,"195.csv","","null","resources/maskTrios/BT4B.jpg","null","",NA,NA,NA,NA,""
"image-keyboard-response",118,103574,"0.0-3.35-2.35","vyhe9ps38qy4qdp",662,"195.csv","","null","resources/images/fishbone.png","null","",NA,NA,NA,NA,""
"image-keyboard-response",119,103588,"0.0-3.36-0.36","vyhe9ps38qy4qdp",662,"195.csv","","12.100000023841858","resources/trios/L1T4A2.jpg","37","restless",0.7,0.6,0.8,0.221161952410385,"true"
"image-keyboard-response",120,103997,"0.0-3.36-1.36","vyhe9ps38qy4qdp",662,"195.csv","","null","resources/maskTrios/L1BB.jpg","null","",NA,NA,NA,NA,""
"image-keyboard-response",121,105207,"0.0-3.36-2.36","vyhe9ps38qy4qdp",662,"195.csv","","null","resources/images/coin2.png","null","",NA,NA,NA,NA,""
"image-keyboard-response",122,105489,"0.0-3.37-0.37","vyhe9ps38qy4qdp",662,"195.csv","","279.4000000357628","resources/trios/L4T4A2.jpg","38","restless",0.7,0.5,0.9,0.158018098958882,"true"
"image-keyboard-response",123,105892,"0.0-3.37-1.37","vyhe9ps38qy4qdp",662,"195.csv","","null","resources/maskTrios/BT4B.jpg","null","",NA,NA,NA,NA,""
"image-keyboard-response",124,107104,"0.0-3.37-2.37","vyhe9ps38qy4qdp",662,"195.csv","","null","resources/images/coin2.png","null","",NA,NA,NA,NA,""
"image-keyboard-response",125,107853,"0.0-3.38-0.38","vyhe9ps38qy4qdp",662,"195.csv","","746.5","resources/trios/L1T2A2.jpg","38","restless",0.7,0.5,0.9,0.76947483883955,"false"
"image-keyboard-response",126,108263,"0.0-3.38-1.38","vyhe9ps38qy4qdp",662,"195.csv","","null","resources/maskTrios/BT2B.jpg","null","",NA,NA,NA,NA,""
"image-keyboard-response",127,109470,"0.0-3.38-2.38","vyhe9ps38qy4qdp",662,"195.csv","","null","resources/images/fishbone.png","null","",NA,NA,NA,NA,""
"image-keyboard-response",128,109779,"0.0-3.39-0.39","vyhe9ps38qy4qdp",662,"195.csv","","306.4000000357628","resources/trios/L1T2A2.jpg","39","restless",0.7,0.5,0.9,0.299232449310657,"true"
"image-keyboard-response",129,110190,"0.0-3.39-1.39","vyhe9ps38qy4qdp",662,"195.csv","","null","resources/maskTrios/BBA2.jpg","null","",NA,NA,NA,NA,""
"image-keyboard-response",130,111398,"0.0-3.39-2.39","vyhe9ps38qy4qdp",662,"195.csv","","null","resources/images/coin2.png","null","",NA,NA,NA,NA,""
"image-keyboard-response",131,111698,"0.0-3.40-0.40","vyhe9ps38qy4qdp",662,"195.csv","","297.30000001192093","resources/trios/L4T2A3.jpg","39","restless",0.7,0.5,0.8,0.916887427989301,"false"
"image-keyboard-response",132,112104,"0.0-3.40-1.40","vyhe9ps38qy4qdp",662,"195.csv","","null","resources/maskTrios/BBA3.jpg","null","",NA,NA,NA,NA,""
"image-keyboard-response",133,113308,"0.0-3.40-2.40","vyhe9ps38qy4qdp",662,"195.csv","","null","resources/images/fishbone.png","null","",NA,NA,NA,NA,""
"image-keyboard-response",134,113595,"0.0-3.41-0.41","vyhe9ps38qy4qdp",662,"195.csv","","284.69999998807907","resources/trios/L1T2A3.jpg","37","restless",0.7,0.5,0.8,0.416093058168882,"true"
"image-keyboard-response",135,114007,"0.0-3.41-1.41","vyhe9ps38qy4qdp",662,"195.csv","","null","resources/maskTrios/L1BB.jpg","null","",NA,NA,NA,NA,""
"image-keyboard-response",136,115213,"0.0-3.41-2.41","vyhe9ps38qy4qdp",662,"195.csv","","null","resources/images/coin2.png","null","",NA,NA,NA,NA,""
"image-keyboard-response",137,115774,"0.0-3.42-0.42","vyhe9ps38qy4qdp",662,"195.csv","","558.8999999761581","resources/trios/L1T4A2.jpg","38","restless",0.7,0.5,0.8,0.108750706638452,"true"
"image-keyboard-response",138,116184,"0.0-3.42-1.42","vyhe9ps38qy4qdp",662,"195.csv","","null","resources/maskTrios/BT4B.jpg","null","",NA,NA,NA,NA,""
"image-keyboard-response",139,117391,"0.0-3.42-2.42","vyhe9ps38qy4qdp",662,"195.csv","","null","resources/images/coin2.png","null","",NA,NA,NA,NA,""
"image-keyboard-response",140,117763,"0.0-3.43-0.43","vyhe9ps38qy4qdp",662,"195.csv","","370.5","resources/trios/L4T2A3.jpg","38","restless",0.7,0.5,0.8,0.277337411844423,"true"
"image-keyboard-response",141,118173,"0.0-3.43-1.43","vyhe9ps38qy4qdp",662,"195.csv","","null","resources/maskTrios/BT2B.jpg","null","",NA,NA,NA,NA,""
"image-keyboard-response",142,119383,"0.0-3.43-2.43","vyhe9ps38qy4qdp",662,"195.csv","","null","resources/images/coin2.png","null","",NA,NA,NA,NA,""
"image-keyboard-response",143,119662,"0.0-3.44-0.44","vyhe9ps38qy4qdp",662,"195.csv","","276.60000002384186","resources/trios/L4T2A3.jpg","38","restless",0.7,0.4,0.8,0.766333475090891,"false"
"image-keyboard-response",144,120068,"0.0-3.44-1.44","vyhe9ps38qy4qdp",662,"195.csv","","null","resources/maskTrios/BT2B.jpg","null","",NA,NA,NA,NA,""
"image-keyboard-response",145,121279,"0.0-3.44-2.44","vyhe9ps38qy4qdp",662,"195.csv","","null","resources/images/fishbone.png","null","",NA,NA,NA,NA,""
"image-keyboard-response",146,121527,"0.0-3.45-0.45","vyhe9ps38qy4qdp",662,"195.csv","","245.80000001192093","resources/trios/L1T2A3.jpg","38","restless",0.7,0.4,0.8,0.934129618223106,"false"
"image-keyboard-response",147,121936,"0.0-3.45-1.45","vyhe9ps38qy4qdp",662,"195.csv","","null","resources/maskTrios/BT2B.jpg","null","",NA,NA,NA,NA,""
"image-keyboard-response",148,123142,"0.0-3.45-2.45","vyhe9ps38qy4qdp",662,"195.csv","","null","resources/images/fishbone.png","null","",NA,NA,NA,NA,""
"image-keyboard-response",149,123385,"0.0-3.46-0.46","vyhe9ps38qy4qdp",662,"195.csv","","240.5999999642372","resources/trios/L1T4A2.jpg","37","restless",0.7,0.4,0.8,0.418638697162431,"true"
"image-keyboard-response",150,123789,"0.0-3.46-1.46","vyhe9ps38qy4qdp",662,"195.csv","","null","resources/maskTrios/L1BB.jpg","null","",NA,NA,NA,NA,""
"image-keyboard-response",151,124996,"0.0-3.46-2.46","vyhe9ps38qy4qdp",662,"195.csv","","null","resources/images/coin2.png","null","",NA,NA,NA,NA,""
"image-keyboard-response",152,125271,"0.0-3.47-0.47","vyhe9ps38qy4qdp",662,"195.csv","","273.30000001192093","resources/trios/L4T4A2.jpg","37","restless",0.7,0.4,0.8,0.898572730521617,"false"
"image-keyboard-response",153,125679,"0.0-3.47-1.47","vyhe9ps38qy4qdp",662,"195.csv","","null","resources/maskTrios/L4BB.jpg","null","",NA,NA,NA,NA,""
"image-keyboard-response",154,126887,"0.0-3.47-2.47","vyhe9ps38qy4qdp",662,"195.csv","","null","resources/images/fishbone.png","null","",NA,NA,NA,NA,""
"image-keyboard-response",155,127026,"0.0-3.48-0.48","vyhe9ps38qy4qdp",662,"195.csv","","136.89999997615814","resources/trios/L1T4A2.jpg","38","restless",0.7,0.4,0.8,0.421298970072333,"false"
"image-keyboard-response",156,127439,"0.0-3.48-1.48","vyhe9ps38qy4qdp",662,"195.csv","","null","resources/maskTrios/BT4B.jpg","null","",NA,NA,NA,NA,""
"image-keyboard-response",157,128645,"0.0-3.48-2.48","vyhe9ps38qy4qdp",662,"195.csv","","null","resources/images/fishbone.png","null","",NA,NA,NA,NA,""
"image-keyboard-response",158,128940,"0.0-3.49-0.49","vyhe9ps38qy4qdp",662,"195.csv","","293.5999999642372","resources/trios/L4T4A3.jpg","39","restless",0.7,0.4,0.8,0.22421950801544,"true"
"image-keyboard-response",159,129352,"0.0-3.49-1.49","vyhe9ps38qy4qdp",662,"195.csv","","null","resources/maskTrios/BBA3.jpg","null","",NA,NA,NA,NA,""
"image-keyboard-response",160,130556,"0.0-3.49-2.49","vyhe9ps38qy4qdp",662,"195.csv","","null","resources/images/coin2.png","null","",NA,NA,NA,NA,""
"image-keyboard-response",161,130875,"0.0-3.50-0.50","vyhe9ps38qy4qdp",662,"195.csv","","316.89999997615814","resources/trios/L1T4A2.jpg","38","restless",0.7,0.4,0.8,0.727993605767388,"false"
"image-keyboard-response",162,131288,"0.0-3.50-1.50","vyhe9ps38qy4qdp",662,"195.csv","","null","resources/maskTrios/BT4B.jpg","null","",NA,NA,NA,NA,""
"image-keyboard-response",163,132495,"0.0-3.50-2.50","vyhe9ps38qy4qdp",662,"195.csv","","null","resources/images/fishbone.png","null","",NA,NA,NA,NA,""
"image-keyboard-response",164,132680,"0.0-3.51-0.51","vyhe9ps38qy4qdp",662,"195.csv","","184.19999998807907","resources/trios/L1T2A3.jpg","37","restless",0.7,0.4,0.8,0.121646243261748,"true"
"image-keyboard-response",165,133088,"0.0-3.51-1.51","vyhe9ps38qy4qdp",662,"195.csv","","null","resources/maskTrios/L1BB.jpg","null","",NA,NA,NA,NA,""
"image-keyboard-response",166,134295,"0.0-3.51-2.51","vyhe9ps38qy4qdp",662,"195.csv","","null","resources/images/coin2.png","null","",NA,NA,NA,NA,""
"image-keyboard-response",167,134617,"0.0-3.52-0.52","vyhe9ps38qy4qdp",662,"195.csv","","319.0999999642372","resources/trios/L4T4A2.jpg","37","restless",0.7,0.4,0.8,0.0130168417007617,"true"
"image-keyboard-response",168,135022,"0.0-3.52-1.52","vyhe9ps38qy4qdp",662,"195.csv","","null","resources/maskTrios/L4BB.jpg","null","",NA,NA,NA,NA,""
"image-keyboard-response",169,136228,"0.0-3.52-2.52","vyhe9ps38qy4qdp",662,"195.csv","","null","resources/images/coin2.png","null","",NA,NA,NA,NA,""
"image-keyboard-response",170,136490,"0.0-3.53-0.53","vyhe9ps38qy4qdp",662,"195.csv","","259.60000002384186","resources/trios/L4T4A2.jpg","39","restless",0.7,0.4,0.8,0.897502667442181,"false"
"image-keyboard-response",171,136900,"0.0-3.53-1.53","vyhe9ps38qy4qdp",662,"195.csv","","null","resources/maskTrios/BBA2.jpg","null","",NA,NA,NA,NA,""
"image-keyboard-response",172,138112,"0.0-3.53-2.53","vyhe9ps38qy4qdp",662,"195.csv","","null","resources/images/fishbone.png","null","",NA,NA,NA,NA,""
"image-keyboard-response",173,138403,"0.0-3.54-0.54","vyhe9ps38qy4qdp",662,"195.csv","","289.4000000357628","resources/trios/L1T2A2.jpg","37","restless",0.7,0.4,0.8,0.420064177070596,"true"
"image-keyboard-response",174,138813,"0.0-3.54-1.54","vyhe9ps38qy4qdp",662,"195.csv","","null","resources/maskTrios/L1BB.jpg","null","",NA,NA,NA,NA,""
"image-keyboard-response",175,140022,"0.0-3.54-2.54","vyhe9ps38qy4qdp",662,"195.csv","","null","resources/images/coin2.png","null","",NA,NA,NA,NA,""
"image-keyboard-response",176,140291,"0.0-3.55-0.55","vyhe9ps38qy4qdp",662,"195.csv","","267.39999997615814","resources/trios/L4T4A3.jpg","37","restless",0.8,0.4,0.8,0.113439880260063,"true"
"image-keyboard-response",177,140700,"0.0-3.55-1.55","vyhe9ps38qy4qdp",662,"195.csv","","null","resources/maskTrios/L4BB.jpg","null","",NA,NA,NA,NA,""
"image-keyboard-response",178,141911,"0.0-3.55-2.55","vyhe9ps38qy4qdp",662,"195.csv","","null","resources/images/coin2.png","null","",NA,NA,NA,NA,""
"image-keyboard-response",179,142236,"0.0-3.56-0.56","vyhe9ps38qy4qdp",662,"195.csv","","322.60000002384186","resources/trios/L1T4A2.jpg","37","restless",0.7,0.4,0.8,0.0556756768762703,"true"
"image-keyboard-response",180,142645,"0.0-3.56-1.56","vyhe9ps38qy4qdp",662,"195.csv","","null","resources/maskTrios/L1BB.jpg","null","",NA,NA,NA,NA,""
"image-keyboard-response",181,143855,"0.0-3.56-2.56","vyhe9ps38qy4qdp",662,"195.csv","","null","resources/images/coin2.png","null","",NA,NA,NA,NA,""
"image-keyboard-response",182,144201,"0.0-3.57-0.57","vyhe9ps38qy4qdp",662,"195.csv","","343.5","resources/trios/L1T4A3.jpg","37","restless",0.7,0.4,0.8,0.716532216493093,"false"
"image-keyboard-response",183,144605,"0.0-3.57-1.57","vyhe9ps38qy4qdp",662,"195.csv","","null","resources/maskTrios/L1BB.jpg","null","",NA,NA,NA,NA,""
"image-keyboard-response",184,145813,"0.0-3.57-2.57","vyhe9ps38qy4qdp",662,"195.csv","","null","resources/images/fishbone.png","null","",NA,NA,NA,NA,""
"image-keyboard-response",185,146064,"0.0-3.58-0.58","vyhe9ps38qy4qdp",662,"195.csv","","248.60000002384186","resources/trios/L1T4A3.jpg","38","restless",0.7,0.4,0.8,0.539523050487724,"false"
"image-keyboard-response",186,146472,"0.0-3.58-1.58","vyhe9ps38qy4qdp",662,"195.csv","","null","resources/maskTrios/BT4B.jpg","null","",NA,NA,NA,NA,""
"image-keyboard-response",187,147678,"0.0-3.58-2.58","vyhe9ps38qy4qdp",662,"195.csv","","null","resources/images/fishbone.png","null","",NA,NA,NA,NA,""
"image-keyboard-response",188,147887,"0.0-3.59-0.59","vyhe9ps38qy4qdp",662,"195.csv","","206.39999997615814","resources/trios/L1T4A3.jpg","37","restless",0.7,0.4,0.8,0.541424671823496,"true"
"image-keyboard-response",189,148294,"0.0-3.59-1.59","vyhe9ps38qy4qdp",662,"195.csv","","null","resources/maskTrios/L1BB.jpg","null","",NA,NA,NA,NA,""
"image-keyboard-response",190,149500,"0.0-3.59-2.59","vyhe9ps38qy4qdp",662,"195.csv","","null","resources/images/coin2.png","null","",NA,NA,NA,NA,""
"image-keyboard-response",191,149752,"0.0-3.60-0.60","vyhe9ps38qy4qdp",662,"195.csv","","250.30000001192093","resources/trios/L1T4A2.jpg","37","restless",0.7,0.4,0.8,0.377114596405661,"true"
"image-keyboard-response",192,150160,"0.0-3.60-1.60","vyhe9ps38qy4qdp",662,"195.csv","","null","resources/maskTrios/L1BB.jpg","null","",NA,NA,NA,NA,""
"image-keyboard-response",193,151364,"0.0-3.60-2.60","vyhe9ps38qy4qdp",662,"195.csv","","null","resources/images/coin2.png","null","",NA,NA,NA,NA,""
"image-keyboard-response",194,151593,"0.0-3.61-0.61","vyhe9ps38qy4qdp",662,"195.csv","","227.30000001192093","resources/trios/L4T2A3.jpg","38","restless",0.7,0.4,0.8,0.379720875604308,"true"
"image-keyboard-response",195,151996,"0.0-3.61-1.61","vyhe9ps38qy4qdp",662,"195.csv","","null","resources/maskTrios/BT2B.jpg","null","",NA,NA,NA,NA,""
"image-keyboard-response",196,153205,"0.0-3.61-2.61","vyhe9ps38qy4qdp",662,"195.csv","","null","resources/images/coin2.png","null","",NA,NA,NA,NA,""
"image-keyboard-response",197,153487,"0.0-3.62-0.62","vyhe9ps38qy4qdp",662,"195.csv","","280.2000000476837","resources/trios/L4T4A2.jpg","37","restless",0.7,0.4,0.8,0.54071761134715,"true"
"image-keyboard-response",198,153894,"0.0-3.62-1.62","vyhe9ps38qy4qdp",662,"195.csv","","null","resources/maskTrios/L4BB.jpg","null","",NA,NA,NA,NA,""
"image-keyboard-response",199,155104,"0.0-3.62-2.62","vyhe9ps38qy4qdp",662,"195.csv","","null","resources/images/coin2.png","null","",NA,NA,NA,NA,""
"image-keyboard-response",200,155392,"0.0-3.63-0.63","vyhe9ps38qy4qdp",662,"195.csv","","285.30000001192093","resources/trios/L4T2A2.jpg","37","restless",0.6,0.4,0.8,0.221828348912027,"true"
"image-keyboard-response",201,155800,"0.0-3.63-1.63","vyhe9ps38qy4qdp",662,"195.csv","","null","resources/maskTrios/L4BB.jpg","null","",NA,NA,NA,NA,""
"image-keyboard-response",202,157005,"0.0-3.63-2.63","vyhe9ps38qy4qdp",662,"195.csv","","null","resources/images/coin2.png","null","",NA,NA,NA,NA,""
"image-keyboard-response",203,157285,"0.0-3.64-0.64","vyhe9ps38qy4qdp",662,"195.csv","","278.19999998807907","resources/trios/L4T2A3.jpg","37","restless",0.6,0.4,0.8,0.285374394405178,"true"
"image-keyboard-response",204,157694,"0.0-3.64-1.64","vyhe9ps38qy4qdp",662,"195.csv","","null","resources/maskTrios/L4BB.jpg","null","",NA,NA,NA,NA,""
"image-keyboard-response",205,158902,"0.0-3.64-2.64","vyhe9ps38qy4qdp",662,"195.csv","","null","resources/images/coin2.png","null","",NA,NA,NA,NA,""
"image-keyboard-response",206,159140,"0.0-3.65-0.65","vyhe9ps38qy4qdp",662,"195.csv","","236.30000001192093","resources/trios/L4T4A3.jpg","38","restless",0.5,0.4,0.8,0.30132398029594,"true"
"image-keyboard-response",207,159550,"0.0-3.65-1.65","vyhe9ps38qy4qdp",662,"195.csv","","null","resources/maskTrios/BT4B.jpg","null","",NA,NA,NA,NA,""
"image-keyboard-response",208,160756,"0.0-3.65-2.65","vyhe9ps38qy4qdp",662,"195.csv","","null","resources/images/coin2.png","null","",NA,NA,NA,NA,""
"image-keyboard-response",209,161040,"0.0-3.66-0.66","vyhe9ps38qy4qdp",662,"195.csv","","281.69999998807907","resources/trios/L4T4A2.jpg","37","restless",0.5,0.4,0.8,0.872866321107875,"false"
"image-keyboard-response",210,161444,"0.0-3.66-1.66","vyhe9ps38qy4qdp",662,"195.csv","","null","resources/maskTrios/L4BB.jpg","null","",NA,NA,NA,NA,""
"image-keyboard-response",211,162654,"0.0-3.66-2.66","vyhe9ps38qy4qdp",662,"195.csv","","null","resources/images/fishbone.png","null","",NA,NA,NA,NA,""
"image-keyboard-response",212,162951,"0.0-3.67-0.67","vyhe9ps38qy4qdp",662,"195.csv","","294.69999998807907","resources/trios/L4T2A2.jpg","38","restless",0.5,0.4,0.8,0.38118959893845,"true"
"image-keyboard-response",213,163360,"0.0-3.67-1.67","vyhe9ps38qy4qdp",662,"195.csv","","null","resources/maskTrios/BT2B.jpg","null","",NA,NA,NA,NA,""
"image-keyboard-response",214,164568,"0.0-3.67-2.67","vyhe9ps38qy4qdp",662,"195.csv","","null","resources/images/coin2.png","null","",NA,NA,NA,NA,""
"image-keyboard-response",215,164848,"0.0-3.68-0.68","vyhe9ps38qy4qdp",662,"195.csv","","278.39999997615814","resources/trios/L1T2A3.jpg","38","restless",0.4,0.4,0.8,0.000310479270878794,"true"
"image-keyboard-response",216,165254,"0.0-3.68-1.68","vyhe9ps38qy4qdp",662,"195.csv","","null","resources/maskTrios/BT2B.jpg","null","",NA,NA,NA,NA,""
"image-keyboard-response",217,166462,"0.0-3.68-2.68","vyhe9ps38qy4qdp",662,"195.csv","","null","resources/images/coin2.png","null","",NA,NA,NA,NA,""
"image-keyboard-response",218,166742,"0.0-3.69-0.69","vyhe9ps38qy4qdp",662,"195.csv","","277.5999999642372","resources/trios/L1T2A3.jpg","37","restless",0.4,0.4,0.8,0.0619872928961609,"true"
"image-keyboard-response",219,167152,"0.0-3.69-1.69","vyhe9ps38qy4qdp",662,"195.csv","","null","resources/maskTrios/L1BB.jpg","null","",NA,NA,NA,NA,""
"image-keyboard-response",220,168360,"0.0-3.69-2.69","vyhe9ps38qy4qdp",662,"195.csv","","null","resources/images/coin2.png","null","",NA,NA,NA,NA,""
"image-keyboard-response",221,168617,"0.0-3.70-0.70","vyhe9ps38qy4qdp",662,"195.csv","","254.89999997615814","resources/trios/L4T2A3.jpg","38","restless",0.4,0.4,0.8,0.916579662464359,"false"
"image-keyboard-response",222,169032,"0.0-3.70-1.70","vyhe9ps38qy4qdp",662,"195.csv","","null","resources/maskTrios/BT2B.jpg","null","",NA,NA,NA,NA,""
"image-keyboard-response",223,170240,"0.0-3.70-2.70","vyhe9ps38qy4qdp",662,"195.csv","","null","resources/images/fishbone.png","null","",NA,NA,NA,NA,""
"image-keyboard-response",224,170596,"0.0-3.71-0.71","vyhe9ps38qy4qdp",662,"195.csv","","354.10000002384186","resources/trios/L4T2A3.jpg","39","restless",0.4,0.5,0.8,0.0364665364989791,"true"
"image-keyboard-response",225,171004,"0.0-3.71-1.71","vyhe9ps38qy4qdp",662,"195.csv","","null","resources/maskTrios/BBA3.jpg","null","",NA,NA,NA,NA,""
"image-keyboard-response",226,172212,"0.0-3.71-2.71","vyhe9ps38qy4qdp",662,"195.csv","","null","resources/images/coin2.png","null","",NA,NA,NA,NA,""
"image-keyboard-response",227,172480,"0.0-3.72-0.72","vyhe9ps38qy4qdp",662,"195.csv","","266.19999998807907","resources/trios/L1T4A3.jpg","39","restless",0.4,0.5,0.8,0.728295669507112,"true"
"image-keyboard-response",228,172887,"0.0-3.72-1.72","vyhe9ps38qy4qdp",662,"195.csv","","null","resources/maskTrios/BBA3.jpg","null","",NA,NA,NA,NA,""
"image-keyboard-response",229,174093,"0.0-3.72-2.72","vyhe9ps38qy4qdp",662,"195.csv","","null","resources/images/coin2.png","null","",NA,NA,NA,NA,""
"image-keyboard-response",230,175124,"0.0-3.73-0.73","vyhe9ps38qy4qdp",662,"195.csv","","1029.7000000476837","resources/trios/L4T4A3.jpg","38","restless",0.4,0.5,0.8,0.548764104023061,"false"
"image-keyboard-response",231,175536,"0.0-3.73-1.73","vyhe9ps38qy4qdp",662,"195.csv","","null","resources/maskTrios/BT4B.jpg","null","",NA,NA,NA,NA,""
"image-keyboard-response",232,176743,"0.0-3.73-2.73","vyhe9ps38qy4qdp",662,"195.csv","","null","resources/images/fishbone.png","null","",NA,NA,NA,NA,""
"image-keyboard-response",233,177152,"0.0-3.74-0.74","vyhe9ps38qy4qdp",662,"195.csv","","407.4000000357628","resources/trios/L4T4A2.jpg","37","restless",0.3,0.4,0.8,0.853046856883259,"false"
"image-keyboard-response",234,177559,"0.0-3.74-1.74","vyhe9ps38qy4qdp",662,"195.csv","","null","resources/maskTrios/L4BB.jpg","null","",NA,NA,NA,NA,""
"image-keyboard-response",235,178768,"0.0-3.74-2.74","vyhe9ps38qy4qdp",662,"195.csv","","null","resources/images/fishbone.png","null","",NA,NA,NA,NA,""
"image-keyboard-response",236,178960,"0.0-3.75-0.75","vyhe9ps38qy4qdp",662,"195.csv","","189.39999997615814","resources/trios/L4T2A3.jpg","38","restless",0.3,0.4,0.7,0.22962575633862,"true"
"image-keyboard-response",237,179364,"0.0-3.75-1.75","vyhe9ps38qy4qdp",662,"195.csv","","null","resources/maskTrios/BT2B.jpg","null","",NA,NA,NA,NA,""
"image-keyboard-response",238,180571,"0.0-3.75-2.75","vyhe9ps38qy4qdp",662,"195.csv","","null","resources/images/coin2.png","null","",NA,NA,NA,NA,""
"image-keyboard-response",239,180675,"0.0-3.76-0.76","vyhe9ps38qy4qdp",662,"195.csv","","102.60000002384186","resources/trios/L1T2A2.jpg","38","restless",0.4,0.4,0.7,0.10424185788027,"true"
"image-keyboard-response",240,181087,"0.0-3.76-1.76","vyhe9ps38qy4qdp",662,"195.csv","","null","resources/maskTrios/BT2B.jpg","null","",NA,NA,NA,NA,""
"image-keyboard-response",241,182293,"0.0-3.76-2.76","vyhe9ps38qy4qdp",662,"195.csv","","null","resources/images/coin2.png","null","",NA,NA,NA,NA,""
"image-keyboard-response",242,182508,"0.0-3.77-0.77","vyhe9ps38qy4qdp",662,"195.csv","","213.4000000357628","resources/trios/L1T2A3.jpg","37","restless",0.4,0.4,0.6,0.919767494873637,"false"
"image-keyboard-response",243,182920,"0.0-3.77-1.77","vyhe9ps38qy4qdp",662,"195.csv","","null","resources/maskTrios/L1BB.jpg","null","",NA,NA,NA,NA,""
"image-keyboard-response",244,184125,"0.0-3.77-2.77","vyhe9ps38qy4qdp",662,"195.csv","","null","resources/images/fishbone.png","null","",NA,NA,NA,NA,""
"image-keyboard-response",245,184327,"0.0-3.78-0.78","vyhe9ps38qy4qdp",662,"195.csv","","200.30000001192093","resources/trios/L4T4A3.jpg","38","restless",0.4,0.4,0.6,0.695482684369222,"false"
"image-keyboard-response",246,184733,"0.0-3.78-1.78","vyhe9ps38qy4qdp",662,"195.csv","","null","resources/maskTrios/BT4B.jpg","null","",NA,NA,NA,NA,""
"image-keyboard-response",247,185943,"0.0-3.78-2.78","vyhe9ps38qy4qdp",662,"195.csv","","null","resources/images/fishbone.png","null","",NA,NA,NA,NA,""
"image-keyboard-response",248,185970,"0.0-3.79-0.79","vyhe9ps38qy4qdp",662,"195.csv","","26.299999952316284","resources/trios/L4T2A2.jpg","39","restless",0.4,0.4,0.6,0.0157995273241471,"true"
"image-keyboard-response",249,186384,"0.0-3.79-1.79","vyhe9ps38qy4qdp",662,"195.csv","","null","resources/maskTrios/BBA2.jpg","null","",NA,NA,NA,NA,""
"image-keyboard-response",250,187592,"0.0-3.79-2.79","vyhe9ps38qy4qdp",662,"195.csv","","null","resources/images/coin2.png","null","",NA,NA,NA,NA,""
"image-keyboard-response",251,187710,"0.0-3.80-0.80","vyhe9ps38qy4qdp",662,"195.csv","","116.09999996423721","resources/trios/L4T4A2.jpg","39","restless",0.4,0.4,0.6,0.669259466849205,"false"
"image-keyboard-response",252,188120,"0.0-3.80-1.80","vyhe9ps38qy4qdp",662,"195.csv","","null","resources/maskTrios/BBA2.jpg","null","",NA,NA,NA,NA,""
"image-keyboard-response",253,189326,"0.0-3.80-2.80","vyhe9ps38qy4qdp",662,"195.csv","","null","resources/images/fishbone.png","null","",NA,NA,NA,NA,""
"image-keyboard-response",254,189627,"0.0-3.81-0.81","vyhe9ps38qy4qdp",662,"195.csv","","298.5","resources/trios/L1T4A2.jpg","38","restless",0.4,0.4,0.6,0.295999116604175,"true"
"image-keyboard-response",255,190036,"0.0-3.81-1.81","vyhe9ps38qy4qdp",662,"195.csv","","null","resources/maskTrios/BT4B.jpg","null","",NA,NA,NA,NA,""
"image-keyboard-response",256,191243,"0.0-3.81-2.81","vyhe9ps38qy4qdp",662,"195.csv","","null","resources/images/coin2.png","null","",NA,NA,NA,NA,""
"image-keyboard-response",257,191470,"0.0-3.82-0.82","vyhe9ps38qy4qdp",662,"195.csv","","224.5","resources/trios/L1T4A2.jpg","38","restless",0.3,0.4,0.6,0.0965357080912594,"true"
"image-keyboard-response",258,191875,"0.0-3.82-1.82","vyhe9ps38qy4qdp",662,"195.csv","","null","resources/maskTrios/BT4B.jpg","null","",NA,NA,NA,NA,""
"image-keyboard-response",259,193086,"0.0-3.82-2.82","vyhe9ps38qy4qdp",662,"195.csv","","null","resources/images/coin2.png","null","",NA,NA,NA,NA,""
"image-keyboard-response",260,193664,"0.0-3.83-0.83","vyhe9ps38qy4qdp",662,"195.csv","","575.6999999880791","resources/trios/L4T2A3.jpg","38","restless",0.3,0.4,0.6,0.419011468077641,"false"
"image-keyboard-response",261,194069,"0.0-3.83-1.83","vyhe9ps38qy4qdp",662,"195.csv","","null","resources/maskTrios/BT2B.jpg","null","",NA,NA,NA,NA,""
"image-keyboard-response",262,195276,"0.0-3.83-2.83","vyhe9ps38qy4qdp",662,"195.csv","","null","resources/images/fishbone.png","null","",NA,NA,NA,NA,""
"image-keyboard-response",263,195388,"0.0-3.84-0.84","vyhe9ps38qy4qdp",662,"195.csv","","110.39999997615814","resources/trios/L4T2A3.jpg","37","restless",0.3,0.4,0.6,0.436634425560922,"false"
"image-keyboard-response",264,195800,"0.0-3.84-1.84","vyhe9ps38qy4qdp",662,"195.csv","","null","resources/maskTrios/L4BB.jpg","null","",NA,NA,NA,NA,""
"image-keyboard-response",265,197004,"0.0-3.84-2.84","vyhe9ps38qy4qdp",662,"195.csv","","null","resources/images/fishbone.png","null","",NA,NA,NA,NA,""
"image-keyboard-response",266,197248,"0.0-3.85-0.85","vyhe9ps38qy4qdp",662,"195.csv","","242.10000002384186","resources/trios/L1T4A3.jpg","38","restless",0.3,0.4,0.6,0.567087018975717,"false"
"image-keyboard-response",267,197652,"0.0-3.85-1.85","vyhe9ps38qy4qdp",662,"195.csv","","null","resources/maskTrios/BT4B.jpg","null","",NA,NA,NA,NA,""
"image-keyboard-response",268,198862,"0.0-3.85-2.85","vyhe9ps38qy4qdp",662,"195.csv","","null","resources/images/fishbone.png","null","",NA,NA,NA,NA,""
"image-keyboard-response",269,198964,"0.0-3.86-0.86","vyhe9ps38qy4qdp",662,"195.csv","","100.19999998807907","resources/trios/L4T2A3.jpg","38","restless",0.3,0.4,0.6,0.391842531880825,"true"
"image-keyboard-response",270,199375,"0.0-3.86-1.86","vyhe9ps38qy4qdp",662,"195.csv","","null","resources/maskTrios/BT2B.jpg","null","",NA,NA,NA,NA,""
"image-keyboard-response",271,200580,"0.0-3.86-2.86","vyhe9ps38qy4qdp",662,"195.csv","","null","resources/images/coin2.png","null","",NA,NA,NA,NA,""
"image-keyboard-response",272,201343,"0.0-3.87-0.87","vyhe9ps38qy4qdp",662,"195.csv","","761.1000000238419","resources/trios/L4T2A2.jpg","38","restless",0.3,0.4,0.6,0.831659330148227,"false"
"image-keyboard-response",273,201748,"0.0-3.87-1.87","vyhe9ps38qy4qdp",662,"195.csv","","null","resources/maskTrios/BT2B.jpg","null","",NA,NA,NA,NA,""
"image-keyboard-response",274,202959,"0.0-3.87-2.87","vyhe9ps38qy4qdp",662,"195.csv","","null","resources/images/fishbone.png","null","",NA,NA,NA,NA,""
"image-keyboard-response",275,204840,"0.0-3.88-0.88","vyhe9ps38qy4qdp",662,"195.csv","","1879.3999999761581","resources/trios/L1T2A3.jpg","38","restless",0.3,0.4,0.6,0.567513855123388,"false"
"image-keyboard-response",276,205248,"0.0-3.88-1.88","vyhe9ps38qy4qdp",662,"195.csv","","null","resources/maskTrios/BT2B.jpg","null","",NA,NA,NA,NA,""
"image-keyboard-response",277,206452,"0.0-3.88-2.88","vyhe9ps38qy4qdp",662,"195.csv","","null","resources/images/fishbone.png","null","",NA,NA,NA,NA,""
"image-keyboard-response",278,207183,"0.0-3.89-0.89","vyhe9ps38qy4qdp",662,"195.csv","","728.1000000238419","resources/trios/L1T4A2.jpg","37","restless",0.3,0.4,0.6,0.823651806255374,"false"
"image-keyboard-response",279,207592,"0.0-3.89-1.89","vyhe9ps38qy4qdp",662,"195.csv","","null","resources/maskTrios/L1BB.jpg","null","",NA,NA,NA,NA,""
"image-keyboard-response",280,208796,"0.0-3.89-2.89","vyhe9ps38qy4qdp",662,"195.csv","","null","resources/images/fishbone.png","null","",NA,NA,NA,NA,""
"image-keyboard-response",281,209528,"0.0-3.90-0.90","vyhe9ps38qy4qdp",662,"195.csv","","729.9000000357628","resources/trios/L4T4A2.jpg","39","restless",0.3,0.4,0.6,0.266159826556358,"true"
"image-keyboard-response",282,209935,"0.0-3.90-1.90","vyhe9ps38qy4qdp",662,"195.csv","","null","resources/maskTrios/BBA2.jpg","null","",NA,NA,NA,NA,""
"image-keyboard-response",283,211141,"0.0-3.90-2.90","vyhe9ps38qy4qdp",662,"195.csv","","null","resources/images/coin2.png","null","",NA,NA,NA,NA,""
"image-keyboard-response",284,211466,"0.0-3.91-0.91","vyhe9ps38qy4qdp",662,"195.csv","","323","resources/trios/L4T4A3.jpg","38","restless",0.3,0.4,0.6,0.371204479880102,"true"
"image-keyboard-response",285,211880,"0.0-3.91-1.91","vyhe9ps38qy4qdp",662,"195.csv","","null","resources/maskTrios/BT4B.jpg","null","",NA,NA,NA,NA,""
"image-keyboard-response",286,213085,"0.0-3.91-2.91","vyhe9ps38qy4qdp",662,"195.csv","","null","resources/images/coin2.png","null","",NA,NA,NA,NA,""
"image-keyboard-response",287,213479,"0.0-3.92-0.92","vyhe9ps38qy4qdp",662,"195.csv","","391.7000000476837","resources/trios/L4T4A3.jpg","37","restless",0.3,0.4,0.6,0.504858140038804,"false"
"image-keyboard-response",288,213887,"0.0-3.92-1.92","vyhe9ps38qy4qdp",662,"195.csv","","null","resources/maskTrios/L4BB.jpg","null","",NA,NA,NA,NA,""
"image-keyboard-response",289,215092,"0.0-3.92-2.92","vyhe9ps38qy4qdp",662,"195.csv","","null","resources/images/fishbone.png","null","",NA,NA,NA,NA,""
"image-keyboard-response",290,215486,"0.0-3.93-0.93","vyhe9ps38qy4qdp",662,"195.csv","","391.5","resources/trios/L4T2A3.jpg","39","restless",0.3,0.4,0.6,0.250131527756663,"true"
"image-keyboard-response",291,215891,"0.0-3.93-1.93","vyhe9ps38qy4qdp",662,"195.csv","","null","resources/maskTrios/BBA3.jpg","null","",NA,NA,NA,NA,""
"image-keyboard-response",292,217102,"0.0-3.93-2.93","vyhe9ps38qy4qdp",662,"195.csv","","null","resources/images/coin2.png","null","",NA,NA,NA,NA,""
"image-keyboard-response",293,226880,"0.0-3.94-0.94","vyhe9ps38qy4qdp",662,"195.csv","","9776.5","resources/trios/L1T2A3.jpg","37","restless",0.3,0.4,0.6,0.606364703892254,"false"
"image-keyboard-response",294,227291,"0.0-3.94-1.94","vyhe9ps38qy4qdp",662,"195.csv","","null","resources/maskTrios/L1BB.jpg","null","",NA,NA,NA,NA,""
"image-keyboard-response",295,228501,"0.0-3.94-2.94","vyhe9ps38qy4qdp",662,"195.csv","","null","resources/images/fishbone.png","null","",NA,NA,NA,NA,""
"image-keyboard-response",296,241417,"0.0-3.95-0.95","vyhe9ps38qy4qdp",662,"195.csv","","12913.699999988079","resources/trios/L4T4A2.jpg","37","restless",0.3,0.3,0.6,0.849175175277559,"false"
"image-keyboard-response",297,241831,"0.0-3.95-1.95","vyhe9ps38qy4qdp",662,"195.csv","","null","resources/maskTrios/L4BB.jpg","null","",NA,NA,NA,NA,""
"image-keyboard-response",298,243039,"0.0-3.95-2.95","vyhe9ps38qy4qdp",662,"195.csv","","null","resources/images/fishbone.png","null","",NA,NA,NA,NA,""
"image-keyboard-response",299,252040,"0.0-3.96-0.96","vyhe9ps38qy4qdp",662,"195.csv","","8999.300000011921","resources/trios/L1T4A2.jpg","39","restless",0.3,0.3,0.6,0.115997993974146,"true"
"image-keyboard-response",300,252455,"0.0-3.96-1.96","vyhe9ps38qy4qdp",662,"195.csv","","null","resources/maskTrios/BBA2.jpg","null","",NA,NA,NA,NA,""
"image-keyboard-response",301,253662,"0.0-3.96-2.96","vyhe9ps38qy4qdp",662,"195.csv","","null","resources/images/coin2.png","null","",NA,NA,NA,NA,""
"image-keyboard-response",302,253709,"0.0-3.97-0.97","vyhe9ps38qy4qdp",662,"195.csv","","44.60000002384186","resources/trios/L1T2A3.jpg","38","restless",0.3,0.3,0.6,0.00832486713827474,"true"
"image-keyboard-response",303,254117,"0.0-3.97-1.97","vyhe9ps38qy4qdp",662,"195.csv","","null","resources/maskTrios/BT2B.jpg","null","",NA,NA,NA,NA,""
"image-keyboard-response",304,255319,"0.0-3.97-2.97","vyhe9ps38qy4qdp",662,"195.csv","","null","resources/images/coin2.png","null","",NA,NA,NA,NA,""
"image-keyboard-response",305,255437,"0.0-3.98-0.98","vyhe9ps38qy4qdp",662,"195.csv","","115.69999998807907","resources/trios/L4T2A3.jpg","39","restless",0.2,0.3,0.5,0.345816592540886,"true"
"image-keyboard-response",306,255842,"0.0-3.98-1.98","vyhe9ps38qy4qdp",662,"195.csv","","null","resources/maskTrios/BBA3.jpg","null","",NA,NA,NA,NA,""
"image-keyboard-response",307,257051,"0.0-3.98-2.98","vyhe9ps38qy4qdp",662,"195.csv","","null","resources/images/coin2.png","null","",NA,NA,NA,NA,""
"image-keyboard-response",308,257385,"0.0-3.99-0.99","vyhe9ps38qy4qdp",662,"195.csv","","331.89999997615814","resources/trios/L1T2A3.jpg","38","restless",0.2,0.2,0.5,0.0499918907188084,"true"
"image-keyboard-response",309,257795,"0.0-3.99-1.99","vyhe9ps38qy4qdp",662,"195.csv","","null","resources/maskTrios/BT2B.jpg","null","",NA,NA,NA,NA,""
"image-keyboard-response",310,259006,"0.0-3.99-2.99","vyhe9ps38qy4qdp",662,"195.csv","","null","resources/images/coin2.png","null","",NA,NA,NA,NA,""
"image-keyboard-response",311,259360,"0.0-3.100-0.100","vyhe9ps38qy4qdp",662,"195.csv","","351.7000000476837","resources/trios/L4T2A3.jpg","39","restless",0.2,0.2,0.5,0.52974426847761,"false"
"image-keyboard-response",312,259766,"0.0-3.100-1.100","vyhe9ps38qy4qdp",662,"195.csv","","null","resources/maskTrios/BBA3.jpg","null","",NA,NA,NA,NA,""
"image-keyboard-response",313,260972,"0.0-3.100-2.100","vyhe9ps38qy4qdp",662,"195.csv","","null","resources/images/fishbone.png","null","",NA,NA,NA,NA,""
"image-keyboard-response",314,261354,"0.0-3.101-0.101","vyhe9ps38qy4qdp",662,"195.csv","","379.19999998807907","resources/trios/L1T4A3.jpg","38","restless",0.2,0.1,0.5,0.721287776520064,"false"
"image-keyboard-response",315,261766,"0.0-3.101-1.101","vyhe9ps38qy4qdp",662,"195.csv","","null","resources/maskTrios/BT4B.jpg","null","",NA,NA,NA,NA,""
"image-keyboard-response",316,262972,"0.0-3.101-2.101","vyhe9ps38qy4qdp",662,"195.csv","","null","resources/images/fishbone.png","null","",NA,NA,NA,NA,""
"image-keyboard-response",317,263236,"0.0-3.102-0.102","vyhe9ps38qy4qdp",662,"195.csv","","261.80000001192093","resources/trios/L1T4A2.jpg","37","restless",0.2,0.1,0.5,0.190401184150777,"true"
"image-keyboard-response",318,263647,"0.0-3.102-1.102","vyhe9ps38qy4qdp",662,"195.csv","","null","resources/maskTrios/L1BB.jpg","null","",NA,NA,NA,NA,""
"image-keyboard-response",319,264851,"0.0-3.102-2.102","vyhe9ps38qy4qdp",662,"195.csv","","null","resources/images/coin2.png","null","",NA,NA,NA,NA,""
"image-keyboard-response",320,264897,"0.0-3.103-0.103","vyhe9ps38qy4qdp",662,"195.csv","","43.60000002384186","resources/trios/L1T2A3.jpg","38","restless",0.2,0.1,0.5,0.767527456519556,"false"
"image-keyboard-response",321,265299,"0.0-3.103-1.103","vyhe9ps38qy4qdp",662,"195.csv","","null","resources/maskTrios/BT2B.jpg","null","",NA,NA,NA,NA,""
"image-keyboard-response",322,266511,"0.0-3.103-2.103","vyhe9ps38qy4qdp",662,"195.csv","","null","resources/images/fishbone.png","null","",NA,NA,NA,NA,""
"image-keyboard-response",323,266544,"0.0-3.104-0.104","vyhe9ps38qy4qdp",662,"195.csv","","30.900000035762787","resources/trios/L1T4A3.jpg","37","restless",0.2,0.1,0.5,0.0973044059421533,"true"
"image-keyboard-response",324,266949,"0.0-3.104-1.104","vyhe9ps38qy4qdp",662,"195.csv","","null","resources/maskTrios/L1BB.jpg","null","",NA,NA,NA,NA,""
"image-keyboard-response",325,268155,"0.0-3.104-2.104","vyhe9ps38qy4qdp",662,"195.csv","","null","resources/images/coin2.png","null","",NA,NA,NA,NA,""
"image-keyboard-response",326,268660,"0.0-3.105-0.105","vyhe9ps38qy4qdp",662,"195.csv","","503","resources/trios/L4T2A2.jpg","39","restless",0.2,0.1,0.5,0.433187695721377,"true"
"image-keyboard-response",327,269069,"0.0-3.105-1.105","vyhe9ps38qy4qdp",662,"195.csv","","null","resources/maskTrios/BBA2.jpg","null","",NA,NA,NA,NA,""
"image-keyboard-response",328,270279,"0.0-3.105-2.105","vyhe9ps38qy4qdp",662,"195.csv","","null","resources/images/coin2.png","null","",NA,NA,NA,NA,""
"image-keyboard-response",329,270835,"0.0-3.106-0.106","vyhe9ps38qy4qdp",662,"195.csv","","554.3999999761581","resources/trios/L1T4A3.jpg","39","restless",0.2,0.1,0.5,0.641818713812497,"false"
"image-keyboard-response",330,271246,"0.0-3.106-1.106","vyhe9ps38qy4qdp",662,"195.csv","","null","resources/maskTrios/BBA3.jpg","null","",NA,NA,NA,NA,""
"image-keyboard-response",331,272455,"0.0-3.106-2.106","vyhe9ps38qy4qdp",662,"195.csv","","null","resources/images/fishbone.png","null","",NA,NA,NA,NA,""
"image-keyboard-response",332,272576,"0.0-3.107-0.107","vyhe9ps38qy4qdp",662,"195.csv","","120.19999998807907","resources/trios/L1T2A3.jpg","38","restless",0.2,0.1,0.5,0.365061272782565,"false"
"image-keyboard-response",333,272988,"0.0-3.107-1.107","vyhe9ps38qy4qdp",662,"195.csv","","null","resources/maskTrios/BT2B.jpg","null","",NA,NA,NA,NA,""
"image-keyboard-response",334,274199,"0.0-3.107-2.107","vyhe9ps38qy4qdp",662,"195.csv","","null","resources/images/fishbone.png","null","",NA,NA,NA,NA,""
"image-keyboard-response",335,274355,"0.0-3.108-0.108","vyhe9ps38qy4qdp",662,"195.csv","","154.60000002384186","resources/trios/L1T4A3.jpg","37","restless",0.2,0.1,0.5,0.0778632297206234,"true"
"image-keyboard-response",336,274762,"0.0-3.108-1.108","vyhe9ps38qy4qdp",662,"195.csv","","null","resources/maskTrios/L1BB.jpg","null","",NA,NA,NA,NA,""
"image-keyboard-response",337,275972,"0.0-3.108-2.108","vyhe9ps38qy4qdp",662,"195.csv","","null","resources/images/coin2.png","null","",NA,NA,NA,NA,""
"image-keyboard-response",338,276221,"0.0-3.109-0.109","vyhe9ps38qy4qdp",662,"195.csv","","247.10000002384186","resources/trios/L1T4A3.jpg","37","restless",0.2,0.1,0.5,0.673675045518875,"false"
"image-keyboard-response",339,276629,"0.0-3.109-1.109","vyhe9ps38qy4qdp",662,"195.csv","","null","resources/maskTrios/L1BB.jpg","null","",NA,NA,NA,NA,""
"image-keyboard-response",340,277838,"0.0-3.109-2.109","vyhe9ps38qy4qdp",662,"195.csv","","null","resources/images/fishbone.png","null","",NA,NA,NA,NA,""
"image-keyboard-response",341,278327,"0.0-3.110-0.110","vyhe9ps38qy4qdp",662,"195.csv","","486.30000001192093","resources/trios/L1T2A3.jpg","38","restless",0.2,0.1,0.5,0.0927487268312857,"true"
"image-keyboard-response",342,278732,"0.0-3.110-1.110","vyhe9ps38qy4qdp",662,"195.csv","","null","resources/maskTrios/BT2B.jpg","null","",NA,NA,NA,NA,""
"image-keyboard-response",343,279938,"0.0-3.110-2.110","vyhe9ps38qy4qdp",662,"195.csv","","null","resources/images/coin2.png","null","",NA,NA,NA,NA,""
"image-keyboard-response",344,279989,"0.0-3.111-0.111","vyhe9ps38qy4qdp",662,"195.csv","","49.09999996423721","resources/trios/L4T4A2.jpg","38","restless",0.2,0.1,0.5,0.609856421853044,"false"
"image-keyboard-response",345,280398,"0.0-3.111-1.111","vyhe9ps38qy4qdp",662,"195.csv","","null","resources/maskTrios/BT4B.jpg","null","",NA,NA,NA,NA,""
"image-keyboard-response",346,281605,"0.0-3.111-2.111","vyhe9ps38qy4qdp",662,"195.csv","","null","resources/images/fishbone.png","null","",NA,NA,NA,NA,""
"image-keyboard-response",347,281914,"0.0-3.112-0.112","vyhe9ps38qy4qdp",662,"195.csv","","307.5","resources/trios/L1T4A3.jpg","37","restless",0.3,0.2,0.5,0.537239583894137,"false"
"image-keyboard-response",348,282323,"0.0-3.112-1.112","vyhe9ps38qy4qdp",662,"195.csv","","null","resources/maskTrios/L1BB.jpg","null","",NA,NA,NA,NA,""
"image-keyboard-response",349,283532,"0.0-3.112-2.112","vyhe9ps38qy4qdp",662,"195.csv","","null","resources/images/fishbone.png","null","",NA,NA,NA,NA,""
"image-keyboard-response",350,284011,"0.0-3.113-0.113","vyhe9ps38qy4qdp",662,"195.csv","","477","resources/trios/L4T2A2.jpg","37","restless",0.3,0.2,0.5,0.825243581115075,"false"
"image-keyboard-response",351,284421,"0.0-3.113-1.113","vyhe9ps38qy4qdp",662,"195.csv","","null","resources/maskTrios/L4BB.jpg","null","",NA,NA,NA,NA,""
"image-keyboard-response",352,285631,"0.0-3.113-2.113","vyhe9ps38qy4qdp",662,"195.csv","","null","resources/images/fishbone.png","null","",NA,NA,NA,NA,""
"image-keyboard-response",353,285950,"0.0-3.114-0.114","vyhe9ps38qy4qdp",662,"195.csv","","316.80000001192093","resources/trios/L1T4A3.jpg","39","restless",0.3,0.2,0.5,0.667880079374826,"false"
"image-keyboard-response",354,286354,"0.0-3.114-1.114","vyhe9ps38qy4qdp",662,"195.csv","","null","resources/maskTrios/BBA3.jpg","null","",NA,NA,NA,NA,""
"image-keyboard-response",355,287565,"0.0-3.114-2.114","vyhe9ps38qy4qdp",662,"195.csv","","null","resources/images/fishbone.png","null","",NA,NA,NA,NA,""
"image-keyboard-response",356,287768,"0.0-3.115-0.115","vyhe9ps38qy4qdp",662,"195.csv","","201.10000002384186","resources/trios/L1T4A3.jpg","38","restless",0.3,0.2,0.5,0.751432556786791,"false"
"image-keyboard-response",357,288182,"0.0-3.115-1.115","vyhe9ps38qy4qdp",662,"195.csv","","null","resources/maskTrios/BT4B.jpg","null","",NA,NA,NA,NA,""
"image-keyboard-response",358,289387,"0.0-3.115-2.115","vyhe9ps38qy4qdp",662,"195.csv","","null","resources/images/fishbone.png","null","",NA,NA,NA,NA,""
"image-keyboard-response",359,289772,"0.0-3.116-0.116","vyhe9ps38qy4qdp",662,"195.csv","","383.5","resources/trios/L4T4A3.jpg","38","restless",0.3,0.2,0.5,0.224249736483869,"false"
"image-keyboard-response",360,290181,"0.0-3.116-1.116","vyhe9ps38qy4qdp",662,"195.csv","","null","resources/maskTrios/BT4B.jpg","null","",NA,NA,NA,NA,""
"image-keyboard-response",361,291390,"0.0-3.116-2.116","vyhe9ps38qy4qdp",662,"195.csv","","null","resources/images/fishbone.png","null","",NA,NA,NA,NA,""
"image-keyboard-response",362,291482,"0.0-3.117-0.117","vyhe9ps38qy4qdp",662,"195.csv","","89.90000003576279","resources/trios/L4T2A2.jpg","37","restless",0.3,0.1,0.5,0.352143145486574,"false"
"image-keyboard-response",363,291891,"0.0-3.117-1.117","vyhe9ps38qy4qdp",662,"195.csv","","null","resources/maskTrios/L4BB.jpg","null","",NA,NA,NA,NA,""
"image-keyboard-response",364,293099,"0.0-3.117-2.117","vyhe9ps38qy4qdp",662,"195.csv","","null","resources/images/fishbone.png","null","",NA,NA,NA,NA,""
"image-keyboard-response",365,293610,"0.0-3.118-0.118","vyhe9ps38qy4qdp",662,"195.csv","","508.60000002384186","resources/trios/L4T2A3.jpg","39","restless",0.3,0.1,0.5,0.663268496958657,"false"
"image-keyboard-response",366,294021,"0.0-3.118-1.118","vyhe9ps38qy4qdp",662,"195.csv","","null","resources/maskTrios/BBA3.jpg","null","",NA,NA,NA,NA,""
"image-keyboard-response",367,295231,"0.0-3.118-2.118","vyhe9ps38qy4qdp",662,"195.csv","","null","resources/images/fishbone.png","null","",NA,NA,NA,NA,""
"image-keyboard-response",368,295820,"0.0-3.119-0.119","vyhe9ps38qy4qdp",662,"195.csv","","586.7000000476837","resources/trios/L1T4A2.jpg","39","restless",0.3,0.1,0.5,0.841523538036024,"false"
"image-keyboard-response",369,296231,"0.0-3.119-1.119","vyhe9ps38qy4qdp",662,"195.csv","","null","resources/maskTrios/BBA2.jpg","null","",NA,NA,NA,NA,""
"image-keyboard-response",370,297437,"0.0-3.119-2.119","vyhe9ps38qy4qdp",662,"195.csv","","null","resources/images/fishbone.png","null","",NA,NA,NA,NA,""
"image-keyboard-response",371,297732,"0.0-3.120-0.120","vyhe9ps38qy4qdp",662,"195.csv","","292.39999997615814","resources/trios/L4T2A3.jpg","39","restless",0.4,0.1,0.5,0.904961548834911,"false"
"image-keyboard-response",372,298142,"0.0-3.120-1.120","vyhe9ps38qy4qdp",662,"195.csv","","null","resources/maskTrios/BBA3.jpg","null","",NA,NA,NA,NA,""
"image-keyboard-response",373,299347,"0.0-3.120-2.120","vyhe9ps38qy4qdp",662,"195.csv","","null","resources/images/fishbone.png","null","",NA,NA,NA,NA,""
"image-keyboard-response",374,299753,"0.0-3.121-0.121","vyhe9ps38qy4qdp",662,"195.csv","","404.2000000476837","resources/trios/L1T2A2.jpg","38","restless",0.4,0.1,0.5,0.480774008596199,"false"
"image-keyboard-response",375,300164,"0.0-3.121-1.121","vyhe9ps38qy4qdp",662,"195.csv","","null","resources/maskTrios/BT2B.jpg","null","",NA,NA,NA,NA,""
"image-keyboard-response",376,301370,"0.0-3.121-2.121","vyhe9ps38qy4qdp",662,"195.csv","","null","resources/images/fishbone.png","null","",NA,NA,NA,NA,""
"image-keyboard-response",377,301425,"0.0-3.122-0.122","vyhe9ps38qy4qdp",662,"195.csv","","52.69999998807907","resources/trios/L1T2A2.jpg","37","restless",0.4,0.1,0.5,0.168196012964468,"true"
"image-keyboard-response",378,301837,"0.0-3.122-1.122","vyhe9ps38qy4qdp",662,"195.csv","","null","resources/maskTrios/L1BB.jpg","null","",NA,NA,NA,NA,""
"image-keyboard-response",379,303047,"0.0-3.122-2.122","vyhe9ps38qy4qdp",662,"195.csv","","null","resources/images/coin2.png","null","",NA,NA,NA,NA,""
"image-keyboard-response",380,303669,"0.0-3.123-0.123","vyhe9ps38qy4qdp",662,"195.csv","","620.3999999761581","resources/trios/L4T2A3.jpg","37","restless",0.4,0.1,0.5,0.895144982477162,"false"
"image-keyboard-response",381,304079,"0.0-3.123-1.123","vyhe9ps38qy4qdp",662,"195.csv","","null","resources/maskTrios/L4BB.jpg","null","",NA,NA,NA,NA,""
"image-keyboard-response",382,305284,"0.0-3.123-2.123","vyhe9ps38qy4qdp",662,"195.csv","","null","resources/images/fishbone.png","null","",NA,NA,NA,NA,""
"image-keyboard-response",383,305381,"0.0-3.124-0.124","vyhe9ps38qy4qdp",662,"195.csv","","95.39999997615814","resources/trios/L4T2A3.jpg","38","restless",0.4,0.1,0.4,0.803266722004194,"false"
"image-keyboard-response",384,305787,"0.0-3.124-1.124","vyhe9ps38qy4qdp",662,"195.csv","","null","resources/maskTrios/BT2B.jpg","null","",NA,NA,NA,NA,""
"image-keyboard-response",385,306997,"0.0-3.124-2.124","vyhe9ps38qy4qdp",662,"195.csv","","null","resources/images/fishbone.png","null","",NA,NA,NA,NA,""
"image-keyboard-response",386,307579,"0.0-3.125-0.125","vyhe9ps38qy4qdp",662,"195.csv","","580","resources/trios/L1T2A2.jpg","39","restless",0.4,0.1,0.4,0.491467542827064,"false"
"image-keyboard-response",387,307987,"0.0-3.125-1.125","vyhe9ps38qy4qdp",662,"195.csv","","null","resources/maskTrios/BBA2.jpg","null","",NA,NA,NA,NA,""
"image-keyboard-response",388,309197,"0.0-3.125-2.125","vyhe9ps38qy4qdp",662,"195.csv","","null","resources/images/fishbone.png","null","",NA,NA,NA,NA,""
"image-keyboard-response",389,309803,"0.0-3.126-0.126","vyhe9ps38qy4qdp",662,"195.csv","","603.8999999761581","resources/trios/L4T4A2.jpg","39","restless",0.4,0.1,0.4,0.608956338307201,"false"
"image-keyboard-response",390,310214,"0.0-3.126-1.126","vyhe9ps38qy4qdp",662,"195.csv","","null","resources/maskTrios/BBA2.jpg","null","",NA,NA,NA,NA,""
"image-keyboard-response",391,311420,"0.0-3.126-2.126","vyhe9ps38qy4qdp",662,"195.csv","","null","resources/images/fishbone.png","null","",NA,NA,NA,NA,""
"image-keyboard-response",392,311870,"0.0-3.127-0.127","vyhe9ps38qy4qdp",662,"195.csv","","447.69999998807907","resources/trios/L4T2A2.jpg","39","restless",0.4,0.2,0.4,0.32281035016456,"true"
"image-keyboard-response",393,312275,"0.0-3.127-1.127","vyhe9ps38qy4qdp",662,"195.csv","","null","resources/maskTrios/BBA2.jpg","null","",NA,NA,NA,NA,""
"image-keyboard-response",394,313487,"0.0-3.127-2.127","vyhe9ps38qy4qdp",662,"195.csv","","null","resources/images/coin2.png","null","",NA,NA,NA,NA,""
"image-keyboard-response",395,314343,"0.0-3.128-0.128","vyhe9ps38qy4qdp",662,"195.csv","","854.5","resources/trios/L1T4A3.jpg","39","restless",0.4,0.2,0.4,0.126397744245818,"true"
"image-keyboard-response",396,314747,"0.0-3.128-1.128","vyhe9ps38qy4qdp",662,"195.csv","","null","resources/maskTrios/BBA3.jpg","null","",NA,NA,NA,NA,""
"image-keyboard-response",397,315959,"0.0-3.128-2.128","vyhe9ps38qy4qdp",662,"195.csv","","null","resources/images/coin2.png","null","",NA,NA,NA,NA,""
"image-keyboard-response",398,316707,"0.0-3.129-0.129","vyhe9ps38qy4qdp",662,"195.csv","","746.5","resources/trios/L1T2A3.jpg","38","restless",0.4,0.2,0.4,0.521701055207556,"false"
"image-keyboard-response",399,317119,"0.0-3.129-1.129","vyhe9ps38qy4qdp",662,"195.csv","","null","resources/maskTrios/BT2B.jpg","null","",NA,NA,NA,NA,""
"image-keyboard-response",400,318323,"0.0-3.129-2.129","vyhe9ps38qy4qdp",662,"195.csv","","null","resources/images/fishbone.png","null","",NA,NA,NA,NA,""
"image-keyboard-response",401,320027,"0.0-3.130-0.130","vyhe9ps38qy4qdp",662,"195.csv","","1702.5","resources/trios/L4T4A3.jpg","37","restless",0.4,0.2,0.4,0.686920630435561,"false"
"image-keyboard-response",402,320436,"0.0-3.130-1.130","vyhe9ps38qy4qdp",662,"195.csv","","null","resources/maskTrios/L4BB.jpg","null","",NA,NA,NA,NA,""
"image-keyboard-response",403,321646,"0.0-3.130-2.130","vyhe9ps38qy4qdp",662,"195.csv","","null","resources/images/fishbone.png","null","",NA,NA,NA,NA,""
"image-keyboard-response",404,327061,"0.0-3.131-0.131","vyhe9ps38qy4qdp",662,"195.csv","","5413.699999988079","resources/trios/L4T4A2.jpg","38","restless",0.4,0.2,0.4,0.630080216924262,"false"
"image-keyboard-response",405,327469,"0.0-3.131-1.131","vyhe9ps38qy4qdp",662,"195.csv","","null","resources/maskTrios/BT4B.jpg","null","",NA,NA,NA,NA,""
"image-keyboard-response",406,328679,"0.0-3.131-2.131","vyhe9ps38qy4qdp",662,"195.csv","","null","resources/images/fishbone.png","null","",NA,NA,NA,NA,""
"image-keyboard-response",407,328931,"0.0-3.132-0.132","vyhe9ps38qy4qdp",662,"195.csv","","250.69999998807907","resources/trios/L4T2A3.jpg","39","restless",0.4,0.2,0.4,0.141942155691406,"true"
"image-keyboard-response",408,329342,"0.0-3.132-1.132","vyhe9ps38qy4qdp",662,"195.csv","","null","resources/maskTrios/BBA3.jpg","null","",NA,NA,NA,NA,""
"image-keyboard-response",409,330546,"0.0-3.132-2.132","vyhe9ps38qy4qdp",662,"195.csv","","null","resources/images/coin2.png","null","",NA,NA,NA,NA,""
"image-keyboard-response",410,330886,"0.0-3.133-0.133","vyhe9ps38qy4qdp",662,"195.csv","","338.19999998807907","resources/trios/L4T4A3.jpg","38","restless",0.4,0.2,0.4,0.870325463584858,"false"
"image-keyboard-response",411,331295,"0.0-3.133-1.133","vyhe9ps38qy4qdp",662,"195.csv","","null","resources/maskTrios/BT4B.jpg","null","",NA,NA,NA,NA,""
"image-keyboard-response",412,332502,"0.0-3.133-2.133","vyhe9ps38qy4qdp",662,"195.csv","","null","resources/images/fishbone.png","null","",NA,NA,NA,NA,""
"image-keyboard-response",413,332581,"0.0-3.134-0.134","vyhe9ps38qy4qdp",662,"195.csv","","77.29999995231628","resources/trios/L4T2A3.jpg","37","restless",0.4,0.2,0.4,0.292384751023576,"true"
"image-keyboard-response",414,332987,"0.0-3.134-1.134","vyhe9ps38qy4qdp",662,"195.csv","","null","resources/maskTrios/L4BB.jpg","null","",NA,NA,NA,NA,""
"image-keyboard-response",415,334195,"0.0-3.134-2.134","vyhe9ps38qy4qdp",662,"195.csv","","null","resources/images/coin2.png","null","",NA,NA,NA,NA,""
"image-keyboard-response",416,338022,"0.0-3.135-0.135","vyhe9ps38qy4qdp",662,"195.csv","","3824.100000023842","resources/trios/L4T4A2.jpg","38","restless",0.4,0.2,0.4,0.393286212841346,"false"
"image-keyboard-response",417,338429,"0.0-3.135-1.135","vyhe9ps38qy4qdp",662,"195.csv","","null","resources/maskTrios/BT4B.jpg","null","",NA,NA,NA,NA,""
"image-keyboard-response",418,339635,"0.0-3.135-2.135","vyhe9ps38qy4qdp",662,"195.csv","","null","resources/images/fishbone.png","null","",NA,NA,NA,NA,""
"image-keyboard-response",419,339941,"0.0-3.136-0.136","vyhe9ps38qy4qdp",662,"195.csv","","303.39999997615814","resources/trios/L1T2A3.jpg","37","restless",0.4,0.2,0.4,0.246446409825482,"true"
"image-keyboard-response",420,340346,"0.0-3.136-1.136","vyhe9ps38qy4qdp",662,"195.csv","","null","resources/maskTrios/L1BB.jpg","null","",NA,NA,NA,NA,""
"image-keyboard-response",421,341559,"0.0-3.136-2.136","vyhe9ps38qy4qdp",662,"195.csv","","null","resources/images/coin2.png","null","",NA,NA,NA,NA,""
"image-keyboard-response",422,341819,"0.0-3.137-0.137","vyhe9ps38qy4qdp",662,"195.csv","","258.5","resources/trios/L1T2A3.jpg","37","restless",0.4,0.2,0.4,0.389801545151283,"true"
"image-keyboard-response",423,342229,"0.0-3.137-1.137","vyhe9ps38qy4qdp",662,"195.csv","","null","resources/maskTrios/L1BB.jpg","null","",NA,NA,NA,NA,""
"image-keyboard-response",424,343435,"0.0-3.137-2.137","vyhe9ps38qy4qdp",662,"195.csv","","null","resources/images/coin2.png","null","",NA,NA,NA,NA,""
"image-keyboard-response",425,343513,"0.0-3.138-0.138","vyhe9ps38qy4qdp",662,"195.csv","","75.69999998807907","resources/trios/L4T4A2.jpg","37","restless",0.4,0.2,0.4,0.765331783922628,"false"
"image-keyboard-response",426,343927,"0.0-3.138-1.138","vyhe9ps38qy4qdp",662,"195.csv","","null","resources/maskTrios/L4BB.jpg","null","",NA,NA,NA,NA,""
"image-keyboard-response",427,345132,"0.0-3.138-2.138","vyhe9ps38qy4qdp",662,"195.csv","","null","resources/images/fishbone.png","null","",NA,NA,NA,NA,""
"image-keyboard-response",428,345361,"0.0-3.139-0.139","vyhe9ps38qy4qdp",662,"195.csv","","226.19999998807907","resources/trios/L4T4A2.jpg","39","restless",0.4,0.2,0.4,0.355700670918647,"true"
"image-keyboard-response",429,345770,"0.0-3.139-1.139","vyhe9ps38qy4qdp",662,"195.csv","","null","resources/maskTrios/BBA2.jpg","null","",NA,NA,NA,NA,""
"image-keyboard-response",430,346979,"0.0-3.139-2.139","vyhe9ps38qy4qdp",662,"195.csv","","null","resources/images/coin2.png","null","",NA,NA,NA,NA,""
"image-keyboard-response",431,347227,"0.0-3.140-0.140","vyhe9ps38qy4qdp",662,"195.csv","","245.89999997615814","resources/trios/L4T4A3.jpg","38","restless",0.4,0.2,0.4,0.548283701116471,"false"
"image-keyboard-response",432,347635,"0.0-3.140-1.140","vyhe9ps38qy4qdp",662,"195.csv","","null","resources/maskTrios/BT4B.jpg","null","",NA,NA,NA,NA,""
"image-keyboard-response",433,348845,"0.0-3.140-2.140","vyhe9ps38qy4qdp",662,"195.csv","","null","resources/images/fishbone.png","null","",NA,NA,NA,NA,""
"image-keyboard-response",434,349167,"0.0-3.141-0.141","vyhe9ps38qy4qdp",662,"195.csv","","319.7999999523163","resources/trios/L4T2A3.jpg","39","restless",0.4,0.2,0.4,0.29143111154911,"true"
"image-keyboard-response",435,349573,"0.0-3.141-1.141","vyhe9ps38qy4qdp",662,"195.csv","","null","resources/maskTrios/BBA3.jpg","null","",NA,NA,NA,NA,""
"image-keyboard-response",436,350778,"0.0-3.141-2.141","vyhe9ps38qy4qdp",662,"195.csv","","null","resources/images/coin2.png","null","",NA,NA,NA,NA,""
"image-keyboard-response",437,351304,"0.0-3.142-0.142","vyhe9ps38qy4qdp",662,"195.csv","","523.8000000119209","resources/trios/L1T4A3.jpg","37","restless",0.4,0.2,0.4,0.630528178119195,"false"
"image-keyboard-response",438,351718,"0.0-3.142-1.142","vyhe9ps38qy4qdp",662,"195.csv","","null","resources/maskTrios/L1BB.jpg","null","",NA,NA,NA,NA,""
"image-keyboard-response",439,352926,"0.0-3.142-2.142","vyhe9ps38qy4qdp",662,"195.csv","","null","resources/images/fishbone.png","null","",NA,NA,NA,NA,""
"image-keyboard-response",440,353254,"0.0-3.143-0.143","vyhe9ps38qy4qdp",662,"195.csv","","325.5999999642372","resources/trios/L1T4A2.jpg","38","restless",0.4,0.3,0.4,0.606447255336699,"false"
"image-keyboard-response",441,353661,"0.0-3.143-1.143","vyhe9ps38qy4qdp",662,"195.csv","","null","resources/maskTrios/BT4B.jpg","null","",NA,NA,NA,NA,""
"image-keyboard-response",442,354868,"0.0-3.143-2.143","vyhe9ps38qy4qdp",662,"195.csv","","null","resources/images/fishbone.png","null","",NA,NA,NA,NA,""
"image-keyboard-response",443,354885,"0.0-3.144-0.144","vyhe9ps38qy4qdp",662,"195.csv","","15.5","resources/trios/L4T4A3.jpg","39","restless",0.4,0.3,0.4,0.32994663761527,"true"
"image-keyboard-response",444,355294,"0.0-3.144-1.144","vyhe9ps38qy4qdp",662,"195.csv","","null","resources/maskTrios/BBA3.jpg","null","",NA,NA,NA,NA,""
"image-keyboard-response",445,356501,"0.0-3.144-2.144","vyhe9ps38qy4qdp",662,"195.csv","","null","resources/images/coin2.png","null","",NA,NA,NA,NA,""
"image-keyboard-response",446,356702,"0.0-3.145-0.145","vyhe9ps38qy4qdp",662,"195.csv","","198.5","resources/trios/L1T4A2.jpg","39","restless",0.4,0.3,0.4,0.642072986302364,"false"
"image-keyboard-response",447,357107,"0.0-3.145-1.145","vyhe9ps38qy4qdp",662,"195.csv","","null","resources/maskTrios/BBA2.jpg","null","",NA,NA,NA,NA,""
"image-keyboard-response",448,358317,"0.0-3.145-2.145","vyhe9ps38qy4qdp",662,"195.csv","","null","resources/images/fishbone.png","null","",NA,NA,NA,NA,""
"image-keyboard-response",449,358549,"0.0-3.146-0.146","vyhe9ps38qy4qdp",662,"195.csv","","230.5","resources/trios/L4T2A3.jpg","37","restless",0.4,0.4,0.4,0.964466556433593,"false"
"image-keyboard-response",450,358956,"0.0-3.146-1.146","vyhe9ps38qy4qdp",662,"195.csv","","null","resources/maskTrios/L4BB.jpg","null","",NA,NA,NA,NA,""
"image-keyboard-response",451,360166,"0.0-3.146-2.146","vyhe9ps38qy4qdp",662,"195.csv","","null","resources/images/fishbone.png","null","",NA,NA,NA,NA,""
"image-keyboard-response",452,360334,"0.0-3.147-0.147","vyhe9ps38qy4qdp",662,"195.csv","","165.0999999642372","resources/trios/L1T4A3.jpg","38","restless",0.4,0.4,0.3,0.991459760470207,"false"
"image-keyboard-response",453,360741,"0.0-3.147-1.147","vyhe9ps38qy4qdp",662,"195.csv","","null","resources/maskTrios/BT4B.jpg","null","",NA,NA,NA,NA,""
"image-keyboard-response",454,361950,"0.0-3.147-2.147","vyhe9ps38qy4qdp",662,"195.csv","","null","resources/images/fishbone.png","null","",NA,NA,NA,NA,""
"image-keyboard-response",455,362096,"0.0-3.148-0.148","vyhe9ps38qy4qdp",662,"195.csv","","143.69999998807907","resources/trios/L4T4A3.jpg","38","restless",0.5,0.4,0.3,0.285274453409106,"true"
"image-keyboard-response",456,362510,"0.0-3.148-1.148","vyhe9ps38qy4qdp",662,"195.csv","","null","resources/maskTrios/BT4B.jpg","null","",NA,NA,NA,NA,""
"image-keyboard-response",457,363717,"0.0-3.148-2.148","vyhe9ps38qy4qdp",662,"195.csv","","null","resources/images/coin2.png","null","",NA,NA,NA,NA,""
"image-keyboard-response",458,363953,"0.0-3.149-0.149","vyhe9ps38qy4qdp",662,"195.csv","","233.80000001192093","resources/trios/L1T2A2.jpg","38","restless",0.5,0.4,0.3,0.967141341309623,"false"
"image-keyboard-response",459,364366,"0.0-3.149-1.149","vyhe9ps38qy4qdp",662,"195.csv","","null","resources/maskTrios/BT2B.jpg","null","",NA,NA,NA,NA,""
"image-keyboard-response",460,365574,"0.0-3.149-2.149","vyhe9ps38qy4qdp",662,"195.csv","","null","resources/images/fishbone.png","null","",NA,NA,NA,NA,""
"image-keyboard-response",461,365709,"0.0-3.150-0.150","vyhe9ps38qy4qdp",662,"195.csv","","132.60000002384186","resources/trios/L1T4A2.jpg","37","restless",0.5,0.3,0.3,0.292195896322569,"true"
"image-keyboard-response",462,366117,"0.0-3.150-1.150","vyhe9ps38qy4qdp",662,"195.csv","","null","resources/maskTrios/L1BB.jpg","null","",NA,NA,NA,NA,""
"image-keyboard-response",463,367324,"0.0-3.150-2.150","vyhe9ps38qy4qdp",662,"195.csv","","null","resources/images/coin2.png","null","",NA,NA,NA,NA,""
"image-keyboard-response",464,367582,"0.0-3.151-0.151","vyhe9ps38qy4qdp",662,"195.csv","","256.60000002384186","resources/trios/L1T4A3.jpg","39","restless",0.5,0.3,0.3,0.947342990301959,"false"
"image-keyboard-response",465,367990,"0.0-3.151-1.151","vyhe9ps38qy4qdp",662,"195.csv","","null","resources/maskTrios/BBA3.jpg","null","",NA,NA,NA,NA,""
"image-keyboard-response",466,369194,"0.0-3.151-2.151","vyhe9ps38qy4qdp",662,"195.csv","","null","resources/images/fishbone.png","null","",NA,NA,NA,NA,""
"image-keyboard-response",467,369463,"0.0-3.152-0.152","vyhe9ps38qy4qdp",662,"195.csv","","266.69999998807907","resources/trios/L4T2A2.jpg","38","restless",0.5,0.3,0.3,0.994911509743068,"false"
"image-keyboard-response",468,369878,"0.0-3.152-1.152","vyhe9ps38qy4qdp",662,"195.csv","","null","resources/maskTrios/BT2B.jpg","null","",NA,NA,NA,NA,""
"image-keyboard-response",469,371084,"0.0-3.152-2.152","vyhe9ps38qy4qdp",662,"195.csv","","null","resources/images/fishbone.png","null","",NA,NA,NA,NA,""
"image-keyboard-response",470,371366,"0.0-3.153-0.153","vyhe9ps38qy4qdp",662,"195.csv","","280.30000001192093","resources/trios/L4T4A3.jpg","38","restless",0.5,0.3,0.3,0.200612315253982,"true"
"image-keyboard-response",471,371770,"0.0-3.153-1.153","vyhe9ps38qy4qdp",662,"195.csv","","null","resources/maskTrios/BT4B.jpg","null","",NA,NA,NA,NA,""
"image-keyboard-response",472,372977,"0.0-3.153-2.153","vyhe9ps38qy4qdp",662,"195.csv","","null","resources/images/coin2.png","null","",NA,NA,NA,NA,""
"image-keyboard-response",473,373051,"0.0-3.154-0.154","vyhe9ps38qy4qdp",662,"195.csv","","71.10000002384186","resources/trios/L1T2A3.jpg","37","restless",0.6,0.3,0.3,0.309245283526823,"true"
"image-keyboard-response",474,373460,"0.0-3.154-1.154","vyhe9ps38qy4qdp",662,"195.csv","","null","resources/maskTrios/L1BB.jpg","null","",NA,NA,NA,NA,""
"image-keyboard-response",475,374667,"0.0-3.154-2.154","vyhe9ps38qy4qdp",662,"195.csv","","null","resources/images/coin2.png","null","",NA,NA,NA,NA,""
"image-keyboard-response",476,374676,"0.0-3.155-0.155","vyhe9ps38qy4qdp",662,"195.csv","","7.199999988079071","resources/trios/L1T4A3.jpg","38","restless",0.6,0.3,0.3,0.542724314918412,"false"
"image-keyboard-response",477,375083,"0.0-3.155-1.155","vyhe9ps38qy4qdp",662,"195.csv","","null","resources/maskTrios/BT4B.jpg","null","",NA,NA,NA,NA,""
"image-keyboard-response",478,376294,"0.0-3.155-2.155","vyhe9ps38qy4qdp",662,"195.csv","","null","resources/images/fishbone.png","null","",NA,NA,NA,NA,""
"image-keyboard-response",479,376439,"0.0-3.156-0.156","vyhe9ps38qy4qdp",662,"195.csv","","143.4000000357628","resources/trios/L4T4A2.jpg","37","restless",0.6,0.3,0.2,0.205253870043189,"true"
"image-keyboard-response",480,376850,"0.0-3.156-1.156","vyhe9ps38qy4qdp",662,"195.csv","","null","resources/maskTrios/L4BB.jpg","null","",NA,NA,NA,NA,""
"image-keyboard-response",481,378060,"0.0-3.156-2.156","vyhe9ps38qy4qdp",662,"195.csv","","null","resources/images/coin2.png","null","",NA,NA,NA,NA,""
"image-keyboard-response",482,378116,"0.0-3.157-0.157","vyhe9ps38qy4qdp",662,"195.csv","","52.799999952316284","resources/trios/L1T4A3.jpg","39","restless",0.6,0.3,0.2,0.968083330387185,"false"
"image-keyboard-response",483,378526,"0.0-3.157-1.157","vyhe9ps38qy4qdp",662,"195.csv","","null","resources/maskTrios/BBA3.jpg","null","",NA,NA,NA,NA,""
"image-keyboard-response",484,379733,"0.0-3.157-2.157","vyhe9ps38qy4qdp",662,"195.csv","","null","resources/images/fishbone.png","null","",NA,NA,NA,NA,""
"image-keyboard-response",485,379971,"0.0-3.158-0.158","vyhe9ps38qy4qdp",662,"195.csv","","235.4000000357628","resources/trios/L1T4A2.jpg","37","restless",0.6,0.3,0.2,0.659551405665538,"false"
"image-keyboard-response",486,380382,"0.0-3.158-1.158","vyhe9ps38qy4qdp",662,"195.csv","","null","resources/maskTrios/L1BB.jpg","null","",NA,NA,NA,NA,""
"image-keyboard-response",487,381590,"0.0-3.158-2.158","vyhe9ps38qy4qdp",662,"195.csv","","null","resources/images/fishbone.png","null","",NA,NA,NA,NA,""
"image-keyboard-response",488,382003,"0.0-3.159-0.159","vyhe9ps38qy4qdp",662,"195.csv","","410.69999998807907","resources/trios/L4T2A2.jpg","38","restless",0.6,0.4,0.2,0.554508520102123,"false"
"image-keyboard-response",489,382410,"0.0-3.159-1.159","vyhe9ps38qy4qdp",662,"195.csv","","null","resources/maskTrios/BT2B.jpg","null","",NA,NA,NA,NA,""
"image-keyboard-response",490,383619,"0.0-3.159-2.159","vyhe9ps38qy4qdp",662,"195.csv","","null","resources/images/fishbone.png","null","",NA,NA,NA,NA,""
"image-keyboard-response",491,383925,"0.0-3.160-0.160","vyhe9ps38qy4qdp",662,"195.csv","","303.89999997615814","resources/trios/L4T2A2.jpg","37","restless",0.6,0.4,0.2,0.296044992316404,"true"
"image-keyboard-response",492,384333,"0.0-3.160-1.160","vyhe9ps38qy4qdp",662,"195.csv","","null","resources/maskTrios/L4BB.jpg","null","",NA,NA,NA,NA,""
"image-keyboard-response",493,385542,"0.0-3.160-2.160","vyhe9ps38qy4qdp",662,"195.csv","","null","resources/images/coin2.png","null","",NA,NA,NA,NA,""
"image-keyboard-response",494,385819,"0.0-3.161-0.161","vyhe9ps38qy4qdp",662,"195.csv","","274.80000001192093","resources/trios/L4T2A3.jpg","37","restless",0.6,0.4,0.2,0.765704880138987,"false"
"image-keyboard-response",495,386227,"0.0-3.161-1.161","vyhe9ps38qy4qdp",662,"195.csv","","null","resources/maskTrios/L4BB.jpg","null","",NA,NA,NA,NA,""
"image-keyboard-response",496,387438,"0.0-3.161-2.161","vyhe9ps38qy4qdp",662,"195.csv","","null","resources/images/fishbone.png","null","",NA,NA,NA,NA,""
"image-keyboard-response",497,387797,"0.0-3.162-0.162","vyhe9ps38qy4qdp",662,"195.csv","","356.89999997615814","resources/trios/L1T4A2.jpg","38","restless",0.6,0.4,0.2,0.696126234902837,"false"
"image-keyboard-response",498,388206,"0.0-3.162-1.162","vyhe9ps38qy4qdp",662,"195.csv","","null","resources/maskTrios/BT4B.jpg","null","",NA,NA,NA,NA,""
"image-keyboard-response",499,389411,"0.0-3.162-2.162","vyhe9ps38qy4qdp",662,"195.csv","","null","resources/images/fishbone.png","null","",NA,NA,NA,NA,""
"image-keyboard-response",500,389806,"0.0-3.163-0.163","vyhe9ps38qy4qdp",662,"195.csv","","392.69999998807907","resources/trios/L1T4A3.jpg","39","restless",0.6,0.4,0.2,0.529770429933517,"false"
"image-keyboard-response",501,390210,"0.0-3.163-1.163","vyhe9ps38qy4qdp",662,"195.csv","","null","resources/maskTrios/BBA3.jpg","null","",NA,NA,NA,NA,""
"image-keyboard-response",502,391418,"0.0-3.163-2.163","vyhe9ps38qy4qdp",662,"195.csv","","null","resources/images/fishbone.png","null","",NA,NA,NA,NA,""
"image-keyboard-response",503,391619,"0.0-3.164-0.164","vyhe9ps38qy4qdp",662,"195.csv","","198.89999997615814","resources/trios/L1T2A3.jpg","37","restless",0.6,0.4,0.3,0.137872186330038,"true"
"image-keyboard-response",504,392028,"0.0-3.164-1.164","vyhe9ps38qy4qdp",662,"195.csv","","null","resources/maskTrios/L1BB.jpg","null","",NA,NA,NA,NA,""
"image-keyboard-response",505,393238,"0.0-3.164-2.164","vyhe9ps38qy4qdp",662,"195.csv","","null","resources/images/coin2.png","null","",NA,NA,NA,NA,""
"image-keyboard-response",506,393559,"0.0-3.165-0.165","vyhe9ps38qy4qdp",662,"195.csv","","318.19999998807907","resources/trios/L1T4A2.jpg","37","restless",0.6,0.4,0.3,0.98020692674469,"false"
"image-keyboard-response",507,393966,"0.0-3.165-1.165","vyhe9ps38qy4qdp",662,"195.csv","","null","resources/maskTrios/L1BB.jpg","null","",NA,NA,NA,NA,""
"image-keyboard-response",508,395174,"0.0-3.165-2.165","vyhe9ps38qy4qdp",662,"195.csv","","null","resources/images/fishbone.png","null","",NA,NA,NA,NA,""
"image-keyboard-response",509,395480,"0.0-3.166-0.166","vyhe9ps38qy4qdp",662,"195.csv","","303.69999998807907","resources/trios/L1T4A2.jpg","37","restless",0.5,0.4,0.3,0.551662095376647,"false"
"image-keyboard-response",510,395893,"0.0-3.166-1.166","vyhe9ps38qy4qdp",662,"195.csv","","null","resources/maskTrios/L1BB.jpg","null","",NA,NA,NA,NA,""
"image-keyboard-response",511,397099,"0.0-3.166-2.166","vyhe9ps38qy4qdp",662,"195.csv","","null","resources/images/fishbone.png","null","",NA,NA,NA,NA,""
"image-keyboard-response",512,397258,"0.0-3.167-0.167","vyhe9ps38qy4qdp",662,"195.csv","","156.10000002384186","resources/trios/L4T4A3.jpg","38","restless",0.5,0.4,0.4,0.00458518312364231,"true"
"image-keyboard-response",513,397666,"0.0-3.167-1.167","vyhe9ps38qy4qdp",662,"195.csv","","null","resources/maskTrios/BT4B.jpg","null","",NA,NA,NA,NA,""
"image-keyboard-response",514,398876,"0.0-3.167-2.167","vyhe9ps38qy4qdp",662,"195.csv","","null","resources/images/coin2.png","null","",NA,NA,NA,NA,""
"image-keyboard-response",515,399390,"0.0-3.168-0.168","vyhe9ps38qy4qdp",662,"195.csv","","511.60000002384186","resources/trios/L1T2A3.jpg","39","restless",0.5,0.4,0.4,0.162781732552943,"true"
"image-keyboard-response",516,399793,"0.0-3.168-1.168","vyhe9ps38qy4qdp",662,"195.csv","","null","resources/maskTrios/BBA3.jpg","null","",NA,NA,NA,NA,""
"image-keyboard-response",517,401005,"0.0-3.168-2.168","vyhe9ps38qy4qdp",662,"195.csv","","null","resources/images/coin2.png","null","",NA,NA,NA,NA,""
"image-keyboard-response",518,401076,"0.0-3.169-0.169","vyhe9ps38qy4qdp",662,"195.csv","","68.59999996423721","resources/trios/L4T4A3.jpg","38","restless",0.5,0.4,0.4,0.0522689780903893,"true"
"image-keyboard-response",519,401482,"0.0-3.169-1.169","vyhe9ps38qy4qdp",662,"195.csv","","null","resources/maskTrios/BT4B.jpg","null","",NA,NA,NA,NA,""
"image-keyboard-response",520,402692,"0.0-3.169-2.169","vyhe9ps38qy4qdp",662,"195.csv","","null","resources/images/coin2.png","null","",NA,NA,NA,NA,""
"image-keyboard-response",521,402900,"0.0-3.170-0.170","vyhe9ps38qy4qdp",662,"195.csv","","205.30000001192093","resources/trios/L1T4A3.jpg","39","restless",0.4,0.4,0.4,0.126099400678614,"true"
"image-keyboard-response",522,403309,"0.0-3.170-1.170","vyhe9ps38qy4qdp",662,"195.csv","","null","resources/maskTrios/BBA3.jpg","null","",NA,NA,NA,NA,""
"image-keyboard-response",523,404516,"0.0-3.170-2.170","vyhe9ps38qy4qdp",662,"195.csv","","null","resources/images/coin2.png","null","",NA,NA,NA,NA,""
"image-keyboard-response",524,404828,"0.0-3.171-0.171","vyhe9ps38qy4qdp",662,"195.csv","","309.60000002384186","resources/trios/L1T4A2.jpg","37","restless",0.4,0.4,0.4,0.28925539344624,"true"
"image-keyboard-response",525,405238,"0.0-3.171-1.171","vyhe9ps38qy4qdp",662,"195.csv","","null","resources/maskTrios/L1BB.jpg","null","",NA,NA,NA,NA,""
"image-keyboard-response",526,406443,"0.0-3.171-2.171","vyhe9ps38qy4qdp",662,"195.csv","","null","resources/images/coin2.png","null","",NA,NA,NA,NA,""
"image-keyboard-response",527,406974,"0.0-3.172-0.172","vyhe9ps38qy4qdp",662,"195.csv","","529.3000000119209","resources/trios/L1T4A2.jpg","38","restless",0.4,0.4,0.4,0.541458576790087,"false"
"image-keyboard-response",528,407381,"0.0-3.172-1.172","vyhe9ps38qy4qdp",662,"195.csv","","null","resources/maskTrios/BT4B.jpg","null","",NA,NA,NA,NA,""
"image-keyboard-response",529,408590,"0.0-3.172-2.172","vyhe9ps38qy4qdp",662,"195.csv","","null","resources/images/fishbone.png","null","",NA,NA,NA,NA,""
"image-keyboard-response",530,409071,"0.0-3.173-0.173","vyhe9ps38qy4qdp",662,"195.csv","","479.19999998807907","resources/trios/L4T4A3.jpg","39","restless",0.4,0.4,0.4,0.146014388505453,"true"
"image-keyboard-response",531,409482,"0.0-3.173-1.173","vyhe9ps38qy4qdp",662,"195.csv","","null","resources/maskTrios/BBA3.jpg","null","",NA,NA,NA,NA,""
"image-keyboard-response",532,410691,"0.0-3.173-2.173","vyhe9ps38qy4qdp",662,"195.csv","","null","resources/images/coin2.png","null","",NA,NA,NA,NA,""
"image-keyboard-response",533,410847,"0.0-3.174-0.174","vyhe9ps38qy4qdp",662,"195.csv","","154.19999998807907","resources/trios/L1T4A3.jpg","37","restless",0.4,0.4,0.4,0.764124116907056,"false"
"image-keyboard-response",534,411259,"0.0-3.174-1.174","vyhe9ps38qy4qdp",662,"195.csv","","null","resources/maskTrios/L1BB.jpg","null","",NA,NA,NA,NA,""
"image-keyboard-response",535,412461,"0.0-3.174-2.174","vyhe9ps38qy4qdp",662,"195.csv","","null","resources/images/fishbone.png","null","",NA,NA,NA,NA,""
"image-keyboard-response",536,412716,"0.0-3.175-0.175","vyhe9ps38qy4qdp",662,"195.csv","","252.80000001192093","resources/trios/L4T2A2.jpg","38","restless",0.4,0.4,0.4,0.507052646480257,"false"
"image-keyboard-response",537,413126,"0.0-3.175-1.175","vyhe9ps38qy4qdp",662,"195.csv","","null","resources/maskTrios/BT2B.jpg","null","",NA,NA,NA,NA,""
"image-keyboard-response",538,414331,"0.0-3.175-2.175","vyhe9ps38qy4qdp",662,"195.csv","","null","resources/images/fishbone.png","null","",NA,NA,NA,NA,""
"image-keyboard-response",539,414794,"0.0-3.176-0.176","vyhe9ps38qy4qdp",662,"195.csv","","462.30000001192093","resources/trios/L4T2A3.jpg","39","restless",0.4,0.4,0.4,0.918163775921098,"false"
"image-keyboard-response",540,415201,"0.0-3.176-1.176","vyhe9ps38qy4qdp",662,"195.csv","","null","resources/maskTrios/BBA3.jpg","null","",NA,NA,NA,NA,""
"image-keyboard-response",541,416409,"0.0-3.176-2.176","vyhe9ps38qy4qdp",662,"195.csv","","null","resources/images/fishbone.png","null","",NA,NA,NA,NA,""
"image-keyboard-response",542,416717,"0.0-3.177-0.177","vyhe9ps38qy4qdp",662,"195.csv","","307.5999999642372","resources/trios/L4T2A2.jpg","38","restless",0.4,0.4,0.4,0.903500517029298,"false"
"image-keyboard-response",543,417131,"0.0-3.177-1.177","vyhe9ps38qy4qdp",662,"195.csv","","null","resources/maskTrios/BT2B.jpg","null","",NA,NA,NA,NA,""
"image-keyboard-response",544,418335,"0.0-3.177-2.177","vyhe9ps38qy4qdp",662,"195.csv","","null","resources/images/fishbone.png","null","",NA,NA,NA,NA,""
"image-keyboard-response",545,418599,"0.0-3.178-0.178","vyhe9ps38qy4qdp",662,"195.csv","","262.30000001192093","resources/trios/L1T4A3.jpg","37","restless",0.4,0.5,0.4,0.799374391439065,"false"
"image-keyboard-response",546,419008,"0.0-3.178-1.178","vyhe9ps38qy4qdp",662,"195.csv","","null","resources/maskTrios/L1BB.jpg","null","",NA,NA,NA,NA,""
"image-keyboard-response",547,420210,"0.0-3.178-2.178","vyhe9ps38qy4qdp",662,"195.csv","","null","resources/images/fishbone.png","null","",NA,NA,NA,NA,""
"image-keyboard-response",548,420288,"0.0-3.179-0.179","vyhe9ps38qy4qdp",662,"195.csv","","75.69999998807907","resources/trios/L4T2A2.jpg","37","restless",0.4,0.5,0.4,0.80965419274257,"false"
"image-keyboard-response",549,420699,"0.0-3.179-1.179","vyhe9ps38qy4qdp",662,"195.csv","","null","resources/maskTrios/L4BB.jpg","null","",NA,NA,NA,NA,""
"image-keyboard-response",550,421909,"0.0-3.179-2.179","vyhe9ps38qy4qdp",662,"195.csv","","null","resources/images/fishbone.png","null","",NA,NA,NA,NA,""
"image-keyboard-response",551,422069,"0.0-3.180-0.180","vyhe9ps38qy4qdp",662,"195.csv","","158.60000002384186","resources/trios/L1T4A3.jpg","38","restless",0.4,0.5,0.4,0.917535479221634,"false"
"image-keyboard-response",552,422475,"0.0-3.180-1.180","vyhe9ps38qy4qdp",662,"195.csv","","null","resources/maskTrios/BT4B.jpg","null","",NA,NA,NA,NA,""
"image-keyboard-response",553,423680,"0.0-3.180-2.180","vyhe9ps38qy4qdp",662,"195.csv","","null","resources/images/fishbone.png","null","",NA,NA,NA,NA,""
"image-keyboard-response",554,424124,"0.0-3.181-0.181","vyhe9ps38qy4qdp",662,"195.csv","","442.2000000476837","resources/trios/L1T4A2.jpg","39","restless",0.4,0.5,0.4,0.591847309383404,"false"
"image-keyboard-response",555,424529,"0.0-3.181-1.181","vyhe9ps38qy4qdp",662,"195.csv","","null","resources/maskTrios/BBA2.jpg","null","",NA,NA,NA,NA,""
"image-keyboard-response",556,425738,"0.0-3.181-2.181","vyhe9ps38qy4qdp",662,"195.csv","","null","resources/images/fishbone.png","null","",NA,NA,NA,NA,""
"image-keyboard-response",557,425901,"0.0-3.182-0.182","vyhe9ps38qy4qdp",662,"195.csv","","161.70000004768372","resources/trios/L1T2A2.jpg","38","restless",0.4,0.5,0.5,0.3960451841752,"true"
"image-keyboard-response",558,426311,"0.0-3.182-1.182","vyhe9ps38qy4qdp",662,"195.csv","","null","resources/maskTrios/BT2B.jpg","null","",NA,NA,NA,NA,""
"image-keyboard-response",559,427521,"0.0-3.182-2.182","vyhe9ps38qy4qdp",662,"195.csv","","null","resources/images/coin2.png","null","",NA,NA,NA,NA,""
"image-keyboard-response",560,427555,"0.0-3.183-0.183","vyhe9ps38qy4qdp",662,"195.csv","","31.599999964237213","resources/trios/L1T2A3.jpg","39","restless",0.4,0.5,0.5,0.963588189559398,"false"
"image-keyboard-response",561,427969,"0.0-3.183-1.183","vyhe9ps38qy4qdp",662,"195.csv","","null","resources/maskTrios/BBA3.jpg","null","",NA,NA,NA,NA,""
"image-keyboard-response",562,429176,"0.0-3.183-2.183","vyhe9ps38qy4qdp",662,"195.csv","","null","resources/images/fishbone.png","null","",NA,NA,NA,NA,""
"image-keyboard-response",563,430074,"0.0-3.184-0.184","vyhe9ps38qy4qdp",662,"195.csv","","896.6999999880791","resources/trios/L1T4A3.jpg","39","restless",0.4,0.6,0.5,0.472243282724267,"true"
"image-keyboard-response",564,430485,"0.0-3.184-1.184","vyhe9ps38qy4qdp",662,"195.csv","","null","resources/maskTrios/BBA3.jpg","null","",NA,NA,NA,NA,""
"image-keyboard-response",565,431691,"0.0-3.184-2.184","vyhe9ps38qy4qdp",662,"195.csv","","null","resources/images/coin2.png","null","",NA,NA,NA,NA,""
"image-keyboard-response",566,433358,"0.0-3.185-0.185","vyhe9ps38qy4qdp",662,"195.csv","","1665.5","resources/trios/L1T4A3.jpg","37","restless",0.3,0.6,0.5,0.188143978946587,"true"
"image-keyboard-response",567,433762,"0.0-3.185-1.185","vyhe9ps38qy4qdp",662,"195.csv","","null","resources/maskTrios/L1BB.jpg","null","",NA,NA,NA,NA,""
"image-keyboard-response",568,434973,"0.0-3.185-2.185","vyhe9ps38qy4qdp",662,"195.csv","","null","resources/images/coin2.png","null","",NA,NA,NA,NA,""
"image-keyboard-response",569,436352,"0.0-3.186-0.186","vyhe9ps38qy4qdp",662,"195.csv","","1378.0999999642372","resources/trios/L1T2A2.jpg","39","restless",0.3,0.6,0.5,0.75779603020756,"false"
"image-keyboard-response",570,436764,"0.0-3.186-1.186","vyhe9ps38qy4qdp",662,"195.csv","","null","resources/maskTrios/BBA2.jpg","null","",NA,NA,NA,NA,""
"image-keyboard-response",571,437971,"0.0-3.186-2.186","vyhe9ps38qy4qdp",662,"195.csv","","null","resources/images/fishbone.png","null","",NA,NA,NA,NA,""
"image-keyboard-response",572,438545,"0.0-3.187-0.187","vyhe9ps38qy4qdp",662,"195.csv","","571.4000000357628","resources/trios/L4T4A2.jpg","38","restless",0.3,0.6,0.5,0.246960286388318,"true"
"image-keyboard-response",573,438954,"0.0-3.187-1.187","vyhe9ps38qy4qdp",662,"195.csv","","null","resources/maskTrios/BT4B.jpg","null","",NA,NA,NA,NA,""
"image-keyboard-response",574,440159,"0.0-3.187-2.187","vyhe9ps38qy4qdp",662,"195.csv","","null","resources/images/coin2.png","null","",NA,NA,NA,NA,""
"image-keyboard-response",575,441094,"0.0-3.188-0.188","vyhe9ps38qy4qdp",662,"195.csv","","932.5","resources/trios/L4T2A2.jpg","38","restless",0.3,0.6,0.5,0.582759751069904,"true"
"image-keyboard-response",576,441503,"0.0-3.188-1.188","vyhe9ps38qy4qdp",662,"195.csv","","null","resources/maskTrios/BT2B.jpg","null","",NA,NA,NA,NA,""
"image-keyboard-response",577,442713,"0.0-3.188-2.188","vyhe9ps38qy4qdp",662,"195.csv","","null","resources/images/coin2.png","null","",NA,NA,NA,NA,""
"image-keyboard-response",578,442994,"0.0-3.189-0.189","vyhe9ps38qy4qdp",662,"195.csv","","278.5","resources/trios/L4T2A2.jpg","38","restless",0.3,0.6,0.5,0.883661845425977,"false"
"image-keyboard-response",579,443398,"0.0-3.189-1.189","vyhe9ps38qy4qdp",662,"195.csv","","null","resources/maskTrios/BT2B.jpg","null","",NA,NA,NA,NA,""
"image-keyboard-response",580,444610,"0.0-3.189-2.189","vyhe9ps38qy4qdp",662,"195.csv","","null","resources/images/fishbone.png","null","",NA,NA,NA,NA,""
"image-keyboard-response",581,445579,"0.0-3.190-0.190","vyhe9ps38qy4qdp",662,"195.csv","","967.1999999880791","resources/trios/L1T4A3.jpg","37","restless",0.3,0.6,0.5,0.777142575746131,"false"
"image-keyboard-response",582,445994,"0.0-3.190-1.190","vyhe9ps38qy4qdp",662,"195.csv","","null","resources/maskTrios/L1BB.jpg","null","",NA,NA,NA,NA,""
"image-keyboard-response",583,447201,"0.0-3.190-2.190","vyhe9ps38qy4qdp",662,"195.csv","","null","resources/images/fishbone.png","null","",NA,NA,NA,NA,""
"image-keyboard-response",584,447283,"0.0-3.191-0.191","vyhe9ps38qy4qdp",662,"195.csv","","80.60000002384186","resources/trios/L1T2A3.jpg","39","restless",0.3,0.6,0.4,0.168254242879315,"true"
"image-keyboard-response",585,447695,"0.0-3.191-1.191","vyhe9ps38qy4qdp",662,"195.csv","","null","resources/maskTrios/BBA3.jpg","null","",NA,NA,NA,NA,""
"image-keyboard-response",586,448901,"0.0-3.191-2.191","vyhe9ps38qy4qdp",662,"195.csv","","null","resources/images/coin2.png","null","",NA,NA,NA,NA,""
"image-keyboard-response",587,449216,"0.0-3.192-0.192","vyhe9ps38qy4qdp",662,"195.csv","","314.0999999642372","resources/trios/L1T2A2.jpg","38","restless",0.3,0.6,0.4,0.0209325648594014,"true"
"image-keyboard-response",588,449621,"0.0-3.192-1.192","vyhe9ps38qy4qdp",662,"195.csv","","null","resources/maskTrios/BT2B.jpg","null","",NA,NA,NA,NA,""
"image-keyboard-response",589,450832,"0.0-3.192-2.192","vyhe9ps38qy4qdp",662,"195.csv","","null","resources/images/coin2.png","null","",NA,NA,NA,NA,""
"image-keyboard-response",590,451019,"0.0-3.193-0.193","vyhe9ps38qy4qdp",662,"195.csv","","184.9000000357628","resources/trios/L1T2A2.jpg","38","restless",0.3,0.6,0.3,0.312454519344305,"true"
"image-keyboard-response",591,451431,"0.0-3.193-1.193","vyhe9ps38qy4qdp",662,"195.csv","","null","resources/maskTrios/BT2B.jpg","null","",NA,NA,NA,NA,""
"image-keyboard-response",592,452637,"0.0-3.193-2.193","vyhe9ps38qy4qdp",662,"195.csv","","null","resources/images/coin2.png","null","",NA,NA,NA,NA,""
"image-keyboard-response",593,452883,"0.0-3.194-0.194","vyhe9ps38qy4qdp",662,"195.csv","","243.79999995231628","resources/trios/L1T4A2.jpg","37","restless",0.3,0.6,0.3,0.586124021541304,"false"
"image-keyboard-response",594,453294,"0.0-3.194-1.194","vyhe9ps38qy4qdp",662,"195.csv","","null","resources/maskTrios/L1BB.jpg","null","",NA,NA,NA,NA,""
"image-keyboard-response",595,454500,"0.0-3.194-2.194","vyhe9ps38qy4qdp",662,"195.csv","","null","resources/images/fishbone.png","null","",NA,NA,NA,NA,""
"image-keyboard-response",596,454656,"0.0-3.195-0.195","vyhe9ps38qy4qdp",662,"195.csv","","154","resources/trios/L1T4A3.jpg","38","restless",0.3,0.6,0.3,0.386238776020191,"true"
"image-keyboard-response",597,455062,"0.0-3.195-1.195","vyhe9ps38qy4qdp",662,"195.csv","","null","resources/maskTrios/BT4B.jpg","null","",NA,NA,NA,NA,""
"image-keyboard-response",598,456268,"0.0-3.195-2.195","vyhe9ps38qy4qdp",662,"195.csv","","null","resources/images/coin2.png","null","",NA,NA,NA,NA,""
"image-keyboard-response",599,456713,"0.0-3.196-0.196","vyhe9ps38qy4qdp",662,"195.csv","","443.19999998807907","resources/trios/L1T4A3.jpg","39","restless",0.2,0.7,0.3,0.44586840648482,"false"
"image-keyboard-response",600,457127,"0.0-3.196-1.196","vyhe9ps38qy4qdp",662,"195.csv","","null","resources/maskTrios/BBA3.jpg","null","",NA,NA,NA,NA,""
"image-keyboard-response",601,458333,"0.0-3.196-2.196","vyhe9ps38qy4qdp",662,"195.csv","","null","resources/images/fishbone.png","null","",NA,NA,NA,NA,""
"image-keyboard-response",602,458462,"0.0-3.197-0.197","vyhe9ps38qy4qdp",662,"195.csv","","126.19999998807907","resources/trios/L4T4A2.jpg","38","restless",0.2,0.7,0.4,0.309165819068237,"true"
"image-keyboard-response",603,458867,"0.0-3.197-1.197","vyhe9ps38qy4qdp",662,"195.csv","","null","resources/maskTrios/BT4B.jpg","null","",NA,NA,NA,NA,""
"image-keyboard-response",604,460077,"0.0-3.197-2.197","vyhe9ps38qy4qdp",662,"195.csv","","null","resources/images/coin2.png","null","",NA,NA,NA,NA,""
"image-keyboard-response",605,460300,"0.0-3.198-0.198","vyhe9ps38qy4qdp",662,"195.csv","","221.39999997615814","resources/trios/L1T4A2.jpg","37","restless",0.2,0.7,0.3,0.721798843817939,"false"
