"trial_type","trial_index","time_elapsed","internal_node_id","subject","participantCode","walkNumber","success","rt","stimulus","key_press","test_part","leftProb","midProb","rightProb","generatedNum","correct"
"pavlovia",0,1560,"0.0-0.0","4ursmu04plgwwrl",83,"140.csv","","","","","",NA,NA,NA,NA,""
"fullscreen",1,10304,"0.0-1.0","4ursmu04plgwwrl",83,"140.csv","true","","","","",NA,NA,NA,NA,""
"html-keyboard-response",2,89533,"0.0-2.0-0.0","4ursmu04plgwwrl",83,"140.csv","","79228","<p><font size='6'>Arrrgh!</p></font><p>Can you be the best pirate? Try to find lots of gold! But beware, some islands have more gold than others, and over time, the island with the most gold may change. Can YOU figure it out? </p><font size='6'>GOOD LUCK, CAPTAIN!!!</font><p>Press any key to begin</p>","32","",NA,NA,NA,NA,""
"image-keyboard-response",3,92536,"0.0-2.0-1.0","4ursmu04plgwwrl",83,"140.csv","","null","resources/image_sets/111.png","null","",NA,NA,NA,NA,""
"image-keyboard-response",4,186211,"0.0-2.0-2.0","4ursmu04plgwwrl",83,"140.csv","","93675","resources/image_sets/left_highlight.png","37","",NA,NA,NA,NA,""
"image-keyboard-response",5,188316,"0.0-2.0-3.0","4ursmu04plgwwrl",83,"140.csv","","2104","resources/image_sets/mid_highlight.png","38","",NA,NA,NA,NA,""
"image-keyboard-response",6,190046,"0.0-2.0-4.0","4ursmu04plgwwrl",83,"140.csv","","1729","resources/image_sets/right_highlight.png","39","",NA,NA,NA,NA,""
"image-keyboard-response",7,199951,"0.0-2.0-5.0","4ursmu04plgwwrl",83,"140.csv","","9904","resources/image_sets/111.png","13","",NA,NA,NA,NA,""
"image-keyboard-response",8,243997,"0.0-2.0-6.0","4ursmu04plgwwrl",83,"140.csv","","44044.99999999997","resources/images/coin2.png","13","",NA,NA,NA,NA,""
"image-keyboard-response",9,247527,"0.0-2.0-7.0","4ursmu04plgwwrl",83,"140.csv","","3529","resources/images/fishbone.png","13","",NA,NA,NA,NA,""
"html-keyboard-response",10,263261,"0.0-2.0-8.0","4ursmu04plgwwrl",83,"140.csv","","15733","<p>Your first journey will be a long one, but you will get a well deserved break at the end</p><p>After the break you will have four more journeys, but each will be much shorter than the first, and you will have breaks in between each</p><p>Press Enter to begin</p>","13","",NA,NA,NA,NA,""
"image-keyboard-response",11,265088,"0.0-3.0-0.0","4ursmu04plgwwrl",83,"140.csv","","1825","resources/trios/L1T1A3.jpg","39","restless",0.7,0.3,0.9,0.768723552023085,"true"
"image-keyboard-response",12,265491,"0.0-3.0-1.0","4ursmu04plgwwrl",83,"140.csv","","null","resources/maskTrios/BBA3.jpg","null","",NA,NA,NA,NA,""
"image-keyboard-response",13,266694,"0.0-3.0-2.0","4ursmu04plgwwrl",83,"140.csv","","null","resources/images/coin2.png","null","",NA,NA,NA,NA,""
"image-keyboard-response",14,269604,"0.0-3.1-0.1","4ursmu04plgwwrl",83,"140.csv","","2908","resources/trios/L1T4A2.jpg","37","restless",0.7,0.2,0.9,0.909722713566015,"false"
"image-keyboard-response",15,270007,"0.0-3.1-1.1","4ursmu04plgwwrl",83,"140.csv","","null","resources/maskTrios/L1BB.jpg","null","",NA,NA,NA,NA,""
"image-keyboard-response",16,271209,"0.0-3.1-2.1","4ursmu04plgwwrl",83,"140.csv","","null","resources/images/fishbone.png","null","",NA,NA,NA,NA,""
"image-keyboard-response",17,271689,"0.0-3.2-0.2","4ursmu04plgwwrl",83,"140.csv","","478","resources/trios/L4T4A2.jpg","38","restless",0.7,0.1,0.9,0.536448590535466,"false"
"image-keyboard-response",18,272092,"0.0-3.2-1.2","4ursmu04plgwwrl",83,"140.csv","","null","resources/maskTrios/BT4B.jpg","null","",NA,NA,NA,NA,""
"image-keyboard-response",19,273294,"0.0-3.2-2.2","4ursmu04plgwwrl",83,"140.csv","","null","resources/images/fishbone.png","null","",NA,NA,NA,NA,""
"image-keyboard-response",20,273819,"0.0-3.3-0.3","4ursmu04plgwwrl",83,"140.csv","","525","resources/trios/L4T1A2.jpg","39","restless",0.7,0.2,0.8,0.513102773318467,"true"
"image-keyboard-response",21,274222,"0.0-3.3-1.3","4ursmu04plgwwrl",83,"140.csv","","null","resources/maskTrios/BBA2.jpg","null","",NA,NA,NA,NA,""
"image-keyboard-response",22,275424,"0.0-3.3-2.3","4ursmu04plgwwrl",83,"140.csv","","null","resources/images/coin2.png","null","",NA,NA,NA,NA,""
"image-keyboard-response",23,277077,"0.0-3.4-0.4","4ursmu04plgwwrl",83,"140.csv","","1650.9999999999418","resources/trios/L1T4A2.jpg","39","restless",0.7,0.1,0.8,0.74336493230884,"true"
"image-keyboard-response",24,277479,"0.0-3.4-1.4","4ursmu04plgwwrl",83,"140.csv","","null","resources/maskTrios/BBA2.jpg","null","",NA,NA,NA,NA,""
"image-keyboard-response",25,278681,"0.0-3.4-2.4","4ursmu04plgwwrl",83,"140.csv","","null","resources/images/coin2.png","null","",NA,NA,NA,NA,""
"image-keyboard-response",26,279158,"0.0-3.5-0.5","4ursmu04plgwwrl",83,"140.csv","","475","resources/trios/L4T1A2.jpg","39","restless",0.6,0.1,0.8,0.401264232650112,"true"
"image-keyboard-response",27,279560,"0.0-3.5-1.5","4ursmu04plgwwrl",83,"140.csv","","null","resources/maskTrios/BBA2.jpg","null","",NA,NA,NA,NA,""
"image-keyboard-response",28,280763,"0.0-3.5-2.5","4ursmu04plgwwrl",83,"140.csv","","null","resources/images/coin2.png","null","",NA,NA,NA,NA,""
"image-keyboard-response",29,281333,"0.0-3.6-0.6","4ursmu04plgwwrl",83,"140.csv","","569","resources/trios/L1T4A3.jpg","39","restless",0.6,0.1,0.8,0.107673579258181,"true"
"image-keyboard-response",30,281736,"0.0-3.6-1.6","4ursmu04plgwwrl",83,"140.csv","","null","resources/maskTrios/BBA3.jpg","null","",NA,NA,NA,NA,""
"image-keyboard-response",31,282938,"0.0-3.6-2.6","4ursmu04plgwwrl",83,"140.csv","","null","resources/images/coin2.png","null","",NA,NA,NA,NA,""
"image-keyboard-response",32,283568,"0.0-3.7-0.7","4ursmu04plgwwrl",83,"140.csv","","629","resources/trios/L1T1A2.jpg","39","restless",0.6,0.1,0.7,0.877489978851319,"false"
"image-keyboard-response",33,283970,"0.0-3.7-1.7","4ursmu04plgwwrl",83,"140.csv","","null","resources/maskTrios/BBA2.jpg","null","",NA,NA,NA,NA,""
"image-keyboard-response",34,285172,"0.0-3.7-2.7","4ursmu04plgwwrl",83,"140.csv","","null","resources/images/fishbone.png","null","",NA,NA,NA,NA,""
"image-keyboard-response",35,287072,"0.0-3.8-0.8","4ursmu04plgwwrl",83,"140.csv","","1899","resources/trios/L1T1A3.jpg","37","restless",0.6,0.1,0.7,0.91623930741583,"false"
"image-keyboard-response",36,287474,"0.0-3.8-1.8","4ursmu04plgwwrl",83,"140.csv","","null","resources/maskTrios/L1BB.jpg","null","",NA,NA,NA,NA,""
"image-keyboard-response",37,288676,"0.0-3.8-2.8","4ursmu04plgwwrl",83,"140.csv","","null","resources/images/fishbone.png","null","",NA,NA,NA,NA,""
"image-keyboard-response",38,289010,"0.0-3.9-0.9","4ursmu04plgwwrl",83,"140.csv","","332","resources/trios/L4T4A3.jpg","38","restless",0.6,0.1,0.7,0.271458769270994,"false"
"image-keyboard-response",39,289412,"0.0-3.9-1.9","4ursmu04plgwwrl",83,"140.csv","","null","resources/maskTrios/BT4B.jpg","null","",NA,NA,NA,NA,""
"image-keyboard-response",40,290614,"0.0-3.9-2.9","4ursmu04plgwwrl",83,"140.csv","","null","resources/images/fishbone.png","null","",NA,NA,NA,NA,""
"image-keyboard-response",41,291038,"0.0-3.10-0.10","4ursmu04plgwwrl",83,"140.csv","","421.9999999999418","resources/trios/L4T1A2.jpg","39","restless",0.6,0.1,0.7,0.190742116137057,"true"
"image-keyboard-response",42,291440,"0.0-3.10-1.10","4ursmu04plgwwrl",83,"140.csv","","null","resources/maskTrios/BBA2.jpg","null","",NA,NA,NA,NA,""
"image-keyboard-response",43,292642,"0.0-3.10-2.10","4ursmu04plgwwrl",83,"140.csv","","null","resources/images/coin2.png","null","",NA,NA,NA,NA,""
"image-keyboard-response",44,293240,"0.0-3.11-0.11","4ursmu04plgwwrl",83,"140.csv","","597.0000000000582","resources/trios/L4T4A3.jpg","39","restless",0.6,0.1,0.7,0.682628053924349,"true"
"image-keyboard-response",45,293642,"0.0-3.11-1.11","4ursmu04plgwwrl",83,"140.csv","","null","resources/maskTrios/BBA3.jpg","null","",NA,NA,NA,NA,""
"image-keyboard-response",46,294843,"0.0-3.11-2.11","4ursmu04plgwwrl",83,"140.csv","","null","resources/images/coin2.png","null","",NA,NA,NA,NA,""
"image-keyboard-response",47,296573,"0.0-3.12-0.12","4ursmu04plgwwrl",83,"140.csv","","1728","resources/trios/L4T4A3.jpg","39","restless",0.6,0.1,0.7,0.878826511192371,"false"
"image-keyboard-response",48,296975,"0.0-3.12-1.12","4ursmu04plgwwrl",83,"140.csv","","null","resources/maskTrios/BBA3.jpg","null","",NA,NA,NA,NA,""
"image-keyboard-response",49,298178,"0.0-3.12-2.12","4ursmu04plgwwrl",83,"140.csv","","null","resources/images/fishbone.png","null","",NA,NA,NA,NA,""
"image-keyboard-response",50,298760,"0.0-3.13-0.13","4ursmu04plgwwrl",83,"140.csv","","580","resources/trios/L4T4A3.jpg","38","restless",0.6,0.1,0.7,0.880740236964343,"false"
"image-keyboard-response",51,299163,"0.0-3.13-1.13","4ursmu04plgwwrl",83,"140.csv","","null","resources/maskTrios/BT4B.jpg","null","",NA,NA,NA,NA,""
"image-keyboard-response",52,300365,"0.0-3.13-2.13","4ursmu04plgwwrl",83,"140.csv","","null","resources/images/fishbone.png","null","",NA,NA,NA,NA,""
"image-keyboard-response",53,300748,"0.0-3.14-0.14","4ursmu04plgwwrl",83,"140.csv","","381","resources/trios/L1T4A3.jpg","37","restless",0.6,0.1,0.7,0.622458364101981,"false"
"image-keyboard-response",54,301149,"0.0-3.14-1.14","4ursmu04plgwwrl",83,"140.csv","","null","resources/maskTrios/L1BB.jpg","null","",NA,NA,NA,NA,""
"image-keyboard-response",55,302351,"0.0-3.14-2.14","4ursmu04plgwwrl",83,"140.csv","","null","resources/images/fishbone.png","null","",NA,NA,NA,NA,""
"image-keyboard-response",56,302638,"0.0-3.15-0.15","4ursmu04plgwwrl",83,"140.csv","","285","resources/trios/L1T4A3.jpg","39","restless",0.6,0.1,0.7,0.678961833521304,"true"
"image-keyboard-response",57,303040,"0.0-3.15-1.15","4ursmu04plgwwrl",83,"140.csv","","null","resources/maskTrios/BBA3.jpg","null","",NA,NA,NA,NA,""
"image-keyboard-response",58,304242,"0.0-3.15-2.15","4ursmu04plgwwrl",83,"140.csv","","null","resources/images/coin2.png","null","",NA,NA,NA,NA,""
"image-keyboard-response",59,305915,"0.0-3.16-0.16","4ursmu04plgwwrl",83,"140.csv","","1671","resources/trios/L1T4A2.jpg","39","restless",0.6,0.1,0.7,0.123061625180639,"true"
"image-keyboard-response",60,306317,"0.0-3.16-1.16","4ursmu04plgwwrl",83,"140.csv","","null","resources/maskTrios/BBA2.jpg","null","",NA,NA,NA,NA,""
"image-keyboard-response",61,307519,"0.0-3.16-2.16","4ursmu04plgwwrl",83,"140.csv","","null","resources/images/coin2.png","null","",NA,NA,NA,NA,""
"image-keyboard-response",62,308628,"0.0-3.17-0.17","4ursmu04plgwwrl",83,"140.csv","","1107.0000000000582","resources/trios/L4T4A3.jpg","39","restless",0.6,0.1,0.7,0.173654798833082,"true"
"image-keyboard-response",63,309030,"0.0-3.17-1.17","4ursmu04plgwwrl",83,"140.csv","","null","resources/maskTrios/BBA3.jpg","null","",NA,NA,NA,NA,""
"image-keyboard-response",64,310233,"0.0-3.17-2.17","4ursmu04plgwwrl",83,"140.csv","","null","resources/images/coin2.png","null","",NA,NA,NA,NA,""
"image-keyboard-response",65,339647,"0.0-3.18-0.18","4ursmu04plgwwrl",83,"140.csv","","29413","resources/trios/L4T4A3.jpg","39","restless",0.6,0.1,0.7,0.395545691128897,"true"
"image-keyboard-response",66,340049,"0.0-3.18-1.18","4ursmu04plgwwrl",83,"140.csv","","null","resources/maskTrios/BBA3.jpg","null","",NA,NA,NA,NA,""
"image-keyboard-response",67,341252,"0.0-3.18-2.18","4ursmu04plgwwrl",83,"140.csv","","null","resources/images/coin2.png","null","",NA,NA,NA,NA,""
"image-keyboard-response",68,341703,"0.0-3.19-0.19","4ursmu04plgwwrl",83,"140.csv","","450","resources/trios/L4T4A3.jpg","39","restless",0.6,0.1,0.7,0.58552685660038,"true"
"image-keyboard-response",69,342105,"0.0-3.19-1.19","4ursmu04plgwwrl",83,"140.csv","","null","resources/maskTrios/BBA3.jpg","null","",NA,NA,NA,NA,""
"image-keyboard-response",70,343308,"0.0-3.19-2.19","4ursmu04plgwwrl",83,"140.csv","","null","resources/images/coin2.png","null","",NA,NA,NA,NA,""
"image-keyboard-response",71,344101,"0.0-3.20-0.20","4ursmu04plgwwrl",83,"140.csv","","792","resources/trios/L1T4A3.jpg","39","restless",0.6,0.1,0.7,0.69225750290737,"true"
"image-keyboard-response",72,344504,"0.0-3.20-1.20","4ursmu04plgwwrl",83,"140.csv","","null","resources/maskTrios/BBA3.jpg","null","",NA,NA,NA,NA,""
"image-keyboard-response",73,345706,"0.0-3.20-2.20","4ursmu04plgwwrl",83,"140.csv","","null","resources/images/coin2.png","null","",NA,NA,NA,NA,""
"image-keyboard-response",74,346249,"0.0-3.21-0.21","4ursmu04plgwwrl",83,"140.csv","","542","resources/trios/L4T1A2.jpg","39","restless",0.6,0.1,0.7,0.319830747283302,"true"
"image-keyboard-response",75,346651,"0.0-3.21-1.21","4ursmu04plgwwrl",83,"140.csv","","null","resources/maskTrios/BBA2.jpg","null","",NA,NA,NA,NA,""
"image-keyboard-response",76,347854,"0.0-3.21-2.21","4ursmu04plgwwrl",83,"140.csv","","null","resources/images/coin2.png","null","",NA,NA,NA,NA,""
"image-keyboard-response",77,348313,"0.0-3.22-0.22","4ursmu04plgwwrl",83,"140.csv","","458","resources/trios/L4T1A3.jpg","39","restless",0.6,0.1,0.7,0.534309832604318,"true"
"image-keyboard-response",78,348715,"0.0-3.22-1.22","4ursmu04plgwwrl",83,"140.csv","","null","resources/maskTrios/BBA3.jpg","null","",NA,NA,NA,NA,""
"image-keyboard-response",79,349918,"0.0-3.22-2.22","4ursmu04plgwwrl",83,"140.csv","","null","resources/images/coin2.png","null","",NA,NA,NA,NA,""
"image-keyboard-response",80,350681,"0.0-3.23-0.23","4ursmu04plgwwrl",83,"140.csv","","762","resources/trios/L1T4A2.jpg","39","restless",0.6,0.1,0.7,0.503585679560244,"true"
"image-keyboard-response",81,351084,"0.0-3.23-1.23","4ursmu04plgwwrl",83,"140.csv","","null","resources/maskTrios/BBA2.jpg","null","",NA,NA,NA,NA,""
"image-keyboard-response",82,352286,"0.0-3.23-2.23","4ursmu04plgwwrl",83,"140.csv","","null","resources/images/coin2.png","null","",NA,NA,NA,NA,""
"image-keyboard-response",83,352721,"0.0-3.24-0.24","4ursmu04plgwwrl",83,"140.csv","","433","resources/trios/L1T4A3.jpg","39","restless",0.6,0.2,0.7,0.165117154468135,"true"
"image-keyboard-response",84,353123,"0.0-3.24-1.24","4ursmu04plgwwrl",83,"140.csv","","null","resources/maskTrios/BBA3.jpg","null","",NA,NA,NA,NA,""
"image-keyboard-response",85,354325,"0.0-3.24-2.24","4ursmu04plgwwrl",83,"140.csv","","null","resources/images/coin2.png","null","",NA,NA,NA,NA,""
"image-keyboard-response",86,354818,"0.0-3.25-0.25","4ursmu04plgwwrl",83,"140.csv","","491.0000000000582","resources/trios/L4T4A2.jpg","39","restless",0.6,0.2,0.7,0.946112391038357,"false"
"image-keyboard-response",87,355220,"0.0-3.25-1.25","4ursmu04plgwwrl",83,"140.csv","","null","resources/maskTrios/BBA2.jpg","null","",NA,NA,NA,NA,""
"image-keyboard-response",88,356422,"0.0-3.25-2.25","4ursmu04plgwwrl",83,"140.csv","","null","resources/images/fishbone.png","null","",NA,NA,NA,NA,""
"image-keyboard-response",89,357164,"0.0-3.26-0.26","4ursmu04plgwwrl",83,"140.csv","","740.0000000000582","resources/trios/L4T1A2.jpg","39","restless",0.6,0.2,0.7,0.0789123345213341,"true"
"image-keyboard-response",90,357566,"0.0-3.26-1.26","4ursmu04plgwwrl",83,"140.csv","","null","resources/maskTrios/BBA2.jpg","null","",NA,NA,NA,NA,""
"image-keyboard-response",91,358768,"0.0-3.26-2.26","4ursmu04plgwwrl",83,"140.csv","","null","resources/images/coin2.png","null","",NA,NA,NA,NA,""
"image-keyboard-response",92,359120,"0.0-3.27-0.27","4ursmu04plgwwrl",83,"140.csv","","351","resources/trios/L1T1A2.jpg","39","restless",0.6,0.2,0.7,0.98425287227321,"false"
"image-keyboard-response",93,359522,"0.0-3.27-1.27","4ursmu04plgwwrl",83,"140.csv","","null","resources/maskTrios/BBA2.jpg","null","",NA,NA,NA,NA,""
"image-keyboard-response",94,360724,"0.0-3.27-2.27","4ursmu04plgwwrl",83,"140.csv","","null","resources/images/fishbone.png","null","",NA,NA,NA,NA,""
"image-keyboard-response",95,361163,"0.0-3.28-0.28","4ursmu04plgwwrl",83,"140.csv","","438.0000000000582","resources/trios/L1T4A2.jpg","38","restless",0.6,0.2,0.7,0.728549197579351,"false"
"image-keyboard-response",96,361565,"0.0-3.28-1.28","4ursmu04plgwwrl",83,"140.csv","","null","resources/maskTrios/BT4B.jpg","null","",NA,NA,NA,NA,""
"image-keyboard-response",97,362767,"0.0-3.28-2.28","4ursmu04plgwwrl",83,"140.csv","","null","resources/images/fishbone.png","null","",NA,NA,NA,NA,""
"image-keyboard-response",98,363115,"0.0-3.29-0.29","4ursmu04plgwwrl",83,"140.csv","","347.0000000000582","resources/trios/L4T4A2.jpg","37","restless",0.6,0.3,0.7,0.332781570688723,"true"
"image-keyboard-response",99,363517,"0.0-3.29-1.29","4ursmu04plgwwrl",83,"140.csv","","null","resources/maskTrios/L4BB.jpg","null","",NA,NA,NA,NA,""
"image-keyboard-response",100,364720,"0.0-3.29-2.29","4ursmu04plgwwrl",83,"140.csv","","null","resources/images/coin2.png","null","",NA,NA,NA,NA,""
"image-keyboard-response",101,365095,"0.0-3.30-0.30","4ursmu04plgwwrl",83,"140.csv","","374","resources/trios/L4T4A2.jpg","37","restless",0.6,0.3,0.6,0.209301221813066,"true"
"image-keyboard-response",102,365497,"0.0-3.30-1.30","4ursmu04plgwwrl",83,"140.csv","","null","resources/maskTrios/L4BB.jpg","null","",NA,NA,NA,NA,""
"image-keyboard-response",103,366699,"0.0-3.30-2.30","4ursmu04plgwwrl",83,"140.csv","","null","resources/images/coin2.png","null","",NA,NA,NA,NA,""
"image-keyboard-response",104,367060,"0.0-3.31-0.31","4ursmu04plgwwrl",83,"140.csv","","359","resources/trios/L4T1A2.jpg","37","restless",0.6,0.4,0.6,0.873121529270879,"false"
"image-keyboard-response",105,367462,"0.0-3.31-1.31","4ursmu04plgwwrl",83,"140.csv","","null","resources/maskTrios/L4BB.jpg","null","",NA,NA,NA,NA,""
"image-keyboard-response",106,368664,"0.0-3.31-2.31","4ursmu04plgwwrl",83,"140.csv","","null","resources/images/fishbone.png","null","",NA,NA,NA,NA,""
"image-keyboard-response",107,369120,"0.0-3.32-0.32","4ursmu04plgwwrl",83,"140.csv","","455","resources/trios/L4T4A3.jpg","39","restless",0.5,0.4,0.6,0.931542937550311,"false"
"image-keyboard-response",108,369522,"0.0-3.32-1.32","4ursmu04plgwwrl",83,"140.csv","","null","resources/maskTrios/BBA3.jpg","null","",NA,NA,NA,NA,""
"image-keyboard-response",109,370724,"0.0-3.32-2.32","4ursmu04plgwwrl",83,"140.csv","","null","resources/images/fishbone.png","null","",NA,NA,NA,NA,""
"image-keyboard-response",110,370789,"0.0-3.33-0.33","4ursmu04plgwwrl",83,"140.csv","","63","resources/trios/L1T4A2.jpg","38","restless",0.5,0.4,0.6,0.0905333667186637,"true"
"image-keyboard-response",111,371192,"0.0-3.33-1.33","4ursmu04plgwwrl",83,"140.csv","","null","resources/maskTrios/BT4B.jpg","null","",NA,NA,NA,NA,""
"image-keyboard-response",112,372400,"0.0-3.33-2.33","4ursmu04plgwwrl",83,"140.csv","","null","resources/images/coin2.png","null","",NA,NA,NA,NA,""
"image-keyboard-response",113,372710,"0.0-3.34-0.34","4ursmu04plgwwrl",83,"140.csv","","306","resources/trios/L1T4A2.jpg","38","restless",0.5,0.4,0.6,0.634735233869527,"false"
"image-keyboard-response",114,373113,"0.0-3.34-1.34","4ursmu04plgwwrl",83,"140.csv","","null","resources/maskTrios/BT4B.jpg","null","",NA,NA,NA,NA,""
"image-keyboard-response",115,374315,"0.0-3.34-2.34","4ursmu04plgwwrl",83,"140.csv","","null","resources/images/fishbone.png","null","",NA,NA,NA,NA,""
"image-keyboard-response",116,374426,"0.0-3.35-0.35","4ursmu04plgwwrl",83,"140.csv","","110","resources/trios/L1T1A3.jpg","39","restless",0.5,0.4,0.6,0.806776534178609,"false"
"image-keyboard-response",117,374828,"0.0-3.35-1.35","4ursmu04plgwwrl",83,"140.csv","","null","resources/maskTrios/BBA3.jpg","null","",NA,NA,NA,NA,""
"image-keyboard-response",118,376030,"0.0-3.35-2.35","4ursmu04plgwwrl",83,"140.csv","","null","resources/images/fishbone.png","null","",NA,NA,NA,NA,""
"image-keyboard-response",119,376493,"0.0-3.36-0.36","4ursmu04plgwwrl",83,"140.csv","","461","resources/trios/L4T1A3.jpg","37","restless",0.5,0.4,0.6,0.213156356489024,"true"
"image-keyboard-response",120,376895,"0.0-3.36-1.36","4ursmu04plgwwrl",83,"140.csv","","null","resources/maskTrios/L4BB.jpg","null","",NA,NA,NA,NA,""
"image-keyboard-response",121,378097,"0.0-3.36-2.36","4ursmu04plgwwrl",83,"140.csv","","null","resources/images/coin2.png","null","",NA,NA,NA,NA,""
"image-keyboard-response",122,378359,"0.0-3.37-0.37","4ursmu04plgwwrl",83,"140.csv","","260.9999999999418","resources/trios/L1T4A3.jpg","37","restless",0.5,0.5,0.6,0.393939049887626,"true"
"image-keyboard-response",123,378761,"0.0-3.37-1.37","4ursmu04plgwwrl",83,"140.csv","","null","resources/maskTrios/L1BB.jpg","null","",NA,NA,NA,NA,""
"image-keyboard-response",124,379963,"0.0-3.37-2.37","4ursmu04plgwwrl",83,"140.csv","","null","resources/images/coin2.png","null","",NA,NA,NA,NA,""
"image-keyboard-response",125,380472,"0.0-3.38-0.38","4ursmu04plgwwrl",83,"140.csv","","508","resources/trios/L4T1A3.jpg","37","restless",0.5,0.5,0.6,0.776100830979513,"false"
"image-keyboard-response",126,380875,"0.0-3.38-1.38","4ursmu04plgwwrl",83,"140.csv","","null","resources/maskTrios/L4BB.jpg","null","",NA,NA,NA,NA,""
"image-keyboard-response",127,382077,"0.0-3.38-2.38","4ursmu04plgwwrl",83,"140.csv","","null","resources/images/fishbone.png","null","",NA,NA,NA,NA,""
"image-keyboard-response",128,382500,"0.0-3.39-0.39","4ursmu04plgwwrl",83,"140.csv","","422","resources/trios/L1T4A3.jpg","38","restless",0.5,0.5,0.7,0.666051633891956,"false"
"image-keyboard-response",129,382902,"0.0-3.39-1.39","4ursmu04plgwwrl",83,"140.csv","","null","resources/maskTrios/BT4B.jpg","null","",NA,NA,NA,NA,""
"image-keyboard-response",130,384107,"0.0-3.39-2.39","4ursmu04plgwwrl",83,"140.csv","","null","resources/images/fishbone.png","null","",NA,NA,NA,NA,""
"image-keyboard-response",131,384601,"0.0-3.40-0.40","4ursmu04plgwwrl",83,"140.csv","","493","resources/trios/L1T4A2.jpg","39","restless",0.5,0.5,0.7,0.0577294762107204,"true"
"image-keyboard-response",132,385004,"0.0-3.40-1.40","4ursmu04plgwwrl",83,"140.csv","","null","resources/maskTrios/BBA2.jpg","null","",NA,NA,NA,NA,""
"image-keyboard-response",133,386206,"0.0-3.40-2.40","4ursmu04plgwwrl",83,"140.csv","","null","resources/images/coin2.png","null","",NA,NA,NA,NA,""
"image-keyboard-response",134,386626,"0.0-3.41-0.41","4ursmu04plgwwrl",83,"140.csv","","418","resources/trios/L1T4A2.jpg","39","restless",0.5,0.5,0.7,0.0161050845781016,"true"
"image-keyboard-response",135,387028,"0.0-3.41-1.41","4ursmu04plgwwrl",83,"140.csv","","null","resources/maskTrios/BBA2.jpg","null","",NA,NA,NA,NA,""
"image-keyboard-response",136,388233,"0.0-3.41-2.41","4ursmu04plgwwrl",83,"140.csv","","null","resources/images/coin2.png","null","",NA,NA,NA,NA,""
"image-keyboard-response",137,388633,"0.0-3.42-0.42","4ursmu04plgwwrl",83,"140.csv","","397.9999999999418","resources/trios/L1T1A3.jpg","39","restless",0.5,0.5,0.7,0.392769221804468,"true"
"image-keyboard-response",138,389036,"0.0-3.42-1.42","4ursmu04plgwwrl",83,"140.csv","","null","resources/maskTrios/BBA3.jpg","null","",NA,NA,NA,NA,""
"image-keyboard-response",139,390237,"0.0-3.42-2.42","4ursmu04plgwwrl",83,"140.csv","","null","resources/images/coin2.png","null","",NA,NA,NA,NA,""
"image-keyboard-response",140,390536,"0.0-3.43-0.43","4ursmu04plgwwrl",83,"140.csv","","297","resources/trios/L1T1A3.jpg","39","restless",0.5,0.5,0.7,0.243089553072226,"true"
"image-keyboard-response",141,390938,"0.0-3.43-1.43","4ursmu04plgwwrl",83,"140.csv","","null","resources/maskTrios/BBA3.jpg","null","",NA,NA,NA,NA,""
"image-keyboard-response",142,392141,"0.0-3.43-2.43","4ursmu04plgwwrl",83,"140.csv","","null","resources/images/coin2.png","null","",NA,NA,NA,NA,""
"image-keyboard-response",143,392619,"0.0-3.44-0.44","4ursmu04plgwwrl",83,"140.csv","","477","resources/trios/L1T1A3.jpg","39","restless",0.5,0.5,0.7,0.213517953305268,"true"
"image-keyboard-response",144,393022,"0.0-3.44-1.44","4ursmu04plgwwrl",83,"140.csv","","null","resources/maskTrios/BBA3.jpg","null","",NA,NA,NA,NA,""
"image-keyboard-response",145,394224,"0.0-3.44-2.44","4ursmu04plgwwrl",83,"140.csv","","null","resources/images/coin2.png","null","",NA,NA,NA,NA,""
"image-keyboard-response",146,394550,"0.0-3.45-0.45","4ursmu04plgwwrl",83,"140.csv","","325.0000000000582","resources/trios/L1T1A2.jpg","39","restless",0.5,0.5,0.7,0.628200677270092,"true"
"image-keyboard-response",147,394954,"0.0-3.45-1.45","4ursmu04plgwwrl",83,"140.csv","","null","resources/maskTrios/BBA2.jpg","null","",NA,NA,NA,NA,""
"image-keyboard-response",148,396157,"0.0-3.45-2.45","4ursmu04plgwwrl",83,"140.csv","","null","resources/images/coin2.png","null","",NA,NA,NA,NA,""
"image-keyboard-response",149,396784,"0.0-3.46-0.46","4ursmu04plgwwrl",83,"140.csv","","626","resources/trios/L4T4A2.jpg","39","restless",0.5,0.5,0.7,0.0735034735723207,"true"
"image-keyboard-response",150,397186,"0.0-3.46-1.46","4ursmu04plgwwrl",83,"140.csv","","null","resources/maskTrios/BBA2.jpg","null","",NA,NA,NA,NA,""
"image-keyboard-response",151,398389,"0.0-3.46-2.46","4ursmu04plgwwrl",83,"140.csv","","null","resources/images/coin2.png","null","",NA,NA,NA,NA,""
"image-keyboard-response",152,398768,"0.0-3.47-0.47","4ursmu04plgwwrl",83,"140.csv","","378","resources/trios/L1T1A3.jpg","39","restless",0.5,0.5,0.7,0.0715273265474959,"true"
"image-keyboard-response",153,399170,"0.0-3.47-1.47","4ursmu04plgwwrl",83,"140.csv","","null","resources/maskTrios/BBA3.jpg","null","",NA,NA,NA,NA,""
"image-keyboard-response",154,400373,"0.0-3.47-2.47","4ursmu04plgwwrl",83,"140.csv","","null","resources/images/coin2.png","null","",NA,NA,NA,NA,""
"image-keyboard-response",155,400619,"0.0-3.48-0.48","4ursmu04plgwwrl",83,"140.csv","","241.9999999999418","resources/trios/L1T1A3.jpg","39","restless",0.5,0.5,0.7,0.126198929319883,"true"
"image-keyboard-response",156,401022,"0.0-3.48-1.48","4ursmu04plgwwrl",83,"140.csv","","null","resources/maskTrios/BBA3.jpg","null","",NA,NA,NA,NA,""
"image-keyboard-response",157,402224,"0.0-3.48-2.48","4ursmu04plgwwrl",83,"140.csv","","null","resources/images/coin2.png","null","",NA,NA,NA,NA,""
"image-keyboard-response",158,402595,"0.0-3.49-0.49","4ursmu04plgwwrl",83,"140.csv","","369","resources/trios/L4T1A2.jpg","39","restless",0.5,0.5,0.7,0.330389032427013,"true"
"image-keyboard-response",159,402998,"0.0-3.49-1.49","4ursmu04plgwwrl",83,"140.csv","","null","resources/maskTrios/BBA2.jpg","null","",NA,NA,NA,NA,""
"image-keyboard-response",160,404200,"0.0-3.49-2.49","4ursmu04plgwwrl",83,"140.csv","","null","resources/images/coin2.png","null","",NA,NA,NA,NA,""
"image-keyboard-response",161,404767,"0.0-3.50-0.50","4ursmu04plgwwrl",83,"140.csv","","565","resources/trios/L4T1A2.jpg","39","restless",0.5,0.5,0.7,0.479002928628962,"true"
"image-keyboard-response",162,405169,"0.0-3.50-1.50","4ursmu04plgwwrl",83,"140.csv","","null","resources/maskTrios/BBA2.jpg","null","",NA,NA,NA,NA,""
"image-keyboard-response",163,406372,"0.0-3.50-2.50","4ursmu04plgwwrl",83,"140.csv","","null","resources/images/coin2.png","null","",NA,NA,NA,NA,""
"image-keyboard-response",164,407054,"0.0-3.51-0.51","4ursmu04plgwwrl",83,"140.csv","","681","resources/trios/L1T1A2.jpg","39","restless",0.5,0.5,0.7,0.360695890279737,"true"
"image-keyboard-response",165,407456,"0.0-3.51-1.51","4ursmu04plgwwrl",83,"140.csv","","null","resources/maskTrios/BBA2.jpg","null","",NA,NA,NA,NA,""
"image-keyboard-response",166,408661,"0.0-3.51-2.51","4ursmu04plgwwrl",83,"140.csv","","null","resources/images/coin2.png","null","",NA,NA,NA,NA,""
"image-keyboard-response",167,408987,"0.0-3.52-0.52","4ursmu04plgwwrl",83,"140.csv","","325","resources/trios/L1T4A2.jpg","39","restless",0.5,0.5,0.7,0.49858051703736,"true"
"image-keyboard-response",168,409389,"0.0-3.52-1.52","4ursmu04plgwwrl",83,"140.csv","","null","resources/maskTrios/BBA2.jpg","null","",NA,NA,NA,NA,""
"image-keyboard-response",169,410592,"0.0-3.52-2.52","4ursmu04plgwwrl",83,"140.csv","","null","resources/images/coin2.png","null","",NA,NA,NA,NA,""
"image-keyboard-response",170,411082,"0.0-3.53-0.53","4ursmu04plgwwrl",83,"140.csv","","489","resources/trios/L1T4A3.jpg","39","restless",0.4,0.5,0.7,0.80728298719198,"false"
"image-keyboard-response",171,411487,"0.0-3.53-1.53","4ursmu04plgwwrl",83,"140.csv","","null","resources/maskTrios/BBA3.jpg","null","",NA,NA,NA,NA,""
"image-keyboard-response",172,412689,"0.0-3.53-2.53","4ursmu04plgwwrl",83,"140.csv","","null","resources/images/fishbone.png","null","",NA,NA,NA,NA,""
"image-keyboard-response",173,413020,"0.0-3.54-0.54","4ursmu04plgwwrl",83,"140.csv","","330","resources/trios/L1T1A3.jpg","37","restless",0.4,0.5,0.7,0.990142214499162,"false"
"image-keyboard-response",174,413423,"0.0-3.54-1.54","4ursmu04plgwwrl",83,"140.csv","","null","resources/maskTrios/L1BB.jpg","null","",NA,NA,NA,NA,""
"image-keyboard-response",175,414625,"0.0-3.54-2.54","4ursmu04plgwwrl",83,"140.csv","","null","resources/images/fishbone.png","null","",NA,NA,NA,NA,""
"image-keyboard-response",176,415159,"0.0-3.55-0.55","4ursmu04plgwwrl",83,"140.csv","","531.9999999999418","resources/trios/L1T4A2.jpg","39","restless",0.4,0.5,0.7,0.912580101037295,"false"
"image-keyboard-response",177,415561,"0.0-3.55-1.55","4ursmu04plgwwrl",83,"140.csv","","null","resources/maskTrios/BBA2.jpg","null","",NA,NA,NA,NA,""
"image-keyboard-response",178,416763,"0.0-3.55-2.55","4ursmu04plgwwrl",83,"140.csv","","null","resources/images/fishbone.png","null","",NA,NA,NA,NA,""
"image-keyboard-response",179,417079,"0.0-3.56-0.56","4ursmu04plgwwrl",83,"140.csv","","314.0000000000582","resources/trios/L4T1A3.jpg","38","restless",0.4,0.5,0.7,0.935743132574553,"false"
"image-keyboard-response",180,417482,"0.0-3.56-1.56","4ursmu04plgwwrl",83,"140.csv","","null","resources/maskTrios/BT1B.jpg","null","",NA,NA,NA,NA,""
"image-keyboard-response",181,418684,"0.0-3.56-2.56","4ursmu04plgwwrl",83,"140.csv","","null","resources/images/fishbone.png","null","",NA,NA,NA,NA,""
"image-keyboard-response",182,419063,"0.0-3.57-0.57","4ursmu04plgwwrl",83,"140.csv","","375.9999999999418","resources/trios/L4T4A2.jpg","37","restless",0.4,0.5,0.8,0.161954466950715,"true"
"image-keyboard-response",183,419465,"0.0-3.57-1.57","4ursmu04plgwwrl",83,"140.csv","","null","resources/maskTrios/L4BB.jpg","null","",NA,NA,NA,NA,""
"image-keyboard-response",184,420668,"0.0-3.57-2.57","4ursmu04plgwwrl",83,"140.csv","","null","resources/images/coin2.png","null","",NA,NA,NA,NA,""
"image-keyboard-response",185,421043,"0.0-3.58-0.58","4ursmu04plgwwrl",83,"140.csv","","374","resources/trios/L1T1A2.jpg","37","restless",0.4,0.5,0.8,0.0401171842839689,"true"
"image-keyboard-response",186,421444,"0.0-3.58-1.58","4ursmu04plgwwrl",83,"140.csv","","null","resources/maskTrios/L1BB.jpg","null","",NA,NA,NA,NA,""
"image-keyboard-response",187,422647,"0.0-3.58-2.58","4ursmu04plgwwrl",83,"140.csv","","null","resources/images/coin2.png","null","",NA,NA,NA,NA,""
"image-keyboard-response",188,423312,"0.0-3.59-0.59","4ursmu04plgwwrl",83,"140.csv","","665","resources/trios/L1T4A3.jpg","37","restless",0.3,0.5,0.8,0.20803763762284,"true"
"image-keyboard-response",189,423715,"0.0-3.59-1.59","4ursmu04plgwwrl",83,"140.csv","","null","resources/maskTrios/L1BB.jpg","null","",NA,NA,NA,NA,""
"image-keyboard-response",190,424917,"0.0-3.59-2.59","4ursmu04plgwwrl",83,"140.csv","","null","resources/images/coin2.png","null","",NA,NA,NA,NA,""
"image-keyboard-response",191,425873,"0.0-3.60-0.60","4ursmu04plgwwrl",83,"140.csv","","955","resources/trios/L4T1A2.jpg","39","restless",0.3,0.5,0.7,0.343370785239464,"true"
"image-keyboard-response",192,426275,"0.0-3.60-1.60","4ursmu04plgwwrl",83,"140.csv","","null","resources/maskTrios/BBA2.jpg","null","",NA,NA,NA,NA,""
"image-keyboard-response",193,427477,"0.0-3.60-2.60","4ursmu04plgwwrl",83,"140.csv","","null","resources/images/coin2.png","null","",NA,NA,NA,NA,""
"image-keyboard-response",194,428089,"0.0-3.61-0.61","4ursmu04plgwwrl",83,"140.csv","","608","resources/trios/L1T4A2.jpg","39","restless",0.2,0.4,0.8,0.323172241492308,"true"
"image-keyboard-response",195,428492,"0.0-3.61-1.61","4ursmu04plgwwrl",83,"140.csv","","null","resources/maskTrios/BBA2.jpg","null","",NA,NA,NA,NA,""
"image-keyboard-response",196,429694,"0.0-3.61-2.61","4ursmu04plgwwrl",83,"140.csv","","null","resources/images/coin2.png","null","",NA,NA,NA,NA,""
"image-keyboard-response",197,430289,"0.0-3.62-0.62","4ursmu04plgwwrl",83,"140.csv","","593","resources/trios/L1T1A2.jpg","39","restless",0.2,0.5,0.8,0.39454439943253,"true"
"image-keyboard-response",198,430691,"0.0-3.62-1.62","4ursmu04plgwwrl",83,"140.csv","","null","resources/maskTrios/BBA2.jpg","null","",NA,NA,NA,NA,""
"image-keyboard-response",199,431894,"0.0-3.62-2.62","4ursmu04plgwwrl",83,"140.csv","","null","resources/images/coin2.png","null","",NA,NA,NA,NA,""
"image-keyboard-response",200,432303,"0.0-3.63-0.63","4ursmu04plgwwrl",83,"140.csv","","406.9999999999418","resources/trios/L1T4A3.jpg","39","restless",0.3,0.6,0.7,0.382896447165964,"true"
"image-keyboard-response",201,432705,"0.0-3.63-1.63","4ursmu04plgwwrl",83,"140.csv","","null","resources/maskTrios/BBA3.jpg","null","",NA,NA,NA,NA,""
"image-keyboard-response",202,433908,"0.0-3.63-2.63","4ursmu04plgwwrl",83,"140.csv","","null","resources/images/coin2.png","null","",NA,NA,NA,NA,""
"image-keyboard-response",203,434544,"0.0-3.64-0.64","4ursmu04plgwwrl",83,"140.csv","","635","resources/trios/L1T4A2.jpg","39","restless",0.3,0.6,0.7,0.632088533406589,"true"
"image-keyboard-response",204,434946,"0.0-3.64-1.64","4ursmu04plgwwrl",83,"140.csv","","null","resources/maskTrios/BBA2.jpg","null","",NA,NA,NA,NA,""
"image-keyboard-response",205,436148,"0.0-3.64-2.64","4ursmu04plgwwrl",83,"140.csv","","null","resources/images/coin2.png","null","",NA,NA,NA,NA,""
"image-keyboard-response",206,436711,"0.0-3.65-0.65","4ursmu04plgwwrl",83,"140.csv","","561.0000000000582","resources/trios/L1T4A2.jpg","39","restless",0.3,0.6,0.7,0.538459278057623,"true"
"image-keyboard-response",207,437113,"0.0-3.65-1.65","4ursmu04plgwwrl",83,"140.csv","","null","resources/maskTrios/BBA2.jpg","null","",NA,NA,NA,NA,""
"image-keyboard-response",208,438315,"0.0-3.65-2.65","4ursmu04plgwwrl",83,"140.csv","","null","resources/images/coin2.png","null","",NA,NA,NA,NA,""
"image-keyboard-response",209,438800,"0.0-3.66-0.66","4ursmu04plgwwrl",83,"140.csv","","480.0000000000582","resources/trios/L4T4A2.jpg","39","restless",0.3,0.6,0.7,0.817039504293164,"false"
"image-keyboard-response",210,439203,"0.0-3.66-1.66","4ursmu04plgwwrl",83,"140.csv","","null","resources/maskTrios/BBA2.jpg","null","",NA,NA,NA,NA,""
"image-keyboard-response",211,440405,"0.0-3.66-2.66","4ursmu04plgwwrl",83,"140.csv","","null","resources/images/fishbone.png","null","",NA,NA,NA,NA,""
"image-keyboard-response",212,440866,"0.0-3.67-0.67","4ursmu04plgwwrl",83,"140.csv","","457","resources/trios/L1T4A3.jpg","37","restless",0.3,0.6,0.7,0.532026309346371,"false"
"image-keyboard-response",213,441269,"0.0-3.67-1.67","4ursmu04plgwwrl",83,"140.csv","","null","resources/maskTrios/L1BB.jpg","null","",NA,NA,NA,NA,""
"image-keyboard-response",214,442471,"0.0-3.67-2.67","4ursmu04plgwwrl",83,"140.csv","","null","resources/images/fishbone.png","null","",NA,NA,NA,NA,""
"image-keyboard-response",215,442896,"0.0-3.68-0.68","4ursmu04plgwwrl",83,"140.csv","","423","resources/trios/L1T1A3.jpg","38","restless",0.3,0.6,0.7,0.470797377033661,"true"
"image-keyboard-response",216,443298,"0.0-3.68-1.68","4ursmu04plgwwrl",83,"140.csv","","null","resources/maskTrios/BT1B.jpg","null","",NA,NA,NA,NA,""
"image-keyboard-response",217,444501,"0.0-3.68-2.68","4ursmu04plgwwrl",83,"140.csv","","null","resources/images/coin2.png","null","",NA,NA,NA,NA,""
"image-keyboard-response",218,444881,"0.0-3.69-0.69","4ursmu04plgwwrl",83,"140.csv","","379.9999999999418","resources/trios/L4T1A3.jpg","38","restless",0.3,0.6,0.7,0.273585361001388,"true"
"image-keyboard-response",219,445283,"0.0-3.69-1.69","4ursmu04plgwwrl",83,"140.csv","","null","resources/maskTrios/BT1B.jpg","null","",NA,NA,NA,NA,""
"image-keyboard-response",220,446486,"0.0-3.69-2.69","4ursmu04plgwwrl",83,"140.csv","","null","resources/images/coin2.png","null","",NA,NA,NA,NA,""
"image-keyboard-response",221,446856,"0.0-3.70-0.70","4ursmu04plgwwrl",83,"140.csv","","370","resources/trios/L1T1A2.jpg","38","restless",0.3,0.6,0.7,0.720342512157322,"false"
"image-keyboard-response",222,447259,"0.0-3.70-1.70","4ursmu04plgwwrl",83,"140.csv","","null","resources/maskTrios/BT1B.jpg","null","",NA,NA,NA,NA,""
"image-keyboard-response",223,448461,"0.0-3.70-2.70","4ursmu04plgwwrl",83,"140.csv","","null","resources/images/fishbone.png","null","",NA,NA,NA,NA,""
"image-keyboard-response",224,449053,"0.0-3.71-0.71","4ursmu04plgwwrl",83,"140.csv","","590","resources/trios/L1T4A2.jpg","38","restless",0.3,0.6,0.7,0.481206809531638,"true"
"image-keyboard-response",225,449455,"0.0-3.71-1.71","4ursmu04plgwwrl",83,"140.csv","","null","resources/maskTrios/BT4B.jpg","null","",NA,NA,NA,NA,""
"image-keyboard-response",226,450658,"0.0-3.71-2.71","4ursmu04plgwwrl",83,"140.csv","","null","resources/images/coin2.png","null","",NA,NA,NA,NA,""
"image-keyboard-response",227,451148,"0.0-3.72-0.72","4ursmu04plgwwrl",83,"140.csv","","487","resources/trios/L1T4A2.jpg","38","restless",0.3,0.5,0.7,0.751158792506648,"false"
"image-keyboard-response",228,451550,"0.0-3.72-1.72","4ursmu04plgwwrl",83,"140.csv","","null","resources/maskTrios/BT4B.jpg","null","",NA,NA,NA,NA,""
"image-keyboard-response",229,452753,"0.0-3.72-2.72","4ursmu04plgwwrl",83,"140.csv","","null","resources/images/fishbone.png","null","",NA,NA,NA,NA,""
"image-keyboard-response",230,467529,"0.0-3.73-0.73","4ursmu04plgwwrl",83,"140.csv","","14775","resources/trios/L4T1A2.jpg","39","restless",0.3,0.5,0.7,0.99991916096182,"false"
"image-keyboard-response",231,467935,"0.0-3.73-1.73","4ursmu04plgwwrl",83,"140.csv","","null","resources/maskTrios/BBA2.jpg","null","",NA,NA,NA,NA,""
"image-keyboard-response",232,469137,"0.0-3.73-2.73","4ursmu04plgwwrl",83,"140.csv","","null","resources/images/fishbone.png","null","",NA,NA,NA,NA,""
"image-keyboard-response",233,487712,"0.0-3.74-0.74","4ursmu04plgwwrl",83,"140.csv","","18573.99999999994","resources/trios/L1T1A3.jpg","39","restless",0.3,0.5,0.7,0.205091687677943,"true"
"image-keyboard-response",234,488114,"0.0-3.74-1.74","4ursmu04plgwwrl",83,"140.csv","","null","resources/maskTrios/BBA3.jpg","null","",NA,NA,NA,NA,""
"image-keyboard-response",235,489317,"0.0-3.74-2.74","4ursmu04plgwwrl",83,"140.csv","","null","resources/images/coin2.png","null","",NA,NA,NA,NA,""
"image-keyboard-response",236,489842,"0.0-3.75-0.75","4ursmu04plgwwrl",83,"140.csv","","524","resources/trios/L4T4A3.jpg","39","restless",0.3,0.5,0.7,0.840927294672905,"false"
"image-keyboard-response",237,490245,"0.0-3.75-1.75","4ursmu04plgwwrl",83,"140.csv","","null","resources/maskTrios/BBA3.jpg","null","",NA,NA,NA,NA,""
"image-keyboard-response",238,491450,"0.0-3.75-2.75","4ursmu04plgwwrl",83,"140.csv","","null","resources/images/fishbone.png","null","",NA,NA,NA,NA,""
"image-keyboard-response",239,493604,"0.0-3.76-0.76","4ursmu04plgwwrl",83,"140.csv","","2153","resources/trios/L1T1A2.jpg","37","restless",0.3,0.5,0.7,0.25894440350339,"true"
"image-keyboard-response",240,494006,"0.0-3.76-1.76","4ursmu04plgwwrl",83,"140.csv","","null","resources/maskTrios/L1BB.jpg","null","",NA,NA,NA,NA,""
"image-keyboard-response",241,495209,"0.0-3.76-2.76","4ursmu04plgwwrl",83,"140.csv","","null","resources/images/coin2.png","null","",NA,NA,NA,NA,""
"image-keyboard-response",242,498780,"0.0-3.77-0.77","4ursmu04plgwwrl",83,"140.csv","","3568.999999999942","resources/trios/L4T1A3.jpg","37","restless",0.3,0.5,0.7,0.511000294607814,"false"
"image-keyboard-response",243,499182,"0.0-3.77-1.77","4ursmu04plgwwrl",83,"140.csv","","null","resources/maskTrios/L4BB.jpg","null","",NA,NA,NA,NA,""
"image-keyboard-response",244,500384,"0.0-3.77-2.77","4ursmu04plgwwrl",83,"140.csv","","null","resources/images/fishbone.png","null","",NA,NA,NA,NA,""
"image-keyboard-response",245,500856,"0.0-3.78-0.78","4ursmu04plgwwrl",83,"140.csv","","470","resources/trios/L4T1A3.jpg","39","restless",0.3,0.5,0.7,0.838178890125861,"false"
"image-keyboard-response",246,501258,"0.0-3.78-1.78","4ursmu04plgwwrl",83,"140.csv","","null","resources/maskTrios/BBA3.jpg","null","",NA,NA,NA,NA,""
"image-keyboard-response",247,502460,"0.0-3.78-2.78","4ursmu04plgwwrl",83,"140.csv","","null","resources/images/fishbone.png","null","",NA,NA,NA,NA,""
"image-keyboard-response",248,502828,"0.0-3.79-0.79","4ursmu04plgwwrl",83,"140.csv","","366.0000000000582","resources/trios/L1T1A3.jpg","38","restless",0.3,0.5,0.8,0.142650206606661,"true"
"image-keyboard-response",249,503230,"0.0-3.79-1.79","4ursmu04plgwwrl",83,"140.csv","","null","resources/maskTrios/BT1B.jpg","null","",NA,NA,NA,NA,""
"image-keyboard-response",250,504433,"0.0-3.79-2.79","4ursmu04plgwwrl",83,"140.csv","","null","resources/images/coin2.png","null","",NA,NA,NA,NA,""
"image-keyboard-response",251,512644,"0.0-3.80-0.80","4ursmu04plgwwrl",83,"140.csv","","8210.000000000058","resources/trios/L1T1A3.jpg","38","restless",0.4,0.5,0.8,0.356686619592806,"true"
"image-keyboard-response",252,513046,"0.0-3.80-1.80","4ursmu04plgwwrl",83,"140.csv","","null","resources/maskTrios/BT1B.jpg","null","",NA,NA,NA,NA,""
"image-keyboard-response",253,514249,"0.0-3.80-2.80","4ursmu04plgwwrl",83,"140.csv","","null","resources/images/coin2.png","null","",NA,NA,NA,NA,""
"image-keyboard-response",254,514914,"0.0-3.81-0.81","4ursmu04plgwwrl",83,"140.csv","","664","resources/trios/L4T4A3.jpg","38","restless",0.4,0.5,0.7,0.0409733998595591,"true"
"image-keyboard-response",255,515317,"0.0-3.81-1.81","4ursmu04plgwwrl",83,"140.csv","","null","resources/maskTrios/BT4B.jpg","null","",NA,NA,NA,NA,""
"image-keyboard-response",256,516521,"0.0-3.81-2.81","4ursmu04plgwwrl",83,"140.csv","","null","resources/images/coin2.png","null","",NA,NA,NA,NA,""
"image-keyboard-response",257,516829,"0.0-3.82-0.82","4ursmu04plgwwrl",83,"140.csv","","305.0000000001164","resources/trios/L4T4A3.jpg","38","restless",0.4,0.5,0.7,0.85161201934475,"false"
"image-keyboard-response",258,517231,"0.0-3.82-1.82","4ursmu04plgwwrl",83,"140.csv","","null","resources/maskTrios/BT4B.jpg","null","",NA,NA,NA,NA,""
"image-keyboard-response",259,518433,"0.0-3.82-2.82","4ursmu04plgwwrl",83,"140.csv","","null","resources/images/fishbone.png","null","",NA,NA,NA,NA,""
"image-keyboard-response",260,518841,"0.0-3.83-0.83","4ursmu04plgwwrl",83,"140.csv","","406.0000000000582","resources/trios/L1T4A3.jpg","39","restless",0.4,0.5,0.7,0.772091756429232,"false"
"image-keyboard-response",261,519243,"0.0-3.83-1.83","4ursmu04plgwwrl",83,"140.csv","","null","resources/maskTrios/BBA3.jpg","null","",NA,NA,NA,NA,""
"image-keyboard-response",262,520446,"0.0-3.83-2.83","4ursmu04plgwwrl",83,"140.csv","","null","resources/images/fishbone.png","null","",NA,NA,NA,NA,""
"image-keyboard-response",263,520698,"0.0-3.84-0.84","4ursmu04plgwwrl",83,"140.csv","","247","resources/trios/L1T4A3.jpg","37","restless",0.4,0.5,0.6,0.31949911572226,"true"
"image-keyboard-response",264,521100,"0.0-3.84-1.84","4ursmu04plgwwrl",83,"140.csv","","null","resources/maskTrios/L1BB.jpg","null","",NA,NA,NA,NA,""
"image-keyboard-response",265,522303,"0.0-3.84-2.84","4ursmu04plgwwrl",83,"140.csv","","null","resources/images/coin2.png","null","",NA,NA,NA,NA,""
"image-keyboard-response",266,522784,"0.0-3.85-0.85","4ursmu04plgwwrl",83,"140.csv","","480","resources/trios/L1T1A2.jpg","37","restless",0.4,0.5,0.6,0.961798045660653,"false"
"image-keyboard-response",267,523187,"0.0-3.85-1.85","4ursmu04plgwwrl",83,"140.csv","","null","resources/maskTrios/L1BB.jpg","null","",NA,NA,NA,NA,""
"image-keyboard-response",268,524389,"0.0-3.85-2.85","4ursmu04plgwwrl",83,"140.csv","","null","resources/images/fishbone.png","null","",NA,NA,NA,NA,""
"image-keyboard-response",269,524659,"0.0-3.86-0.86","4ursmu04plgwwrl",83,"140.csv","","269","resources/trios/L4T4A3.jpg","39","restless",0.4,0.5,0.6,0.345624929364039,"true"
"image-keyboard-response",270,525061,"0.0-3.86-1.86","4ursmu04plgwwrl",83,"140.csv","","null","resources/maskTrios/BBA3.jpg","null","",NA,NA,NA,NA,""
"image-keyboard-response",271,526263,"0.0-3.86-2.86","4ursmu04plgwwrl",83,"140.csv","","null","resources/images/coin2.png","null","",NA,NA,NA,NA,""
"image-keyboard-response",272,526568,"0.0-3.87-0.87","4ursmu04plgwwrl",83,"140.csv","","303.9999999998836","resources/trios/L4T4A2.jpg","39","restless",0.4,0.5,0.7,0.66176768795748,"true"
"image-keyboard-response",273,526970,"0.0-3.87-1.87","4ursmu04plgwwrl",83,"140.csv","","null","resources/maskTrios/BBA2.jpg","null","",NA,NA,NA,NA,""
"image-keyboard-response",274,528173,"0.0-3.87-2.87","4ursmu04plgwwrl",83,"140.csv","","null","resources/images/coin2.png","null","",NA,NA,NA,NA,""
"image-keyboard-response",275,528717,"0.0-3.88-0.88","4ursmu04plgwwrl",83,"140.csv","","543","resources/trios/L4T1A3.jpg","39","restless",0.4,0.6,0.7,0.867308856961645,"false"
"image-keyboard-response",276,529121,"0.0-3.88-1.88","4ursmu04plgwwrl",83,"140.csv","","null","resources/maskTrios/BBA3.jpg","null","",NA,NA,NA,NA,""
"image-keyboard-response",277,530323,"0.0-3.88-2.88","4ursmu04plgwwrl",83,"140.csv","","null","resources/images/fishbone.png","null","",NA,NA,NA,NA,""
"image-keyboard-response",278,530708,"0.0-3.89-0.89","4ursmu04plgwwrl",83,"140.csv","","384","resources/trios/L4T1A3.jpg","37","restless",0.4,0.6,0.7,0.990342037020048,"false"
"image-keyboard-response",279,531110,"0.0-3.89-1.89","4ursmu04plgwwrl",83,"140.csv","","null","resources/maskTrios/L4BB.jpg","null","",NA,NA,NA,NA,""
"image-keyboard-response",280,532312,"0.0-3.89-2.89","4ursmu04plgwwrl",83,"140.csv","","null","resources/images/fishbone.png","null","",NA,NA,NA,NA,""
"image-keyboard-response",281,532654,"0.0-3.90-0.90","4ursmu04plgwwrl",83,"140.csv","","340","resources/trios/L1T1A2.jpg","38","restless",0.4,0.6,0.6,0.348097062411845,"true"
"image-keyboard-response",282,533059,"0.0-3.90-1.90","4ursmu04plgwwrl",83,"140.csv","","null","resources/maskTrios/BT1B.jpg","null","",NA,NA,NA,NA,""
"image-keyboard-response",283,534261,"0.0-3.90-2.90","4ursmu04plgwwrl",83,"140.csv","","null","resources/images/coin2.png","null","",NA,NA,NA,NA,""
"image-keyboard-response",284,534849,"0.0-3.91-0.91","4ursmu04plgwwrl",83,"140.csv","","586","resources/trios/L1T1A2.jpg","38","restless",0.4,0.6,0.7,0.652561584611793,"false"
"image-keyboard-response",285,535251,"0.0-3.91-1.91","4ursmu04plgwwrl",83,"140.csv","","null","resources/maskTrios/BT1B.jpg","null","",NA,NA,NA,NA,""
"image-keyboard-response",286,536453,"0.0-3.91-2.91","4ursmu04plgwwrl",83,"140.csv","","null","resources/images/fishbone.png","null","",NA,NA,NA,NA,""
"image-keyboard-response",287,536860,"0.0-3.92-0.92","4ursmu04plgwwrl",83,"140.csv","","405","resources/trios/L4T1A2.jpg","39","restless",0.4,0.6,0.7,0.932203085384435,"false"
"image-keyboard-response",288,537261,"0.0-3.92-1.92","4ursmu04plgwwrl",83,"140.csv","","null","resources/maskTrios/BBA2.jpg","null","",NA,NA,NA,NA,""
"image-keyboard-response",289,538463,"0.0-3.92-2.92","4ursmu04plgwwrl",83,"140.csv","","null","resources/images/fishbone.png","null","",NA,NA,NA,NA,""
"image-keyboard-response",290,539224,"0.0-3.93-0.93","4ursmu04plgwwrl",83,"140.csv","","759","resources/trios/L4T1A3.jpg","37","restless",0.4,0.6,0.7,0.210091504694755,"true"
"image-keyboard-response",291,539627,"0.0-3.93-1.93","4ursmu04plgwwrl",83,"140.csv","","null","resources/maskTrios/L4BB.jpg","null","",NA,NA,NA,NA,""
"image-keyboard-response",292,540829,"0.0-3.93-2.93","4ursmu04plgwwrl",83,"140.csv","","null","resources/images/coin2.png","null","",NA,NA,NA,NA,""
"image-keyboard-response",293,547235,"0.0-3.94-0.94","4ursmu04plgwwrl",83,"140.csv","","6402","resources/trios/L1T4A2.jpg","38","restless",0.4,0.6,0.7,0.161560434005414,"true"
"image-keyboard-response",294,547638,"0.0-3.94-1.94","4ursmu04plgwwrl",83,"140.csv","","null","resources/maskTrios/BT4B.jpg","null","",NA,NA,NA,NA,""
"image-keyboard-response",295,548840,"0.0-3.94-2.94","4ursmu04plgwwrl",83,"140.csv","","null","resources/images/coin2.png","null","",NA,NA,NA,NA,""
"image-keyboard-response",296,586877,"0.0-3.95-0.95","4ursmu04plgwwrl",83,"140.csv","","38033","resources/trios/L4T1A2.jpg","39","restless",0.4,0.6,0.7,0.490933592664791,"true"
"image-keyboard-response",297,587279,"0.0-3.95-1.95","4ursmu04plgwwrl",83,"140.csv","","null","resources/maskTrios/BBA2.jpg","null","",NA,NA,NA,NA,""
"image-keyboard-response",298,588482,"0.0-3.95-2.95","4ursmu04plgwwrl",83,"140.csv","","null","resources/images/coin2.png","null","",NA,NA,NA,NA,""
"image-keyboard-response",299,589016,"0.0-3.96-0.96","4ursmu04plgwwrl",83,"140.csv","","532","resources/trios/L1T4A3.jpg","39","restless",0.4,0.6,0.7,0.0731045119235416,"true"
"image-keyboard-response",300,589418,"0.0-3.96-1.96","4ursmu04plgwwrl",83,"140.csv","","null","resources/maskTrios/BBA3.jpg","null","",NA,NA,NA,NA,""
"image-keyboard-response",301,590620,"0.0-3.96-2.96","4ursmu04plgwwrl",83,"140.csv","","null","resources/images/coin2.png","null","",NA,NA,NA,NA,""
"image-keyboard-response",302,591986,"0.0-3.97-0.97","4ursmu04plgwwrl",83,"140.csv","","1365","resources/trios/L4T4A2.jpg","39","restless",0.4,0.6,0.7,0.934609648283441,"false"
"image-keyboard-response",303,592391,"0.0-3.97-1.97","4ursmu04plgwwrl",83,"140.csv","","null","resources/maskTrios/BBA2.jpg","null","",NA,NA,NA,NA,""
"image-keyboard-response",304,593593,"0.0-3.97-2.97","4ursmu04plgwwrl",83,"140.csv","","null","resources/images/fishbone.png","null","",NA,NA,NA,NA,""
"image-keyboard-response",305,594885,"0.0-3.98-0.98","4ursmu04plgwwrl",83,"140.csv","","1291","resources/trios/L4T1A2.jpg","38","restless",0.4,0.6,0.7,0.553598806045606,"true"
"image-keyboard-response",306,595287,"0.0-3.98-1.98","4ursmu04plgwwrl",83,"140.csv","","null","resources/maskTrios/BT1B.jpg","null","",NA,NA,NA,NA,""
"image-keyboard-response",307,596489,"0.0-3.98-2.98","4ursmu04plgwwrl",83,"140.csv","","null","resources/images/coin2.png","null","",NA,NA,NA,NA,""
"image-keyboard-response",308,597443,"0.0-3.99-0.99","4ursmu04plgwwrl",83,"140.csv","","952","resources/trios/L4T1A2.jpg","38","restless",0.5,0.6,0.7,0.999554031436559,"false"
"image-keyboard-response",309,597845,"0.0-3.99-1.99","4ursmu04plgwwrl",83,"140.csv","","null","resources/maskTrios/BT1B.jpg","null","",NA,NA,NA,NA,""
"image-keyboard-response",310,599047,"0.0-3.99-2.99","4ursmu04plgwwrl",83,"140.csv","","null","resources/images/fishbone.png","null","",NA,NA,NA,NA,""
"image-keyboard-response",311,599343,"0.0-3.100-0.100","4ursmu04plgwwrl",83,"140.csv","","294","resources/trios/L4T1A2.jpg","37","restless",0.5,0.7,0.7,0.209445157359561,"true"
"image-keyboard-response",312,599745,"0.0-3.100-1.100","4ursmu04plgwwrl",83,"140.csv","","null","resources/maskTrios/L4BB.jpg","null","",NA,NA,NA,NA,""
"image-keyboard-response",313,600948,"0.0-3.100-2.100","4ursmu04plgwwrl",83,"140.csv","","null","resources/images/coin2.png","null","",NA,NA,NA,NA,""
"image-keyboard-response",314,601661,"0.0-3.101-0.101","4ursmu04plgwwrl",83,"140.csv","","712","resources/trios/L4T1A3.jpg","37","restless",0.5,0.7,0.7,0.463887284951929,"true"
"image-keyboard-response",315,602065,"0.0-3.101-1.101","4ursmu04plgwwrl",83,"140.csv","","null","resources/maskTrios/L4BB.jpg","null","",NA,NA,NA,NA,""
"image-keyboard-response",316,603267,"0.0-3.101-2.101","4ursmu04plgwwrl",83,"140.csv","","null","resources/images/coin2.png","null","",NA,NA,NA,NA,""
"image-keyboard-response",317,603948,"0.0-3.102-0.102","4ursmu04plgwwrl",83,"140.csv","","678.9999999998836","resources/trios/L1T1A3.jpg","37","restless",0.5,0.8,0.7,0.436725792486149,"true"
"image-keyboard-response",318,604351,"0.0-3.102-1.102","4ursmu04plgwwrl",83,"140.csv","","null","resources/maskTrios/L1BB.jpg","null","",NA,NA,NA,NA,""
"image-keyboard-response",319,605553,"0.0-3.102-2.102","4ursmu04plgwwrl",83,"140.csv","","null","resources/images/coin2.png","null","",NA,NA,NA,NA,""
"image-keyboard-response",320,606979,"0.0-3.103-0.103","4ursmu04plgwwrl",83,"140.csv","","1423","resources/trios/L4T1A2.jpg","38","restless",0.5,0.8,0.7,0.0363724625306304,"true"
"image-keyboard-response",321,607382,"0.0-3.103-1.103","4ursmu04plgwwrl",83,"140.csv","","null","resources/maskTrios/BT1B.jpg","null","",NA,NA,NA,NA,""
"image-keyboard-response",322,608584,"0.0-3.103-2.103","4ursmu04plgwwrl",83,"140.csv","","null","resources/images/coin2.png","null","",NA,NA,NA,NA,""
"image-keyboard-response",323,610694,"0.0-3.104-0.104","4ursmu04plgwwrl",83,"140.csv","","2107","resources/trios/L1T4A2.jpg","39","restless",0.5,0.8,0.7,0.327998478353287,"true"
"image-keyboard-response",324,611096,"0.0-3.104-1.104","4ursmu04plgwwrl",83,"140.csv","","null","resources/maskTrios/BBA2.jpg","null","",NA,NA,NA,NA,""
"image-keyboard-response",325,612299,"0.0-3.104-2.104","4ursmu04plgwwrl",83,"140.csv","","null","resources/images/coin2.png","null","",NA,NA,NA,NA,""
"image-keyboard-response",326,616394,"0.0-3.105-0.105","4ursmu04plgwwrl",83,"140.csv","","4092","resources/trios/L1T1A3.jpg","37","restless",0.5,0.7,0.7,0.741005689741438,"false"
"image-keyboard-response",327,616797,"0.0-3.105-1.105","4ursmu04plgwwrl",83,"140.csv","","null","resources/maskTrios/L1BB.jpg","null","",NA,NA,NA,NA,""
"image-keyboard-response",328,617999,"0.0-3.105-2.105","4ursmu04plgwwrl",83,"140.csv","","null","resources/images/fishbone.png","null","",NA,NA,NA,NA,""
"image-keyboard-response",329,618661,"0.0-3.106-0.106","4ursmu04plgwwrl",83,"140.csv","","657","resources/trios/L1T1A3.jpg","38","restless",0.5,0.7,0.6,0.350503393259118,"true"
"image-keyboard-response",330,619064,"0.0-3.106-1.106","4ursmu04plgwwrl",83,"140.csv","","null","resources/maskTrios/BT1B.jpg","null","",NA,NA,NA,NA,""
"image-keyboard-response",331,620266,"0.0-3.106-2.106","4ursmu04plgwwrl",83,"140.csv","","null","resources/images/coin2.png","null","",NA,NA,NA,NA,""
"image-keyboard-response",332,621219,"0.0-3.107-0.107","4ursmu04plgwwrl",83,"140.csv","","951","resources/trios/L1T4A3.jpg","37","restless",0.5,0.7,0.6,0.251521180242044,"true"
"image-keyboard-response",333,621621,"0.0-3.107-1.107","4ursmu04plgwwrl",83,"140.csv","","null","resources/maskTrios/L1BB.jpg","null","",NA,NA,NA,NA,""
"image-keyboard-response",334,622823,"0.0-3.107-2.107","4ursmu04plgwwrl",83,"140.csv","","null","resources/images/coin2.png","null","",NA,NA,NA,NA,""
"image-keyboard-response",335,623503,"0.0-3.108-0.108","4ursmu04plgwwrl",83,"140.csv","","679","resources/trios/L1T4A2.jpg","39","restless",0.5,0.7,0.6,0.914986318287019,"false"
"image-keyboard-response",336,623905,"0.0-3.108-1.108","4ursmu04plgwwrl",83,"140.csv","","null","resources/maskTrios/BBA2.jpg","null","",NA,NA,NA,NA,""
"image-keyboard-response",337,625107,"0.0-3.108-2.108","4ursmu04plgwwrl",83,"140.csv","","null","resources/images/fishbone.png","null","",NA,NA,NA,NA,""
"image-keyboard-response",338,625546,"0.0-3.109-0.109","4ursmu04plgwwrl",83,"140.csv","","438","resources/trios/L4T1A2.jpg","37","restless",0.5,0.7,0.6,0.427676605658092,"true"
"image-keyboard-response",339,625949,"0.0-3.109-1.109","4ursmu04plgwwrl",83,"140.csv","","null","resources/maskTrios/L4BB.jpg","null","",NA,NA,NA,NA,""
"image-keyboard-response",340,627151,"0.0-3.109-2.109","4ursmu04plgwwrl",83,"140.csv","","null","resources/images/coin2.png","null","",NA,NA,NA,NA,""
"image-keyboard-response",341,628078,"0.0-3.110-0.110","4ursmu04plgwwrl",83,"140.csv","","925","resources/trios/L4T4A3.jpg","37","restless",0.5,0.7,0.6,0.714152869502302,"false"
"image-keyboard-response",342,628480,"0.0-3.110-1.110","4ursmu04plgwwrl",83,"140.csv","","null","resources/maskTrios/L4BB.jpg","null","",NA,NA,NA,NA,""
"image-keyboard-response",343,629685,"0.0-3.110-2.110","4ursmu04plgwwrl",83,"140.csv","","null","resources/images/fishbone.png","null","",NA,NA,NA,NA,""
"image-keyboard-response",344,630368,"0.0-3.111-0.111","4ursmu04plgwwrl",83,"140.csv","","680.9999999998836","resources/trios/L1T1A3.jpg","38","restless",0.5,0.7,0.6,0.776009881854003,"false"
"image-keyboard-response",345,630770,"0.0-3.111-1.111","4ursmu04plgwwrl",83,"140.csv","","null","resources/maskTrios/BT1B.jpg","null","",NA,NA,NA,NA,""
"image-keyboard-response",346,631972,"0.0-3.111-2.111","4ursmu04plgwwrl",83,"140.csv","","null","resources/images/fishbone.png","null","",NA,NA,NA,NA,""
"image-keyboard-response",347,632005,"0.0-3.112-0.112","4ursmu04plgwwrl",83,"140.csv","","31","resources/trios/L1T4A3.jpg","39","restless",0.5,0.7,0.6,0.0433686939542319,"true"
"image-keyboard-response",348,632407,"0.0-3.112-1.112","4ursmu04plgwwrl",83,"140.csv","","null","resources/maskTrios/BBA3.jpg","null","",NA,NA,NA,NA,""
"image-keyboard-response",349,633609,"0.0-3.112-2.112","4ursmu04plgwwrl",83,"140.csv","","null","resources/images/coin2.png","null","",NA,NA,NA,NA,""
"image-keyboard-response",350,635010,"0.0-3.113-0.113","4ursmu04plgwwrl",83,"140.csv","","1397","resources/trios/L1T4A2.jpg","39","restless",0.5,0.7,0.5,0.220211733869611,"true"
"image-keyboard-response",351,635413,"0.0-3.113-1.113","4ursmu04plgwwrl",83,"140.csv","","null","resources/maskTrios/BBA2.jpg","null","",NA,NA,NA,NA,""
"image-keyboard-response",352,636615,"0.0-3.113-2.113","4ursmu04plgwwrl",83,"140.csv","","null","resources/images/coin2.png","null","",NA,NA,NA,NA,""
"image-keyboard-response",353,638851,"0.0-3.114-0.114","4ursmu04plgwwrl",83,"140.csv","","2234","resources/trios/L1T4A2.jpg","38","restless",0.5,0.7,0.5,0.290303022710284,"true"
"image-keyboard-response",354,639253,"0.0-3.114-1.114","4ursmu04plgwwrl",83,"140.csv","","null","resources/maskTrios/BT4B.jpg","null","",NA,NA,NA,NA,""
"image-keyboard-response",355,640455,"0.0-3.114-2.114","4ursmu04plgwwrl",83,"140.csv","","null","resources/images/coin2.png","null","",NA,NA,NA,NA,""
"image-keyboard-response",356,641949,"0.0-3.115-0.115","4ursmu04plgwwrl",83,"140.csv","","1493","resources/trios/L4T4A3.jpg","38","restless",0.5,0.7,0.4,0.00893324157638575,"true"
"image-keyboard-response",357,642351,"0.0-3.115-1.115","4ursmu04plgwwrl",83,"140.csv","","null","resources/maskTrios/BT4B.jpg","null","",NA,NA,NA,NA,""
"image-keyboard-response",358,643553,"0.0-3.115-2.115","4ursmu04plgwwrl",83,"140.csv","","null","resources/images/coin2.png","null","",NA,NA,NA,NA,""
"image-keyboard-response",359,645853,"0.0-3.116-0.116","4ursmu04plgwwrl",83,"140.csv","","2298","resources/trios/L1T4A2.jpg","38","restless",0.5,0.7,0.4,0.942603159771923,"false"
"image-keyboard-response",360,646256,"0.0-3.116-1.116","4ursmu04plgwwrl",83,"140.csv","","null","resources/maskTrios/BT4B.jpg","null","",NA,NA,NA,NA,""
"image-keyboard-response",361,647458,"0.0-3.116-2.116","4ursmu04plgwwrl",83,"140.csv","","null","resources/images/fishbone.png","null","",NA,NA,NA,NA,""
"image-keyboard-response",362,648411,"0.0-3.117-0.117","4ursmu04plgwwrl",83,"140.csv","","952","resources/trios/L1T1A2.jpg","38","restless",0.5,0.7,0.4,0.12626648909048,"true"
"image-keyboard-response",363,648814,"0.0-3.117-1.117","4ursmu04plgwwrl",83,"140.csv","","null","resources/maskTrios/BT1B.jpg","null","",NA,NA,NA,NA,""
"image-keyboard-response",364,650016,"0.0-3.117-2.117","4ursmu04plgwwrl",83,"140.csv","","null","resources/images/coin2.png","null","",NA,NA,NA,NA,""
"image-keyboard-response",365,651061,"0.0-3.118-0.118","4ursmu04plgwwrl",83,"140.csv","","1041.0000000001164","resources/trios/L1T1A2.jpg","38","restless",0.5,0.7,0.4,0.138528169351155,"true"
"image-keyboard-response",366,651464,"0.0-3.118-1.118","4ursmu04plgwwrl",83,"140.csv","","null","resources/maskTrios/BT1B.jpg","null","",NA,NA,NA,NA,""
"image-keyboard-response",367,652666,"0.0-3.118-2.118","4ursmu04plgwwrl",83,"140.csv","","null","resources/images/coin2.png","null","",NA,NA,NA,NA,""
"image-keyboard-response",368,653832,"0.0-3.119-0.119","4ursmu04plgwwrl",83,"140.csv","","1164","resources/trios/L4T4A2.jpg","37","restless",0.5,0.7,0.4,0.0580777039827722,"true"
"image-keyboard-response",369,654235,"0.0-3.119-1.119","4ursmu04plgwwrl",83,"140.csv","","null","resources/maskTrios/L4BB.jpg","null","",NA,NA,NA,NA,""
"image-keyboard-response",370,655437,"0.0-3.119-2.119","4ursmu04plgwwrl",83,"140.csv","","null","resources/images/coin2.png","null","",NA,NA,NA,NA,""
"image-keyboard-response",371,656498,"0.0-3.120-0.120","4ursmu04plgwwrl",83,"140.csv","","1059","resources/trios/L4T4A2.jpg","37","restless",0.5,0.7,0.4,0.667741043596957,"false"
"image-keyboard-response",372,656901,"0.0-3.120-1.120","4ursmu04plgwwrl",83,"140.csv","","null","resources/maskTrios/L4BB.jpg","null","",NA,NA,NA,NA,""
"image-keyboard-response",373,658103,"0.0-3.120-2.120","4ursmu04plgwwrl",83,"140.csv","","null","resources/images/fishbone.png","null","",NA,NA,NA,NA,""
"image-keyboard-response",374,659000,"0.0-3.121-0.121","4ursmu04plgwwrl",83,"140.csv","","895","resources/trios/L1T1A2.jpg","38","restless",0.5,0.7,0.4,0.473276107841317,"true"
"image-keyboard-response",375,659402,"0.0-3.121-1.121","4ursmu04plgwwrl",83,"140.csv","","null","resources/maskTrios/BT1B.jpg","null","",NA,NA,NA,NA,""
"image-keyboard-response",376,660606,"0.0-3.121-2.121","4ursmu04plgwwrl",83,"140.csv","","null","resources/images/coin2.png","null","",NA,NA,NA,NA,""
"image-keyboard-response",377,679110,"0.0-3.122-0.122","4ursmu04plgwwrl",83,"140.csv","","18502","resources/trios/L4T4A2.jpg","39","restless",0.5,0.7,0.4,0.866588376318065,"false"
"image-keyboard-response",378,679514,"0.0-3.122-1.122","4ursmu04plgwwrl",83,"140.csv","","null","resources/maskTrios/BBA2.jpg","null","",NA,NA,NA,NA,""
"image-keyboard-response",379,680717,"0.0-3.122-2.122","4ursmu04plgwwrl",83,"140.csv","","null","resources/images/fishbone.png","null","",NA,NA,NA,NA,""
"image-keyboard-response",380,681500,"0.0-3.123-0.123","4ursmu04plgwwrl",83,"140.csv","","780","resources/trios/L1T1A2.jpg","38","restless",0.5,0.7,0.4,0.397834028821315,"true"
"image-keyboard-response",381,681902,"0.0-3.123-1.123","4ursmu04plgwwrl",83,"140.csv","","null","resources/maskTrios/BT1B.jpg","null","",NA,NA,NA,NA,""
"image-keyboard-response",382,683105,"0.0-3.123-2.123","4ursmu04plgwwrl",83,"140.csv","","null","resources/images/coin2.png","null","",NA,NA,NA,NA,""
"image-keyboard-response",383,684127,"0.0-3.124-0.124","4ursmu04plgwwrl",83,"140.csv","","1021","resources/trios/L4T1A3.jpg","38","restless",0.5,0.7,0.4,0.696580154498697,"true"
"image-keyboard-response",384,684529,"0.0-3.124-1.124","4ursmu04plgwwrl",83,"140.csv","","null","resources/maskTrios/BT1B.jpg","null","",NA,NA,NA,NA,""
"image-keyboard-response",385,685732,"0.0-3.124-2.124","4ursmu04plgwwrl",83,"140.csv","","null","resources/images/coin2.png","null","",NA,NA,NA,NA,""
"image-keyboard-response",386,686434,"0.0-3.125-0.125","4ursmu04plgwwrl",83,"140.csv","","701","resources/trios/L4T1A2.jpg","38","restless",0.5,0.7,0.4,0.94375694141511,"false"
"image-keyboard-response",387,686838,"0.0-3.125-1.125","4ursmu04plgwwrl",83,"140.csv","","null","resources/maskTrios/BT1B.jpg","null","",NA,NA,NA,NA,""
"image-keyboard-response",388,688040,"0.0-3.125-2.125","4ursmu04plgwwrl",83,"140.csv","","null","resources/images/fishbone.png","null","",NA,NA,NA,NA,""
"image-keyboard-response",389,688469,"0.0-3.126-0.126","4ursmu04plgwwrl",83,"140.csv","","426.9999999998836","resources/trios/L4T4A3.jpg","37","restless",0.5,0.7,0.3,0.605416093209271,"false"
"image-keyboard-response",390,688872,"0.0-3.126-1.126","4ursmu04plgwwrl",83,"140.csv","","null","resources/maskTrios/L4BB.jpg","null","",NA,NA,NA,NA,""
"image-keyboard-response",391,690074,"0.0-3.126-2.126","4ursmu04plgwwrl",83,"140.csv","","null","resources/images/fishbone.png","null","",NA,NA,NA,NA,""
"image-keyboard-response",392,690478,"0.0-3.127-0.127","4ursmu04plgwwrl",83,"140.csv","","403","resources/trios/L1T1A2.jpg","39","restless",0.5,0.7,0.3,0.413559762277628,"false"
"image-keyboard-response",393,690880,"0.0-3.127-1.127","4ursmu04plgwwrl",83,"140.csv","","null","resources/maskTrios/BBA2.jpg","null","",NA,NA,NA,NA,""
"image-keyboard-response",394,692083,"0.0-3.127-2.127","4ursmu04plgwwrl",83,"140.csv","","null","resources/images/fishbone.png","null","",NA,NA,NA,NA,""
"image-keyboard-response",395,692498,"0.0-3.128-0.128","4ursmu04plgwwrl",83,"140.csv","","411","resources/trios/L1T1A3.jpg","38","restless",0.5,0.7,0.3,0.729183355500232,"false"
"image-keyboard-response",396,692901,"0.0-3.128-1.128","4ursmu04plgwwrl",83,"140.csv","","null","resources/maskTrios/BT1B.jpg","null","",NA,NA,NA,NA,""
"image-keyboard-response",397,694103,"0.0-3.128-2.128","4ursmu04plgwwrl",83,"140.csv","","null","resources/images/fishbone.png","null","",NA,NA,NA,NA,""
"image-keyboard-response",398,694567,"0.0-3.129-0.129","4ursmu04plgwwrl",83,"140.csv","","463","resources/trios/L1T4A3.jpg","37","restless",0.5,0.6,0.3,0.614972477052558,"false"
"image-keyboard-response",399,694968,"0.0-3.129-1.129","4ursmu04plgwwrl",83,"140.csv","","null","resources/maskTrios/L1BB.jpg","null","",NA,NA,NA,NA,""
"image-keyboard-response",400,696170,"0.0-3.129-2.129","4ursmu04plgwwrl",83,"140.csv","","null","resources/images/fishbone.png","null","",NA,NA,NA,NA,""
"image-keyboard-response",401,696628,"0.0-3.130-0.130","4ursmu04plgwwrl",83,"140.csv","","457","resources/trios/L4T4A2.jpg","39","restless",0.5,0.6,0.3,0.369904553054417,"false"
"image-keyboard-response",402,697030,"0.0-3.130-1.130","4ursmu04plgwwrl",83,"140.csv","","null","resources/maskTrios/BBA2.jpg","null","",NA,NA,NA,NA,""
"image-keyboard-response",403,698232,"0.0-3.130-2.130","4ursmu04plgwwrl",83,"140.csv","","null","resources/images/fishbone.png","null","",NA,NA,NA,NA,""
"image-keyboard-response",404,699484,"0.0-3.131-0.131","4ursmu04plgwwrl",83,"140.csv","","1251.0000000001164","resources/trios/L1T4A2.jpg","37","restless",0.5,0.5,0.3,0.314079837702532,"true"
"image-keyboard-response",405,699886,"0.0-3.131-1.131","4ursmu04plgwwrl",83,"140.csv","","null","resources/maskTrios/L1BB.jpg","null","",NA,NA,NA,NA,""
"image-keyboard-response",406,701089,"0.0-3.131-2.131","4ursmu04plgwwrl",83,"140.csv","","null","resources/images/coin2.png","null","",NA,NA,NA,NA,""
"image-keyboard-response",407,701762,"0.0-3.132-0.132","4ursmu04plgwwrl",83,"140.csv","","671.9999999998836","resources/trios/L1T4A3.jpg","37","restless",0.5,0.5,0.3,0.34473505742755,"true"
"image-keyboard-response",408,702167,"0.0-3.132-1.132","4ursmu04plgwwrl",83,"140.csv","","null","resources/maskTrios/L1BB.jpg","null","",NA,NA,NA,NA,""
"image-keyboard-response",409,703369,"0.0-3.132-2.132","4ursmu04plgwwrl",83,"140.csv","","null","resources/images/coin2.png","null","",NA,NA,NA,NA,""
"image-keyboard-response",410,704636,"0.0-3.133-0.133","4ursmu04plgwwrl",83,"140.csv","","1265","resources/trios/L1T1A3.jpg","38","restless",0.5,0.4,0.3,0.43624193674668,"false"
"image-keyboard-response",411,705039,"0.0-3.133-1.133","4ursmu04plgwwrl",83,"140.csv","","null","resources/maskTrios/BT1B.jpg","null","",NA,NA,NA,NA,""
"image-keyboard-response",412,706241,"0.0-3.133-2.133","4ursmu04plgwwrl",83,"140.csv","","null","resources/images/fishbone.png","null","",NA,NA,NA,NA,""
"image-keyboard-response",413,706848,"0.0-3.134-0.134","4ursmu04plgwwrl",83,"140.csv","","606","resources/trios/L4T4A2.jpg","39","restless",0.5,0.4,0.3,0.927043352594402,"false"
"image-keyboard-response",414,707250,"0.0-3.134-1.134","4ursmu04plgwwrl",83,"140.csv","","null","resources/maskTrios/BBA2.jpg","null","",NA,NA,NA,NA,""
"image-keyboard-response",415,708453,"0.0-3.134-2.134","4ursmu04plgwwrl",83,"140.csv","","null","resources/images/fishbone.png","null","",NA,NA,NA,NA,""
"image-keyboard-response",416,709228,"0.0-3.135-0.135","4ursmu04plgwwrl",83,"140.csv","","772","resources/trios/L1T4A3.jpg","38","restless",0.5,0.4,0.4,0.337095198538695,"true"
"image-keyboard-response",417,709631,"0.0-3.135-1.135","4ursmu04plgwwrl",83,"140.csv","","null","resources/maskTrios/BT4B.jpg","null","",NA,NA,NA,NA,""
"image-keyboard-response",418,710833,"0.0-3.135-2.135","4ursmu04plgwwrl",83,"140.csv","","null","resources/images/coin2.png","null","",NA,NA,NA,NA,""
"image-keyboard-response",419,712595,"0.0-3.136-0.136","4ursmu04plgwwrl",83,"140.csv","","1760","resources/trios/L1T4A2.jpg","37","restless",0.5,0.4,0.4,0.53620896149468,"false"
"image-keyboard-response",420,712997,"0.0-3.136-1.136","4ursmu04plgwwrl",83,"140.csv","","null","resources/maskTrios/L1BB.jpg","null","",NA,NA,NA,NA,""
"image-keyboard-response",421,714199,"0.0-3.136-2.136","4ursmu04plgwwrl",83,"140.csv","","null","resources/images/fishbone.png","null","",NA,NA,NA,NA,""
"image-keyboard-response",422,714874,"0.0-3.137-0.137","4ursmu04plgwwrl",83,"140.csv","","670","resources/trios/L4T1A2.jpg","38","restless",0.5,0.4,0.4,0.75036546510742,"false"
"image-keyboard-response",423,715277,"0.0-3.137-1.137","4ursmu04plgwwrl",83,"140.csv","","null","resources/maskTrios/BT1B.jpg","null","",NA,NA,NA,NA,""
"image-keyboard-response",424,716479,"0.0-3.137-2.137","4ursmu04plgwwrl",83,"140.csv","","null","resources/images/fishbone.png","null","",NA,NA,NA,NA,""
"image-keyboard-response",425,716945,"0.0-3.138-0.138","4ursmu04plgwwrl",83,"140.csv","","464","resources/trios/L4T4A2.jpg","39","restless",0.5,0.4,0.4,0.198548684847597,"true"
"image-keyboard-response",426,717347,"0.0-3.138-1.138","4ursmu04plgwwrl",83,"140.csv","","null","resources/maskTrios/BBA2.jpg","null","",NA,NA,NA,NA,""
"image-keyboard-response",427,718549,"0.0-3.138-2.138","4ursmu04plgwwrl",83,"140.csv","","null","resources/images/coin2.png","null","",NA,NA,NA,NA,""
"image-keyboard-response",428,721030,"0.0-3.139-0.139","4ursmu04plgwwrl",83,"140.csv","","2480","resources/trios/L1T1A3.jpg","38","restless",0.5,0.4,0.4,0.568665379129164,"false"
"image-keyboard-response",429,721433,"0.0-3.139-1.139","4ursmu04plgwwrl",83,"140.csv","","null","resources/maskTrios/BT1B.jpg","null","",NA,NA,NA,NA,""
"image-keyboard-response",430,722635,"0.0-3.139-2.139","4ursmu04plgwwrl",83,"140.csv","","null","resources/images/fishbone.png","null","",NA,NA,NA,NA,""
"image-keyboard-response",431,723115,"0.0-3.140-0.140","4ursmu04plgwwrl",83,"140.csv","","478","resources/trios/L1T4A3.jpg","39","restless",0.5,0.4,0.4,0.253415274052997,"true"
"image-keyboard-response",432,723518,"0.0-3.140-1.140","4ursmu04plgwwrl",83,"140.csv","","null","resources/maskTrios/BBA3.jpg","null","",NA,NA,NA,NA,""
"image-keyboard-response",433,724720,"0.0-3.140-2.140","4ursmu04plgwwrl",83,"140.csv","","null","resources/images/coin2.png","null","",NA,NA,NA,NA,""
"image-keyboard-response",434,725390,"0.0-3.141-0.141","4ursmu04plgwwrl",83,"140.csv","","668","resources/trios/L1T1A3.jpg","39","restless",0.5,0.4,0.4,0.334110212451929,"true"
"image-keyboard-response",435,725794,"0.0-3.141-1.141","4ursmu04plgwwrl",83,"140.csv","","null","resources/maskTrios/BBA3.jpg","null","",NA,NA,NA,NA,""
"image-keyboard-response",436,726997,"0.0-3.141-2.141","4ursmu04plgwwrl",83,"140.csv","","null","resources/images/coin2.png","null","",NA,NA,NA,NA,""
"image-keyboard-response",437,728884,"0.0-3.142-0.142","4ursmu04plgwwrl",83,"140.csv","","1885","resources/trios/L1T1A2.jpg","38","restless",0.5,0.4,0.4,0.571827052183686,"false"
"image-keyboard-response",438,729287,"0.0-3.142-1.142","4ursmu04plgwwrl",83,"140.csv","","null","resources/maskTrios/BT1B.jpg","null","",NA,NA,NA,NA,""
"image-keyboard-response",439,730489,"0.0-3.142-2.142","4ursmu04plgwwrl",83,"140.csv","","null","resources/images/fishbone.png","null","",NA,NA,NA,NA,""
"image-keyboard-response",440,731514,"0.0-3.143-0.143","4ursmu04plgwwrl",83,"140.csv","","1023","resources/trios/L1T4A3.jpg","39","restless",0.5,0.3,0.4,0.683045155380879,"false"
"image-keyboard-response",441,731919,"0.0-3.143-1.143","4ursmu04plgwwrl",83,"140.csv","","null","resources/maskTrios/BBA3.jpg","null","",NA,NA,NA,NA,""
"image-keyboard-response",442,733122,"0.0-3.143-2.143","4ursmu04plgwwrl",83,"140.csv","","null","resources/images/fishbone.png","null","",NA,NA,NA,NA,""
"image-keyboard-response",443,733590,"0.0-3.144-0.144","4ursmu04plgwwrl",83,"140.csv","","466.0000000001164","resources/trios/L1T1A2.jpg","37","restless",0.6,0.3,0.4,0.792586889581961,"false"
"image-keyboard-response",444,733992,"0.0-3.144-1.144","4ursmu04plgwwrl",83,"140.csv","","null","resources/maskTrios/L1BB.jpg","null","",NA,NA,NA,NA,""
"image-keyboard-response",445,735195,"0.0-3.144-2.144","4ursmu04plgwwrl",83,"140.csv","","null","resources/images/fishbone.png","null","",NA,NA,NA,NA,""
"image-keyboard-response",446,735843,"0.0-3.145-0.145","4ursmu04plgwwrl",83,"140.csv","","647","resources/trios/L1T1A3.jpg","38","restless",0.6,0.3,0.4,0.72120695982378,"false"
"image-keyboard-response",447,736246,"0.0-3.145-1.145","4ursmu04plgwwrl",83,"140.csv","","null","resources/maskTrios/BT1B.jpg","null","",NA,NA,NA,NA,""
"image-keyboard-response",448,737448,"0.0-3.145-2.145","4ursmu04plgwwrl",83,"140.csv","","null","resources/images/fishbone.png","null","",NA,NA,NA,NA,""
"image-keyboard-response",449,738222,"0.0-3.146-0.146","4ursmu04plgwwrl",83,"140.csv","","772","resources/trios/L1T4A2.jpg","39","restless",0.6,0.3,0.4,0.84319727411148,"false"
"image-keyboard-response",450,738625,"0.0-3.146-1.146","4ursmu04plgwwrl",83,"140.csv","","null","resources/maskTrios/BBA2.jpg","null","",NA,NA,NA,NA,""
"image-keyboard-response",451,739827,"0.0-3.146-2.146","4ursmu04plgwwrl",83,"140.csv","","null","resources/images/fishbone.png","null","",NA,NA,NA,NA,""
"image-keyboard-response",452,741171,"0.0-3.147-0.147","4ursmu04plgwwrl",83,"140.csv","","1341","resources/trios/L4T4A2.jpg","38","restless",0.6,0.3,0.4,0.468186038784085,"false"
"image-keyboard-response",453,741573,"0.0-3.147-1.147","4ursmu04plgwwrl",83,"140.csv","","null","resources/maskTrios/BT4B.jpg","null","",NA,NA,NA,NA,""
"image-keyboard-response",454,742776,"0.0-3.147-2.147","4ursmu04plgwwrl",83,"140.csv","","null","resources/images/fishbone.png","null","",NA,NA,NA,NA,""
"image-keyboard-response",455,743241,"0.0-3.148-0.148","4ursmu04plgwwrl",83,"140.csv","","464","resources/trios/L1T4A2.jpg","37","restless",0.6,0.3,0.4,0.939712055773038,"false"
"image-keyboard-response",456,743643,"0.0-3.148-1.148","4ursmu04plgwwrl",83,"140.csv","","null","resources/maskTrios/L1BB.jpg","null","",NA,NA,NA,NA,""
"image-keyboard-response",457,744844,"0.0-3.148-2.148","4ursmu04plgwwrl",83,"140.csv","","null","resources/images/fishbone.png","null","",NA,NA,NA,NA,""
"image-keyboard-response",458,746687,"0.0-3.149-0.149","4ursmu04plgwwrl",83,"140.csv","","1841","resources/trios/L4T1A3.jpg","38","restless",0.6,0.3,0.4,0.878325985149171,"false"
"image-keyboard-response",459,747089,"0.0-3.149-1.149","4ursmu04plgwwrl",83,"140.csv","","null","resources/maskTrios/BT1B.jpg","null","",NA,NA,NA,NA,""
"image-keyboard-response",460,748292,"0.0-3.149-2.149","4ursmu04plgwwrl",83,"140.csv","","null","resources/images/fishbone.png","null","",NA,NA,NA,NA,""
"image-keyboard-response",461,748592,"0.0-3.150-0.150","4ursmu04plgwwrl",83,"140.csv","","298","resources/trios/L4T4A2.jpg","39","restless",0.6,0.3,0.4,0.643517720393639,"false"
"image-keyboard-response",462,748994,"0.0-3.150-1.150","4ursmu04plgwwrl",83,"140.csv","","null","resources/maskTrios/BBA2.jpg","null","",NA,NA,NA,NA,""
"image-keyboard-response",463,750199,"0.0-3.150-2.150","4ursmu04plgwwrl",83,"140.csv","","null","resources/images/fishbone.png","null","",NA,NA,NA,NA,""
"image-keyboard-response",464,750738,"0.0-3.151-0.151","4ursmu04plgwwrl",83,"140.csv","","537","resources/trios/L1T1A3.jpg","39","restless",0.6,0.4,0.4,0.715585191176664,"false"
"image-keyboard-response",465,751141,"0.0-3.151-1.151","4ursmu04plgwwrl",83,"140.csv","","null","resources/maskTrios/BBA3.jpg","null","",NA,NA,NA,NA,""
"image-keyboard-response",466,752343,"0.0-3.151-2.151","4ursmu04plgwwrl",83,"140.csv","","null","resources/images/fishbone.png","null","",NA,NA,NA,NA,""
"image-keyboard-response",467,753073,"0.0-3.152-0.152","4ursmu04plgwwrl",83,"140.csv","","728","resources/trios/L1T4A2.jpg","37","restless",0.7,0.4,0.4,0.857577361577501,"false"
"image-keyboard-response",468,753478,"0.0-3.152-1.152","4ursmu04plgwwrl",83,"140.csv","","null","resources/maskTrios/L1BB.jpg","null","",NA,NA,NA,NA,""
"image-keyboard-response",469,754681,"0.0-3.152-2.152","4ursmu04plgwwrl",83,"140.csv","","null","resources/images/fishbone.png","null","",NA,NA,NA,NA,""
"image-keyboard-response",470,755176,"0.0-3.153-0.153","4ursmu04plgwwrl",83,"140.csv","","493","resources/trios/L1T1A2.jpg","38","restless",0.7,0.4,0.4,0.769132114294442,"false"
"image-keyboard-response",471,755579,"0.0-3.153-1.153","4ursmu04plgwwrl",83,"140.csv","","null","resources/maskTrios/BT1B.jpg","null","",NA,NA,NA,NA,""
"image-keyboard-response",472,756781,"0.0-3.153-2.153","4ursmu04plgwwrl",83,"140.csv","","null","resources/images/fishbone.png","null","",NA,NA,NA,NA,""
"image-keyboard-response",473,757207,"0.0-3.154-0.154","4ursmu04plgwwrl",83,"140.csv","","424","resources/trios/L1T1A2.jpg","38","restless",0.7,0.4,0.4,0.638167816774379,"false"
"image-keyboard-response",474,757609,"0.0-3.154-1.154","4ursmu04plgwwrl",83,"140.csv","","null","resources/maskTrios/BT1B.jpg","null","",NA,NA,NA,NA,""
"image-keyboard-response",475,758812,"0.0-3.154-2.154","4ursmu04plgwwrl",83,"140.csv","","null","resources/images/fishbone.png","null","",NA,NA,NA,NA,""
"image-keyboard-response",476,759897,"0.0-3.155-0.155","4ursmu04plgwwrl",83,"140.csv","","1083","resources/trios/L1T4A2.jpg","38","restless",0.7,0.4,0.4,0.327421876859673,"true"
"image-keyboard-response",477,760299,"0.0-3.155-1.155","4ursmu04plgwwrl",83,"140.csv","","null","resources/maskTrios/BT4B.jpg","null","",NA,NA,NA,NA,""
"image-keyboard-response",478,761502,"0.0-3.155-2.155","4ursmu04plgwwrl",83,"140.csv","","null","resources/images/coin2.png","null","",NA,NA,NA,NA,""
"image-keyboard-response",479,775807,"0.0-3.156-0.156","4ursmu04plgwwrl",83,"140.csv","","14301","resources/trios/L1T1A2.jpg","39","restless",0.8,0.4,0.4,0.120317890254973,"true"
"image-keyboard-response",480,776210,"0.0-3.156-1.156","4ursmu04plgwwrl",83,"140.csv","","null","resources/maskTrios/BBA2.jpg","null","",NA,NA,NA,NA,""
"image-keyboard-response",481,777413,"0.0-3.156-2.156","4ursmu04plgwwrl",83,"140.csv","","null","resources/images/coin2.png","null","",NA,NA,NA,NA,""
"image-keyboard-response",482,781322,"0.0-3.157-0.157","4ursmu04plgwwrl",83,"140.csv","","3908.0000000001164","resources/trios/L1T1A2.jpg","38","restless",0.8,0.4,0.4,0.335271930265492,"true"
"image-keyboard-response",483,781725,"0.0-3.157-1.157","4ursmu04plgwwrl",83,"140.csv","","null","resources/maskTrios/BT1B.jpg","null","",NA,NA,NA,NA,""
"image-keyboard-response",484,782927,"0.0-3.157-2.157","4ursmu04plgwwrl",83,"140.csv","","null","resources/images/coin2.png","null","",NA,NA,NA,NA,""
"image-keyboard-response",485,783491,"0.0-3.158-0.158","4ursmu04plgwwrl",83,"140.csv","","562.0000000001164","resources/trios/L1T4A2.jpg","38","restless",0.8,0.4,0.4,0.673103065847287,"false"
"image-keyboard-response",486,783894,"0.0-3.158-1.158","4ursmu04plgwwrl",83,"140.csv","","null","resources/maskTrios/BT4B.jpg","null","",NA,NA,NA,NA,""
"image-keyboard-response",487,785097,"0.0-3.158-2.158","4ursmu04plgwwrl",83,"140.csv","","null","resources/images/fishbone.png","null","",NA,NA,NA,NA,""
"image-keyboard-response",488,785458,"0.0-3.159-0.159","4ursmu04plgwwrl",83,"140.csv","","359","resources/trios/L1T1A3.jpg","39","restless",0.8,0.5,0.4,0.633082957638396,"false"
"image-keyboard-response",489,785861,"0.0-3.159-1.159","4ursmu04plgwwrl",83,"140.csv","","null","resources/maskTrios/BBA3.jpg","null","",NA,NA,NA,NA,""
"image-keyboard-response",490,787063,"0.0-3.159-2.159","4ursmu04plgwwrl",83,"140.csv","","null","resources/images/fishbone.png","null","",NA,NA,NA,NA,""
"image-keyboard-response",491,787569,"0.0-3.160-0.160","4ursmu04plgwwrl",83,"140.csv","","505","resources/trios/L4T4A2.jpg","37","restless",0.8,0.5,0.4,0.829903684163622,"false"
"image-keyboard-response",492,787971,"0.0-3.160-1.160","4ursmu04plgwwrl",83,"140.csv","","null","resources/maskTrios/L4BB.jpg","null","",NA,NA,NA,NA,""
"image-keyboard-response",493,789173,"0.0-3.160-2.160","4ursmu04plgwwrl",83,"140.csv","","null","resources/images/fishbone.png","null","",NA,NA,NA,NA,""
"image-keyboard-response",494,789573,"0.0-3.161-0.161","4ursmu04plgwwrl",83,"140.csv","","398.0000000001164","resources/trios/L4T4A2.jpg","38","restless",0.8,0.5,0.4,0.565266308137954,"false"
"image-keyboard-response",495,789975,"0.0-3.161-1.161","4ursmu04plgwwrl",83,"140.csv","","null","resources/maskTrios/BT4B.jpg","null","",NA,NA,NA,NA,""
"image-keyboard-response",496,791178,"0.0-3.161-2.161","4ursmu04plgwwrl",83,"140.csv","","null","resources/images/fishbone.png","null","",NA,NA,NA,NA,""
"image-keyboard-response",497,791870,"0.0-3.162-0.162","4ursmu04plgwwrl",83,"140.csv","","691","resources/trios/L1T4A2.jpg","37","restless",0.9,0.5,0.4,0.998068145853307,"false"
"image-keyboard-response",498,792273,"0.0-3.162-1.162","4ursmu04plgwwrl",83,"140.csv","","null","resources/maskTrios/L1BB.jpg","null","",NA,NA,NA,NA,""
"image-keyboard-response",499,793475,"0.0-3.162-2.162","4ursmu04plgwwrl",83,"140.csv","","null","resources/images/fishbone.png","null","",NA,NA,NA,NA,""
"image-keyboard-response",500,797205,"0.0-3.163-0.163","4ursmu04plgwwrl",83,"140.csv","","3729","resources/trios/L1T1A3.jpg","39","restless",0.9,0.5,0.4,0.341489175481438,"true"
"image-keyboard-response",501,797607,"0.0-3.163-1.163","4ursmu04plgwwrl",83,"140.csv","","null","resources/maskTrios/BBA3.jpg","null","",NA,NA,NA,NA,""
"image-keyboard-response",502,798810,"0.0-3.163-2.163","4ursmu04plgwwrl",83,"140.csv","","null","resources/images/coin2.png","null","",NA,NA,NA,NA,""
"image-keyboard-response",503,801602,"0.0-3.164-0.164","4ursmu04plgwwrl",83,"140.csv","","2791.0000000001164","resources/trios/L4T4A3.jpg","39","restless",0.9,0.5,0.4,0.0206470520640805,"true"
"image-keyboard-response",504,802004,"0.0-3.164-1.164","4ursmu04plgwwrl",83,"140.csv","","null","resources/maskTrios/BBA3.jpg","null","",NA,NA,NA,NA,""
"image-keyboard-response",505,803207,"0.0-3.164-2.164","4ursmu04plgwwrl",83,"140.csv","","null","resources/images/coin2.png","null","",NA,NA,NA,NA,""
"image-keyboard-response",506,804673,"0.0-3.165-0.165","4ursmu04plgwwrl",83,"140.csv","","1461","resources/trios/L4T4A2.jpg","37","restless",0.9,0.5,0.4,0.69147523702335,"true"
"image-keyboard-response",507,805075,"0.0-3.165-1.165","4ursmu04plgwwrl",83,"140.csv","","null","resources/maskTrios/L4BB.jpg","null","",NA,NA,NA,NA,""
"image-keyboard-response",508,806278,"0.0-3.165-2.165","4ursmu04plgwwrl",83,"140.csv","","null","resources/images/coin2.png","null","",NA,NA,NA,NA,""
"image-keyboard-response",509,807446,"0.0-3.166-0.166","4ursmu04plgwwrl",83,"140.csv","","1166","resources/trios/L1T4A3.jpg","39","restless",0.9,0.5,0.4,0.954670042464531,"false"
"image-keyboard-response",510,807851,"0.0-3.166-1.166","4ursmu04plgwwrl",83,"140.csv","","null","resources/maskTrios/BBA3.jpg","null","",NA,NA,NA,NA,""
"image-keyboard-response",511,809053,"0.0-3.166-2.166","4ursmu04plgwwrl",83,"140.csv","","null","resources/images/fishbone.png","null","",NA,NA,NA,NA,""
"image-keyboard-response",512,812080,"0.0-3.167-0.167","4ursmu04plgwwrl",83,"140.csv","","3025","resources/trios/L1T4A3.jpg","37","restless",0.9,0.5,0.4,0.79572519463786,"true"
"image-keyboard-response",513,812483,"0.0-3.167-1.167","4ursmu04plgwwrl",83,"140.csv","","null","resources/maskTrios/L1BB.jpg","null","",NA,NA,NA,NA,""
"image-keyboard-response",514,813685,"0.0-3.167-2.167","4ursmu04plgwwrl",83,"140.csv","","null","resources/images/coin2.png","null","",NA,NA,NA,NA,""
"image-keyboard-response",515,814582,"0.0-3.168-0.168","4ursmu04plgwwrl",83,"140.csv","","895","resources/trios/L1T1A3.jpg","38","restless",0.9,0.5,0.4,0.307655268247045,"true"
"image-keyboard-response",516,814986,"0.0-3.168-1.168","4ursmu04plgwwrl",83,"140.csv","","null","resources/maskTrios/BT1B.jpg","null","",NA,NA,NA,NA,""
"image-keyboard-response",517,816188,"0.0-3.168-2.168","4ursmu04plgwwrl",83,"140.csv","","null","resources/images/coin2.png","null","",NA,NA,NA,NA,""
"image-keyboard-response",518,819802,"0.0-3.169-0.169","4ursmu04plgwwrl",83,"140.csv","","3612","resources/trios/L1T1A2.jpg","39","restless",0.9,0.5,0.4,0.225385181024049,"true"
"image-keyboard-response",519,820205,"0.0-3.169-1.169","4ursmu04plgwwrl",83,"140.csv","","null","resources/maskTrios/BBA2.jpg","null","",NA,NA,NA,NA,""
"image-keyboard-response",520,821406,"0.0-3.169-2.169","4ursmu04plgwwrl",83,"140.csv","","null","resources/images/coin2.png","null","",NA,NA,NA,NA,""
"image-keyboard-response",521,823078,"0.0-3.170-0.170","4ursmu04plgwwrl",83,"140.csv","","1671","resources/trios/L1T4A2.jpg","38","restless",0.9,0.5,0.4,0.927182813902926,"false"
"image-keyboard-response",522,823481,"0.0-3.170-1.170","4ursmu04plgwwrl",83,"140.csv","","null","resources/maskTrios/BT4B.jpg","null","",NA,NA,NA,NA,""
"image-keyboard-response",523,824683,"0.0-3.170-2.170","4ursmu04plgwwrl",83,"140.csv","","null","resources/images/fishbone.png","null","",NA,NA,NA,NA,""
"image-keyboard-response",524,828575,"0.0-3.171-0.171","4ursmu04plgwwrl",83,"140.csv","","3889","resources/trios/L1T4A2.jpg","39","restless",0.9,0.5,0.4,0.892971157418973,"false"
"image-keyboard-response",525,828978,"0.0-3.171-1.171","4ursmu04plgwwrl",83,"140.csv","","null","resources/maskTrios/BBA2.jpg","null","",NA,NA,NA,NA,""
"image-keyboard-response",526,830181,"0.0-3.171-2.171","4ursmu04plgwwrl",83,"140.csv","","null","resources/images/fishbone.png","null","",NA,NA,NA,NA,""
"image-keyboard-response",527,831143,"0.0-3.172-0.172","4ursmu04plgwwrl",83,"140.csv","","960","resources/trios/L1T1A2.jpg","38","restless",0.9,0.5,0.4,0.574535418201289,"false"
"image-keyboard-response",528,831546,"0.0-3.172-1.172","4ursmu04plgwwrl",83,"140.csv","","null","resources/maskTrios/BT1B.jpg","null","",NA,NA,NA,NA,""
"image-keyboard-response",529,832748,"0.0-3.172-2.172","4ursmu04plgwwrl",83,"140.csv","","null","resources/images/fishbone.png","null","",NA,NA,NA,NA,""
"image-keyboard-response",530,833866,"0.0-3.173-0.173","4ursmu04plgwwrl",83,"140.csv","","1116.0000000001164","resources/trios/L4T4A3.jpg","37","restless",0.9,0.5,0.4,0.609144393228406,"true"
"image-keyboard-response",531,834269,"0.0-3.173-1.173","4ursmu04plgwwrl",83,"140.csv","","null","resources/maskTrios/L4BB.jpg","null","",NA,NA,NA,NA,""
"image-keyboard-response",532,835470,"0.0-3.173-2.173","4ursmu04plgwwrl",83,"140.csv","","null","resources/images/coin2.png","null","",NA,NA,NA,NA,""
"image-keyboard-response",533,837139,"0.0-3.174-0.174","4ursmu04plgwwrl",83,"140.csv","","1666.9999999998836","resources/trios/L4T1A3.jpg","38","restless",0.9,0.5,0.4,0.904598322081097,"false"
"image-keyboard-response",534,837541,"0.0-3.174-1.174","4ursmu04plgwwrl",83,"140.csv","","null","resources/maskTrios/BT1B.jpg","null","",NA,NA,NA,NA,""
"image-keyboard-response",535,838742,"0.0-3.174-2.174","4ursmu04plgwwrl",83,"140.csv","","null","resources/images/fishbone.png","null","",NA,NA,NA,NA,""
"image-keyboard-response",536,839135,"0.0-3.175-0.175","4ursmu04plgwwrl",83,"140.csv","","390","resources/trios/L4T1A3.jpg","39","restless",0.9,0.5,0.4,0.638659826575011,"false"
"image-keyboard-response",537,839537,"0.0-3.175-1.175","4ursmu04plgwwrl",83,"140.csv","","null","resources/maskTrios/BBA3.jpg","null","",NA,NA,NA,NA,""
"image-keyboard-response",538,840739,"0.0-3.175-2.175","4ursmu04plgwwrl",83,"140.csv","","null","resources/images/fishbone.png","null","",NA,NA,NA,NA,""
"image-keyboard-response",539,841355,"0.0-3.176-0.176","4ursmu04plgwwrl",83,"140.csv","","615","resources/trios/L4T1A3.jpg","37","restless",0.9,0.5,0.4,0.745587481707209,"true"
"image-keyboard-response",540,841758,"0.0-3.176-1.176","4ursmu04plgwwrl",83,"140.csv","","null","resources/maskTrios/L4BB.jpg","null","",NA,NA,NA,NA,""
"image-keyboard-response",541,842960,"0.0-3.176-2.176","4ursmu04plgwwrl",83,"140.csv","","null","resources/images/coin2.png","null","",NA,NA,NA,NA,""
"image-keyboard-response",542,843856,"0.0-3.177-0.177","4ursmu04plgwwrl",83,"140.csv","","895","resources/trios/L4T4A2.jpg","37","restless",0.9,0.5,0.4,0.534834125299064,"true"
"image-keyboard-response",543,844261,"0.0-3.177-1.177","4ursmu04plgwwrl",83,"140.csv","","null","resources/maskTrios/L4BB.jpg","null","",NA,NA,NA,NA,""
"image-keyboard-response",544,845463,"0.0-3.177-2.177","4ursmu04plgwwrl",83,"140.csv","","null","resources/images/coin2.png","null","",NA,NA,NA,NA,""
"image-keyboard-response",545,846868,"0.0-3.178-0.178","4ursmu04plgwwrl",83,"140.csv","","1403","resources/trios/L1T1A3.jpg","38","restless",0.9,0.5,0.4,0.516533826565132,"false"
"image-keyboard-response",546,847270,"0.0-3.178-1.178","4ursmu04plgwwrl",83,"140.csv","","null","resources/maskTrios/BT1B.jpg","null","",NA,NA,NA,NA,""
"image-keyboard-response",547,848476,"0.0-3.178-2.178","4ursmu04plgwwrl",83,"140.csv","","null","resources/images/fishbone.png","null","",NA,NA,NA,NA,""
"image-keyboard-response",548,849710,"0.0-3.179-0.179","4ursmu04plgwwrl",83,"140.csv","","1232","resources/trios/L1T1A2.jpg","39","restless",0.8,0.5,0.3,0.172578617398906,"true"
"image-keyboard-response",549,850112,"0.0-3.179-1.179","4ursmu04plgwwrl",83,"140.csv","","null","resources/maskTrios/BBA2.jpg","null","",NA,NA,NA,NA,""
"image-keyboard-response",550,851314,"0.0-3.179-2.179","4ursmu04plgwwrl",83,"140.csv","","null","resources/images/coin2.png","null","",NA,NA,NA,NA,""
"image-keyboard-response",551,853708,"0.0-3.180-0.180","4ursmu04plgwwrl",83,"140.csv","","2392","resources/trios/L4T4A2.jpg","37","restless",0.7,0.5,0.3,0.866748802051499,"false"
"image-keyboard-response",552,854113,"0.0-3.180-1.180","4ursmu04plgwwrl",83,"140.csv","","null","resources/maskTrios/L4BB.jpg","null","",NA,NA,NA,NA,""
"image-keyboard-response",553,855315,"0.0-3.180-2.180","4ursmu04plgwwrl",83,"140.csv","","null","resources/images/fishbone.png","null","",NA,NA,NA,NA,""
"image-keyboard-response",554,855949,"0.0-3.181-0.181","4ursmu04plgwwrl",83,"140.csv","","633","resources/trios/L4T4A2.jpg","38","restless",0.7,0.5,0.3,0.00579654216488412,"true"
"image-keyboard-response",555,856351,"0.0-3.181-1.181","4ursmu04plgwwrl",83,"140.csv","","null","resources/maskTrios/BT4B.jpg","null","",NA,NA,NA,NA,""
"image-keyboard-response",556,857554,"0.0-3.181-2.181","4ursmu04plgwwrl",83,"140.csv","","null","resources/images/coin2.png","null","",NA,NA,NA,NA,""
"image-keyboard-response",557,858915,"0.0-3.182-0.182","4ursmu04plgwwrl",83,"140.csv","","1360","resources/trios/L1T4A3.jpg","39","restless",0.7,0.5,0.3,0.653494562661325,"false"
"image-keyboard-response",558,859317,"0.0-3.182-1.182","4ursmu04plgwwrl",83,"140.csv","","null","resources/maskTrios/BBA3.jpg","null","",NA,NA,NA,NA,""
"image-keyboard-response",559,860520,"0.0-3.182-2.182","4ursmu04plgwwrl",83,"140.csv","","null","resources/images/fishbone.png","null","",NA,NA,NA,NA,""
"image-keyboard-response",560,861437,"0.0-3.183-0.183","4ursmu04plgwwrl",83,"140.csv","","916","resources/trios/L4T4A2.jpg","37","restless",0.7,0.5,0.3,0.28063248321794,"true"
"image-keyboard-response",561,861840,"0.0-3.183-1.183","4ursmu04plgwwrl",83,"140.csv","","null","resources/maskTrios/L4BB.jpg","null","",NA,NA,NA,NA,""
"image-keyboard-response",562,863041,"0.0-3.183-2.183","4ursmu04plgwwrl",83,"140.csv","","null","resources/images/coin2.png","null","",NA,NA,NA,NA,""
"image-keyboard-response",563,864512,"0.0-3.184-0.184","4ursmu04plgwwrl",83,"140.csv","","1469","resources/trios/L4T4A2.jpg","37","restless",0.6,0.5,0.3,0.0719955773353278,"true"
"image-keyboard-response",564,864916,"0.0-3.184-1.184","4ursmu04plgwwrl",83,"140.csv","","null","resources/maskTrios/L4BB.jpg","null","",NA,NA,NA,NA,""
"image-keyboard-response",565,866119,"0.0-3.184-2.184","4ursmu04plgwwrl",83,"140.csv","","null","resources/images/coin2.png","null","",NA,NA,NA,NA,""
"image-keyboard-response",566,868672,"0.0-3.185-0.185","4ursmu04plgwwrl",83,"140.csv","","2550","resources/trios/L1T1A2.jpg","37","restless",0.6,0.5,0.3,0.221072785020526,"true"
"image-keyboard-response",567,869075,"0.0-3.185-1.185","4ursmu04plgwwrl",83,"140.csv","","null","resources/maskTrios/L1BB.jpg","null","",NA,NA,NA,NA,""
"image-keyboard-response",568,870277,"0.0-3.185-2.185","4ursmu04plgwwrl",83,"140.csv","","null","resources/images/coin2.png","null","",NA,NA,NA,NA,""
"image-keyboard-response",569,871784,"0.0-3.186-0.186","4ursmu04plgwwrl",83,"140.csv","","1505","resources/trios/L1T1A3.jpg","39","restless",0.6,0.5,0.3,0.163955858598451,"true"
"image-keyboard-response",570,872186,"0.0-3.186-1.186","4ursmu04plgwwrl",83,"140.csv","","null","resources/maskTrios/BBA3.jpg","null","",NA,NA,NA,NA,""
"image-keyboard-response",571,873391,"0.0-3.186-2.186","4ursmu04plgwwrl",83,"140.csv","","null","resources/images/coin2.png","null","",NA,NA,NA,NA,""
"image-keyboard-response",572,875535,"0.0-3.187-0.187","4ursmu04plgwwrl",83,"140.csv","","2142","resources/trios/L4T1A3.jpg","39","restless",0.6,0.4,0.3,0.024999250773714,"true"
"image-keyboard-response",573,875938,"0.0-3.187-1.187","4ursmu04plgwwrl",83,"140.csv","","null","resources/maskTrios/BBA3.jpg","null","",NA,NA,NA,NA,""
"image-keyboard-response",574,877144,"0.0-3.187-2.187","4ursmu04plgwwrl",83,"140.csv","","null","resources/images/coin2.png","null","",NA,NA,NA,NA,""
"image-keyboard-response",575,878992,"0.0-3.188-0.188","4ursmu04plgwwrl",83,"140.csv","","1846","resources/trios/L4T4A3.jpg","38","restless",0.6,0.4,0.3,0.409661491052608,"false"
"image-keyboard-response",576,879395,"0.0-3.188-1.188","4ursmu04plgwwrl",83,"140.csv","","null","resources/maskTrios/BT4B.jpg","null","",NA,NA,NA,NA,""
"image-keyboard-response",577,880597,"0.0-3.188-2.188","4ursmu04plgwwrl",83,"140.csv","","null","resources/images/fishbone.png","null","",NA,NA,NA,NA,""
"image-keyboard-response",578,882074,"0.0-3.189-0.189","4ursmu04plgwwrl",83,"140.csv","","1475","resources/trios/L4T4A2.jpg","37","restless",0.5,0.4,0.4,0.2255892206809,"true"
"image-keyboard-response",579,882476,"0.0-3.189-1.189","4ursmu04plgwwrl",83,"140.csv","","null","resources/maskTrios/L4BB.jpg","null","",NA,NA,NA,NA,""
"image-keyboard-response",580,883679,"0.0-3.189-2.189","4ursmu04plgwwrl",83,"140.csv","","null","resources/images/coin2.png","null","",NA,NA,NA,NA,""
"image-keyboard-response",581,885092,"0.0-3.190-0.190","4ursmu04plgwwrl",83,"140.csv","","1411.0000000001164","resources/trios/L1T4A2.jpg","37","restless",0.5,0.4,0.4,0.957780119670697,"false"
"image-keyboard-response",582,885494,"0.0-3.190-1.190","4ursmu04plgwwrl",83,"140.csv","","null","resources/maskTrios/L1BB.jpg","null","",NA,NA,NA,NA,""
"image-keyboard-response",583,886697,"0.0-3.190-2.190","4ursmu04plgwwrl",83,"140.csv","","null","resources/images/fishbone.png","null","",NA,NA,NA,NA,""
"image-keyboard-response",584,888925,"0.0-3.191-0.191","4ursmu04plgwwrl",83,"140.csv","","2226.9999999998836","resources/trios/L1T1A3.jpg","38","restless",0.4,0.4,0.4,0.733607770498632,"false"
"image-keyboard-response",585,889329,"0.0-3.191-1.191","4ursmu04plgwwrl",83,"140.csv","","null","resources/maskTrios/BT1B.jpg","null","",NA,NA,NA,NA,""
"image-keyboard-response",586,890531,"0.0-3.191-2.191","4ursmu04plgwwrl",83,"140.csv","","null","resources/images/fishbone.png","null","",NA,NA,NA,NA,""
"image-keyboard-response",587,891238,"0.0-3.192-0.192","4ursmu04plgwwrl",83,"140.csv","","705","resources/trios/L1T1A2.jpg","39","restless",0.4,0.4,0.3,0.675350815196258,"false"
"image-keyboard-response",588,891640,"0.0-3.192-1.192","4ursmu04plgwwrl",83,"140.csv","","null","resources/maskTrios/BBA2.jpg","null","",NA,NA,NA,NA,""
"image-keyboard-response",589,892843,"0.0-3.192-2.192","4ursmu04plgwwrl",83,"140.csv","","null","resources/images/fishbone.png","null","",NA,NA,NA,NA,""
"image-keyboard-response",590,893286,"0.0-3.193-0.193","4ursmu04plgwwrl",83,"140.csv","","442","resources/trios/L4T1A2.jpg","38","restless",0.4,0.4,0.3,0.955189591616579,"false"
"image-keyboard-response",591,893689,"0.0-3.193-1.193","4ursmu04plgwwrl",83,"140.csv","","null","resources/maskTrios/BT1B.jpg","null","",NA,NA,NA,NA,""
"image-keyboard-response",592,894891,"0.0-3.193-2.193","4ursmu04plgwwrl",83,"140.csv","","null","resources/images/fishbone.png","null","",NA,NA,NA,NA,""
"image-keyboard-response",593,895912,"0.0-3.194-0.194","4ursmu04plgwwrl",83,"140.csv","","1021","resources/trios/L1T1A2.jpg","38","restless",0.3,0.4,0.3,0.466194903429814,"false"
"image-keyboard-response",594,896315,"0.0-3.194-1.194","4ursmu04plgwwrl",83,"140.csv","","null","resources/maskTrios/BT1B.jpg","null","",NA,NA,NA,NA,""
"image-keyboard-response",595,897517,"0.0-3.194-2.194","4ursmu04plgwwrl",83,"140.csv","","null","resources/images/fishbone.png","null","",NA,NA,NA,NA,""
"image-keyboard-response",596,897981,"0.0-3.195-0.195","4ursmu04plgwwrl",83,"140.csv","","463","resources/trios/L4T1A3.jpg","37","restless",0.3,0.5,0.3,0.629076575476619,"false"
"image-keyboard-response",597,898384,"0.0-3.195-1.195","4ursmu04plgwwrl",83,"140.csv","","null","resources/maskTrios/L4BB.jpg","null","",NA,NA,NA,NA,""
"image-keyboard-response",598,899586,"0.0-3.195-2.195","4ursmu04plgwwrl",83,"140.csv","","null","resources/images/fishbone.png","null","",NA,NA,NA,NA,""
"image-keyboard-response",599,899932,"0.0-3.196-0.196","4ursmu04plgwwrl",83,"140.csv","","345","resources/trios/L4T4A2.jpg","39","restless",0.3,0.5,0.3,0.357563777705379,"false"
"image-keyboard-response",600,900335,"0.0-3.196-1.196","4ursmu04plgwwrl",83,"140.csv","","null","resources/maskTrios/BBA2.jpg","null","",NA,NA,NA,NA,""
"image-keyboard-response",601,901537,"0.0-3.196-2.196","4ursmu04plgwwrl",83,"140.csv","","null","resources/images/fishbone.png","null","",NA,NA,NA,NA,""
"image-keyboard-response",602,902253,"0.0-3.197-0.197","4ursmu04plgwwrl",83,"140.csv","","714.9999999998836","resources/trios/L4T4A2.jpg","38","restless",0.3,0.5,0.3,0.677576450128077,"false"
"image-keyboard-response",603,902656,"0.0-3.197-1.197","4ursmu04plgwwrl",83,"140.csv","","null","resources/maskTrios/BT4B.jpg","null","",NA,NA,NA,NA,""
"image-keyboard-response",604,903858,"0.0-3.197-2.197","4ursmu04plgwwrl",83,"140.csv","","null","resources/images/fishbone.png","null","",NA,NA,NA,NA,""
"image-keyboard-response",605,904893,"0.0-3.198-0.198","4ursmu04plgwwrl",83,"140.csv","","1034","resources/trios/L4T4A3.jpg","37","restless",0.3,0.5,0.4,0.710608477350727,"false"
"image-keyboard-response",606,905296,"0.0-3.198-1.198","4ursmu04plgwwrl",83,"140.csv","","null","resources/maskTrios/L4BB.jpg","null","",NA,NA,NA,NA,""
"image-keyboard-response",607,906498,"0.0-3.198-2.198","4ursmu04plgwwrl",83,"140.csv","","null","resources/images/fishbone.png","null","",NA,NA,NA,NA,""
"image-keyboard-response",608,907413,"0.0-3.199-0.199","4ursmu04plgwwrl",83,"140.csv","","913","resources/trios/L1T1A3.jpg","38","restless",0.3,0.5,0.4,0.63975114110106,"false"
"image-keyboard-response",609,907816,"0.0-3.199-1.199","4ursmu04plgwwrl",83,"140.csv","","null","resources/maskTrios/BT1B.jpg","null","",NA,NA,NA,NA,""
"image-keyboard-response",610,909018,"0.0-3.199-2.199","4ursmu04plgwwrl",83,"140.csv","","null","resources/images/fishbone.png","null","",NA,NA,NA,NA,""
"image-keyboard-response",611,909376,"0.0-3.200-0.200","4ursmu04plgwwrl",83,"140.csv","","356","resources/trios/L4T4A2.jpg","39","restless",0.3,0.5,0.4,0.583643523820887,"false"
"image-keyboard-response",612,909778,"0.0-3.200-1.200","4ursmu04plgwwrl",83,"140.csv","","null","resources/maskTrios/BBA2.jpg","null","",NA,NA,NA,NA,""
"image-keyboard-response",613,910980,"0.0-3.200-2.200","4ursmu04plgwwrl",83,"140.csv","","null","resources/images/fishbone.png","null","",NA,NA,NA,NA,""
"image-keyboard-response",614,911571,"0.0-3.201-0.201","4ursmu04plgwwrl",83,"140.csv","","590","resources/trios/L4T4A3.jpg","39","restless",0.3,0.5,0.4,0.306457512609951,"true"
"image-keyboard-response",615,911974,"0.0-3.201-1.201","4ursmu04plgwwrl",83,"140.csv","","null","resources/maskTrios/BBA3.jpg","null","",NA,NA,NA,NA,""
"image-keyboard-response",616,913176,"0.0-3.201-2.201","4ursmu04plgwwrl",83,"140.csv","","null","resources/images/coin2.png","null","",NA,NA,NA,NA,""
"image-keyboard-response",617,914442,"0.0-3.202-0.202","4ursmu04plgwwrl",83,"140.csv","","1264","resources/trios/L1T1A2.jpg","38","restless",0.3,0.5,0.4,0.564158612572199,"false"
"image-keyboard-response",618,914846,"0.0-3.202-1.202","4ursmu04plgwwrl",83,"140.csv","","null","resources/maskTrios/BT1B.jpg","null","",NA,NA,NA,NA,""
"image-keyboard-response",619,916048,"0.0-3.202-2.202","4ursmu04plgwwrl",83,"140.csv","","null","resources/images/fishbone.png","null","",NA,NA,NA,NA,""
"image-keyboard-response",620,916735,"0.0-3.203-0.203","4ursmu04plgwwrl",83,"140.csv","","684","resources/trios/L1T1A3.jpg","37","restless",0.3,0.5,0.4,0.0358875590143176,"true"
