"trial_type","trial_index","time_elapsed","internal_node_id","subject","walkNumber","success","rt","stimulus","key_press","test_part","leftProb","midProb","rightProb","generatedNum","correct"
"pavlovia",0,1256,"0.0-0.0","crtw631q9zvs1mj","190.csv","","","","","",NA,NA,NA,NA,""
"fullscreen",1,4600,"0.0-1.0","crtw631q9zvs1mj","190.csv","true","","","","",NA,NA,NA,NA,""
"html-keyboard-response",2,8873,"0.0-2.0-0.0","crtw631q9zvs1mj","190.csv","","4271.600000008941","<p><font size='6'>Arrrgh!</p></font><p>Can you be the best pirate? Try to find lots of gold! But beware, some islands have more gold than others, and over time, the island with the most gold may change. Can YOU figure it out? </p><font size='6'>GOOD LUCK, CAPTAIN!!!</font><p>Press any key to begin</p>","32","",NA,NA,NA,NA,""
"image-keyboard-response",3,11876,"0.0-2.0-1.0","crtw631q9zvs1mj","190.csv","","null","resources/image_sets/111.png","null","",NA,NA,NA,NA,""
"image-keyboard-response",4,13964,"0.0-2.0-2.0","crtw631q9zvs1mj","190.csv","","2086.7000000029802","resources/image_sets/left_highlight.png","37","",NA,NA,NA,NA,""
"image-keyboard-response",5,15689,"0.0-2.0-3.0","crtw631q9zvs1mj","190.csv","","1722.699999988079","resources/image_sets/mid_highlight.png","38","",NA,NA,NA,NA,""
"image-keyboard-response",6,17183,"0.0-2.0-4.0","crtw631q9zvs1mj","190.csv","","1492.9000000059605","resources/image_sets/right_highlight.png","39","",NA,NA,NA,NA,""
"image-keyboard-response",7,20657,"0.0-2.0-5.0","crtw631q9zvs1mj","190.csv","","3472","resources/image_sets/111.png","13","",NA,NA,NA,NA,""
"image-keyboard-response",8,25029,"0.0-2.0-6.0","crtw631q9zvs1mj","190.csv","","4370.699999988079","resources/images/coin2.png","13","",NA,NA,NA,NA,""
"image-keyboard-response",9,26478,"0.0-2.0-7.0","crtw631q9zvs1mj","190.csv","","1448.2000000029802","resources/images/fishbone.png","13","",NA,NA,NA,NA,""
"html-keyboard-response",10,30235,"0.0-2.0-8.0","crtw631q9zvs1mj","190.csv","","3755.7999999970198","<p>Your first journey will be a long one, but you will get a well deserved break at the end</p><p>After the break you will have four more journeys, but each will be much shorter than the first, and you will have breaks in between each</p><p>Press Enter to begin</p>","13","",NA,NA,NA,NA,""
"image-keyboard-response",11,32824,"0.0-3.0-0.0","crtw631q9zvs1mj","190.csv","","2587.3999999910593","resources/trios/L1T2A2.jpg","38","restless",0.7,0.3,0.9,0.197282908036999,"true"
"image-keyboard-response",12,33234,"0.0-3.0-1.0","crtw631q9zvs1mj","190.csv","","null","resources/maskTrios/BT2B.jpg","null","",NA,NA,NA,NA,""
"image-keyboard-response",13,34443,"0.0-3.0-2.0","crtw631q9zvs1mj","190.csv","","null","resources/images/coin2.png","null","",NA,NA,NA,NA,""
"image-keyboard-response",14,36988,"0.0-3.1-0.1","crtw631q9zvs1mj","190.csv","","2543.5999999940395","resources/trios/L4T4A2.jpg","37","restless",0.7,0.3,0.9,0.671716149383729,"true"
"image-keyboard-response",15,37398,"0.0-3.1-1.1","crtw631q9zvs1mj","190.csv","","null","resources/maskTrios/L4BB.jpg","null","",NA,NA,NA,NA,""
"image-keyboard-response",16,38607,"0.0-3.1-2.1","crtw631q9zvs1mj","190.csv","","null","resources/images/coin2.png","null","",NA,NA,NA,NA,""
"image-keyboard-response",17,40572,"0.0-3.2-0.2","crtw631q9zvs1mj","190.csv","","1962.7000000029802","resources/trios/L4T2A2.jpg","38","restless",0.7,0.3,0.9,0.0340373538964025,"true"
"image-keyboard-response",18,40983,"0.0-3.2-1.2","crtw631q9zvs1mj","190.csv","","null","resources/maskTrios/BT2B.jpg","null","",NA,NA,NA,NA,""
"image-keyboard-response",19,42192,"0.0-3.2-2.2","crtw631q9zvs1mj","190.csv","","null","resources/images/coin2.png","null","",NA,NA,NA,NA,""
"image-keyboard-response",20,43375,"0.0-3.3-0.3","crtw631q9zvs1mj","190.csv","","1181.3999999910593","resources/trios/L4T4A2.jpg","37","restless",0.7,0.3,0.9,0.810184021879125,"false"
"image-keyboard-response",21,43788,"0.0-3.3-1.3","crtw631q9zvs1mj","190.csv","","null","resources/maskTrios/L4BB.jpg","null","",NA,NA,NA,NA,""
"image-keyboard-response",22,44995,"0.0-3.3-2.3","crtw631q9zvs1mj","190.csv","","null","resources/images/fishbone.png","null","",NA,NA,NA,NA,""
"image-keyboard-response",23,45807,"0.0-3.4-0.4","crtw631q9zvs1mj","190.csv","","809.7000000029802","resources/trios/L4T2A2.jpg","38","restless",0.7,0.3,0.9,0.788264707551151,"false"
"image-keyboard-response",24,46210,"0.0-3.4-1.4","crtw631q9zvs1mj","190.csv","","null","resources/maskTrios/BT2B.jpg","null","",NA,NA,NA,NA,""
"image-keyboard-response",25,47415,"0.0-3.4-2.4","crtw631q9zvs1mj","190.csv","","null","resources/images/fishbone.png","null","",NA,NA,NA,NA,""
"image-keyboard-response",26,48221,"0.0-3.5-0.5","crtw631q9zvs1mj","190.csv","","803.7999999970198","resources/trios/L1T2A2.jpg","39","restless",0.7,0.3,0.9,0.595064696973752,"true"
"image-keyboard-response",27,48625,"0.0-3.5-1.5","crtw631q9zvs1mj","190.csv","","null","resources/maskTrios/BBA2.jpg","null","",NA,NA,NA,NA,""
"image-keyboard-response",28,49831,"0.0-3.5-2.5","crtw631q9zvs1mj","190.csv","","null","resources/images/coin2.png","null","",NA,NA,NA,NA,""
"image-keyboard-response",29,50566,"0.0-3.6-0.6","crtw631q9zvs1mj","190.csv","","732","resources/trios/L4T2A3.jpg","39","restless",0.7,0.3,0.8,0.267245572851272,"true"
"image-keyboard-response",30,50979,"0.0-3.6-1.6","crtw631q9zvs1mj","190.csv","","null","resources/maskTrios/BBA3.jpg","null","",NA,NA,NA,NA,""
"image-keyboard-response",31,52190,"0.0-3.6-2.6","crtw631q9zvs1mj","190.csv","","null","resources/images/coin2.png","null","",NA,NA,NA,NA,""
"image-keyboard-response",32,53288,"0.0-3.7-0.7","crtw631q9zvs1mj","190.csv","","1097","resources/trios/L4T2A3.jpg","38","restless",0.7,0.4,0.8,0.341791098779633,"true"
"image-keyboard-response",33,53698,"0.0-3.7-1.7","crtw631q9zvs1mj","190.csv","","null","resources/maskTrios/BT2B.jpg","null","",NA,NA,NA,NA,""
"image-keyboard-response",34,54905,"0.0-3.7-2.7","crtw631q9zvs1mj","190.csv","","null","resources/images/coin2.png","null","",NA,NA,NA,NA,""
"image-keyboard-response",35,56016,"0.0-3.8-0.8","crtw631q9zvs1mj","190.csv","","1109.2999999970198","resources/trios/L4T4A3.jpg","39","restless",0.6,0.4,0.8,0.998314784869877,"false"
"image-keyboard-response",36,56428,"0.0-3.8-1.8","crtw631q9zvs1mj","190.csv","","null","resources/maskTrios/BBA3.jpg","null","",NA,NA,NA,NA,""
"image-keyboard-response",37,57638,"0.0-3.8-2.8","crtw631q9zvs1mj","190.csv","","null","resources/images/fishbone.png","null","",NA,NA,NA,NA,""
"image-keyboard-response",38,58367,"0.0-3.9-0.9","crtw631q9zvs1mj","190.csv","","727.4000000059605","resources/trios/L4T2A3.jpg","38","restless",0.6,0.4,0.8,0.13797370948135,"true"
"image-keyboard-response",39,58784,"0.0-3.9-1.9","crtw631q9zvs1mj","190.csv","","null","resources/maskTrios/BT2B.jpg","null","",NA,NA,NA,NA,""
"image-keyboard-response",40,59997,"0.0-3.9-2.9","crtw631q9zvs1mj","190.csv","","null","resources/images/coin2.png","null","",NA,NA,NA,NA,""
"image-keyboard-response",41,60925,"0.0-3.10-0.10","crtw631q9zvs1mj","190.csv","","926.7000000029802","resources/trios/L4T2A3.jpg","37","restless",0.6,0.4,0.8,0.0951298165809593,"true"
"image-keyboard-response",42,61340,"0.0-3.10-1.10","crtw631q9zvs1mj","190.csv","","null","resources/maskTrios/L4BB.jpg","null","",NA,NA,NA,NA,""
"image-keyboard-response",43,62553,"0.0-3.10-2.10","crtw631q9zvs1mj","190.csv","","null","resources/images/coin2.png","null","",NA,NA,NA,NA,""
"image-keyboard-response",44,63257,"0.0-3.11-0.11","crtw631q9zvs1mj","190.csv","","702.7000000029802","resources/trios/L4T2A3.jpg","39","restless",0.6,0.4,0.7,0.245288100885201,"true"
"image-keyboard-response",45,63668,"0.0-3.11-1.11","crtw631q9zvs1mj","190.csv","","null","resources/maskTrios/BBA3.jpg","null","",NA,NA,NA,NA,""
"image-keyboard-response",46,64875,"0.0-3.11-2.11","crtw631q9zvs1mj","190.csv","","null","resources/images/coin2.png","null","",NA,NA,NA,NA,""
"image-keyboard-response",47,65248,"0.0-3.12-0.12","crtw631q9zvs1mj","190.csv","","371.59999999403954","resources/trios/L4T4A3.jpg","38","restless",0.6,0.4,0.7,0.330590090147459,"true"
"image-keyboard-response",48,65657,"0.0-3.12-1.12","crtw631q9zvs1mj","190.csv","","null","resources/maskTrios/BT4B.jpg","null","",NA,NA,NA,NA,""
"image-keyboard-response",49,66864,"0.0-3.12-2.12","crtw631q9zvs1mj","190.csv","","null","resources/images/coin2.png","null","",NA,NA,NA,NA,""
"image-keyboard-response",50,67198,"0.0-3.13-0.13","crtw631q9zvs1mj","190.csv","","333","resources/trios/L4T2A2.jpg","37","restless",0.6,0.4,0.7,0.875915892640742,"false"
"image-keyboard-response",51,67613,"0.0-3.13-1.13","crtw631q9zvs1mj","190.csv","","null","resources/maskTrios/L4BB.jpg","null","",NA,NA,NA,NA,""
"image-keyboard-response",52,68824,"0.0-3.13-2.13","crtw631q9zvs1mj","190.csv","","null","resources/images/fishbone.png","null","",NA,NA,NA,NA,""
"image-keyboard-response",53,69626,"0.0-3.14-0.14","crtw631q9zvs1mj","190.csv","","800.7000000029802","resources/trios/L4T4A2.jpg","37","restless",0.6,0.4,0.7,0.827457886345365,"false"
"image-keyboard-response",54,70030,"0.0-3.14-1.14","crtw631q9zvs1mj","190.csv","","null","resources/maskTrios/L4BB.jpg","null","",NA,NA,NA,NA,""
"image-keyboard-response",55,71239,"0.0-3.14-2.14","crtw631q9zvs1mj","190.csv","","null","resources/images/fishbone.png","null","",NA,NA,NA,NA,""
"image-keyboard-response",56,71540,"0.0-3.15-0.15","crtw631q9zvs1mj","190.csv","","299.69999998807907","resources/trios/L4T4A3.jpg","39","restless",0.6,0.4,0.7,0.305097027707836,"true"
"image-keyboard-response",57,71948,"0.0-3.15-1.15","crtw631q9zvs1mj","190.csv","","null","resources/maskTrios/BBA3.jpg","null","",NA,NA,NA,NA,""
"image-keyboard-response",58,73154,"0.0-3.15-2.15","crtw631q9zvs1mj","190.csv","","null","resources/images/coin2.png","null","",NA,NA,NA,NA,""
"image-keyboard-response",59,73496,"0.0-3.16-0.16","crtw631q9zvs1mj","190.csv","","340.40000000596046","resources/trios/L1T4A2.jpg","38","restless",0.6,0.4,0.7,0.499320669919646,"false"
"image-keyboard-response",60,73906,"0.0-3.16-1.16","crtw631q9zvs1mj","190.csv","","null","resources/maskTrios/BT4B.jpg","null","",NA,NA,NA,NA,""
"image-keyboard-response",61,75115,"0.0-3.16-2.16","crtw631q9zvs1mj","190.csv","","null","resources/images/fishbone.png","null","",NA,NA,NA,NA,""
"image-keyboard-response",62,76140,"0.0-3.17-0.17","crtw631q9zvs1mj","190.csv","","1024.2999999970198","resources/trios/L4T4A3.jpg","39","restless",0.6,0.4,0.7,0.462917908509116,"true"
"image-keyboard-response",63,76548,"0.0-3.17-1.17","crtw631q9zvs1mj","190.csv","","null","resources/maskTrios/BBA3.jpg","null","",NA,NA,NA,NA,""
"image-keyboard-response",64,77761,"0.0-3.17-2.17","crtw631q9zvs1mj","190.csv","","null","resources/images/coin2.png","null","",NA,NA,NA,NA,""
"image-keyboard-response",65,79123,"0.0-3.18-0.18","crtw631q9zvs1mj","190.csv","","1360.0999999940395","resources/trios/L4T2A2.jpg","38","restless",0.6,0.4,0.7,0.448157995651984,"false"
"image-keyboard-response",66,79526,"0.0-3.18-1.18","crtw631q9zvs1mj","190.csv","","null","resources/maskTrios/BT2B.jpg","null","",NA,NA,NA,NA,""
"image-keyboard-response",67,80735,"0.0-3.18-2.18","crtw631q9zvs1mj","190.csv","","null","resources/images/fishbone.png","null","",NA,NA,NA,NA,""
"image-keyboard-response",68,81229,"0.0-3.19-0.19","crtw631q9zvs1mj","190.csv","","492.29999999701977","resources/trios/L1T2A3.jpg","39","restless",0.5,0.4,0.7,0.018443156823043,"true"
"image-keyboard-response",69,81632,"0.0-3.19-1.19","crtw631q9zvs1mj","190.csv","","null","resources/maskTrios/BBA3.jpg","null","",NA,NA,NA,NA,""
"image-keyboard-response",70,82843,"0.0-3.19-2.19","crtw631q9zvs1mj","190.csv","","null","resources/images/coin2.png","null","",NA,NA,NA,NA,""
"image-keyboard-response",71,83296,"0.0-3.20-0.20","crtw631q9zvs1mj","190.csv","","451.70000000298023","resources/trios/L1T4A3.jpg","39","restless",0.5,0.4,0.6,0.678771090221798,"false"
"image-keyboard-response",72,83705,"0.0-3.20-1.20","crtw631q9zvs1mj","190.csv","","null","resources/maskTrios/BBA3.jpg","null","",NA,NA,NA,NA,""
"image-keyboard-response",73,84917,"0.0-3.20-2.20","crtw631q9zvs1mj","190.csv","","null","resources/images/fishbone.png","null","",NA,NA,NA,NA,""
"image-keyboard-response",74,85536,"0.0-3.21-0.21","crtw631q9zvs1mj","190.csv","","617.2000000029802","resources/trios/L1T2A2.jpg","37","restless",0.5,0.4,0.6,0.278822044226309,"true"
"image-keyboard-response",75,85940,"0.0-3.21-1.21","crtw631q9zvs1mj","190.csv","","null","resources/maskTrios/L1BB.jpg","null","",NA,NA,NA,NA,""
"image-keyboard-response",76,87149,"0.0-3.21-2.21","crtw631q9zvs1mj","190.csv","","null","resources/images/coin2.png","null","",NA,NA,NA,NA,""
"image-keyboard-response",77,88189,"0.0-3.22-0.22","crtw631q9zvs1mj","190.csv","","1038.5","resources/trios/L1T4A3.jpg","38","restless",0.5,0.4,0.6,0.275734574000725,"true"
"image-keyboard-response",78,88595,"0.0-3.22-1.22","crtw631q9zvs1mj","190.csv","","null","resources/maskTrios/BT4B.jpg","null","",NA,NA,NA,NA,""
"image-keyboard-response",79,89808,"0.0-3.22-2.22","crtw631q9zvs1mj","190.csv","","null","resources/images/coin2.png","null","",NA,NA,NA,NA,""
"image-keyboard-response",80,90125,"0.0-3.23-0.23","crtw631q9zvs1mj","190.csv","","315.70000000298023","resources/trios/L4T4A3.jpg","39","restless",0.5,0.4,0.6,0.565609467797095,"true"
"image-keyboard-response",81,90530,"0.0-3.23-1.23","crtw631q9zvs1mj","190.csv","","null","resources/maskTrios/BBA3.jpg","null","",NA,NA,NA,NA,""
"image-keyboard-response",82,91744,"0.0-3.23-2.23","crtw631q9zvs1mj","190.csv","","null","resources/images/coin2.png","null","",NA,NA,NA,NA,""
"image-keyboard-response",83,92933,"0.0-3.24-0.24","crtw631q9zvs1mj","190.csv","","1186.8999999910593","resources/trios/L1T2A2.jpg","37","restless",0.5,0.4,0.6,0.670915129000074,"false"
"image-keyboard-response",84,93344,"0.0-3.24-1.24","crtw631q9zvs1mj","190.csv","","null","resources/maskTrios/L1BB.jpg","null","",NA,NA,NA,NA,""
"image-keyboard-response",85,94554,"0.0-3.24-2.24","crtw631q9zvs1mj","190.csv","","null","resources/images/fishbone.png","null","",NA,NA,NA,NA,""
"image-keyboard-response",86,95124,"0.0-3.25-0.25","crtw631q9zvs1mj","190.csv","","568.6000000089407","resources/trios/L4T4A3.jpg","38","restless",0.5,0.4,0.6,0.619248625766252,"false"
"image-keyboard-response",87,95527,"0.0-3.25-1.25","crtw631q9zvs1mj","190.csv","","null","resources/maskTrios/BT4B.jpg","null","",NA,NA,NA,NA,""
"image-keyboard-response",88,96738,"0.0-3.25-2.25","crtw631q9zvs1mj","190.csv","","null","resources/images/fishbone.png","null","",NA,NA,NA,NA,""
"image-keyboard-response",89,97062,"0.0-3.26-0.26","crtw631q9zvs1mj","190.csv","","323.20000000298023","resources/trios/L4T2A2.jpg","39","restless",0.5,0.4,0.6,0.818680994926722,"false"
"image-keyboard-response",90,97479,"0.0-3.26-1.26","crtw631q9zvs1mj","190.csv","","null","resources/maskTrios/BBA2.jpg","null","",NA,NA,NA,NA,""
"image-keyboard-response",91,98687,"0.0-3.26-2.26","crtw631q9zvs1mj","190.csv","","null","resources/images/fishbone.png","null","",NA,NA,NA,NA,""
"image-keyboard-response",92,98749,"0.0-3.27-0.27","crtw631q9zvs1mj","190.csv","","60.20000000298023","resources/trios/L4T2A3.jpg","38","restless",0.6,0.4,0.6,0.606501552937527,"false"
"image-keyboard-response",93,99158,"0.0-3.27-1.27","crtw631q9zvs1mj","190.csv","","null","resources/maskTrios/BT2B.jpg","null","",NA,NA,NA,NA,""
"image-keyboard-response",94,100373,"0.0-3.27-2.27","crtw631q9zvs1mj","190.csv","","null","resources/images/fishbone.png","null","",NA,NA,NA,NA,""
"image-keyboard-response",95,100885,"0.0-3.28-0.28","crtw631q9zvs1mj","190.csv","","511.19999998807907","resources/trios/L4T4A3.jpg","38","restless",0.6,0.3,0.6,0.701746807197371,"false"
"image-keyboard-response",96,101301,"0.0-3.28-1.28","crtw631q9zvs1mj","190.csv","","null","resources/maskTrios/BT4B.jpg","null","",NA,NA,NA,NA,""
"image-keyboard-response",97,102509,"0.0-3.28-2.28","crtw631q9zvs1mj","190.csv","","null","resources/images/fishbone.png","null","",NA,NA,NA,NA,""
"image-keyboard-response",98,102746,"0.0-3.29-0.29","crtw631q9zvs1mj","190.csv","","235.09999999403954","resources/trios/L4T4A3.jpg","39","restless",0.6,0.3,0.5,0.493794328161152,"true"
"image-keyboard-response",99,103157,"0.0-3.29-1.29","crtw631q9zvs1mj","190.csv","","null","resources/maskTrios/BBA3.jpg","null","",NA,NA,NA,NA,""
"image-keyboard-response",100,104365,"0.0-3.29-2.29","crtw631q9zvs1mj","190.csv","","null","resources/images/coin2.png","null","",NA,NA,NA,NA,""
"image-keyboard-response",101,105318,"0.0-3.30-0.30","crtw631q9zvs1mj","190.csv","","950.6000000089407","resources/trios/L4T2A2.jpg","38","restless",0.6,0.3,0.5,0.416614260586429,"false"
"image-keyboard-response",102,105732,"0.0-3.30-1.30","crtw631q9zvs1mj","190.csv","","null","resources/maskTrios/BT2B.jpg","null","",NA,NA,NA,NA,""
"image-keyboard-response",103,106943,"0.0-3.30-2.30","crtw631q9zvs1mj","190.csv","","null","resources/images/fishbone.png","null","",NA,NA,NA,NA,""
"image-keyboard-response",104,108156,"0.0-3.31-0.31","crtw631q9zvs1mj","190.csv","","1211.5","resources/trios/L1T2A2.jpg","37","restless",0.6,0.3,0.5,0.870350433215601,"false"
"image-keyboard-response",105,108563,"0.0-3.31-1.31","crtw631q9zvs1mj","190.csv","","null","resources/maskTrios/L1BB.jpg","null","",NA,NA,NA,NA,""
"image-keyboard-response",106,109774,"0.0-3.31-2.31","crtw631q9zvs1mj","190.csv","","null","resources/images/fishbone.png","null","",NA,NA,NA,NA,""
"image-keyboard-response",107,110539,"0.0-3.32-0.32","crtw631q9zvs1mj","190.csv","","763.5","resources/trios/L4T4A3.jpg","38","restless",0.6,0.2,0.5,0.644539677638744,"false"
"image-keyboard-response",108,110956,"0.0-3.32-1.32","crtw631q9zvs1mj","190.csv","","null","resources/maskTrios/BT4B.jpg","null","",NA,NA,NA,NA,""
"image-keyboard-response",109,112167,"0.0-3.32-2.32","crtw631q9zvs1mj","190.csv","","null","resources/images/fishbone.png","null","",NA,NA,NA,NA,""
"image-keyboard-response",110,112564,"0.0-3.33-0.33","crtw631q9zvs1mj","190.csv","","396","resources/trios/L4T4A3.jpg","39","restless",0.6,0.2,0.5,0.906163881714575,"false"
"image-keyboard-response",111,112981,"0.0-3.33-1.33","crtw631q9zvs1mj","190.csv","","null","resources/maskTrios/BBA3.jpg","null","",NA,NA,NA,NA,""
"image-keyboard-response",112,114191,"0.0-3.33-2.33","crtw631q9zvs1mj","190.csv","","null","resources/images/fishbone.png","null","",NA,NA,NA,NA,""
"image-keyboard-response",113,114500,"0.0-3.34-0.34","crtw631q9zvs1mj","190.csv","","307","resources/trios/L1T2A3.jpg","37","restless",0.7,0.2,0.4,0.618899152560079,"true"
"image-keyboard-response",114,114910,"0.0-3.34-1.34","crtw631q9zvs1mj","190.csv","","null","resources/maskTrios/L1BB.jpg","null","",NA,NA,NA,NA,""
"image-keyboard-response",115,116121,"0.0-3.34-2.34","crtw631q9zvs1mj","190.csv","","null","resources/images/coin2.png","null","",NA,NA,NA,NA,""
"image-keyboard-response",116,116646,"0.0-3.35-0.35","crtw631q9zvs1mj","190.csv","","524.2000000029802","resources/trios/L4T2A2.jpg","38","restless",0.7,0.2,0.4,0.684820960086774,"false"
"image-keyboard-response",117,117049,"0.0-3.35-1.35","crtw631q9zvs1mj","190.csv","","null","resources/maskTrios/BT2B.jpg","null","",NA,NA,NA,NA,""
"image-keyboard-response",118,118263,"0.0-3.35-2.35","crtw631q9zvs1mj","190.csv","","null","resources/images/fishbone.png","null","",NA,NA,NA,NA,""
"image-keyboard-response",119,118797,"0.0-3.36-0.36","crtw631q9zvs1mj","190.csv","","533","resources/trios/L1T2A2.jpg","38","restless",0.7,0.2,0.4,0.813903244913811,"false"
"image-keyboard-response",120,119208,"0.0-3.36-1.36","crtw631q9zvs1mj","190.csv","","null","resources/maskTrios/BT2B.jpg","null","",NA,NA,NA,NA,""
"image-keyboard-response",121,120420,"0.0-3.36-2.36","crtw631q9zvs1mj","190.csv","","null","resources/images/fishbone.png","null","",NA,NA,NA,NA,""
"image-keyboard-response",122,120738,"0.0-3.37-0.37","crtw631q9zvs1mj","190.csv","","316.29999999701977","resources/trios/L1T2A3.jpg","37","restless",0.7,0.2,0.4,0.724470070110525,"false"
"image-keyboard-response",123,121142,"0.0-3.37-1.37","crtw631q9zvs1mj","190.csv","","null","resources/maskTrios/L1BB.jpg","null","",NA,NA,NA,NA,""
"image-keyboard-response",124,122355,"0.0-3.37-2.37","crtw631q9zvs1mj","190.csv","","null","resources/images/fishbone.png","null","",NA,NA,NA,NA,""
"image-keyboard-response",125,122648,"0.0-3.38-0.38","crtw631q9zvs1mj","190.csv","","291.1000000089407","resources/trios/L4T2A3.jpg","39","restless",0.7,0.2,0.4,0.496335179787002,"false"
"image-keyboard-response",126,123060,"0.0-3.38-1.38","crtw631q9zvs1mj","190.csv","","null","resources/maskTrios/BBA3.jpg","null","",NA,NA,NA,NA,""
"image-keyboard-response",127,124265,"0.0-3.38-2.38","crtw631q9zvs1mj","190.csv","","null","resources/images/fishbone.png","null","",NA,NA,NA,NA,""
"image-keyboard-response",128,124340,"0.0-3.39-0.39","crtw631q9zvs1mj","190.csv","","73.20000000298023","resources/trios/L4T4A3.jpg","38","restless",0.7,0.2,0.4,0.849256207117523,"false"
"image-keyboard-response",129,124753,"0.0-3.39-1.39","crtw631q9zvs1mj","190.csv","","null","resources/maskTrios/BT4B.jpg","null","",NA,NA,NA,NA,""
"image-keyboard-response",130,125962,"0.0-3.39-2.39","crtw631q9zvs1mj","190.csv","","null","resources/images/fishbone.png","null","",NA,NA,NA,NA,""
"image-keyboard-response",131,126283,"0.0-3.40-0.40","crtw631q9zvs1mj","190.csv","","319.79999999701977","resources/trios/L1T4A2.jpg","38","restless",0.8,0.2,0.4,0.387964102955832,"false"
"image-keyboard-response",132,126700,"0.0-3.40-1.40","crtw631q9zvs1mj","190.csv","","null","resources/maskTrios/BT4B.jpg","null","",NA,NA,NA,NA,""
"image-keyboard-response",133,127911,"0.0-3.40-2.40","crtw631q9zvs1mj","190.csv","","null","resources/images/fishbone.png","null","",NA,NA,NA,NA,""
"image-keyboard-response",134,128254,"0.0-3.41-0.41","crtw631q9zvs1mj","190.csv","","341.40000000596046","resources/trios/L4T2A2.jpg","38","restless",0.8,0.2,0.4,0.397786338476734,"false"
"image-keyboard-response",135,128668,"0.0-3.41-1.41","crtw631q9zvs1mj","190.csv","","null","resources/maskTrios/BT2B.jpg","null","",NA,NA,NA,NA,""
"image-keyboard-response",136,129879,"0.0-3.41-2.41","crtw631q9zvs1mj","190.csv","","null","resources/images/fishbone.png","null","",NA,NA,NA,NA,""
"image-keyboard-response",137,130195,"0.0-3.42-0.42","crtw631q9zvs1mj","190.csv","","313.69999998807907","resources/trios/L1T4A2.jpg","38","restless",0.8,0.2,0.4,0.19438496215289,"true"
"image-keyboard-response",138,130603,"0.0-3.42-1.42","crtw631q9zvs1mj","190.csv","","null","resources/maskTrios/BT4B.jpg","null","",NA,NA,NA,NA,""
"image-keyboard-response",139,131814,"0.0-3.42-2.42","crtw631q9zvs1mj","190.csv","","null","resources/images/coin2.png","null","",NA,NA,NA,NA,""
"image-keyboard-response",140,132146,"0.0-3.43-0.43","crtw631q9zvs1mj","190.csv","","330.20000000298023","resources/trios/L4T4A3.jpg","39","restless",0.8,0.1,0.4,0.656870404834985,"false"
"image-keyboard-response",141,132549,"0.0-3.43-1.43","crtw631q9zvs1mj","190.csv","","null","resources/maskTrios/BBA3.jpg","null","",NA,NA,NA,NA,""
"image-keyboard-response",142,133762,"0.0-3.43-2.43","crtw631q9zvs1mj","190.csv","","null","resources/images/fishbone.png","null","",NA,NA,NA,NA,""
"image-keyboard-response",143,134120,"0.0-3.44-0.44","crtw631q9zvs1mj","190.csv","","357","resources/trios/L1T4A2.jpg","38","restless",0.8,0.1,0.4,0.0760956787194573,"true"
"image-keyboard-response",144,134533,"0.0-3.44-1.44","crtw631q9zvs1mj","190.csv","","null","resources/maskTrios/BT4B.jpg","null","",NA,NA,NA,NA,""
"image-keyboard-response",145,135739,"0.0-3.44-2.44","crtw631q9zvs1mj","190.csv","","null","resources/images/coin2.png","null","",NA,NA,NA,NA,""
"image-keyboard-response",146,135780,"0.0-3.45-0.45","crtw631q9zvs1mj","190.csv","","39.900000005960464","resources/trios/L1T4A3.jpg","38","restless",0.8,0.1,0.4,0.324014309933237,"false"
"image-keyboard-response",147,136193,"0.0-3.45-1.45","crtw631q9zvs1mj","190.csv","","null","resources/maskTrios/BT4B.jpg","null","",NA,NA,NA,NA,""
"image-keyboard-response",148,137399,"0.0-3.45-2.45","crtw631q9zvs1mj","190.csv","","null","resources/images/fishbone.png","null","",NA,NA,NA,NA,""
"image-keyboard-response",149,137478,"0.0-3.46-0.46","crtw631q9zvs1mj","190.csv","","77.59999999403954","resources/trios/L1T4A2.jpg","37","restless",0.8,0.1,0.4,0.69890946692477,"true"
"image-keyboard-response",150,137893,"0.0-3.46-1.46","crtw631q9zvs1mj","190.csv","","null","resources/maskTrios/L1BB.jpg","null","",NA,NA,NA,NA,""
"image-keyboard-response",151,139104,"0.0-3.46-2.46","crtw631q9zvs1mj","190.csv","","null","resources/images/coin2.png","null","",NA,NA,NA,NA,""
"image-keyboard-response",152,139134,"0.0-3.47-0.47","crtw631q9zvs1mj","190.csv","","28.400000005960464","resources/trios/L4T4A2.jpg","39","restless",0.8,0.1,0.4,0.897183017452288,"false"
"image-keyboard-response",153,139545,"0.0-3.47-1.47","crtw631q9zvs1mj","190.csv","","null","resources/maskTrios/BBA2.jpg","null","",NA,NA,NA,NA,""
"image-keyboard-response",154,140753,"0.0-3.47-2.47","crtw631q9zvs1mj","190.csv","","null","resources/images/fishbone.png","null","",NA,NA,NA,NA,""
"image-keyboard-response",155,140850,"0.0-3.48-0.48","crtw631q9zvs1mj","190.csv","","95.09999999403954","resources/trios/L4T2A3.jpg","39","restless",0.8,0.1,0.4,0.221299928867651,"true"
"image-keyboard-response",156,141266,"0.0-3.48-1.48","crtw631q9zvs1mj","190.csv","","null","resources/maskTrios/BBA3.jpg","null","",NA,NA,NA,NA,""
"image-keyboard-response",157,142475,"0.0-3.48-2.48","crtw631q9zvs1mj","190.csv","","null","resources/images/coin2.png","null","",NA,NA,NA,NA,""
"image-keyboard-response",158,142480,"0.0-3.49-0.49","crtw631q9zvs1mj","190.csv","","2.4000000059604645","resources/trios/L1T4A2.jpg","39","restless",0.8,0.1,0.4,0.715749015704354,"false"
"image-keyboard-response",159,142883,"0.0-3.49-1.49","crtw631q9zvs1mj","190.csv","","null","resources/maskTrios/BBA2.jpg","null","",NA,NA,NA,NA,""
"image-keyboard-response",160,144090,"0.0-3.49-2.49","crtw631q9zvs1mj","190.csv","","null","resources/images/fishbone.png","null","",NA,NA,NA,NA,""
"image-keyboard-response",161,144209,"0.0-3.50-0.50","crtw631q9zvs1mj","190.csv","","117.90000000596046","resources/trios/L4T2A2.jpg","37","restless",0.8,0.1,0.4,0.547228042205475,"true"
"image-keyboard-response",162,144624,"0.0-3.50-1.50","crtw631q9zvs1mj","190.csv","","null","resources/maskTrios/L4BB.jpg","null","",NA,NA,NA,NA,""
"image-keyboard-response",163,145834,"0.0-3.50-2.50","crtw631q9zvs1mj","190.csv","","null","resources/images/coin2.png","null","",NA,NA,NA,NA,""
"image-keyboard-response",164,146567,"0.0-3.51-0.51","crtw631q9zvs1mj","190.csv","","731.2000000029802","resources/trios/L4T2A2.jpg","39","restless",0.7,0.1,0.4,0.46857301684911,"false"
"image-keyboard-response",165,146980,"0.0-3.51-1.51","crtw631q9zvs1mj","190.csv","","null","resources/maskTrios/BBA2.jpg","null","",NA,NA,NA,NA,""
"image-keyboard-response",166,148187,"0.0-3.51-2.51","crtw631q9zvs1mj","190.csv","","null","resources/images/fishbone.png","null","",NA,NA,NA,NA,""
"image-keyboard-response",167,148432,"0.0-3.52-0.52","crtw631q9zvs1mj","190.csv","","243","resources/trios/L4T2A2.jpg","38","restless",0.7,0.1,0.4,0.295764081354877,"false"
"image-keyboard-response",168,148846,"0.0-3.52-1.52","crtw631q9zvs1mj","190.csv","","null","resources/maskTrios/BT2B.jpg","null","",NA,NA,NA,NA,""
"image-keyboard-response",169,150059,"0.0-3.52-2.52","crtw631q9zvs1mj","190.csv","","null","resources/images/fishbone.png","null","",NA,NA,NA,NA,""
"image-keyboard-response",170,150507,"0.0-3.53-0.53","crtw631q9zvs1mj","190.csv","","446.40000000596046","resources/trios/L1T4A3.jpg","37","restless",0.7,0.1,0.4,0.211792369906596,"true"
"image-keyboard-response",171,150910,"0.0-3.53-1.53","crtw631q9zvs1mj","190.csv","","null","resources/maskTrios/L1BB.jpg","null","",NA,NA,NA,NA,""
"image-keyboard-response",172,152121,"0.0-3.53-2.53","crtw631q9zvs1mj","190.csv","","null","resources/images/coin2.png","null","",NA,NA,NA,NA,""
"image-keyboard-response",173,152294,"0.0-3.54-0.54","crtw631q9zvs1mj","190.csv","","171.30000001192093","resources/trios/L1T2A2.jpg","39","restless",0.7,0.1,0.4,0.377264545876016,"true"
"image-keyboard-response",174,152703,"0.0-3.54-1.54","crtw631q9zvs1mj","190.csv","","null","resources/maskTrios/BBA2.jpg","null","",NA,NA,NA,NA,""
"image-keyboard-response",175,153911,"0.0-3.54-2.54","crtw631q9zvs1mj","190.csv","","null","resources/images/coin2.png","null","",NA,NA,NA,NA,""
"image-keyboard-response",176,154254,"0.0-3.55-0.55","crtw631q9zvs1mj","190.csv","","341.70000000298023","resources/trios/L1T2A2.jpg","38","restless",0.7,0.1,0.4,0.532374360254758,"false"
"image-keyboard-response",177,154666,"0.0-3.55-1.55","crtw631q9zvs1mj","190.csv","","null","resources/maskTrios/BT2B.jpg","null","",NA,NA,NA,NA,""
"image-keyboard-response",178,155877,"0.0-3.55-2.55","crtw631q9zvs1mj","190.csv","","null","resources/images/fishbone.png","null","",NA,NA,NA,NA,""
"image-keyboard-response",179,156205,"0.0-3.56-0.56","crtw631q9zvs1mj","190.csv","","325.59999999403954","resources/trios/L1T4A3.jpg","37","restless",0.7,0.1,0.5,0.247545832581536,"true"
"image-keyboard-response",180,156616,"0.0-3.56-1.56","crtw631q9zvs1mj","190.csv","","null","resources/maskTrios/L1BB.jpg","null","",NA,NA,NA,NA,""
"image-keyboard-response",181,157828,"0.0-3.56-2.56","crtw631q9zvs1mj","190.csv","","null","resources/images/coin2.png","null","",NA,NA,NA,NA,""
"image-keyboard-response",182,158190,"0.0-3.57-0.57","crtw631q9zvs1mj","190.csv","","359.70000000298023","resources/trios/L4T2A3.jpg","39","restless",0.7,0.1,0.5,0.414773556306872,"true"
"image-keyboard-response",183,158600,"0.0-3.57-1.57","crtw631q9zvs1mj","190.csv","","null","resources/maskTrios/BBA3.jpg","null","",NA,NA,NA,NA,""
"image-keyboard-response",184,159803,"0.0-3.57-2.57","crtw631q9zvs1mj","190.csv","","null","resources/images/coin2.png","null","",NA,NA,NA,NA,""
"image-keyboard-response",185,160371,"0.0-3.58-0.58","crtw631q9zvs1mj","190.csv","","565.5","resources/trios/L1T4A2.jpg","37","restless",0.6,0.1,0.6,0.16718556655987,"true"
"image-keyboard-response",186,160779,"0.0-3.58-1.58","crtw631q9zvs1mj","190.csv","","null","resources/maskTrios/L1BB.jpg","null","",NA,NA,NA,NA,""
"image-keyboard-response",187,161991,"0.0-3.58-2.58","crtw631q9zvs1mj","190.csv","","null","resources/images/coin2.png","null","",NA,NA,NA,NA,""
"image-keyboard-response",188,162080,"0.0-3.59-0.59","crtw631q9zvs1mj","190.csv","","87.19999998807907","resources/trios/L4T2A2.jpg","39","restless",0.6,0.1,0.6,0.959391772159654,"false"
"image-keyboard-response",189,162491,"0.0-3.59-1.59","crtw631q9zvs1mj","190.csv","","null","resources/maskTrios/BBA2.jpg","null","",NA,NA,NA,NA,""
"image-keyboard-response",190,163698,"0.0-3.59-2.59","crtw631q9zvs1mj","190.csv","","null","resources/images/fishbone.png","null","",NA,NA,NA,NA,""
"image-keyboard-response",191,164192,"0.0-3.60-0.60","crtw631q9zvs1mj","190.csv","","492.1000000089407","resources/trios/L4T2A2.jpg","39","restless",0.5,0.1,0.6,0.13519434789685,"true"
"image-keyboard-response",192,164596,"0.0-3.60-1.60","crtw631q9zvs1mj","190.csv","","null","resources/maskTrios/BBA2.jpg","null","",NA,NA,NA,NA,""
"image-keyboard-response",193,165799,"0.0-3.60-2.60","crtw631q9zvs1mj","190.csv","","null","resources/images/coin2.png","null","",NA,NA,NA,NA,""
"image-keyboard-response",194,166212,"0.0-3.61-0.61","crtw631q9zvs1mj","190.csv","","411.19999998807907","resources/trios/L1T2A2.jpg","39","restless",0.5,0.1,0.6,0.916580194308427,"false"
"image-keyboard-response",195,166619,"0.0-3.61-1.61","crtw631q9zvs1mj","190.csv","","null","resources/maskTrios/BBA2.jpg","null","",NA,NA,NA,NA,""
"image-keyboard-response",196,167827,"0.0-3.61-2.61","crtw631q9zvs1mj","190.csv","","null","resources/images/fishbone.png","null","",NA,NA,NA,NA,""
"image-keyboard-response",197,168147,"0.0-3.62-0.62","crtw631q9zvs1mj","190.csv","","318.8999999910593","resources/trios/L1T4A3.jpg","39","restless",0.5,0.1,0.6,0.411540727677919,"true"
"image-keyboard-response",198,168565,"0.0-3.62-1.62","crtw631q9zvs1mj","190.csv","","null","resources/maskTrios/BBA3.jpg","null","",NA,NA,NA,NA,""
"image-keyboard-response",199,169775,"0.0-3.62-2.62","crtw631q9zvs1mj","190.csv","","null","resources/images/coin2.png","null","",NA,NA,NA,NA,""
"image-keyboard-response",200,169999,"0.0-3.63-0.63","crtw631q9zvs1mj","190.csv","","221.3999999910593","resources/trios/L1T4A2.jpg","39","restless",0.5,0.1,0.6,0.663065522436326,"false"
"image-keyboard-response",201,170403,"0.0-3.63-1.63","crtw631q9zvs1mj","190.csv","","null","resources/maskTrios/BBA2.jpg","null","",NA,NA,NA,NA,""
"image-keyboard-response",202,171613,"0.0-3.63-2.63","crtw631q9zvs1mj","190.csv","","null","resources/images/fishbone.png","null","",NA,NA,NA,NA,""
"image-keyboard-response",203,172284,"0.0-3.64-0.64","crtw631q9zvs1mj","190.csv","","669.5","resources/trios/L4T2A2.jpg","39","restless",0.5,0.1,0.6,0.713262281633382,"false"
"image-keyboard-response",204,172702,"0.0-3.64-1.64","crtw631q9zvs1mj","190.csv","","null","resources/maskTrios/BBA2.jpg","null","",NA,NA,NA,NA,""
"image-keyboard-response",205,173913,"0.0-3.64-2.64","crtw631q9zvs1mj","190.csv","","null","resources/images/fishbone.png","null","",NA,NA,NA,NA,""
"image-keyboard-response",206,175004,"0.0-3.65-0.65","crtw631q9zvs1mj","190.csv","","1090","resources/trios/L1T4A2.jpg","39","restless",0.5,0.1,0.6,0.397903994096427,"true"
"image-keyboard-response",207,175414,"0.0-3.65-1.65","crtw631q9zvs1mj","190.csv","","null","resources/maskTrios/BBA2.jpg","null","",NA,NA,NA,NA,""
"image-keyboard-response",208,176623,"0.0-3.65-2.65","crtw631q9zvs1mj","190.csv","","null","resources/images/coin2.png","null","",NA,NA,NA,NA,""
"image-keyboard-response",209,177545,"0.0-3.66-0.66","crtw631q9zvs1mj","190.csv","","920.2000000029802","resources/trios/L4T2A3.jpg","39","restless",0.5,0.1,0.5,0.418058348688995,"true"
"image-keyboard-response",210,177961,"0.0-3.66-1.66","crtw631q9zvs1mj","190.csv","","null","resources/maskTrios/BBA3.jpg","null","",NA,NA,NA,NA,""
"image-keyboard-response",211,179176,"0.0-3.66-2.66","crtw631q9zvs1mj","190.csv","","null","resources/images/coin2.png","null","",NA,NA,NA,NA,""
"image-keyboard-response",212,179775,"0.0-3.67-0.67","crtw631q9zvs1mj","190.csv","","598.1000000089407","resources/trios/L4T4A2.jpg","39","restless",0.5,0.1,0.5,0.621886621277039,"false"
"image-keyboard-response",213,180191,"0.0-3.67-1.67","crtw631q9zvs1mj","190.csv","","null","resources/maskTrios/BBA2.jpg","null","",NA,NA,NA,NA,""
"image-keyboard-response",214,181400,"0.0-3.67-2.67","crtw631q9zvs1mj","190.csv","","null","resources/images/fishbone.png","null","",NA,NA,NA,NA,""
"image-keyboard-response",215,182173,"0.0-3.68-0.68","crtw631q9zvs1mj","190.csv","","771.5","resources/trios/L4T2A3.jpg","39","restless",0.5,0.1,0.5,0.360089690314449,"true"
"image-keyboard-response",216,182575,"0.0-3.68-1.68","crtw631q9zvs1mj","190.csv","","null","resources/maskTrios/BBA3.jpg","null","",NA,NA,NA,NA,""
"image-keyboard-response",217,183793,"0.0-3.68-2.68","crtw631q9zvs1mj","190.csv","","null","resources/images/coin2.png","null","",NA,NA,NA,NA,""
"image-keyboard-response",218,187349,"0.0-3.69-0.69","crtw631q9zvs1mj","190.csv","","3553.8999999910593","resources/trios/L4T2A2.jpg","39","restless",0.6,0.1,0.5,0.154006813577032,"true"
"image-keyboard-response",219,187756,"0.0-3.69-1.69","crtw631q9zvs1mj","190.csv","","null","resources/maskTrios/BBA2.jpg","null","",NA,NA,NA,NA,""
"image-keyboard-response",220,188970,"0.0-3.69-2.69","crtw631q9zvs1mj","190.csv","","null","resources/images/coin2.png","null","",NA,NA,NA,NA,""
"image-keyboard-response",221,190933,"0.0-3.70-0.70","crtw631q9zvs1mj","190.csv","","1962","resources/trios/L1T4A2.jpg","39","restless",0.6,0.1,0.5,0.065696269882352,"true"
"image-keyboard-response",222,191346,"0.0-3.70-1.70","crtw631q9zvs1mj","190.csv","","null","resources/maskTrios/BBA2.jpg","null","",NA,NA,NA,NA,""
"image-keyboard-response",223,192559,"0.0-3.70-2.70","crtw631q9zvs1mj","190.csv","","null","resources/images/coin2.png","null","",NA,NA,NA,NA,""
"image-keyboard-response",224,195737,"0.0-3.71-0.71","crtw631q9zvs1mj","190.csv","","3176.4000000059605","resources/trios/L4T4A3.jpg","39","restless",0.6,0.1,0.5,0.465243182676436,"true"
"image-keyboard-response",225,196143,"0.0-3.71-1.71","crtw631q9zvs1mj","190.csv","","null","resources/maskTrios/BBA3.jpg","null","",NA,NA,NA,NA,""
"image-keyboard-response",226,197354,"0.0-3.71-2.71","crtw631q9zvs1mj","190.csv","","null","resources/images/coin2.png","null","",NA,NA,NA,NA,""
"image-keyboard-response",227,197783,"0.0-3.72-0.72","crtw631q9zvs1mj","190.csv","","427.5","resources/trios/L4T4A3.jpg","39","restless",0.6,0.1,0.5,0.457830055801407,"true"
"image-keyboard-response",228,198197,"0.0-3.72-1.72","crtw631q9zvs1mj","190.csv","","null","resources/maskTrios/BBA3.jpg","null","",NA,NA,NA,NA,""
"image-keyboard-response",229,199407,"0.0-3.72-2.72","crtw631q9zvs1mj","190.csv","","null","resources/images/coin2.png","null","",NA,NA,NA,NA,""
"image-keyboard-response",230,202807,"0.0-3.73-0.73","crtw631q9zvs1mj","190.csv","","3399","resources/trios/L4T2A2.jpg","39","restless",0.6,0.2,0.5,0.23605357948026,"true"
"image-keyboard-response",231,203215,"0.0-3.73-1.73","crtw631q9zvs1mj","190.csv","","null","resources/maskTrios/BBA2.jpg","null","",NA,NA,NA,NA,""
"image-keyboard-response",232,204424,"0.0-3.73-2.73","crtw631q9zvs1mj","190.csv","","null","resources/images/coin2.png","null","",NA,NA,NA,NA,""
"image-keyboard-response",233,209885,"0.0-3.74-0.74","crtw631q9zvs1mj","190.csv","","5459.4000000059605","resources/trios/L4T2A3.jpg","39","restless",0.6,0.2,0.5,0.56103195454624,"false"
"image-keyboard-response",234,210302,"0.0-3.74-1.74","crtw631q9zvs1mj","190.csv","","null","resources/maskTrios/BBA3.jpg","null","",NA,NA,NA,NA,""
"image-keyboard-response",235,211515,"0.0-3.74-2.74","crtw631q9zvs1mj","190.csv","","null","resources/images/fishbone.png","null","",NA,NA,NA,NA,""
"image-keyboard-response",236,213195,"0.0-3.75-0.75","crtw631q9zvs1mj","190.csv","","1677.8999999910593","resources/trios/L1T4A2.jpg","39","restless",0.6,0.2,0.5,0.602575003072769,"false"
"image-keyboard-response",237,213608,"0.0-3.75-1.75","crtw631q9zvs1mj","190.csv","","null","resources/maskTrios/BBA2.jpg","null","",NA,NA,NA,NA,""
"image-keyboard-response",238,214825,"0.0-3.75-2.75","crtw631q9zvs1mj","190.csv","","null","resources/images/fishbone.png","null","",NA,NA,NA,NA,""
"image-keyboard-response",239,217790,"0.0-3.76-0.76","crtw631q9zvs1mj","190.csv","","2963.7000000029802","resources/trios/L4T2A2.jpg","39","restless",0.5,0.3,0.5,0.651929445067319,"false"
"image-keyboard-response",240,218205,"0.0-3.76-1.76","crtw631q9zvs1mj","190.csv","","null","resources/maskTrios/BBA2.jpg","null","",NA,NA,NA,NA,""
"image-keyboard-response",241,219409,"0.0-3.76-2.76","crtw631q9zvs1mj","190.csv","","null","resources/images/fishbone.png","null","",NA,NA,NA,NA,""
"image-keyboard-response",242,219781,"0.0-3.77-0.77","crtw631q9zvs1mj","190.csv","","370.5","resources/trios/L1T4A3.jpg","39","restless",0.5,0.3,0.5,0.112041341658287,"true"
"image-keyboard-response",243,220194,"0.0-3.77-1.77","crtw631q9zvs1mj","190.csv","","null","resources/maskTrios/BBA3.jpg","null","",NA,NA,NA,NA,""
"image-keyboard-response",244,221400,"0.0-3.77-2.77","crtw631q9zvs1mj","190.csv","","null","resources/images/coin2.png","null","",NA,NA,NA,NA,""
"image-keyboard-response",245,222830,"0.0-3.78-0.78","crtw631q9zvs1mj","190.csv","","1428.8999999910593","resources/trios/L4T4A2.jpg","39","restless",0.5,0.3,0.5,0.265421001802627,"true"
"image-keyboard-response",246,223245,"0.0-3.78-1.78","crtw631q9zvs1mj","190.csv","","null","resources/maskTrios/BBA2.jpg","null","",NA,NA,NA,NA,""
"image-keyboard-response",247,224461,"0.0-3.78-2.78","crtw631q9zvs1mj","190.csv","","null","resources/images/coin2.png","null","",NA,NA,NA,NA,""
"image-keyboard-response",248,224550,"0.0-3.79-0.79","crtw631q9zvs1mj","190.csv","","87.29999999701977","resources/trios/L4T4A2.jpg","39","restless",0.5,0.3,0.5,0.926670832601998,"false"
"image-keyboard-response",249,224963,"0.0-3.79-1.79","crtw631q9zvs1mj","190.csv","","null","resources/maskTrios/BBA2.jpg","null","",NA,NA,NA,NA,""
"image-keyboard-response",250,226174,"0.0-3.79-2.79","crtw631q9zvs1mj","190.csv","","null","resources/images/fishbone.png","null","",NA,NA,NA,NA,""
"image-keyboard-response",251,227073,"0.0-3.80-0.80","crtw631q9zvs1mj","190.csv","","896.2999999970198","resources/trios/L1T2A3.jpg","39","restless",0.5,0.3,0.5,0.833742993808632,"false"
"image-keyboard-response",252,227482,"0.0-3.80-1.80","crtw631q9zvs1mj","190.csv","","null","resources/maskTrios/BBA3.jpg","null","",NA,NA,NA,NA,""
"image-keyboard-response",253,228687,"0.0-3.80-2.80","crtw631q9zvs1mj","190.csv","","null","resources/images/fishbone.png","null","",NA,NA,NA,NA,""
"image-keyboard-response",254,228762,"0.0-3.81-0.81","crtw631q9zvs1mj","190.csv","","73.70000000298023","resources/trios/L1T2A3.jpg","39","restless",0.4,0.3,0.5,0.592764302811426,"false"
"image-keyboard-response",255,229171,"0.0-3.81-1.81","crtw631q9zvs1mj","190.csv","","null","resources/maskTrios/BBA3.jpg","null","",NA,NA,NA,NA,""
"image-keyboard-response",256,230377,"0.0-3.81-2.81","crtw631q9zvs1mj","190.csv","","null","resources/images/fishbone.png","null","",NA,NA,NA,NA,""
"image-keyboard-response",257,230492,"0.0-3.82-0.82","crtw631q9zvs1mj","190.csv","","113.70000000298023","resources/trios/L4T4A2.jpg","39","restless",0.4,0.3,0.5,0.355215095425741,"true"
"image-keyboard-response",258,230894,"0.0-3.82-1.82","crtw631q9zvs1mj","190.csv","","null","resources/maskTrios/BBA2.jpg","null","",NA,NA,NA,NA,""
"image-keyboard-response",259,232098,"0.0-3.82-2.82","crtw631q9zvs1mj","190.csv","","null","resources/images/coin2.png","null","",NA,NA,NA,NA,""
"image-keyboard-response",260,232207,"0.0-3.83-0.83","crtw631q9zvs1mj","190.csv","","106.59999999403954","resources/trios/L1T2A3.jpg","39","restless",0.4,0.3,0.5,0.388907452523028,"true"
"image-keyboard-response",261,232618,"0.0-3.83-1.83","crtw631q9zvs1mj","190.csv","","null","resources/maskTrios/BBA3.jpg","null","",NA,NA,NA,NA,""
"image-keyboard-response",262,233829,"0.0-3.83-2.83","crtw631q9zvs1mj","190.csv","","null","resources/images/coin2.png","null","",NA,NA,NA,NA,""
"image-keyboard-response",263,234177,"0.0-3.84-0.84","crtw631q9zvs1mj","190.csv","","346.40000000596046","resources/trios/L1T4A3.jpg","39","restless",0.4,0.3,0.4,0.117833226538673,"true"
"image-keyboard-response",264,234586,"0.0-3.84-1.84","crtw631q9zvs1mj","190.csv","","null","resources/maskTrios/BBA3.jpg","null","",NA,NA,NA,NA,""
"image-keyboard-response",265,235794,"0.0-3.84-2.84","crtw631q9zvs1mj","190.csv","","null","resources/images/coin2.png","null","",NA,NA,NA,NA,""
"image-keyboard-response",266,235953,"0.0-3.85-0.85","crtw631q9zvs1mj","190.csv","","157.20000000298023","resources/trios/L4T2A2.jpg","39","restless",0.4,0.3,0.5,0.727480651608456,"false"
"image-keyboard-response",267,236359,"0.0-3.85-1.85","crtw631q9zvs1mj","190.csv","","null","resources/maskTrios/BBA2.jpg","null","",NA,NA,NA,NA,""
"image-keyboard-response",268,237567,"0.0-3.85-2.85","crtw631q9zvs1mj","190.csv","","null","resources/images/fishbone.png","null","",NA,NA,NA,NA,""
"image-keyboard-response",269,238320,"0.0-3.86-0.86","crtw631q9zvs1mj","190.csv","","750.2000000029802","resources/trios/L4T2A3.jpg","39","restless",0.4,0.3,0.5,0.953136895441532,"false"
"image-keyboard-response",270,238726,"0.0-3.86-1.86","crtw631q9zvs1mj","190.csv","","null","resources/maskTrios/BBA3.jpg","null","",NA,NA,NA,NA,""
"image-keyboard-response",271,239942,"0.0-3.86-2.86","crtw631q9zvs1mj","190.csv","","null","resources/images/fishbone.png","null","",NA,NA,NA,NA,""
"image-keyboard-response",272,240019,"0.0-3.87-0.87","crtw631q9zvs1mj","190.csv","","74.8999999910593","resources/trios/L4T4A3.jpg","39","restless",0.4,0.3,0.5,0.0842133993998666,"true"
"image-keyboard-response",273,240428,"0.0-3.87-1.87","crtw631q9zvs1mj","190.csv","","null","resources/maskTrios/BBA3.jpg","null","",NA,NA,NA,NA,""
"image-keyboard-response",274,241637,"0.0-3.87-2.87","crtw631q9zvs1mj","190.csv","","null","resources/images/coin2.png","null","",NA,NA,NA,NA,""
"image-keyboard-response",275,241664,"0.0-3.88-0.88","crtw631q9zvs1mj","190.csv","","24.799999997019768","resources/trios/L1T2A3.jpg","39","restless",0.4,0.4,0.5,0.682296122226496,"false"
"image-keyboard-response",276,242078,"0.0-3.88-1.88","crtw631q9zvs1mj","190.csv","","null","resources/maskTrios/BBA3.jpg","null","",NA,NA,NA,NA,""
"image-keyboard-response",277,243286,"0.0-3.88-2.88","crtw631q9zvs1mj","190.csv","","null","resources/images/fishbone.png","null","",NA,NA,NA,NA,""
"image-keyboard-response",278,243941,"0.0-3.89-0.89","crtw631q9zvs1mj","190.csv","","653.2999999970198","resources/trios/L1T2A2.jpg","39","restless",0.4,0.4,0.5,0.263996818008911,"true"
"image-keyboard-response",279,244354,"0.0-3.89-1.89","crtw631q9zvs1mj","190.csv","","null","resources/maskTrios/BBA2.jpg","null","",NA,NA,NA,NA,""
"image-keyboard-response",280,245562,"0.0-3.89-2.89","crtw631q9zvs1mj","190.csv","","null","resources/images/coin2.png","null","",NA,NA,NA,NA,""
"image-keyboard-response",281,245871,"0.0-3.90-0.90","crtw631q9zvs1mj","190.csv","","306.90000000596046","resources/trios/L4T4A2.jpg","37","restless",0.4,0.4,0.5,0.232427181143686,"true"
"image-keyboard-response",282,246285,"0.0-3.90-1.90","crtw631q9zvs1mj","190.csv","","null","resources/maskTrios/L4BB.jpg","null","",NA,NA,NA,NA,""
"image-keyboard-response",283,247498,"0.0-3.90-2.90","crtw631q9zvs1mj","190.csv","","null","resources/images/coin2.png","null","",NA,NA,NA,NA,""
"image-keyboard-response",284,248298,"0.0-3.91-0.91","crtw631q9zvs1mj","190.csv","","797.9000000059605","resources/trios/L1T4A2.jpg","38","restless",0.4,0.4,0.5,0.0176103530023977,"true"
"image-keyboard-response",285,248706,"0.0-3.91-1.91","crtw631q9zvs1mj","190.csv","","null","resources/maskTrios/BT4B.jpg","null","",NA,NA,NA,NA,""
"image-keyboard-response",286,249915,"0.0-3.91-2.91","crtw631q9zvs1mj","190.csv","","null","resources/images/coin2.png","null","",NA,NA,NA,NA,""
"image-keyboard-response",287,250201,"0.0-3.92-0.92","crtw631q9zvs1mj","190.csv","","284.19999998807907","resources/trios/L1T2A3.jpg","39","restless",0.4,0.4,0.5,0.159425522785326,"true"
"image-keyboard-response",288,250607,"0.0-3.92-1.92","crtw631q9zvs1mj","190.csv","","null","resources/maskTrios/BBA3.jpg","null","",NA,NA,NA,NA,""
"image-keyboard-response",289,251813,"0.0-3.92-2.92","crtw631q9zvs1mj","190.csv","","null","resources/images/coin2.png","null","",NA,NA,NA,NA,""
"image-keyboard-response",290,255270,"0.0-3.93-0.93","crtw631q9zvs1mj","190.csv","","3455.5","resources/trios/L1T4A3.jpg","37","restless",0.4,0.5,0.5,0.197231086088175,"true"
"image-keyboard-response",291,255687,"0.0-3.93-1.93","crtw631q9zvs1mj","190.csv","","null","resources/maskTrios/L1BB.jpg","null","",NA,NA,NA,NA,""
"image-keyboard-response",292,256892,"0.0-3.93-2.93","crtw631q9zvs1mj","190.csv","","null","resources/images/coin2.png","null","",NA,NA,NA,NA,""
"image-keyboard-response",293,257073,"0.0-3.94-0.94","crtw631q9zvs1mj","190.csv","","179.6000000089407","resources/trios/L1T2A2.jpg","38","restless",0.4,0.5,0.5,0.881870984930607,"false"
"image-keyboard-response",294,257484,"0.0-3.94-1.94","crtw631q9zvs1mj","190.csv","","null","resources/maskTrios/BT2B.jpg","null","",NA,NA,NA,NA,""
"image-keyboard-response",295,258695,"0.0-3.94-2.94","crtw631q9zvs1mj","190.csv","","null","resources/images/fishbone.png","null","",NA,NA,NA,NA,""
"image-keyboard-response",296,261246,"0.0-3.95-0.95","crtw631q9zvs1mj","190.csv","","2549.1000000089407","resources/trios/L1T2A3.jpg","39","restless",0.4,0.5,0.5,0.0425002518126769,"true"
"image-keyboard-response",297,261655,"0.0-3.95-1.95","crtw631q9zvs1mj","190.csv","","null","resources/maskTrios/BBA3.jpg","null","",NA,NA,NA,NA,""
"image-keyboard-response",298,262872,"0.0-3.95-2.95","crtw631q9zvs1mj","190.csv","","null","resources/images/coin2.png","null","",NA,NA,NA,NA,""
"image-keyboard-response",299,264359,"0.0-3.96-0.96","crtw631q9zvs1mj","190.csv","","1485.4000000059605","resources/trios/L4T2A3.jpg","37","restless",0.4,0.5,0.5,0.63465835169765,"false"
"image-keyboard-response",300,264770,"0.0-3.96-1.96","crtw631q9zvs1mj","190.csv","","null","resources/maskTrios/L4BB.jpg","null","",NA,NA,NA,NA,""
"image-keyboard-response",301,265973,"0.0-3.96-2.96","crtw631q9zvs1mj","190.csv","","null","resources/images/fishbone.png","null","",NA,NA,NA,NA,""
"image-keyboard-response",302,266148,"0.0-3.97-0.97","crtw631q9zvs1mj","190.csv","","173","resources/trios/L4T2A3.jpg","39","restless",0.4,0.5,0.5,0.415251051357954,"true"
"image-keyboard-response",303,266558,"0.0-3.97-1.97","crtw631q9zvs1mj","190.csv","","null","resources/maskTrios/BBA3.jpg","null","",NA,NA,NA,NA,""
"image-keyboard-response",304,267769,"0.0-3.97-2.97","crtw631q9zvs1mj","190.csv","","null","resources/images/coin2.png","null","",NA,NA,NA,NA,""
"image-keyboard-response",305,268089,"0.0-3.98-0.98","crtw631q9zvs1mj","190.csv","","317.79999999701977","resources/trios/L4T4A2.jpg","39","restless",0.3,0.6,0.5,0.586775310238185,"false"
"image-keyboard-response",306,268494,"0.0-3.98-1.98","crtw631q9zvs1mj","190.csv","","null","resources/maskTrios/BBA2.jpg","null","",NA,NA,NA,NA,""
"image-keyboard-response",307,269703,"0.0-3.98-2.98","crtw631q9zvs1mj","190.csv","","null","resources/images/fishbone.png","null","",NA,NA,NA,NA,""
"image-keyboard-response",308,270023,"0.0-3.99-0.99","crtw631q9zvs1mj","190.csv","","318.20000000298023","resources/trios/L4T2A2.jpg","38","restless",0.3,0.6,0.5,0.252635895393511,"true"
"image-keyboard-response",309,270440,"0.0-3.99-1.99","crtw631q9zvs1mj","190.csv","","null","resources/maskTrios/BT2B.jpg","null","",NA,NA,NA,NA,""
"image-keyboard-response",310,271656,"0.0-3.99-2.99","crtw631q9zvs1mj","190.csv","","null","resources/images/coin2.png","null","",NA,NA,NA,NA,""
"image-keyboard-response",311,272651,"0.0-3.100-0.100","crtw631q9zvs1mj","190.csv","","993.2999999970198","resources/trios/L4T2A2.jpg","38","restless",0.3,0.6,0.5,0.285771927128762,"true"
"image-keyboard-response",312,273069,"0.0-3.100-1.100","crtw631q9zvs1mj","190.csv","","null","resources/maskTrios/BT2B.jpg","null","",NA,NA,NA,NA,""
"image-keyboard-response",313,274283,"0.0-3.100-2.100","crtw631q9zvs1mj","190.csv","","null","resources/images/coin2.png","null","",NA,NA,NA,NA,""
"image-keyboard-response",314,274848,"0.0-3.101-0.101","crtw631q9zvs1mj","190.csv","","563.2000000029802","resources/trios/L1T4A2.jpg","38","restless",0.3,0.6,0.5,0.923243267320431,"false"
"image-keyboard-response",315,275252,"0.0-3.101-1.101","crtw631q9zvs1mj","190.csv","","null","resources/maskTrios/BT4B.jpg","null","",NA,NA,NA,NA,""
"image-keyboard-response",316,276466,"0.0-3.101-2.101","crtw631q9zvs1mj","190.csv","","null","resources/images/fishbone.png","null","",NA,NA,NA,NA,""
"image-keyboard-response",317,276681,"0.0-3.102-0.102","crtw631q9zvs1mj","190.csv","","213","resources/trios/L1T2A2.jpg","38","restless",0.3,0.5,0.5,0.674869944448385,"false"
"image-keyboard-response",318,277097,"0.0-3.102-1.102","crtw631q9zvs1mj","190.csv","","null","resources/maskTrios/BT2B.jpg","null","",NA,NA,NA,NA,""
"image-keyboard-response",319,278307,"0.0-3.102-2.102","crtw631q9zvs1mj","190.csv","","null","resources/images/fishbone.png","null","",NA,NA,NA,NA,""
"image-keyboard-response",320,278812,"0.0-3.103-0.103","crtw631q9zvs1mj","190.csv","","503","resources/trios/L4T2A3.jpg","39","restless",0.3,0.5,0.5,0.632837124512113,"false"
"image-keyboard-response",321,279215,"0.0-3.103-1.103","crtw631q9zvs1mj","190.csv","","null","resources/maskTrios/BBA3.jpg","null","",NA,NA,NA,NA,""
"image-keyboard-response",322,280423,"0.0-3.103-2.103","crtw631q9zvs1mj","190.csv","","null","resources/images/fishbone.png","null","",NA,NA,NA,NA,""
"image-keyboard-response",323,282919,"0.0-3.104-0.104","crtw631q9zvs1mj","190.csv","","2493.7999999970198","resources/trios/L4T4A3.jpg","38","restless",0.3,0.5,0.5,0.0890600046436893,"true"
"image-keyboard-response",324,283324,"0.0-3.104-1.104","crtw631q9zvs1mj","190.csv","","null","resources/maskTrios/BT4B.jpg","null","",NA,NA,NA,NA,""
"image-keyboard-response",325,284531,"0.0-3.104-2.104","crtw631q9zvs1mj","190.csv","","null","resources/images/coin2.png","null","",NA,NA,NA,NA,""
"image-keyboard-response",326,287838,"0.0-3.105-0.105","crtw631q9zvs1mj","190.csv","","3305.0999999940395","resources/trios/L1T2A2.jpg","39","restless",0.3,0.5,0.5,0.138130553586279,"true"
"image-keyboard-response",327,288245,"0.0-3.105-1.105","crtw631q9zvs1mj","190.csv","","null","resources/maskTrios/BBA2.jpg","null","",NA,NA,NA,NA,""
"image-keyboard-response",328,289454,"0.0-3.105-2.105","crtw631q9zvs1mj","190.csv","","null","resources/images/coin2.png","null","",NA,NA,NA,NA,""
"image-keyboard-response",329,290375,"0.0-3.106-0.106","crtw631q9zvs1mj","190.csv","","919.5999999940395","resources/trios/L1T4A2.jpg","39","restless",0.3,0.5,0.5,0.621045574163941,"false"
"image-keyboard-response",330,290777,"0.0-3.106-1.106","crtw631q9zvs1mj","190.csv","","null","resources/maskTrios/BBA2.jpg","null","",NA,NA,NA,NA,""
"image-keyboard-response",331,291988,"0.0-3.106-2.106","crtw631q9zvs1mj","190.csv","","null","resources/images/fishbone.png","null","",NA,NA,NA,NA,""
"image-keyboard-response",332,293574,"0.0-3.107-0.107","crtw631q9zvs1mj","190.csv","","1584.5999999940395","resources/trios/L4T4A3.jpg","38","restless",0.3,0.6,0.5,0.130877069012747,"true"
"image-keyboard-response",333,293982,"0.0-3.107-1.107","crtw631q9zvs1mj","190.csv","","null","resources/maskTrios/BT4B.jpg","null","",NA,NA,NA,NA,""
"image-keyboard-response",334,295197,"0.0-3.107-2.107","crtw631q9zvs1mj","190.csv","","null","resources/images/coin2.png","null","",NA,NA,NA,NA,""
"image-keyboard-response",335,295236,"0.0-3.108-0.108","crtw631q9zvs1mj","190.csv","","37.70000000298023","resources/trios/L1T4A3.jpg","39","restless",0.3,0.6,0.5,0.162945666408297,"true"
"image-keyboard-response",336,295652,"0.0-3.108-1.108","crtw631q9zvs1mj","190.csv","","null","resources/maskTrios/BBA3.jpg","null","",NA,NA,NA,NA,""
"image-keyboard-response",337,296859,"0.0-3.108-2.108","crtw631q9zvs1mj","190.csv","","null","resources/images/coin2.png","null","",NA,NA,NA,NA,""
"image-keyboard-response",338,296893,"0.0-3.109-0.109","crtw631q9zvs1mj","190.csv","","32.3999999910593","resources/trios/L4T2A2.jpg","38","restless",0.3,0.5,0.5,0.235352950070233,"true"
"image-keyboard-response",339,297309,"0.0-3.109-1.109","crtw631q9zvs1mj","190.csv","","null","resources/maskTrios/BT2B.jpg","null","",NA,NA,NA,NA,""
"image-keyboard-response",340,298517,"0.0-3.109-2.109","crtw631q9zvs1mj","190.csv","","null","resources/images/coin2.png","null","",NA,NA,NA,NA,""
"image-keyboard-response",341,298630,"0.0-3.110-0.110","crtw631q9zvs1mj","190.csv","","110.79999999701977","resources/trios/L4T2A3.jpg","39","restless",0.3,0.5,0.5,0.407128431091258,"true"
"image-keyboard-response",342,299035,"0.0-3.110-1.110","crtw631q9zvs1mj","190.csv","","null","resources/maskTrios/BBA3.jpg","null","",NA,NA,NA,NA,""
"image-keyboard-response",343,300247,"0.0-3.110-2.110","crtw631q9zvs1mj","190.csv","","null","resources/images/coin2.png","null","",NA,NA,NA,NA,""
"image-keyboard-response",344,301067,"0.0-3.111-0.111","crtw631q9zvs1mj","190.csv","","818.4000000059605","resources/trios/L1T2A3.jpg","38","restless",0.3,0.5,0.5,0.885560225288924,"false"
"image-keyboard-response",345,301473,"0.0-3.111-1.111","crtw631q9zvs1mj","190.csv","","null","resources/maskTrios/BT2B.jpg","null","",NA,NA,NA,NA,""
"image-keyboard-response",346,302686,"0.0-3.111-2.111","crtw631q9zvs1mj","190.csv","","null","resources/images/fishbone.png","null","",NA,NA,NA,NA,""
"image-keyboard-response",347,302715,"0.0-3.112-0.112","crtw631q9zvs1mj","190.csv","","28.100000008940697","resources/trios/L4T2A2.jpg","38","restless",0.3,0.5,0.5,0.705366964913277,"false"
"image-keyboard-response",348,303119,"0.0-3.112-1.112","crtw631q9zvs1mj","190.csv","","null","resources/maskTrios/BT2B.jpg","null","",NA,NA,NA,NA,""
"image-keyboard-response",349,304327,"0.0-3.112-2.112","crtw631q9zvs1mj","190.csv","","null","resources/images/fishbone.png","null","",NA,NA,NA,NA,""
"image-keyboard-response",350,305639,"0.0-3.113-0.113","crtw631q9zvs1mj","190.csv","","1310.4000000059605","resources/trios/L1T4A3.jpg","39","restless",0.4,0.4,0.5,0.419186664505407,"true"
"image-keyboard-response",351,306054,"0.0-3.113-1.113","crtw631q9zvs1mj","190.csv","","null","resources/maskTrios/BBA3.jpg","null","",NA,NA,NA,NA,""
"image-keyboard-response",352,307263,"0.0-3.113-2.113","crtw631q9zvs1mj","190.csv","","null","resources/images/coin2.png","null","",NA,NA,NA,NA,""
"image-keyboard-response",353,307338,"0.0-3.114-0.114","crtw631q9zvs1mj","190.csv","","73.69999998807907","resources/trios/L4T2A3.jpg","39","restless",0.5,0.4,0.5,0.778592018481118,"false"
"image-keyboard-response",354,307752,"0.0-3.114-1.114","crtw631q9zvs1mj","190.csv","","null","resources/maskTrios/BBA3.jpg","null","",NA,NA,NA,NA,""
"image-keyboard-response",355,308967,"0.0-3.114-2.114","crtw631q9zvs1mj","190.csv","","null","resources/images/fishbone.png","null","",NA,NA,NA,NA,""
"image-keyboard-response",356,310743,"0.0-3.115-0.115","crtw631q9zvs1mj","190.csv","","1775.2999999970198","resources/trios/L4T4A2.jpg","39","restless",0.5,0.4,0.5,0.294279036226877,"true"
"image-keyboard-response",357,311156,"0.0-3.115-1.115","crtw631q9zvs1mj","190.csv","","null","resources/maskTrios/BBA2.jpg","null","",NA,NA,NA,NA,""
"image-keyboard-response",358,312366,"0.0-3.115-2.115","crtw631q9zvs1mj","190.csv","","null","resources/images/coin2.png","null","",NA,NA,NA,NA,""
"image-keyboard-response",359,312569,"0.0-3.116-0.116","crtw631q9zvs1mj","190.csv","","200.1000000089407","resources/trios/L4T4A2.jpg","38","restless",0.5,0.4,0.5,0.132539950287082,"true"
"image-keyboard-response",360,312982,"0.0-3.116-1.116","crtw631q9zvs1mj","190.csv","","null","resources/maskTrios/BT4B.jpg","null","",NA,NA,NA,NA,""
"image-keyboard-response",361,314197,"0.0-3.116-2.116","crtw631q9zvs1mj","190.csv","","null","resources/images/coin2.png","null","",NA,NA,NA,NA,""
"image-keyboard-response",362,314499,"0.0-3.117-0.117","crtw631q9zvs1mj","190.csv","","300.5","resources/trios/L1T2A3.jpg","39","restless",0.5,0.4,0.5,0.467006960464579,"true"
"image-keyboard-response",363,314916,"0.0-3.117-1.117","crtw631q9zvs1mj","190.csv","","null","resources/maskTrios/BBA3.jpg","null","",NA,NA,NA,NA,""
"image-keyboard-response",364,316126,"0.0-3.117-2.117","crtw631q9zvs1mj","190.csv","","null","resources/images/coin2.png","null","",NA,NA,NA,NA,""
"image-keyboard-response",365,316232,"0.0-3.118-0.118","crtw631q9zvs1mj","190.csv","","104.70000000298023","resources/trios/L1T4A3.jpg","39","restless",0.5,0.4,0.5,0.306252650939648,"true"
"image-keyboard-response",366,316644,"0.0-3.118-1.118","crtw631q9zvs1mj","190.csv","","null","resources/maskTrios/BBA3.jpg","null","",NA,NA,NA,NA,""
"image-keyboard-response",367,317854,"0.0-3.118-2.118","crtw631q9zvs1mj","190.csv","","null","resources/images/coin2.png","null","",NA,NA,NA,NA,""
"image-keyboard-response",368,318009,"0.0-3.119-0.119","crtw631q9zvs1mj","190.csv","","154.1000000089407","resources/trios/L4T4A3.jpg","39","restless",0.5,0.4,0.5,0.116699278398247,"true"
"image-keyboard-response",369,318420,"0.0-3.119-1.119","crtw631q9zvs1mj","190.csv","","null","resources/maskTrios/BBA3.jpg","null","",NA,NA,NA,NA,""
"image-keyboard-response",370,319628,"0.0-3.119-2.119","crtw631q9zvs1mj","190.csv","","null","resources/images/coin2.png","null","",NA,NA,NA,NA,""
"image-keyboard-response",371,319859,"0.0-3.120-0.120","crtw631q9zvs1mj","190.csv","","230","resources/trios/L4T4A3.jpg","39","restless",0.5,0.4,0.5,0.249268647461116,"true"
"image-keyboard-response",372,320272,"0.0-3.120-1.120","crtw631q9zvs1mj","190.csv","","null","resources/maskTrios/BBA3.jpg","null","",NA,NA,NA,NA,""
"image-keyboard-response",373,321474,"0.0-3.120-2.120","crtw631q9zvs1mj","190.csv","","null","resources/images/coin2.png","null","",NA,NA,NA,NA,""
"image-keyboard-response",374,321700,"0.0-3.121-0.121","crtw631q9zvs1mj","190.csv","","224.5","resources/trios/L4T4A3.jpg","38","restless",0.5,0.4,0.5,0.812223338466828,"false"
"image-keyboard-response",375,322116,"0.0-3.121-1.121","crtw631q9zvs1mj","190.csv","","null","resources/maskTrios/BT4B.jpg","null","",NA,NA,NA,NA,""
"image-keyboard-response",376,323322,"0.0-3.121-2.121","crtw631q9zvs1mj","190.csv","","null","resources/images/fishbone.png","null","",NA,NA,NA,NA,""
"image-keyboard-response",377,323721,"0.0-3.122-0.122","crtw631q9zvs1mj","190.csv","","396.90000000596046","resources/trios/L4T2A2.jpg","39","restless",0.6,0.4,0.5,0.948900401688897,"false"
"image-keyboard-response",378,324123,"0.0-3.122-1.122","crtw631q9zvs1mj","190.csv","","null","resources/maskTrios/BBA2.jpg","null","",NA,NA,NA,NA,""
"image-keyboard-response",379,325331,"0.0-3.122-2.122","crtw631q9zvs1mj","190.csv","","null","resources/images/fishbone.png","null","",NA,NA,NA,NA,""
"image-keyboard-response",380,325692,"0.0-3.123-0.123","crtw631q9zvs1mj","190.csv","","358.80000001192093","resources/trios/L4T4A2.jpg","37","restless",0.6,0.4,0.5,0.0660558956711692,"true"
"image-keyboard-response",381,326100,"0.0-3.123-1.123","crtw631q9zvs1mj","190.csv","","null","resources/maskTrios/L4BB.jpg","null","",NA,NA,NA,NA,""
"image-keyboard-response",382,327307,"0.0-3.123-2.123","crtw631q9zvs1mj","190.csv","","null","resources/images/coin2.png","null","",NA,NA,NA,NA,""
"image-keyboard-response",383,327311,"0.0-3.124-0.124","crtw631q9zvs1mj","190.csv","","2.5","resources/trios/L4T2A3.jpg","38","restless",0.6,0.4,0.5,0.317112901884744,"true"
"image-keyboard-response",384,327715,"0.0-3.124-1.124","crtw631q9zvs1mj","190.csv","","null","resources/maskTrios/BT2B.jpg","null","",NA,NA,NA,NA,""
"image-keyboard-response",385,328921,"0.0-3.124-2.124","crtw631q9zvs1mj","190.csv","","null","resources/images/coin2.png","null","",NA,NA,NA,NA,""
"image-keyboard-response",386,328934,"0.0-3.125-0.125","crtw631q9zvs1mj","190.csv","","10.400000005960464","resources/trios/L1T2A3.jpg","37","restless",0.6,0.4,0.5,0.5525036794167,"true"
"image-keyboard-response",387,329340,"0.0-3.125-1.125","crtw631q9zvs1mj","190.csv","","null","resources/maskTrios/L1BB.jpg","null","",NA,NA,NA,NA,""
"image-keyboard-response",388,330555,"0.0-3.125-2.125","crtw631q9zvs1mj","190.csv","","null","resources/images/coin2.png","null","",NA,NA,NA,NA,""
"image-keyboard-response",389,330579,"0.0-3.126-0.126","crtw631q9zvs1mj","190.csv","","22.200000002980232","resources/trios/L4T2A2.jpg","38","restless",0.6,0.4,0.5,0.457062394353606,"false"
"image-keyboard-response",390,330992,"0.0-3.126-1.126","crtw631q9zvs1mj","190.csv","","null","resources/maskTrios/BT2B.jpg","null","",NA,NA,NA,NA,""
"image-keyboard-response",391,332197,"0.0-3.126-2.126","crtw631q9zvs1mj","190.csv","","null","resources/images/fishbone.png","null","",NA,NA,NA,NA,""
"image-keyboard-response",392,332228,"0.0-3.127-0.127","crtw631q9zvs1mj","190.csv","","28.799999997019768","resources/trios/L4T4A2.jpg","39","restless",0.6,0.4,0.5,0.653939753333054,"false"
"image-keyboard-response",393,332635,"0.0-3.127-1.127","crtw631q9zvs1mj","190.csv","","null","resources/maskTrios/BBA2.jpg","null","",NA,NA,NA,NA,""
"image-keyboard-response",394,333840,"0.0-3.127-2.127","crtw631q9zvs1mj","190.csv","","null","resources/images/fishbone.png","null","",NA,NA,NA,NA,""
"image-keyboard-response",395,333983,"0.0-3.128-0.128","crtw631q9zvs1mj","190.csv","","141.20000000298023","resources/trios/L1T2A2.jpg","39","restless",0.6,0.4,0.4,0.737754848692577,"false"
"image-keyboard-response",396,334388,"0.0-3.128-1.128","crtw631q9zvs1mj","190.csv","","null","resources/maskTrios/BBA2.jpg","null","",NA,NA,NA,NA,""
"image-keyboard-response",397,335595,"0.0-3.128-2.128","crtw631q9zvs1mj","190.csv","","null","resources/images/fishbone.png","null","",NA,NA,NA,NA,""
"image-keyboard-response",398,335789,"0.0-3.129-0.129","crtw631q9zvs1mj","190.csv","","191.29999999701977","resources/trios/L1T4A2.jpg","37","restless",0.6,0.4,0.4,0.0975168721370798,"true"
"image-keyboard-response",399,336192,"0.0-3.129-1.129","crtw631q9zvs1mj","190.csv","","null","resources/maskTrios/L1BB.jpg","null","",NA,NA,NA,NA,""
"image-keyboard-response",400,337401,"0.0-3.129-2.129","crtw631q9zvs1mj","190.csv","","null","resources/images/coin2.png","null","",NA,NA,NA,NA,""
"image-keyboard-response",401,337498,"0.0-3.130-0.130","crtw631q9zvs1mj","190.csv","","94.8999999910593","resources/trios/L1T2A2.jpg","39","restless",0.6,0.4,0.5,0.821144330778072,"false"
"image-keyboard-response",402,337900,"0.0-3.130-1.130","crtw631q9zvs1mj","190.csv","","null","resources/maskTrios/BBA2.jpg","null","",NA,NA,NA,NA,""
"image-keyboard-response",403,339108,"0.0-3.130-2.130","crtw631q9zvs1mj","190.csv","","null","resources/images/fishbone.png","null","",NA,NA,NA,NA,""
"image-keyboard-response",404,341335,"0.0-3.131-0.131","crtw631q9zvs1mj","190.csv","","2225.5999999940395","resources/trios/L1T4A2.jpg","37","restless",0.6,0.4,0.5,0.0116774701233942,"true"
"image-keyboard-response",405,341751,"0.0-3.131-1.131","crtw631q9zvs1mj","190.csv","","null","resources/maskTrios/L1BB.jpg","null","",NA,NA,NA,NA,""
"image-keyboard-response",406,342957,"0.0-3.131-2.131","crtw631q9zvs1mj","190.csv","","null","resources/images/coin2.png","null","",NA,NA,NA,NA,""
"image-keyboard-response",407,343566,"0.0-3.132-0.132","crtw631q9zvs1mj","190.csv","","607.5","resources/trios/L1T4A3.jpg","39","restless",0.6,0.4,0.5,0.163916403192251,"true"
"image-keyboard-response",408,343970,"0.0-3.132-1.132","crtw631q9zvs1mj","190.csv","","null","resources/maskTrios/BBA3.jpg","null","",NA,NA,NA,NA,""
"image-keyboard-response",409,345180,"0.0-3.132-2.132","crtw631q9zvs1mj","190.csv","","null","resources/images/coin2.png","null","",NA,NA,NA,NA,""
"image-keyboard-response",410,345467,"0.0-3.133-0.133","crtw631q9zvs1mj","190.csv","","285.59999999403954","resources/trios/L1T4A2.jpg","37","restless",0.6,0.4,0.6,0.870962806328142,"false"
"image-keyboard-response",411,345872,"0.0-3.133-1.133","crtw631q9zvs1mj","190.csv","","null","resources/maskTrios/L1BB.jpg","null","",NA,NA,NA,NA,""
"image-keyboard-response",412,347084,"0.0-3.133-2.133","crtw631q9zvs1mj","190.csv","","null","resources/images/fishbone.png","null","",NA,NA,NA,NA,""
"image-keyboard-response",413,347221,"0.0-3.134-0.134","crtw631q9zvs1mj","190.csv","","134.19999998807907","resources/trios/L1T2A3.jpg","39","restless",0.6,0.4,0.6,0.546627677730063,"true"
"image-keyboard-response",414,347635,"0.0-3.134-1.134","crtw631q9zvs1mj","190.csv","","null","resources/maskTrios/BBA3.jpg","null","",NA,NA,NA,NA,""
"image-keyboard-response",415,348845,"0.0-3.134-2.134","crtw631q9zvs1mj","190.csv","","null","resources/images/coin2.png","null","",NA,NA,NA,NA,""
"image-keyboard-response",416,354062,"0.0-3.135-0.135","crtw631q9zvs1mj","190.csv","","5215.399999991059","resources/trios/L1T2A2.jpg","39","restless",0.6,0.4,0.6,0.0463466257607275,"true"
"image-keyboard-response",417,354472,"0.0-3.135-1.135","crtw631q9zvs1mj","190.csv","","null","resources/maskTrios/BBA2.jpg","null","",NA,NA,NA,NA,""
"image-keyboard-response",418,355683,"0.0-3.135-2.135","crtw631q9zvs1mj","190.csv","","null","resources/images/coin2.png","null","",NA,NA,NA,NA,""
"image-keyboard-response",419,355771,"0.0-3.136-0.136","crtw631q9zvs1mj","190.csv","","86.59999999403954","resources/trios/L1T2A3.jpg","38","restless",0.7,0.4,0.6,0.311297459366582,"true"
"image-keyboard-response",420,356182,"0.0-3.136-1.136","crtw631q9zvs1mj","190.csv","","null","resources/maskTrios/BT2B.jpg","null","",NA,NA,NA,NA,""
"image-keyboard-response",421,357384,"0.0-3.136-2.136","crtw631q9zvs1mj","190.csv","","null","resources/images/coin2.png","null","",NA,NA,NA,NA,""
"image-keyboard-response",422,357496,"0.0-3.137-0.137","crtw631q9zvs1mj","190.csv","","110.29999999701977","resources/trios/L1T2A3.jpg","38","restless",0.7,0.4,0.6,0.329063542773871,"true"
"image-keyboard-response",423,357902,"0.0-3.137-1.137","crtw631q9zvs1mj","190.csv","","null","resources/maskTrios/BT2B.jpg","null","",NA,NA,NA,NA,""
"image-keyboard-response",424,359108,"0.0-3.137-2.137","crtw631q9zvs1mj","190.csv","","null","resources/images/coin2.png","null","",NA,NA,NA,NA,""
"image-keyboard-response",425,359497,"0.0-3.138-0.138","crtw631q9zvs1mj","190.csv","","387.1000000089407","resources/trios/L4T2A3.jpg","38","restless",0.7,0.4,0.6,0.395153608159374,"true"
"image-keyboard-response",426,359907,"0.0-3.138-1.138","crtw631q9zvs1mj","190.csv","","null","resources/maskTrios/BT2B.jpg","null","",NA,NA,NA,NA,""
"image-keyboard-response",427,361113,"0.0-3.138-2.138","crtw631q9zvs1mj","190.csv","","null","resources/images/coin2.png","null","",NA,NA,NA,NA,""
"image-keyboard-response",428,361472,"0.0-3.139-0.139","crtw631q9zvs1mj","190.csv","","357.90000000596046","resources/trios/L4T2A3.jpg","38","restless",0.6,0.4,0.6,0.950086832728932,"false"
"image-keyboard-response",429,361879,"0.0-3.139-1.139","crtw631q9zvs1mj","190.csv","","null","resources/maskTrios/BT2B.jpg","null","",NA,NA,NA,NA,""
"image-keyboard-response",430,363084,"0.0-3.139-2.139","crtw631q9zvs1mj","190.csv","","null","resources/images/fishbone.png","null","",NA,NA,NA,NA,""
"image-keyboard-response",431,363102,"0.0-3.140-0.140","crtw631q9zvs1mj","190.csv","","16","resources/trios/L4T4A2.jpg","38","restless",0.6,0.4,0.6,0.63712391048749,"false"
"image-keyboard-response",432,363507,"0.0-3.140-1.140","crtw631q9zvs1mj","190.csv","","null","resources/maskTrios/BT4B.jpg","null","",NA,NA,NA,NA,""
"image-keyboard-response",433,364714,"0.0-3.140-2.140","crtw631q9zvs1mj","190.csv","","null","resources/images/fishbone.png","null","",NA,NA,NA,NA,""
"image-keyboard-response",434,364780,"0.0-3.141-0.141","crtw631q9zvs1mj","190.csv","","63.79999999701977","resources/trios/L4T2A2.jpg","37","restless",0.6,0.4,0.6,0.779342753584579,"false"
"image-keyboard-response",435,365184,"0.0-3.141-1.141","crtw631q9zvs1mj","190.csv","","null","resources/maskTrios/L4BB.jpg","null","",NA,NA,NA,NA,""
"image-keyboard-response",436,366395,"0.0-3.141-2.141","crtw631q9zvs1mj","190.csv","","null","resources/images/fishbone.png","null","",NA,NA,NA,NA,""
"image-keyboard-response",437,366593,"0.0-3.142-0.142","crtw631q9zvs1mj","190.csv","","196.09999999403954","resources/trios/L4T2A2.jpg","39","restless",0.6,0.4,0.6,0.166195669960389,"true"
"image-keyboard-response",438,367005,"0.0-3.142-1.142","crtw631q9zvs1mj","190.csv","","null","resources/maskTrios/BBA2.jpg","null","",NA,NA,NA,NA,""
"image-keyboard-response",439,368214,"0.0-3.142-2.142","crtw631q9zvs1mj","190.csv","","null","resources/images/coin2.png","null","",NA,NA,NA,NA,""
"image-keyboard-response",440,368282,"0.0-3.143-0.143","crtw631q9zvs1mj","190.csv","","66.8999999910593","resources/trios/L4T2A2.jpg","38","restless",0.5,0.4,0.6,0.199817853468918,"true"
"image-keyboard-response",441,368685,"0.0-3.143-1.143","crtw631q9zvs1mj","190.csv","","null","resources/maskTrios/BT2B.jpg","null","",NA,NA,NA,NA,""
"image-keyboard-response",442,369899,"0.0-3.143-2.143","crtw631q9zvs1mj","190.csv","","null","resources/images/coin2.png","null","",NA,NA,NA,NA,""
"image-keyboard-response",443,374913,"0.0-3.144-0.144","crtw631q9zvs1mj","190.csv","","5012.29999999702","resources/trios/L1T2A3.jpg","39","restless",0.5,0.4,0.6,0.653351844739572,"false"
"image-keyboard-response",444,375323,"0.0-3.144-1.144","crtw631q9zvs1mj","190.csv","","null","resources/maskTrios/BBA3.jpg","null","",NA,NA,NA,NA,""
"image-keyboard-response",445,376537,"0.0-3.144-2.144","crtw631q9zvs1mj","190.csv","","null","resources/images/fishbone.png","null","",NA,NA,NA,NA,""
"image-keyboard-response",446,376541,"0.0-3.145-0.145","crtw631q9zvs1mj","190.csv","","1.7000000029802322","resources/trios/L4T4A3.jpg","39","restless",0.5,0.4,0.6,0.98667759506651,"false"
"image-keyboard-response",447,376946,"0.0-3.145-1.145","crtw631q9zvs1mj","190.csv","","null","resources/maskTrios/BBA3.jpg","null","",NA,NA,NA,NA,""
"image-keyboard-response",448,378154,"0.0-3.145-2.145","crtw631q9zvs1mj","190.csv","","null","resources/images/fishbone.png","null","",NA,NA,NA,NA,""
"image-keyboard-response",449,380598,"0.0-3.146-0.146","crtw631q9zvs1mj","190.csv","","2442.5","resources/trios/L1T4A2.jpg","38","restless",0.5,0.4,0.6,0.690996789934617,"false"
"image-keyboard-response",450,381003,"0.0-3.146-1.146","crtw631q9zvs1mj","190.csv","","null","resources/maskTrios/BT4B.jpg","null","",NA,NA,NA,NA,""
"image-keyboard-response",451,382206,"0.0-3.146-2.146","crtw631q9zvs1mj","190.csv","","null","resources/images/fishbone.png","null","",NA,NA,NA,NA,""
"image-keyboard-response",452,383647,"0.0-3.147-0.147","crtw631q9zvs1mj","190.csv","","1439.2000000029802","resources/trios/L4T4A2.jpg","38","restless",0.5,0.4,0.5,0.375986001529081,"true"
"image-keyboard-response",453,384061,"0.0-3.147-1.147","crtw631q9zvs1mj","190.csv","","null","resources/maskTrios/BT4B.jpg","null","",NA,NA,NA,NA,""
"image-keyboard-response",454,385263,"0.0-3.147-2.147","crtw631q9zvs1mj","190.csv","","null","resources/images/coin2.png","null","",NA,NA,NA,NA,""
"image-keyboard-response",455,386756,"0.0-3.148-0.148","crtw631q9zvs1mj","190.csv","","1491.6000000089407","resources/trios/L4T4A3.jpg","39","restless",0.5,0.4,0.5,0.325434354026365,"true"
"image-keyboard-response",456,387162,"0.0-3.148-1.148","crtw631q9zvs1mj","190.csv","","null","resources/maskTrios/BBA3.jpg","null","",NA,NA,NA,NA,""
"image-keyboard-response",457,388369,"0.0-3.148-2.148","crtw631q9zvs1mj","190.csv","","null","resources/images/coin2.png","null","",NA,NA,NA,NA,""
"image-keyboard-response",458,388560,"0.0-3.149-0.149","crtw631q9zvs1mj","190.csv","","189.8999999910593","resources/trios/L1T4A3.jpg","38","restless",0.5,0.4,0.5,0.0947007073486115,"true"
"image-keyboard-response",459,388967,"0.0-3.149-1.149","crtw631q9zvs1mj","190.csv","","null","resources/maskTrios/BT4B.jpg","null","",NA,NA,NA,NA,""
"image-keyboard-response",460,390180,"0.0-3.149-2.149","crtw631q9zvs1mj","190.csv","","null","resources/images/coin2.png","null","",NA,NA,NA,NA,""
"image-keyboard-response",461,390326,"0.0-3.150-0.150","crtw631q9zvs1mj","190.csv","","144.29999999701977","resources/trios/L4T2A3.jpg","39","restless",0.5,0.4,0.5,0.135176386775993,"true"
"image-keyboard-response",462,390742,"0.0-3.150-1.150","crtw631q9zvs1mj","190.csv","","null","resources/maskTrios/BBA3.jpg","null","",NA,NA,NA,NA,""
"image-keyboard-response",463,391957,"0.0-3.150-2.150","crtw631q9zvs1mj","190.csv","","null","resources/images/coin2.png","null","",NA,NA,NA,NA,""
"image-keyboard-response",464,442296,"0.0-3.151-0.151","crtw631q9zvs1mj","190.csv","","50338.09999999404","resources/trios/L1T4A2.jpg","37","restless",0.5,0.4,0.5,0.789193813264407,"false"
"image-keyboard-response",465,442700,"0.0-3.151-1.151","crtw631q9zvs1mj","190.csv","","null","resources/maskTrios/L1BB.jpg","null","",NA,NA,NA,NA,""
"image-keyboard-response",466,443911,"0.0-3.151-2.151","crtw631q9zvs1mj","190.csv","","null","resources/images/fishbone.png","null","",NA,NA,NA,NA,""
"image-keyboard-response",467,444482,"0.0-3.152-0.152","crtw631q9zvs1mj","190.csv","","570","resources/trios/L4T2A3.jpg","38","restless",0.5,0.4,0.5,0.0727904208123653,"true"
"image-keyboard-response",468,444897,"0.0-3.152-1.152","crtw631q9zvs1mj","190.csv","","null","resources/maskTrios/BT2B.jpg","null","",NA,NA,NA,NA,""
"image-keyboard-response",469,446102,"0.0-3.152-2.152","crtw631q9zvs1mj","190.csv","","null","resources/images/coin2.png","null","",NA,NA,NA,NA,""
"image-keyboard-response",470,446437,"0.0-3.153-0.153","crtw631q9zvs1mj","190.csv","","333.59999999403954","resources/trios/L4T4A2.jpg","39","restless",0.5,0.4,0.5,0.0671553530181799,"true"
"image-keyboard-response",471,446841,"0.0-3.153-1.153","crtw631q9zvs1mj","190.csv","","null","resources/maskTrios/BBA2.jpg","null","",NA,NA,NA,NA,""
"image-keyboard-response",472,448054,"0.0-3.153-2.153","crtw631q9zvs1mj","190.csv","","null","resources/images/coin2.png","null","",NA,NA,NA,NA,""
"image-keyboard-response",473,448282,"0.0-3.154-0.154","crtw631q9zvs1mj","190.csv","","226.20000000298023","resources/trios/L4T4A3.jpg","38","restless",0.4,0.4,0.5,0.324287602117355,"true"
"image-keyboard-response",474,448698,"0.0-3.154-1.154","crtw631q9zvs1mj","190.csv","","null","resources/maskTrios/BT4B.jpg","null","",NA,NA,NA,NA,""
"image-keyboard-response",475,449909,"0.0-3.154-2.154","crtw631q9zvs1mj","190.csv","","null","resources/images/coin2.png","null","",NA,NA,NA,NA,""
"image-keyboard-response",476,449949,"0.0-3.155-0.155","crtw631q9zvs1mj","190.csv","","38.79999999701977","resources/trios/L4T4A3.jpg","37","restless",0.4,0.4,0.5,0.9723843913059,"false"
"image-keyboard-response",477,450362,"0.0-3.155-1.155","crtw631q9zvs1mj","190.csv","","null","resources/maskTrios/L4BB.jpg","null","",NA,NA,NA,NA,""
"image-keyboard-response",478,451573,"0.0-3.155-2.155","crtw631q9zvs1mj","190.csv","","null","resources/images/fishbone.png","null","",NA,NA,NA,NA,""
"image-keyboard-response",479,451592,"0.0-3.156-0.156","crtw631q9zvs1mj","190.csv","","17.099999994039536","resources/trios/L1T4A3.jpg","37","restless",0.4,0.4,0.5,0.178770131336685,"true"
"image-keyboard-response",480,451998,"0.0-3.156-1.156","crtw631q9zvs1mj","190.csv","","null","resources/maskTrios/L1BB.jpg","null","",NA,NA,NA,NA,""
"image-keyboard-response",481,453213,"0.0-3.156-2.156","crtw631q9zvs1mj","190.csv","","null","resources/images/coin2.png","null","",NA,NA,NA,NA,""
"image-keyboard-response",482,454493,"0.0-3.157-0.157","crtw631q9zvs1mj","190.csv","","1277.7000000029802","resources/trios/L1T4A2.jpg","38","restless",0.4,0.5,0.5,0.0264290917391601,"true"
"image-keyboard-response",483,454905,"0.0-3.157-1.157","crtw631q9zvs1mj","190.csv","","null","resources/maskTrios/BT4B.jpg","null","",NA,NA,NA,NA,""
"image-keyboard-response",484,456110,"0.0-3.157-2.157","crtw631q9zvs1mj","190.csv","","null","resources/images/coin2.png","null","",NA,NA,NA,NA,""
"image-keyboard-response",485,456204,"0.0-3.158-0.158","crtw631q9zvs1mj","190.csv","","91.5","resources/trios/L4T2A3.jpg","39","restless",0.4,0.5,0.5,0.580192453631102,"false"
"image-keyboard-response",486,456611,"0.0-3.158-1.158","crtw631q9zvs1mj","190.csv","","null","resources/maskTrios/BBA3.jpg","null","",NA,NA,NA,NA,""
"image-keyboard-response",487,457818,"0.0-3.158-2.158","crtw631q9zvs1mj","190.csv","","null","resources/images/fishbone.png","null","",NA,NA,NA,NA,""
"image-keyboard-response",488,457990,"0.0-3.159-0.159","crtw631q9zvs1mj","190.csv","","171","resources/trios/L1T2A2.jpg","37","restless",0.4,0.5,0.5,0.209240747833886,"true"
"image-keyboard-response",489,458396,"0.0-3.159-1.159","crtw631q9zvs1mj","190.csv","","null","resources/maskTrios/L1BB.jpg","null","",NA,NA,NA,NA,""
"image-keyboard-response",490,459606,"0.0-3.159-2.159","crtw631q9zvs1mj","190.csv","","null","resources/images/coin2.png","null","",NA,NA,NA,NA,""
"image-keyboard-response",491,459622,"0.0-3.160-0.160","crtw631q9zvs1mj","190.csv","","14.299999997019768","resources/trios/L4T2A2.jpg","38","restless",0.4,0.5,0.5,0.838259729030582,"false"
"image-keyboard-response",492,460031,"0.0-3.160-1.160","crtw631q9zvs1mj","190.csv","","null","resources/maskTrios/BT2B.jpg","null","",NA,NA,NA,NA,""
"image-keyboard-response",493,461246,"0.0-3.160-2.160","crtw631q9zvs1mj","190.csv","","null","resources/images/fishbone.png","null","",NA,NA,NA,NA,""
"image-keyboard-response",494,462352,"0.0-3.161-0.161","crtw631q9zvs1mj","190.csv","","1105","resources/trios/L4T2A2.jpg","38","restless",0.4,0.6,0.5,0.50037025347905,"true"
"image-keyboard-response",495,462766,"0.0-3.161-1.161","crtw631q9zvs1mj","190.csv","","null","resources/maskTrios/BT2B.jpg","null","",NA,NA,NA,NA,""
"image-keyboard-response",496,463972,"0.0-3.161-2.161","crtw631q9zvs1mj","190.csv","","null","resources/images/coin2.png","null","",NA,NA,NA,NA,""
"image-keyboard-response",497,463987,"0.0-3.162-0.162","crtw631q9zvs1mj","190.csv","","13.700000002980232","resources/trios/L1T4A3.jpg","38","restless",0.4,0.6,0.5,0.309177709604003,"true"
"image-keyboard-response",498,464400,"0.0-3.162-1.162","crtw631q9zvs1mj","190.csv","","null","resources/maskTrios/BT4B.jpg","null","",NA,NA,NA,NA,""
"image-keyboard-response",499,465607,"0.0-3.162-2.162","crtw631q9zvs1mj","190.csv","","null","resources/images/coin2.png","null","",NA,NA,NA,NA,""
"image-keyboard-response",500,465838,"0.0-3.163-0.163","crtw631q9zvs1mj","190.csv","","229.5","resources/trios/L1T2A2.jpg","38","restless",0.4,0.6,0.5,0.382276548992317,"true"
"image-keyboard-response",501,466248,"0.0-3.163-1.163","crtw631q9zvs1mj","190.csv","","null","resources/maskTrios/BT2B.jpg","null","",NA,NA,NA,NA,""
"image-keyboard-response",502,467460,"0.0-3.163-2.163","crtw631q9zvs1mj","190.csv","","null","resources/images/coin2.png","null","",NA,NA,NA,NA,""
"image-keyboard-response",503,467525,"0.0-3.164-0.164","crtw631q9zvs1mj","190.csv","","63.20000000298023","resources/trios/L4T4A2.jpg","39","restless",0.4,0.6,0.5,0.975372252800017,"false"
"image-keyboard-response",504,467927,"0.0-3.164-1.164","crtw631q9zvs1mj","190.csv","","null","resources/maskTrios/BBA2.jpg","null","",NA,NA,NA,NA,""
"image-keyboard-response",505,469139,"0.0-3.164-2.164","crtw631q9zvs1mj","190.csv","","null","resources/images/fishbone.png","null","",NA,NA,NA,NA,""
"image-keyboard-response",506,469180,"0.0-3.165-0.165","crtw631q9zvs1mj","190.csv","","39.599999994039536","resources/trios/L4T4A2.jpg","39","restless",0.4,0.6,0.5,0.837723355170077,"false"
"image-keyboard-response",507,469590,"0.0-3.165-1.165","crtw631q9zvs1mj","190.csv","","null","resources/maskTrios/BBA2.jpg","null","",NA,NA,NA,NA,""
"image-keyboard-response",508,470794,"0.0-3.165-2.165","crtw631q9zvs1mj","190.csv","","null","resources/images/fishbone.png","null","",NA,NA,NA,NA,""
"image-keyboard-response",509,470835,"0.0-3.166-0.166","crtw631q9zvs1mj","190.csv","","38.400000005960464","resources/trios/L1T2A2.jpg","37","restless",0.4,0.6,0.5,0.357721651871855,"true"
"image-keyboard-response",510,471251,"0.0-3.166-1.166","crtw631q9zvs1mj","190.csv","","null","resources/maskTrios/L1BB.jpg","null","",NA,NA,NA,NA,""
"image-keyboard-response",511,472459,"0.0-3.166-2.166","crtw631q9zvs1mj","190.csv","","null","resources/images/coin2.png","null","",NA,NA,NA,NA,""
"image-keyboard-response",512,472557,"0.0-3.167-0.167","crtw631q9zvs1mj","190.csv","","96.70000000298023","resources/trios/L4T2A2.jpg","39","restless",0.4,0.6,0.4,0.52780263217303,"false"
"image-keyboard-response",513,472960,"0.0-3.167-1.167","crtw631q9zvs1mj","190.csv","","null","resources/maskTrios/BBA2.jpg","null","",NA,NA,NA,NA,""
"image-keyboard-response",514,474166,"0.0-3.167-2.167","crtw631q9zvs1mj","190.csv","","null","resources/images/fishbone.png","null","",NA,NA,NA,NA,""
"image-keyboard-response",515,474275,"0.0-3.168-0.168","crtw631q9zvs1mj","190.csv","","107.5","resources/trios/L4T2A2.jpg","37","restless",0.4,0.7,0.4,0.309311922513979,"true"
"image-keyboard-response",516,474680,"0.0-3.168-1.168","crtw631q9zvs1mj","190.csv","","null","resources/maskTrios/L4BB.jpg","null","",NA,NA,NA,NA,""
"image-keyboard-response",517,475888,"0.0-3.168-2.168","crtw631q9zvs1mj","190.csv","","null","resources/images/coin2.png","null","",NA,NA,NA,NA,""
"image-keyboard-response",518,475947,"0.0-3.169-0.169","crtw631q9zvs1mj","190.csv","","57","resources/trios/L4T2A3.jpg","39","restless",0.4,0.7,0.4,0.76360107539746,"false"
"image-keyboard-response",519,476351,"0.0-3.169-1.169","crtw631q9zvs1mj","190.csv","","null","resources/maskTrios/BBA3.jpg","null","",NA,NA,NA,NA,""
"image-keyboard-response",520,477553,"0.0-3.169-2.169","crtw631q9zvs1mj","190.csv","","null","resources/images/fishbone.png","null","",NA,NA,NA,NA,""
"image-keyboard-response",521,477712,"0.0-3.170-0.170","crtw631q9zvs1mj","190.csv","","157.20000000298023","resources/trios/L4T2A2.jpg","39","restless",0.4,0.7,0.4,0.637105445754788,"false"
"image-keyboard-response",522,478118,"0.0-3.170-1.170","crtw631q9zvs1mj","190.csv","","null","resources/maskTrios/BBA2.jpg","null","",NA,NA,NA,NA,""
"image-keyboard-response",523,479327,"0.0-3.170-2.170","crtw631q9zvs1mj","190.csv","","null","resources/images/fishbone.png","null","",NA,NA,NA,NA,""
"image-keyboard-response",524,479578,"0.0-3.171-0.171","crtw631q9zvs1mj","190.csv","","249.40000000596046","resources/trios/L4T2A2.jpg","39","restless",0.4,0.7,0.4,0.196123507592243,"true"
"image-keyboard-response",525,479988,"0.0-3.171-1.171","crtw631q9zvs1mj","190.csv","","null","resources/maskTrios/BBA2.jpg","null","",NA,NA,NA,NA,""
"image-keyboard-response",526,481195,"0.0-3.171-2.171","crtw631q9zvs1mj","190.csv","","null","resources/images/coin2.png","null","",NA,NA,NA,NA,""
"image-keyboard-response",527,481317,"0.0-3.172-0.172","crtw631q9zvs1mj","190.csv","","120.6000000089407","resources/trios/L1T2A3.jpg","39","restless",0.4,0.7,0.4,0.157834542940259,"true"
"image-keyboard-response",528,481729,"0.0-3.172-1.172","crtw631q9zvs1mj","190.csv","","null","resources/maskTrios/BBA3.jpg","null","",NA,NA,NA,NA,""
"image-keyboard-response",529,482938,"0.0-3.172-2.172","crtw631q9zvs1mj","190.csv","","null","resources/images/coin2.png","null","",NA,NA,NA,NA,""
"image-keyboard-response",530,483820,"0.0-3.173-0.173","crtw631q9zvs1mj","190.csv","","880.7000000029802","resources/trios/L1T4A3.jpg","39","restless",0.4,0.7,0.4,0.180807503148283,"true"
"image-keyboard-response",531,484229,"0.0-3.173-1.173","crtw631q9zvs1mj","190.csv","","null","resources/maskTrios/BBA3.jpg","null","",NA,NA,NA,NA,""
"image-keyboard-response",532,485437,"0.0-3.173-2.173","crtw631q9zvs1mj","190.csv","","null","resources/images/coin2.png","null","",NA,NA,NA,NA,""
"image-keyboard-response",533,485545,"0.0-3.174-0.174","crtw631q9zvs1mj","190.csv","","105.90000000596046","resources/trios/L4T4A3.jpg","39","restless",0.5,0.8,0.3,0.0517411182102741,"true"
"image-keyboard-response",534,485950,"0.0-3.174-1.174","crtw631q9zvs1mj","190.csv","","null","resources/maskTrios/BBA3.jpg","null","",NA,NA,NA,NA,""
"image-keyboard-response",535,487159,"0.0-3.174-2.174","crtw631q9zvs1mj","190.csv","","null","resources/images/coin2.png","null","",NA,NA,NA,NA,""
"image-keyboard-response",536,487215,"0.0-3.175-0.175","crtw631q9zvs1mj","190.csv","","54.29999999701977","resources/trios/L1T2A3.jpg","39","restless",0.5,0.9,0.3,0.0762423424908452,"true"
"image-keyboard-response",537,487627,"0.0-3.175-1.175","crtw631q9zvs1mj","190.csv","","null","resources/maskTrios/BBA3.jpg","null","",NA,NA,NA,NA,""
"image-keyboard-response",538,488835,"0.0-3.175-2.175","crtw631q9zvs1mj","190.csv","","null","resources/images/coin2.png","null","",NA,NA,NA,NA,""
"image-keyboard-response",539,489015,"0.0-3.176-0.176","crtw631q9zvs1mj","190.csv","","177.8999999910593","resources/trios/L1T4A2.jpg","39","restless",0.5,0.9,0.3,0.114899800349801,"true"
"image-keyboard-response",540,489417,"0.0-3.176-1.176","crtw631q9zvs1mj","190.csv","","null","resources/maskTrios/BBA2.jpg","null","",NA,NA,NA,NA,""
"image-keyboard-response",541,490629,"0.0-3.176-2.176","crtw631q9zvs1mj","190.csv","","null","resources/images/coin2.png","null","",NA,NA,NA,NA,""
"image-keyboard-response",542,490791,"0.0-3.177-0.177","crtw631q9zvs1mj","190.csv","","161","resources/trios/L4T4A3.jpg","39","restless",0.5,0.9,0.3,0.272196472666561,"true"
"image-keyboard-response",543,491193,"0.0-3.177-1.177","crtw631q9zvs1mj","190.csv","","null","resources/maskTrios/BBA3.jpg","null","",NA,NA,NA,NA,""
"image-keyboard-response",544,492400,"0.0-3.177-2.177","crtw631q9zvs1mj","190.csv","","null","resources/images/coin2.png","null","",NA,NA,NA,NA,""
"image-keyboard-response",545,492600,"0.0-3.178-0.178","crtw631q9zvs1mj","190.csv","","198.3999999910593","resources/trios/L4T4A2.jpg","39","restless",0.5,0.9,0.3,0.281583180157848,"true"
"image-keyboard-response",546,493011,"0.0-3.178-1.178","crtw631q9zvs1mj","190.csv","","null","resources/maskTrios/BBA2.jpg","null","",NA,NA,NA,NA,""
"image-keyboard-response",547,494222,"0.0-3.178-2.178","crtw631q9zvs1mj","190.csv","","null","resources/images/coin2.png","null","",NA,NA,NA,NA,""
"image-keyboard-response",548,494355,"0.0-3.179-0.179","crtw631q9zvs1mj","190.csv","","130.8999999910593","resources/trios/L4T2A3.jpg","39","restless",0.5,0.9,0.3,0.00697288777249039,"true"
"image-keyboard-response",549,494771,"0.0-3.179-1.179","crtw631q9zvs1mj","190.csv","","null","resources/maskTrios/BBA3.jpg","null","",NA,NA,NA,NA,""
"image-keyboard-response",550,495979,"0.0-3.179-2.179","crtw631q9zvs1mj","190.csv","","null","resources/images/coin2.png","null","",NA,NA,NA,NA,""
"image-keyboard-response",551,496246,"0.0-3.180-0.180","crtw631q9zvs1mj","190.csv","","265.20000000298023","resources/trios/L4T2A3.jpg","39","restless",0.5,0.9,0.3,0.1840206848349,"true"
"image-keyboard-response",552,496655,"0.0-3.180-1.180","crtw631q9zvs1mj","190.csv","","null","resources/maskTrios/BBA3.jpg","null","",NA,NA,NA,NA,""
"image-keyboard-response",553,497864,"0.0-3.180-2.180","crtw631q9zvs1mj","190.csv","","null","resources/images/coin2.png","null","",NA,NA,NA,NA,""
"image-keyboard-response",554,498212,"0.0-3.181-0.181","crtw631q9zvs1mj","190.csv","","347.09999999403954","resources/trios/L1T4A3.jpg","39","restless",0.5,0.9,0.3,0.990261380268129,"false"
"image-keyboard-response",555,498615,"0.0-3.181-1.181","crtw631q9zvs1mj","190.csv","","null","resources/maskTrios/BBA3.jpg","null","",NA,NA,NA,NA,""
"image-keyboard-response",556,499821,"0.0-3.181-2.181","crtw631q9zvs1mj","190.csv","","null","resources/images/fishbone.png","null","",NA,NA,NA,NA,""
"image-keyboard-response",557,499952,"0.0-3.182-0.182","crtw631q9zvs1mj","190.csv","","129.40000000596046","resources/trios/L1T2A2.jpg","39","restless",0.5,0.9,0.3,0.0295898628064404,"true"
"image-keyboard-response",558,500358,"0.0-3.182-1.182","crtw631q9zvs1mj","190.csv","","null","resources/maskTrios/BBA2.jpg","null","",NA,NA,NA,NA,""
"image-keyboard-response",559,501570,"0.0-3.182-2.182","crtw631q9zvs1mj","190.csv","","null","resources/images/coin2.png","null","",NA,NA,NA,NA,""
"image-keyboard-response",560,501652,"0.0-3.183-0.183","crtw631q9zvs1mj","190.csv","","79","resources/trios/L1T4A3.jpg","39","restless",0.4,0.9,0.3,0.528282982783501,"false"
"image-keyboard-response",561,502053,"0.0-3.183-1.183","crtw631q9zvs1mj","190.csv","","null","resources/maskTrios/BBA3.jpg","null","",NA,NA,NA,NA,""
"image-keyboard-response",562,503265,"0.0-3.183-2.183","crtw631q9zvs1mj","190.csv","","null","resources/images/fishbone.png","null","",NA,NA,NA,NA,""
"image-keyboard-response",563,503377,"0.0-3.184-0.184","crtw631q9zvs1mj","190.csv","","110.59999999403954","resources/trios/L1T4A3.jpg","39","restless",0.4,0.8,0.3,0.241625655403002,"true"
"image-keyboard-response",564,503784,"0.0-3.184-1.184","crtw631q9zvs1mj","190.csv","","null","resources/maskTrios/BBA3.jpg","null","",NA,NA,NA,NA,""
"image-keyboard-response",565,504991,"0.0-3.184-2.184","crtw631q9zvs1mj","190.csv","","null","resources/images/coin2.png","null","",NA,NA,NA,NA,""
"image-keyboard-response",566,505142,"0.0-3.185-0.185","crtw631q9zvs1mj","190.csv","","149.80000001192093","resources/trios/L4T4A3.jpg","39","restless",0.4,0.8,0.4,0.77493133083001,"false"
"image-keyboard-response",567,505556,"0.0-3.185-1.185","crtw631q9zvs1mj","190.csv","","null","resources/maskTrios/BBA3.jpg","null","",NA,NA,NA,NA,""
"image-keyboard-response",568,506764,"0.0-3.185-2.185","crtw631q9zvs1mj","190.csv","","null","resources/images/fishbone.png","null","",NA,NA,NA,NA,""
"image-keyboard-response",569,506932,"0.0-3.186-0.186","crtw631q9zvs1mj","190.csv","","166.79999999701977","resources/trios/L4T2A2.jpg","39","restless",0.4,0.7,0.4,0.23997620031345,"true"
"image-keyboard-response",570,507342,"0.0-3.186-1.186","crtw631q9zvs1mj","190.csv","","null","resources/maskTrios/BBA2.jpg","null","",NA,NA,NA,NA,""
"image-keyboard-response",571,508553,"0.0-3.186-2.186","crtw631q9zvs1mj","190.csv","","null","resources/images/coin2.png","null","",NA,NA,NA,NA,""
"image-keyboard-response",572,508612,"0.0-3.187-0.187","crtw631q9zvs1mj","190.csv","","57.900000005960464","resources/trios/L1T4A2.jpg","39","restless",0.4,0.7,0.4,0.159641078495093,"true"
"image-keyboard-response",573,509023,"0.0-3.187-1.187","crtw631q9zvs1mj","190.csv","","null","resources/maskTrios/BBA2.jpg","null","",NA,NA,NA,NA,""
"image-keyboard-response",574,510227,"0.0-3.187-2.187","crtw631q9zvs1mj","190.csv","","null","resources/images/coin2.png","null","",NA,NA,NA,NA,""
"image-keyboard-response",575,510231,"0.0-3.188-0.188","crtw631q9zvs1mj","190.csv","","2.199999988079071","resources/trios/L4T2A3.jpg","39","restless",0.5,0.7,0.4,0.350074994849677,"true"
"image-keyboard-response",576,510636,"0.0-3.188-1.188","crtw631q9zvs1mj","190.csv","","null","resources/maskTrios/BBA3.jpg","null","",NA,NA,NA,NA,""
"image-keyboard-response",577,511845,"0.0-3.188-2.188","crtw631q9zvs1mj","190.csv","","null","resources/images/coin2.png","null","",NA,NA,NA,NA,""
"image-keyboard-response",578,512438,"0.0-3.189-0.189","crtw631q9zvs1mj","190.csv","","590.3999999910593","resources/trios/L4T4A3.jpg","39","restless",0.5,0.8,0.4,0.0587178010987626,"true"
"image-keyboard-response",579,512851,"0.0-3.189-1.189","crtw631q9zvs1mj","190.csv","","null","resources/maskTrios/BBA3.jpg","null","",NA,NA,NA,NA,""
"image-keyboard-response",580,514058,"0.0-3.189-2.189","crtw631q9zvs1mj","190.csv","","null","resources/images/coin2.png","null","",NA,NA,NA,NA,""
"image-keyboard-response",581,514077,"0.0-3.190-0.190","crtw631q9zvs1mj","190.csv","","17.100000008940697","resources/trios/L4T4A3.jpg","39","restless",0.4,0.8,0.4,0.0459759068930572,"true"
"image-keyboard-response",582,514482,"0.0-3.190-1.190","crtw631q9zvs1mj","190.csv","","null","resources/maskTrios/BBA3.jpg","null","",NA,NA,NA,NA,""
"image-keyboard-response",583,515686,"0.0-3.190-2.190","crtw631q9zvs1mj","190.csv","","null","resources/images/coin2.png","null","",NA,NA,NA,NA,""
"image-keyboard-response",584,515808,"0.0-3.191-0.191","crtw631q9zvs1mj","190.csv","","120.90000000596046","resources/trios/L1T2A2.jpg","39","restless",0.4,0.8,0.4,0.0929720665603895,"true"
"image-keyboard-response",585,516218,"0.0-3.191-1.191","crtw631q9zvs1mj","190.csv","","null","resources/maskTrios/BBA2.jpg","null","",NA,NA,NA,NA,""
"image-keyboard-response",586,517425,"0.0-3.191-2.191","crtw631q9zvs1mj","190.csv","","null","resources/images/coin2.png","null","",NA,NA,NA,NA,""
"image-keyboard-response",587,517487,"0.0-3.192-0.192","crtw631q9zvs1mj","190.csv","","60.099999994039536","resources/trios/L4T4A2.jpg","39","restless",0.4,0.8,0.4,0.0355991001103475,"true"
"image-keyboard-response",588,517896,"0.0-3.192-1.192","crtw631q9zvs1mj","190.csv","","null","resources/maskTrios/BBA2.jpg","null","",NA,NA,NA,NA,""
"image-keyboard-response",589,519112,"0.0-3.192-2.192","crtw631q9zvs1mj","190.csv","","null","resources/images/coin2.png","null","",NA,NA,NA,NA,""
"image-keyboard-response",590,520361,"0.0-3.193-0.193","crtw631q9zvs1mj","190.csv","","1246.199999988079","resources/trios/L4T4A2.jpg","39","restless",0.4,0.8,0.4,0.0949653280199851,"true"
"image-keyboard-response",591,520764,"0.0-3.193-1.193","crtw631q9zvs1mj","190.csv","","null","resources/maskTrios/BBA2.jpg","null","",NA,NA,NA,NA,""
"image-keyboard-response",592,521976,"0.0-3.193-2.193","crtw631q9zvs1mj","190.csv","","null","resources/images/coin2.png","null","",NA,NA,NA,NA,""
"image-keyboard-response",593,522036,"0.0-3.194-0.194","crtw631q9zvs1mj","190.csv","","58.400000005960464","resources/trios/L4T2A2.jpg","39","restless",0.4,0.8,0.5,0.866907295480942,"false"
"image-keyboard-response",594,522446,"0.0-3.194-1.194","crtw631q9zvs1mj","190.csv","","null","resources/maskTrios/BBA2.jpg","null","",NA,NA,NA,NA,""
"image-keyboard-response",595,523657,"0.0-3.194-2.194","crtw631q9zvs1mj","190.csv","","null","resources/images/fishbone.png","null","",NA,NA,NA,NA,""
"image-keyboard-response",596,523660,"0.0-3.195-0.195","crtw631q9zvs1mj","190.csv","","1.5","resources/trios/L1T2A3.jpg","39","restless",0.4,0.8,0.5,0.334741416100451,"true"
"image-keyboard-response",597,524064,"0.0-3.195-1.195","crtw631q9zvs1mj","190.csv","","null","resources/maskTrios/BBA3.jpg","null","",NA,NA,NA,NA,""
"image-keyboard-response",598,525274,"0.0-3.195-2.195","crtw631q9zvs1mj","190.csv","","null","resources/images/coin2.png","null","",NA,NA,NA,NA,""
"image-keyboard-response",599,525321,"0.0-3.196-0.196","crtw631q9zvs1mj","190.csv","","46.099999994039536","resources/trios/L4T4A2.jpg","39","restless",0.4,0.8,0.5,0.9896822378364,"false"
"image-keyboard-response",600,525732,"0.0-3.196-1.196","crtw631q9zvs1mj","190.csv","","null","resources/maskTrios/BBA2.jpg","null","",NA,NA,NA,NA,""
"image-keyboard-response",601,526940,"0.0-3.196-2.196","crtw631q9zvs1mj","190.csv","","null","resources/images/fishbone.png","null","",NA,NA,NA,NA,""
"image-keyboard-response",602,527020,"0.0-3.197-0.197","crtw631q9zvs1mj","190.csv","","78.20000000298023","resources/trios/L4T2A2.jpg","39","restless",0.4,0.8,0.5,0.656317700238906,"false"
"image-keyboard-response",603,527428,"0.0-3.197-1.197","crtw631q9zvs1mj","190.csv","","null","resources/maskTrios/BBA2.jpg","null","",NA,NA,NA,NA,""
"image-keyboard-response",604,528639,"0.0-3.197-2.197","crtw631q9zvs1mj","190.csv","","null","resources/images/fishbone.png","null","",NA,NA,NA,NA,""
"image-keyboard-response",605,532110,"0.0-3.198-0.198","crtw631q9zvs1mj","190.csv","","3469.2000000029802","resources/trios/L1T4A2.jpg","39","restless",0.4,0.8,0.5,0.953405045576971,"false"
"image-keyboard-response",606,532523,"0.0-3.198-1.198","crtw631q9zvs1mj","190.csv","","null","resources/maskTrios/BBA2.jpg","null","",NA,NA,NA,NA,""
"image-keyboard-response",607,533731,"0.0-3.198-2.198","crtw631q9zvs1mj","190.csv","","null","resources/images/fishbone.png","null","",NA,NA,NA,NA,""
"image-keyboard-response",608,533870,"0.0-3.199-0.199","crtw631q9zvs1mj","190.csv","","137.30000001192093","resources/trios/L4T4A3.jpg","39","restless",0.4,0.7,0.5,0.809706077627951,"false"
"image-keyboard-response",609,534278,"0.0-3.199-1.199","crtw631q9zvs1mj","190.csv","","null","resources/maskTrios/BBA3.jpg","null","",NA,NA,NA,NA,""
"image-keyboard-response",610,535485,"0.0-3.199-2.199","crtw631q9zvs1mj","190.csv","","null","resources/images/fishbone.png","null","",NA,NA,NA,NA,""
"image-keyboard-response",611,535515,"0.0-3.200-0.200","crtw631q9zvs1mj","190.csv","","28.099999994039536","resources/trios/L1T4A2.jpg","39","restless",0.4,0.7,0.5,0.396050556367448,"true"
"image-keyboard-response",612,535928,"0.0-3.200-1.200","crtw631q9zvs1mj","190.csv","","null","resources/maskTrios/BBA2.jpg","null","",NA,NA,NA,NA,""
"image-keyboard-response",613,537138,"0.0-3.200-2.200","crtw631q9zvs1mj","190.csv","","null","resources/images/coin2.png","null","",NA,NA,NA,NA,""
"image-keyboard-response",614,537251,"0.0-3.201-0.201","crtw631q9zvs1mj","190.csv","","110.8999999910593","resources/trios/L4T4A3.jpg","39","restless",0.4,0.7,0.5,0.733035566733916,"false"
"image-keyboard-response",615,537655,"0.0-3.201-1.201","crtw631q9zvs1mj","190.csv","","null","resources/maskTrios/BBA3.jpg","null","",NA,NA,NA,NA,""
"image-keyboard-response",616,538863,"0.0-3.201-2.201","crtw631q9zvs1mj","190.csv","","null","resources/images/fishbone.png","null","",NA,NA,NA,NA,""
"image-keyboard-response",617,539021,"0.0-3.202-0.202","crtw631q9zvs1mj","190.csv","","155.59999999403954","resources/trios/L4T4A3.jpg","39","restless",0.3,0.7,0.5,0.390374077076737,"true"
"image-keyboard-response",618,539427,"0.0-3.202-1.202","crtw631q9zvs1mj","190.csv","","null","resources/maskTrios/BBA3.jpg","null","",NA,NA,NA,NA,""
"image-keyboard-response",619,540638,"0.0-3.202-2.202","crtw631q9zvs1mj","190.csv","","null","resources/images/coin2.png","null","",NA,NA,NA,NA,""
"image-keyboard-response",620,540710,"0.0-3.203-0.203","crtw631q9zvs1mj","190.csv","","70.40000000596046","resources/trios/L4T2A2.jpg","38","restless",0.3,0.7,0.5,0.922798662886714,"false"
"image-keyboard-response",621,541125,"0.0-3.203-1.203","crtw631q9zvs1mj","190.csv","","null","resources/maskTrios/BT2B.jpg","null","",NA,NA,NA,NA,""
