"trial_type","trial_index","time_elapsed","internal_node_id","subject","participantCode","walkNumber","success","rt","stimulus","key_press","test_part","leftProb","midProb","rightProb","generatedNum","correct"
"pavlovia",0,1123,"0.0-0.0","8l7k49y4vxdpgl7",444,"76.csv","","","","","",NA,NA,NA,NA,""
"fullscreen",1,4325,"0.0-1.0","8l7k49y4vxdpgl7",444,"76.csv","true","","","","",NA,NA,NA,NA,""
"html-keyboard-response",2,9828,"0.0-2.0-0.0","8l7k49y4vxdpgl7",444,"76.csv","","5501.700000047684","<p><font size='6'>Arrrgh!</p></font><p>Can you be the best pirate? Try to find lots of gold! But beware, some islands have more gold than others, and over time, the island with the most gold may change. Can YOU figure it out? </p><font size='6'>GOOD LUCK, CAPTAIN!!!</font><p>Press any key to begin</p>","13","",NA,NA,NA,NA,""
"image-keyboard-response",3,12842,"0.0-2.0-1.0","8l7k49y4vxdpgl7",444,"76.csv","","null","resources/image_sets/111.png","null","",NA,NA,NA,NA,""
"image-keyboard-response",4,18416,"0.0-2.0-2.0","8l7k49y4vxdpgl7",444,"76.csv","","5572.5","resources/image_sets/left_highlight.png","37","",NA,NA,NA,NA,""
"image-keyboard-response",5,19519,"0.0-2.0-3.0","8l7k49y4vxdpgl7",444,"76.csv","","1102.4000000953674","resources/image_sets/mid_highlight.png","38","",NA,NA,NA,NA,""
"image-keyboard-response",6,20072,"0.0-2.0-4.0","8l7k49y4vxdpgl7",444,"76.csv","","551.3999998569489","resources/image_sets/right_highlight.png","39","",NA,NA,NA,NA,""
"image-keyboard-response",7,21515,"0.0-2.0-5.0","8l7k49y4vxdpgl7",444,"76.csv","","1441.2000000476837","resources/image_sets/111.png","13","",NA,NA,NA,NA,""
"image-keyboard-response",8,151891,"0.0-2.0-6.0","8l7k49y4vxdpgl7",444,"76.csv","","130375.39999985695","resources/images/coin2.png","13","",NA,NA,NA,NA,""
"image-keyboard-response",9,153126,"0.0-2.0-7.0","8l7k49y4vxdpgl7",444,"76.csv","","1234.4000000953674","resources/images/fishbone.png","13","",NA,NA,NA,NA,""
"html-keyboard-response",10,153781,"0.0-2.0-8.0","8l7k49y4vxdpgl7",444,"76.csv","","654.7000000476837","<p>Your first journey will be a long one, but you will get a well deserved break at the end</p><p>After the break you will have four more journeys, but each will be much shorter than the first, and you will have breaks in between each</p><p>Press Enter to begin</p>","13","",NA,NA,NA,NA,""
"image-keyboard-response",11,158641,"0.0-3.0-0.0","8l7k49y4vxdpgl7",444,"76.csv","","4858.5","resources/trios/L4T2A3.jpg","39","restless",0.7,0.9,0.3,0.00939577369644451,"true"
"image-keyboard-response",12,159060,"0.0-3.0-1.0","8l7k49y4vxdpgl7",444,"76.csv","","null","resources/maskTrios/BBA3.jpg","null","",NA,NA,NA,NA,""
"image-keyboard-response",13,160281,"0.0-3.0-2.0","8l7k49y4vxdpgl7",444,"76.csv","","null","resources/images/coin2.png","null","",NA,NA,NA,NA,""
"image-keyboard-response",14,160741,"0.0-3.1-0.1","8l7k49y4vxdpgl7",444,"76.csv","","457.7999999523163","resources/trios/L4T1A2.jpg","39","restless",0.7,0.9,0.3,0.570606344987179,"false"
"image-keyboard-response",15,161163,"0.0-3.1-1.1","8l7k49y4vxdpgl7",444,"76.csv","","null","resources/maskTrios/BBA2.jpg","null","",NA,NA,NA,NA,""
"image-keyboard-response",16,162373,"0.0-3.1-2.1","8l7k49y4vxdpgl7",444,"76.csv","","null","resources/images/fishbone.png","null","",NA,NA,NA,NA,""
"image-keyboard-response",17,162773,"0.0-3.2-0.2","8l7k49y4vxdpgl7",444,"76.csv","","398.7000000476837","resources/trios/L2T2A3.jpg","39","restless",0.7,0.9,0.3,0.994045364472562,"false"
"image-keyboard-response",18,163185,"0.0-3.2-1.2","8l7k49y4vxdpgl7",444,"76.csv","","null","resources/maskTrios/BBA3.jpg","null","",NA,NA,NA,NA,""
"image-keyboard-response",19,164393,"0.0-3.2-2.2","8l7k49y4vxdpgl7",444,"76.csv","","null","resources/images/fishbone.png","null","",NA,NA,NA,NA,""
"image-keyboard-response",20,164786,"0.0-3.3-0.3","8l7k49y4vxdpgl7",444,"76.csv","","391.7000000476837","resources/trios/L2T2A3.jpg","37","restless",0.7,0.9,0.3,0.879621574525575,"false"
"image-keyboard-response",21,165202,"0.0-3.3-1.3","8l7k49y4vxdpgl7",444,"76.csv","","null","resources/maskTrios/L2BB.jpg","null","",NA,NA,NA,NA,""
"image-keyboard-response",22,166412,"0.0-3.3-2.3","8l7k49y4vxdpgl7",444,"76.csv","","null","resources/images/fishbone.png","null","",NA,NA,NA,NA,""
"image-keyboard-response",23,166975,"0.0-3.4-0.4","8l7k49y4vxdpgl7",444,"76.csv","","561.2000000476837","resources/trios/L2T1A2.jpg","39","restless",0.7,0.9,0.3,0.850885845301994,"false"
"image-keyboard-response",24,167388,"0.0-3.4-1.4","8l7k49y4vxdpgl7",444,"76.csv","","null","resources/maskTrios/BBA2.jpg","null","",NA,NA,NA,NA,""
"image-keyboard-response",25,168615,"0.0-3.4-2.4","8l7k49y4vxdpgl7",444,"76.csv","","null","resources/images/fishbone.png","null","",NA,NA,NA,NA,""
"image-keyboard-response",26,168719,"0.0-3.5-0.5","8l7k49y4vxdpgl7",444,"76.csv","","103.19999980926514","resources/trios/L2T2A3.jpg","39","restless",0.7,0.8,0.3,0.653248539524418,"false"
"image-keyboard-response",27,169141,"0.0-3.5-1.5","8l7k49y4vxdpgl7",444,"76.csv","","null","resources/maskTrios/BBA3.jpg","null","",NA,NA,NA,NA,""
"image-keyboard-response",28,170353,"0.0-3.5-2.5","8l7k49y4vxdpgl7",444,"76.csv","","null","resources/images/fishbone.png","null","",NA,NA,NA,NA,""
"image-keyboard-response",29,171389,"0.0-3.6-0.6","8l7k49y4vxdpgl7",444,"76.csv","","1034.4000000953674","resources/trios/L2T1A2.jpg","39","restless",0.7,0.8,0.3,0.0787386103292385,"true"
"image-keyboard-response",30,171798,"0.0-3.6-1.6","8l7k49y4vxdpgl7",444,"76.csv","","null","resources/maskTrios/BBA2.jpg","null","",NA,NA,NA,NA,""
"image-keyboard-response",31,173005,"0.0-3.6-2.6","8l7k49y4vxdpgl7",444,"76.csv","","null","resources/images/coin2.png","null","",NA,NA,NA,NA,""
"image-keyboard-response",32,173720,"0.0-3.7-0.7","8l7k49y4vxdpgl7",444,"76.csv","","713.5","resources/trios/L2T2A2.jpg","39","restless",0.7,0.8,0.3,0.206570574450397,"true"
"image-keyboard-response",33,174138,"0.0-3.7-1.7","8l7k49y4vxdpgl7",444,"76.csv","","null","resources/maskTrios/BBA2.jpg","null","",NA,NA,NA,NA,""
"image-keyboard-response",34,175357,"0.0-3.7-2.7","8l7k49y4vxdpgl7",444,"76.csv","","null","resources/images/coin2.png","null","",NA,NA,NA,NA,""
"image-keyboard-response",35,175777,"0.0-3.8-0.8","8l7k49y4vxdpgl7",444,"76.csv","","418.59999990463257","resources/trios/L4T1A2.jpg","39","restless",0.7,0.7,0.3,0.12329678193396,"true"
"image-keyboard-response",36,176193,"0.0-3.8-1.8","8l7k49y4vxdpgl7",444,"76.csv","","null","resources/maskTrios/BBA2.jpg","null","",NA,NA,NA,NA,""
"image-keyboard-response",37,177414,"0.0-3.8-2.8","8l7k49y4vxdpgl7",444,"76.csv","","null","resources/images/coin2.png","null","",NA,NA,NA,NA,""
"image-keyboard-response",38,177976,"0.0-3.9-0.9","8l7k49y4vxdpgl7",444,"76.csv","","560.7999999523163","resources/trios/L2T1A2.jpg","37","restless",0.7,0.7,0.3,0.263481465008962,"true"
"image-keyboard-response",39,178380,"0.0-3.9-1.9","8l7k49y4vxdpgl7",444,"76.csv","","null","resources/maskTrios/L2BB.jpg","null","",NA,NA,NA,NA,""
"image-keyboard-response",40,179591,"0.0-3.9-2.9","8l7k49y4vxdpgl7",444,"76.csv","","null","resources/images/coin2.png","null","",NA,NA,NA,NA,""
"image-keyboard-response",41,180016,"0.0-3.10-0.10","8l7k49y4vxdpgl7",444,"76.csv","","423.5","resources/trios/L4T2A3.jpg","37","restless",0.7,0.7,0.3,0.337292443124697,"true"
"image-keyboard-response",42,180427,"0.0-3.10-1.10","8l7k49y4vxdpgl7",444,"76.csv","","null","resources/maskTrios/L4BB.jpg","null","",NA,NA,NA,NA,""
"image-keyboard-response",43,181647,"0.0-3.10-2.10","8l7k49y4vxdpgl7",444,"76.csv","","null","resources/images/coin2.png","null","",NA,NA,NA,NA,""
"image-keyboard-response",44,181969,"0.0-3.11-0.11","8l7k49y4vxdpgl7",444,"76.csv","","320.2000000476837","resources/trios/L4T1A2.jpg","37","restless",0.7,0.6,0.3,0.407567179922622,"true"
"image-keyboard-response",45,182399,"0.0-3.11-1.11","8l7k49y4vxdpgl7",444,"76.csv","","null","resources/maskTrios/L4BB.jpg","null","",NA,NA,NA,NA,""
"image-keyboard-response",46,183622,"0.0-3.11-2.11","8l7k49y4vxdpgl7",444,"76.csv","","null","resources/images/coin2.png","null","",NA,NA,NA,NA,""
"image-keyboard-response",47,183919,"0.0-3.12-0.12","8l7k49y4vxdpgl7",444,"76.csv","","296.5","resources/trios/L2T1A2.jpg","37","restless",0.7,0.6,0.3,0.949312140575383,"false"
"image-keyboard-response",48,184330,"0.0-3.12-1.12","8l7k49y4vxdpgl7",444,"76.csv","","null","resources/maskTrios/L2BB.jpg","null","",NA,NA,NA,NA,""
"image-keyboard-response",49,185552,"0.0-3.12-2.12","8l7k49y4vxdpgl7",444,"76.csv","","null","resources/images/fishbone.png","null","",NA,NA,NA,NA,""
"image-keyboard-response",50,185951,"0.0-3.13-0.13","8l7k49y4vxdpgl7",444,"76.csv","","397.40000009536743","resources/trios/L4T1A2.jpg","38","restless",0.8,0.7,0.3,0.357637496278683,"true"
"image-keyboard-response",51,186370,"0.0-3.13-1.13","8l7k49y4vxdpgl7",444,"76.csv","","null","resources/maskTrios/BT1B.jpg","null","",NA,NA,NA,NA,""
"image-keyboard-response",52,187755,"0.0-3.13-2.13","8l7k49y4vxdpgl7",444,"76.csv","","null","resources/images/coin2.png","null","",NA,NA,NA,NA,""
"image-keyboard-response",53,380657,"0.0-3.14-0.14","8l7k49y4vxdpgl7",444,"76.csv","","192904.90000009537","resources/trios/L2T2A2.jpg","39","restless",0.8,0.7,0.3,0.298046786004096,"true"
"image-keyboard-response",54,381076,"0.0-3.14-1.14","8l7k49y4vxdpgl7",444,"76.csv","","null","resources/maskTrios/BBA2.jpg","null","",NA,NA,NA,NA,""
"image-keyboard-response",55,382287,"0.0-3.14-2.14","8l7k49y4vxdpgl7",444,"76.csv","","null","resources/images/coin2.png","null","",NA,NA,NA,NA,""
"image-keyboard-response",56,382653,"0.0-3.15-0.15","8l7k49y4vxdpgl7",444,"76.csv","","364.5","resources/trios/L2T2A2.jpg","39","restless",0.8,0.7,0.3,0.978225353153961,"false"
"image-keyboard-response",57,383067,"0.0-3.15-1.15","8l7k49y4vxdpgl7",444,"76.csv","","null","resources/maskTrios/BBA2.jpg","null","",NA,NA,NA,NA,""
"image-keyboard-response",58,384288,"0.0-3.15-2.15","8l7k49y4vxdpgl7",444,"76.csv","","null","resources/images/fishbone.png","null","",NA,NA,NA,NA,""
"image-keyboard-response",59,384680,"0.0-3.16-0.16","8l7k49y4vxdpgl7",444,"76.csv","","391.2999999523163","resources/trios/L4T1A2.jpg","38","restless",0.8,0.7,0.3,0.100923843388102,"true"
"image-keyboard-response",60,385084,"0.0-3.16-1.16","8l7k49y4vxdpgl7",444,"76.csv","","null","resources/maskTrios/BT1B.jpg","null","",NA,NA,NA,NA,""
"image-keyboard-response",61,386302,"0.0-3.16-2.16","8l7k49y4vxdpgl7",444,"76.csv","","null","resources/images/coin2.png","null","",NA,NA,NA,NA,""
"image-keyboard-response",62,386784,"0.0-3.17-0.17","8l7k49y4vxdpgl7",444,"76.csv","","480.5","resources/trios/L2T2A2.jpg","37","restless",0.8,0.7,0.3,0.694830310432157,"true"
"image-keyboard-response",63,387192,"0.0-3.17-1.17","8l7k49y4vxdpgl7",444,"76.csv","","null","resources/maskTrios/L2BB.jpg","null","",NA,NA,NA,NA,""
"image-keyboard-response",64,388401,"0.0-3.17-2.17","8l7k49y4vxdpgl7",444,"76.csv","","null","resources/images/coin2.png","null","",NA,NA,NA,NA,""
"image-keyboard-response",65,389089,"0.0-3.18-0.18","8l7k49y4vxdpgl7",444,"76.csv","","686.6000001430511","resources/trios/L2T1A2.jpg","38","restless",0.8,0.7,0.2,0.116385623518597,"true"
"image-keyboard-response",66,389502,"0.0-3.18-1.18","8l7k49y4vxdpgl7",444,"76.csv","","null","resources/maskTrios/BT1B.jpg","null","",NA,NA,NA,NA,""
"image-keyboard-response",67,390706,"0.0-3.18-2.18","8l7k49y4vxdpgl7",444,"76.csv","","null","resources/images/coin2.png","null","",NA,NA,NA,NA,""
"image-keyboard-response",68,391097,"0.0-3.19-0.19","8l7k49y4vxdpgl7",444,"76.csv","","389.2999999523163","resources/trios/L2T1A2.jpg","39","restless",0.8,0.7,0.2,0.378572767713207,"false"
"image-keyboard-response",69,391518,"0.0-3.19-1.19","8l7k49y4vxdpgl7",444,"76.csv","","null","resources/maskTrios/BBA2.jpg","null","",NA,NA,NA,NA,""
"image-keyboard-response",70,392732,"0.0-3.19-2.19","8l7k49y4vxdpgl7",444,"76.csv","","null","resources/images/fishbone.png","null","",NA,NA,NA,NA,""
"image-keyboard-response",71,393146,"0.0-3.20-0.20","8l7k49y4vxdpgl7",444,"76.csv","","412.5","resources/trios/L2T1A3.jpg","38","restless",0.7,0.7,0.2,0.526982010435644,"true"
"image-keyboard-response",72,393558,"0.0-3.20-1.20","8l7k49y4vxdpgl7",444,"76.csv","","null","resources/maskTrios/BT1B.jpg","null","",NA,NA,NA,NA,""
"image-keyboard-response",73,394769,"0.0-3.20-2.20","8l7k49y4vxdpgl7",444,"76.csv","","null","resources/images/coin2.png","null","",NA,NA,NA,NA,""
"image-keyboard-response",74,395230,"0.0-3.21-0.21","8l7k49y4vxdpgl7",444,"76.csv","","459.19999980926514","resources/trios/L2T1A2.jpg","38","restless",0.7,0.7,0.3,0.359327819820744,"true"
"image-keyboard-response",75,395643,"0.0-3.21-1.21","8l7k49y4vxdpgl7",444,"76.csv","","null","resources/maskTrios/BT1B.jpg","null","",NA,NA,NA,NA,""
"image-keyboard-response",76,396864,"0.0-3.21-2.21","8l7k49y4vxdpgl7",444,"76.csv","","null","resources/images/coin2.png","null","",NA,NA,NA,NA,""
"image-keyboard-response",77,397268,"0.0-3.22-0.22","8l7k49y4vxdpgl7",444,"76.csv","","403.2000000476837","resources/trios/L2T2A3.jpg","37","restless",0.7,0.7,0.3,0.0355497436036638,"true"
"image-keyboard-response",78,397680,"0.0-3.22-1.22","8l7k49y4vxdpgl7",444,"76.csv","","null","resources/maskTrios/L2BB.jpg","null","",NA,NA,NA,NA,""
"image-keyboard-response",79,398888,"0.0-3.22-2.22","8l7k49y4vxdpgl7",444,"76.csv","","null","resources/images/coin2.png","null","",NA,NA,NA,NA,""
"image-keyboard-response",80,399453,"0.0-3.23-0.23","8l7k49y4vxdpgl7",444,"76.csv","","563.5","resources/trios/L4T1A3.jpg","39","restless",0.7,0.6,0.3,0.924875340264449,"false"
"image-keyboard-response",81,399857,"0.0-3.23-1.23","8l7k49y4vxdpgl7",444,"76.csv","","null","resources/maskTrios/BBA3.jpg","null","",NA,NA,NA,NA,""
"image-keyboard-response",82,401066,"0.0-3.23-2.23","8l7k49y4vxdpgl7",444,"76.csv","","null","resources/images/fishbone.png","null","",NA,NA,NA,NA,""
"image-keyboard-response",83,401654,"0.0-3.24-0.24","8l7k49y4vxdpgl7",444,"76.csv","","586.2999999523163","resources/trios/L4T2A2.jpg","37","restless",0.7,0.6,0.3,0.513718996661392,"true"
"image-keyboard-response",84,402065,"0.0-3.24-1.24","8l7k49y4vxdpgl7",444,"76.csv","","null","resources/maskTrios/L4BB.jpg","null","",NA,NA,NA,NA,""
"image-keyboard-response",85,403276,"0.0-3.24-2.24","8l7k49y4vxdpgl7",444,"76.csv","","null","resources/images/coin2.png","null","",NA,NA,NA,NA,""
"image-keyboard-response",86,403537,"0.0-3.25-0.25","8l7k49y4vxdpgl7",444,"76.csv","","259.39999985694885","resources/trios/L4T2A2.jpg","39","restless",0.7,0.6,0.3,0.378188466380463,"false"
"image-keyboard-response",87,403960,"0.0-3.25-1.25","8l7k49y4vxdpgl7",444,"76.csv","","null","resources/maskTrios/BBA2.jpg","null","",NA,NA,NA,NA,""
"image-keyboard-response",88,405175,"0.0-3.25-2.25","8l7k49y4vxdpgl7",444,"76.csv","","null","resources/images/fishbone.png","null","",NA,NA,NA,NA,""
"image-keyboard-response",89,405512,"0.0-3.26-0.26","8l7k49y4vxdpgl7",444,"76.csv","","334.5","resources/trios/L2T2A3.jpg","37","restless",0.7,0.6,0.3,0.669308705324476,"true"
"image-keyboard-response",90,405929,"0.0-3.26-1.26","8l7k49y4vxdpgl7",444,"76.csv","","null","resources/maskTrios/L2BB.jpg","null","",NA,NA,NA,NA,""
"image-keyboard-response",91,407160,"0.0-3.26-2.26","8l7k49y4vxdpgl7",444,"76.csv","","null","resources/images/coin2.png","null","",NA,NA,NA,NA,""
"image-keyboard-response",92,407488,"0.0-3.27-0.27","8l7k49y4vxdpgl7",444,"76.csv","","326.19999980926514","resources/trios/L4T1A2.jpg","39","restless",0.7,0.6,0.3,0.320597243942155,"false"
"image-keyboard-response",93,407909,"0.0-3.27-1.27","8l7k49y4vxdpgl7",444,"76.csv","","null","resources/maskTrios/BBA2.jpg","null","",NA,NA,NA,NA,""
"image-keyboard-response",94,409120,"0.0-3.27-2.27","8l7k49y4vxdpgl7",444,"76.csv","","null","resources/images/fishbone.png","null","",NA,NA,NA,NA,""
"image-keyboard-response",95,409494,"0.0-3.28-0.28","8l7k49y4vxdpgl7",444,"76.csv","","372.2999999523163","resources/trios/L2T2A3.jpg","37","restless",0.7,0.5,0.3,0.908987788443679,"false"
"image-keyboard-response",96,409907,"0.0-3.28-1.28","8l7k49y4vxdpgl7",444,"76.csv","","null","resources/maskTrios/L2BB.jpg","null","",NA,NA,NA,NA,""
"image-keyboard-response",97,411116,"0.0-3.28-2.28","8l7k49y4vxdpgl7",444,"76.csv","","null","resources/images/fishbone.png","null","",NA,NA,NA,NA,""
"image-keyboard-response",98,411462,"0.0-3.29-0.29","8l7k49y4vxdpgl7",444,"76.csv","","345","resources/trios/L2T2A3.jpg","39","restless",0.7,0.5,0.3,0.645824879801274,"false"
"image-keyboard-response",99,411868,"0.0-3.29-1.29","8l7k49y4vxdpgl7",444,"76.csv","","null","resources/maskTrios/BBA3.jpg","null","",NA,NA,NA,NA,""
"image-keyboard-response",100,413087,"0.0-3.29-2.29","8l7k49y4vxdpgl7",444,"76.csv","","null","resources/images/fishbone.png","null","",NA,NA,NA,NA,""
"image-keyboard-response",101,413321,"0.0-3.30-0.30","8l7k49y4vxdpgl7",444,"76.csv","","232.39999985694885","resources/trios/L2T2A3.jpg","38","restless",0.7,0.5,0.3,0.852721687924405,"false"
"image-keyboard-response",102,413737,"0.0-3.30-1.30","8l7k49y4vxdpgl7",444,"76.csv","","null","resources/maskTrios/BT2B.jpg","null","",NA,NA,NA,NA,""
"image-keyboard-response",103,414952,"0.0-3.30-2.30","8l7k49y4vxdpgl7",444,"76.csv","","null","resources/images/fishbone.png","null","",NA,NA,NA,NA,""
"image-keyboard-response",104,415129,"0.0-3.31-0.31","8l7k49y4vxdpgl7",444,"76.csv","","175.59999990463257","resources/trios/L4T2A2.jpg","37","restless",0.7,0.5,0.3,0.935935387233124,"false"
"image-keyboard-response",105,415550,"0.0-3.31-1.31","8l7k49y4vxdpgl7",444,"76.csv","","null","resources/maskTrios/L4BB.jpg","null","",NA,NA,NA,NA,""
"image-keyboard-response",106,416753,"0.0-3.31-2.31","8l7k49y4vxdpgl7",444,"76.csv","","null","resources/images/fishbone.png","null","",NA,NA,NA,NA,""
"image-keyboard-response",107,417032,"0.0-3.32-0.32","8l7k49y4vxdpgl7",444,"76.csv","","277.2000000476837","resources/trios/L4T2A3.jpg","38","restless",0.7,0.5,0.3,0.000537990972042213,"true"
"image-keyboard-response",108,417456,"0.0-3.32-1.32","8l7k49y4vxdpgl7",444,"76.csv","","null","resources/maskTrios/BT2B.jpg","null","",NA,NA,NA,NA,""
"image-keyboard-response",109,418682,"0.0-3.32-2.32","8l7k49y4vxdpgl7",444,"76.csv","","null","resources/images/coin2.png","null","",NA,NA,NA,NA,""
"image-keyboard-response",110,418971,"0.0-3.33-0.33","8l7k49y4vxdpgl7",444,"76.csv","","287.7999999523163","resources/trios/L4T2A2.jpg","39","restless",0.7,0.5,0.3,0.443005841486253,"false"
"image-keyboard-response",111,419378,"0.0-3.33-1.33","8l7k49y4vxdpgl7",444,"76.csv","","null","resources/maskTrios/BBA2.jpg","null","",NA,NA,NA,NA,""
"image-keyboard-response",112,420596,"0.0-3.33-2.33","8l7k49y4vxdpgl7",444,"76.csv","","null","resources/images/fishbone.png","null","",NA,NA,NA,NA,""
"image-keyboard-response",113,420873,"0.0-3.34-0.34","8l7k49y4vxdpgl7",444,"76.csv","","274.59999990463257","resources/trios/L2T2A2.jpg","39","restless",0.7,0.5,0.3,0.126294957393748,"true"
"image-keyboard-response",114,421290,"0.0-3.34-1.34","8l7k49y4vxdpgl7",444,"76.csv","","null","resources/maskTrios/BBA2.jpg","null","",NA,NA,NA,NA,""
"image-keyboard-response",115,422504,"0.0-3.34-2.34","8l7k49y4vxdpgl7",444,"76.csv","","null","resources/images/coin2.png","null","",NA,NA,NA,NA,""
"image-keyboard-response",116,422923,"0.0-3.35-0.35","8l7k49y4vxdpgl7",444,"76.csv","","417.60000014305115","resources/trios/L4T2A2.jpg","37","restless",0.8,0.5,0.3,0.898641700122484,"false"
"image-keyboard-response",117,423331,"0.0-3.35-1.35","8l7k49y4vxdpgl7",444,"76.csv","","null","resources/maskTrios/L4BB.jpg","null","",NA,NA,NA,NA,""
"image-keyboard-response",118,424551,"0.0-3.35-2.35","8l7k49y4vxdpgl7",444,"76.csv","","null","resources/images/fishbone.png","null","",NA,NA,NA,NA,""
"image-keyboard-response",119,424926,"0.0-3.36-0.36","8l7k49y4vxdpgl7",444,"76.csv","","374.30000019073486","resources/trios/L4T2A2.jpg","38","restless",0.8,0.5,0.3,0.560056360784283,"false"
"image-keyboard-response",120,425334,"0.0-3.36-1.36","8l7k49y4vxdpgl7",444,"76.csv","","null","resources/maskTrios/BT2B.jpg","null","",NA,NA,NA,NA,""
"image-keyboard-response",121,426551,"0.0-3.36-2.36","8l7k49y4vxdpgl7",444,"76.csv","","null","resources/images/fishbone.png","null","",NA,NA,NA,NA,""
"image-keyboard-response",122,426779,"0.0-3.37-0.37","8l7k49y4vxdpgl7",444,"76.csv","","227.70000004768372","resources/trios/L4T2A3.jpg","38","restless",0.8,0.5,0.3,0.932819539713466,"false"
"image-keyboard-response",123,427190,"0.0-3.37-1.37","8l7k49y4vxdpgl7",444,"76.csv","","null","resources/maskTrios/BT2B.jpg","null","",NA,NA,NA,NA,""
"image-keyboard-response",124,428401,"0.0-3.37-2.37","8l7k49y4vxdpgl7",444,"76.csv","","null","resources/images/fishbone.png","null","",NA,NA,NA,NA,""
"image-keyboard-response",125,428691,"0.0-3.38-0.38","8l7k49y4vxdpgl7",444,"76.csv","","288.19999980926514","resources/trios/L4T2A3.jpg","38","restless",0.7,0.5,0.3,0.520396758998419,"false"
"image-keyboard-response",126,429104,"0.0-3.38-1.38","8l7k49y4vxdpgl7",444,"76.csv","","null","resources/maskTrios/BT2B.jpg","null","",NA,NA,NA,NA,""
"image-keyboard-response",127,430318,"0.0-3.38-2.38","8l7k49y4vxdpgl7",444,"76.csv","","null","resources/images/fishbone.png","null","",NA,NA,NA,NA,""
"image-keyboard-response",128,430422,"0.0-3.39-0.39","8l7k49y4vxdpgl7",444,"76.csv","","102.5","resources/trios/L4T2A3.jpg","38","restless",0.7,0.4,0.3,0.252510882846237,"true"
"image-keyboard-response",129,430832,"0.0-3.39-1.39","8l7k49y4vxdpgl7",444,"76.csv","","null","resources/maskTrios/BT2B.jpg","null","",NA,NA,NA,NA,""
"image-keyboard-response",130,432042,"0.0-3.39-2.39","8l7k49y4vxdpgl7",444,"76.csv","","null","resources/images/coin2.png","null","",NA,NA,NA,NA,""
"image-keyboard-response",131,432859,"0.0-3.40-0.40","8l7k49y4vxdpgl7",444,"76.csv","","815.2000000476837","resources/trios/L2T1A3.jpg","38","restless",0.7,0.4,0.3,0.0377335045732072,"true"
"image-keyboard-response",132,433269,"0.0-3.40-1.40","8l7k49y4vxdpgl7",444,"76.csv","","null","resources/maskTrios/BT1B.jpg","null","",NA,NA,NA,NA,""
"image-keyboard-response",133,434481,"0.0-3.40-2.40","8l7k49y4vxdpgl7",444,"76.csv","","null","resources/images/coin2.png","null","",NA,NA,NA,NA,""
"image-keyboard-response",134,434708,"0.0-3.41-0.41","8l7k49y4vxdpgl7",444,"76.csv","","225.5","resources/trios/L4T1A2.jpg","39","restless",0.7,0.4,0.4,0.0584362125653584,"true"
"image-keyboard-response",135,435119,"0.0-3.41-1.41","8l7k49y4vxdpgl7",444,"76.csv","","null","resources/maskTrios/BBA2.jpg","null","",NA,NA,NA,NA,""
"image-keyboard-response",136,436331,"0.0-3.41-2.41","8l7k49y4vxdpgl7",444,"76.csv","","null","resources/images/coin2.png","null","",NA,NA,NA,NA,""
"image-keyboard-response",137,436457,"0.0-3.42-0.42","8l7k49y4vxdpgl7",444,"76.csv","","124.90000009536743","resources/trios/L2T2A3.jpg","39","restless",0.7,0.4,0.4,0.798093348985516,"false"
"image-keyboard-response",138,436879,"0.0-3.42-1.42","8l7k49y4vxdpgl7",444,"76.csv","","null","resources/maskTrios/BBA3.jpg","null","",NA,NA,NA,NA,""
"image-keyboard-response",139,438088,"0.0-3.42-2.42","8l7k49y4vxdpgl7",444,"76.csv","","null","resources/images/fishbone.png","null","",NA,NA,NA,NA,""
"image-keyboard-response",140,439742,"0.0-3.43-0.43","8l7k49y4vxdpgl7",444,"76.csv","","1652","resources/trios/L2T1A3.jpg","38","restless",0.7,0.4,0.4,0.468649082388795,"false"
"image-keyboard-response",141,440145,"0.0-3.43-1.43","8l7k49y4vxdpgl7",444,"76.csv","","null","resources/maskTrios/BT1B.jpg","null","",NA,NA,NA,NA,""
"image-keyboard-response",142,441354,"0.0-3.43-2.43","8l7k49y4vxdpgl7",444,"76.csv","","null","resources/images/fishbone.png","null","",NA,NA,NA,NA,""
"image-keyboard-response",143,441670,"0.0-3.44-0.44","8l7k49y4vxdpgl7",444,"76.csv","","314.7000000476837","resources/trios/L2T1A2.jpg","37","restless",0.7,0.4,0.4,0.424841044476394,"true"
"image-keyboard-response",144,442074,"0.0-3.44-1.44","8l7k49y4vxdpgl7",444,"76.csv","","null","resources/maskTrios/L2BB.jpg","null","",NA,NA,NA,NA,""
"image-keyboard-response",145,443287,"0.0-3.44-2.44","8l7k49y4vxdpgl7",444,"76.csv","","null","resources/images/coin2.png","null","",NA,NA,NA,NA,""
"image-keyboard-response",146,443646,"0.0-3.45-0.45","8l7k49y4vxdpgl7",444,"76.csv","","357.7999999523163","resources/trios/L2T2A3.jpg","37","restless",0.7,0.4,0.4,0.541208916195619,"true"
"image-keyboard-response",147,444051,"0.0-3.45-1.45","8l7k49y4vxdpgl7",444,"76.csv","","null","resources/maskTrios/L2BB.jpg","null","",NA,NA,NA,NA,""
"image-keyboard-response",148,445287,"0.0-3.45-2.45","8l7k49y4vxdpgl7",444,"76.csv","","null","resources/images/coin2.png","null","",NA,NA,NA,NA,""
"image-keyboard-response",149,445838,"0.0-3.46-0.46","8l7k49y4vxdpgl7",444,"76.csv","","549.1999998092651","resources/trios/L4T1A2.jpg","39","restless",0.7,0.4,0.4,0.424202025525843,"false"
"image-keyboard-response",150,446255,"0.0-3.46-1.46","8l7k49y4vxdpgl7",444,"76.csv","","null","resources/maskTrios/BBA2.jpg","null","",NA,NA,NA,NA,""
"image-keyboard-response",151,447466,"0.0-3.46-2.46","8l7k49y4vxdpgl7",444,"76.csv","","null","resources/images/fishbone.png","null","",NA,NA,NA,NA,""
"image-keyboard-response",152,447767,"0.0-3.47-0.47","8l7k49y4vxdpgl7",444,"76.csv","","299.59999990463257","resources/trios/L2T1A2.jpg","39","restless",0.7,0.4,0.4,0.525132902018241,"false"
"image-keyboard-response",153,448176,"0.0-3.47-1.47","8l7k49y4vxdpgl7",444,"76.csv","","null","resources/maskTrios/BBA2.jpg","null","",NA,NA,NA,NA,""
"image-keyboard-response",154,449392,"0.0-3.47-2.47","8l7k49y4vxdpgl7",444,"76.csv","","null","resources/images/fishbone.png","null","",NA,NA,NA,NA,""
"image-keyboard-response",155,449850,"0.0-3.48-0.48","8l7k49y4vxdpgl7",444,"76.csv","","457.2999999523163","resources/trios/L4T1A3.jpg","37","restless",0.7,0.4,0.4,0.519357718202933,"true"
"image-keyboard-response",156,450268,"0.0-3.48-1.48","8l7k49y4vxdpgl7",444,"76.csv","","null","resources/maskTrios/L4BB.jpg","null","",NA,NA,NA,NA,""
"image-keyboard-response",157,451474,"0.0-3.48-2.48","8l7k49y4vxdpgl7",444,"76.csv","","null","resources/images/coin2.png","null","",NA,NA,NA,NA,""
"image-keyboard-response",158,451799,"0.0-3.49-0.49","8l7k49y4vxdpgl7",444,"76.csv","","323","resources/trios/L4T2A3.jpg","37","restless",0.7,0.5,0.4,0.874562545962469,"false"
"image-keyboard-response",159,452212,"0.0-3.49-1.49","8l7k49y4vxdpgl7",444,"76.csv","","null","resources/maskTrios/L4BB.jpg","null","",NA,NA,NA,NA,""
"image-keyboard-response",160,453425,"0.0-3.49-2.49","8l7k49y4vxdpgl7",444,"76.csv","","null","resources/images/fishbone.png","null","",NA,NA,NA,NA,""
"image-keyboard-response",161,453760,"0.0-3.50-0.50","8l7k49y4vxdpgl7",444,"76.csv","","333.5","resources/trios/L4T1A2.jpg","37","restless",0.7,0.4,0.4,0.991493498210566,"false"
"image-keyboard-response",162,454170,"0.0-3.50-1.50","8l7k49y4vxdpgl7",444,"76.csv","","null","resources/maskTrios/L4BB.jpg","null","",NA,NA,NA,NA,""
"image-keyboard-response",163,455377,"0.0-3.50-2.50","8l7k49y4vxdpgl7",444,"76.csv","","null","resources/images/fishbone.png","null","",NA,NA,NA,NA,""
"image-keyboard-response",164,457602,"0.0-3.51-0.51","8l7k49y4vxdpgl7",444,"76.csv","","2223","resources/trios/L4T1A2.jpg","39","restless",0.7,0.4,0.4,0.104156553852385,"true"
"image-keyboard-response",165,458012,"0.0-3.51-1.51","8l7k49y4vxdpgl7",444,"76.csv","","null","resources/maskTrios/BBA2.jpg","null","",NA,NA,NA,NA,""
"image-keyboard-response",166,459224,"0.0-3.51-2.51","8l7k49y4vxdpgl7",444,"76.csv","","null","resources/images/coin2.png","null","",NA,NA,NA,NA,""
"image-keyboard-response",167,459708,"0.0-3.52-0.52","8l7k49y4vxdpgl7",444,"76.csv","","483.2000000476837","resources/trios/L2T1A2.jpg","39","restless",0.7,0.4,0.4,0.182925392307468,"true"
"image-keyboard-response",168,460120,"0.0-3.52-1.52","8l7k49y4vxdpgl7",444,"76.csv","","null","resources/maskTrios/BBA2.jpg","null","",NA,NA,NA,NA,""
"image-keyboard-response",169,461335,"0.0-3.52-2.52","8l7k49y4vxdpgl7",444,"76.csv","","null","resources/images/coin2.png","null","",NA,NA,NA,NA,""
"image-keyboard-response",170,461910,"0.0-3.53-0.53","8l7k49y4vxdpgl7",444,"76.csv","","573.0999999046326","resources/trios/L4T1A2.jpg","37","restless",0.7,0.4,0.4,0.43332412555944,"true"
"image-keyboard-response",171,462317,"0.0-3.53-1.53","8l7k49y4vxdpgl7",444,"76.csv","","null","resources/maskTrios/L4BB.jpg","null","",NA,NA,NA,NA,""
"image-keyboard-response",172,463525,"0.0-3.53-2.53","8l7k49y4vxdpgl7",444,"76.csv","","null","resources/images/coin2.png","null","",NA,NA,NA,NA,""
"image-keyboard-response",173,463968,"0.0-3.54-0.54","8l7k49y4vxdpgl7",444,"76.csv","","441.2999999523163","resources/trios/L4T1A3.jpg","37","restless",0.7,0.4,0.4,0.817704191414154,"false"
"image-keyboard-response",174,464394,"0.0-3.54-1.54","8l7k49y4vxdpgl7",444,"76.csv","","null","resources/maskTrios/L4BB.jpg","null","",NA,NA,NA,NA,""
"image-keyboard-response",175,465612,"0.0-3.54-2.54","8l7k49y4vxdpgl7",444,"76.csv","","null","resources/images/fishbone.png","null","",NA,NA,NA,NA,""
"image-keyboard-response",176,465938,"0.0-3.55-0.55","8l7k49y4vxdpgl7",444,"76.csv","","324.2999999523163","resources/trios/L2T2A3.jpg","38","restless",0.7,0.4,0.4,0.286000256833192,"true"
"image-keyboard-response",177,466363,"0.0-3.55-1.55","8l7k49y4vxdpgl7",444,"76.csv","","null","resources/maskTrios/BT2B.jpg","null","",NA,NA,NA,NA,""
"image-keyboard-response",178,467581,"0.0-3.55-2.55","8l7k49y4vxdpgl7",444,"76.csv","","null","resources/images/coin2.png","null","",NA,NA,NA,NA,""
"image-keyboard-response",179,468109,"0.0-3.56-0.56","8l7k49y4vxdpgl7",444,"76.csv","","525.7000000476837","resources/trios/L4T1A2.jpg","38","restless",0.7,0.4,0.4,0.718201587002452,"false"
"image-keyboard-response",180,468527,"0.0-3.56-1.56","8l7k49y4vxdpgl7",444,"76.csv","","null","resources/maskTrios/BT1B.jpg","null","",NA,NA,NA,NA,""
"image-keyboard-response",181,469735,"0.0-3.56-2.56","8l7k49y4vxdpgl7",444,"76.csv","","null","resources/images/fishbone.png","null","",NA,NA,NA,NA,""
"image-keyboard-response",182,470246,"0.0-3.57-0.57","8l7k49y4vxdpgl7",444,"76.csv","","509.7999999523163","resources/trios/L2T2A2.jpg","39","restless",0.7,0.4,0.4,0.561957901823516,"false"
"image-keyboard-response",183,470666,"0.0-3.57-1.57","8l7k49y4vxdpgl7",444,"76.csv","","null","resources/maskTrios/BBA2.jpg","null","",NA,NA,NA,NA,""
"image-keyboard-response",184,471879,"0.0-3.57-2.57","8l7k49y4vxdpgl7",444,"76.csv","","null","resources/images/fishbone.png","null","",NA,NA,NA,NA,""
"image-keyboard-response",185,472234,"0.0-3.58-0.58","8l7k49y4vxdpgl7",444,"76.csv","","352.90000009536743","resources/trios/L2T2A2.jpg","39","restless",0.7,0.4,0.4,0.320213495760761,"true"
"image-keyboard-response",186,472649,"0.0-3.58-1.58","8l7k49y4vxdpgl7",444,"76.csv","","null","resources/maskTrios/BBA2.jpg","null","",NA,NA,NA,NA,""
"image-keyboard-response",187,473871,"0.0-3.58-2.58","8l7k49y4vxdpgl7",444,"76.csv","","null","resources/images/coin2.png","null","",NA,NA,NA,NA,""
"image-keyboard-response",188,474699,"0.0-3.59-0.59","8l7k49y4vxdpgl7",444,"76.csv","","827.4000000953674","resources/trios/L4T1A3.jpg","37","restless",0.6,0.4,0.4,0.0611114566585269,"true"
"image-keyboard-response",189,475112,"0.0-3.59-1.59","8l7k49y4vxdpgl7",444,"76.csv","","null","resources/maskTrios/L4BB.jpg","null","",NA,NA,NA,NA,""
"image-keyboard-response",190,476331,"0.0-3.59-2.59","8l7k49y4vxdpgl7",444,"76.csv","","null","resources/images/coin2.png","null","",NA,NA,NA,NA,""
"image-keyboard-response",191,476984,"0.0-3.60-0.60","8l7k49y4vxdpgl7",444,"76.csv","","651.7000000476837","resources/trios/L2T2A3.jpg","38","restless",0.6,0.4,0.4,0.884975610928568,"false"
"image-keyboard-response",192,477395,"0.0-3.60-1.60","8l7k49y4vxdpgl7",444,"76.csv","","null","resources/maskTrios/BT2B.jpg","null","",NA,NA,NA,NA,""
"image-keyboard-response",193,478605,"0.0-3.60-2.60","8l7k49y4vxdpgl7",444,"76.csv","","null","resources/images/fishbone.png","null","",NA,NA,NA,NA,""
"image-keyboard-response",194,478818,"0.0-3.61-0.61","8l7k49y4vxdpgl7",444,"76.csv","","210.70000004768372","resources/trios/L2T1A2.jpg","39","restless",0.6,0.4,0.4,0.903642883142084,"false"
"image-keyboard-response",195,479237,"0.0-3.61-1.61","8l7k49y4vxdpgl7",444,"76.csv","","null","resources/maskTrios/BBA2.jpg","null","",NA,NA,NA,NA,""
"image-keyboard-response",196,480456,"0.0-3.61-2.61","8l7k49y4vxdpgl7",444,"76.csv","","null","resources/images/fishbone.png","null","",NA,NA,NA,NA,""
"image-keyboard-response",197,483211,"0.0-3.62-0.62","8l7k49y4vxdpgl7",444,"76.csv","","2753.5","resources/trios/L4T1A3.jpg","39","restless",0.6,0.4,0.3,0.673246507715862,"false"
"image-keyboard-response",198,483620,"0.0-3.62-1.62","8l7k49y4vxdpgl7",444,"76.csv","","null","resources/maskTrios/BBA3.jpg","null","",NA,NA,NA,NA,""
"image-keyboard-response",199,484825,"0.0-3.62-2.62","8l7k49y4vxdpgl7",444,"76.csv","","null","resources/images/fishbone.png","null","",NA,NA,NA,NA,""
"image-keyboard-response",200,485195,"0.0-3.63-0.63","8l7k49y4vxdpgl7",444,"76.csv","","368.59999990463257","resources/trios/L4T1A2.jpg","39","restless",0.5,0.4,0.3,0.590857189721622,"false"
"image-keyboard-response",201,485613,"0.0-3.63-1.63","8l7k49y4vxdpgl7",444,"76.csv","","null","resources/maskTrios/BBA2.jpg","null","",NA,NA,NA,NA,""
"image-keyboard-response",202,486824,"0.0-3.63-2.63","8l7k49y4vxdpgl7",444,"76.csv","","null","resources/images/fishbone.png","null","",NA,NA,NA,NA,""
"image-keyboard-response",203,487200,"0.0-3.64-0.64","8l7k49y4vxdpgl7",444,"76.csv","","375.7000000476837","resources/trios/L4T2A3.jpg","39","restless",0.5,0.4,0.3,0.521717910786923,"false"
"image-keyboard-response",204,487613,"0.0-3.64-1.64","8l7k49y4vxdpgl7",444,"76.csv","","null","resources/maskTrios/BBA3.jpg","null","",NA,NA,NA,NA,""
"image-keyboard-response",205,488822,"0.0-3.64-2.64","8l7k49y4vxdpgl7",444,"76.csv","","null","resources/images/fishbone.png","null","",NA,NA,NA,NA,""
"image-keyboard-response",206,489128,"0.0-3.65-0.65","8l7k49y4vxdpgl7",444,"76.csv","","304.40000009536743","resources/trios/L2T2A3.jpg","39","restless",0.6,0.4,0.3,0.638411370342991,"false"
"image-keyboard-response",207,489539,"0.0-3.65-1.65","8l7k49y4vxdpgl7",444,"76.csv","","null","resources/maskTrios/BBA3.jpg","null","",NA,NA,NA,NA,""
"image-keyboard-response",208,490757,"0.0-3.65-2.65","8l7k49y4vxdpgl7",444,"76.csv","","null","resources/images/fishbone.png","null","",NA,NA,NA,NA,""
"image-keyboard-response",209,490903,"0.0-3.66-0.66","8l7k49y4vxdpgl7",444,"76.csv","","144.59999990463257","resources/trios/L2T1A3.jpg","39","restless",0.6,0.4,0.3,0.31666352384839,"false"
"image-keyboard-response",210,491316,"0.0-3.66-1.66","8l7k49y4vxdpgl7",444,"76.csv","","null","resources/maskTrios/BBA3.jpg","null","",NA,NA,NA,NA,""
"image-keyboard-response",211,492536,"0.0-3.66-2.66","8l7k49y4vxdpgl7",444,"76.csv","","null","resources/images/fishbone.png","null","",NA,NA,NA,NA,""
"image-keyboard-response",212,492870,"0.0-3.67-0.67","8l7k49y4vxdpgl7",444,"76.csv","","333.7999999523163","resources/trios/L2T1A3.jpg","39","restless",0.6,0.4,0.3,0.272005291905613,"true"
"image-keyboard-response",213,493287,"0.0-3.67-1.67","8l7k49y4vxdpgl7",444,"76.csv","","null","resources/maskTrios/BBA3.jpg","null","",NA,NA,NA,NA,""
"image-keyboard-response",214,494495,"0.0-3.67-2.67","8l7k49y4vxdpgl7",444,"76.csv","","null","resources/images/coin2.png","null","",NA,NA,NA,NA,""
"image-keyboard-response",215,494786,"0.0-3.68-0.68","8l7k49y4vxdpgl7",444,"76.csv","","289.60000014305115","resources/trios/L2T2A2.jpg","39","restless",0.6,0.4,0.3,0.972651004849407,"false"
"image-keyboard-response",216,495198,"0.0-3.68-1.68","8l7k49y4vxdpgl7",444,"76.csv","","null","resources/maskTrios/BBA2.jpg","null","",NA,NA,NA,NA,""
"image-keyboard-response",217,496410,"0.0-3.68-2.68","8l7k49y4vxdpgl7",444,"76.csv","","null","resources/images/fishbone.png","null","",NA,NA,NA,NA,""
"image-keyboard-response",218,496818,"0.0-3.69-0.69","8l7k49y4vxdpgl7",444,"76.csv","","407","resources/trios/L2T2A2.jpg","39","restless",0.6,0.4,0.3,0.357987646637061,"false"
"image-keyboard-response",219,497233,"0.0-3.69-1.69","8l7k49y4vxdpgl7",444,"76.csv","","null","resources/maskTrios/BBA2.jpg","null","",NA,NA,NA,NA,""
"image-keyboard-response",220,498448,"0.0-3.69-2.69","8l7k49y4vxdpgl7",444,"76.csv","","null","resources/images/fishbone.png","null","",NA,NA,NA,NA,""
"image-keyboard-response",221,498851,"0.0-3.70-0.70","8l7k49y4vxdpgl7",444,"76.csv","","402.2000000476837","resources/trios/L4T2A2.jpg","39","restless",0.5,0.4,0.3,0.174026168731576,"true"
"image-keyboard-response",222,499269,"0.0-3.70-1.70","8l7k49y4vxdpgl7",444,"76.csv","","null","resources/maskTrios/BBA2.jpg","null","",NA,NA,NA,NA,""
"image-keyboard-response",223,500487,"0.0-3.70-2.70","8l7k49y4vxdpgl7",444,"76.csv","","null","resources/images/coin2.png","null","",NA,NA,NA,NA,""
"image-keyboard-response",224,501389,"0.0-3.71-0.71","8l7k49y4vxdpgl7",444,"76.csv","","900.2000000476837","resources/trios/L4T1A2.jpg","39","restless",0.5,0.4,0.3,0.443328643480377,"false"
"image-keyboard-response",225,501804,"0.0-3.71-1.71","8l7k49y4vxdpgl7",444,"76.csv","","null","resources/maskTrios/BBA2.jpg","null","",NA,NA,NA,NA,""
"image-keyboard-response",226,503011,"0.0-3.71-2.71","8l7k49y4vxdpgl7",444,"76.csv","","null","resources/images/fishbone.png","null","",NA,NA,NA,NA,""
"image-keyboard-response",227,503398,"0.0-3.72-0.72","8l7k49y4vxdpgl7",444,"76.csv","","385.30000019073486","resources/trios/L4T2A2.jpg","39","restless",0.5,0.4,0.3,0.586311315756241,"false"
"image-keyboard-response",228,503808,"0.0-3.72-1.72","8l7k49y4vxdpgl7",444,"76.csv","","null","resources/maskTrios/BBA2.jpg","null","",NA,NA,NA,NA,""
"image-keyboard-response",229,505018,"0.0-3.72-2.72","8l7k49y4vxdpgl7",444,"76.csv","","null","resources/images/fishbone.png","null","",NA,NA,NA,NA,""
"image-keyboard-response",230,505404,"0.0-3.73-0.73","8l7k49y4vxdpgl7",444,"76.csv","","384.2000000476837","resources/trios/L2T1A2.jpg","39","restless",0.5,0.4,0.3,0.760294166826244,"false"
"image-keyboard-response",231,505816,"0.0-3.73-1.73","8l7k49y4vxdpgl7",444,"76.csv","","null","resources/maskTrios/BBA2.jpg","null","",NA,NA,NA,NA,""
"image-keyboard-response",232,507034,"0.0-3.73-2.73","8l7k49y4vxdpgl7",444,"76.csv","","null","resources/images/fishbone.png","null","",NA,NA,NA,NA,""
"image-keyboard-response",233,507412,"0.0-3.74-0.74","8l7k49y4vxdpgl7",444,"76.csv","","376","resources/trios/L4T2A2.jpg","39","restless",0.5,0.4,0.4,0.165799592615735,"true"
"image-keyboard-response",234,507829,"0.0-3.74-1.74","8l7k49y4vxdpgl7",444,"76.csv","","null","resources/maskTrios/BBA2.jpg","null","",NA,NA,NA,NA,""
"image-keyboard-response",235,509035,"0.0-3.74-2.74","8l7k49y4vxdpgl7",444,"76.csv","","null","resources/images/coin2.png","null","",NA,NA,NA,NA,""
"image-keyboard-response",236,509389,"0.0-3.75-0.75","8l7k49y4vxdpgl7",444,"76.csv","","352.7000000476837","resources/trios/L2T2A3.jpg","39","restless",0.5,0.4,0.4,0.911150725285603,"false"
"image-keyboard-response",237,509795,"0.0-3.75-1.75","8l7k49y4vxdpgl7",444,"76.csv","","null","resources/maskTrios/BBA3.jpg","null","",NA,NA,NA,NA,""
"image-keyboard-response",238,511003,"0.0-3.75-2.75","8l7k49y4vxdpgl7",444,"76.csv","","null","resources/images/fishbone.png","null","",NA,NA,NA,NA,""
"image-keyboard-response",239,511320,"0.0-3.76-0.76","8l7k49y4vxdpgl7",444,"76.csv","","315.69999980926514","resources/trios/L2T1A3.jpg","39","restless",0.5,0.4,0.4,0.0570092466850296,"true"
"image-keyboard-response",240,511740,"0.0-3.76-1.76","8l7k49y4vxdpgl7",444,"76.csv","","null","resources/maskTrios/BBA3.jpg","null","",NA,NA,NA,NA,""
"image-keyboard-response",241,512958,"0.0-3.76-2.76","8l7k49y4vxdpgl7",444,"76.csv","","null","resources/images/coin2.png","null","",NA,NA,NA,NA,""
"image-keyboard-response",242,513369,"0.0-3.77-0.77","8l7k49y4vxdpgl7",444,"76.csv","","410.10000014305115","resources/trios/L2T2A2.jpg","37","restless",0.5,0.4,0.4,0.813238675021353,"false"
"image-keyboard-response",243,513789,"0.0-3.77-1.77","8l7k49y4vxdpgl7",444,"76.csv","","null","resources/maskTrios/L2BB.jpg","null","",NA,NA,NA,NA,""
"image-keyboard-response",244,515004,"0.0-3.77-2.77","8l7k49y4vxdpgl7",444,"76.csv","","null","resources/images/fishbone.png","null","",NA,NA,NA,NA,""
"image-keyboard-response",245,515376,"0.0-3.78-0.78","8l7k49y4vxdpgl7",444,"76.csv","","370.60000014305115","resources/trios/L4T1A3.jpg","38","restless",0.5,0.4,0.4,0.190400561208353,"true"
"image-keyboard-response",246,515787,"0.0-3.78-1.78","8l7k49y4vxdpgl7",444,"76.csv","","null","resources/maskTrios/BT1B.jpg","null","",NA,NA,NA,NA,""
"image-keyboard-response",247,516994,"0.0-3.78-2.78","8l7k49y4vxdpgl7",444,"76.csv","","null","resources/images/coin2.png","null","",NA,NA,NA,NA,""
"image-keyboard-response",248,517291,"0.0-3.79-0.79","8l7k49y4vxdpgl7",444,"76.csv","","296.10000014305115","resources/trios/L2T1A2.jpg","39","restless",0.6,0.4,0.5,0.404991834841749,"true"
"image-keyboard-response",249,517707,"0.0-3.79-1.79","8l7k49y4vxdpgl7",444,"76.csv","","null","resources/maskTrios/BBA2.jpg","null","",NA,NA,NA,NA,""
"image-keyboard-response",250,518925,"0.0-3.79-2.79","8l7k49y4vxdpgl7",444,"76.csv","","null","resources/images/coin2.png","null","",NA,NA,NA,NA,""
"image-keyboard-response",251,519351,"0.0-3.80-0.80","8l7k49y4vxdpgl7",444,"76.csv","","424.59999990463257","resources/trios/L4T2A3.jpg","39","restless",0.6,0.4,0.5,0.937650748825221,"false"
"image-keyboard-response",252,519769,"0.0-3.80-1.80","8l7k49y4vxdpgl7",444,"76.csv","","null","resources/maskTrios/BBA3.jpg","null","",NA,NA,NA,NA,""
"image-keyboard-response",253,520972,"0.0-3.80-2.80","8l7k49y4vxdpgl7",444,"76.csv","","null","resources/images/fishbone.png","null","",NA,NA,NA,NA,""
"image-keyboard-response",254,521317,"0.0-3.81-0.81","8l7k49y4vxdpgl7",444,"76.csv","","343.5","resources/trios/L2T2A3.jpg","39","restless",0.6,0.4,0.5,0.64661453114211,"false"
"image-keyboard-response",255,521735,"0.0-3.81-1.81","8l7k49y4vxdpgl7",444,"76.csv","","null","resources/maskTrios/BBA3.jpg","null","",NA,NA,NA,NA,""
"image-keyboard-response",256,522941,"0.0-3.81-2.81","8l7k49y4vxdpgl7",444,"76.csv","","null","resources/images/fishbone.png","null","",NA,NA,NA,NA,""
"image-keyboard-response",257,523373,"0.0-3.82-0.82","8l7k49y4vxdpgl7",444,"76.csv","","430.59999990463257","resources/trios/L2T1A2.jpg","39","restless",0.7,0.4,0.5,0.596511577927247,"false"
"image-keyboard-response",258,523800,"0.0-3.82-1.82","8l7k49y4vxdpgl7",444,"76.csv","","null","resources/maskTrios/BBA2.jpg","null","",NA,NA,NA,NA,""
"image-keyboard-response",259,525021,"0.0-3.82-2.82","8l7k49y4vxdpgl7",444,"76.csv","","null","resources/images/fishbone.png","null","",NA,NA,NA,NA,""
"image-keyboard-response",260,525519,"0.0-3.83-0.83","8l7k49y4vxdpgl7",444,"76.csv","","496.2000000476837","resources/trios/L4T2A2.jpg","39","restless",0.7,0.4,0.5,0.848013813399728,"false"
"image-keyboard-response",261,525932,"0.0-3.83-1.83","8l7k49y4vxdpgl7",444,"76.csv","","null","resources/maskTrios/BBA2.jpg","null","",NA,NA,NA,NA,""
"image-keyboard-response",262,527145,"0.0-3.83-2.83","8l7k49y4vxdpgl7",444,"76.csv","","null","resources/images/fishbone.png","null","",NA,NA,NA,NA,""
"image-keyboard-response",263,527549,"0.0-3.84-0.84","8l7k49y4vxdpgl7",444,"76.csv","","403.09999990463257","resources/trios/L4T2A3.jpg","39","restless",0.7,0.4,0.5,0.751712773403513,"false"
"image-keyboard-response",264,527956,"0.0-3.84-1.84","8l7k49y4vxdpgl7",444,"76.csv","","null","resources/maskTrios/BBA3.jpg","null","",NA,NA,NA,NA,""
"image-keyboard-response",265,529176,"0.0-3.84-2.84","8l7k49y4vxdpgl7",444,"76.csv","","null","resources/images/fishbone.png","null","",NA,NA,NA,NA,""
"image-keyboard-response",266,530102,"0.0-3.85-0.85","8l7k49y4vxdpgl7",444,"76.csv","","924.2999999523163","resources/trios/L2T2A3.jpg","38","restless",0.7,0.4,0.5,0.580145097118745,"false"
"image-keyboard-response",267,530511,"0.0-3.85-1.85","8l7k49y4vxdpgl7",444,"76.csv","","null","resources/maskTrios/BT2B.jpg","null","",NA,NA,NA,NA,""
"image-keyboard-response",268,531723,"0.0-3.85-2.85","8l7k49y4vxdpgl7",444,"76.csv","","null","resources/images/fishbone.png","null","",NA,NA,NA,NA,""
"image-keyboard-response",269,532143,"0.0-3.86-0.86","8l7k49y4vxdpgl7",444,"76.csv","","418.19999980926514","resources/trios/L2T1A3.jpg","37","restless",0.7,0.4,0.5,0.482062836302013,"true"
"image-keyboard-response",270,532567,"0.0-3.86-1.86","8l7k49y4vxdpgl7",444,"76.csv","","null","resources/maskTrios/L2BB.jpg","null","",NA,NA,NA,NA,""
"image-keyboard-response",271,533777,"0.0-3.86-2.86","8l7k49y4vxdpgl7",444,"76.csv","","null","resources/images/coin2.png","null","",NA,NA,NA,NA,""
"image-keyboard-response",272,534145,"0.0-3.87-0.87","8l7k49y4vxdpgl7",444,"76.csv","","365.90000009536743","resources/trios/L4T1A2.jpg","37","restless",0.7,0.4,0.5,0.257311374798485,"true"
"image-keyboard-response",273,534564,"0.0-3.87-1.87","8l7k49y4vxdpgl7",444,"76.csv","","null","resources/maskTrios/L4BB.jpg","null","",NA,NA,NA,NA,""
"image-keyboard-response",274,535786,"0.0-3.87-2.87","8l7k49y4vxdpgl7",444,"76.csv","","null","resources/images/coin2.png","null","",NA,NA,NA,NA,""
"image-keyboard-response",275,536220,"0.0-3.88-0.88","8l7k49y4vxdpgl7",444,"76.csv","","432.2000000476837","resources/trios/L4T2A3.jpg","37","restless",0.7,0.4,0.5,0.90551754380078,"false"
"image-keyboard-response",276,536630,"0.0-3.88-1.88","8l7k49y4vxdpgl7",444,"76.csv","","null","resources/maskTrios/L4BB.jpg","null","",NA,NA,NA,NA,""
"image-keyboard-response",277,537846,"0.0-3.88-2.88","8l7k49y4vxdpgl7",444,"76.csv","","null","resources/images/fishbone.png","null","",NA,NA,NA,NA,""
"image-keyboard-response",278,538227,"0.0-3.89-0.89","8l7k49y4vxdpgl7",444,"76.csv","","378.7999999523163","resources/trios/L2T2A3.jpg","38","restless",0.7,0.4,0.5,0.654414393802989,"false"
"image-keyboard-response",279,538641,"0.0-3.89-1.89","8l7k49y4vxdpgl7",444,"76.csv","","null","resources/maskTrios/BT2B.jpg","null","",NA,NA,NA,NA,""
"image-keyboard-response",280,539863,"0.0-3.89-2.89","8l7k49y4vxdpgl7",444,"76.csv","","null","resources/images/fishbone.png","null","",NA,NA,NA,NA,""
"image-keyboard-response",281,540202,"0.0-3.90-0.90","8l7k49y4vxdpgl7",444,"76.csv","","337","resources/trios/L2T1A3.jpg","38","restless",0.7,0.4,0.5,0.477497229564714,"false"
"image-keyboard-response",282,540623,"0.0-3.90-1.90","8l7k49y4vxdpgl7",444,"76.csv","","null","resources/maskTrios/BT1B.jpg","null","",NA,NA,NA,NA,""
"image-keyboard-response",283,541834,"0.0-3.90-2.90","8l7k49y4vxdpgl7",444,"76.csv","","null","resources/images/fishbone.png","null","",NA,NA,NA,NA,""
"image-keyboard-response",284,542175,"0.0-3.91-0.91","8l7k49y4vxdpgl7",444,"76.csv","","339.5","resources/trios/L2T1A2.jpg","39","restless",0.7,0.4,0.5,0.840329201401423,"false"
"image-keyboard-response",285,542596,"0.0-3.91-1.91","8l7k49y4vxdpgl7",444,"76.csv","","null","resources/maskTrios/BBA2.jpg","null","",NA,NA,NA,NA,""
"image-keyboard-response",286,543805,"0.0-3.91-2.91","8l7k49y4vxdpgl7",444,"76.csv","","null","resources/images/fishbone.png","null","",NA,NA,NA,NA,""
"image-keyboard-response",287,544177,"0.0-3.92-0.92","8l7k49y4vxdpgl7",444,"76.csv","","370.7000000476837","resources/trios/L2T1A3.jpg","39","restless",0.7,0.4,0.5,0.0570273472729912,"true"
"image-keyboard-response",288,544595,"0.0-3.92-1.92","8l7k49y4vxdpgl7",444,"76.csv","","null","resources/maskTrios/BBA3.jpg","null","",NA,NA,NA,NA,""
"image-keyboard-response",289,545815,"0.0-3.92-2.92","8l7k49y4vxdpgl7",444,"76.csv","","null","resources/images/coin2.png","null","",NA,NA,NA,NA,""
"image-keyboard-response",290,546320,"0.0-3.93-0.93","8l7k49y4vxdpgl7",444,"76.csv","","504.2000000476837","resources/trios/L4T1A2.jpg","37","restless",0.7,0.4,0.5,0.854289971156224,"false"
"image-keyboard-response",291,546742,"0.0-3.93-1.93","8l7k49y4vxdpgl7",444,"76.csv","","null","resources/maskTrios/L4BB.jpg","null","",NA,NA,NA,NA,""
"image-keyboard-response",292,547949,"0.0-3.93-2.93","8l7k49y4vxdpgl7",444,"76.csv","","null","resources/images/fishbone.png","null","",NA,NA,NA,NA,""
"image-keyboard-response",293,548573,"0.0-3.94-0.94","8l7k49y4vxdpgl7",444,"76.csv","","622.2999999523163","resources/trios/L4T2A3.jpg","39","restless",0.7,0.5,0.5,0.607167406974114,"false"
"image-keyboard-response",294,548981,"0.0-3.94-1.94","8l7k49y4vxdpgl7",444,"76.csv","","null","resources/maskTrios/BBA3.jpg","null","",NA,NA,NA,NA,""
"image-keyboard-response",295,550191,"0.0-3.94-2.94","8l7k49y4vxdpgl7",444,"76.csv","","null","resources/images/fishbone.png","null","",NA,NA,NA,NA,""
"image-keyboard-response",296,550634,"0.0-3.95-0.95","8l7k49y4vxdpgl7",444,"76.csv","","441.59999990463257","resources/trios/L4T1A2.jpg","39","restless",0.7,0.5,0.5,0.863457467796733,"false"
"image-keyboard-response",297,551050,"0.0-3.95-1.95","8l7k49y4vxdpgl7",444,"76.csv","","null","resources/maskTrios/BBA2.jpg","null","",NA,NA,NA,NA,""
"image-keyboard-response",298,552265,"0.0-3.95-2.95","8l7k49y4vxdpgl7",444,"76.csv","","null","resources/images/fishbone.png","null","",NA,NA,NA,NA,""
"image-keyboard-response",299,552600,"0.0-3.96-0.96","8l7k49y4vxdpgl7",444,"76.csv","","333.2000000476837","resources/trios/L4T1A3.jpg","39","restless",0.7,0.5,0.5,0.365656955498741,"true"
"image-keyboard-response",300,553011,"0.0-3.96-1.96","8l7k49y4vxdpgl7",444,"76.csv","","null","resources/maskTrios/BBA3.jpg","null","",NA,NA,NA,NA,""
"image-keyboard-response",301,554221,"0.0-3.96-2.96","8l7k49y4vxdpgl7",444,"76.csv","","null","resources/images/coin2.png","null","",NA,NA,NA,NA,""
"image-keyboard-response",302,554600,"0.0-3.97-0.97","8l7k49y4vxdpgl7",444,"76.csv","","377","resources/trios/L4T2A2.jpg","39","restless",0.7,0.5,0.5,0.98349923744135,"false"
"image-keyboard-response",303,555008,"0.0-3.97-1.97","8l7k49y4vxdpgl7",444,"76.csv","","null","resources/maskTrios/BBA2.jpg","null","",NA,NA,NA,NA,""
"image-keyboard-response",304,556222,"0.0-3.97-2.97","8l7k49y4vxdpgl7",444,"76.csv","","null","resources/images/fishbone.png","null","",NA,NA,NA,NA,""
"image-keyboard-response",305,556747,"0.0-3.98-0.98","8l7k49y4vxdpgl7",444,"76.csv","","523.2000000476837","resources/trios/L4T1A3.jpg","38","restless",0.7,0.5,0.5,0.366986989551738,"true"
"image-keyboard-response",306,557175,"0.0-3.98-1.98","8l7k49y4vxdpgl7",444,"76.csv","","null","resources/maskTrios/BT1B.jpg","null","",NA,NA,NA,NA,""
"image-keyboard-response",307,558387,"0.0-3.98-2.98","8l7k49y4vxdpgl7",444,"76.csv","","null","resources/images/coin2.png","null","",NA,NA,NA,NA,""
"image-keyboard-response",308,559066,"0.0-3.99-0.99","8l7k49y4vxdpgl7",444,"76.csv","","677.3999998569489","resources/trios/L2T1A2.jpg","37","restless",0.7,0.5,0.5,0.442732675497991,"true"
"image-keyboard-response",309,559480,"0.0-3.99-1.99","8l7k49y4vxdpgl7",444,"76.csv","","null","resources/maskTrios/L2BB.jpg","null","",NA,NA,NA,NA,""
"image-keyboard-response",310,560708,"0.0-3.99-2.99","8l7k49y4vxdpgl7",444,"76.csv","","null","resources/images/coin2.png","null","",NA,NA,NA,NA,""
"image-keyboard-response",311,561140,"0.0-3.100-0.100","8l7k49y4vxdpgl7",444,"76.csv","","430.5","resources/trios/L2T2A3.jpg","37","restless",0.7,0.5,0.5,0.189831476623152,"true"
"image-keyboard-response",312,561550,"0.0-3.100-1.100","8l7k49y4vxdpgl7",444,"76.csv","","null","resources/maskTrios/L2BB.jpg","null","",NA,NA,NA,NA,""
"image-keyboard-response",313,562753,"0.0-3.100-2.100","8l7k49y4vxdpgl7",444,"76.csv","","null","resources/images/coin2.png","null","",NA,NA,NA,NA,""
"image-keyboard-response",314,563301,"0.0-3.101-0.101","8l7k49y4vxdpgl7",444,"76.csv","","545.5","resources/trios/L2T1A3.jpg","38","restless",0.7,0.5,0.5,0.869637509560859,"false"
"image-keyboard-response",315,563707,"0.0-3.101-1.101","8l7k49y4vxdpgl7",444,"76.csv","","null","resources/maskTrios/BT1B.jpg","null","",NA,NA,NA,NA,""
"image-keyboard-response",316,564924,"0.0-3.101-2.101","8l7k49y4vxdpgl7",444,"76.csv","","null","resources/images/fishbone.png","null","",NA,NA,NA,NA,""
"image-keyboard-response",317,565621,"0.0-3.102-0.102","8l7k49y4vxdpgl7",444,"76.csv","","696","resources/trios/L2T2A3.jpg","37","restless",0.7,0.5,0.5,0.0943675432385322,"true"
"image-keyboard-response",318,566032,"0.0-3.102-1.102","8l7k49y4vxdpgl7",444,"76.csv","","null","resources/maskTrios/L2BB.jpg","null","",NA,NA,NA,NA,""
"image-keyboard-response",319,567256,"0.0-3.102-2.102","8l7k49y4vxdpgl7",444,"76.csv","","null","resources/images/coin2.png","null","",NA,NA,NA,NA,""
"image-keyboard-response",320,567679,"0.0-3.103-0.103","8l7k49y4vxdpgl7",444,"76.csv","","421.39999985694885","resources/trios/L4T2A2.jpg","37","restless",0.6,0.5,0.4,0.0873276272284131,"true"
"image-keyboard-response",321,568090,"0.0-3.103-1.103","8l7k49y4vxdpgl7",444,"76.csv","","null","resources/maskTrios/L4BB.jpg","null","",NA,NA,NA,NA,""
"image-keyboard-response",322,569305,"0.0-3.103-2.103","8l7k49y4vxdpgl7",444,"76.csv","","null","resources/images/coin2.png","null","",NA,NA,NA,NA,""
"image-keyboard-response",323,569715,"0.0-3.104-0.104","8l7k49y4vxdpgl7",444,"76.csv","","408.19999980926514","resources/trios/L4T1A3.jpg","39","restless",0.6,0.5,0.4,0.535914153820716,"false"
"image-keyboard-response",324,570136,"0.0-3.104-1.104","8l7k49y4vxdpgl7",444,"76.csv","","null","resources/maskTrios/BBA3.jpg","null","",NA,NA,NA,NA,""
"image-keyboard-response",325,571353,"0.0-3.104-2.104","8l7k49y4vxdpgl7",444,"76.csv","","null","resources/images/fishbone.png","null","",NA,NA,NA,NA,""
"image-keyboard-response",326,571896,"0.0-3.105-0.105","8l7k49y4vxdpgl7",444,"76.csv","","541.2999999523163","resources/trios/L2T2A2.jpg","37","restless",0.6,0.5,0.4,0.52302607579617,"true"
"image-keyboard-response",327,572319,"0.0-3.105-1.105","8l7k49y4vxdpgl7",444,"76.csv","","null","resources/maskTrios/L2BB.jpg","null","",NA,NA,NA,NA,""
"image-keyboard-response",328,573551,"0.0-3.105-2.105","8l7k49y4vxdpgl7",444,"76.csv","","null","resources/images/coin2.png","null","",NA,NA,NA,NA,""
"image-keyboard-response",329,574208,"0.0-3.106-0.106","8l7k49y4vxdpgl7",444,"76.csv","","655.7000000476837","resources/trios/L4T1A2.jpg","39","restless",0.5,0.5,0.4,0.892336370603799,"false"
"image-keyboard-response",330,574628,"0.0-3.106-1.106","8l7k49y4vxdpgl7",444,"76.csv","","null","resources/maskTrios/BBA2.jpg","null","",NA,NA,NA,NA,""
"image-keyboard-response",331,575834,"0.0-3.106-2.106","8l7k49y4vxdpgl7",444,"76.csv","","null","resources/images/fishbone.png","null","",NA,NA,NA,NA,""
"image-keyboard-response",332,576254,"0.0-3.107-0.107","8l7k49y4vxdpgl7",444,"76.csv","","419.2000000476837","resources/trios/L4T1A2.jpg","38","restless",0.5,0.5,0.4,0.272006969155596,"true"
"image-keyboard-response",333,576670,"0.0-3.107-1.107","8l7k49y4vxdpgl7",444,"76.csv","","null","resources/maskTrios/BT1B.jpg","null","",NA,NA,NA,NA,""
"image-keyboard-response",334,577881,"0.0-3.107-2.107","8l7k49y4vxdpgl7",444,"76.csv","","null","resources/images/coin2.png","null","",NA,NA,NA,NA,""
"image-keyboard-response",335,578336,"0.0-3.108-0.108","8l7k49y4vxdpgl7",444,"76.csv","","454.2000000476837","resources/trios/L4T2A2.jpg","38","restless",0.5,0.5,0.4,0.918485701429442,"false"
"image-keyboard-response",336,578753,"0.0-3.108-1.108","8l7k49y4vxdpgl7",444,"76.csv","","null","resources/maskTrios/BT2B.jpg","null","",NA,NA,NA,NA,""
"image-keyboard-response",337,579964,"0.0-3.108-2.108","8l7k49y4vxdpgl7",444,"76.csv","","null","resources/images/fishbone.png","null","",NA,NA,NA,NA,""
"image-keyboard-response",338,580343,"0.0-3.109-0.109","8l7k49y4vxdpgl7",444,"76.csv","","377.40000009536743","resources/trios/L2T2A3.jpg","39","restless",0.5,0.5,0.4,0.551362505090105,"false"
"image-keyboard-response",339,580761,"0.0-3.109-1.109","8l7k49y4vxdpgl7",444,"76.csv","","null","resources/maskTrios/BBA3.jpg","null","",NA,NA,NA,NA,""
"image-keyboard-response",340,581972,"0.0-3.109-2.109","8l7k49y4vxdpgl7",444,"76.csv","","null","resources/images/fishbone.png","null","",NA,NA,NA,NA,""
"image-keyboard-response",341,582390,"0.0-3.110-0.110","8l7k49y4vxdpgl7",444,"76.csv","","416.7000000476837","resources/trios/L2T2A3.jpg","37","restless",0.5,0.4,0.4,0.455470850485053,"true"
"image-keyboard-response",342,582800,"0.0-3.110-1.110","8l7k49y4vxdpgl7",444,"76.csv","","null","resources/maskTrios/L2BB.jpg","null","",NA,NA,NA,NA,""
"image-keyboard-response",343,584011,"0.0-3.110-2.110","8l7k49y4vxdpgl7",444,"76.csv","","null","resources/images/coin2.png","null","",NA,NA,NA,NA,""
"image-keyboard-response",344,584482,"0.0-3.111-0.111","8l7k49y4vxdpgl7",444,"76.csv","","469.90000009536743","resources/trios/L2T1A3.jpg","37","restless",0.5,0.4,0.4,0.443079211542705,"true"
"image-keyboard-response",345,584909,"0.0-3.111-1.111","8l7k49y4vxdpgl7",444,"76.csv","","null","resources/maskTrios/L2BB.jpg","null","",NA,NA,NA,NA,""
"image-keyboard-response",346,586120,"0.0-3.111-2.111","8l7k49y4vxdpgl7",444,"76.csv","","null","resources/images/coin2.png","null","",NA,NA,NA,NA,""
"image-keyboard-response",347,586547,"0.0-3.112-0.112","8l7k49y4vxdpgl7",444,"76.csv","","424.7999999523163","resources/trios/L2T1A3.jpg","37","restless",0.5,0.4,0.4,0.25436424360604,"true"
"image-keyboard-response",348,586965,"0.0-3.112-1.112","8l7k49y4vxdpgl7",444,"76.csv","","null","resources/maskTrios/L2BB.jpg","null","",NA,NA,NA,NA,""
"image-keyboard-response",349,588191,"0.0-3.112-2.112","8l7k49y4vxdpgl7",444,"76.csv","","null","resources/images/coin2.png","null","",NA,NA,NA,NA,""
"image-keyboard-response",350,588810,"0.0-3.113-0.113","8l7k49y4vxdpgl7",444,"76.csv","","617.1000001430511","resources/trios/L4T1A3.jpg","38","restless",0.5,0.4,0.4,0.237682239168389,"true"
"image-keyboard-response",351,589222,"0.0-3.113-1.113","8l7k49y4vxdpgl7",444,"76.csv","","null","resources/maskTrios/BT1B.jpg","null","",NA,NA,NA,NA,""
"image-keyboard-response",352,590432,"0.0-3.113-2.113","8l7k49y4vxdpgl7",444,"76.csv","","null","resources/images/coin2.png","null","",NA,NA,NA,NA,""
"image-keyboard-response",353,590709,"0.0-3.114-0.114","8l7k49y4vxdpgl7",444,"76.csv","","275.2000000476837","resources/trios/L2T2A2.jpg","37","restless",0.5,0.5,0.4,0.0974413837343171,"true"
"image-keyboard-response",354,591120,"0.0-3.114-1.114","8l7k49y4vxdpgl7",444,"76.csv","","null","resources/maskTrios/L2BB.jpg","null","",NA,NA,NA,NA,""
"image-keyboard-response",355,592347,"0.0-3.114-2.114","8l7k49y4vxdpgl7",444,"76.csv","","null","resources/images/coin2.png","null","",NA,NA,NA,NA,""
"image-keyboard-response",356,592689,"0.0-3.115-0.115","8l7k49y4vxdpgl7",444,"76.csv","","340.39999985694885","resources/trios/L4T2A3.jpg","38","restless",0.5,0.5,0.3,0.654419865982492,"false"
"image-keyboard-response",357,593097,"0.0-3.115-1.115","8l7k49y4vxdpgl7",444,"76.csv","","null","resources/maskTrios/BT2B.jpg","null","",NA,NA,NA,NA,""
"image-keyboard-response",358,594315,"0.0-3.115-2.115","8l7k49y4vxdpgl7",444,"76.csv","","null","resources/images/fishbone.png","null","",NA,NA,NA,NA,""
"image-keyboard-response",359,594583,"0.0-3.116-0.116","8l7k49y4vxdpgl7",444,"76.csv","","265.40000009536743","resources/trios/L4T2A3.jpg","39","restless",0.5,0.5,0.4,0.123067644852126,"true"
"image-keyboard-response",360,594995,"0.0-3.116-1.116","8l7k49y4vxdpgl7",444,"76.csv","","null","resources/maskTrios/BBA3.jpg","null","",NA,NA,NA,NA,""
"image-keyboard-response",361,596221,"0.0-3.116-2.116","8l7k49y4vxdpgl7",444,"76.csv","","null","resources/images/coin2.png","null","",NA,NA,NA,NA,""
"image-keyboard-response",362,596514,"0.0-3.117-0.117","8l7k49y4vxdpgl7",444,"76.csv","","291.40000009536743","resources/trios/L2T2A3.jpg","39","restless",0.5,0.5,0.4,0.0280134174588946,"true"
"image-keyboard-response",363,596932,"0.0-3.117-1.117","8l7k49y4vxdpgl7",444,"76.csv","","null","resources/maskTrios/BBA3.jpg","null","",NA,NA,NA,NA,""
"image-keyboard-response",364,598145,"0.0-3.117-2.117","8l7k49y4vxdpgl7",444,"76.csv","","null","resources/images/coin2.png","null","",NA,NA,NA,NA,""
"image-keyboard-response",365,598794,"0.0-3.118-0.118","8l7k49y4vxdpgl7",444,"76.csv","","648","resources/trios/L2T1A2.jpg","37","restless",0.5,0.5,0.4,0.0577286455657056,"true"
"image-keyboard-response",366,599208,"0.0-3.118-1.118","8l7k49y4vxdpgl7",444,"76.csv","","null","resources/maskTrios/L2BB.jpg","null","",NA,NA,NA,NA,""
"image-keyboard-response",367,600431,"0.0-3.118-2.118","8l7k49y4vxdpgl7",444,"76.csv","","null","resources/images/coin2.png","null","",NA,NA,NA,NA,""
"image-keyboard-response",368,600716,"0.0-3.119-0.119","8l7k49y4vxdpgl7",444,"76.csv","","282.7999999523163","resources/trios/L2T1A2.jpg","37","restless",0.5,0.5,0.4,0.24973641010302,"true"
"image-keyboard-response",369,601129,"0.0-3.119-1.119","8l7k49y4vxdpgl7",444,"76.csv","","null","resources/maskTrios/L2BB.jpg","null","",NA,NA,NA,NA,""
"image-keyboard-response",370,602350,"0.0-3.119-2.119","8l7k49y4vxdpgl7",444,"76.csv","","null","resources/images/coin2.png","null","",NA,NA,NA,NA,""
"image-keyboard-response",371,602390,"0.0-3.120-0.120","8l7k49y4vxdpgl7",444,"76.csv","","38.5","resources/trios/L2T2A2.jpg","37","restless",0.5,0.5,0.5,0.0838721429980542,"true"
"image-keyboard-response",372,602807,"0.0-3.120-1.120","8l7k49y4vxdpgl7",444,"76.csv","","null","resources/maskTrios/L2BB.jpg","null","",NA,NA,NA,NA,""
"image-keyboard-response",373,604027,"0.0-3.120-2.120","8l7k49y4vxdpgl7",444,"76.csv","","null","resources/images/coin2.png","null","",NA,NA,NA,NA,""
"image-keyboard-response",374,604592,"0.0-3.121-0.121","8l7k49y4vxdpgl7",444,"76.csv","","563.7999999523163","resources/trios/L4T2A3.jpg","39","restless",0.5,0.5,0.5,0.691024268836057,"false"
"image-keyboard-response",375,605012,"0.0-3.121-1.121","8l7k49y4vxdpgl7",444,"76.csv","","null","resources/maskTrios/BBA3.jpg","null","",NA,NA,NA,NA,""
"image-keyboard-response",376,606222,"0.0-3.121-2.121","8l7k49y4vxdpgl7",444,"76.csv","","null","resources/images/fishbone.png","null","",NA,NA,NA,NA,""
"image-keyboard-response",377,606655,"0.0-3.122-0.122","8l7k49y4vxdpgl7",444,"76.csv","","432.40000009536743","resources/trios/L4T2A2.jpg","37","restless",0.5,0.5,0.5,0.548823119907266,"false"
"image-keyboard-response",378,607073,"0.0-3.122-1.122","8l7k49y4vxdpgl7",444,"76.csv","","null","resources/maskTrios/L4BB.jpg","null","",NA,NA,NA,NA,""
"image-keyboard-response",379,608284,"0.0-3.122-2.122","8l7k49y4vxdpgl7",444,"76.csv","","null","resources/images/fishbone.png","null","",NA,NA,NA,NA,""
"image-keyboard-response",380,608360,"0.0-3.123-0.123","8l7k49y4vxdpgl7",444,"76.csv","","74.5","resources/trios/L4T2A3.jpg","37","restless",0.5,0.5,0.5,0.704709307849176,"false"
"image-keyboard-response",381,608780,"0.0-3.123-1.123","8l7k49y4vxdpgl7",444,"76.csv","","null","resources/maskTrios/L4BB.jpg","null","",NA,NA,NA,NA,""
"image-keyboard-response",382,609998,"0.0-3.123-2.123","8l7k49y4vxdpgl7",444,"76.csv","","null","resources/images/fishbone.png","null","",NA,NA,NA,NA,""
"image-keyboard-response",383,610355,"0.0-3.124-0.124","8l7k49y4vxdpgl7",444,"76.csv","","356.2999999523163","resources/trios/L2T2A2.jpg","37","restless",0.5,0.5,0.5,0.195976998475238,"true"
"image-keyboard-response",384,610768,"0.0-3.124-1.124","8l7k49y4vxdpgl7",444,"76.csv","","null","resources/maskTrios/L2BB.jpg","null","",NA,NA,NA,NA,""
"image-keyboard-response",385,611988,"0.0-3.124-2.124","8l7k49y4vxdpgl7",444,"76.csv","","null","resources/images/coin2.png","null","",NA,NA,NA,NA,""
"image-keyboard-response",386,612319,"0.0-3.125-0.125","8l7k49y4vxdpgl7",444,"76.csv","","329.2999999523163","resources/trios/L2T1A3.jpg","37","restless",0.5,0.5,0.5,0.112082236859707,"true"
"image-keyboard-response",387,612738,"0.0-3.125-1.125","8l7k49y4vxdpgl7",444,"76.csv","","null","resources/maskTrios/L2BB.jpg","null","",NA,NA,NA,NA,""
"image-keyboard-response",388,613960,"0.0-3.125-2.125","8l7k49y4vxdpgl7",444,"76.csv","","null","resources/images/coin2.png","null","",NA,NA,NA,NA,""
"image-keyboard-response",389,614297,"0.0-3.126-0.126","8l7k49y4vxdpgl7",444,"76.csv","","336","resources/trios/L4T1A3.jpg","37","restless",0.5,0.5,0.5,0.109802044222585,"true"
"image-keyboard-response",390,614710,"0.0-3.126-1.126","8l7k49y4vxdpgl7",444,"76.csv","","null","resources/maskTrios/L4BB.jpg","null","",NA,NA,NA,NA,""
"image-keyboard-response",391,615914,"0.0-3.126-2.126","8l7k49y4vxdpgl7",444,"76.csv","","null","resources/images/coin2.png","null","",NA,NA,NA,NA,""
"image-keyboard-response",392,616229,"0.0-3.127-0.127","8l7k49y4vxdpgl7",444,"76.csv","","313.10000014305115","resources/trios/L4T1A2.jpg","37","restless",0.5,0.5,0.5,0.737360100994385,"false"
"image-keyboard-response",393,616640,"0.0-3.127-1.127","8l7k49y4vxdpgl7",444,"76.csv","","null","resources/maskTrios/L4BB.jpg","null","",NA,NA,NA,NA,""
"image-keyboard-response",394,617850,"0.0-3.127-2.127","8l7k49y4vxdpgl7",444,"76.csv","","null","resources/images/fishbone.png","null","",NA,NA,NA,NA,""
"image-keyboard-response",395,618175,"0.0-3.128-0.128","8l7k49y4vxdpgl7",444,"76.csv","","324","resources/trios/L4T2A3.jpg","37","restless",0.5,0.5,0.5,0.320189950347471,"true"
"image-keyboard-response",396,618598,"0.0-3.128-1.128","8l7k49y4vxdpgl7",444,"76.csv","","null","resources/maskTrios/L4BB.jpg","null","",NA,NA,NA,NA,""
"image-keyboard-response",397,619814,"0.0-3.128-2.128","8l7k49y4vxdpgl7",444,"76.csv","","null","resources/images/coin2.png","null","",NA,NA,NA,NA,""
"image-keyboard-response",398,620528,"0.0-3.129-0.129","8l7k49y4vxdpgl7",444,"76.csv","","712.1000001430511","resources/trios/L4T1A2.jpg","37","restless",0.5,0.5,0.6,0.531838262646068,"false"
"image-keyboard-response",399,620942,"0.0-3.129-1.129","8l7k49y4vxdpgl7",444,"76.csv","","null","resources/maskTrios/L4BB.jpg","null","",NA,NA,NA,NA,""
"image-keyboard-response",400,622152,"0.0-3.129-2.129","8l7k49y4vxdpgl7",444,"76.csv","","null","resources/images/fishbone.png","null","",NA,NA,NA,NA,""
"image-keyboard-response",401,630749,"0.0-3.130-0.130","8l7k49y4vxdpgl7",444,"76.csv","","8599.100000143051","resources/trios/L4T1A2.jpg","38","restless",0.5,0.5,0.6,0.715382610230133,"false"
"image-keyboard-response",402,631161,"0.0-3.130-1.130","8l7k49y4vxdpgl7",444,"76.csv","","null","resources/maskTrios/BT1B.jpg","null","",NA,NA,NA,NA,""
"image-keyboard-response",403,632371,"0.0-3.130-2.130","8l7k49y4vxdpgl7",444,"76.csv","","null","resources/images/fishbone.png","null","",NA,NA,NA,NA,""
"image-keyboard-response",404,632712,"0.0-3.131-0.131","8l7k49y4vxdpgl7",444,"76.csv","","339.60000014305115","resources/trios/L4T2A2.jpg","39","restless",0.5,0.5,0.6,0.409005873327164,"true"
"image-keyboard-response",405,633121,"0.0-3.131-1.131","8l7k49y4vxdpgl7",444,"76.csv","","null","resources/maskTrios/BBA2.jpg","null","",NA,NA,NA,NA,""
"image-keyboard-response",406,634331,"0.0-3.131-2.131","8l7k49y4vxdpgl7",444,"76.csv","","null","resources/images/coin2.png","null","",NA,NA,NA,NA,""
"image-keyboard-response",407,634649,"0.0-3.132-0.132","8l7k49y4vxdpgl7",444,"76.csv","","316.7000000476837","resources/trios/L2T2A3.jpg","39","restless",0.5,0.5,0.6,0.556789929637882,"true"
"image-keyboard-response",408,635071,"0.0-3.132-1.132","8l7k49y4vxdpgl7",444,"76.csv","","null","resources/maskTrios/BBA3.jpg","null","",NA,NA,NA,NA,""
"image-keyboard-response",409,636281,"0.0-3.132-2.132","8l7k49y4vxdpgl7",444,"76.csv","","null","resources/images/coin2.png","null","",NA,NA,NA,NA,""
"image-keyboard-response",410,636712,"0.0-3.133-0.133","8l7k49y4vxdpgl7",444,"76.csv","","429.2999999523163","resources/trios/L2T1A3.jpg","38","restless",0.5,0.5,0.7,0.672984594898828,"false"
"image-keyboard-response",411,637117,"0.0-3.133-1.133","8l7k49y4vxdpgl7",444,"76.csv","","null","resources/maskTrios/BT1B.jpg","null","",NA,NA,NA,NA,""
"image-keyboard-response",412,638335,"0.0-3.133-2.133","8l7k49y4vxdpgl7",444,"76.csv","","null","resources/images/fishbone.png","null","",NA,NA,NA,NA,""
"image-keyboard-response",413,638633,"0.0-3.134-0.134","8l7k49y4vxdpgl7",444,"76.csv","","296.5","resources/trios/L2T2A3.jpg","38","restless",0.5,0.5,0.7,0.557894313365833,"false"
"image-keyboard-response",414,639051,"0.0-3.134-1.134","8l7k49y4vxdpgl7",444,"76.csv","","null","resources/maskTrios/BT2B.jpg","null","",NA,NA,NA,NA,""
"image-keyboard-response",415,640271,"0.0-3.134-2.134","8l7k49y4vxdpgl7",444,"76.csv","","null","resources/images/fishbone.png","null","",NA,NA,NA,NA,""
"image-keyboard-response",416,640568,"0.0-3.135-0.135","8l7k49y4vxdpgl7",444,"76.csv","","295.10000014305115","resources/trios/L4T1A2.jpg","38","restless",0.5,0.5,0.7,0.665241402439669,"false"
"image-keyboard-response",417,640980,"0.0-3.135-1.135","8l7k49y4vxdpgl7",444,"76.csv","","null","resources/maskTrios/BT1B.jpg","null","",NA,NA,NA,NA,""
"image-keyboard-response",418,642191,"0.0-3.135-2.135","8l7k49y4vxdpgl7",444,"76.csv","","null","resources/images/fishbone.png","null","",NA,NA,NA,NA,""
"image-keyboard-response",419,642482,"0.0-3.136-0.136","8l7k49y4vxdpgl7",444,"76.csv","","290","resources/trios/L4T1A2.jpg","39","restless",0.4,0.5,0.7,0.46876761227446,"true"
"image-keyboard-response",420,642900,"0.0-3.136-1.136","8l7k49y4vxdpgl7",444,"76.csv","","null","resources/maskTrios/BBA2.jpg","null","",NA,NA,NA,NA,""
"image-keyboard-response",421,644117,"0.0-3.136-2.136","8l7k49y4vxdpgl7",444,"76.csv","","null","resources/images/coin2.png","null","",NA,NA,NA,NA,""
"image-keyboard-response",422,644448,"0.0-3.137-0.137","8l7k49y4vxdpgl7",444,"76.csv","","329.59999990463257","resources/trios/L2T2A3.jpg","39","restless",0.4,0.5,0.7,0.976386320999948,"false"
"image-keyboard-response",423,644860,"0.0-3.137-1.137","8l7k49y4vxdpgl7",444,"76.csv","","null","resources/maskTrios/BBA3.jpg","null","",NA,NA,NA,NA,""
"image-keyboard-response",424,646071,"0.0-3.137-2.137","8l7k49y4vxdpgl7",444,"76.csv","","null","resources/images/fishbone.png","null","",NA,NA,NA,NA,""
"image-keyboard-response",425,646392,"0.0-3.138-0.138","8l7k49y4vxdpgl7",444,"76.csv","","320.40000009536743","resources/trios/L4T1A2.jpg","39","restless",0.4,0.5,0.7,0.852353845948319,"false"
"image-keyboard-response",426,646811,"0.0-3.138-1.138","8l7k49y4vxdpgl7",444,"76.csv","","null","resources/maskTrios/BBA2.jpg","null","",NA,NA,NA,NA,""
"image-keyboard-response",427,648031,"0.0-3.138-2.138","8l7k49y4vxdpgl7",444,"76.csv","","null","resources/images/fishbone.png","null","",NA,NA,NA,NA,""
"image-keyboard-response",428,649313,"0.0-3.139-0.139","8l7k49y4vxdpgl7",444,"76.csv","","1281.1000001430511","resources/trios/L2T1A3.jpg","39","restless",0.4,0.5,0.8,0.414193085562776,"true"
"image-keyboard-response",429,649729,"0.0-3.139-1.139","8l7k49y4vxdpgl7",444,"76.csv","","null","resources/maskTrios/BBA3.jpg","null","",NA,NA,NA,NA,""
"image-keyboard-response",430,650941,"0.0-3.139-2.139","8l7k49y4vxdpgl7",444,"76.csv","","null","resources/images/coin2.png","null","",NA,NA,NA,NA,""
"image-keyboard-response",431,651386,"0.0-3.140-0.140","8l7k49y4vxdpgl7",444,"76.csv","","443","resources/trios/L2T2A3.jpg","37","restless",0.4,0.4,0.7,0.629476706027212,"false"
"image-keyboard-response",432,651791,"0.0-3.140-1.140","8l7k49y4vxdpgl7",444,"76.csv","","null","resources/maskTrios/L2BB.jpg","null","",NA,NA,NA,NA,""
"image-keyboard-response",433,653011,"0.0-3.140-2.140","8l7k49y4vxdpgl7",444,"76.csv","","null","resources/images/fishbone.png","null","",NA,NA,NA,NA,""
"image-keyboard-response",434,654065,"0.0-3.141-0.141","8l7k49y4vxdpgl7",444,"76.csv","","1052.8999998569489","resources/trios/L4T2A3.jpg","39","restless",0.4,0.4,0.7,0.716722853966017,"false"
"image-keyboard-response",435,654471,"0.0-3.141-1.141","8l7k49y4vxdpgl7",444,"76.csv","","null","resources/maskTrios/BBA3.jpg","null","",NA,NA,NA,NA,""
"image-keyboard-response",436,655691,"0.0-3.141-2.141","8l7k49y4vxdpgl7",444,"76.csv","","null","resources/images/fishbone.png","null","",NA,NA,NA,NA,""
"image-keyboard-response",437,656825,"0.0-3.142-0.142","8l7k49y4vxdpgl7",444,"76.csv","","1132.7999999523163","resources/trios/L2T2A3.jpg","38","restless",0.4,0.4,0.7,0.532438957682719,"false"
"image-keyboard-response",438,657236,"0.0-3.142-1.142","8l7k49y4vxdpgl7",444,"76.csv","","null","resources/maskTrios/BT2B.jpg","null","",NA,NA,NA,NA,""
"image-keyboard-response",439,658449,"0.0-3.142-2.142","8l7k49y4vxdpgl7",444,"76.csv","","null","resources/images/fishbone.png","null","",NA,NA,NA,NA,""
"image-keyboard-response",440,658817,"0.0-3.143-0.143","8l7k49y4vxdpgl7",444,"76.csv","","367.10000014305115","resources/trios/L2T2A2.jpg","39","restless",0.4,0.3,0.7,0.115199348738329,"true"
"image-keyboard-response",441,659231,"0.0-3.143-1.143","8l7k49y4vxdpgl7",444,"76.csv","","null","resources/maskTrios/BBA2.jpg","null","",NA,NA,NA,NA,""
"image-keyboard-response",442,660444,"0.0-3.143-2.143","8l7k49y4vxdpgl7",444,"76.csv","","null","resources/images/coin2.png","null","",NA,NA,NA,NA,""
"image-keyboard-response",443,661013,"0.0-3.144-0.144","8l7k49y4vxdpgl7",444,"76.csv","","568","resources/trios/L2T2A3.jpg","37","restless",0.4,0.3,0.7,0.0590859160414379,"true"
"image-keyboard-response",444,661431,"0.0-3.144-1.144","8l7k49y4vxdpgl7",444,"76.csv","","null","resources/maskTrios/L2BB.jpg","null","",NA,NA,NA,NA,""
"image-keyboard-response",445,662637,"0.0-3.144-2.144","8l7k49y4vxdpgl7",444,"76.csv","","null","resources/images/coin2.png","null","",NA,NA,NA,NA,""
"image-keyboard-response",446,663056,"0.0-3.145-0.145","8l7k49y4vxdpgl7",444,"76.csv","","417.60000014305115","resources/trios/L2T1A3.jpg","39","restless",0.4,0.3,0.7,0.853028898742346,"false"
"image-keyboard-response",447,663461,"0.0-3.145-1.145","8l7k49y4vxdpgl7",444,"76.csv","","null","resources/maskTrios/BBA3.jpg","null","",NA,NA,NA,NA,""
"image-keyboard-response",448,664672,"0.0-3.145-2.145","8l7k49y4vxdpgl7",444,"76.csv","","null","resources/images/fishbone.png","null","",NA,NA,NA,NA,""
"image-keyboard-response",449,665294,"0.0-3.146-0.146","8l7k49y4vxdpgl7",444,"76.csv","","621.0999999046326","resources/trios/L4T2A2.jpg","37","restless",0.4,0.3,0.7,0.987974289223468,"false"
"image-keyboard-response",450,665706,"0.0-3.146-1.146","8l7k49y4vxdpgl7",444,"76.csv","","null","resources/maskTrios/L4BB.jpg","null","",NA,NA,NA,NA,""
"image-keyboard-response",451,666921,"0.0-3.146-2.146","8l7k49y4vxdpgl7",444,"76.csv","","null","resources/images/fishbone.png","null","",NA,NA,NA,NA,""
"image-keyboard-response",452,667544,"0.0-3.147-0.147","8l7k49y4vxdpgl7",444,"76.csv","","621.9000000953674","resources/trios/L4T1A2.jpg","38","restless",0.4,0.2,0.6,0.0140122858198792,"true"
"image-keyboard-response",453,667951,"0.0-3.147-1.147","8l7k49y4vxdpgl7",444,"76.csv","","null","resources/maskTrios/BT1B.jpg","null","",NA,NA,NA,NA,""
"image-keyboard-response",454,669164,"0.0-3.147-2.147","8l7k49y4vxdpgl7",444,"76.csv","","null","resources/images/coin2.png","null","",NA,NA,NA,NA,""
"image-keyboard-response",455,669534,"0.0-3.148-0.148","8l7k49y4vxdpgl7",444,"76.csv","","368.5","resources/trios/L2T1A3.jpg","38","restless",0.4,0.2,0.6,0.810559732050324,"false"
"image-keyboard-response",456,669948,"0.0-3.148-1.148","8l7k49y4vxdpgl7",444,"76.csv","","null","resources/maskTrios/BT1B.jpg","null","",NA,NA,NA,NA,""
"image-keyboard-response",457,671171,"0.0-3.148-2.148","8l7k49y4vxdpgl7",444,"76.csv","","null","resources/images/fishbone.png","null","",NA,NA,NA,NA,""
"image-keyboard-response",458,671735,"0.0-3.149-0.149","8l7k49y4vxdpgl7",444,"76.csv","","562.1000001430511","resources/trios/L2T1A3.jpg","37","restless",0.4,0.2,0.6,0.318279782709939,"true"
"image-keyboard-response",459,672141,"0.0-3.149-1.149","8l7k49y4vxdpgl7",444,"76.csv","","null","resources/maskTrios/L2BB.jpg","null","",NA,NA,NA,NA,""
"image-keyboard-response",460,673361,"0.0-3.149-2.149","8l7k49y4vxdpgl7",444,"76.csv","","null","resources/images/coin2.png","null","",NA,NA,NA,NA,""
"image-keyboard-response",461,673809,"0.0-3.150-0.150","8l7k49y4vxdpgl7",444,"76.csv","","446.7000000476837","resources/trios/L2T2A2.jpg","39","restless",0.4,0.1,0.6,0.697356860152111,"false"
"image-keyboard-response",462,674231,"0.0-3.150-1.150","8l7k49y4vxdpgl7",444,"76.csv","","null","resources/maskTrios/BBA2.jpg","null","",NA,NA,NA,NA,""
"image-keyboard-response",463,675441,"0.0-3.150-2.150","8l7k49y4vxdpgl7",444,"76.csv","","null","resources/images/fishbone.png","null","",NA,NA,NA,NA,""
"image-keyboard-response",464,675933,"0.0-3.151-0.151","8l7k49y4vxdpgl7",444,"76.csv","","490.30000019073486","resources/trios/L2T2A3.jpg","37","restless",0.4,0.1,0.6,0.286042745025534,"true"
"image-keyboard-response",465,676356,"0.0-3.151-1.151","8l7k49y4vxdpgl7",444,"76.csv","","null","resources/maskTrios/L2BB.jpg","null","",NA,NA,NA,NA,""
"image-keyboard-response",466,677570,"0.0-3.151-2.151","8l7k49y4vxdpgl7",444,"76.csv","","null","resources/images/coin2.png","null","",NA,NA,NA,NA,""
"image-keyboard-response",467,681598,"0.0-3.152-0.152","8l7k49y4vxdpgl7",444,"76.csv","","4026.5","resources/trios/L2T1A3.jpg","38","restless",0.4,0.1,0.6,0.0955349822838649,"true"
"image-keyboard-response",468,682016,"0.0-3.152-1.152","8l7k49y4vxdpgl7",444,"76.csv","","null","resources/maskTrios/BT1B.jpg","null","",NA,NA,NA,NA,""
"image-keyboard-response",469,683223,"0.0-3.152-2.152","8l7k49y4vxdpgl7",444,"76.csv","","null","resources/images/coin2.png","null","",NA,NA,NA,NA,""
"image-keyboard-response",470,683368,"0.0-3.153-0.153","8l7k49y4vxdpgl7",444,"76.csv","","145","resources/trios/L2T1A3.jpg","39","restless",0.4,0.1,0.7,0.508571064523856,"true"
"image-keyboard-response",471,683781,"0.0-3.153-1.153","8l7k49y4vxdpgl7",444,"76.csv","","null","resources/maskTrios/BBA3.jpg","null","",NA,NA,NA,NA,""
"image-keyboard-response",472,685001,"0.0-3.153-2.153","8l7k49y4vxdpgl7",444,"76.csv","","null","resources/images/coin2.png","null","",NA,NA,NA,NA,""
"image-keyboard-response",473,685582,"0.0-3.154-0.154","8l7k49y4vxdpgl7",444,"76.csv","","580","resources/trios/L2T1A2.jpg","37","restless",0.4,0.1,0.7,0.860590656709546,"false"
"image-keyboard-response",474,685991,"0.0-3.154-1.154","8l7k49y4vxdpgl7",444,"76.csv","","null","resources/maskTrios/L2BB.jpg","null","",NA,NA,NA,NA,""
"image-keyboard-response",475,687202,"0.0-3.154-2.154","8l7k49y4vxdpgl7",444,"76.csv","","null","resources/images/fishbone.png","null","",NA,NA,NA,NA,""
"image-keyboard-response",476,688121,"0.0-3.155-0.155","8l7k49y4vxdpgl7",444,"76.csv","","918.8999998569489","resources/trios/L2T2A2.jpg","39","restless",0.4,0.1,0.7,0.986188838676065,"false"
"image-keyboard-response",477,688531,"0.0-3.155-1.155","8l7k49y4vxdpgl7",444,"76.csv","","null","resources/maskTrios/BBA2.jpg","null","",NA,NA,NA,NA,""
"image-keyboard-response",478,689757,"0.0-3.155-2.155","8l7k49y4vxdpgl7",444,"76.csv","","null","resources/images/fishbone.png","null","",NA,NA,NA,NA,""
"image-keyboard-response",479,690052,"0.0-3.156-0.156","8l7k49y4vxdpgl7",444,"76.csv","","294","resources/trios/L2T1A3.jpg","39","restless",0.4,0.2,0.7,0.729550072882799,"false"
"image-keyboard-response",480,690465,"0.0-3.156-1.156","8l7k49y4vxdpgl7",444,"76.csv","","null","resources/maskTrios/BBA3.jpg","null","",NA,NA,NA,NA,""
"image-keyboard-response",481,691679,"0.0-3.156-2.156","8l7k49y4vxdpgl7",444,"76.csv","","null","resources/images/fishbone.png","null","",NA,NA,NA,NA,""
"image-keyboard-response",482,691772,"0.0-3.157-0.157","8l7k49y4vxdpgl7",444,"76.csv","","90.79999995231628","resources/trios/L2T1A2.jpg","38","restless",0.5,0.3,0.7,0.741774072477957,"false"
"image-keyboard-response",483,692180,"0.0-3.157-1.157","8l7k49y4vxdpgl7",444,"76.csv","","null","resources/maskTrios/BT1B.jpg","null","",NA,NA,NA,NA,""
"image-keyboard-response",484,693394,"0.0-3.157-2.157","8l7k49y4vxdpgl7",444,"76.csv","","null","resources/images/fishbone.png","null","",NA,NA,NA,NA,""
"image-keyboard-response",485,693790,"0.0-3.158-0.158","8l7k49y4vxdpgl7",444,"76.csv","","394.5","resources/trios/L4T1A2.jpg","38","restless",0.5,0.3,0.7,0.281707828853907,"true"
"image-keyboard-response",486,694195,"0.0-3.158-1.158","8l7k49y4vxdpgl7",444,"76.csv","","null","resources/maskTrios/BT1B.jpg","null","",NA,NA,NA,NA,""
"image-keyboard-response",487,695415,"0.0-3.158-2.158","8l7k49y4vxdpgl7",444,"76.csv","","null","resources/images/coin2.png","null","",NA,NA,NA,NA,""
"image-keyboard-response",488,695717,"0.0-3.159-0.159","8l7k49y4vxdpgl7",444,"76.csv","","300.89999985694885","resources/trios/L4T2A2.jpg","38","restless",0.5,0.3,0.7,0.475458742060263,"false"
"image-keyboard-response",489,696135,"0.0-3.159-1.159","8l7k49y4vxdpgl7",444,"76.csv","","null","resources/maskTrios/BT2B.jpg","null","",NA,NA,NA,NA,""
"image-keyboard-response",490,697355,"0.0-3.159-2.159","8l7k49y4vxdpgl7",444,"76.csv","","null","resources/images/fishbone.png","null","",NA,NA,NA,NA,""
"image-keyboard-response",491,697722,"0.0-3.160-0.160","8l7k49y4vxdpgl7",444,"76.csv","","366.40000009536743","resources/trios/L4T2A3.jpg","38","restless",0.5,0.3,0.6,0.185218246022052,"true"
"image-keyboard-response",492,698143,"0.0-3.160-1.160","8l7k49y4vxdpgl7",444,"76.csv","","null","resources/maskTrios/BT2B.jpg","null","",NA,NA,NA,NA,""
"image-keyboard-response",493,699363,"0.0-3.160-2.160","8l7k49y4vxdpgl7",444,"76.csv","","null","resources/images/coin2.png","null","",NA,NA,NA,NA,""
"image-keyboard-response",494,699707,"0.0-3.161-0.161","8l7k49y4vxdpgl7",444,"76.csv","","342.69999980926514","resources/trios/L4T1A3.jpg","38","restless",0.5,0.4,0.6,0.248810454948601,"true"
"image-keyboard-response",495,700115,"0.0-3.161-1.161","8l7k49y4vxdpgl7",444,"76.csv","","null","resources/maskTrios/BT1B.jpg","null","",NA,NA,NA,NA,""
"image-keyboard-response",496,701336,"0.0-3.161-2.161","8l7k49y4vxdpgl7",444,"76.csv","","null","resources/images/coin2.png","null","",NA,NA,NA,NA,""
"image-keyboard-response",497,701651,"0.0-3.162-0.162","8l7k49y4vxdpgl7",444,"76.csv","","314.19999980926514","resources/trios/L2T1A2.jpg","38","restless",0.5,0.4,0.6,0.359841287627334,"true"
"image-keyboard-response",498,702067,"0.0-3.162-1.162","8l7k49y4vxdpgl7",444,"76.csv","","null","resources/maskTrios/BT1B.jpg","null","",NA,NA,NA,NA,""
"image-keyboard-response",499,703285,"0.0-3.162-2.162","8l7k49y4vxdpgl7",444,"76.csv","","null","resources/images/coin2.png","null","",NA,NA,NA,NA,""
"image-keyboard-response",500,703669,"0.0-3.163-0.163","8l7k49y4vxdpgl7",444,"76.csv","","382.2999999523163","resources/trios/L2T2A3.jpg","38","restless",0.6,0.4,0.6,0.181668032116802,"true"
"image-keyboard-response",501,704075,"0.0-3.163-1.163","8l7k49y4vxdpgl7",444,"76.csv","","null","resources/maskTrios/BT2B.jpg","null","",NA,NA,NA,NA,""
"image-keyboard-response",502,705288,"0.0-3.163-2.163","8l7k49y4vxdpgl7",444,"76.csv","","null","resources/images/coin2.png","null","",NA,NA,NA,NA,""
"image-keyboard-response",503,705289,"0.0-3.164-0.164","8l7k49y4vxdpgl7",444,"76.csv","","0.39999985694885254","resources/trios/L4T1A2.jpg","38","restless",0.6,0.4,0.6,0.106435934365771,"true"
"image-keyboard-response",504,705709,"0.0-3.164-1.164","8l7k49y4vxdpgl7",444,"76.csv","","null","resources/maskTrios/BT1B.jpg","null","",NA,NA,NA,NA,""
"image-keyboard-response",505,706925,"0.0-3.164-2.164","8l7k49y4vxdpgl7",444,"76.csv","","null","resources/images/coin2.png","null","",NA,NA,NA,NA,""
"image-keyboard-response",506,707334,"0.0-3.165-0.165","8l7k49y4vxdpgl7",444,"76.csv","","407.7999999523163","resources/trios/L2T2A2.jpg","37","restless",0.6,0.3,0.6,0.701242568753047,"false"
"image-keyboard-response",507,707738,"0.0-3.165-1.165","8l7k49y4vxdpgl7",444,"76.csv","","null","resources/maskTrios/L2BB.jpg","null","",NA,NA,NA,NA,""
"image-keyboard-response",508,708958,"0.0-3.165-2.165","8l7k49y4vxdpgl7",444,"76.csv","","null","resources/images/fishbone.png","null","",NA,NA,NA,NA,""
"image-keyboard-response",509,709365,"0.0-3.166-0.166","8l7k49y4vxdpgl7",444,"76.csv","","406","resources/trios/L2T2A3.jpg","39","restless",0.6,0.3,0.6,0.27864044743555,"true"
"image-keyboard-response",510,709769,"0.0-3.166-1.166","8l7k49y4vxdpgl7",444,"76.csv","","null","resources/maskTrios/BBA3.jpg","null","",NA,NA,NA,NA,""
"image-keyboard-response",511,710988,"0.0-3.166-2.166","8l7k49y4vxdpgl7",444,"76.csv","","null","resources/images/coin2.png","null","",NA,NA,NA,NA,""
"image-keyboard-response",512,711347,"0.0-3.167-0.167","8l7k49y4vxdpgl7",444,"76.csv","","358","resources/trios/L2T1A2.jpg","39","restless",0.7,0.3,0.6,0.3508931285311,"true"
"image-keyboard-response",513,711755,"0.0-3.167-1.167","8l7k49y4vxdpgl7",444,"76.csv","","null","resources/maskTrios/BBA2.jpg","null","",NA,NA,NA,NA,""
"image-keyboard-response",514,712960,"0.0-3.167-2.167","8l7k49y4vxdpgl7",444,"76.csv","","null","resources/images/coin2.png","null","",NA,NA,NA,NA,""
"image-keyboard-response",515,713333,"0.0-3.168-0.168","8l7k49y4vxdpgl7",444,"76.csv","","372.10000014305115","resources/trios/L2T1A2.jpg","38","restless",0.7,0.3,0.6,0.27982078989794,"true"
"image-keyboard-response",516,713741,"0.0-3.168-1.168","8l7k49y4vxdpgl7",444,"76.csv","","null","resources/maskTrios/BT1B.jpg","null","",NA,NA,NA,NA,""
"image-keyboard-response",517,714945,"0.0-3.168-2.168","8l7k49y4vxdpgl7",444,"76.csv","","null","resources/images/coin2.png","null","",NA,NA,NA,NA,""
"image-keyboard-response",518,715341,"0.0-3.169-0.169","8l7k49y4vxdpgl7",444,"76.csv","","394.2000000476837","resources/trios/L4T2A2.jpg","37","restless",0.7,0.4,0.6,0.888557385790381,"false"
"image-keyboard-response",519,715757,"0.0-3.169-1.169","8l7k49y4vxdpgl7",444,"76.csv","","null","resources/maskTrios/L4BB.jpg","null","",NA,NA,NA,NA,""
"image-keyboard-response",520,716972,"0.0-3.169-2.169","8l7k49y4vxdpgl7",444,"76.csv","","null","resources/images/fishbone.png","null","",NA,NA,NA,NA,""
"image-keyboard-response",521,717367,"0.0-3.170-0.170","8l7k49y4vxdpgl7",444,"76.csv","","394.2999999523163","resources/trios/L4T1A2.jpg","39","restless",0.7,0.4,0.6,0.43308292520161,"true"
"image-keyboard-response",522,717783,"0.0-3.170-1.170","8l7k49y4vxdpgl7",444,"76.csv","","null","resources/maskTrios/BBA2.jpg","null","",NA,NA,NA,NA,""
"image-keyboard-response",523,718987,"0.0-3.170-2.170","8l7k49y4vxdpgl7",444,"76.csv","","null","resources/images/coin2.png","null","",NA,NA,NA,NA,""
"image-keyboard-response",524,719302,"0.0-3.171-0.171","8l7k49y4vxdpgl7",444,"76.csv","","314.5","resources/trios/L4T2A3.jpg","39","restless",0.7,0.4,0.6,0.867363888855306,"false"
"image-keyboard-response",525,719715,"0.0-3.171-1.171","8l7k49y4vxdpgl7",444,"76.csv","","null","resources/maskTrios/BBA3.jpg","null","",NA,NA,NA,NA,""
"image-keyboard-response",526,720935,"0.0-3.171-2.171","8l7k49y4vxdpgl7",444,"76.csv","","null","resources/images/fishbone.png","null","",NA,NA,NA,NA,""
"image-keyboard-response",527,721293,"0.0-3.172-0.172","8l7k49y4vxdpgl7",444,"76.csv","","356.80000019073486","resources/trios/L4T1A2.jpg","37","restless",0.7,0.4,0.6,0.949644485915253,"false"
"image-keyboard-response",528,721708,"0.0-3.172-1.172","8l7k49y4vxdpgl7",444,"76.csv","","null","resources/maskTrios/L4BB.jpg","null","",NA,NA,NA,NA,""
"image-keyboard-response",529,722925,"0.0-3.172-2.172","8l7k49y4vxdpgl7",444,"76.csv","","null","resources/images/fishbone.png","null","",NA,NA,NA,NA,""
"image-keyboard-response",530,723227,"0.0-3.173-0.173","8l7k49y4vxdpgl7",444,"76.csv","","300.2000000476837","resources/trios/L2T1A3.jpg","37","restless",0.7,0.4,0.6,0.408960145892508,"true"
"image-keyboard-response",531,723645,"0.0-3.173-1.173","8l7k49y4vxdpgl7",444,"76.csv","","null","resources/maskTrios/L2BB.jpg","null","",NA,NA,NA,NA,""
"image-keyboard-response",532,724851,"0.0-3.173-2.173","8l7k49y4vxdpgl7",444,"76.csv","","null","resources/images/coin2.png","null","",NA,NA,NA,NA,""
"image-keyboard-response",533,725017,"0.0-3.174-0.174","8l7k49y4vxdpgl7",444,"76.csv","","165.59999990463257","resources/trios/L2T2A2.jpg","37","restless",0.7,0.4,0.6,0.906208054853299,"false"
"image-keyboard-response",534,725445,"0.0-3.174-1.174","8l7k49y4vxdpgl7",444,"76.csv","","null","resources/maskTrios/L2BB.jpg","null","",NA,NA,NA,NA,""
"image-keyboard-response",535,726665,"0.0-3.174-2.174","8l7k49y4vxdpgl7",444,"76.csv","","null","resources/images/fishbone.png","null","",NA,NA,NA,NA,""
"image-keyboard-response",536,727101,"0.0-3.175-0.175","8l7k49y4vxdpgl7",444,"76.csv","","435.09999990463257","resources/trios/L2T2A3.jpg","38","restless",0.6,0.3,0.6,0.932077358168449,"false"
"image-keyboard-response",537,727515,"0.0-3.175-1.175","8l7k49y4vxdpgl7",444,"76.csv","","null","resources/maskTrios/BT2B.jpg","null","",NA,NA,NA,NA,""
"image-keyboard-response",538,728725,"0.0-3.175-2.175","8l7k49y4vxdpgl7",444,"76.csv","","null","resources/images/fishbone.png","null","",NA,NA,NA,NA,""
"image-keyboard-response",539,729015,"0.0-3.176-0.176","8l7k49y4vxdpgl7",444,"76.csv","","289.09999990463257","resources/trios/L2T2A3.jpg","38","restless",0.6,0.3,0.6,0.102127127369805,"true"
"image-keyboard-response",540,729429,"0.0-3.176-1.176","8l7k49y4vxdpgl7",444,"76.csv","","null","resources/maskTrios/BT2B.jpg","null","",NA,NA,NA,NA,""
"image-keyboard-response",541,730644,"0.0-3.176-2.176","8l7k49y4vxdpgl7",444,"76.csv","","null","resources/images/coin2.png","null","",NA,NA,NA,NA,""
"image-keyboard-response",542,731094,"0.0-3.177-0.177","8l7k49y4vxdpgl7",444,"76.csv","","448.90000009536743","resources/trios/L4T2A3.jpg","38","restless",0.6,0.3,0.6,0.399984411859108,"false"
"image-keyboard-response",543,731505,"0.0-3.177-1.177","8l7k49y4vxdpgl7",444,"76.csv","","null","resources/maskTrios/BT2B.jpg","null","",NA,NA,NA,NA,""
"image-keyboard-response",544,732725,"0.0-3.177-2.177","8l7k49y4vxdpgl7",444,"76.csv","","null","resources/images/fishbone.png","null","",NA,NA,NA,NA,""
"image-keyboard-response",545,733115,"0.0-3.178-0.178","8l7k49y4vxdpgl7",444,"76.csv","","389.2000000476837","resources/trios/L2T2A2.jpg","38","restless",0.6,0.3,0.6,0.540882023020466,"false"
"image-keyboard-response",546,733525,"0.0-3.178-1.178","8l7k49y4vxdpgl7",444,"76.csv","","null","resources/maskTrios/BT2B.jpg","null","",NA,NA,NA,NA,""
"image-keyboard-response",547,734738,"0.0-3.178-2.178","8l7k49y4vxdpgl7",444,"76.csv","","null","resources/images/fishbone.png","null","",NA,NA,NA,NA,""
"image-keyboard-response",548,735064,"0.0-3.179-0.179","8l7k49y4vxdpgl7",444,"76.csv","","324.89999985694885","resources/trios/L4T1A2.jpg","38","restless",0.6,0.3,0.6,0.161875577298776,"true"
"image-keyboard-response",549,735475,"0.0-3.179-1.179","8l7k49y4vxdpgl7",444,"76.csv","","null","resources/maskTrios/BT1B.jpg","null","",NA,NA,NA,NA,""
"image-keyboard-response",550,736693,"0.0-3.179-2.179","8l7k49y4vxdpgl7",444,"76.csv","","null","resources/images/coin2.png","null","",NA,NA,NA,NA,""
"image-keyboard-response",551,737019,"0.0-3.180-0.180","8l7k49y4vxdpgl7",444,"76.csv","","324.80000019073486","resources/trios/L4T2A3.jpg","38","restless",0.6,0.3,0.6,0.627382628110841,"false"
"image-keyboard-response",552,737439,"0.0-3.180-1.180","8l7k49y4vxdpgl7",444,"76.csv","","null","resources/maskTrios/BT2B.jpg","null","",NA,NA,NA,NA,""
"image-keyboard-response",553,738645,"0.0-3.180-2.180","8l7k49y4vxdpgl7",444,"76.csv","","null","resources/images/fishbone.png","null","",NA,NA,NA,NA,""
"image-keyboard-response",554,739356,"0.0-3.181-0.181","8l7k49y4vxdpgl7",444,"76.csv","","709.5","resources/trios/L4T1A3.jpg","38","restless",0.6,0.3,0.6,0.412738740683519,"false"
"image-keyboard-response",555,739770,"0.0-3.181-1.181","8l7k49y4vxdpgl7",444,"76.csv","","null","resources/maskTrios/BT1B.jpg","null","",NA,NA,NA,NA,""
"image-keyboard-response",556,740993,"0.0-3.181-2.181","8l7k49y4vxdpgl7",444,"76.csv","","null","resources/images/fishbone.png","null","",NA,NA,NA,NA,""
"image-keyboard-response",557,741624,"0.0-3.182-0.182","8l7k49y4vxdpgl7",444,"76.csv","","630.2000000476837","resources/trios/L2T1A2.jpg","38","restless",0.6,0.3,0.6,0.283343886771453,"true"
"image-keyboard-response",558,742035,"0.0-3.182-1.182","8l7k49y4vxdpgl7",444,"76.csv","","null","resources/maskTrios/BT1B.jpg","null","",NA,NA,NA,NA,""
"image-keyboard-response",559,743255,"0.0-3.182-2.182","8l7k49y4vxdpgl7",444,"76.csv","","null","resources/images/coin2.png","null","",NA,NA,NA,NA,""
"image-keyboard-response",560,743587,"0.0-3.183-0.183","8l7k49y4vxdpgl7",444,"76.csv","","331","resources/trios/L4T1A2.jpg","38","restless",0.6,0.3,0.6,0.92000577870201,"false"
"image-keyboard-response",561,743995,"0.0-3.183-1.183","8l7k49y4vxdpgl7",444,"76.csv","","null","resources/maskTrios/BT1B.jpg","null","",NA,NA,NA,NA,""
"image-keyboard-response",562,745203,"0.0-3.183-2.183","8l7k49y4vxdpgl7",444,"76.csv","","null","resources/images/fishbone.png","null","",NA,NA,NA,NA,""
"image-keyboard-response",563,745727,"0.0-3.184-0.184","8l7k49y4vxdpgl7",444,"76.csv","","523.1000001430511","resources/trios/L2T2A3.jpg","37","restless",0.6,0.4,0.7,0.552789800051773,"true"
"image-keyboard-response",564,746145,"0.0-3.184-1.184","8l7k49y4vxdpgl7",444,"76.csv","","null","resources/maskTrios/L2BB.jpg","null","",NA,NA,NA,NA,""
"image-keyboard-response",565,747365,"0.0-3.184-2.184","8l7k49y4vxdpgl7",444,"76.csv","","null","resources/images/coin2.png","null","",NA,NA,NA,NA,""
"image-keyboard-response",566,747766,"0.0-3.185-0.185","8l7k49y4vxdpgl7",444,"76.csv","","400","resources/trios/L2T2A2.jpg","39","restless",0.6,0.4,0.7,0.0524355448549716,"true"
"image-keyboard-response",567,748175,"0.0-3.185-1.185","8l7k49y4vxdpgl7",444,"76.csv","","null","resources/maskTrios/BBA2.jpg","null","",NA,NA,NA,NA,""
"image-keyboard-response",568,749405,"0.0-3.185-2.185","8l7k49y4vxdpgl7",444,"76.csv","","null","resources/images/coin2.png","null","",NA,NA,NA,NA,""
"image-keyboard-response",569,750080,"0.0-3.186-0.186","8l7k49y4vxdpgl7",444,"76.csv","","673.8999998569489","resources/trios/L2T2A3.jpg","37","restless",0.6,0.4,0.7,0.315725663257939,"true"
"image-keyboard-response",570,750495,"0.0-3.186-1.186","8l7k49y4vxdpgl7",444,"76.csv","","null","resources/maskTrios/L2BB.jpg","null","",NA,NA,NA,NA,""
"image-keyboard-response",571,751708,"0.0-3.186-2.186","8l7k49y4vxdpgl7",444,"76.csv","","null","resources/images/coin2.png","null","",NA,NA,NA,NA,""
"image-keyboard-response",572,752153,"0.0-3.187-0.187","8l7k49y4vxdpgl7",444,"76.csv","","443.90000009536743","resources/trios/L2T1A3.jpg","37","restless",0.6,0.4,0.7,0.492752306758673,"true"
"image-keyboard-response",573,752565,"0.0-3.187-1.187","8l7k49y4vxdpgl7",444,"76.csv","","null","resources/maskTrios/L2BB.jpg","null","",NA,NA,NA,NA,""
"image-keyboard-response",574,753774,"0.0-3.187-2.187","8l7k49y4vxdpgl7",444,"76.csv","","null","resources/images/coin2.png","null","",NA,NA,NA,NA,""
"image-keyboard-response",575,754218,"0.0-3.188-0.188","8l7k49y4vxdpgl7",444,"76.csv","","442.59999990463257","resources/trios/L4T2A3.jpg","38","restless",0.6,0.4,0.7,0.850637516695981,"false"
"image-keyboard-response",576,754624,"0.0-3.188-1.188","8l7k49y4vxdpgl7",444,"76.csv","","null","resources/maskTrios/BT2B.jpg","null","",NA,NA,NA,NA,""
"image-keyboard-response",577,755844,"0.0-3.188-2.188","8l7k49y4vxdpgl7",444,"76.csv","","null","resources/images/fishbone.png","null","",NA,NA,NA,NA,""
"image-keyboard-response",578,756334,"0.0-3.189-0.189","8l7k49y4vxdpgl7",444,"76.csv","","488.2000000476837","resources/trios/L4T1A3.jpg","39","restless",0.6,0.4,0.7,0.0953599879886309,"true"
"image-keyboard-response",579,756738,"0.0-3.189-1.189","8l7k49y4vxdpgl7",444,"76.csv","","null","resources/maskTrios/BBA3.jpg","null","",NA,NA,NA,NA,""
"image-keyboard-response",580,757946,"0.0-3.189-2.189","8l7k49y4vxdpgl7",444,"76.csv","","null","resources/images/coin2.png","null","",NA,NA,NA,NA,""
"image-keyboard-response",581,758272,"0.0-3.190-0.190","8l7k49y4vxdpgl7",444,"76.csv","","325.10000014305115","resources/trios/L2T2A2.jpg","37","restless",0.6,0.4,0.7,0.0504943985863404,"true"
"image-keyboard-response",582,758685,"0.0-3.190-1.190","8l7k49y4vxdpgl7",444,"76.csv","","null","resources/maskTrios/L2BB.jpg","null","",NA,NA,NA,NA,""
"image-keyboard-response",583,759894,"0.0-3.190-2.190","8l7k49y4vxdpgl7",444,"76.csv","","null","resources/images/coin2.png","null","",NA,NA,NA,NA,""
"image-keyboard-response",584,760149,"0.0-3.191-0.191","8l7k49y4vxdpgl7",444,"76.csv","","254.09999990463257","resources/trios/L4T1A2.jpg","37","restless",0.6,0.4,0.7,0.79406471852557,"false"
"image-keyboard-response",585,760565,"0.0-3.191-1.191","8l7k49y4vxdpgl7",444,"76.csv","","null","resources/maskTrios/L4BB.jpg","null","",NA,NA,NA,NA,""
"image-keyboard-response",586,761769,"0.0-3.191-2.191","8l7k49y4vxdpgl7",444,"76.csv","","null","resources/images/fishbone.png","null","",NA,NA,NA,NA,""
"image-keyboard-response",587,762169,"0.0-3.192-0.192","8l7k49y4vxdpgl7",444,"76.csv","","399.2000000476837","resources/trios/L2T1A2.jpg","39","restless",0.6,0.4,0.7,0.0740933615188892,"true"
"image-keyboard-response",588,762581,"0.0-3.192-1.192","8l7k49y4vxdpgl7",444,"76.csv","","null","resources/maskTrios/BBA2.jpg","null","",NA,NA,NA,NA,""
"image-keyboard-response",589,763784,"0.0-3.192-2.192","8l7k49y4vxdpgl7",444,"76.csv","","null","resources/images/coin2.png","null","",NA,NA,NA,NA,""
"image-keyboard-response",590,764189,"0.0-3.193-0.193","8l7k49y4vxdpgl7",444,"76.csv","","403.2999999523163","resources/trios/L2T2A3.jpg","39","restless",0.6,0.4,0.7,0.199490742343854,"true"
"image-keyboard-response",591,764595,"0.0-3.193-1.193","8l7k49y4vxdpgl7",444,"76.csv","","null","resources/maskTrios/BBA3.jpg","null","",NA,NA,NA,NA,""
"image-keyboard-response",592,765811,"0.0-3.193-2.193","8l7k49y4vxdpgl7",444,"76.csv","","null","resources/images/coin2.png","null","",NA,NA,NA,NA,""
"image-keyboard-response",593,766284,"0.0-3.194-0.194","8l7k49y4vxdpgl7",444,"76.csv","","471.90000009536743","resources/trios/L2T2A3.jpg","38","restless",0.6,0.4,0.7,0.110288100584214,"true"
"image-keyboard-response",594,766696,"0.0-3.194-1.194","8l7k49y4vxdpgl7",444,"76.csv","","null","resources/maskTrios/BT2B.jpg","null","",NA,NA,NA,NA,""
"image-keyboard-response",595,767917,"0.0-3.194-2.194","8l7k49y4vxdpgl7",444,"76.csv","","null","resources/images/coin2.png","null","",NA,NA,NA,NA,""
"image-keyboard-response",596,768312,"0.0-3.195-0.195","8l7k49y4vxdpgl7",444,"76.csv","","393.40000009536743","resources/trios/L4T1A2.jpg","38","restless",0.6,0.5,0.7,0.943834611860501,"false"
"image-keyboard-response",597,768725,"0.0-3.195-1.195","8l7k49y4vxdpgl7",444,"76.csv","","null","resources/maskTrios/BT1B.jpg","null","",NA,NA,NA,NA,""
"image-keyboard-response",598,769936,"0.0-3.195-2.195","8l7k49y4vxdpgl7",444,"76.csv","","null","resources/images/fishbone.png","null","",NA,NA,NA,NA,""
"image-keyboard-response",599,770291,"0.0-3.196-0.196","8l7k49y4vxdpgl7",444,"76.csv","","354.5","resources/trios/L4T2A3.jpg","38","restless",0.6,0.5,0.7,0.642852700896436,"false"
"image-keyboard-response",600,770715,"0.0-3.196-1.196","8l7k49y4vxdpgl7",444,"76.csv","","null","resources/maskTrios/BT2B.jpg","null","",NA,NA,NA,NA,""
"image-keyboard-response",601,771929,"0.0-3.196-2.196","8l7k49y4vxdpgl7",444,"76.csv","","null","resources/images/fishbone.png","null","",NA,NA,NA,NA,""
"image-keyboard-response",602,772250,"0.0-3.197-0.197","8l7k49y4vxdpgl7",444,"76.csv","","319.7999999523163","resources/trios/L4T2A3.jpg","37","restless",0.6,0.6,0.7,0.0720429079263234,"true"
"image-keyboard-response",603,772656,"0.0-3.197-1.197","8l7k49y4vxdpgl7",444,"76.csv","","null","resources/maskTrios/L4BB.jpg","null","",NA,NA,NA,NA,""
"image-keyboard-response",604,773865,"0.0-3.197-2.197","8l7k49y4vxdpgl7",444,"76.csv","","null","resources/images/coin2.png","null","",NA,NA,NA,NA,""
"image-keyboard-response",605,774074,"0.0-3.198-0.198","8l7k49y4vxdpgl7",444,"76.csv","","208","resources/trios/L4T1A3.jpg","37","restless",0.6,0.6,0.7,0.939143618677894,"false"
"image-keyboard-response",606,774488,"0.0-3.198-1.198","8l7k49y4vxdpgl7",444,"76.csv","","null","resources/maskTrios/L4BB.jpg","null","",NA,NA,NA,NA,""
"image-keyboard-response",607,775714,"0.0-3.198-2.198","8l7k49y4vxdpgl7",444,"76.csv","","null","resources/images/fishbone.png","null","",NA,NA,NA,NA,""
"image-keyboard-response",608,775991,"0.0-3.199-0.199","8l7k49y4vxdpgl7",444,"76.csv","","275.59999990463257","resources/trios/L4T2A3.jpg","37","restless",0.6,0.6,0.7,0.988213791423381,"false"
"image-keyboard-response",609,776405,"0.0-3.199-1.199","8l7k49y4vxdpgl7",444,"76.csv","","null","resources/maskTrios/L4BB.jpg","null","",NA,NA,NA,NA,""
