"trial_type","trial_index","time_elapsed","internal_node_id","subject","participantCode","walkNumber","success","rt","stimulus","key_press","test_part","leftProb","midProb","rightProb","generatedNum","correct"
"pavlovia",0,1400,"0.0-0.0","ren1uy6r65oeauq",187,"37.csv","","","","","",NA,NA,NA,NA,""
"fullscreen",1,6846,"0.0-1.0","ren1uy6r65oeauq",187,"37.csv","true","","","","",NA,NA,NA,NA,""
"html-keyboard-response",2,21175,"0.0-2.0-0.0","ren1uy6r65oeauq",187,"37.csv","","14296.100000023842","<p><font size='6'>Arrrgh!</p></font><p>Can you be the best pirate? Try to find lots of gold! But beware, some islands have more gold than others, and over time, the island with the most gold may change. Can YOU figure it out? </p><font size='6'>GOOD LUCK, CAPTAIN!!!</font><p>Press any key to begin</p>","32","",NA,NA,NA,NA,""
"image-keyboard-response",3,24181,"0.0-2.0-1.0","ren1uy6r65oeauq",187,"37.csv","","null","resources/image_sets/111.png","null","",NA,NA,NA,NA,""
"image-keyboard-response",4,32184,"0.0-2.0-2.0","ren1uy6r65oeauq",187,"37.csv","","8000.299999952316","resources/image_sets/left_highlight.png","37","",NA,NA,NA,NA,""
"image-keyboard-response",5,36357,"0.0-2.0-3.0","ren1uy6r65oeauq",187,"37.csv","","4171.199999928474","resources/image_sets/mid_highlight.png","38","",NA,NA,NA,NA,""
"image-keyboard-response",6,37828,"0.0-2.0-4.0","ren1uy6r65oeauq",187,"37.csv","","1470.3000000715256","resources/image_sets/right_highlight.png","39","",NA,NA,NA,NA,""
"image-keyboard-response",7,43213,"0.0-2.0-5.0","ren1uy6r65oeauq",187,"37.csv","","5383.399999976158","resources/image_sets/111.png","13","",NA,NA,NA,NA,""
"image-keyboard-response",8,47399,"0.0-2.0-6.0","ren1uy6r65oeauq",187,"37.csv","","4185","resources/images/coin2.png","13","",NA,NA,NA,NA,""
"image-keyboard-response",9,50246,"0.0-2.0-7.0","ren1uy6r65oeauq",187,"37.csv","","2845.1999999284744","resources/images/fishbone.png","13","",NA,NA,NA,NA,""
"html-keyboard-response",10,62414,"0.0-2.0-8.0","ren1uy6r65oeauq",187,"37.csv","","12167.200000047684","<p>Your first journey will be a long one, but you will get a well deserved break at the end</p><p>After the break you will have four more journeys, but each will be much shorter than the first, and you will have breaks in between each</p><p>Press Enter to begin</p>","13","",NA,NA,NA,NA,""
"image-keyboard-response",11,65515,"0.0-3.0-0.0","ren1uy6r65oeauq",187,"37.csv","","3096.899999976158","resources/trios/L4T1A2.jpg","38","restless",0.7,0.3,0.9,0.998579766016266,"false"
"image-keyboard-response",12,65922,"0.0-3.0-1.0","ren1uy6r65oeauq",187,"37.csv","","null","resources/maskTrios/BT1B.jpg","null","",NA,NA,NA,NA,""
"image-keyboard-response",13,67127,"0.0-3.0-2.0","ren1uy6r65oeauq",187,"37.csv","","null","resources/images/fishbone.png","null","",NA,NA,NA,NA,""
"image-keyboard-response",14,71414,"0.0-3.1-0.1","ren1uy6r65oeauq",187,"37.csv","","4284.399999976158","resources/trios/L1T2A3.jpg","37","restless",0.7,0.3,0.8,0.888969064578314,"false"
"image-keyboard-response",15,71819,"0.0-3.1-1.1","ren1uy6r65oeauq",187,"37.csv","","null","resources/maskTrios/L1BB.jpg","null","",NA,NA,NA,NA,""
"image-keyboard-response",16,73023,"0.0-3.1-2.1","ren1uy6r65oeauq",187,"37.csv","","null","resources/images/fishbone.png","null","",NA,NA,NA,NA,""
"image-keyboard-response",17,75242,"0.0-3.2-0.2","ren1uy6r65oeauq",187,"37.csv","","2216.7999999523163","resources/trios/L4T2A2.jpg","38","restless",0.7,0.3,0.8,0.013488095879076,"true"
"image-keyboard-response",18,75647,"0.0-3.2-1.2","ren1uy6r65oeauq",187,"37.csv","","null","resources/maskTrios/BT2B.jpg","null","",NA,NA,NA,NA,""
"image-keyboard-response",19,76854,"0.0-3.2-2.2","ren1uy6r65oeauq",187,"37.csv","","null","resources/images/coin2.png","null","",NA,NA,NA,NA,""
"image-keyboard-response",20,79396,"0.0-3.3-0.3","ren1uy6r65oeauq",187,"37.csv","","2540.399999976158","resources/trios/L4T1A2.jpg","37","restless",0.7,0.3,0.8,0.324335663987808,"true"
"image-keyboard-response",21,79799,"0.0-3.3-1.3","ren1uy6r65oeauq",187,"37.csv","","null","resources/maskTrios/L4BB.jpg","null","",NA,NA,NA,NA,""
"image-keyboard-response",22,81000,"0.0-3.3-2.3","ren1uy6r65oeauq",187,"37.csv","","null","resources/images/coin2.png","null","",NA,NA,NA,NA,""
"image-keyboard-response",23,83545,"0.0-3.4-0.4","ren1uy6r65oeauq",187,"37.csv","","2543.3000000715256","resources/trios/L4T2A3.jpg","38","restless",0.6,0.4,0.8,0.571312458676487,"false"
"image-keyboard-response",24,83947,"0.0-3.4-1.4","ren1uy6r65oeauq",187,"37.csv","","null","resources/maskTrios/BT2B.jpg","null","",NA,NA,NA,NA,""
"image-keyboard-response",25,85150,"0.0-3.4-2.4","ren1uy6r65oeauq",187,"37.csv","","null","resources/images/fishbone.png","null","",NA,NA,NA,NA,""
"image-keyboard-response",26,87159,"0.0-3.5-0.5","ren1uy6r65oeauq",187,"37.csv","","2006.7000000476837","resources/trios/L4T2A3.jpg","38","restless",0.6,0.4,0.8,0.158952258234379,"true"
"image-keyboard-response",27,87560,"0.0-3.5-1.5","ren1uy6r65oeauq",187,"37.csv","","null","resources/maskTrios/BT2B.jpg","null","",NA,NA,NA,NA,""
"image-keyboard-response",28,88766,"0.0-3.5-2.5","ren1uy6r65oeauq",187,"37.csv","","null","resources/images/coin2.png","null","",NA,NA,NA,NA,""
"image-keyboard-response",29,91400,"0.0-3.6-0.6","ren1uy6r65oeauq",187,"37.csv","","2632.6999999284744","resources/trios/L1T2A2.jpg","38","restless",0.6,0.4,0.8,0.479911373192449,"false"
"image-keyboard-response",30,91807,"0.0-3.6-1.6","ren1uy6r65oeauq",187,"37.csv","","null","resources/maskTrios/BT2B.jpg","null","",NA,NA,NA,NA,""
"image-keyboard-response",31,93008,"0.0-3.6-2.6","ren1uy6r65oeauq",187,"37.csv","","null","resources/images/fishbone.png","null","",NA,NA,NA,NA,""
"image-keyboard-response",32,96021,"0.0-3.7-0.7","ren1uy6r65oeauq",187,"37.csv","","3011.5","resources/trios/L4T2A2.jpg","37","restless",0.6,0.4,0.7,0.201427813310918,"true"
"image-keyboard-response",33,96428,"0.0-3.7-1.7","ren1uy6r65oeauq",187,"37.csv","","null","resources/maskTrios/L4BB.jpg","null","",NA,NA,NA,NA,""
"image-keyboard-response",34,97631,"0.0-3.7-2.7","ren1uy6r65oeauq",187,"37.csv","","null","resources/images/coin2.png","null","",NA,NA,NA,NA,""
"image-keyboard-response",35,99698,"0.0-3.8-0.8","ren1uy6r65oeauq",187,"37.csv","","2065.5","resources/trios/L4T1A2.jpg","37","restless",0.6,0.5,0.7,0.445668188055367,"true"
"image-keyboard-response",36,100103,"0.0-3.8-1.8","ren1uy6r65oeauq",187,"37.csv","","null","resources/maskTrios/L4BB.jpg","null","",NA,NA,NA,NA,""
"image-keyboard-response",37,101306,"0.0-3.8-2.8","ren1uy6r65oeauq",187,"37.csv","","null","resources/images/coin2.png","null","",NA,NA,NA,NA,""
"image-keyboard-response",38,103464,"0.0-3.9-0.9","ren1uy6r65oeauq",187,"37.csv","","2156.2999999523163","resources/trios/L4T1A2.jpg","37","restless",0.6,0.5,0.6,0.315766670977248,"true"
"image-keyboard-response",39,103868,"0.0-3.9-1.9","ren1uy6r65oeauq",187,"37.csv","","null","resources/maskTrios/L4BB.jpg","null","",NA,NA,NA,NA,""
"image-keyboard-response",40,105071,"0.0-3.9-2.9","ren1uy6r65oeauq",187,"37.csv","","null","resources/images/coin2.png","null","",NA,NA,NA,NA,""
"image-keyboard-response",41,108149,"0.0-3.10-0.10","ren1uy6r65oeauq",187,"37.csv","","3076.2999999523163","resources/trios/L1T2A3.jpg","38","restless",0.6,0.5,0.6,0.979985555135696,"false"
"image-keyboard-response",42,108554,"0.0-3.10-1.10","ren1uy6r65oeauq",187,"37.csv","","null","resources/maskTrios/BT2B.jpg","null","",NA,NA,NA,NA,""
"image-keyboard-response",43,109759,"0.0-3.10-2.10","ren1uy6r65oeauq",187,"37.csv","","null","resources/images/fishbone.png","null","",NA,NA,NA,NA,""
"image-keyboard-response",44,111607,"0.0-3.11-0.11","ren1uy6r65oeauq",187,"37.csv","","1846.5","resources/trios/L1T2A2.jpg","37","restless",0.6,0.5,0.6,0.361880968798546,"true"
"image-keyboard-response",45,112009,"0.0-3.11-1.11","ren1uy6r65oeauq",187,"37.csv","","null","resources/maskTrios/L1BB.jpg","null","",NA,NA,NA,NA,""
"image-keyboard-response",46,113213,"0.0-3.11-2.11","ren1uy6r65oeauq",187,"37.csv","","null","resources/images/coin2.png","null","",NA,NA,NA,NA,""
"image-keyboard-response",47,114366,"0.0-3.12-0.12","ren1uy6r65oeauq",187,"37.csv","","1152","resources/trios/L1T2A3.jpg","37","restless",0.5,0.5,0.6,0.113635333677007,"true"
"image-keyboard-response",48,114768,"0.0-3.12-1.12","ren1uy6r65oeauq",187,"37.csv","","null","resources/maskTrios/L1BB.jpg","null","",NA,NA,NA,NA,""
"image-keyboard-response",49,115970,"0.0-3.12-2.12","ren1uy6r65oeauq",187,"37.csv","","null","resources/images/coin2.png","null","",NA,NA,NA,NA,""
"image-keyboard-response",50,117482,"0.0-3.13-0.13","ren1uy6r65oeauq",187,"37.csv","","1510.3000000715256","resources/trios/L4T1A3.jpg","37","restless",0.4,0.5,0.6,0.747271470863995,"false"
"image-keyboard-response",51,117886,"0.0-3.13-1.13","ren1uy6r65oeauq",187,"37.csv","","null","resources/maskTrios/L4BB.jpg","null","",NA,NA,NA,NA,""
"image-keyboard-response",52,119088,"0.0-3.13-2.13","ren1uy6r65oeauq",187,"37.csv","","null","resources/images/fishbone.png","null","",NA,NA,NA,NA,""
"image-keyboard-response",53,120139,"0.0-3.14-0.14","ren1uy6r65oeauq",187,"37.csv","","1050.5","resources/trios/L1T1A2.jpg","37","restless",0.4,0.5,0.6,0.697238973965431,"false"
"image-keyboard-response",54,120544,"0.0-3.14-1.14","ren1uy6r65oeauq",187,"37.csv","","null","resources/maskTrios/L1BB.jpg","null","",NA,NA,NA,NA,""
"image-keyboard-response",55,121748,"0.0-3.14-2.14","ren1uy6r65oeauq",187,"37.csv","","null","resources/images/fishbone.png","null","",NA,NA,NA,NA,""
"image-keyboard-response",56,122767,"0.0-3.15-0.15","ren1uy6r65oeauq",187,"37.csv","","1017.2999999523163","resources/trios/L1T2A2.jpg","38","restless",0.4,0.5,0.5,0.756849085635556,"false"
"image-keyboard-response",57,123172,"0.0-3.15-1.15","ren1uy6r65oeauq",187,"37.csv","","null","resources/maskTrios/BT2B.jpg","null","",NA,NA,NA,NA,""
"image-keyboard-response",58,124374,"0.0-3.15-2.15","ren1uy6r65oeauq",187,"37.csv","","null","resources/images/fishbone.png","null","",NA,NA,NA,NA,""
"image-keyboard-response",59,126402,"0.0-3.16-0.16","ren1uy6r65oeauq",187,"37.csv","","2026.5999999046326","resources/trios/L1T1A3.jpg","37","restless",0.4,0.5,0.5,0.738522673398374,"false"
"image-keyboard-response",60,126808,"0.0-3.16-1.16","ren1uy6r65oeauq",187,"37.csv","","null","resources/maskTrios/L1BB.jpg","null","",NA,NA,NA,NA,""
"image-keyboard-response",61,128014,"0.0-3.16-2.16","ren1uy6r65oeauq",187,"37.csv","","null","resources/images/fishbone.png","null","",NA,NA,NA,NA,""
"image-keyboard-response",62,129398,"0.0-3.17-0.17","ren1uy6r65oeauq",187,"37.csv","","1382.1999999284744","resources/trios/L4T2A2.jpg","38","restless",0.4,0.5,0.5,0.800328354648445,"false"
"image-keyboard-response",63,129801,"0.0-3.17-1.17","ren1uy6r65oeauq",187,"37.csv","","null","resources/maskTrios/BT2B.jpg","null","",NA,NA,NA,NA,""
"image-keyboard-response",64,131004,"0.0-3.17-2.17","ren1uy6r65oeauq",187,"37.csv","","null","resources/images/fishbone.png","null","",NA,NA,NA,NA,""
"image-keyboard-response",65,133199,"0.0-3.18-0.18","ren1uy6r65oeauq",187,"37.csv","","2194.5","resources/trios/L1T2A2.jpg","38","restless",0.4,0.4,0.5,0.523713163022819,"false"
"image-keyboard-response",66,133606,"0.0-3.18-1.18","ren1uy6r65oeauq",187,"37.csv","","null","resources/maskTrios/BT2B.jpg","null","",NA,NA,NA,NA,""
"image-keyboard-response",67,134811,"0.0-3.18-2.18","ren1uy6r65oeauq",187,"37.csv","","null","resources/images/fishbone.png","null","",NA,NA,NA,NA,""
"image-keyboard-response",68,135937,"0.0-3.19-0.19","ren1uy6r65oeauq",187,"37.csv","","1124.2999999523163","resources/trios/L4T1A2.jpg","37","restless",0.4,0.4,0.5,0.926465699700199,"false"
"image-keyboard-response",69,136342,"0.0-3.19-1.19","ren1uy6r65oeauq",187,"37.csv","","null","resources/maskTrios/L4BB.jpg","null","",NA,NA,NA,NA,""
"image-keyboard-response",70,137547,"0.0-3.19-2.19","ren1uy6r65oeauq",187,"37.csv","","null","resources/images/fishbone.png","null","",NA,NA,NA,NA,""
"image-keyboard-response",71,138530,"0.0-3.20-0.20","ren1uy6r65oeauq",187,"37.csv","","981","resources/trios/L1T2A2.jpg","39","restless",0.4,0.4,0.5,0.147172184851011,"true"
"image-keyboard-response",72,138938,"0.0-3.20-1.20","ren1uy6r65oeauq",187,"37.csv","","null","resources/maskTrios/BBA2.jpg","null","",NA,NA,NA,NA,""
"image-keyboard-response",73,140144,"0.0-3.20-2.20","ren1uy6r65oeauq",187,"37.csv","","null","resources/images/coin2.png","null","",NA,NA,NA,NA,""
"image-keyboard-response",74,141900,"0.0-3.21-0.21","ren1uy6r65oeauq",187,"37.csv","","1754.6000000238419","resources/trios/L4T1A2.jpg","37","restless",0.4,0.4,0.4,0.428219158678397,"false"
"image-keyboard-response",75,142305,"0.0-3.21-1.21","ren1uy6r65oeauq",187,"37.csv","","null","resources/maskTrios/L4BB.jpg","null","",NA,NA,NA,NA,""
"image-keyboard-response",76,143511,"0.0-3.21-2.21","ren1uy6r65oeauq",187,"37.csv","","null","resources/images/fishbone.png","null","",NA,NA,NA,NA,""
"image-keyboard-response",77,144559,"0.0-3.22-0.22","ren1uy6r65oeauq",187,"37.csv","","1046.2999999523163","resources/trios/L4T2A3.jpg","39","restless",0.4,0.4,0.4,0.0189187420612618,"true"
"image-keyboard-response",78,144964,"0.0-3.22-1.22","ren1uy6r65oeauq",187,"37.csv","","null","resources/maskTrios/BBA3.jpg","null","",NA,NA,NA,NA,""
"image-keyboard-response",79,146167,"0.0-3.22-2.22","ren1uy6r65oeauq",187,"37.csv","","null","resources/images/coin2.png","null","",NA,NA,NA,NA,""
"image-keyboard-response",80,148661,"0.0-3.23-0.23","ren1uy6r65oeauq",187,"37.csv","","2491.899999976158","resources/trios/L1T1A2.jpg","39","restless",0.4,0.4,0.4,0.437203057128627,"false"
"image-keyboard-response",81,149066,"0.0-3.23-1.23","ren1uy6r65oeauq",187,"37.csv","","null","resources/maskTrios/BBA2.jpg","null","",NA,NA,NA,NA,""
"image-keyboard-response",82,150271,"0.0-3.23-2.23","ren1uy6r65oeauq",187,"37.csv","","null","resources/images/fishbone.png","null","",NA,NA,NA,NA,""
"image-keyboard-response",83,152035,"0.0-3.24-0.24","ren1uy6r65oeauq",187,"37.csv","","1762.8000000715256","resources/trios/L4T1A2.jpg","37","restless",0.4,0.4,0.4,0.855113782940927,"false"
"image-keyboard-response",84,152438,"0.0-3.24-1.24","ren1uy6r65oeauq",187,"37.csv","","null","resources/maskTrios/L4BB.jpg","null","",NA,NA,NA,NA,""
"image-keyboard-response",85,153643,"0.0-3.24-2.24","ren1uy6r65oeauq",187,"37.csv","","null","resources/images/fishbone.png","null","",NA,NA,NA,NA,""
"image-keyboard-response",86,154057,"0.0-3.25-0.25","ren1uy6r65oeauq",187,"37.csv","","412.6999999284744","resources/trios/L1T1A3.jpg","38","restless",0.4,0.4,0.4,0.599961049872196,"false"
"image-keyboard-response",87,154462,"0.0-3.25-1.25","ren1uy6r65oeauq",187,"37.csv","","null","resources/maskTrios/BT1B.jpg","null","",NA,NA,NA,NA,""
"image-keyboard-response",88,155665,"0.0-3.25-2.25","ren1uy6r65oeauq",187,"37.csv","","null","resources/images/fishbone.png","null","",NA,NA,NA,NA,""
"image-keyboard-response",89,156346,"0.0-3.26-0.26","ren1uy6r65oeauq",187,"37.csv","","679.1999999284744","resources/trios/L1T1A3.jpg","37","restless",0.4,0.4,0.4,0.880760455197192,"false"
"image-keyboard-response",90,156753,"0.0-3.26-1.26","ren1uy6r65oeauq",187,"37.csv","","null","resources/maskTrios/L1BB.jpg","null","",NA,NA,NA,NA,""
"image-keyboard-response",91,157958,"0.0-3.26-2.26","ren1uy6r65oeauq",187,"37.csv","","null","resources/images/fishbone.png","null","",NA,NA,NA,NA,""
"image-keyboard-response",92,159677,"0.0-3.27-0.27","ren1uy6r65oeauq",187,"37.csv","","1718.2000000476837","resources/trios/L1T2A3.jpg","38","restless",0.4,0.4,0.4,0.664602787368392,"false"
"image-keyboard-response",93,160080,"0.0-3.27-1.27","ren1uy6r65oeauq",187,"37.csv","","null","resources/maskTrios/BT2B.jpg","null","",NA,NA,NA,NA,""
"image-keyboard-response",94,161283,"0.0-3.27-2.27","ren1uy6r65oeauq",187,"37.csv","","null","resources/images/fishbone.png","null","",NA,NA,NA,NA,""
"image-keyboard-response",95,161681,"0.0-3.28-0.28","ren1uy6r65oeauq",187,"37.csv","","396.5","resources/trios/L1T1A3.jpg","39","restless",0.4,0.4,0.4,0.430250354904626,"false"
"image-keyboard-response",96,162088,"0.0-3.28-1.28","ren1uy6r65oeauq",187,"37.csv","","null","resources/maskTrios/BBA3.jpg","null","",NA,NA,NA,NA,""
"image-keyboard-response",97,163290,"0.0-3.28-2.28","ren1uy6r65oeauq",187,"37.csv","","null","resources/images/fishbone.png","null","",NA,NA,NA,NA,""
"image-keyboard-response",98,163954,"0.0-3.29-0.29","ren1uy6r65oeauq",187,"37.csv","","661.8999999761581","resources/trios/L1T1A3.jpg","37","restless",0.4,0.4,0.4,0.985672100519816,"false"
"image-keyboard-response",99,164360,"0.0-3.29-1.29","ren1uy6r65oeauq",187,"37.csv","","null","resources/maskTrios/L1BB.jpg","null","",NA,NA,NA,NA,""
"image-keyboard-response",100,165562,"0.0-3.29-2.29","ren1uy6r65oeauq",187,"37.csv","","null","resources/images/fishbone.png","null","",NA,NA,NA,NA,""
"image-keyboard-response",101,165945,"0.0-3.30-0.30","ren1uy6r65oeauq",187,"37.csv","","381.1999999284744","resources/trios/L4T1A2.jpg","38","restless",0.5,0.4,0.4,0.275459690471768,"true"
"image-keyboard-response",102,166351,"0.0-3.30-1.30","ren1uy6r65oeauq",187,"37.csv","","null","resources/maskTrios/BT1B.jpg","null","",NA,NA,NA,NA,""
"image-keyboard-response",103,167553,"0.0-3.30-2.30","ren1uy6r65oeauq",187,"37.csv","","null","resources/images/coin2.png","null","",NA,NA,NA,NA,""
"image-keyboard-response",104,169910,"0.0-3.31-0.31","ren1uy6r65oeauq",187,"37.csv","","2355.2999999523163","resources/trios/L1T2A3.jpg","38","restless",0.5,0.4,0.4,0.287139656937085,"true"
"image-keyboard-response",105,170312,"0.0-3.31-1.31","ren1uy6r65oeauq",187,"37.csv","","null","resources/maskTrios/BT2B.jpg","null","",NA,NA,NA,NA,""
"image-keyboard-response",106,171515,"0.0-3.31-2.31","ren1uy6r65oeauq",187,"37.csv","","null","resources/images/coin2.png","null","",NA,NA,NA,NA,""
"image-keyboard-response",107,172424,"0.0-3.32-0.32","ren1uy6r65oeauq",187,"37.csv","","907","resources/trios/L1T2A3.jpg","38","restless",0.5,0.4,0.4,0.32707715701706,"true"
"image-keyboard-response",108,172829,"0.0-3.32-1.32","ren1uy6r65oeauq",187,"37.csv","","null","resources/maskTrios/BT2B.jpg","null","",NA,NA,NA,NA,""
"image-keyboard-response",109,174032,"0.0-3.32-2.32","ren1uy6r65oeauq",187,"37.csv","","null","resources/images/coin2.png","null","",NA,NA,NA,NA,""
"image-keyboard-response",110,174957,"0.0-3.33-0.33","ren1uy6r65oeauq",187,"37.csv","","923.9000000953674","resources/trios/L1T2A2.jpg","37","restless",0.6,0.4,0.4,0.87623256950298,"false"
"image-keyboard-response",111,175364,"0.0-3.33-1.33","ren1uy6r65oeauq",187,"37.csv","","null","resources/maskTrios/L1BB.jpg","null","",NA,NA,NA,NA,""
"image-keyboard-response",112,176567,"0.0-3.33-2.33","ren1uy6r65oeauq",187,"37.csv","","null","resources/images/fishbone.png","null","",NA,NA,NA,NA,""
"image-keyboard-response",113,177205,"0.0-3.34-0.34","ren1uy6r65oeauq",187,"37.csv","","636.5","resources/trios/L4T2A3.jpg","39","restless",0.6,0.4,0.4,0.715275504215662,"false"
"image-keyboard-response",114,177609,"0.0-3.34-1.34","ren1uy6r65oeauq",187,"37.csv","","null","resources/maskTrios/BBA3.jpg","null","",NA,NA,NA,NA,""
"image-keyboard-response",115,178812,"0.0-3.34-2.34","ren1uy6r65oeauq",187,"37.csv","","null","resources/images/fishbone.png","null","",NA,NA,NA,NA,""
"image-keyboard-response",116,179799,"0.0-3.35-0.35","ren1uy6r65oeauq",187,"37.csv","","985.8999999761581","resources/trios/L4T1A2.jpg","38","restless",0.6,0.4,0.4,0.655357475330467,"false"
"image-keyboard-response",117,180204,"0.0-3.35-1.35","ren1uy6r65oeauq",187,"37.csv","","null","resources/maskTrios/BT1B.jpg","null","",NA,NA,NA,NA,""
"image-keyboard-response",118,181410,"0.0-3.35-2.35","ren1uy6r65oeauq",187,"37.csv","","null","resources/images/fishbone.png","null","",NA,NA,NA,NA,""
"image-keyboard-response",119,181877,"0.0-3.36-0.36","ren1uy6r65oeauq",187,"37.csv","","464.89999997615814","resources/trios/L4T1A2.jpg","37","restless",0.6,0.5,0.4,0.995525444193865,"false"
"image-keyboard-response",120,182279,"0.0-3.36-1.36","ren1uy6r65oeauq",187,"37.csv","","null","resources/maskTrios/L4BB.jpg","null","",NA,NA,NA,NA,""
"image-keyboard-response",121,183482,"0.0-3.36-2.36","ren1uy6r65oeauq",187,"37.csv","","null","resources/images/fishbone.png","null","",NA,NA,NA,NA,""
"image-keyboard-response",122,184180,"0.0-3.37-0.37","ren1uy6r65oeauq",187,"37.csv","","696.1999999284744","resources/trios/L4T1A2.jpg","37","restless",0.5,0.4,0.4,0.101209649492375,"true"
"image-keyboard-response",123,184583,"0.0-3.37-1.37","ren1uy6r65oeauq",187,"37.csv","","null","resources/maskTrios/L4BB.jpg","null","",NA,NA,NA,NA,""
"image-keyboard-response",124,185786,"0.0-3.37-2.37","ren1uy6r65oeauq",187,"37.csv","","null","resources/images/coin2.png","null","",NA,NA,NA,NA,""
"image-keyboard-response",125,187672,"0.0-3.38-0.38","ren1uy6r65oeauq",187,"37.csv","","1884","resources/trios/L1T2A3.jpg","39","restless",0.5,0.4,0.4,0.299159084923762,"true"
"image-keyboard-response",126,188077,"0.0-3.38-1.38","ren1uy6r65oeauq",187,"37.csv","","null","resources/maskTrios/BBA3.jpg","null","",NA,NA,NA,NA,""
"image-keyboard-response",127,189280,"0.0-3.38-2.38","ren1uy6r65oeauq",187,"37.csv","","null","resources/images/coin2.png","null","",NA,NA,NA,NA,""
"image-keyboard-response",128,190513,"0.0-3.39-0.39","ren1uy6r65oeauq",187,"37.csv","","1231.1000000238419","resources/trios/L4T1A3.jpg","38","restless",0.5,0.4,0.3,0.385836588449784,"true"
"image-keyboard-response",129,190915,"0.0-3.39-1.39","ren1uy6r65oeauq",187,"37.csv","","null","resources/maskTrios/BT1B.jpg","null","",NA,NA,NA,NA,""
"image-keyboard-response",130,192117,"0.0-3.39-2.39","ren1uy6r65oeauq",187,"37.csv","","null","resources/images/coin2.png","null","",NA,NA,NA,NA,""
"image-keyboard-response",131,192705,"0.0-3.40-0.40","ren1uy6r65oeauq",187,"37.csv","","587.1000000238419","resources/trios/L4T2A3.jpg","37","restless",0.5,0.4,0.3,0.0763359001817545,"true"
"image-keyboard-response",132,193110,"0.0-3.40-1.40","ren1uy6r65oeauq",187,"37.csv","","null","resources/maskTrios/L4BB.jpg","null","",NA,NA,NA,NA,""
"image-keyboard-response",133,194314,"0.0-3.40-2.40","ren1uy6r65oeauq",187,"37.csv","","null","resources/images/coin2.png","null","",NA,NA,NA,NA,""
"image-keyboard-response",134,194712,"0.0-3.41-0.41","ren1uy6r65oeauq",187,"37.csv","","396.39999997615814","resources/trios/L1T1A2.jpg","39","restless",0.6,0.4,0.3,0.294668102066131,"true"
"image-keyboard-response",135,195118,"0.0-3.41-1.41","ren1uy6r65oeauq",187,"37.csv","","null","resources/maskTrios/BBA2.jpg","null","",NA,NA,NA,NA,""
"image-keyboard-response",136,196321,"0.0-3.41-2.41","ren1uy6r65oeauq",187,"37.csv","","null","resources/images/coin2.png","null","",NA,NA,NA,NA,""
"image-keyboard-response",137,196823,"0.0-3.42-0.42","ren1uy6r65oeauq",187,"37.csv","","501.2000000476837","resources/trios/L4T2A3.jpg","38","restless",0.6,0.4,0.3,0.942003754509759,"false"
"image-keyboard-response",138,197226,"0.0-3.42-1.42","ren1uy6r65oeauq",187,"37.csv","","null","resources/maskTrios/BT2B.jpg","null","",NA,NA,NA,NA,""
"image-keyboard-response",139,198428,"0.0-3.42-2.42","ren1uy6r65oeauq",187,"37.csv","","null","resources/images/fishbone.png","null","",NA,NA,NA,NA,""
"image-keyboard-response",140,199552,"0.0-3.43-0.43","ren1uy6r65oeauq",187,"37.csv","","1122.5","resources/trios/L1T1A2.jpg","37","restless",0.6,0.3,0.3,0.484912036413504,"true"
"image-keyboard-response",141,199955,"0.0-3.43-1.43","ren1uy6r65oeauq",187,"37.csv","","null","resources/maskTrios/L1BB.jpg","null","",NA,NA,NA,NA,""
"image-keyboard-response",142,201158,"0.0-3.43-2.43","ren1uy6r65oeauq",187,"37.csv","","null","resources/images/coin2.png","null","",NA,NA,NA,NA,""
"image-keyboard-response",143,202646,"0.0-3.44-0.44","ren1uy6r65oeauq",187,"37.csv","","1487.2000000476837","resources/trios/L4T2A3.jpg","37","restless",0.5,0.4,0.3,0.757860085404543,"false"
"image-keyboard-response",144,203051,"0.0-3.44-1.44","ren1uy6r65oeauq",187,"37.csv","","null","resources/maskTrios/L4BB.jpg","null","",NA,NA,NA,NA,""
"image-keyboard-response",145,204257,"0.0-3.44-2.44","ren1uy6r65oeauq",187,"37.csv","","null","resources/images/fishbone.png","null","",NA,NA,NA,NA,""
"image-keyboard-response",146,204725,"0.0-3.45-0.45","ren1uy6r65oeauq",187,"37.csv","","466.7999999523163","resources/trios/L1T2A3.jpg","39","restless",0.5,0.4,0.3,0.536822475105305,"false"
"image-keyboard-response",147,205130,"0.0-3.45-1.45","ren1uy6r65oeauq",187,"37.csv","","null","resources/maskTrios/BBA3.jpg","null","",NA,NA,NA,NA,""
"image-keyboard-response",148,206331,"0.0-3.45-2.45","ren1uy6r65oeauq",187,"37.csv","","null","resources/images/fishbone.png","null","",NA,NA,NA,NA,""
"image-keyboard-response",149,207859,"0.0-3.46-0.46","ren1uy6r65oeauq",187,"37.csv","","1526.3999999761581","resources/trios/L4T2A2.jpg","37","restless",0.5,0.4,0.3,0.0690225551769146,"true"
"image-keyboard-response",150,208263,"0.0-3.46-1.46","ren1uy6r65oeauq",187,"37.csv","","null","resources/maskTrios/L4BB.jpg","null","",NA,NA,NA,NA,""
"image-keyboard-response",151,209466,"0.0-3.46-2.46","ren1uy6r65oeauq",187,"37.csv","","null","resources/images/coin2.png","null","",NA,NA,NA,NA,""
"image-keyboard-response",152,210030,"0.0-3.47-0.47","ren1uy6r65oeauq",187,"37.csv","","561.9000000953674","resources/trios/L4T2A2.jpg","39","restless",0.5,0.4,0.3,0.610684529866752,"false"
"image-keyboard-response",153,210433,"0.0-3.47-1.47","ren1uy6r65oeauq",187,"37.csv","","null","resources/maskTrios/BBA2.jpg","null","",NA,NA,NA,NA,""
"image-keyboard-response",154,211640,"0.0-3.47-2.47","ren1uy6r65oeauq",187,"37.csv","","null","resources/images/fishbone.png","null","",NA,NA,NA,NA,""
"image-keyboard-response",155,213276,"0.0-3.48-0.48","ren1uy6r65oeauq",187,"37.csv","","1634.8999999761581","resources/trios/L4T1A2.jpg","39","restless",0.6,0.4,0.3,0.609683980457839,"false"
"image-keyboard-response",156,213678,"0.0-3.48-1.48","ren1uy6r65oeauq",187,"37.csv","","null","resources/maskTrios/BBA2.jpg","null","",NA,NA,NA,NA,""
"image-keyboard-response",157,214881,"0.0-3.48-2.48","ren1uy6r65oeauq",187,"37.csv","","null","resources/images/fishbone.png","null","",NA,NA,NA,NA,""
"image-keyboard-response",158,215508,"0.0-3.49-0.49","ren1uy6r65oeauq",187,"37.csv","","625.5","resources/trios/L1T1A3.jpg","39","restless",0.6,0.4,0.3,0.0152303962699178,"true"
"image-keyboard-response",159,215909,"0.0-3.49-1.49","ren1uy6r65oeauq",187,"37.csv","","null","resources/maskTrios/BBA3.jpg","null","",NA,NA,NA,NA,""
"image-keyboard-response",160,217114,"0.0-3.49-2.49","ren1uy6r65oeauq",187,"37.csv","","null","resources/images/coin2.png","null","",NA,NA,NA,NA,""
"image-keyboard-response",161,217658,"0.0-3.50-0.50","ren1uy6r65oeauq",187,"37.csv","","542.6000000238419","resources/trios/L4T1A3.jpg","38","restless",0.6,0.4,0.3,0.347255542789981,"true"
"image-keyboard-response",162,218062,"0.0-3.50-1.50","ren1uy6r65oeauq",187,"37.csv","","null","resources/maskTrios/BT1B.jpg","null","",NA,NA,NA,NA,""
"image-keyboard-response",163,219266,"0.0-3.50-2.50","ren1uy6r65oeauq",187,"37.csv","","null","resources/images/coin2.png","null","",NA,NA,NA,NA,""
"image-keyboard-response",164,219887,"0.0-3.51-0.51","ren1uy6r65oeauq",187,"37.csv","","619.3999999761581","resources/trios/L1T1A3.jpg","37","restless",0.7,0.4,0.3,0.0457761304631725,"true"
"image-keyboard-response",165,220289,"0.0-3.51-1.51","ren1uy6r65oeauq",187,"37.csv","","null","resources/maskTrios/L1BB.jpg","null","",NA,NA,NA,NA,""
"image-keyboard-response",166,221491,"0.0-3.51-2.51","ren1uy6r65oeauq",187,"37.csv","","null","resources/images/coin2.png","null","",NA,NA,NA,NA,""
"image-keyboard-response",167,222212,"0.0-3.52-0.52","ren1uy6r65oeauq",187,"37.csv","","719.6000000238419","resources/trios/L1T2A2.jpg","39","restless",0.7,0.4,0.3,0.766681163082927,"false"
"image-keyboard-response",168,222616,"0.0-3.52-1.52","ren1uy6r65oeauq",187,"37.csv","","null","resources/maskTrios/BBA2.jpg","null","",NA,NA,NA,NA,""
"image-keyboard-response",169,223818,"0.0-3.52-2.52","ren1uy6r65oeauq",187,"37.csv","","null","resources/images/fishbone.png","null","",NA,NA,NA,NA,""
"image-keyboard-response",170,225123,"0.0-3.53-0.53","ren1uy6r65oeauq",187,"37.csv","","1303.6000000238419","resources/trios/L4T1A3.jpg","37","restless",0.7,0.4,0.4,0.930514680751482,"false"
"image-keyboard-response",171,225527,"0.0-3.53-1.53","ren1uy6r65oeauq",187,"37.csv","","null","resources/maskTrios/L4BB.jpg","null","",NA,NA,NA,NA,""
"image-keyboard-response",172,226730,"0.0-3.53-2.53","ren1uy6r65oeauq",187,"37.csv","","null","resources/images/fishbone.png","null","",NA,NA,NA,NA,""
"image-keyboard-response",173,228866,"0.0-3.54-0.54","ren1uy6r65oeauq",187,"37.csv","","2134.5","resources/trios/L4T2A3.jpg","39","restless",0.7,0.5,0.4,0.975599240340804,"false"
"image-keyboard-response",174,229272,"0.0-3.54-1.54","ren1uy6r65oeauq",187,"37.csv","","null","resources/maskTrios/BBA3.jpg","null","",NA,NA,NA,NA,""
"image-keyboard-response",175,230477,"0.0-3.54-2.54","ren1uy6r65oeauq",187,"37.csv","","null","resources/images/fishbone.png","null","",NA,NA,NA,NA,""
"image-keyboard-response",176,230884,"0.0-3.55-0.55","ren1uy6r65oeauq",187,"37.csv","","406","resources/trios/L4T2A3.jpg","39","restless",0.7,0.5,0.4,0.234511524973178,"true"
"image-keyboard-response",177,231288,"0.0-3.55-1.55","ren1uy6r65oeauq",187,"37.csv","","null","resources/maskTrios/BBA3.jpg","null","",NA,NA,NA,NA,""
"image-keyboard-response",178,232494,"0.0-3.55-2.55","ren1uy6r65oeauq",187,"37.csv","","null","resources/images/coin2.png","null","",NA,NA,NA,NA,""
"image-keyboard-response",179,233310,"0.0-3.56-0.56","ren1uy6r65oeauq",187,"37.csv","","815","resources/trios/L1T1A2.jpg","38","restless",0.7,0.5,0.5,0.482085132825624,"true"
"image-keyboard-response",180,233713,"0.0-3.56-1.56","ren1uy6r65oeauq",187,"37.csv","","null","resources/maskTrios/BT1B.jpg","null","",NA,NA,NA,NA,""
"image-keyboard-response",181,234915,"0.0-3.56-2.56","ren1uy6r65oeauq",187,"37.csv","","null","resources/images/coin2.png","null","",NA,NA,NA,NA,""
"image-keyboard-response",182,235441,"0.0-3.57-0.57","ren1uy6r65oeauq",187,"37.csv","","524.9000000953674","resources/trios/L1T1A2.jpg","37","restless",0.7,0.5,0.5,0.775997970644114,"false"
"image-keyboard-response",183,235845,"0.0-3.57-1.57","ren1uy6r65oeauq",187,"37.csv","","null","resources/maskTrios/L1BB.jpg","null","",NA,NA,NA,NA,""
"image-keyboard-response",184,237047,"0.0-3.57-2.57","ren1uy6r65oeauq",187,"37.csv","","null","resources/images/fishbone.png","null","",NA,NA,NA,NA,""
"image-keyboard-response",185,238793,"0.0-3.58-0.58","ren1uy6r65oeauq",187,"37.csv","","1744.0999999046326","resources/trios/L1T2A3.jpg","38","restless",0.7,0.5,0.6,0.835977683744084,"false"
"image-keyboard-response",186,239195,"0.0-3.58-1.58","ren1uy6r65oeauq",187,"37.csv","","null","resources/maskTrios/BT2B.jpg","null","",NA,NA,NA,NA,""
"image-keyboard-response",187,240397,"0.0-3.58-2.58","ren1uy6r65oeauq",187,"37.csv","","null","resources/images/fishbone.png","null","",NA,NA,NA,NA,""
"image-keyboard-response",188,240769,"0.0-3.59-0.59","ren1uy6r65oeauq",187,"37.csv","","370.89999997615814","resources/trios/L1T2A3.jpg","39","restless",0.7,0.5,0.6,0.823842060413471,"false"
"image-keyboard-response",189,241172,"0.0-3.59-1.59","ren1uy6r65oeauq",187,"37.csv","","null","resources/maskTrios/BBA3.jpg","null","",NA,NA,NA,NA,""
"image-keyboard-response",190,242375,"0.0-3.59-2.59","ren1uy6r65oeauq",187,"37.csv","","null","resources/images/fishbone.png","null","",NA,NA,NA,NA,""
"image-keyboard-response",191,245118,"0.0-3.60-0.60","ren1uy6r65oeauq",187,"37.csv","","2741.2000000476837","resources/trios/L1T1A3.jpg","39","restless",0.7,0.5,0.6,0.0557197978465245,"true"
"image-keyboard-response",192,245523,"0.0-3.60-1.60","ren1uy6r65oeauq",187,"37.csv","","null","resources/maskTrios/BBA3.jpg","null","",NA,NA,NA,NA,""
"image-keyboard-response",193,246726,"0.0-3.60-2.60","ren1uy6r65oeauq",187,"37.csv","","null","resources/images/coin2.png","null","",NA,NA,NA,NA,""
"image-keyboard-response",194,247551,"0.0-3.61-0.61","ren1uy6r65oeauq",187,"37.csv","","823.5","resources/trios/L4T2A3.jpg","38","restless",0.7,0.5,0.6,0.522537354958238,"false"
"image-keyboard-response",195,247958,"0.0-3.61-1.61","ren1uy6r65oeauq",187,"37.csv","","null","resources/maskTrios/BT2B.jpg","null","",NA,NA,NA,NA,""
"image-keyboard-response",196,249162,"0.0-3.61-2.61","ren1uy6r65oeauq",187,"37.csv","","null","resources/images/fishbone.png","null","",NA,NA,NA,NA,""
"image-keyboard-response",197,249699,"0.0-3.62-0.62","ren1uy6r65oeauq",187,"37.csv","","535","resources/trios/L4T2A2.jpg","39","restless",0.8,0.5,0.6,0.536064106543131,"true"
"image-keyboard-response",198,250103,"0.0-3.62-1.62","ren1uy6r65oeauq",187,"37.csv","","null","resources/maskTrios/BBA2.jpg","null","",NA,NA,NA,NA,""
"image-keyboard-response",199,251306,"0.0-3.62-2.62","ren1uy6r65oeauq",187,"37.csv","","null","resources/images/coin2.png","null","",NA,NA,NA,NA,""
"image-keyboard-response",200,253752,"0.0-3.63-0.63","ren1uy6r65oeauq",187,"37.csv","","2444.5","resources/trios/L4T1A2.jpg","38","restless",0.8,0.5,0.6,0.900666064882017,"false"
"image-keyboard-response",201,254154,"0.0-3.63-1.63","ren1uy6r65oeauq",187,"37.csv","","null","resources/maskTrios/BT1B.jpg","null","",NA,NA,NA,NA,""
"image-keyboard-response",202,255357,"0.0-3.63-2.63","ren1uy6r65oeauq",187,"37.csv","","null","resources/images/fishbone.png","null","",NA,NA,NA,NA,""
"image-keyboard-response",203,257102,"0.0-3.64-0.64","ren1uy6r65oeauq",187,"37.csv","","1743.6000000238419","resources/trios/L1T1A2.jpg","37","restless",0.8,0.5,0.6,0.615796698154588,"true"
"image-keyboard-response",204,257505,"0.0-3.64-1.64","ren1uy6r65oeauq",187,"37.csv","","null","resources/maskTrios/L1BB.jpg","null","",NA,NA,NA,NA,""
"image-keyboard-response",205,258711,"0.0-3.64-2.64","ren1uy6r65oeauq",187,"37.csv","","null","resources/images/coin2.png","null","",NA,NA,NA,NA,""
"image-keyboard-response",206,260150,"0.0-3.65-0.65","ren1uy6r65oeauq",187,"37.csv","","1437.2999999523163","resources/trios/L1T1A3.jpg","39","restless",0.8,0.5,0.6,0.150058383281985,"true"
"image-keyboard-response",207,260554,"0.0-3.65-1.65","ren1uy6r65oeauq",187,"37.csv","","null","resources/maskTrios/BBA3.jpg","null","",NA,NA,NA,NA,""
"image-keyboard-response",208,261756,"0.0-3.65-2.65","ren1uy6r65oeauq",187,"37.csv","","null","resources/images/coin2.png","null","",NA,NA,NA,NA,""
"image-keyboard-response",209,262200,"0.0-3.66-0.66","ren1uy6r65oeauq",187,"37.csv","","441.60000002384186","resources/trios/L1T2A2.jpg","38","restless",0.8,0.5,0.6,0.373756677288756,"true"
"image-keyboard-response",210,262602,"0.0-3.66-1.66","ren1uy6r65oeauq",187,"37.csv","","null","resources/maskTrios/BT2B.jpg","null","",NA,NA,NA,NA,""
"image-keyboard-response",211,263808,"0.0-3.66-2.66","ren1uy6r65oeauq",187,"37.csv","","null","resources/images/coin2.png","null","",NA,NA,NA,NA,""
"image-keyboard-response",212,264278,"0.0-3.67-0.67","ren1uy6r65oeauq",187,"37.csv","","468.5","resources/trios/L1T1A2.jpg","37","restless",0.8,0.5,0.6,0.59987100248713,"true"
"image-keyboard-response",213,264680,"0.0-3.67-1.67","ren1uy6r65oeauq",187,"37.csv","","null","resources/maskTrios/L1BB.jpg","null","",NA,NA,NA,NA,""
"image-keyboard-response",214,265882,"0.0-3.67-2.67","ren1uy6r65oeauq",187,"37.csv","","null","resources/images/coin2.png","null","",NA,NA,NA,NA,""
"image-keyboard-response",215,266429,"0.0-3.68-0.68","ren1uy6r65oeauq",187,"37.csv","","545.1999999284744","resources/trios/L4T1A3.jpg","37","restless",0.8,0.5,0.6,0.272707470031119,"true"
"image-keyboard-response",216,266835,"0.0-3.68-1.68","ren1uy6r65oeauq",187,"37.csv","","null","resources/maskTrios/L4BB.jpg","null","",NA,NA,NA,NA,""
"image-keyboard-response",217,268038,"0.0-3.68-2.68","ren1uy6r65oeauq",187,"37.csv","","null","resources/images/coin2.png","null","",NA,NA,NA,NA,""
"image-keyboard-response",218,268748,"0.0-3.69-0.69","ren1uy6r65oeauq",187,"37.csv","","708.5","resources/trios/L1T1A3.jpg","38","restless",0.8,0.5,0.6,0.308080710217268,"true"
"image-keyboard-response",219,269151,"0.0-3.69-1.69","ren1uy6r65oeauq",187,"37.csv","","null","resources/maskTrios/BT1B.jpg","null","",NA,NA,NA,NA,""
"image-keyboard-response",220,270353,"0.0-3.69-2.69","ren1uy6r65oeauq",187,"37.csv","","null","resources/images/coin2.png","null","",NA,NA,NA,NA,""
"image-keyboard-response",221,271027,"0.0-3.70-0.70","ren1uy6r65oeauq",187,"37.csv","","672.8999999761581","resources/trios/L4T1A3.jpg","37","restless",0.8,0.5,0.7,0.945309805493138,"false"
"image-keyboard-response",222,271433,"0.0-3.70-1.70","ren1uy6r65oeauq",187,"37.csv","","null","resources/maskTrios/L4BB.jpg","null","",NA,NA,NA,NA,""
"image-keyboard-response",223,272639,"0.0-3.70-2.70","ren1uy6r65oeauq",187,"37.csv","","null","resources/images/fishbone.png","null","",NA,NA,NA,NA,""
"image-keyboard-response",224,273992,"0.0-3.71-0.71","ren1uy6r65oeauq",187,"37.csv","","1352.1000000238419","resources/trios/L1T2A3.jpg","38","restless",0.8,0.5,0.7,0.661889709703876,"false"
"image-keyboard-response",225,274398,"0.0-3.71-1.71","ren1uy6r65oeauq",187,"37.csv","","null","resources/maskTrios/BT2B.jpg","null","",NA,NA,NA,NA,""
"image-keyboard-response",226,275602,"0.0-3.71-2.71","ren1uy6r65oeauq",187,"37.csv","","null","resources/images/fishbone.png","null","",NA,NA,NA,NA,""
"image-keyboard-response",227,276526,"0.0-3.72-0.72","ren1uy6r65oeauq",187,"37.csv","","922.1999999284744","resources/trios/L4T2A2.jpg","39","restless",0.8,0.5,0.7,0.388341952945275,"true"
"image-keyboard-response",228,276930,"0.0-3.72-1.72","ren1uy6r65oeauq",187,"37.csv","","null","resources/maskTrios/BBA2.jpg","null","",NA,NA,NA,NA,""
"image-keyboard-response",229,278136,"0.0-3.72-2.72","ren1uy6r65oeauq",187,"37.csv","","null","resources/images/coin2.png","null","",NA,NA,NA,NA,""
"image-keyboard-response",230,279190,"0.0-3.73-0.73","ren1uy6r65oeauq",187,"37.csv","","1052","resources/trios/L1T1A2.jpg","38","restless",0.8,0.5,0.7,0.978067871401446,"false"
"image-keyboard-response",231,279594,"0.0-3.73-1.73","ren1uy6r65oeauq",187,"37.csv","","null","resources/maskTrios/BT1B.jpg","null","",NA,NA,NA,NA,""
"image-keyboard-response",232,280799,"0.0-3.73-2.73","ren1uy6r65oeauq",187,"37.csv","","null","resources/images/fishbone.png","null","",NA,NA,NA,NA,""
"image-keyboard-response",233,281350,"0.0-3.74-0.74","ren1uy6r65oeauq",187,"37.csv","","549.7999999523163","resources/trios/L4T2A2.jpg","39","restless",0.8,0.5,0.7,0.832985344407015,"false"
"image-keyboard-response",234,281757,"0.0-3.74-1.74","ren1uy6r65oeauq",187,"37.csv","","null","resources/maskTrios/BBA2.jpg","null","",NA,NA,NA,NA,""
"image-keyboard-response",235,282961,"0.0-3.74-2.74","ren1uy6r65oeauq",187,"37.csv","","null","resources/images/fishbone.png","null","",NA,NA,NA,NA,""
"image-keyboard-response",236,284675,"0.0-3.75-0.75","ren1uy6r65oeauq",187,"37.csv","","1713","resources/trios/L1T2A2.jpg","38","restless",0.8,0.5,0.7,0.548894331185219,"false"
"image-keyboard-response",237,285082,"0.0-3.75-1.75","ren1uy6r65oeauq",187,"37.csv","","null","resources/maskTrios/BT2B.jpg","null","",NA,NA,NA,NA,""
"image-keyboard-response",238,286284,"0.0-3.75-2.75","ren1uy6r65oeauq",187,"37.csv","","null","resources/images/fishbone.png","null","",NA,NA,NA,NA,""
"image-keyboard-response",239,286659,"0.0-3.76-0.76","ren1uy6r65oeauq",187,"37.csv","","373.60000002384186","resources/trios/L1T2A3.jpg","38","restless",0.8,0.5,0.7,0.678252368618902,"false"
"image-keyboard-response",240,287064,"0.0-3.76-1.76","ren1uy6r65oeauq",187,"37.csv","","null","resources/maskTrios/BT2B.jpg","null","",NA,NA,NA,NA,""
"image-keyboard-response",241,288267,"0.0-3.76-2.76","ren1uy6r65oeauq",187,"37.csv","","null","resources/images/fishbone.png","null","",NA,NA,NA,NA,""
"image-keyboard-response",242,288682,"0.0-3.77-0.77","ren1uy6r65oeauq",187,"37.csv","","413.2000000476837","resources/trios/L1T1A2.jpg","38","restless",0.8,0.5,0.6,0.314581700584272,"true"
"image-keyboard-response",243,289089,"0.0-3.77-1.77","ren1uy6r65oeauq",187,"37.csv","","null","resources/maskTrios/BT1B.jpg","null","",NA,NA,NA,NA,""
"image-keyboard-response",244,290291,"0.0-3.77-2.77","ren1uy6r65oeauq",187,"37.csv","","null","resources/images/coin2.png","null","",NA,NA,NA,NA,""
"image-keyboard-response",245,290701,"0.0-3.78-0.78","ren1uy6r65oeauq",187,"37.csv","","409.3000000715256","resources/trios/L1T1A2.jpg","39","restless",0.8,0.5,0.6,0.0843036466216225,"true"
"image-keyboard-response",246,291106,"0.0-3.78-1.78","ren1uy6r65oeauq",187,"37.csv","","null","resources/maskTrios/BBA2.jpg","null","",NA,NA,NA,NA,""
"image-keyboard-response",247,292312,"0.0-3.78-2.78","ren1uy6r65oeauq",187,"37.csv","","null","resources/images/coin2.png","null","",NA,NA,NA,NA,""
"image-keyboard-response",248,293316,"0.0-3.79-0.79","ren1uy6r65oeauq",187,"37.csv","","1002.8000000715256","resources/trios/L1T1A2.jpg","39","restless",0.8,0.5,0.6,0.302699821461096,"true"
"image-keyboard-response",249,293720,"0.0-3.79-1.79","ren1uy6r65oeauq",187,"37.csv","","null","resources/maskTrios/BBA2.jpg","null","",NA,NA,NA,NA,""
"image-keyboard-response",250,294923,"0.0-3.79-2.79","ren1uy6r65oeauq",187,"37.csv","","null","resources/images/coin2.png","null","",NA,NA,NA,NA,""
"image-keyboard-response",251,295778,"0.0-3.80-0.80","ren1uy6r65oeauq",187,"37.csv","","853.3000000715256","resources/trios/L4T1A2.jpg","38","restless",0.8,0.5,0.6,0.426043250926863,"true"
"image-keyboard-response",252,296180,"0.0-3.80-1.80","ren1uy6r65oeauq",187,"37.csv","","null","resources/maskTrios/BT1B.jpg","null","",NA,NA,NA,NA,""
"image-keyboard-response",253,297382,"0.0-3.80-2.80","ren1uy6r65oeauq",187,"37.csv","","null","resources/images/coin2.png","null","",NA,NA,NA,NA,""
"image-keyboard-response",254,297921,"0.0-3.81-0.81","ren1uy6r65oeauq",187,"37.csv","","538.1000000238419","resources/trios/L1T2A3.jpg","37","restless",0.8,0.5,0.5,0.129903717384286,"true"
"image-keyboard-response",255,298324,"0.0-3.81-1.81","ren1uy6r65oeauq",187,"37.csv","","null","resources/maskTrios/L1BB.jpg","null","",NA,NA,NA,NA,""
"image-keyboard-response",256,299528,"0.0-3.81-2.81","ren1uy6r65oeauq",187,"37.csv","","null","resources/images/coin2.png","null","",NA,NA,NA,NA,""
"image-keyboard-response",257,299919,"0.0-3.82-0.82","ren1uy6r65oeauq",187,"37.csv","","388.8000000715256","resources/trios/L4T1A3.jpg","37","restless",0.8,0.5,0.4,0.184589365050547,"true"
"image-keyboard-response",258,300324,"0.0-3.82-1.82","ren1uy6r65oeauq",187,"37.csv","","null","resources/maskTrios/L4BB.jpg","null","",NA,NA,NA,NA,""
"image-keyboard-response",259,301527,"0.0-3.82-2.82","ren1uy6r65oeauq",187,"37.csv","","null","resources/images/coin2.png","null","",NA,NA,NA,NA,""
"image-keyboard-response",260,302493,"0.0-3.83-0.83","ren1uy6r65oeauq",187,"37.csv","","964","resources/trios/L4T2A2.jpg","38","restless",0.8,0.5,0.4,0.834578068134579,"false"
"image-keyboard-response",261,302895,"0.0-3.83-1.83","ren1uy6r65oeauq",187,"37.csv","","null","resources/maskTrios/BT2B.jpg","null","",NA,NA,NA,NA,""
"image-keyboard-response",262,304096,"0.0-3.83-2.83","ren1uy6r65oeauq",187,"37.csv","","null","resources/images/fishbone.png","null","",NA,NA,NA,NA,""
"image-keyboard-response",263,307984,"0.0-3.84-0.84","ren1uy6r65oeauq",187,"37.csv","","3886.5999999046326","resources/trios/L1T2A3.jpg","39","restless",0.8,0.5,0.4,0.899322403069741,"false"
"image-keyboard-response",264,308388,"0.0-3.84-1.84","ren1uy6r65oeauq",187,"37.csv","","null","resources/maskTrios/BBA3.jpg","null","",NA,NA,NA,NA,""
"image-keyboard-response",265,309594,"0.0-3.84-2.84","ren1uy6r65oeauq",187,"37.csv","","null","resources/images/fishbone.png","null","",NA,NA,NA,NA,""
"image-keyboard-response",266,311168,"0.0-3.85-0.85","ren1uy6r65oeauq",187,"37.csv","","1573.1000000238419","resources/trios/L4T2A3.jpg","38","restless",0.8,0.5,0.4,0.501545545329744,"false"
"image-keyboard-response",267,311570,"0.0-3.85-1.85","ren1uy6r65oeauq",187,"37.csv","","null","resources/maskTrios/BT2B.jpg","null","",NA,NA,NA,NA,""
"image-keyboard-response",268,312774,"0.0-3.85-2.85","ren1uy6r65oeauq",187,"37.csv","","null","resources/images/fishbone.png","null","",NA,NA,NA,NA,""
"image-keyboard-response",269,314101,"0.0-3.86-0.86","ren1uy6r65oeauq",187,"37.csv","","1326.7999999523163","resources/trios/L1T1A3.jpg","39","restless",0.8,0.5,0.4,0.863271602770256,"false"
"image-keyboard-response",270,314507,"0.0-3.86-1.86","ren1uy6r65oeauq",187,"37.csv","","null","resources/maskTrios/BBA3.jpg","null","",NA,NA,NA,NA,""
"image-keyboard-response",271,315708,"0.0-3.86-2.86","ren1uy6r65oeauq",187,"37.csv","","null","resources/images/fishbone.png","null","",NA,NA,NA,NA,""
"image-keyboard-response",272,316677,"0.0-3.87-0.87","ren1uy6r65oeauq",187,"37.csv","","968","resources/trios/L1T1A3.jpg","37","restless",0.8,0.5,0.5,0.860414904946128,"false"
"image-keyboard-response",273,317078,"0.0-3.87-1.87","ren1uy6r65oeauq",187,"37.csv","","null","resources/maskTrios/L1BB.jpg","null","",NA,NA,NA,NA,""
"image-keyboard-response",274,318279,"0.0-3.87-2.87","ren1uy6r65oeauq",187,"37.csv","","null","resources/images/fishbone.png","null","",NA,NA,NA,NA,""
"image-keyboard-response",275,318728,"0.0-3.88-0.88","ren1uy6r65oeauq",187,"37.csv","","447.60000002384186","resources/trios/L4T2A3.jpg","37","restless",0.9,0.5,0.5,0.758992145959608,"true"
"image-keyboard-response",276,319129,"0.0-3.88-1.88","ren1uy6r65oeauq",187,"37.csv","","null","resources/maskTrios/L4BB.jpg","null","",NA,NA,NA,NA,""
"image-keyboard-response",277,320330,"0.0-3.88-2.88","ren1uy6r65oeauq",187,"37.csv","","null","resources/images/coin2.png","null","",NA,NA,NA,NA,""
"image-keyboard-response",278,321049,"0.0-3.89-0.89","ren1uy6r65oeauq",187,"37.csv","","717.8999999761581","resources/trios/L4T2A2.jpg","38","restless",0.9,0.5,0.5,0.589255914676506,"false"
"image-keyboard-response",279,321450,"0.0-3.89-1.89","ren1uy6r65oeauq",187,"37.csv","","null","resources/maskTrios/BT2B.jpg","null","",NA,NA,NA,NA,""
"image-keyboard-response",280,322652,"0.0-3.89-2.89","ren1uy6r65oeauq",187,"37.csv","","null","resources/images/fishbone.png","null","",NA,NA,NA,NA,""
"image-keyboard-response",281,323052,"0.0-3.90-0.90","ren1uy6r65oeauq",187,"37.csv","","399","resources/trios/L1T2A2.jpg","37","restless",0.9,0.5,0.5,0.951672585497216,"false"
"image-keyboard-response",282,323455,"0.0-3.90-1.90","ren1uy6r65oeauq",187,"37.csv","","null","resources/maskTrios/L1BB.jpg","null","",NA,NA,NA,NA,""
"image-keyboard-response",283,324660,"0.0-3.90-2.90","ren1uy6r65oeauq",187,"37.csv","","null","resources/images/fishbone.png","null","",NA,NA,NA,NA,""
"image-keyboard-response",284,324990,"0.0-3.91-0.91","ren1uy6r65oeauq",187,"37.csv","","324.39999997615814","resources/trios/L4T2A3.jpg","39","restless",0.9,0.5,0.5,0.452176097855698,"true"
"image-keyboard-response",285,325394,"0.0-3.91-1.91","ren1uy6r65oeauq",187,"37.csv","","null","resources/maskTrios/BBA3.jpg","null","",NA,NA,NA,NA,""
"image-keyboard-response",286,326597,"0.0-3.91-2.91","ren1uy6r65oeauq",187,"37.csv","","null","resources/images/coin2.png","null","",NA,NA,NA,NA,""
"image-keyboard-response",287,327241,"0.0-3.92-0.92","ren1uy6r65oeauq",187,"37.csv","","642.5","resources/trios/L4T2A2.jpg","38","restless",0.9,0.5,0.5,0.200755462717981,"true"
"image-keyboard-response",288,327644,"0.0-3.92-1.92","ren1uy6r65oeauq",187,"37.csv","","null","resources/maskTrios/BT2B.jpg","null","",NA,NA,NA,NA,""
"image-keyboard-response",289,328849,"0.0-3.92-2.92","ren1uy6r65oeauq",187,"37.csv","","null","resources/images/coin2.png","null","",NA,NA,NA,NA,""
"image-keyboard-response",290,329256,"0.0-3.93-0.93","ren1uy6r65oeauq",187,"37.csv","","406.3000000715256","resources/trios/L4T2A2.jpg","37","restless",0.9,0.5,0.5,0.527091627752036,"true"
"image-keyboard-response",291,329660,"0.0-3.93-1.93","ren1uy6r65oeauq",187,"37.csv","","null","resources/maskTrios/L4BB.jpg","null","",NA,NA,NA,NA,""
"image-keyboard-response",292,330865,"0.0-3.93-2.93","ren1uy6r65oeauq",187,"37.csv","","null","resources/images/coin2.png","null","",NA,NA,NA,NA,""
"image-keyboard-response",293,331233,"0.0-3.94-0.94","ren1uy6r65oeauq",187,"37.csv","","367.2999999523163","resources/trios/L1T2A3.jpg","37","restless",0.9,0.5,0.5,0.0289411041740177,"true"
"image-keyboard-response",294,331637,"0.0-3.94-1.94","ren1uy6r65oeauq",187,"37.csv","","null","resources/maskTrios/L1BB.jpg","null","",NA,NA,NA,NA,""
"image-keyboard-response",295,332840,"0.0-3.94-2.94","ren1uy6r65oeauq",187,"37.csv","","null","resources/images/coin2.png","null","",NA,NA,NA,NA,""
"image-keyboard-response",296,333550,"0.0-3.95-0.95","ren1uy6r65oeauq",187,"37.csv","","708.5","resources/trios/L4T2A2.jpg","37","restless",0.8,0.5,0.5,0.619794742238016,"true"
"image-keyboard-response",297,333951,"0.0-3.95-1.95","ren1uy6r65oeauq",187,"37.csv","","null","resources/maskTrios/L4BB.jpg","null","",NA,NA,NA,NA,""
"image-keyboard-response",298,335154,"0.0-3.95-2.95","ren1uy6r65oeauq",187,"37.csv","","null","resources/images/coin2.png","null","",NA,NA,NA,NA,""
"image-keyboard-response",299,336996,"0.0-3.96-0.96","ren1uy6r65oeauq",187,"37.csv","","1841.2000000476837","resources/trios/L1T2A3.jpg","39","restless",0.8,0.5,0.5,0.527051692397157,"false"
"image-keyboard-response",300,337397,"0.0-3.96-1.96","ren1uy6r65oeauq",187,"37.csv","","null","resources/maskTrios/BBA3.jpg","null","",NA,NA,NA,NA,""
"image-keyboard-response",301,338602,"0.0-3.96-2.96","ren1uy6r65oeauq",187,"37.csv","","null","resources/images/fishbone.png","null","",NA,NA,NA,NA,""
"image-keyboard-response",302,339490,"0.0-3.97-0.97","ren1uy6r65oeauq",187,"37.csv","","886.8999999761581","resources/trios/L1T1A2.jpg","38","restless",0.7,0.5,0.5,0.497228683517313,"true"
"image-keyboard-response",303,339891,"0.0-3.97-1.97","ren1uy6r65oeauq",187,"37.csv","","null","resources/maskTrios/BT1B.jpg","null","",NA,NA,NA,NA,""
"image-keyboard-response",304,341096,"0.0-3.97-2.97","ren1uy6r65oeauq",187,"37.csv","","null","resources/images/coin2.png","null","",NA,NA,NA,NA,""
"image-keyboard-response",305,341733,"0.0-3.98-0.98","ren1uy6r65oeauq",187,"37.csv","","636.3999999761581","resources/trios/L1T1A3.jpg","39","restless",0.7,0.5,0.5,0.953482016718182,"false"
"image-keyboard-response",306,342135,"0.0-3.98-1.98","ren1uy6r65oeauq",187,"37.csv","","null","resources/maskTrios/BBA3.jpg","null","",NA,NA,NA,NA,""
"image-keyboard-response",307,343336,"0.0-3.98-2.98","ren1uy6r65oeauq",187,"37.csv","","null","resources/images/fishbone.png","null","",NA,NA,NA,NA,""
"image-keyboard-response",308,343817,"0.0-3.99-0.99","ren1uy6r65oeauq",187,"37.csv","","480.8000000715256","resources/trios/L1T1A3.jpg","38","restless",0.7,0.5,0.5,0.834146675659265,"false"
"image-keyboard-response",309,344223,"0.0-3.99-1.99","ren1uy6r65oeauq",187,"37.csv","","null","resources/maskTrios/BT1B.jpg","null","",NA,NA,NA,NA,""
"image-keyboard-response",310,345425,"0.0-3.99-2.99","ren1uy6r65oeauq",187,"37.csv","","null","resources/images/fishbone.png","null","",NA,NA,NA,NA,""
"image-keyboard-response",311,345728,"0.0-3.100-0.100","ren1uy6r65oeauq",187,"37.csv","","302.2000000476837","resources/trios/L4T1A2.jpg","37","restless",0.7,0.5,0.5,0.826067198909133,"false"
"image-keyboard-response",312,346130,"0.0-3.100-1.100","ren1uy6r65oeauq",187,"37.csv","","null","resources/maskTrios/L4BB.jpg","null","",NA,NA,NA,NA,""
"image-keyboard-response",313,347335,"0.0-3.100-2.100","ren1uy6r65oeauq",187,"37.csv","","null","resources/images/fishbone.png","null","",NA,NA,NA,NA,""
"image-keyboard-response",314,348241,"0.0-3.101-0.101","ren1uy6r65oeauq",187,"37.csv","","905.1999999284744","resources/trios/L1T1A3.jpg","37","restless",0.7,0.5,0.6,0.313965776670097,"true"
"image-keyboard-response",315,348644,"0.0-3.101-1.101","ren1uy6r65oeauq",187,"37.csv","","null","resources/maskTrios/L1BB.jpg","null","",NA,NA,NA,NA,""
"image-keyboard-response",316,349850,"0.0-3.101-2.101","ren1uy6r65oeauq",187,"37.csv","","null","resources/images/coin2.png","null","",NA,NA,NA,NA,""
"image-keyboard-response",317,350544,"0.0-3.102-0.102","ren1uy6r65oeauq",187,"37.csv","","693","resources/trios/L1T2A3.jpg","37","restless",0.7,0.5,0.6,0.118884841831735,"true"
"image-keyboard-response",318,350946,"0.0-3.102-1.102","ren1uy6r65oeauq",187,"37.csv","","null","resources/maskTrios/L1BB.jpg","null","",NA,NA,NA,NA,""
"image-keyboard-response",319,352149,"0.0-3.102-2.102","ren1uy6r65oeauq",187,"37.csv","","null","resources/images/coin2.png","null","",NA,NA,NA,NA,""
"image-keyboard-response",320,352518,"0.0-3.103-0.103","ren1uy6r65oeauq",187,"37.csv","","367.6999999284744","resources/trios/L1T2A3.jpg","37","restless",0.7,0.5,0.6,0.186066769113631,"true"
"image-keyboard-response",321,352920,"0.0-3.103-1.103","ren1uy6r65oeauq",187,"37.csv","","null","resources/maskTrios/L1BB.jpg","null","",NA,NA,NA,NA,""
"image-keyboard-response",322,354121,"0.0-3.103-2.103","ren1uy6r65oeauq",187,"37.csv","","null","resources/images/coin2.png","null","",NA,NA,NA,NA,""
"image-keyboard-response",323,355276,"0.0-3.104-0.104","ren1uy6r65oeauq",187,"37.csv","","1153.2999999523163","resources/trios/L1T2A2.jpg","37","restless",0.7,0.5,0.5,0.100177653944487,"true"
"image-keyboard-response",324,355677,"0.0-3.104-1.104","ren1uy6r65oeauq",187,"37.csv","","null","resources/maskTrios/L1BB.jpg","null","",NA,NA,NA,NA,""
"image-keyboard-response",325,356880,"0.0-3.104-2.104","ren1uy6r65oeauq",187,"37.csv","","null","resources/images/coin2.png","null","",NA,NA,NA,NA,""
"image-keyboard-response",326,358615,"0.0-3.105-0.105","ren1uy6r65oeauq",187,"37.csv","","1733.6000000238419","resources/trios/L4T1A2.jpg","37","restless",0.7,0.5,0.5,0.888962521437572,"false"
"image-keyboard-response",327,359021,"0.0-3.105-1.105","ren1uy6r65oeauq",187,"37.csv","","null","resources/maskTrios/L4BB.jpg","null","",NA,NA,NA,NA,""
"image-keyboard-response",328,360227,"0.0-3.105-2.105","ren1uy6r65oeauq",187,"37.csv","","null","resources/images/fishbone.png","null","",NA,NA,NA,NA,""
"image-keyboard-response",329,360569,"0.0-3.106-0.106","ren1uy6r65oeauq",187,"37.csv","","335.7000000476837","resources/trios/L4T1A3.jpg","38","restless",0.7,0.5,0.5,0.360775402905464,"true"
"image-keyboard-response",330,360974,"0.0-3.106-1.106","ren1uy6r65oeauq",187,"37.csv","","null","resources/maskTrios/BT1B.jpg","null","",NA,NA,NA,NA,""
"image-keyboard-response",331,362180,"0.0-3.106-2.106","ren1uy6r65oeauq",187,"37.csv","","null","resources/images/coin2.png","null","",NA,NA,NA,NA,""
"image-keyboard-response",332,362618,"0.0-3.107-0.107","ren1uy6r65oeauq",187,"37.csv","","436.40000009536743","resources/trios/L1T1A3.jpg","38","restless",0.7,0.5,0.5,0.137683536981374,"true"
"image-keyboard-response",333,363020,"0.0-3.107-1.107","ren1uy6r65oeauq",187,"37.csv","","null","resources/maskTrios/BT1B.jpg","null","",NA,NA,NA,NA,""
"image-keyboard-response",334,364227,"0.0-3.107-2.107","ren1uy6r65oeauq",187,"37.csv","","null","resources/images/coin2.png","null","",NA,NA,NA,NA,""
"image-keyboard-response",335,364745,"0.0-3.108-0.108","ren1uy6r65oeauq",187,"37.csv","","516.6999999284744","resources/trios/L1T2A2.jpg","38","restless",0.7,0.4,0.5,0.990170822636348,"false"
"image-keyboard-response",336,365152,"0.0-3.108-1.108","ren1uy6r65oeauq",187,"37.csv","","null","resources/maskTrios/BT2B.jpg","null","",NA,NA,NA,NA,""
"image-keyboard-response",337,366360,"0.0-3.108-2.108","ren1uy6r65oeauq",187,"37.csv","","null","resources/images/fishbone.png","null","",NA,NA,NA,NA,""
"image-keyboard-response",338,366987,"0.0-3.109-0.109","ren1uy6r65oeauq",187,"37.csv","","624.8999999761581","resources/trios/L1T1A2.jpg","39","restless",0.7,0.4,0.6,0.521120203910004,"true"
"image-keyboard-response",339,367392,"0.0-3.109-1.109","ren1uy6r65oeauq",187,"37.csv","","null","resources/maskTrios/BBA2.jpg","null","",NA,NA,NA,NA,""
"image-keyboard-response",340,368594,"0.0-3.109-2.109","ren1uy6r65oeauq",187,"37.csv","","null","resources/images/coin2.png","null","",NA,NA,NA,NA,""
"image-keyboard-response",341,368928,"0.0-3.110-0.110","ren1uy6r65oeauq",187,"37.csv","","331.7000000476837","resources/trios/L1T2A3.jpg","39","restless",0.7,0.4,0.7,0.384458176166009,"true"
"image-keyboard-response",342,369334,"0.0-3.110-1.110","ren1uy6r65oeauq",187,"37.csv","","null","resources/maskTrios/BBA3.jpg","null","",NA,NA,NA,NA,""
"image-keyboard-response",343,370540,"0.0-3.110-2.110","ren1uy6r65oeauq",187,"37.csv","","null","resources/images/coin2.png","null","",NA,NA,NA,NA,""
"image-keyboard-response",344,371086,"0.0-3.111-0.111","ren1uy6r65oeauq",187,"37.csv","","545.6000000238419","resources/trios/L4T2A2.jpg","39","restless",0.7,0.4,0.7,0.590122017076309,"true"
"image-keyboard-response",345,371489,"0.0-3.111-1.111","ren1uy6r65oeauq",187,"37.csv","","null","resources/maskTrios/BBA2.jpg","null","",NA,NA,NA,NA,""
"image-keyboard-response",346,372692,"0.0-3.111-2.111","ren1uy6r65oeauq",187,"37.csv","","null","resources/images/coin2.png","null","",NA,NA,NA,NA,""
"image-keyboard-response",347,373525,"0.0-3.112-0.112","ren1uy6r65oeauq",187,"37.csv","","831.8000000715256","resources/trios/L1T2A2.jpg","39","restless",0.7,0.4,0.6,0.299854754355976,"true"
"image-keyboard-response",348,373927,"0.0-3.112-1.112","ren1uy6r65oeauq",187,"37.csv","","null","resources/maskTrios/BBA2.jpg","null","",NA,NA,NA,NA,""
"image-keyboard-response",349,375128,"0.0-3.112-2.112","ren1uy6r65oeauq",187,"37.csv","","null","resources/images/coin2.png","null","",NA,NA,NA,NA,""
"image-keyboard-response",350,375500,"0.0-3.113-0.113","ren1uy6r65oeauq",187,"37.csv","","370.39999997615814","resources/trios/L4T2A3.jpg","39","restless",0.7,0.4,0.5,0.418770390842536,"true"
"image-keyboard-response",351,375905,"0.0-3.113-1.113","ren1uy6r65oeauq",187,"37.csv","","null","resources/maskTrios/BBA3.jpg","null","",NA,NA,NA,NA,""
"image-keyboard-response",352,377107,"0.0-3.113-2.113","ren1uy6r65oeauq",187,"37.csv","","null","resources/images/coin2.png","null","",NA,NA,NA,NA,""
"image-keyboard-response",353,377532,"0.0-3.114-0.114","ren1uy6r65oeauq",187,"37.csv","","423.6999999284744","resources/trios/L1T1A2.jpg","39","restless",0.7,0.4,0.5,0.787979820418362,"false"
"image-keyboard-response",354,377934,"0.0-3.114-1.114","ren1uy6r65oeauq",187,"37.csv","","null","resources/maskTrios/BBA2.jpg","null","",NA,NA,NA,NA,""
"image-keyboard-response",355,379138,"0.0-3.114-2.114","ren1uy6r65oeauq",187,"37.csv","","null","resources/images/fishbone.png","null","",NA,NA,NA,NA,""
"image-keyboard-response",356,379509,"0.0-3.115-0.115","ren1uy6r65oeauq",187,"37.csv","","369.59999990463257","resources/trios/L4T2A2.jpg","38","restless",0.7,0.4,0.5,0.262331271648566,"true"
"image-keyboard-response",357,379913,"0.0-3.115-1.115","ren1uy6r65oeauq",187,"37.csv","","null","resources/maskTrios/BT2B.jpg","null","",NA,NA,NA,NA,""
"image-keyboard-response",358,381119,"0.0-3.115-2.115","ren1uy6r65oeauq",187,"37.csv","","null","resources/images/coin2.png","null","",NA,NA,NA,NA,""
"image-keyboard-response",359,381476,"0.0-3.116-0.116","ren1uy6r65oeauq",187,"37.csv","","355.5","resources/trios/L4T2A3.jpg","38","restless",0.7,0.4,0.5,0.160855121608493,"true"
"image-keyboard-response",360,381882,"0.0-3.116-1.116","ren1uy6r65oeauq",187,"37.csv","","null","resources/maskTrios/BT2B.jpg","null","",NA,NA,NA,NA,""
"image-keyboard-response",361,383085,"0.0-3.116-2.116","ren1uy6r65oeauq",187,"37.csv","","null","resources/images/coin2.png","null","",NA,NA,NA,NA,""
"image-keyboard-response",362,383441,"0.0-3.117-0.117","ren1uy6r65oeauq",187,"37.csv","","354.59999990463257","resources/trios/L1T1A2.jpg","38","restless",0.7,0.4,0.5,0.943506555376236,"false"
"image-keyboard-response",363,383846,"0.0-3.117-1.117","ren1uy6r65oeauq",187,"37.csv","","null","resources/maskTrios/BT1B.jpg","null","",NA,NA,NA,NA,""
"image-keyboard-response",364,385051,"0.0-3.117-2.117","ren1uy6r65oeauq",187,"37.csv","","null","resources/images/fishbone.png","null","",NA,NA,NA,NA,""
"image-keyboard-response",365,385571,"0.0-3.118-0.118","ren1uy6r65oeauq",187,"37.csv","","518.3000000715256","resources/trios/L1T1A3.jpg","37","restless",0.7,0.4,0.5,0.625053775429365,"true"
"image-keyboard-response",366,385975,"0.0-3.118-1.118","ren1uy6r65oeauq",187,"37.csv","","null","resources/maskTrios/L1BB.jpg","null","",NA,NA,NA,NA,""
"image-keyboard-response",367,387180,"0.0-3.118-2.118","ren1uy6r65oeauq",187,"37.csv","","null","resources/images/coin2.png","null","",NA,NA,NA,NA,""
"image-keyboard-response",368,387538,"0.0-3.119-0.119","ren1uy6r65oeauq",187,"37.csv","","356.2999999523163","resources/trios/L4T2A2.jpg","37","restless",0.7,0.4,0.5,0.65854236435063,"true"
"image-keyboard-response",369,387941,"0.0-3.119-1.119","ren1uy6r65oeauq",187,"37.csv","","null","resources/maskTrios/L4BB.jpg","null","",NA,NA,NA,NA,""
"image-keyboard-response",370,389145,"0.0-3.119-2.119","ren1uy6r65oeauq",187,"37.csv","","null","resources/images/coin2.png","null","",NA,NA,NA,NA,""
"image-keyboard-response",371,389493,"0.0-3.120-0.120","ren1uy6r65oeauq",187,"37.csv","","346.2999999523163","resources/trios/L1T2A3.jpg","37","restless",0.7,0.4,0.5,0.47067485486454,"true"
"image-keyboard-response",372,389896,"0.0-3.120-1.120","ren1uy6r65oeauq",187,"37.csv","","null","resources/maskTrios/L1BB.jpg","null","",NA,NA,NA,NA,""
"image-keyboard-response",373,391103,"0.0-3.120-2.120","ren1uy6r65oeauq",187,"37.csv","","null","resources/images/coin2.png","null","",NA,NA,NA,NA,""
"image-keyboard-response",374,391709,"0.0-3.121-0.121","ren1uy6r65oeauq",187,"37.csv","","604.8999999761581","resources/trios/L1T1A3.jpg","38","restless",0.7,0.4,0.5,0.785480844615794,"false"
"image-keyboard-response",375,392116,"0.0-3.121-1.121","ren1uy6r65oeauq",187,"37.csv","","null","resources/maskTrios/BT1B.jpg","null","",NA,NA,NA,NA,""
"image-keyboard-response",376,393319,"0.0-3.121-2.121","ren1uy6r65oeauq",187,"37.csv","","null","resources/images/fishbone.png","null","",NA,NA,NA,NA,""
"image-keyboard-response",377,393784,"0.0-3.122-0.122","ren1uy6r65oeauq",187,"37.csv","","463","resources/trios/L1T1A3.jpg","38","restless",0.7,0.4,0.5,0.710247419407462,"false"
"image-keyboard-response",378,394189,"0.0-3.122-1.122","ren1uy6r65oeauq",187,"37.csv","","null","resources/maskTrios/BT1B.jpg","null","",NA,NA,NA,NA,""
"image-keyboard-response",379,395394,"0.0-3.122-2.122","ren1uy6r65oeauq",187,"37.csv","","null","resources/images/fishbone.png","null","",NA,NA,NA,NA,""
"image-keyboard-response",380,396599,"0.0-3.123-0.123","ren1uy6r65oeauq",187,"37.csv","","1203.2999999523163","resources/trios/L4T1A2.jpg","38","restless",0.7,0.4,0.5,0.0138012479709471,"true"
"image-keyboard-response",381,397005,"0.0-3.123-1.123","ren1uy6r65oeauq",187,"37.csv","","null","resources/maskTrios/BT1B.jpg","null","",NA,NA,NA,NA,""
"image-keyboard-response",382,398210,"0.0-3.123-2.123","ren1uy6r65oeauq",187,"37.csv","","null","resources/images/coin2.png","null","",NA,NA,NA,NA,""
"image-keyboard-response",383,398898,"0.0-3.124-0.124","ren1uy6r65oeauq",187,"37.csv","","685.8999999761581","resources/trios/L4T1A3.jpg","38","restless",0.7,0.4,0.5,0.719985773244854,"false"
"image-keyboard-response",384,399303,"0.0-3.124-1.124","ren1uy6r65oeauq",187,"37.csv","","null","resources/maskTrios/BT1B.jpg","null","",NA,NA,NA,NA,""
"image-keyboard-response",385,400507,"0.0-3.124-2.124","ren1uy6r65oeauq",187,"37.csv","","null","resources/images/fishbone.png","null","",NA,NA,NA,NA,""
"image-keyboard-response",386,400888,"0.0-3.125-0.125","ren1uy6r65oeauq",187,"37.csv","","377.7999999523163","resources/trios/L4T2A2.jpg","39","restless",0.7,0.4,0.5,0.0213733912546128,"true"
"image-keyboard-response",387,401291,"0.0-3.125-1.125","ren1uy6r65oeauq",187,"37.csv","","null","resources/maskTrios/BBA2.jpg","null","",NA,NA,NA,NA,""
"image-keyboard-response",388,402493,"0.0-3.125-2.125","ren1uy6r65oeauq",187,"37.csv","","null","resources/images/coin2.png","null","",NA,NA,NA,NA,""
"image-keyboard-response",389,402997,"0.0-3.126-0.126","ren1uy6r65oeauq",187,"37.csv","","502","resources/trios/L1T1A3.jpg","39","restless",0.7,0.4,0.5,0.329839476296095,"true"
"image-keyboard-response",390,403404,"0.0-3.126-1.126","ren1uy6r65oeauq",187,"37.csv","","null","resources/maskTrios/BBA3.jpg","null","",NA,NA,NA,NA,""
"image-keyboard-response",391,404608,"0.0-3.126-2.126","ren1uy6r65oeauq",187,"37.csv","","null","resources/images/coin2.png","null","",NA,NA,NA,NA,""
"image-keyboard-response",392,404963,"0.0-3.127-0.127","ren1uy6r65oeauq",187,"37.csv","","353.60000002384186","resources/trios/L1T2A2.jpg","39","restless",0.7,0.4,0.5,0.0396925753266655,"true"
"image-keyboard-response",393,405366,"0.0-3.127-1.127","ren1uy6r65oeauq",187,"37.csv","","null","resources/maskTrios/BBA2.jpg","null","",NA,NA,NA,NA,""
"image-keyboard-response",394,406568,"0.0-3.127-2.127","ren1uy6r65oeauq",187,"37.csv","","null","resources/images/coin2.png","null","",NA,NA,NA,NA,""
"image-keyboard-response",395,406988,"0.0-3.128-0.128","ren1uy6r65oeauq",187,"37.csv","","418.5","resources/trios/L1T1A2.jpg","39","restless",0.7,0.4,0.5,0.658406713370233,"false"
"image-keyboard-response",396,407391,"0.0-3.128-1.128","ren1uy6r65oeauq",187,"37.csv","","null","resources/maskTrios/BBA2.jpg","null","",NA,NA,NA,NA,""
"image-keyboard-response",397,408597,"0.0-3.128-2.128","ren1uy6r65oeauq",187,"37.csv","","null","resources/images/fishbone.png","null","",NA,NA,NA,NA,""
"image-keyboard-response",398,408993,"0.0-3.129-0.129","ren1uy6r65oeauq",187,"37.csv","","395.10000002384186","resources/trios/L1T2A2.jpg","38","restless",0.7,0.4,0.5,0.608939537070389,"false"
"image-keyboard-response",399,409398,"0.0-3.129-1.129","ren1uy6r65oeauq",187,"37.csv","","null","resources/maskTrios/BT2B.jpg","null","",NA,NA,NA,NA,""
"image-keyboard-response",400,410600,"0.0-3.129-2.129","ren1uy6r65oeauq",187,"37.csv","","null","resources/images/fishbone.png","null","",NA,NA,NA,NA,""
"image-keyboard-response",401,410951,"0.0-3.130-0.130","ren1uy6r65oeauq",187,"37.csv","","349.1999999284744","resources/trios/L4T1A3.jpg","38","restless",0.7,0.4,0.5,0.503473852260621,"false"
"image-keyboard-response",402,411357,"0.0-3.130-1.130","ren1uy6r65oeauq",187,"37.csv","","null","resources/maskTrios/BT1B.jpg","null","",NA,NA,NA,NA,""
"image-keyboard-response",403,412561,"0.0-3.130-2.130","ren1uy6r65oeauq",187,"37.csv","","null","resources/images/fishbone.png","null","",NA,NA,NA,NA,""
"image-keyboard-response",404,412885,"0.0-3.131-0.131","ren1uy6r65oeauq",187,"37.csv","","322.5","resources/trios/L4T2A2.jpg","37","restless",0.7,0.4,0.5,0.525173749979488,"true"
"image-keyboard-response",405,413289,"0.0-3.131-1.131","ren1uy6r65oeauq",187,"37.csv","","null","resources/maskTrios/L4BB.jpg","null","",NA,NA,NA,NA,""
"image-keyboard-response",406,414494,"0.0-3.131-2.131","ren1uy6r65oeauq",187,"37.csv","","null","resources/images/coin2.png","null","",NA,NA,NA,NA,""
"image-keyboard-response",407,415130,"0.0-3.132-0.132","ren1uy6r65oeauq",187,"37.csv","","634.4000000953674","resources/trios/L1T2A2.jpg","37","restless",0.7,0.4,0.6,0.985732349584487,"false"
"image-keyboard-response",408,415536,"0.0-3.132-1.132","ren1uy6r65oeauq",187,"37.csv","","null","resources/maskTrios/L1BB.jpg","null","",NA,NA,NA,NA,""
"image-keyboard-response",409,416740,"0.0-3.132-2.132","ren1uy6r65oeauq",187,"37.csv","","null","resources/images/fishbone.png","null","",NA,NA,NA,NA,""
"image-keyboard-response",410,417030,"0.0-3.133-0.133","ren1uy6r65oeauq",187,"37.csv","","288.90000009536743","resources/trios/L1T2A3.jpg","38","restless",0.7,0.4,0.6,0.330907540686527,"true"
"image-keyboard-response",411,417432,"0.0-3.133-1.133","ren1uy6r65oeauq",187,"37.csv","","null","resources/maskTrios/BT2B.jpg","null","",NA,NA,NA,NA,""
"image-keyboard-response",412,418634,"0.0-3.133-2.133","ren1uy6r65oeauq",187,"37.csv","","null","resources/images/coin2.png","null","",NA,NA,NA,NA,""
"image-keyboard-response",413,419201,"0.0-3.134-0.134","ren1uy6r65oeauq",187,"37.csv","","565.1999999284744","resources/trios/L4T1A2.jpg","38","restless",0.7,0.4,0.6,0.794286428452744,"false"
"image-keyboard-response",414,419607,"0.0-3.134-1.134","ren1uy6r65oeauq",187,"37.csv","","null","resources/maskTrios/BT1B.jpg","null","",NA,NA,NA,NA,""
"image-keyboard-response",415,420812,"0.0-3.134-2.134","ren1uy6r65oeauq",187,"37.csv","","null","resources/images/fishbone.png","null","",NA,NA,NA,NA,""
"image-keyboard-response",416,421099,"0.0-3.135-0.135","ren1uy6r65oeauq",187,"37.csv","","286.10000002384186","resources/trios/L1T2A2.jpg","39","restless",0.7,0.4,0.7,0.390434570354271,"true"
"image-keyboard-response",417,421503,"0.0-3.135-1.135","ren1uy6r65oeauq",187,"37.csv","","null","resources/maskTrios/BBA2.jpg","null","",NA,NA,NA,NA,""
"image-keyboard-response",418,422710,"0.0-3.135-2.135","ren1uy6r65oeauq",187,"37.csv","","null","resources/images/coin2.png","null","",NA,NA,NA,NA,""
"image-keyboard-response",419,423029,"0.0-3.136-0.136","ren1uy6r65oeauq",187,"37.csv","","317.5","resources/trios/L4T1A2.jpg","39","restless",0.7,0.4,0.7,0.559618362382544,"true"
"image-keyboard-response",420,423434,"0.0-3.136-1.136","ren1uy6r65oeauq",187,"37.csv","","null","resources/maskTrios/BBA2.jpg","null","",NA,NA,NA,NA,""
"image-keyboard-response",421,424639,"0.0-3.136-2.136","ren1uy6r65oeauq",187,"37.csv","","null","resources/images/coin2.png","null","",NA,NA,NA,NA,""
"image-keyboard-response",422,425035,"0.0-3.137-0.137","ren1uy6r65oeauq",187,"37.csv","","394.2000000476837","resources/trios/L4T2A3.jpg","39","restless",0.6,0.5,0.7,0.466798483173435,"true"
"image-keyboard-response",423,425437,"0.0-3.137-1.137","ren1uy6r65oeauq",187,"37.csv","","null","resources/maskTrios/BBA3.jpg","null","",NA,NA,NA,NA,""
"image-keyboard-response",424,426639,"0.0-3.137-2.137","ren1uy6r65oeauq",187,"37.csv","","null","resources/images/coin2.png","null","",NA,NA,NA,NA,""
"image-keyboard-response",425,427259,"0.0-3.138-0.138","ren1uy6r65oeauq",187,"37.csv","","618.8000000715256","resources/trios/L4T1A2.jpg","39","restless",0.6,0.5,0.7,0.824402493865638,"false"
"image-keyboard-response",426,427661,"0.0-3.138-1.138","ren1uy6r65oeauq",187,"37.csv","","null","resources/maskTrios/BBA2.jpg","null","",NA,NA,NA,NA,""
"image-keyboard-response",427,428862,"0.0-3.138-2.138","ren1uy6r65oeauq",187,"37.csv","","null","resources/images/fishbone.png","null","",NA,NA,NA,NA,""
"image-keyboard-response",428,429252,"0.0-3.139-0.139","ren1uy6r65oeauq",187,"37.csv","","388.39999997615814","resources/trios/L4T1A3.jpg","38","restless",0.6,0.5,0.7,0.778633816150578,"false"
"image-keyboard-response",429,429656,"0.0-3.139-1.139","ren1uy6r65oeauq",187,"37.csv","","null","resources/maskTrios/BT1B.jpg","null","",NA,NA,NA,NA,""
"image-keyboard-response",430,430862,"0.0-3.139-2.139","ren1uy6r65oeauq",187,"37.csv","","null","resources/images/fishbone.png","null","",NA,NA,NA,NA,""
"image-keyboard-response",431,431221,"0.0-3.140-0.140","ren1uy6r65oeauq",187,"37.csv","","356.60000002384186","resources/trios/L4T1A3.jpg","37","restless",0.6,0.5,0.7,0.43122035092368,"true"
"image-keyboard-response",432,431625,"0.0-3.140-1.140","ren1uy6r65oeauq",187,"37.csv","","null","resources/maskTrios/L4BB.jpg","null","",NA,NA,NA,NA,""
"image-keyboard-response",433,432830,"0.0-3.140-2.140","ren1uy6r65oeauq",187,"37.csv","","null","resources/images/coin2.png","null","",NA,NA,NA,NA,""
"image-keyboard-response",434,433202,"0.0-3.141-0.141","ren1uy6r65oeauq",187,"37.csv","","370.8000000715256","resources/trios/L1T1A3.jpg","37","restless",0.6,0.5,0.7,0.560668905601252,"true"
"image-keyboard-response",435,433605,"0.0-3.141-1.141","ren1uy6r65oeauq",187,"37.csv","","null","resources/maskTrios/L1BB.jpg","null","",NA,NA,NA,NA,""
"image-keyboard-response",436,434810,"0.0-3.141-2.141","ren1uy6r65oeauq",187,"37.csv","","null","resources/images/coin2.png","null","",NA,NA,NA,NA,""
"image-keyboard-response",437,435114,"0.0-3.142-0.142","ren1uy6r65oeauq",187,"37.csv","","302.90000009536743","resources/trios/L4T2A2.jpg","37","restless",0.5,0.6,0.7,0.675829008143608,"false"
"image-keyboard-response",438,435517,"0.0-3.142-1.142","ren1uy6r65oeauq",187,"37.csv","","null","resources/maskTrios/L4BB.jpg","null","",NA,NA,NA,NA,""
"image-keyboard-response",439,436720,"0.0-3.142-2.142","ren1uy6r65oeauq",187,"37.csv","","null","resources/images/fishbone.png","null","",NA,NA,NA,NA,""
"image-keyboard-response",440,437020,"0.0-3.143-0.143","ren1uy6r65oeauq",187,"37.csv","","298.7999999523163","resources/trios/L4T1A3.jpg","38","restless",0.5,0.6,0.8,0.421615373432866,"true"
"image-keyboard-response",441,437426,"0.0-3.143-1.143","ren1uy6r65oeauq",187,"37.csv","","null","resources/maskTrios/BT1B.jpg","null","",NA,NA,NA,NA,""
"image-keyboard-response",442,438632,"0.0-3.143-2.143","ren1uy6r65oeauq",187,"37.csv","","null","resources/images/coin2.png","null","",NA,NA,NA,NA,""
"image-keyboard-response",443,439010,"0.0-3.144-0.144","ren1uy6r65oeauq",187,"37.csv","","376.10000002384186","resources/trios/L4T2A2.jpg","38","restless",0.5,0.6,0.8,0.470475874195558,"true"
"image-keyboard-response",444,439412,"0.0-3.144-1.144","ren1uy6r65oeauq",187,"37.csv","","null","resources/maskTrios/BT2B.jpg","null","",NA,NA,NA,NA,""
"image-keyboard-response",445,440615,"0.0-3.144-2.144","ren1uy6r65oeauq",187,"37.csv","","null","resources/images/coin2.png","null","",NA,NA,NA,NA,""
"image-keyboard-response",446,440915,"0.0-3.145-0.145","ren1uy6r65oeauq",187,"37.csv","","298.5","resources/trios/L1T1A3.jpg","38","restless",0.4,0.6,0.7,0.754385578761745,"false"
"image-keyboard-response",447,441320,"0.0-3.145-1.145","ren1uy6r65oeauq",187,"37.csv","","null","resources/maskTrios/BT1B.jpg","null","",NA,NA,NA,NA,""
"image-keyboard-response",448,442524,"0.0-3.145-2.145","ren1uy6r65oeauq",187,"37.csv","","null","resources/images/fishbone.png","null","",NA,NA,NA,NA,""
"image-keyboard-response",449,442851,"0.0-3.146-0.146","ren1uy6r65oeauq",187,"37.csv","","324.89999997615814","resources/trios/L1T1A3.jpg","37","restless",0.4,0.6,0.7,0.722306155469942,"false"
"image-keyboard-response",450,443255,"0.0-3.146-1.146","ren1uy6r65oeauq",187,"37.csv","","null","resources/maskTrios/L1BB.jpg","null","",NA,NA,NA,NA,""
"image-keyboard-response",451,444461,"0.0-3.146-2.146","ren1uy6r65oeauq",187,"37.csv","","null","resources/images/fishbone.png","null","",NA,NA,NA,NA,""
"image-keyboard-response",452,444787,"0.0-3.147-0.147","ren1uy6r65oeauq",187,"37.csv","","323.89999997615814","resources/trios/L4T1A2.jpg","39","restless",0.4,0.6,0.7,0.970540838819442,"false"
"image-keyboard-response",453,445189,"0.0-3.147-1.147","ren1uy6r65oeauq",187,"37.csv","","null","resources/maskTrios/BBA2.jpg","null","",NA,NA,NA,NA,""
"image-keyboard-response",454,446391,"0.0-3.147-2.147","ren1uy6r65oeauq",187,"37.csv","","null","resources/images/fishbone.png","null","",NA,NA,NA,NA,""
"image-keyboard-response",455,446653,"0.0-3.148-0.148","ren1uy6r65oeauq",187,"37.csv","","260.5","resources/trios/L4T1A2.jpg","38","restless",0.4,0.6,0.7,0.609333424188257,"false"
"image-keyboard-response",456,447055,"0.0-3.148-1.148","ren1uy6r65oeauq",187,"37.csv","","null","resources/maskTrios/BT1B.jpg","null","",NA,NA,NA,NA,""
"image-keyboard-response",457,448259,"0.0-3.148-2.148","ren1uy6r65oeauq",187,"37.csv","","null","resources/images/fishbone.png","null","",NA,NA,NA,NA,""
"image-keyboard-response",458,448489,"0.0-3.149-0.149","ren1uy6r65oeauq",187,"37.csv","","228.89999997615814","resources/trios/L1T2A3.jpg","37","restless",0.4,0.6,0.7,0.385604136258156,"true"
"image-keyboard-response",459,448891,"0.0-3.149-1.149","ren1uy6r65oeauq",187,"37.csv","","null","resources/maskTrios/L1BB.jpg","null","",NA,NA,NA,NA,""
"image-keyboard-response",460,450097,"0.0-3.149-2.149","ren1uy6r65oeauq",187,"37.csv","","null","resources/images/coin2.png","null","",NA,NA,NA,NA,""
"image-keyboard-response",461,450466,"0.0-3.150-0.150","ren1uy6r65oeauq",187,"37.csv","","367.39999997615814","resources/trios/L1T1A3.jpg","37","restless",0.4,0.5,0.7,0.592323144238991,"false"
"image-keyboard-response",462,450869,"0.0-3.150-1.150","ren1uy6r65oeauq",187,"37.csv","","null","resources/maskTrios/L1BB.jpg","null","",NA,NA,NA,NA,""
"image-keyboard-response",463,452070,"0.0-3.150-2.150","ren1uy6r65oeauq",187,"37.csv","","null","resources/images/fishbone.png","null","",NA,NA,NA,NA,""
"image-keyboard-response",464,453312,"0.0-3.151-0.151","ren1uy6r65oeauq",187,"37.csv","","1241.1000000238419","resources/trios/L4T1A3.jpg","39","restless",0.4,0.5,0.7,0.138180425327603,"true"
"image-keyboard-response",465,453719,"0.0-3.151-1.151","ren1uy6r65oeauq",187,"37.csv","","null","resources/maskTrios/BBA3.jpg","null","",NA,NA,NA,NA,""
"image-keyboard-response",466,454923,"0.0-3.151-2.151","ren1uy6r65oeauq",187,"37.csv","","null","resources/images/coin2.png","null","",NA,NA,NA,NA,""
"image-keyboard-response",467,455294,"0.0-3.152-0.152","ren1uy6r65oeauq",187,"37.csv","","369.60000002384186","resources/trios/L4T2A3.jpg","39","restless",0.4,0.5,0.7,0.975790892684647,"false"
"image-keyboard-response",468,455697,"0.0-3.152-1.152","ren1uy6r65oeauq",187,"37.csv","","null","resources/maskTrios/BBA3.jpg","null","",NA,NA,NA,NA,""
"image-keyboard-response",469,456901,"0.0-3.152-2.152","ren1uy6r65oeauq",187,"37.csv","","null","resources/images/fishbone.png","null","",NA,NA,NA,NA,""
"image-keyboard-response",470,457518,"0.0-3.153-0.153","ren1uy6r65oeauq",187,"37.csv","","615.6000000238419","resources/trios/L1T1A3.jpg","37","restless",0.4,0.5,0.7,0.887586516242572,"false"
"image-keyboard-response",471,457925,"0.0-3.153-1.153","ren1uy6r65oeauq",187,"37.csv","","null","resources/maskTrios/L1BB.jpg","null","",NA,NA,NA,NA,""
"image-keyboard-response",472,459127,"0.0-3.153-2.153","ren1uy6r65oeauq",187,"37.csv","","null","resources/images/fishbone.png","null","",NA,NA,NA,NA,""
"image-keyboard-response",473,459513,"0.0-3.154-0.154","ren1uy6r65oeauq",187,"37.csv","","385","resources/trios/L4T1A3.jpg","38","restless",0.4,0.5,0.7,0.101428298561277,"true"
"image-keyboard-response",474,459915,"0.0-3.154-1.154","ren1uy6r65oeauq",187,"37.csv","","null","resources/maskTrios/BT1B.jpg","null","",NA,NA,NA,NA,""
"image-keyboard-response",475,461118,"0.0-3.154-2.154","ren1uy6r65oeauq",187,"37.csv","","null","resources/images/coin2.png","null","",NA,NA,NA,NA,""
"image-keyboard-response",476,461466,"0.0-3.155-0.155","ren1uy6r65oeauq",187,"37.csv","","346.8000000715256","resources/trios/L1T2A2.jpg","38","restless",0.4,0.5,0.7,0.207627186777779,"true"
"image-keyboard-response",477,461873,"0.0-3.155-1.155","ren1uy6r65oeauq",187,"37.csv","","null","resources/maskTrios/BT2B.jpg","null","",NA,NA,NA,NA,""
"image-keyboard-response",478,463076,"0.0-3.155-2.155","ren1uy6r65oeauq",187,"37.csv","","null","resources/images/coin2.png","null","",NA,NA,NA,NA,""
"image-keyboard-response",479,463491,"0.0-3.156-0.156","ren1uy6r65oeauq",187,"37.csv","","414.09999990463257","resources/trios/L1T1A2.jpg","38","restless",0.4,0.5,0.6,0.0416249394877286,"true"
"image-keyboard-response",480,463893,"0.0-3.156-1.156","ren1uy6r65oeauq",187,"37.csv","","null","resources/maskTrios/BT1B.jpg","null","",NA,NA,NA,NA,""
"image-keyboard-response",481,465097,"0.0-3.156-2.156","ren1uy6r65oeauq",187,"37.csv","","null","resources/images/coin2.png","null","",NA,NA,NA,NA,""
"image-keyboard-response",482,465447,"0.0-3.157-0.157","ren1uy6r65oeauq",187,"37.csv","","348.10000002384186","resources/trios/L1T1A3.jpg","38","restless",0.4,0.5,0.6,0.30492949553206,"true"
"image-keyboard-response",483,465850,"0.0-3.157-1.157","ren1uy6r65oeauq",187,"37.csv","","null","resources/maskTrios/BT1B.jpg","null","",NA,NA,NA,NA,""
"image-keyboard-response",484,467055,"0.0-3.157-2.157","ren1uy6r65oeauq",187,"37.csv","","null","resources/images/coin2.png","null","",NA,NA,NA,NA,""
"image-keyboard-response",485,467371,"0.0-3.158-0.158","ren1uy6r65oeauq",187,"37.csv","","313.7000000476837","resources/trios/L4T2A2.jpg","38","restless",0.4,0.6,0.6,0.387108386702983,"true"
"image-keyboard-response",486,467775,"0.0-3.158-1.158","ren1uy6r65oeauq",187,"37.csv","","null","resources/maskTrios/BT2B.jpg","null","",NA,NA,NA,NA,""
"image-keyboard-response",487,468979,"0.0-3.158-2.158","ren1uy6r65oeauq",187,"37.csv","","null","resources/images/coin2.png","null","",NA,NA,NA,NA,""
"image-keyboard-response",488,469340,"0.0-3.159-0.159","ren1uy6r65oeauq",187,"37.csv","","359.5","resources/trios/L1T2A3.jpg","38","restless",0.4,0.6,0.6,0.90046162599437,"false"
"image-keyboard-response",489,469743,"0.0-3.159-1.159","ren1uy6r65oeauq",187,"37.csv","","null","resources/maskTrios/BT2B.jpg","null","",NA,NA,NA,NA,""
"image-keyboard-response",490,470948,"0.0-3.159-2.159","ren1uy6r65oeauq",187,"37.csv","","null","resources/images/fishbone.png","null","",NA,NA,NA,NA,""
"image-keyboard-response",491,471278,"0.0-3.160-0.160","ren1uy6r65oeauq",187,"37.csv","","328.39999997615814","resources/trios/L4T1A3.jpg","37","restless",0.4,0.6,0.6,0.0691030206500376,"true"
"image-keyboard-response",492,471684,"0.0-3.160-1.160","ren1uy6r65oeauq",187,"37.csv","","null","resources/maskTrios/L4BB.jpg","null","",NA,NA,NA,NA,""
"image-keyboard-response",493,472889,"0.0-3.160-2.160","ren1uy6r65oeauq",187,"37.csv","","null","resources/images/coin2.png","null","",NA,NA,NA,NA,""
"image-keyboard-response",494,473750,"0.0-3.161-0.161","ren1uy6r65oeauq",187,"37.csv","","859.1000000238419","resources/trios/L4T1A3.jpg","37","restless",0.4,0.6,0.6,0.676213681223838,"false"
"image-keyboard-response",495,474153,"0.0-3.161-1.161","ren1uy6r65oeauq",187,"37.csv","","null","resources/maskTrios/L4BB.jpg","null","",NA,NA,NA,NA,""
"image-keyboard-response",496,475357,"0.0-3.161-2.161","ren1uy6r65oeauq",187,"37.csv","","null","resources/images/fishbone.png","null","",NA,NA,NA,NA,""
"image-keyboard-response",497,475797,"0.0-3.162-0.162","ren1uy6r65oeauq",187,"37.csv","","438.8000000715256","resources/trios/L4T1A2.jpg","39","restless",0.5,0.6,0.6,0.319398288754159,"true"
"image-keyboard-response",498,476200,"0.0-3.162-1.162","ren1uy6r65oeauq",187,"37.csv","","null","resources/maskTrios/BBA2.jpg","null","",NA,NA,NA,NA,""
"image-keyboard-response",499,477406,"0.0-3.162-2.162","ren1uy6r65oeauq",187,"37.csv","","null","resources/images/coin2.png","null","",NA,NA,NA,NA,""
"image-keyboard-response",500,477823,"0.0-3.163-0.163","ren1uy6r65oeauq",187,"37.csv","","414.6999999284744","resources/trios/L4T1A3.jpg","39","restless",0.5,0.6,0.6,0.884145068029405,"false"
"image-keyboard-response",501,478229,"0.0-3.163-1.163","ren1uy6r65oeauq",187,"37.csv","","null","resources/maskTrios/BBA3.jpg","null","",NA,NA,NA,NA,""
"image-keyboard-response",502,479431,"0.0-3.163-2.163","ren1uy6r65oeauq",187,"37.csv","","null","resources/images/fishbone.png","null","",NA,NA,NA,NA,""
"image-keyboard-response",503,480056,"0.0-3.164-0.164","ren1uy6r65oeauq",187,"37.csv","","622.7000000476837","resources/trios/L1T2A3.jpg","37","restless",0.5,0.6,0.6,0.424728586061898,"true"
"image-keyboard-response",504,480459,"0.0-3.164-1.164","ren1uy6r65oeauq",187,"37.csv","","null","resources/maskTrios/L1BB.jpg","null","",NA,NA,NA,NA,""
"image-keyboard-response",505,481665,"0.0-3.164-2.164","ren1uy6r65oeauq",187,"37.csv","","null","resources/images/coin2.png","null","",NA,NA,NA,NA,""
"image-keyboard-response",506,482094,"0.0-3.165-0.165","ren1uy6r65oeauq",187,"37.csv","","428.1999999284744","resources/trios/L1T1A2.jpg","37","restless",0.5,0.6,0.6,0.746400319817618,"false"
"image-keyboard-response",507,482499,"0.0-3.165-1.165","ren1uy6r65oeauq",187,"37.csv","","null","resources/maskTrios/L1BB.jpg","null","",NA,NA,NA,NA,""
"image-keyboard-response",508,483701,"0.0-3.165-2.165","ren1uy6r65oeauq",187,"37.csv","","null","resources/images/fishbone.png","null","",NA,NA,NA,NA,""
"image-keyboard-response",509,484334,"0.0-3.166-0.166","ren1uy6r65oeauq",187,"37.csv","","630.8000000715256","resources/trios/L1T1A2.jpg","38","restless",0.5,0.6,0.6,0.677818463859762,"false"
"image-keyboard-response",510,484737,"0.0-3.166-1.166","ren1uy6r65oeauq",187,"37.csv","","null","resources/maskTrios/BT1B.jpg","null","",NA,NA,NA,NA,""
"image-keyboard-response",511,485940,"0.0-3.166-2.166","ren1uy6r65oeauq",187,"37.csv","","null","resources/images/fishbone.png","null","",NA,NA,NA,NA,""
"image-keyboard-response",512,486209,"0.0-3.167-0.167","ren1uy6r65oeauq",187,"37.csv","","266.89999997615814","resources/trios/L1T1A3.jpg","39","restless",0.5,0.6,0.6,0.215563626152878,"true"
"image-keyboard-response",513,486615,"0.0-3.167-1.167","ren1uy6r65oeauq",187,"37.csv","","null","resources/maskTrios/BBA3.jpg","null","",NA,NA,NA,NA,""
"image-keyboard-response",514,487817,"0.0-3.167-2.167","ren1uy6r65oeauq",187,"37.csv","","null","resources/images/coin2.png","null","",NA,NA,NA,NA,""
"image-keyboard-response",515,488177,"0.0-3.168-0.168","ren1uy6r65oeauq",187,"37.csv","","358.6999999284744","resources/trios/L1T2A2.jpg","39","restless",0.6,0.6,0.6,0.819202393993184,"false"
"image-keyboard-response",516,488582,"0.0-3.168-1.168","ren1uy6r65oeauq",187,"37.csv","","null","resources/maskTrios/BBA2.jpg","null","",NA,NA,NA,NA,""
"image-keyboard-response",517,489786,"0.0-3.168-2.168","ren1uy6r65oeauq",187,"37.csv","","null","resources/images/fishbone.png","null","",NA,NA,NA,NA,""
"image-keyboard-response",518,490368,"0.0-3.169-0.169","ren1uy6r65oeauq",187,"37.csv","","580.0999999046326","resources/trios/L4T2A2.jpg","37","restless",0.6,0.7,0.6,0.121718574140996,"true"
"image-keyboard-response",519,490774,"0.0-3.169-1.169","ren1uy6r65oeauq",187,"37.csv","","null","resources/maskTrios/L4BB.jpg","null","",NA,NA,NA,NA,""
"image-keyboard-response",520,491977,"0.0-3.169-2.169","ren1uy6r65oeauq",187,"37.csv","","null","resources/images/coin2.png","null","",NA,NA,NA,NA,""
"image-keyboard-response",521,492321,"0.0-3.170-0.170","ren1uy6r65oeauq",187,"37.csv","","342.5","resources/trios/L1T2A3.jpg","37","restless",0.6,0.7,0.6,0.554913713652784,"true"
"image-keyboard-response",522,492725,"0.0-3.170-1.170","ren1uy6r65oeauq",187,"37.csv","","null","resources/maskTrios/L1BB.jpg","null","",NA,NA,NA,NA,""
"image-keyboard-response",523,493927,"0.0-3.170-2.170","ren1uy6r65oeauq",187,"37.csv","","null","resources/images/coin2.png","null","",NA,NA,NA,NA,""
"image-keyboard-response",524,494293,"0.0-3.171-0.171","ren1uy6r65oeauq",187,"37.csv","","364.1999999284744","resources/trios/L1T1A3.jpg","37","restless",0.6,0.7,0.6,0.907580639631331,"false"
"image-keyboard-response",525,494697,"0.0-3.171-1.171","ren1uy6r65oeauq",187,"37.csv","","null","resources/maskTrios/L1BB.jpg","null","",NA,NA,NA,NA,""
"image-keyboard-response",526,495901,"0.0-3.171-2.171","ren1uy6r65oeauq",187,"37.csv","","null","resources/images/fishbone.png","null","",NA,NA,NA,NA,""
"image-keyboard-response",527,496368,"0.0-3.172-0.172","ren1uy6r65oeauq",187,"37.csv","","464.60000002384186","resources/trios/L4T2A2.jpg","39","restless",0.6,0.7,0.6,0.931354956183963,"false"
"image-keyboard-response",528,496772,"0.0-3.172-1.172","ren1uy6r65oeauq",187,"37.csv","","null","resources/maskTrios/BBA2.jpg","null","",NA,NA,NA,NA,""
"image-keyboard-response",529,497974,"0.0-3.172-2.172","ren1uy6r65oeauq",187,"37.csv","","null","resources/images/fishbone.png","null","",NA,NA,NA,NA,""
"image-keyboard-response",530,498427,"0.0-3.173-0.173","ren1uy6r65oeauq",187,"37.csv","","450.89999997615814","resources/trios/L4T1A3.jpg","38","restless",0.5,0.7,0.6,0.00833311106844392,"true"
"image-keyboard-response",531,498832,"0.0-3.173-1.173","ren1uy6r65oeauq",187,"37.csv","","null","resources/maskTrios/BT1B.jpg","null","",NA,NA,NA,NA,""
"image-keyboard-response",532,500037,"0.0-3.173-2.173","ren1uy6r65oeauq",187,"37.csv","","null","resources/images/coin2.png","null","",NA,NA,NA,NA,""
"image-keyboard-response",533,500369,"0.0-3.174-0.174","ren1uy6r65oeauq",187,"37.csv","","331.1999999284744","resources/trios/L1T1A2.jpg","38","restless",0.5,0.7,0.6,0.82404467288179,"false"
"image-keyboard-response",534,500770,"0.0-3.174-1.174","ren1uy6r65oeauq",187,"37.csv","","null","resources/maskTrios/BT1B.jpg","null","",NA,NA,NA,NA,""
"image-keyboard-response",535,501977,"0.0-3.174-2.174","ren1uy6r65oeauq",187,"37.csv","","null","resources/images/fishbone.png","null","",NA,NA,NA,NA,""
"image-keyboard-response",536,502258,"0.0-3.175-0.175","ren1uy6r65oeauq",187,"37.csv","","278.7000000476837","resources/trios/L4T2A3.jpg","39","restless",0.5,0.7,0.6,0.516880139311164,"true"
"image-keyboard-response",537,502661,"0.0-3.175-1.175","ren1uy6r65oeauq",187,"37.csv","","null","resources/maskTrios/BBA3.jpg","null","",NA,NA,NA,NA,""
"image-keyboard-response",538,503866,"0.0-3.175-2.175","ren1uy6r65oeauq",187,"37.csv","","null","resources/images/coin2.png","null","",NA,NA,NA,NA,""
"image-keyboard-response",539,504243,"0.0-3.176-0.176","ren1uy6r65oeauq",187,"37.csv","","375.5","resources/trios/L4T2A2.jpg","39","restless",0.5,0.7,0.6,0.173782714946993,"true"
"image-keyboard-response",540,504645,"0.0-3.176-1.176","ren1uy6r65oeauq",187,"37.csv","","null","resources/maskTrios/BBA2.jpg","null","",NA,NA,NA,NA,""
"image-keyboard-response",541,505850,"0.0-3.176-2.176","ren1uy6r65oeauq",187,"37.csv","","null","resources/images/coin2.png","null","",NA,NA,NA,NA,""
"image-keyboard-response",542,506168,"0.0-3.177-0.177","ren1uy6r65oeauq",187,"37.csv","","316","resources/trios/L1T1A3.jpg","39","restless",0.5,0.7,0.6,0.355593468290119,"true"
"image-keyboard-response",543,506569,"0.0-3.177-1.177","ren1uy6r65oeauq",187,"37.csv","","null","resources/maskTrios/BBA3.jpg","null","",NA,NA,NA,NA,""
"image-keyboard-response",544,507775,"0.0-3.177-2.177","ren1uy6r65oeauq",187,"37.csv","","null","resources/images/coin2.png","null","",NA,NA,NA,NA,""
"image-keyboard-response",545,508505,"0.0-3.178-0.178","ren1uy6r65oeauq",187,"37.csv","","728.5","resources/trios/L1T1A2.jpg","39","restless",0.5,0.8,0.6,0.556463564381135,"true"
"image-keyboard-response",546,508910,"0.0-3.178-1.178","ren1uy6r65oeauq",187,"37.csv","","null","resources/maskTrios/BBA2.jpg","null","",NA,NA,NA,NA,""
"image-keyboard-response",547,510112,"0.0-3.178-2.178","ren1uy6r65oeauq",187,"37.csv","","null","resources/images/coin2.png","null","",NA,NA,NA,NA,""
"image-keyboard-response",548,510740,"0.0-3.179-0.179","ren1uy6r65oeauq",187,"37.csv","","626.6000000238419","resources/trios/L4T2A3.jpg","39","restless",0.4,0.8,0.6,0.247700237029961,"true"
"image-keyboard-response",549,511147,"0.0-3.179-1.179","ren1uy6r65oeauq",187,"37.csv","","null","resources/maskTrios/BBA3.jpg","null","",NA,NA,NA,NA,""
"image-keyboard-response",550,512353,"0.0-3.179-2.179","ren1uy6r65oeauq",187,"37.csv","","null","resources/images/coin2.png","null","",NA,NA,NA,NA,""
"image-keyboard-response",551,512698,"0.0-3.180-0.180","ren1uy6r65oeauq",187,"37.csv","","343.5","resources/trios/L1T1A3.jpg","39","restless",0.4,0.8,0.6,0.657316923239776,"false"
"image-keyboard-response",552,513102,"0.0-3.180-1.180","ren1uy6r65oeauq",187,"37.csv","","null","resources/maskTrios/BBA3.jpg","null","",NA,NA,NA,NA,""
"image-keyboard-response",553,514306,"0.0-3.180-2.180","ren1uy6r65oeauq",187,"37.csv","","null","resources/images/fishbone.png","null","",NA,NA,NA,NA,""
"image-keyboard-response",554,514841,"0.0-3.181-0.181","ren1uy6r65oeauq",187,"37.csv","","533.4000000953674","resources/trios/L1T1A2.jpg","38","restless",0.4,0.8,0.6,0.317954246349365,"true"
"image-keyboard-response",555,515244,"0.0-3.181-1.181","ren1uy6r65oeauq",187,"37.csv","","null","resources/maskTrios/BT1B.jpg","null","",NA,NA,NA,NA,""
"image-keyboard-response",556,516446,"0.0-3.181-2.181","ren1uy6r65oeauq",187,"37.csv","","null","resources/images/coin2.png","null","",NA,NA,NA,NA,""
"image-keyboard-response",557,516784,"0.0-3.182-0.182","ren1uy6r65oeauq",187,"37.csv","","335.8000000715256","resources/trios/L1T2A2.jpg","38","restless",0.4,0.8,0.6,0.376224757505272,"true"
"image-keyboard-response",558,517186,"0.0-3.182-1.182","ren1uy6r65oeauq",187,"37.csv","","null","resources/maskTrios/BT2B.jpg","null","",NA,NA,NA,NA,""
"image-keyboard-response",559,518388,"0.0-3.182-2.182","ren1uy6r65oeauq",187,"37.csv","","null","resources/images/coin2.png","null","",NA,NA,NA,NA,""
"image-keyboard-response",560,518733,"0.0-3.183-0.183","ren1uy6r65oeauq",187,"37.csv","","343.89999997615814","resources/trios/L4T2A2.jpg","38","restless",0.4,0.9,0.6,0.662131120158118,"true"
"image-keyboard-response",561,519139,"0.0-3.183-1.183","ren1uy6r65oeauq",187,"37.csv","","null","resources/maskTrios/BT2B.jpg","null","",NA,NA,NA,NA,""
"image-keyboard-response",562,520341,"0.0-3.183-2.183","ren1uy6r65oeauq",187,"37.csv","","null","resources/images/coin2.png","null","",NA,NA,NA,NA,""
"image-keyboard-response",563,520750,"0.0-3.184-0.184","ren1uy6r65oeauq",187,"37.csv","","406.8000000715256","resources/trios/L4T2A3.jpg","38","restless",0.3,0.8,0.6,0.0563199749235395,"true"
"image-keyboard-response",564,521152,"0.0-3.184-1.184","ren1uy6r65oeauq",187,"37.csv","","null","resources/maskTrios/BT2B.jpg","null","",NA,NA,NA,NA,""
"image-keyboard-response",565,522354,"0.0-3.184-2.184","ren1uy6r65oeauq",187,"37.csv","","null","resources/images/coin2.png","null","",NA,NA,NA,NA,""
"image-keyboard-response",566,522662,"0.0-3.185-0.185","ren1uy6r65oeauq",187,"37.csv","","306.39999997615814","resources/trios/L1T2A3.jpg","38","restless",0.3,0.8,0.6,0.0296795510781589,"true"
"image-keyboard-response",567,523066,"0.0-3.185-1.185","ren1uy6r65oeauq",187,"37.csv","","null","resources/maskTrios/BT2B.jpg","null","",NA,NA,NA,NA,""
"image-keyboard-response",568,524269,"0.0-3.185-2.185","ren1uy6r65oeauq",187,"37.csv","","null","resources/images/coin2.png","null","",NA,NA,NA,NA,""
"image-keyboard-response",569,524538,"0.0-3.186-0.186","ren1uy6r65oeauq",187,"37.csv","","267.10000002384186","resources/trios/L1T2A2.jpg","38","restless",0.4,0.8,0.6,0.0255623154551785,"true"
"image-keyboard-response",570,524944,"0.0-3.186-1.186","ren1uy6r65oeauq",187,"37.csv","","null","resources/maskTrios/BT2B.jpg","null","",NA,NA,NA,NA,""
"image-keyboard-response",571,526146,"0.0-3.186-2.186","ren1uy6r65oeauq",187,"37.csv","","null","resources/images/coin2.png","null","",NA,NA,NA,NA,""
"image-keyboard-response",572,526458,"0.0-3.187-0.187","ren1uy6r65oeauq",187,"37.csv","","310.6999999284744","resources/trios/L1T2A2.jpg","38","restless",0.4,0.8,0.6,0.324415858807021,"true"
"image-keyboard-response",573,526862,"0.0-3.187-1.187","ren1uy6r65oeauq",187,"37.csv","","null","resources/maskTrios/BT2B.jpg","null","",NA,NA,NA,NA,""
"image-keyboard-response",574,528069,"0.0-3.187-2.187","ren1uy6r65oeauq",187,"37.csv","","null","resources/images/coin2.png","null","",NA,NA,NA,NA,""
"image-keyboard-response",575,528409,"0.0-3.188-0.188","ren1uy6r65oeauq",187,"37.csv","","336","resources/trios/L4T1A3.jpg","38","restless",0.4,0.8,0.6,0.376011484744829,"true"
"image-keyboard-response",576,528812,"0.0-3.188-1.188","ren1uy6r65oeauq",187,"37.csv","","null","resources/maskTrios/BT1B.jpg","null","",NA,NA,NA,NA,""
"image-keyboard-response",577,530018,"0.0-3.188-2.188","ren1uy6r65oeauq",187,"37.csv","","null","resources/images/coin2.png","null","",NA,NA,NA,NA,""
"image-keyboard-response",578,531199,"0.0-3.189-0.189","ren1uy6r65oeauq",187,"37.csv","","1178.6000000238419","resources/trios/L1T1A2.jpg","38","restless",0.4,0.8,0.6,0.37104896233575,"true"
"image-keyboard-response",579,531600,"0.0-3.189-1.189","ren1uy6r65oeauq",187,"37.csv","","null","resources/maskTrios/BT1B.jpg","null","",NA,NA,NA,NA,""
"image-keyboard-response",580,532804,"0.0-3.189-2.189","ren1uy6r65oeauq",187,"37.csv","","null","resources/images/coin2.png","null","",NA,NA,NA,NA,""
"image-keyboard-response",581,534389,"0.0-3.190-0.190","ren1uy6r65oeauq",187,"37.csv","","1584.3999999761581","resources/trios/L1T2A3.jpg","37","restless",0.4,0.8,0.6,0.308445110122383,"true"
"image-keyboard-response",582,534791,"0.0-3.190-1.190","ren1uy6r65oeauq",187,"37.csv","","null","resources/maskTrios/L1BB.jpg","null","",NA,NA,NA,NA,""
"image-keyboard-response",583,535996,"0.0-3.190-2.190","ren1uy6r65oeauq",187,"37.csv","","null","resources/images/coin2.png","null","",NA,NA,NA,NA,""
"image-keyboard-response",584,536863,"0.0-3.191-0.191","ren1uy6r65oeauq",187,"37.csv","","865.1999999284744","resources/trios/L4T2A3.jpg","37","restless",0.4,0.8,0.6,0.599233784705784,"false"
"image-keyboard-response",585,537265,"0.0-3.191-1.191","ren1uy6r65oeauq",187,"37.csv","","null","resources/maskTrios/L4BB.jpg","null","",NA,NA,NA,NA,""
"image-keyboard-response",586,538466,"0.0-3.191-2.191","ren1uy6r65oeauq",187,"37.csv","","null","resources/images/fishbone.png","null","",NA,NA,NA,NA,""
"image-keyboard-response",587,540204,"0.0-3.192-0.192","ren1uy6r65oeauq",187,"37.csv","","1736.7999999523163","resources/trios/L4T2A2.jpg","39","restless",0.4,0.9,0.6,0.83615279009077,"false"
"image-keyboard-response",588,540611,"0.0-3.192-1.192","ren1uy6r65oeauq",187,"37.csv","","null","resources/maskTrios/BBA2.jpg","null","",NA,NA,NA,NA,""
"image-keyboard-response",589,541813,"0.0-3.192-2.192","ren1uy6r65oeauq",187,"37.csv","","null","resources/images/fishbone.png","null","",NA,NA,NA,NA,""
"image-keyboard-response",590,542505,"0.0-3.193-0.193","ren1uy6r65oeauq",187,"37.csv","","690.8999999761581","resources/trios/L1T1A3.jpg","38","restless",0.4,0.9,0.6,0.462411997230021,"true"
"image-keyboard-response",591,542909,"0.0-3.193-1.193","ren1uy6r65oeauq",187,"37.csv","","null","resources/maskTrios/BT1B.jpg","null","",NA,NA,NA,NA,""
"image-keyboard-response",592,544115,"0.0-3.193-2.193","ren1uy6r65oeauq",187,"37.csv","","null","resources/images/coin2.png","null","",NA,NA,NA,NA,""
"image-keyboard-response",593,544850,"0.0-3.194-0.194","ren1uy6r65oeauq",187,"37.csv","","733.1000000238419","resources/trios/L4T1A2.jpg","38","restless",0.4,0.9,0.6,0.242082796528013,"true"
"image-keyboard-response",594,545257,"0.0-3.194-1.194","ren1uy6r65oeauq",187,"37.csv","","null","resources/maskTrios/BT1B.jpg","null","",NA,NA,NA,NA,""
"image-keyboard-response",595,546459,"0.0-3.194-2.194","ren1uy6r65oeauq",187,"37.csv","","null","resources/images/coin2.png","null","",NA,NA,NA,NA,""
"image-keyboard-response",596,547022,"0.0-3.195-0.195","ren1uy6r65oeauq",187,"37.csv","","561.2999999523163","resources/trios/L4T1A2.jpg","38","restless",0.4,0.9,0.6,0.0659429855301668,"true"
"image-keyboard-response",597,547427,"0.0-3.195-1.195","ren1uy6r65oeauq",187,"37.csv","","null","resources/maskTrios/BT1B.jpg","null","",NA,NA,NA,NA,""
"image-keyboard-response",598,548632,"0.0-3.195-2.195","ren1uy6r65oeauq",187,"37.csv","","null","resources/images/coin2.png","null","",NA,NA,NA,NA,""
"image-keyboard-response",599,549676,"0.0-3.196-0.196","ren1uy6r65oeauq",187,"37.csv","","1042.2999999523163","resources/trios/L1T2A2.jpg","37","restless",0.4,0.8,0.6,0.962035636522341,"false"
"image-keyboard-response",600,550082,"0.0-3.196-1.196","ren1uy6r65oeauq",187,"37.csv","","null","resources/maskTrios/L1BB.jpg","null","",NA,NA,NA,NA,""
"image-keyboard-response",601,551284,"0.0-3.196-2.196","ren1uy6r65oeauq",187,"37.csv","","null","resources/images/fishbone.png","null","",NA,NA,NA,NA,""
"image-keyboard-response",602,551809,"0.0-3.197-0.197","ren1uy6r65oeauq",187,"37.csv","","524.0999999046326","resources/trios/L1T1A2.jpg","38","restless",0.4,0.9,0.6,0.696404716678736,"true"
"image-keyboard-response",603,552211,"0.0-3.197-1.197","ren1uy6r65oeauq",187,"37.csv","","null","resources/maskTrios/BT1B.jpg","null","",NA,NA,NA,NA,""
"image-keyboard-response",604,553417,"0.0-3.197-2.197","ren1uy6r65oeauq",187,"37.csv","","null","resources/images/coin2.png","null","",NA,NA,NA,NA,""
"image-keyboard-response",605,554372,"0.0-3.198-0.198","ren1uy6r65oeauq",187,"37.csv","","953.2999999523163","resources/trios/L1T1A3.jpg","38","restless",0.4,0.9,0.6,0.678999930912749,"true"
"image-keyboard-response",606,554775,"0.0-3.198-1.198","ren1uy6r65oeauq",187,"37.csv","","null","resources/maskTrios/BT1B.jpg","null","",NA,NA,NA,NA,""
"image-keyboard-response",607,555978,"0.0-3.198-2.198","ren1uy6r65oeauq",187,"37.csv","","null","resources/images/coin2.png","null","",NA,NA,NA,NA,""
"image-keyboard-response",608,558032,"0.0-3.199-0.199","ren1uy6r65oeauq",187,"37.csv","","2052.5","resources/trios/L4T1A3.jpg","39","restless",0.4,0.9,0.6,0.041863368963301,"true"
"image-keyboard-response",609,558434,"0.0-3.199-1.199","ren1uy6r65oeauq",187,"37.csv","","null","resources/maskTrios/BBA3.jpg","null","",NA,NA,NA,NA,""
