"trial_type","trial_index","time_elapsed","internal_node_id","subject","participantCode","walkNumber","success","rt","stimulus","key_press","test_part","leftProb","midProb","rightProb","generatedNum","correct"
"pavlovia",0,1401,"0.0-0.0","2cwn30vh7gl4n44",856,"177.csv","","","","","",NA,NA,NA,NA,""
"fullscreen",1,36666,"0.0-1.0","2cwn30vh7gl4n44",856,"177.csv","true","","","","",NA,NA,NA,NA,""
"html-keyboard-response",2,58613,"0.0-2.0-0.0","2cwn30vh7gl4n44",856,"177.csv","","21944.30000001192","<p><font size='6'>Arrrgh!</p></font><p>Can you be the best pirate? Try to find lots of gold! But beware, some islands have more gold than others, and over time, the island with the most gold may change. Can YOU figure it out? </p><font size='6'>GOOD LUCK, CAPTAIN!!!</font><p>Press any key to begin</p>","32","",NA,NA,NA,NA,""
"image-keyboard-response",3,61619,"0.0-2.0-1.0","2cwn30vh7gl4n44",856,"177.csv","","null","resources/image_sets/111.png","null","",NA,NA,NA,NA,""
"image-keyboard-response",4,71371,"0.0-2.0-2.0","2cwn30vh7gl4n44",856,"177.csv","","9750.900000035763","resources/image_sets/left_highlight.png","37","",NA,NA,NA,NA,""
"image-keyboard-response",5,74288,"0.0-2.0-3.0","2cwn30vh7gl4n44",856,"177.csv","","2915.199999988079","resources/image_sets/mid_highlight.png","38","",NA,NA,NA,NA,""
"image-keyboard-response",6,76228,"0.0-2.0-4.0","2cwn30vh7gl4n44",856,"177.csv","","1938.199999988079","resources/image_sets/right_highlight.png","39","",NA,NA,NA,NA,""
"image-keyboard-response",7,78008,"0.0-2.0-5.0","2cwn30vh7gl4n44",856,"177.csv","","1779","resources/image_sets/111.png","13","",NA,NA,NA,NA,""
"image-keyboard-response",8,81445,"0.0-2.0-6.0","2cwn30vh7gl4n44",856,"177.csv","","3436.399999976158","resources/images/coin2.png","13","",NA,NA,NA,NA,""
"image-keyboard-response",9,82823,"0.0-2.0-7.0","2cwn30vh7gl4n44",856,"177.csv","","1376.3999999761581","resources/images/fishbone.png","13","",NA,NA,NA,NA,""
"html-keyboard-response",10,87076,"0.0-2.0-8.0","2cwn30vh7gl4n44",856,"177.csv","","4252.899999976158","<p>Your first journey will be a long one, but you will get a well deserved break at the end</p><p>After the break you will have four more journeys, but each will be much shorter than the first, and you will have breaks in between each</p><p>Press Enter to begin</p>","13","",NA,NA,NA,NA,""
"image-keyboard-response",11,88147,"0.0-3.0-0.0","2cwn30vh7gl4n44",856,"177.csv","","1069.4000000357628","resources/trios/L1T2A2.jpg","39","restless",0.3,0.9,0.7,0.503152420683968,"true"
"image-keyboard-response",12,88552,"0.0-3.0-1.0","2cwn30vh7gl4n44",856,"177.csv","","null","resources/maskTrios/BBA2.jpg","null","",NA,NA,NA,NA,""
"image-keyboard-response",13,89759,"0.0-3.0-2.0","2cwn30vh7gl4n44",856,"177.csv","","null","resources/images/coin2.png","null","",NA,NA,NA,NA,""
"image-keyboard-response",14,91649,"0.0-3.1-0.1","2cwn30vh7gl4n44",856,"177.csv","","1887","resources/trios/L2T1A2.jpg","39","restless",0.3,0.9,0.7,0.162787959763951,"true"
"image-keyboard-response",15,92055,"0.0-3.1-1.1","2cwn30vh7gl4n44",856,"177.csv","","null","resources/maskTrios/BBA2.jpg","null","",NA,NA,NA,NA,""
"image-keyboard-response",16,93260,"0.0-3.1-2.1","2cwn30vh7gl4n44",856,"177.csv","","null","resources/images/coin2.png","null","",NA,NA,NA,NA,""
"image-keyboard-response",17,94031,"0.0-3.2-0.2","2cwn30vh7gl4n44",856,"177.csv","","768.8000000119209","resources/trios/L1T1A2.jpg","38","restless",0.2,0.9,0.7,0.165097743670972,"true"
"image-keyboard-response",18,94437,"0.0-3.2-1.2","2cwn30vh7gl4n44",856,"177.csv","","null","resources/maskTrios/BT1B.jpg","null","",NA,NA,NA,NA,""
"image-keyboard-response",19,95643,"0.0-3.2-2.2","2cwn30vh7gl4n44",856,"177.csv","","null","resources/images/coin2.png","null","",NA,NA,NA,NA,""
"image-keyboard-response",20,96323,"0.0-3.3-0.3","2cwn30vh7gl4n44",856,"177.csv","","678.0999999642372","resources/trios/L1T2A1.jpg","37","restless",0.2,0.9,0.7,0.917789571798099,"false"
"image-keyboard-response",21,96727,"0.0-3.3-1.3","2cwn30vh7gl4n44",856,"177.csv","","null","resources/maskTrios/L1BB.jpg","null","",NA,NA,NA,NA,""
"image-keyboard-response",22,97931,"0.0-3.3-2.3","2cwn30vh7gl4n44",856,"177.csv","","null","resources/images/fishbone.png","null","",NA,NA,NA,NA,""
"image-keyboard-response",23,98487,"0.0-3.4-0.4","2cwn30vh7gl4n44",856,"177.csv","","553.5","resources/trios/L2T2A2.jpg","38","restless",0.2,0.9,0.7,0.90434844608721,"false"
"image-keyboard-response",24,98892,"0.0-3.4-1.4","2cwn30vh7gl4n44",856,"177.csv","","null","resources/maskTrios/BT2B.jpg","null","",NA,NA,NA,NA,""
"image-keyboard-response",25,100098,"0.0-3.4-2.4","2cwn30vh7gl4n44",856,"177.csv","","null","resources/images/fishbone.png","null","",NA,NA,NA,NA,""
"image-keyboard-response",26,100146,"0.0-3.5-0.5","2cwn30vh7gl4n44",856,"177.csv","","46.10000002384186","resources/trios/L1T2A2.jpg","38","restless",0.2,0.9,0.7,0.817292717524583,"true"
"image-keyboard-response",27,100552,"0.0-3.5-1.5","2cwn30vh7gl4n44",856,"177.csv","","null","resources/maskTrios/BT2B.jpg","null","",NA,NA,NA,NA,""
"image-keyboard-response",28,101754,"0.0-3.5-2.5","2cwn30vh7gl4n44",856,"177.csv","","null","resources/images/coin2.png","null","",NA,NA,NA,NA,""
"image-keyboard-response",29,102015,"0.0-3.6-0.6","2cwn30vh7gl4n44",856,"177.csv","","258.89999997615814","resources/trios/L2T1A1.jpg","38","restless",0.2,0.9,0.7,0.146296508622972,"true"
"image-keyboard-response",30,102421,"0.0-3.6-1.6","2cwn30vh7gl4n44",856,"177.csv","","null","resources/maskTrios/BT1B.jpg","null","",NA,NA,NA,NA,""
"image-keyboard-response",31,103628,"0.0-3.6-2.6","2cwn30vh7gl4n44",856,"177.csv","","null","resources/images/coin2.png","null","",NA,NA,NA,NA,""
"image-keyboard-response",32,104410,"0.0-3.7-0.7","2cwn30vh7gl4n44",856,"177.csv","","780.6000000238419","resources/trios/L1T1A1.jpg","39","restless",0.2,0.9,0.6,0.262843612055915,"true"
"image-keyboard-response",33,104813,"0.0-3.7-1.7","2cwn30vh7gl4n44",856,"177.csv","","null","resources/maskTrios/BBA1.jpg","null","",NA,NA,NA,NA,""
"image-keyboard-response",34,106017,"0.0-3.7-2.7","2cwn30vh7gl4n44",856,"177.csv","","null","resources/images/coin2.png","null","",NA,NA,NA,NA,""
"image-keyboard-response",35,106313,"0.0-3.8-0.8","2cwn30vh7gl4n44",856,"177.csv","","293.60000002384186","resources/trios/L2T1A1.jpg","38","restless",0.1,0.9,0.6,0.225722619904388,"true"
"image-keyboard-response",36,106718,"0.0-3.8-1.8","2cwn30vh7gl4n44",856,"177.csv","","null","resources/maskTrios/BT1B.jpg","null","",NA,NA,NA,NA,""
"image-keyboard-response",37,107924,"0.0-3.8-2.8","2cwn30vh7gl4n44",856,"177.csv","","null","resources/images/coin2.png","null","",NA,NA,NA,NA,""
"image-keyboard-response",38,108201,"0.0-3.9-0.9","2cwn30vh7gl4n44",856,"177.csv","","275","resources/trios/L1T2A2.jpg","37","restless",0.1,0.9,0.6,0.48413697301444,"false"
"image-keyboard-response",39,108606,"0.0-3.9-1.9","2cwn30vh7gl4n44",856,"177.csv","","null","resources/maskTrios/L1BB.jpg","null","",NA,NA,NA,NA,""
"image-keyboard-response",40,109812,"0.0-3.9-2.9","2cwn30vh7gl4n44",856,"177.csv","","null","resources/images/fishbone.png","null","",NA,NA,NA,NA,""
"image-keyboard-response",41,110010,"0.0-3.10-0.10","2cwn30vh7gl4n44",856,"177.csv","","195.9000000357628","resources/trios/L1T1A2.jpg","37","restless",0.1,0.9,0.7,0.607979267005997,"false"
"image-keyboard-response",42,110415,"0.0-3.10-1.10","2cwn30vh7gl4n44",856,"177.csv","","null","resources/maskTrios/L1BB.jpg","null","",NA,NA,NA,NA,""
"image-keyboard-response",43,111618,"0.0-3.10-2.10","2cwn30vh7gl4n44",856,"177.csv","","null","resources/images/fishbone.png","null","",NA,NA,NA,NA,""
"image-keyboard-response",44,111897,"0.0-3.11-0.11","2cwn30vh7gl4n44",856,"177.csv","","277.4000000357628","resources/trios/L2T1A1.jpg","37","restless",0.1,0.9,0.7,0.22556988196427,"false"
"image-keyboard-response",45,112301,"0.0-3.11-1.11","2cwn30vh7gl4n44",856,"177.csv","","null","resources/maskTrios/L2BB.jpg","null","",NA,NA,NA,NA,""
"image-keyboard-response",46,113505,"0.0-3.11-2.11","2cwn30vh7gl4n44",856,"177.csv","","null","resources/images/fishbone.png","null","",NA,NA,NA,NA,""
"image-keyboard-response",47,113666,"0.0-3.12-0.12","2cwn30vh7gl4n44",856,"177.csv","","159","resources/trios/L2T2A2.jpg","38","restless",0.1,0.9,0.7,0.594878217403833,"true"
"image-keyboard-response",48,114073,"0.0-3.12-1.12","2cwn30vh7gl4n44",856,"177.csv","","null","resources/maskTrios/BT2B.jpg","null","",NA,NA,NA,NA,""
"image-keyboard-response",49,115276,"0.0-3.12-2.12","2cwn30vh7gl4n44",856,"177.csv","","null","resources/images/coin2.png","null","",NA,NA,NA,NA,""
"image-keyboard-response",50,115366,"0.0-3.13-0.13","2cwn30vh7gl4n44",856,"177.csv","","88.40000003576279","resources/trios/L2T2A2.jpg","38","restless",0.1,0.9,0.7,0.801694963269613,"true"
"image-keyboard-response",51,115770,"0.0-3.13-1.13","2cwn30vh7gl4n44",856,"177.csv","","null","resources/maskTrios/BT2B.jpg","null","",NA,NA,NA,NA,""
"image-keyboard-response",52,116974,"0.0-3.13-2.13","2cwn30vh7gl4n44",856,"177.csv","","null","resources/images/coin2.png","null","",NA,NA,NA,NA,""
"image-keyboard-response",53,117337,"0.0-3.14-0.14","2cwn30vh7gl4n44",856,"177.csv","","361","resources/trios/L2T2A2.jpg","38","restless",0.1,0.9,0.7,0.773894489890488,"true"
"image-keyboard-response",54,117741,"0.0-3.14-1.14","2cwn30vh7gl4n44",856,"177.csv","","null","resources/maskTrios/BT2B.jpg","null","",NA,NA,NA,NA,""
"image-keyboard-response",55,118945,"0.0-3.14-2.14","2cwn30vh7gl4n44",856,"177.csv","","null","resources/images/coin2.png","null","",NA,NA,NA,NA,""
"image-keyboard-response",56,119268,"0.0-3.15-0.15","2cwn30vh7gl4n44",856,"177.csv","","320.60000002384186","resources/trios/L2T2A1.jpg","38","restless",0.1,0.9,0.8,0.912644571213972,"false"
"image-keyboard-response",57,119674,"0.0-3.15-1.15","2cwn30vh7gl4n44",856,"177.csv","","null","resources/maskTrios/BT2B.jpg","null","",NA,NA,NA,NA,""
"image-keyboard-response",58,120877,"0.0-3.15-2.15","2cwn30vh7gl4n44",856,"177.csv","","null","resources/images/fishbone.png","null","",NA,NA,NA,NA,""
"image-keyboard-response",59,121005,"0.0-3.16-0.16","2cwn30vh7gl4n44",856,"177.csv","","126.40000003576279","resources/trios/L1T2A1.jpg","39","restless",0.1,0.9,0.8,0.343719669388532,"true"
"image-keyboard-response",60,121410,"0.0-3.16-1.16","2cwn30vh7gl4n44",856,"177.csv","","null","resources/maskTrios/BBA1.jpg","null","",NA,NA,NA,NA,""
"image-keyboard-response",61,122614,"0.0-3.16-2.16","2cwn30vh7gl4n44",856,"177.csv","","null","resources/images/coin2.png","null","",NA,NA,NA,NA,""
"image-keyboard-response",62,123005,"0.0-3.17-0.17","2cwn30vh7gl4n44",856,"177.csv","","389","resources/trios/L1T1A1.jpg","39","restless",0.1,0.9,0.8,0.256804039858132,"true"
"image-keyboard-response",63,123410,"0.0-3.17-1.17","2cwn30vh7gl4n44",856,"177.csv","","null","resources/maskTrios/BBA1.jpg","null","",NA,NA,NA,NA,""
"image-keyboard-response",64,124616,"0.0-3.17-2.17","2cwn30vh7gl4n44",856,"177.csv","","null","resources/images/coin2.png","null","",NA,NA,NA,NA,""
"image-keyboard-response",65,124784,"0.0-3.18-0.18","2cwn30vh7gl4n44",856,"177.csv","","166","resources/trios/L1T1A1.jpg","37","restless",0.2,0.9,0.8,0.129985100653185,"true"
"image-keyboard-response",66,125188,"0.0-3.18-1.18","2cwn30vh7gl4n44",856,"177.csv","","null","resources/maskTrios/L1BB.jpg","null","",NA,NA,NA,NA,""
"image-keyboard-response",67,126393,"0.0-3.18-2.18","2cwn30vh7gl4n44",856,"177.csv","","null","resources/images/coin2.png","null","",NA,NA,NA,NA,""
"image-keyboard-response",68,126676,"0.0-3.19-0.19","2cwn30vh7gl4n44",856,"177.csv","","280.30000001192093","resources/trios/L2T2A1.jpg","38","restless",0.2,0.9,0.8,0.0640634969783695,"true"
"image-keyboard-response",69,127080,"0.0-3.19-1.19","2cwn30vh7gl4n44",856,"177.csv","","null","resources/maskTrios/BT2B.jpg","null","",NA,NA,NA,NA,""
"image-keyboard-response",70,128286,"0.0-3.19-2.19","2cwn30vh7gl4n44",856,"177.csv","","null","resources/images/coin2.png","null","",NA,NA,NA,NA,""
"image-keyboard-response",71,128341,"0.0-3.20-0.20","2cwn30vh7gl4n44",856,"177.csv","","50.30000001192093","resources/trios/L1T1A2.jpg","39","restless",0.2,0.8,0.8,0.974411556807576,"false"
"image-keyboard-response",72,128748,"0.0-3.20-1.20","2cwn30vh7gl4n44",856,"177.csv","","null","resources/maskTrios/BBA2.jpg","null","",NA,NA,NA,NA,""
"image-keyboard-response",73,129953,"0.0-3.20-2.20","2cwn30vh7gl4n44",856,"177.csv","","null","resources/images/fishbone.png","null","",NA,NA,NA,NA,""
"image-keyboard-response",74,130220,"0.0-3.21-0.21","2cwn30vh7gl4n44",856,"177.csv","","265.39999997615814","resources/trios/L1T1A2.jpg","38","restless",0.2,0.7,0.8,0.759734448494807,"false"
"image-keyboard-response",75,130626,"0.0-3.21-1.21","2cwn30vh7gl4n44",856,"177.csv","","null","resources/maskTrios/BT1B.jpg","null","",NA,NA,NA,NA,""
"image-keyboard-response",76,131830,"0.0-3.21-2.21","2cwn30vh7gl4n44",856,"177.csv","","null","resources/images/fishbone.png","null","",NA,NA,NA,NA,""
"image-keyboard-response",77,132296,"0.0-3.22-0.22","2cwn30vh7gl4n44",856,"177.csv","","464","resources/trios/L1T1A2.jpg","39","restless",0.2,0.6,0.8,0.364966726907066,"true"
"image-keyboard-response",78,132703,"0.0-3.22-1.22","2cwn30vh7gl4n44",856,"177.csv","","null","resources/maskTrios/BBA2.jpg","null","",NA,NA,NA,NA,""
"image-keyboard-response",79,133907,"0.0-3.22-2.22","2cwn30vh7gl4n44",856,"177.csv","","null","resources/images/coin2.png","null","",NA,NA,NA,NA,""
"image-keyboard-response",80,134150,"0.0-3.23-0.23","2cwn30vh7gl4n44",856,"177.csv","","241.5999999642372","resources/trios/L2T1A2.jpg","38","restless",0.2,0.6,0.9,0.705294398109624,"false"
"image-keyboard-response",81,134557,"0.0-3.23-1.23","2cwn30vh7gl4n44",856,"177.csv","","null","resources/maskTrios/BT1B.jpg","null","",NA,NA,NA,NA,""
"image-keyboard-response",82,135758,"0.0-3.23-2.23","2cwn30vh7gl4n44",856,"177.csv","","null","resources/images/fishbone.png","null","",NA,NA,NA,NA,""
"image-keyboard-response",83,135841,"0.0-3.24-0.24","2cwn30vh7gl4n44",856,"177.csv","","81.10000002384186","resources/trios/L2T2A2.jpg","37","restless",0.2,0.6,0.9,0.87464749119959,"false"
"image-keyboard-response",84,136246,"0.0-3.24-1.24","2cwn30vh7gl4n44",856,"177.csv","","null","resources/maskTrios/L2BB.jpg","null","",NA,NA,NA,NA,""
"image-keyboard-response",85,137452,"0.0-3.24-2.24","2cwn30vh7gl4n44",856,"177.csv","","null","resources/images/fishbone.png","null","",NA,NA,NA,NA,""
"image-keyboard-response",86,137626,"0.0-3.25-0.25","2cwn30vh7gl4n44",856,"177.csv","","171.9000000357628","resources/trios/L2T1A1.jpg","39","restless",0.2,0.6,0.9,0.449932492055262,"true"
"image-keyboard-response",87,138031,"0.0-3.25-1.25","2cwn30vh7gl4n44",856,"177.csv","","null","resources/maskTrios/BBA1.jpg","null","",NA,NA,NA,NA,""
"image-keyboard-response",88,139236,"0.0-3.25-2.25","2cwn30vh7gl4n44",856,"177.csv","","null","resources/images/coin2.png","null","",NA,NA,NA,NA,""
"image-keyboard-response",89,176898,"0.0-3.26-0.26","2cwn30vh7gl4n44",856,"177.csv","","37659.80000001192","resources/trios/L2T1A1.jpg","38","restless",0.2,0.6,0.9,0.325724467053029,"true"
"image-keyboard-response",90,177303,"0.0-3.26-1.26","2cwn30vh7gl4n44",856,"177.csv","","null","resources/maskTrios/BT1B.jpg","null","",NA,NA,NA,NA,""
"image-keyboard-response",91,178507,"0.0-3.26-2.26","2cwn30vh7gl4n44",856,"177.csv","","null","resources/images/coin2.png","null","",NA,NA,NA,NA,""
"image-keyboard-response",92,179020,"0.0-3.27-0.27","2cwn30vh7gl4n44",856,"177.csv","","510.10000002384186","resources/trios/L1T2A1.jpg","38","restless",0.2,0.6,0.8,0.686624028022725,"false"
"image-keyboard-response",93,179424,"0.0-3.27-1.27","2cwn30vh7gl4n44",856,"177.csv","","null","resources/maskTrios/BT2B.jpg","null","",NA,NA,NA,NA,""
"image-keyboard-response",94,180628,"0.0-3.27-2.27","2cwn30vh7gl4n44",856,"177.csv","","null","resources/images/fishbone.png","null","",NA,NA,NA,NA,""
"image-keyboard-response",95,180955,"0.0-3.28-0.28","2cwn30vh7gl4n44",856,"177.csv","","324.7000000476837","resources/trios/L1T1A2.jpg","38","restless",0.2,0.6,0.8,0.816149730734414,"false"
"image-keyboard-response",96,181362,"0.0-3.28-1.28","2cwn30vh7gl4n44",856,"177.csv","","null","resources/maskTrios/BT1B.jpg","null","",NA,NA,NA,NA,""
"image-keyboard-response",97,182564,"0.0-3.28-2.28","2cwn30vh7gl4n44",856,"177.csv","","null","resources/images/fishbone.png","null","",NA,NA,NA,NA,""
"image-keyboard-response",98,182749,"0.0-3.29-0.29","2cwn30vh7gl4n44",856,"177.csv","","182.30000001192093","resources/trios/L1T2A2.jpg","37","restless",0.1,0.6,0.8,0.669053838158622,"false"
"image-keyboard-response",99,183153,"0.0-3.29-1.29","2cwn30vh7gl4n44",856,"177.csv","","null","resources/maskTrios/L1BB.jpg","null","",NA,NA,NA,NA,""
"image-keyboard-response",100,184356,"0.0-3.29-2.29","2cwn30vh7gl4n44",856,"177.csv","","null","resources/images/fishbone.png","null","",NA,NA,NA,NA,""
"image-keyboard-response",101,184558,"0.0-3.30-0.30","2cwn30vh7gl4n44",856,"177.csv","","199.10000002384186","resources/trios/L2T2A1.jpg","39","restless",0.1,0.6,0.8,0.0313111606325154,"true"
"image-keyboard-response",102,184962,"0.0-3.30-1.30","2cwn30vh7gl4n44",856,"177.csv","","null","resources/maskTrios/BBA1.jpg","null","",NA,NA,NA,NA,""
"image-keyboard-response",103,186166,"0.0-3.30-2.30","2cwn30vh7gl4n44",856,"177.csv","","null","resources/images/coin2.png","null","",NA,NA,NA,NA,""
"image-keyboard-response",104,186539,"0.0-3.31-0.31","2cwn30vh7gl4n44",856,"177.csv","","370.69999998807907","resources/trios/L1T1A1.jpg","39","restless",0.2,0.6,0.8,0.138392485200383,"true"
"image-keyboard-response",105,186946,"0.0-3.31-1.31","2cwn30vh7gl4n44",856,"177.csv","","null","resources/maskTrios/BBA1.jpg","null","",NA,NA,NA,NA,""
"image-keyboard-response",106,188150,"0.0-3.31-2.31","2cwn30vh7gl4n44",856,"177.csv","","null","resources/images/coin2.png","null","",NA,NA,NA,NA,""
"image-keyboard-response",107,188478,"0.0-3.32-0.32","2cwn30vh7gl4n44",856,"177.csv","","326.69999998807907","resources/trios/L1T1A2.jpg","39","restless",0.2,0.6,0.7,0.920680834581808,"false"
"image-keyboard-response",108,188882,"0.0-3.32-1.32","2cwn30vh7gl4n44",856,"177.csv","","null","resources/maskTrios/BBA2.jpg","null","",NA,NA,NA,NA,""
"image-keyboard-response",109,190087,"0.0-3.32-2.32","2cwn30vh7gl4n44",856,"177.csv","","null","resources/images/fishbone.png","null","",NA,NA,NA,NA,""
"image-keyboard-response",110,190132,"0.0-3.33-0.33","2cwn30vh7gl4n44",856,"177.csv","","43.30000001192093","resources/trios/L2T2A2.jpg","38","restless",0.3,0.6,0.7,0.671255204801006,"false"
"image-keyboard-response",111,190537,"0.0-3.33-1.33","2cwn30vh7gl4n44",856,"177.csv","","null","resources/maskTrios/BT2B.jpg","null","",NA,NA,NA,NA,""
"image-keyboard-response",112,191740,"0.0-3.33-2.33","2cwn30vh7gl4n44",856,"177.csv","","null","resources/images/fishbone.png","null","",NA,NA,NA,NA,""
"image-keyboard-response",113,192024,"0.0-3.34-0.34","2cwn30vh7gl4n44",856,"177.csv","","282.60000002384186","resources/trios/L1T1A2.jpg","39","restless",0.3,0.6,0.7,0.903949746695369,"false"
"image-keyboard-response",114,192429,"0.0-3.34-1.34","2cwn30vh7gl4n44",856,"177.csv","","null","resources/maskTrios/BBA2.jpg","null","",NA,NA,NA,NA,""
"image-keyboard-response",115,193633,"0.0-3.34-2.34","2cwn30vh7gl4n44",856,"177.csv","","null","resources/images/fishbone.png","null","",NA,NA,NA,NA,""
"image-keyboard-response",116,193672,"0.0-3.35-0.35","2cwn30vh7gl4n44",856,"177.csv","","37.10000002384186","resources/trios/L2T1A1.jpg","37","restless",0.4,0.6,0.7,0.743282989261717,"false"
"image-keyboard-response",117,194076,"0.0-3.35-1.35","2cwn30vh7gl4n44",856,"177.csv","","null","resources/maskTrios/L2BB.jpg","null","",NA,NA,NA,NA,""
"image-keyboard-response",118,195278,"0.0-3.35-2.35","2cwn30vh7gl4n44",856,"177.csv","","null","resources/images/fishbone.png","null","",NA,NA,NA,NA,""
"image-keyboard-response",119,195744,"0.0-3.36-0.36","2cwn30vh7gl4n44",856,"177.csv","","463.80000001192093","resources/trios/L2T1A2.jpg","39","restless",0.4,0.6,0.7,0.665276743238687,"true"
"image-keyboard-response",120,196150,"0.0-3.36-1.36","2cwn30vh7gl4n44",856,"177.csv","","null","resources/maskTrios/BBA2.jpg","null","",NA,NA,NA,NA,""
"image-keyboard-response",121,197356,"0.0-3.36-2.36","2cwn30vh7gl4n44",856,"177.csv","","null","resources/images/coin2.png","null","",NA,NA,NA,NA,""
"image-keyboard-response",122,197616,"0.0-3.37-0.37","2cwn30vh7gl4n44",856,"177.csv","","258.30000001192093","resources/trios/L1T1A2.jpg","39","restless",0.5,0.6,0.6,0.879896651036563,"false"
"image-keyboard-response",123,198023,"0.0-3.37-1.37","2cwn30vh7gl4n44",856,"177.csv","","null","resources/maskTrios/BBA2.jpg","null","",NA,NA,NA,NA,""
"image-keyboard-response",124,199229,"0.0-3.37-2.37","2cwn30vh7gl4n44",856,"177.csv","","null","resources/images/fishbone.png","null","",NA,NA,NA,NA,""
"image-keyboard-response",125,199547,"0.0-3.38-0.38","2cwn30vh7gl4n44",856,"177.csv","","316.39999997615814","resources/trios/L1T2A2.jpg","39","restless",0.5,0.6,0.6,0.673058546955234,"false"
"image-keyboard-response",126,199950,"0.0-3.38-1.38","2cwn30vh7gl4n44",856,"177.csv","","null","resources/maskTrios/BBA2.jpg","null","",NA,NA,NA,NA,""
"image-keyboard-response",127,201152,"0.0-3.38-2.38","2cwn30vh7gl4n44",856,"177.csv","","null","resources/images/fishbone.png","null","",NA,NA,NA,NA,""
"image-keyboard-response",128,204238,"0.0-3.39-0.39","2cwn30vh7gl4n44",856,"177.csv","","3084.7000000476837","resources/trios/L2T1A1.jpg","38","restless",0.5,0.6,0.6,0.586971977160145,"true"
"image-keyboard-response",129,204644,"0.0-3.39-1.39","2cwn30vh7gl4n44",856,"177.csv","","null","resources/maskTrios/BT1B.jpg","null","",NA,NA,NA,NA,""
"image-keyboard-response",130,205848,"0.0-3.39-2.39","2cwn30vh7gl4n44",856,"177.csv","","null","resources/images/coin2.png","null","",NA,NA,NA,NA,""
"image-keyboard-response",131,225212,"0.0-3.40-0.40","2cwn30vh7gl4n44",856,"177.csv","","19363.400000035763","resources/trios/L2T1A2.jpg","37","restless",0.4,0.6,0.6,0.69394814716056,"false"
"image-keyboard-response",132,225617,"0.0-3.40-1.40","2cwn30vh7gl4n44",856,"177.csv","","null","resources/maskTrios/L2BB.jpg","null","",NA,NA,NA,NA,""
"image-keyboard-response",133,226823,"0.0-3.40-2.40","2cwn30vh7gl4n44",856,"177.csv","","null","resources/images/fishbone.png","null","",NA,NA,NA,NA,""
"image-keyboard-response",134,227138,"0.0-3.41-0.41","2cwn30vh7gl4n44",856,"177.csv","","313.69999998807907","resources/trios/L1T2A2.jpg","37","restless",0.4,0.6,0.6,0.288550602710503,"true"
"image-keyboard-response",135,227543,"0.0-3.41-1.41","2cwn30vh7gl4n44",856,"177.csv","","null","resources/maskTrios/L1BB.jpg","null","",NA,NA,NA,NA,""
"image-keyboard-response",136,228747,"0.0-3.41-2.41","2cwn30vh7gl4n44",856,"177.csv","","null","resources/images/coin2.png","null","",NA,NA,NA,NA,""
"image-keyboard-response",137,229151,"0.0-3.42-0.42","2cwn30vh7gl4n44",856,"177.csv","","402.30000001192093","resources/trios/L2T2A2.jpg","38","restless",0.4,0.6,0.6,0.9433588022323,"false"
"image-keyboard-response",138,229556,"0.0-3.42-1.42","2cwn30vh7gl4n44",856,"177.csv","","null","resources/maskTrios/BT2B.jpg","null","",NA,NA,NA,NA,""
"image-keyboard-response",139,230759,"0.0-3.42-2.42","2cwn30vh7gl4n44",856,"177.csv","","null","resources/images/fishbone.png","null","",NA,NA,NA,NA,""
"image-keyboard-response",140,230827,"0.0-3.43-0.43","2cwn30vh7gl4n44",856,"177.csv","","66.79999995231628","resources/trios/L1T2A2.jpg","39","restless",0.4,0.6,0.5,0.624297787358126,"false"
"image-keyboard-response",141,231233,"0.0-3.43-1.43","2cwn30vh7gl4n44",856,"177.csv","","null","resources/maskTrios/BBA2.jpg","null","",NA,NA,NA,NA,""
"image-keyboard-response",142,232437,"0.0-3.43-2.43","2cwn30vh7gl4n44",856,"177.csv","","null","resources/images/fishbone.png","null","",NA,NA,NA,NA,""
"image-keyboard-response",143,232497,"0.0-3.44-0.44","2cwn30vh7gl4n44",856,"177.csv","","58.09999996423721","resources/trios/L2T1A2.jpg","38","restless",0.5,0.6,0.5,0.62811529583387,"false"
"image-keyboard-response",144,232901,"0.0-3.44-1.44","2cwn30vh7gl4n44",856,"177.csv","","null","resources/maskTrios/BT1B.jpg","null","",NA,NA,NA,NA,""
"image-keyboard-response",145,234105,"0.0-3.44-2.44","2cwn30vh7gl4n44",856,"177.csv","","null","resources/images/fishbone.png","null","",NA,NA,NA,NA,""
"image-keyboard-response",146,234173,"0.0-3.45-0.45","2cwn30vh7gl4n44",856,"177.csv","","65.60000002384186","resources/trios/L1T2A2.jpg","39","restless",0.5,0.6,0.5,0.103161774477404,"true"
"image-keyboard-response",147,234575,"0.0-3.45-1.45","2cwn30vh7gl4n44",856,"177.csv","","null","resources/maskTrios/BBA2.jpg","null","",NA,NA,NA,NA,""
"image-keyboard-response",148,235785,"0.0-3.45-2.45","2cwn30vh7gl4n44",856,"177.csv","","null","resources/images/coin2.png","null","",NA,NA,NA,NA,""
"image-keyboard-response",149,235825,"0.0-3.46-0.46","2cwn30vh7gl4n44",856,"177.csv","","38.09999996423721","resources/trios/L1T1A2.jpg","38","restless",0.5,0.6,0.5,0.768211554523642,"false"
"image-keyboard-response",150,236231,"0.0-3.46-1.46","2cwn30vh7gl4n44",856,"177.csv","","null","resources/maskTrios/BT1B.jpg","null","",NA,NA,NA,NA,""
"image-keyboard-response",151,237433,"0.0-3.46-2.46","2cwn30vh7gl4n44",856,"177.csv","","null","resources/images/fishbone.png","null","",NA,NA,NA,NA,""
"image-keyboard-response",152,237669,"0.0-3.47-0.47","2cwn30vh7gl4n44",856,"177.csv","","233.19999998807907","resources/trios/L2T2A2.jpg","37","restless",0.5,0.6,0.5,0.623724087785609,"false"
"image-keyboard-response",153,238073,"0.0-3.47-1.47","2cwn30vh7gl4n44",856,"177.csv","","null","resources/maskTrios/L2BB.jpg","null","",NA,NA,NA,NA,""
"image-keyboard-response",154,239276,"0.0-3.47-2.47","2cwn30vh7gl4n44",856,"177.csv","","null","resources/images/fishbone.png","null","",NA,NA,NA,NA,""
"image-keyboard-response",155,239434,"0.0-3.48-0.48","2cwn30vh7gl4n44",856,"177.csv","","156.30000001192093","resources/trios/L1T2A2.jpg","38","restless",0.5,0.5,0.5,0.639834425365982,"false"
"image-keyboard-response",156,239840,"0.0-3.48-1.48","2cwn30vh7gl4n44",856,"177.csv","","null","resources/maskTrios/BT2B.jpg","null","",NA,NA,NA,NA,""
"image-keyboard-response",157,241046,"0.0-3.48-2.48","2cwn30vh7gl4n44",856,"177.csv","","null","resources/images/fishbone.png","null","",NA,NA,NA,NA,""
"image-keyboard-response",158,241344,"0.0-3.49-0.49","2cwn30vh7gl4n44",856,"177.csv","","296.10000002384186","resources/trios/L1T2A2.jpg","38","restless",0.5,0.6,0.5,0.645518185885278,"false"
"image-keyboard-response",159,241749,"0.0-3.49-1.49","2cwn30vh7gl4n44",856,"177.csv","","null","resources/maskTrios/BT2B.jpg","null","",NA,NA,NA,NA,""
"image-keyboard-response",160,242955,"0.0-3.49-2.49","2cwn30vh7gl4n44",856,"177.csv","","null","resources/images/fishbone.png","null","",NA,NA,NA,NA,""
"image-keyboard-response",161,243319,"0.0-3.50-0.50","2cwn30vh7gl4n44",856,"177.csv","","361.89999997615814","resources/trios/L2T1A2.jpg","38","restless",0.5,0.6,0.5,0.282161618005793,"true"
"image-keyboard-response",162,243722,"0.0-3.50-1.50","2cwn30vh7gl4n44",856,"177.csv","","null","resources/maskTrios/BT1B.jpg","null","",NA,NA,NA,NA,""
"image-keyboard-response",163,244926,"0.0-3.50-2.50","2cwn30vh7gl4n44",856,"177.csv","","null","resources/images/coin2.png","null","",NA,NA,NA,NA,""
"image-keyboard-response",164,245102,"0.0-3.51-0.51","2cwn30vh7gl4n44",856,"177.csv","","174","resources/trios/L2T1A2.jpg","38","restless",0.5,0.6,0.5,0.239807686546071,"true"
"image-keyboard-response",165,245504,"0.0-3.51-1.51","2cwn30vh7gl4n44",856,"177.csv","","null","resources/maskTrios/BT1B.jpg","null","",NA,NA,NA,NA,""
"image-keyboard-response",166,246709,"0.0-3.51-2.51","2cwn30vh7gl4n44",856,"177.csv","","null","resources/images/coin2.png","null","",NA,NA,NA,NA,""
"image-keyboard-response",167,246739,"0.0-3.52-0.52","2cwn30vh7gl4n44",856,"177.csv","","28.900000035762787","resources/trios/L2T1A2.jpg","39","restless",0.5,0.6,0.4,0.231273721895499,"true"
"image-keyboard-response",168,247143,"0.0-3.52-1.52","2cwn30vh7gl4n44",856,"177.csv","","null","resources/maskTrios/BBA2.jpg","null","",NA,NA,NA,NA,""
"image-keyboard-response",169,248348,"0.0-3.52-2.52","2cwn30vh7gl4n44",856,"177.csv","","null","resources/images/coin2.png","null","",NA,NA,NA,NA,""
"image-keyboard-response",170,248489,"0.0-3.53-0.53","2cwn30vh7gl4n44",856,"177.csv","","138.89999997615814","resources/trios/L1T1A2.jpg","38","restless",0.5,0.6,0.5,0.845593648705201,"false"
"image-keyboard-response",171,248895,"0.0-3.53-1.53","2cwn30vh7gl4n44",856,"177.csv","","null","resources/maskTrios/BT1B.jpg","null","",NA,NA,NA,NA,""
"image-keyboard-response",172,250099,"0.0-3.53-2.53","2cwn30vh7gl4n44",856,"177.csv","","null","resources/images/fishbone.png","null","",NA,NA,NA,NA,""
"image-keyboard-response",173,250166,"0.0-3.54-0.54","2cwn30vh7gl4n44",856,"177.csv","","64.80000001192093","resources/trios/L2T1A2.jpg","39","restless",0.5,0.6,0.5,0.46472053711849,"true"
"image-keyboard-response",174,250571,"0.0-3.54-1.54","2cwn30vh7gl4n44",856,"177.csv","","null","resources/maskTrios/BBA2.jpg","null","",NA,NA,NA,NA,""
"image-keyboard-response",175,251776,"0.0-3.54-2.54","2cwn30vh7gl4n44",856,"177.csv","","null","resources/images/coin2.png","null","",NA,NA,NA,NA,""
"image-keyboard-response",176,251853,"0.0-3.55-0.55","2cwn30vh7gl4n44",856,"177.csv","","74","resources/trios/L1T2A2.jpg","39","restless",0.5,0.5,0.6,0.659285287359371,"false"
"image-keyboard-response",177,252256,"0.0-3.55-1.55","2cwn30vh7gl4n44",856,"177.csv","","null","resources/maskTrios/BBA2.jpg","null","",NA,NA,NA,NA,""
"image-keyboard-response",178,253461,"0.0-3.55-2.55","2cwn30vh7gl4n44",856,"177.csv","","null","resources/images/fishbone.png","null","",NA,NA,NA,NA,""
"image-keyboard-response",179,253512,"0.0-3.56-0.56","2cwn30vh7gl4n44",856,"177.csv","","48.89999997615814","resources/trios/L1T1A2.jpg","37","restless",0.5,0.5,0.6,0.816492101877218,"false"
"image-keyboard-response",180,253917,"0.0-3.56-1.56","2cwn30vh7gl4n44",856,"177.csv","","null","resources/maskTrios/L1BB.jpg","null","",NA,NA,NA,NA,""
"image-keyboard-response",181,255121,"0.0-3.56-2.56","2cwn30vh7gl4n44",856,"177.csv","","null","resources/images/fishbone.png","null","",NA,NA,NA,NA,""
"image-keyboard-response",182,255353,"0.0-3.57-0.57","2cwn30vh7gl4n44",856,"177.csv","","230.10000002384186","resources/trios/L1T2A1.jpg","38","restless",0.5,0.5,0.5,0.319865422514714,"true"
"image-keyboard-response",183,255755,"0.0-3.57-1.57","2cwn30vh7gl4n44",856,"177.csv","","null","resources/maskTrios/BT2B.jpg","null","",NA,NA,NA,NA,""
"image-keyboard-response",184,256960,"0.0-3.57-2.57","2cwn30vh7gl4n44",856,"177.csv","","null","resources/images/coin2.png","null","",NA,NA,NA,NA,""
"image-keyboard-response",185,257064,"0.0-3.58-0.58","2cwn30vh7gl4n44",856,"177.csv","","101.90000003576279","resources/trios/L1T1A2.jpg","38","restless",0.5,0.5,0.5,0.377176456542528,"true"
"image-keyboard-response",186,257470,"0.0-3.58-1.58","2cwn30vh7gl4n44",856,"177.csv","","null","resources/maskTrios/BT1B.jpg","null","",NA,NA,NA,NA,""
"image-keyboard-response",187,258676,"0.0-3.58-2.58","2cwn30vh7gl4n44",856,"177.csv","","null","resources/images/coin2.png","null","",NA,NA,NA,NA,""
"image-keyboard-response",188,258744,"0.0-3.59-0.59","2cwn30vh7gl4n44",856,"177.csv","","66.59999996423721","resources/trios/L2T1A1.jpg","37","restless",0.5,0.5,0.5,0.883166480172916,"false"
"image-keyboard-response",189,259150,"0.0-3.59-1.59","2cwn30vh7gl4n44",856,"177.csv","","null","resources/maskTrios/L2BB.jpg","null","",NA,NA,NA,NA,""
"image-keyboard-response",190,260352,"0.0-3.59-2.59","2cwn30vh7gl4n44",856,"177.csv","","null","resources/images/fishbone.png","null","",NA,NA,NA,NA,""
"image-keyboard-response",191,260509,"0.0-3.60-0.60","2cwn30vh7gl4n44",856,"177.csv","","155","resources/trios/L1T2A2.jpg","38","restless",0.5,0.5,0.5,0.178019735058915,"true"
"image-keyboard-response",192,260915,"0.0-3.60-1.60","2cwn30vh7gl4n44",856,"177.csv","","null","resources/maskTrios/BT2B.jpg","null","",NA,NA,NA,NA,""
"image-keyboard-response",193,262120,"0.0-3.60-2.60","2cwn30vh7gl4n44",856,"177.csv","","null","resources/images/coin2.png","null","",NA,NA,NA,NA,""
"image-keyboard-response",194,262327,"0.0-3.61-0.61","2cwn30vh7gl4n44",856,"177.csv","","204.80000001192093","resources/trios/L1T2A1.jpg","39","restless",0.5,0.5,0.5,0.801379174370744,"false"
"image-keyboard-response",195,262731,"0.0-3.61-1.61","2cwn30vh7gl4n44",856,"177.csv","","null","resources/maskTrios/BBA1.jpg","null","",NA,NA,NA,NA,""
"image-keyboard-response",196,263936,"0.0-3.61-2.61","2cwn30vh7gl4n44",856,"177.csv","","null","resources/images/fishbone.png","null","",NA,NA,NA,NA,""
"image-keyboard-response",197,263940,"0.0-3.62-0.62","2cwn30vh7gl4n44",856,"177.csv","","1.600000023841858","resources/trios/L2T2A1.jpg","38","restless",0.5,0.5,0.5,0.839084346381495,"false"
"image-keyboard-response",198,264341,"0.0-3.62-1.62","2cwn30vh7gl4n44",856,"177.csv","","null","resources/maskTrios/BT2B.jpg","null","",NA,NA,NA,NA,""
"image-keyboard-response",199,265547,"0.0-3.62-2.62","2cwn30vh7gl4n44",856,"177.csv","","null","resources/images/fishbone.png","null","",NA,NA,NA,NA,""
"image-keyboard-response",200,265686,"0.0-3.63-0.63","2cwn30vh7gl4n44",856,"177.csv","","137.0999999642372","resources/trios/L1T2A2.jpg","38","restless",0.5,0.5,0.5,0.562020223935765,"false"
"image-keyboard-response",201,266089,"0.0-3.63-1.63","2cwn30vh7gl4n44",856,"177.csv","","null","resources/maskTrios/BT2B.jpg","null","",NA,NA,NA,NA,""
"image-keyboard-response",202,267294,"0.0-3.63-2.63","2cwn30vh7gl4n44",856,"177.csv","","null","resources/images/fishbone.png","null","",NA,NA,NA,NA,""
"image-keyboard-response",203,267368,"0.0-3.64-0.64","2cwn30vh7gl4n44",856,"177.csv","","72.29999995231628","resources/trios/L1T2A1.jpg","37","restless",0.5,0.5,0.5,0.611381432192928,"false"
"image-keyboard-response",204,267771,"0.0-3.64-1.64","2cwn30vh7gl4n44",856,"177.csv","","null","resources/maskTrios/L1BB.jpg","null","",NA,NA,NA,NA,""
"image-keyboard-response",205,268976,"0.0-3.64-2.64","2cwn30vh7gl4n44",856,"177.csv","","null","resources/images/fishbone.png","null","",NA,NA,NA,NA,""
"image-keyboard-response",206,268985,"0.0-3.65-0.65","2cwn30vh7gl4n44",856,"177.csv","","7","resources/trios/L1T1A2.jpg","39","restless",0.5,0.5,0.5,0.111265275791951,"true"
"image-keyboard-response",207,269390,"0.0-3.65-1.65","2cwn30vh7gl4n44",856,"177.csv","","null","resources/maskTrios/BBA2.jpg","null","",NA,NA,NA,NA,""
"image-keyboard-response",208,270592,"0.0-3.65-2.65","2cwn30vh7gl4n44",856,"177.csv","","null","resources/images/coin2.png","null","",NA,NA,NA,NA,""
"image-keyboard-response",209,270742,"0.0-3.66-0.66","2cwn30vh7gl4n44",856,"177.csv","","148.30000001192093","resources/trios/L1T1A1.jpg","38","restless",0.5,0.5,0.5,0.730490430440588,"false"
"image-keyboard-response",210,271147,"0.0-3.66-1.66","2cwn30vh7gl4n44",856,"177.csv","","null","resources/maskTrios/BT1B.jpg","null","",NA,NA,NA,NA,""
"image-keyboard-response",211,272351,"0.0-3.66-2.66","2cwn30vh7gl4n44",856,"177.csv","","null","resources/images/fishbone.png","null","",NA,NA,NA,NA,""
"image-keyboard-response",212,272480,"0.0-3.67-0.67","2cwn30vh7gl4n44",856,"177.csv","","126.69999998807907","resources/trios/L2T2A2.jpg","39","restless",0.5,0.6,0.4,0.274072348604005,"true"
"image-keyboard-response",213,272885,"0.0-3.67-1.67","2cwn30vh7gl4n44",856,"177.csv","","null","resources/maskTrios/BBA2.jpg","null","",NA,NA,NA,NA,""
"image-keyboard-response",214,274091,"0.0-3.67-2.67","2cwn30vh7gl4n44",856,"177.csv","","null","resources/images/coin2.png","null","",NA,NA,NA,NA,""
"image-keyboard-response",215,274230,"0.0-3.68-0.68","2cwn30vh7gl4n44",856,"177.csv","","137.0999999642372","resources/trios/L2T1A2.jpg","39","restless",0.5,0.6,0.4,0.384340391670954,"true"
"image-keyboard-response",216,274632,"0.0-3.68-1.68","2cwn30vh7gl4n44",856,"177.csv","","null","resources/maskTrios/BBA2.jpg","null","",NA,NA,NA,NA,""
"image-keyboard-response",217,275836,"0.0-3.68-2.68","2cwn30vh7gl4n44",856,"177.csv","","null","resources/images/coin2.png","null","",NA,NA,NA,NA,""
"image-keyboard-response",218,275903,"0.0-3.69-0.69","2cwn30vh7gl4n44",856,"177.csv","","64.80000001192093","resources/trios/L1T1A1.jpg","38","restless",0.5,0.6,0.4,0.125850229603537,"true"
"image-keyboard-response",219,276307,"0.0-3.69-1.69","2cwn30vh7gl4n44",856,"177.csv","","null","resources/maskTrios/BT1B.jpg","null","",NA,NA,NA,NA,""
"image-keyboard-response",220,277510,"0.0-3.69-2.69","2cwn30vh7gl4n44",856,"177.csv","","null","resources/images/coin2.png","null","",NA,NA,NA,NA,""
"image-keyboard-response",221,277721,"0.0-3.70-0.70","2cwn30vh7gl4n44",856,"177.csv","","209.0999999642372","resources/trios/L2T1A1.jpg","38","restless",0.5,0.6,0.4,0.737167403285082,"false"
"image-keyboard-response",222,278124,"0.0-3.70-1.70","2cwn30vh7gl4n44",856,"177.csv","","null","resources/maskTrios/BT1B.jpg","null","",NA,NA,NA,NA,""
"image-keyboard-response",223,279327,"0.0-3.70-2.70","2cwn30vh7gl4n44",856,"177.csv","","null","resources/images/fishbone.png","null","",NA,NA,NA,NA,""
"image-keyboard-response",224,279415,"0.0-3.71-0.71","2cwn30vh7gl4n44",856,"177.csv","","87","resources/trios/L2T1A1.jpg","39","restless",0.6,0.6,0.5,0.838471354482596,"false"
"image-keyboard-response",225,279817,"0.0-3.71-1.71","2cwn30vh7gl4n44",856,"177.csv","","null","resources/maskTrios/BBA1.jpg","null","",NA,NA,NA,NA,""
"image-keyboard-response",226,281023,"0.0-3.71-2.71","2cwn30vh7gl4n44",856,"177.csv","","null","resources/images/fishbone.png","null","",NA,NA,NA,NA,""
"image-keyboard-response",227,281060,"0.0-3.72-0.72","2cwn30vh7gl4n44",856,"177.csv","","35.299999952316284","resources/trios/L1T2A2.jpg","39","restless",0.6,0.6,0.5,0.346258943697052,"true"
"image-keyboard-response",228,281465,"0.0-3.72-1.72","2cwn30vh7gl4n44",856,"177.csv","","null","resources/maskTrios/BBA2.jpg","null","",NA,NA,NA,NA,""
"image-keyboard-response",229,282671,"0.0-3.72-2.72","2cwn30vh7gl4n44",856,"177.csv","","null","resources/images/coin2.png","null","",NA,NA,NA,NA,""
"image-keyboard-response",230,282676,"0.0-3.73-0.73","2cwn30vh7gl4n44",856,"177.csv","","3.5","resources/trios/L2T2A1.jpg","39","restless",0.6,0.6,0.5,0.645136990010688,"false"
"image-keyboard-response",231,283083,"0.0-3.73-1.73","2cwn30vh7gl4n44",856,"177.csv","","null","resources/maskTrios/BBA1.jpg","null","",NA,NA,NA,NA,""
"image-keyboard-response",232,284288,"0.0-3.73-2.73","2cwn30vh7gl4n44",856,"177.csv","","null","resources/images/fishbone.png","null","",NA,NA,NA,NA,""
"image-keyboard-response",233,284506,"0.0-3.74-0.74","2cwn30vh7gl4n44",856,"177.csv","","215.5","resources/trios/L2T1A2.jpg","38","restless",0.6,0.6,0.5,0.0798997218943125,"true"
"image-keyboard-response",234,284909,"0.0-3.74-1.74","2cwn30vh7gl4n44",856,"177.csv","","null","resources/maskTrios/BT1B.jpg","null","",NA,NA,NA,NA,""
"image-keyboard-response",235,286111,"0.0-3.74-2.74","2cwn30vh7gl4n44",856,"177.csv","","null","resources/images/coin2.png","null","",NA,NA,NA,NA,""
"image-keyboard-response",236,290662,"0.0-3.75-0.75","2cwn30vh7gl4n44",856,"177.csv","","4549.199999988079","resources/trios/L1T2A1.jpg","39","restless",0.6,0.6,0.5,0.903367856818827,"false"
"image-keyboard-response",237,291064,"0.0-3.75-1.75","2cwn30vh7gl4n44",856,"177.csv","","null","resources/maskTrios/BBA1.jpg","null","",NA,NA,NA,NA,""
"image-keyboard-response",238,292268,"0.0-3.75-2.75","2cwn30vh7gl4n44",856,"177.csv","","null","resources/images/fishbone.png","null","",NA,NA,NA,NA,""
"image-keyboard-response",239,292392,"0.0-3.76-0.76","2cwn30vh7gl4n44",856,"177.csv","","122.69999998807907","resources/trios/L1T2A2.jpg","38","restless",0.6,0.6,0.5,0.0535856428360173,"true"
"image-keyboard-response",240,292796,"0.0-3.76-1.76","2cwn30vh7gl4n44",856,"177.csv","","null","resources/maskTrios/BT2B.jpg","null","",NA,NA,NA,NA,""
"image-keyboard-response",241,293998,"0.0-3.76-2.76","2cwn30vh7gl4n44",856,"177.csv","","null","resources/images/coin2.png","null","",NA,NA,NA,NA,""
"image-keyboard-response",242,294099,"0.0-3.77-0.77","2cwn30vh7gl4n44",856,"177.csv","","99","resources/trios/L2T1A2.jpg","38","restless",0.6,0.6,0.5,0.34683317867914,"true"
"image-keyboard-response",243,294502,"0.0-3.77-1.77","2cwn30vh7gl4n44",856,"177.csv","","null","resources/maskTrios/BT1B.jpg","null","",NA,NA,NA,NA,""
"image-keyboard-response",244,295706,"0.0-3.77-2.77","2cwn30vh7gl4n44",856,"177.csv","","null","resources/images/coin2.png","null","",NA,NA,NA,NA,""
"image-keyboard-response",245,295831,"0.0-3.78-0.78","2cwn30vh7gl4n44",856,"177.csv","","123.30000001192093","resources/trios/L1T2A2.jpg","38","restless",0.6,0.6,0.5,0.155116969447608,"true"
"image-keyboard-response",246,296237,"0.0-3.78-1.78","2cwn30vh7gl4n44",856,"177.csv","","null","resources/maskTrios/BT2B.jpg","null","",NA,NA,NA,NA,""
"image-keyboard-response",247,297444,"0.0-3.78-2.78","2cwn30vh7gl4n44",856,"177.csv","","null","resources/images/coin2.png","null","",NA,NA,NA,NA,""
"image-keyboard-response",248,297515,"0.0-3.79-0.79","2cwn30vh7gl4n44",856,"177.csv","","68.89999997615814","resources/trios/L2T2A1.jpg","38","restless",0.6,0.6,0.5,0.830121434411027,"false"
"image-keyboard-response",249,297920,"0.0-3.79-1.79","2cwn30vh7gl4n44",856,"177.csv","","null","resources/maskTrios/BT2B.jpg","null","",NA,NA,NA,NA,""
"image-keyboard-response",250,299125,"0.0-3.79-2.79","2cwn30vh7gl4n44",856,"177.csv","","null","resources/images/fishbone.png","null","",NA,NA,NA,NA,""
"image-keyboard-response",251,299202,"0.0-3.80-0.80","2cwn30vh7gl4n44",856,"177.csv","","75.19999998807907","resources/trios/L2T1A1.jpg","37","restless",0.6,0.6,0.5,0.742173025612092,"false"
"image-keyboard-response",252,299604,"0.0-3.80-1.80","2cwn30vh7gl4n44",856,"177.csv","","null","resources/maskTrios/L2BB.jpg","null","",NA,NA,NA,NA,""
"image-keyboard-response",253,300809,"0.0-3.80-2.80","2cwn30vh7gl4n44",856,"177.csv","","null","resources/images/fishbone.png","null","",NA,NA,NA,NA,""
"image-keyboard-response",254,301178,"0.0-3.81-0.81","2cwn30vh7gl4n44",856,"177.csv","","367.60000002384186","resources/trios/L2T2A2.jpg","39","restless",0.6,0.6,0.5,0.316383182786722,"true"
"image-keyboard-response",255,301582,"0.0-3.81-1.81","2cwn30vh7gl4n44",856,"177.csv","","null","resources/maskTrios/BBA2.jpg","null","",NA,NA,NA,NA,""
"image-keyboard-response",256,302789,"0.0-3.81-2.81","2cwn30vh7gl4n44",856,"177.csv","","null","resources/images/coin2.png","null","",NA,NA,NA,NA,""
"image-keyboard-response",257,302825,"0.0-3.82-0.82","2cwn30vh7gl4n44",856,"177.csv","","34.19999998807907","resources/trios/L2T2A1.jpg","39","restless",0.6,0.6,0.5,0.0174926473354644,"true"
"image-keyboard-response",258,303228,"0.0-3.82-1.82","2cwn30vh7gl4n44",856,"177.csv","","null","resources/maskTrios/BBA1.jpg","null","",NA,NA,NA,NA,""
"image-keyboard-response",259,304433,"0.0-3.82-2.82","2cwn30vh7gl4n44",856,"177.csv","","null","resources/images/coin2.png","null","",NA,NA,NA,NA,""
"image-keyboard-response",260,304569,"0.0-3.83-0.83","2cwn30vh7gl4n44",856,"177.csv","","133.39999997615814","resources/trios/L1T1A2.jpg","39","restless",0.6,0.6,0.4,0.145475207359298,"true"
"image-keyboard-response",261,304970,"0.0-3.83-1.83","2cwn30vh7gl4n44",856,"177.csv","","null","resources/maskTrios/BBA2.jpg","null","",NA,NA,NA,NA,""
"image-keyboard-response",262,306176,"0.0-3.83-2.83","2cwn30vh7gl4n44",856,"177.csv","","null","resources/images/coin2.png","null","",NA,NA,NA,NA,""
"image-keyboard-response",263,326164,"0.0-3.84-0.84","2cwn30vh7gl4n44",856,"177.csv","","19986","resources/trios/L1T2A2.jpg","38","restless",0.6,0.6,0.3,0.154365312447406,"true"
"image-keyboard-response",264,326566,"0.0-3.84-1.84","2cwn30vh7gl4n44",856,"177.csv","","null","resources/maskTrios/BT2B.jpg","null","",NA,NA,NA,NA,""
"image-keyboard-response",265,327771,"0.0-3.84-2.84","2cwn30vh7gl4n44",856,"177.csv","","null","resources/images/coin2.png","null","",NA,NA,NA,NA,""
"image-keyboard-response",266,328259,"0.0-3.85-0.85","2cwn30vh7gl4n44",856,"177.csv","","486.10000002384186","resources/trios/L1T1A2.jpg","38","restless",0.6,0.6,0.3,0.00309829828859187,"true"
"image-keyboard-response",267,328661,"0.0-3.85-1.85","2cwn30vh7gl4n44",856,"177.csv","","null","resources/maskTrios/BT1B.jpg","null","",NA,NA,NA,NA,""
"image-keyboard-response",268,329867,"0.0-3.85-2.85","2cwn30vh7gl4n44",856,"177.csv","","null","resources/images/coin2.png","null","",NA,NA,NA,NA,""
"image-keyboard-response",269,330400,"0.0-3.86-0.86","2cwn30vh7gl4n44",856,"177.csv","","531.6999999880791","resources/trios/L1T2A2.jpg","38","restless",0.6,0.7,0.3,0.963299857003729,"false"
"image-keyboard-response",270,330805,"0.0-3.86-1.86","2cwn30vh7gl4n44",856,"177.csv","","null","resources/maskTrios/BT2B.jpg","null","",NA,NA,NA,NA,""
"image-keyboard-response",271,332010,"0.0-3.86-2.86","2cwn30vh7gl4n44",856,"177.csv","","null","resources/images/fishbone.png","null","",NA,NA,NA,NA,""
"image-keyboard-response",272,332354,"0.0-3.87-0.87","2cwn30vh7gl4n44",856,"177.csv","","342.4000000357628","resources/trios/L1T1A2.jpg","38","restless",0.6,0.7,0.3,0.00055202091381612,"true"
"image-keyboard-response",273,332759,"0.0-3.87-1.87","2cwn30vh7gl4n44",856,"177.csv","","null","resources/maskTrios/BT1B.jpg","null","",NA,NA,NA,NA,""
"image-keyboard-response",274,333963,"0.0-3.87-2.87","2cwn30vh7gl4n44",856,"177.csv","","null","resources/images/coin2.png","null","",NA,NA,NA,NA,""
"image-keyboard-response",275,338600,"0.0-3.88-0.88","2cwn30vh7gl4n44",856,"177.csv","","4635.100000023842","resources/trios/L2T1A1.jpg","37","restless",0.6,0.7,0.3,0.176581123553963,"true"
"image-keyboard-response",276,339004,"0.0-3.88-1.88","2cwn30vh7gl4n44",856,"177.csv","","null","resources/maskTrios/L2BB.jpg","null","",NA,NA,NA,NA,""
"image-keyboard-response",277,340211,"0.0-3.88-2.88","2cwn30vh7gl4n44",856,"177.csv","","null","resources/images/coin2.png","null","",NA,NA,NA,NA,""
"image-keyboard-response",278,340683,"0.0-3.89-0.89","2cwn30vh7gl4n44",856,"177.csv","","470.69999998807907","resources/trios/L1T1A2.jpg","37","restless",0.6,0.7,0.3,0.0949559784572773,"true"
"image-keyboard-response",279,341087,"0.0-3.89-1.89","2cwn30vh7gl4n44",856,"177.csv","","null","resources/maskTrios/L1BB.jpg","null","",NA,NA,NA,NA,""
"image-keyboard-response",280,342290,"0.0-3.89-2.89","2cwn30vh7gl4n44",856,"177.csv","","null","resources/images/coin2.png","null","",NA,NA,NA,NA,""
"image-keyboard-response",281,342813,"0.0-3.90-0.90","2cwn30vh7gl4n44",856,"177.csv","","521","resources/trios/L1T2A1.jpg","38","restless",0.6,0.8,0.3,0.308483538762147,"true"
"image-keyboard-response",282,343219,"0.0-3.90-1.90","2cwn30vh7gl4n44",856,"177.csv","","null","resources/maskTrios/BT2B.jpg","null","",NA,NA,NA,NA,""
"image-keyboard-response",283,344422,"0.0-3.90-2.90","2cwn30vh7gl4n44",856,"177.csv","","null","resources/images/coin2.png","null","",NA,NA,NA,NA,""
"image-keyboard-response",284,344870,"0.0-3.91-0.91","2cwn30vh7gl4n44",856,"177.csv","","445.5999999642372","resources/trios/L2T1A2.jpg","37","restless",0.6,0.8,0.3,0.983589458728673,"false"
"image-keyboard-response",285,345273,"0.0-3.91-1.91","2cwn30vh7gl4n44",856,"177.csv","","null","resources/maskTrios/L2BB.jpg","null","",NA,NA,NA,NA,""
"image-keyboard-response",286,346475,"0.0-3.91-2.91","2cwn30vh7gl4n44",856,"177.csv","","null","resources/images/fishbone.png","null","",NA,NA,NA,NA,""
"image-keyboard-response",287,346893,"0.0-3.92-0.92","2cwn30vh7gl4n44",856,"177.csv","","416.19999998807907","resources/trios/L2T2A2.jpg","38","restless",0.6,0.8,0.2,0.41903985511222,"true"
"image-keyboard-response",288,347299,"0.0-3.92-1.92","2cwn30vh7gl4n44",856,"177.csv","","null","resources/maskTrios/BT2B.jpg","null","",NA,NA,NA,NA,""
"image-keyboard-response",289,348501,"0.0-3.92-2.92","2cwn30vh7gl4n44",856,"177.csv","","null","resources/images/coin2.png","null","",NA,NA,NA,NA,""
"image-keyboard-response",290,348883,"0.0-3.93-0.93","2cwn30vh7gl4n44",856,"177.csv","","379.30000001192093","resources/trios/L1T2A1.jpg","38","restless",0.6,0.8,0.2,0.368338716978054,"true"
"image-keyboard-response",291,349287,"0.0-3.93-1.93","2cwn30vh7gl4n44",856,"177.csv","","null","resources/maskTrios/BT2B.jpg","null","",NA,NA,NA,NA,""
"image-keyboard-response",292,350493,"0.0-3.93-2.93","2cwn30vh7gl4n44",856,"177.csv","","null","resources/images/coin2.png","null","",NA,NA,NA,NA,""
"image-keyboard-response",293,350871,"0.0-3.94-0.94","2cwn30vh7gl4n44",856,"177.csv","","375.80000001192093","resources/trios/L2T2A2.jpg","39","restless",0.6,0.8,0.2,0.20410632173534,"false"
"image-keyboard-response",294,351275,"0.0-3.94-1.94","2cwn30vh7gl4n44",856,"177.csv","","null","resources/maskTrios/BBA2.jpg","null","",NA,NA,NA,NA,""
"image-keyboard-response",295,352479,"0.0-3.94-2.94","2cwn30vh7gl4n44",856,"177.csv","","null","resources/images/fishbone.png","null","",NA,NA,NA,NA,""
"image-keyboard-response",296,352916,"0.0-3.95-0.95","2cwn30vh7gl4n44",856,"177.csv","","435.4000000357628","resources/trios/L1T1A1.jpg","38","restless",0.6,0.8,0.2,0.250891694649663,"true"
"image-keyboard-response",297,353320,"0.0-3.95-1.95","2cwn30vh7gl4n44",856,"177.csv","","null","resources/maskTrios/BT1B.jpg","null","",NA,NA,NA,NA,""
"image-keyboard-response",298,354526,"0.0-3.95-2.95","2cwn30vh7gl4n44",856,"177.csv","","null","resources/images/coin2.png","null","",NA,NA,NA,NA,""
"image-keyboard-response",299,354785,"0.0-3.96-0.96","2cwn30vh7gl4n44",856,"177.csv","","257.5","resources/trios/L2T1A2.jpg","37","restless",0.6,0.8,0.2,0.811323680114517,"false"
"image-keyboard-response",300,355189,"0.0-3.96-1.96","2cwn30vh7gl4n44",856,"177.csv","","null","resources/maskTrios/L2BB.jpg","null","",NA,NA,NA,NA,""
"image-keyboard-response",301,356395,"0.0-3.96-2.96","2cwn30vh7gl4n44",856,"177.csv","","null","resources/images/fishbone.png","null","",NA,NA,NA,NA,""
"image-keyboard-response",302,356447,"0.0-3.97-0.97","2cwn30vh7gl4n44",856,"177.csv","","50.39999997615814","resources/trios/L1T2A2.jpg","39","restless",0.6,0.8,0.2,0.227145065419966,"false"
"image-keyboard-response",303,356849,"0.0-3.97-1.97","2cwn30vh7gl4n44",856,"177.csv","","null","resources/maskTrios/BBA2.jpg","null","",NA,NA,NA,NA,""
"image-keyboard-response",304,358051,"0.0-3.97-2.97","2cwn30vh7gl4n44",856,"177.csv","","null","resources/images/fishbone.png","null","",NA,NA,NA,NA,""
"image-keyboard-response",305,358302,"0.0-3.98-0.98","2cwn30vh7gl4n44",856,"177.csv","","250.5","resources/trios/L2T2A2.jpg","39","restless",0.6,0.8,0.2,0.316431511555987,"false"
"image-keyboard-response",306,358707,"0.0-3.98-1.98","2cwn30vh7gl4n44",856,"177.csv","","null","resources/maskTrios/BBA2.jpg","null","",NA,NA,NA,NA,""
"image-keyboard-response",307,359912,"0.0-3.98-2.98","2cwn30vh7gl4n44",856,"177.csv","","null","resources/images/fishbone.png","null","",NA,NA,NA,NA,""
"image-keyboard-response",308,359947,"0.0-3.99-0.99","2cwn30vh7gl4n44",856,"177.csv","","33.90000003576279","resources/trios/L2T2A2.jpg","39","restless",0.6,0.8,0.2,0.461015776538999,"false"
"image-keyboard-response",309,360350,"0.0-3.99-1.99","2cwn30vh7gl4n44",856,"177.csv","","null","resources/maskTrios/BBA2.jpg","null","",NA,NA,NA,NA,""
"image-keyboard-response",310,361553,"0.0-3.99-2.99","2cwn30vh7gl4n44",856,"177.csv","","null","resources/images/fishbone.png","null","",NA,NA,NA,NA,""
"image-keyboard-response",311,361650,"0.0-3.100-0.100","2cwn30vh7gl4n44",856,"177.csv","","95.89999997615814","resources/trios/L2T1A2.jpg","39","restless",0.6,0.8,0.2,0.509472277200661,"false"
"image-keyboard-response",312,362056,"0.0-3.100-1.100","2cwn30vh7gl4n44",856,"177.csv","","null","resources/maskTrios/BBA2.jpg","null","",NA,NA,NA,NA,""
"image-keyboard-response",313,363259,"0.0-3.100-2.100","2cwn30vh7gl4n44",856,"177.csv","","null","resources/images/fishbone.png","null","",NA,NA,NA,NA,""
"image-keyboard-response",314,363409,"0.0-3.101-0.101","2cwn30vh7gl4n44",856,"177.csv","","147.5","resources/trios/L1T1A2.jpg","39","restless",0.6,0.7,0.2,0.922780418363357,"false"
"image-keyboard-response",315,363811,"0.0-3.101-1.101","2cwn30vh7gl4n44",856,"177.csv","","null","resources/maskTrios/BBA2.jpg","null","",NA,NA,NA,NA,""
"image-keyboard-response",316,365017,"0.0-3.101-2.101","2cwn30vh7gl4n44",856,"177.csv","","null","resources/images/fishbone.png","null","",NA,NA,NA,NA,""
"image-keyboard-response",317,365059,"0.0-3.102-0.102","2cwn30vh7gl4n44",856,"177.csv","","41.10000002384186","resources/trios/L1T1A2.jpg","39","restless",0.6,0.7,0.2,0.527240298112487,"false"
"image-keyboard-response",318,365461,"0.0-3.102-1.102","2cwn30vh7gl4n44",856,"177.csv","","null","resources/maskTrios/BBA2.jpg","null","",NA,NA,NA,NA,""
"image-keyboard-response",319,366663,"0.0-3.102-2.102","2cwn30vh7gl4n44",856,"177.csv","","null","resources/images/fishbone.png","null","",NA,NA,NA,NA,""
"image-keyboard-response",320,367056,"0.0-3.103-0.103","2cwn30vh7gl4n44",856,"177.csv","","391.5999999642372","resources/trios/L1T2A2.jpg","39","restless",0.6,0.7,0.1,0.0968037310167786,"true"
"image-keyboard-response",321,367458,"0.0-3.103-1.103","2cwn30vh7gl4n44",856,"177.csv","","null","resources/maskTrios/BBA2.jpg","null","",NA,NA,NA,NA,""
"image-keyboard-response",322,368661,"0.0-3.103-2.103","2cwn30vh7gl4n44",856,"177.csv","","null","resources/images/coin2.png","null","",NA,NA,NA,NA,""
"image-keyboard-response",323,368756,"0.0-3.104-0.104","2cwn30vh7gl4n44",856,"177.csv","","93.29999995231628","resources/trios/L2T2A1.jpg","39","restless",0.6,0.7,0.1,0.019373972940673,"true"
"image-keyboard-response",324,369162,"0.0-3.104-1.104","2cwn30vh7gl4n44",856,"177.csv","","null","resources/maskTrios/BBA1.jpg","null","",NA,NA,NA,NA,""
"image-keyboard-response",325,370368,"0.0-3.104-2.104","2cwn30vh7gl4n44",856,"177.csv","","null","resources/images/coin2.png","null","",NA,NA,NA,NA,""
"image-keyboard-response",326,370442,"0.0-3.105-0.105","2cwn30vh7gl4n44",856,"177.csv","","72.10000002384186","resources/trios/L1T2A2.jpg","39","restless",0.6,0.7,0.1,0.0129701047221462,"true"
"image-keyboard-response",327,370847,"0.0-3.105-1.105","2cwn30vh7gl4n44",856,"177.csv","","null","resources/maskTrios/BBA2.jpg","null","",NA,NA,NA,NA,""
"image-keyboard-response",328,372053,"0.0-3.105-2.105","2cwn30vh7gl4n44",856,"177.csv","","null","resources/images/coin2.png","null","",NA,NA,NA,NA,""
"image-keyboard-response",329,372398,"0.0-3.106-0.106","2cwn30vh7gl4n44",856,"177.csv","","342.60000002384186","resources/trios/L2T2A1.jpg","39","restless",0.6,0.7,0.1,0.589322583636427,"false"
"image-keyboard-response",330,372800,"0.0-3.106-1.106","2cwn30vh7gl4n44",856,"177.csv","","null","resources/maskTrios/BBA1.jpg","null","",NA,NA,NA,NA,""
"image-keyboard-response",331,374003,"0.0-3.106-2.106","2cwn30vh7gl4n44",856,"177.csv","","null","resources/images/fishbone.png","null","",NA,NA,NA,NA,""
"image-keyboard-response",332,374286,"0.0-3.107-0.107","2cwn30vh7gl4n44",856,"177.csv","","281","resources/trios/L1T2A1.jpg","38","restless",0.6,0.7,0.2,0.108869389542449,"true"
"image-keyboard-response",333,374691,"0.0-3.107-1.107","2cwn30vh7gl4n44",856,"177.csv","","null","resources/maskTrios/BT2B.jpg","null","",NA,NA,NA,NA,""
"image-keyboard-response",334,375898,"0.0-3.107-2.107","2cwn30vh7gl4n44",856,"177.csv","","null","resources/images/coin2.png","null","",NA,NA,NA,NA,""
"image-keyboard-response",335,376221,"0.0-3.108-0.108","2cwn30vh7gl4n44",856,"177.csv","","321","resources/trios/L2T2A1.jpg","38","restless",0.6,0.7,0.2,0.0354475628333646,"true"
"image-keyboard-response",336,376627,"0.0-3.108-1.108","2cwn30vh7gl4n44",856,"177.csv","","null","resources/maskTrios/BT2B.jpg","null","",NA,NA,NA,NA,""
"image-keyboard-response",337,377830,"0.0-3.108-2.108","2cwn30vh7gl4n44",856,"177.csv","","null","resources/images/coin2.png","null","",NA,NA,NA,NA,""
"image-keyboard-response",338,377994,"0.0-3.109-0.109","2cwn30vh7gl4n44",856,"177.csv","","161.79999995231628","resources/trios/L1T1A2.jpg","37","restless",0.6,0.7,0.2,0.561205244617867,"true"
"image-keyboard-response",339,378400,"0.0-3.109-1.109","2cwn30vh7gl4n44",856,"177.csv","","null","resources/maskTrios/L1BB.jpg","null","",NA,NA,NA,NA,""
"image-keyboard-response",340,379606,"0.0-3.109-2.109","2cwn30vh7gl4n44",856,"177.csv","","null","resources/images/coin2.png","null","",NA,NA,NA,NA,""
"image-keyboard-response",341,379859,"0.0-3.110-0.110","2cwn30vh7gl4n44",856,"177.csv","","251.0999999642372","resources/trios/L1T1A1.jpg","37","restless",0.6,0.7,0.2,0.733900589927725,"false"
"image-keyboard-response",342,380262,"0.0-3.110-1.110","2cwn30vh7gl4n44",856,"177.csv","","null","resources/maskTrios/L1BB.jpg","null","",NA,NA,NA,NA,""
"image-keyboard-response",343,381466,"0.0-3.110-2.110","2cwn30vh7gl4n44",856,"177.csv","","null","resources/images/fishbone.png","null","",NA,NA,NA,NA,""
"image-keyboard-response",344,381836,"0.0-3.111-0.111","2cwn30vh7gl4n44",856,"177.csv","","367","resources/trios/L1T1A1.jpg","38","restless",0.5,0.7,0.3,0.445426191444702,"true"
"image-keyboard-response",345,382243,"0.0-3.111-1.111","2cwn30vh7gl4n44",856,"177.csv","","null","resources/maskTrios/BT1B.jpg","null","",NA,NA,NA,NA,""
"image-keyboard-response",346,383447,"0.0-3.111-2.111","2cwn30vh7gl4n44",856,"177.csv","","null","resources/images/coin2.png","null","",NA,NA,NA,NA,""
"image-keyboard-response",347,383770,"0.0-3.112-0.112","2cwn30vh7gl4n44",856,"177.csv","","321.69999998807907","resources/trios/L2T1A1.jpg","38","restless",0.5,0.7,0.3,0.513523228428958,"true"
"image-keyboard-response",348,384176,"0.0-3.112-1.112","2cwn30vh7gl4n44",856,"177.csv","","null","resources/maskTrios/BT1B.jpg","null","",NA,NA,NA,NA,""
"image-keyboard-response",349,385378,"0.0-3.112-2.112","2cwn30vh7gl4n44",856,"177.csv","","null","resources/images/coin2.png","null","",NA,NA,NA,NA,""
"image-keyboard-response",350,385813,"0.0-3.113-0.113","2cwn30vh7gl4n44",856,"177.csv","","433.2000000476837","resources/trios/L2T1A2.jpg","39","restless",0.5,0.7,0.3,0.87412852090587,"false"
"image-keyboard-response",351,386218,"0.0-3.113-1.113","2cwn30vh7gl4n44",856,"177.csv","","null","resources/maskTrios/BBA2.jpg","null","",NA,NA,NA,NA,""
"image-keyboard-response",352,387424,"0.0-3.113-2.113","2cwn30vh7gl4n44",856,"177.csv","","null","resources/images/fishbone.png","null","",NA,NA,NA,NA,""
"image-keyboard-response",353,387747,"0.0-3.114-0.114","2cwn30vh7gl4n44",856,"177.csv","","321","resources/trios/L2T2A1.jpg","39","restless",0.5,0.7,0.3,0.87901061911558,"false"
"image-keyboard-response",354,388152,"0.0-3.114-1.114","2cwn30vh7gl4n44",856,"177.csv","","null","resources/maskTrios/BBA1.jpg","null","",NA,NA,NA,NA,""
"image-keyboard-response",355,389355,"0.0-3.114-2.114","2cwn30vh7gl4n44",856,"177.csv","","null","resources/images/fishbone.png","null","",NA,NA,NA,NA,""
"image-keyboard-response",356,389933,"0.0-3.115-0.115","2cwn30vh7gl4n44",856,"177.csv","","576.1000000238419","resources/trios/L2T1A2.jpg","37","restless",0.5,0.7,0.3,0.429244790911105,"true"
"image-keyboard-response",357,390337,"0.0-3.115-1.115","2cwn30vh7gl4n44",856,"177.csv","","null","resources/maskTrios/L2BB.jpg","null","",NA,NA,NA,NA,""
"image-keyboard-response",358,391540,"0.0-3.115-2.115","2cwn30vh7gl4n44",856,"177.csv","","null","resources/images/coin2.png","null","",NA,NA,NA,NA,""
"image-keyboard-response",359,391898,"0.0-3.116-0.116","2cwn30vh7gl4n44",856,"177.csv","","356.69999998807907","resources/trios/L2T2A2.jpg","38","restless",0.5,0.7,0.3,0.696566588370604,"true"
"image-keyboard-response",360,392302,"0.0-3.116-1.116","2cwn30vh7gl4n44",856,"177.csv","","null","resources/maskTrios/BT2B.jpg","null","",NA,NA,NA,NA,""
"image-keyboard-response",361,393506,"0.0-3.116-2.116","2cwn30vh7gl4n44",856,"177.csv","","null","resources/images/coin2.png","null","",NA,NA,NA,NA,""
"image-keyboard-response",362,393623,"0.0-3.117-0.117","2cwn30vh7gl4n44",856,"177.csv","","115.80000001192093","resources/trios/L1T2A1.jpg","37","restless",0.5,0.7,0.4,0.0583911597756956,"true"
"image-keyboard-response",363,394026,"0.0-3.117-1.117","2cwn30vh7gl4n44",856,"177.csv","","null","resources/maskTrios/L1BB.jpg","null","",NA,NA,NA,NA,""
"image-keyboard-response",364,395232,"0.0-3.117-2.117","2cwn30vh7gl4n44",856,"177.csv","","null","resources/images/coin2.png","null","",NA,NA,NA,NA,""
"image-keyboard-response",365,395779,"0.0-3.118-0.118","2cwn30vh7gl4n44",856,"177.csv","","546.0999999642372","resources/trios/L2T1A2.jpg","37","restless",0.5,0.7,0.4,0.692045026736181,"false"
"image-keyboard-response",366,396181,"0.0-3.118-1.118","2cwn30vh7gl4n44",856,"177.csv","","null","resources/maskTrios/L2BB.jpg","null","",NA,NA,NA,NA,""
"image-keyboard-response",367,397386,"0.0-3.118-2.118","2cwn30vh7gl4n44",856,"177.csv","","null","resources/images/fishbone.png","null","",NA,NA,NA,NA,""
"image-keyboard-response",368,397431,"0.0-3.119-0.119","2cwn30vh7gl4n44",856,"177.csv","","42.80000001192093","resources/trios/L1T1A1.jpg","38","restless",0.5,0.7,0.4,0.951940080730749,"false"
"image-keyboard-response",369,397833,"0.0-3.119-1.119","2cwn30vh7gl4n44",856,"177.csv","","null","resources/maskTrios/BT1B.jpg","null","",NA,NA,NA,NA,""
"image-keyboard-response",370,399038,"0.0-3.119-2.119","2cwn30vh7gl4n44",856,"177.csv","","null","resources/images/fishbone.png","null","",NA,NA,NA,NA,""
"image-keyboard-response",371,399453,"0.0-3.120-0.120","2cwn30vh7gl4n44",856,"177.csv","","412.69999998807907","resources/trios/L1T2A2.jpg","37","restless",0.5,0.7,0.4,0.584930831359121,"false"
"image-keyboard-response",372,399858,"0.0-3.120-1.120","2cwn30vh7gl4n44",856,"177.csv","","null","resources/maskTrios/L1BB.jpg","null","",NA,NA,NA,NA,""
"image-keyboard-response",373,401062,"0.0-3.120-2.120","2cwn30vh7gl4n44",856,"177.csv","","null","resources/images/fishbone.png","null","",NA,NA,NA,NA,""
"image-keyboard-response",374,401291,"0.0-3.121-0.121","2cwn30vh7gl4n44",856,"177.csv","","227.69999998807907","resources/trios/L1T2A2.jpg","39","restless",0.5,0.7,0.4,0.0895958627437814,"true"
"image-keyboard-response",375,401702,"0.0-3.121-1.121","2cwn30vh7gl4n44",856,"177.csv","","null","resources/maskTrios/BBA2.jpg","null","",NA,NA,NA,NA,""
"image-keyboard-response",376,402907,"0.0-3.121-2.121","2cwn30vh7gl4n44",856,"177.csv","","null","resources/images/coin2.png","null","",NA,NA,NA,NA,""
"image-keyboard-response",377,406743,"0.0-3.122-0.122","2cwn30vh7gl4n44",856,"177.csv","","3834.099999964237","resources/trios/L2T1A1.jpg","37","restless",0.4,0.7,0.4,0.165388559802108,"true"
"image-keyboard-response",378,407147,"0.0-3.122-1.122","2cwn30vh7gl4n44",856,"177.csv","","null","resources/maskTrios/L2BB.jpg","null","",NA,NA,NA,NA,""
"image-keyboard-response",379,408351,"0.0-3.122-2.122","2cwn30vh7gl4n44",856,"177.csv","","null","resources/images/coin2.png","null","",NA,NA,NA,NA,""
"image-keyboard-response",380,408735,"0.0-3.123-0.123","2cwn30vh7gl4n44",856,"177.csv","","382.30000001192093","resources/trios/L2T2A1.jpg","39","restless",0.4,0.7,0.4,0.903458402774955,"false"
"image-keyboard-response",381,409140,"0.0-3.123-1.123","2cwn30vh7gl4n44",856,"177.csv","","null","resources/maskTrios/BBA1.jpg","null","",NA,NA,NA,NA,""
"image-keyboard-response",382,410344,"0.0-3.123-2.123","2cwn30vh7gl4n44",856,"177.csv","","null","resources/images/fishbone.png","null","",NA,NA,NA,NA,""
"image-keyboard-response",383,410760,"0.0-3.124-0.124","2cwn30vh7gl4n44",856,"177.csv","","415","resources/trios/L2T1A1.jpg","39","restless",0.4,0.7,0.4,0.654754124567353,"false"
"image-keyboard-response",384,411166,"0.0-3.124-1.124","2cwn30vh7gl4n44",856,"177.csv","","null","resources/maskTrios/BBA1.jpg","null","",NA,NA,NA,NA,""
"image-keyboard-response",385,412371,"0.0-3.124-2.124","2cwn30vh7gl4n44",856,"177.csv","","null","resources/images/fishbone.png","null","",NA,NA,NA,NA,""
"image-keyboard-response",386,412550,"0.0-3.125-0.125","2cwn30vh7gl4n44",856,"177.csv","","177.30000001192093","resources/trios/L2T1A2.jpg","38","restless",0.4,0.7,0.4,0.976659841366052,"false"
"image-keyboard-response",387,412954,"0.0-3.125-1.125","2cwn30vh7gl4n44",856,"177.csv","","null","resources/maskTrios/BT1B.jpg","null","",NA,NA,NA,NA,""
"image-keyboard-response",388,414158,"0.0-3.125-2.125","2cwn30vh7gl4n44",856,"177.csv","","null","resources/images/fishbone.png","null","",NA,NA,NA,NA,""
"image-keyboard-response",389,414446,"0.0-3.126-0.126","2cwn30vh7gl4n44",856,"177.csv","","286.2000000476837","resources/trios/L2T1A2.jpg","37","restless",0.4,0.7,0.4,0.28643136710153,"true"
"image-keyboard-response",390,414850,"0.0-3.126-1.126","2cwn30vh7gl4n44",856,"177.csv","","null","resources/maskTrios/L2BB.jpg","null","",NA,NA,NA,NA,""
"image-keyboard-response",391,416053,"0.0-3.126-2.126","2cwn30vh7gl4n44",856,"177.csv","","null","resources/images/coin2.png","null","",NA,NA,NA,NA,""
"image-keyboard-response",392,416408,"0.0-3.127-0.127","2cwn30vh7gl4n44",856,"177.csv","","353.10000002384186","resources/trios/L1T2A1.jpg","38","restless",0.4,0.7,0.4,0.487209569795936,"true"
"image-keyboard-response",393,416810,"0.0-3.127-1.127","2cwn30vh7gl4n44",856,"177.csv","","null","resources/maskTrios/BT2B.jpg","null","",NA,NA,NA,NA,""
"image-keyboard-response",394,418015,"0.0-3.127-2.127","2cwn30vh7gl4n44",856,"177.csv","","null","resources/images/coin2.png","null","",NA,NA,NA,NA,""
"image-keyboard-response",395,418669,"0.0-3.128-0.128","2cwn30vh7gl4n44",856,"177.csv","","652.4000000357628","resources/trios/L1T2A2.jpg","38","restless",0.4,0.7,0.4,0.88144928871603,"false"
"image-keyboard-response",396,419072,"0.0-3.128-1.128","2cwn30vh7gl4n44",856,"177.csv","","null","resources/maskTrios/BT2B.jpg","null","",NA,NA,NA,NA,""
"image-keyboard-response",397,420273,"0.0-3.128-2.128","2cwn30vh7gl4n44",856,"177.csv","","null","resources/images/fishbone.png","null","",NA,NA,NA,NA,""
"image-keyboard-response",398,420857,"0.0-3.129-0.129","2cwn30vh7gl4n44",856,"177.csv","","582.5","resources/trios/L2T1A1.jpg","37","restless",0.4,0.7,0.4,0.850521541606547,"false"
"image-keyboard-response",399,421262,"0.0-3.129-1.129","2cwn30vh7gl4n44",856,"177.csv","","null","resources/maskTrios/L2BB.jpg","null","",NA,NA,NA,NA,""
"image-keyboard-response",400,422466,"0.0-3.129-2.129","2cwn30vh7gl4n44",856,"177.csv","","null","resources/images/fishbone.png","null","",NA,NA,NA,NA,""
"image-keyboard-response",401,422787,"0.0-3.130-0.130","2cwn30vh7gl4n44",856,"177.csv","","318.69999998807907","resources/trios/L1T1A2.jpg","39","restless",0.4,0.7,0.4,0.681068440252796,"false"
"image-keyboard-response",402,423189,"0.0-3.130-1.130","2cwn30vh7gl4n44",856,"177.csv","","null","resources/maskTrios/BBA2.jpg","null","",NA,NA,NA,NA,""
"image-keyboard-response",403,424395,"0.0-3.130-2.130","2cwn30vh7gl4n44",856,"177.csv","","null","resources/images/fishbone.png","null","",NA,NA,NA,NA,""
"image-keyboard-response",404,424405,"0.0-3.131-0.131","2cwn30vh7gl4n44",856,"177.csv","","8.199999988079071","resources/trios/L2T2A2.jpg","38","restless",0.4,0.7,0.4,0.106663967005553,"true"
"image-keyboard-response",405,424810,"0.0-3.131-1.131","2cwn30vh7gl4n44",856,"177.csv","","null","resources/maskTrios/BT2B.jpg","null","",NA,NA,NA,NA,""
"image-keyboard-response",406,426014,"0.0-3.131-2.131","2cwn30vh7gl4n44",856,"177.csv","","null","resources/images/coin2.png","null","",NA,NA,NA,NA,""
"image-keyboard-response",407,426338,"0.0-3.132-0.132","2cwn30vh7gl4n44",856,"177.csv","","321.69999998807907","resources/trios/L1T2A1.jpg","37","restless",0.4,0.7,0.4,0.863384120853573,"false"
"image-keyboard-response",408,426740,"0.0-3.132-1.132","2cwn30vh7gl4n44",856,"177.csv","","null","resources/maskTrios/L1BB.jpg","null","",NA,NA,NA,NA,""
"image-keyboard-response",409,427944,"0.0-3.132-2.132","2cwn30vh7gl4n44",856,"177.csv","","null","resources/images/fishbone.png","null","",NA,NA,NA,NA,""
"image-keyboard-response",410,428030,"0.0-3.133-0.133","2cwn30vh7gl4n44",856,"177.csv","","83.5","resources/trios/L1T1A1.jpg","38","restless",0.4,0.7,0.4,0.171396921199779,"true"
"image-keyboard-response",411,428433,"0.0-3.133-1.133","2cwn30vh7gl4n44",856,"177.csv","","null","resources/maskTrios/BT1B.jpg","null","",NA,NA,NA,NA,""
"image-keyboard-response",412,429637,"0.0-3.133-2.133","2cwn30vh7gl4n44",856,"177.csv","","null","resources/images/coin2.png","null","",NA,NA,NA,NA,""
"image-keyboard-response",413,429983,"0.0-3.134-0.134","2cwn30vh7gl4n44",856,"177.csv","","344.30000001192093","resources/trios/L1T1A1.jpg","38","restless",0.4,0.7,0.4,0.00453511842173659,"true"
"image-keyboard-response",414,430389,"0.0-3.134-1.134","2cwn30vh7gl4n44",856,"177.csv","","null","resources/maskTrios/BT1B.jpg","null","",NA,NA,NA,NA,""
"image-keyboard-response",415,431594,"0.0-3.134-2.134","2cwn30vh7gl4n44",856,"177.csv","","null","resources/images/coin2.png","null","",NA,NA,NA,NA,""
"image-keyboard-response",416,432046,"0.0-3.135-0.135","2cwn30vh7gl4n44",856,"177.csv","","450.80000001192093","resources/trios/L2T1A2.jpg","38","restless",0.4,0.7,0.4,0.943667904799483,"false"
"image-keyboard-response",417,432448,"0.0-3.135-1.135","2cwn30vh7gl4n44",856,"177.csv","","null","resources/maskTrios/BT1B.jpg","null","",NA,NA,NA,NA,""
"image-keyboard-response",418,433652,"0.0-3.135-2.135","2cwn30vh7gl4n44",856,"177.csv","","null","resources/images/fishbone.png","null","",NA,NA,NA,NA,""
"image-keyboard-response",419,433914,"0.0-3.136-0.136","2cwn30vh7gl4n44",856,"177.csv","","260.19999998807907","resources/trios/L1T2A2.jpg","37","restless",0.4,0.7,0.4,0.35106142995171,"true"
"image-keyboard-response",420,434317,"0.0-3.136-1.136","2cwn30vh7gl4n44",856,"177.csv","","null","resources/maskTrios/L1BB.jpg","null","",NA,NA,NA,NA,""
"image-keyboard-response",421,435522,"0.0-3.136-2.136","2cwn30vh7gl4n44",856,"177.csv","","null","resources/images/coin2.png","null","",NA,NA,NA,NA,""
"image-keyboard-response",422,435929,"0.0-3.137-0.137","2cwn30vh7gl4n44",856,"177.csv","","404.10000002384186","resources/trios/L2T1A1.jpg","37","restless",0.3,0.7,0.4,0.812410051714762,"false"
"image-keyboard-response",423,436334,"0.0-3.137-1.137","2cwn30vh7gl4n44",856,"177.csv","","null","resources/maskTrios/L2BB.jpg","null","",NA,NA,NA,NA,""
"image-keyboard-response",424,437539,"0.0-3.137-2.137","2cwn30vh7gl4n44",856,"177.csv","","null","resources/images/fishbone.png","null","",NA,NA,NA,NA,""
"image-keyboard-response",425,437632,"0.0-3.138-0.138","2cwn30vh7gl4n44",856,"177.csv","","91.09999996423721","resources/trios/L2T1A1.jpg","38","restless",0.3,0.7,0.5,0.822223180015516,"false"
"image-keyboard-response",426,438037,"0.0-3.138-1.138","2cwn30vh7gl4n44",856,"177.csv","","null","resources/maskTrios/BT1B.jpg","null","",NA,NA,NA,NA,""
"image-keyboard-response",427,439242,"0.0-3.138-2.138","2cwn30vh7gl4n44",856,"177.csv","","null","resources/images/fishbone.png","null","",NA,NA,NA,NA,""
"image-keyboard-response",428,439436,"0.0-3.139-0.139","2cwn30vh7gl4n44",856,"177.csv","","192.60000002384186","resources/trios/L1T1A1.jpg","38","restless",0.3,0.7,0.5,0.658129221212158,"true"
"image-keyboard-response",429,439843,"0.0-3.139-1.139","2cwn30vh7gl4n44",856,"177.csv","","null","resources/maskTrios/BT1B.jpg","null","",NA,NA,NA,NA,""
"image-keyboard-response",430,442033,"0.0-3.139-2.139","2cwn30vh7gl4n44",856,"177.csv","","null","resources/images/coin2.png","null","",NA,NA,NA,NA,""
"image-keyboard-response",431,444214,"0.0-3.140-0.140","2cwn30vh7gl4n44",856,"177.csv","","2180","resources/trios/L1T1A1.jpg","39","restless",0.3,0.7,0.5,0.00634631684647458,"true"
"image-keyboard-response",432,444618,"0.0-3.140-1.140","2cwn30vh7gl4n44",856,"177.csv","","null","resources/maskTrios/BBA1.jpg","null","",NA,NA,NA,NA,""
"image-keyboard-response",433,445823,"0.0-3.140-2.140","2cwn30vh7gl4n44",856,"177.csv","","null","resources/images/coin2.png","null","",NA,NA,NA,NA,""
"image-keyboard-response",434,486420,"0.0-3.141-0.141","2cwn30vh7gl4n44",856,"177.csv","","40595.89999997616","resources/trios/L2T1A2.jpg","39","restless",0.3,0.7,0.5,0.52418653359396,"false"
"image-keyboard-response",435,486827,"0.0-3.141-1.141","2cwn30vh7gl4n44",856,"177.csv","","null","resources/maskTrios/BBA2.jpg","null","",NA,NA,NA,NA,""
"image-keyboard-response",436,488033,"0.0-3.141-2.141","2cwn30vh7gl4n44",856,"177.csv","","null","resources/images/fishbone.png","null","",NA,NA,NA,NA,""
"image-keyboard-response",437,488445,"0.0-3.142-0.142","2cwn30vh7gl4n44",856,"177.csv","","410.5","resources/trios/L2T2A1.jpg","38","restless",0.3,0.6,0.5,0.608955948990602,"false"
"image-keyboard-response",438,488851,"0.0-3.142-1.142","2cwn30vh7gl4n44",856,"177.csv","","null","resources/maskTrios/BT2B.jpg","null","",NA,NA,NA,NA,""
"image-keyboard-response",439,490057,"0.0-3.142-2.142","2cwn30vh7gl4n44",856,"177.csv","","null","resources/images/fishbone.png","null","",NA,NA,NA,NA,""
"image-keyboard-response",440,490303,"0.0-3.143-0.143","2cwn30vh7gl4n44",856,"177.csv","","244.30000001192093","resources/trios/L2T1A2.jpg","37","restless",0.3,0.6,0.5,0.146202259898343,"true"
"image-keyboard-response",441,490709,"0.0-3.143-1.143","2cwn30vh7gl4n44",856,"177.csv","","null","resources/maskTrios/L2BB.jpg","null","",NA,NA,NA,NA,""
"image-keyboard-response",442,491914,"0.0-3.143-2.143","2cwn30vh7gl4n44",856,"177.csv","","null","resources/images/coin2.png","null","",NA,NA,NA,NA,""
"image-keyboard-response",443,492324,"0.0-3.144-0.144","2cwn30vh7gl4n44",856,"177.csv","","407.89999997615814","resources/trios/L1T1A2.jpg","37","restless",0.3,0.6,0.6,0.631544924573289,"false"
"image-keyboard-response",444,492727,"0.0-3.144-1.144","2cwn30vh7gl4n44",856,"177.csv","","null","resources/maskTrios/L1BB.jpg","null","",NA,NA,NA,NA,""
"image-keyboard-response",445,493930,"0.0-3.144-2.144","2cwn30vh7gl4n44",856,"177.csv","","null","resources/images/fishbone.png","null","",NA,NA,NA,NA,""
"image-keyboard-response",446,494587,"0.0-3.145-0.145","2cwn30vh7gl4n44",856,"177.csv","","654.8000000119209","resources/trios/L1T1A2.jpg","37","restless",0.4,0.6,0.6,0.929746521225683,"false"
"image-keyboard-response",447,494989,"0.0-3.145-1.145","2cwn30vh7gl4n44",856,"177.csv","","null","resources/maskTrios/L1BB.jpg","null","",NA,NA,NA,NA,""
"image-keyboard-response",448,496192,"0.0-3.145-2.145","2cwn30vh7gl4n44",856,"177.csv","","null","resources/images/fishbone.png","null","",NA,NA,NA,NA,""
"image-keyboard-response",449,496204,"0.0-3.146-0.146","2cwn30vh7gl4n44",856,"177.csv","","10.799999952316284","resources/trios/L1T2A1.jpg","38","restless",0.5,0.6,0.5,0.312183799234219,"true"
"image-keyboard-response",450,496610,"0.0-3.146-1.146","2cwn30vh7gl4n44",856,"177.csv","","null","resources/maskTrios/BT2B.jpg","null","",NA,NA,NA,NA,""
"image-keyboard-response",451,497813,"0.0-3.146-2.146","2cwn30vh7gl4n44",856,"177.csv","","null","resources/images/coin2.png","null","",NA,NA,NA,NA,""
"image-keyboard-response",452,498876,"0.0-3.147-0.147","2cwn30vh7gl4n44",856,"177.csv","","1060.3999999761581","resources/trios/L1T2A2.jpg","37","restless",0.5,0.5,0.5,0.126975227303045,"true"
"image-keyboard-response",453,499280,"0.0-3.147-1.147","2cwn30vh7gl4n44",856,"177.csv","","null","resources/maskTrios/L1BB.jpg","null","",NA,NA,NA,NA,""
"image-keyboard-response",454,500484,"0.0-3.147-2.147","2cwn30vh7gl4n44",856,"177.csv","","null","resources/images/coin2.png","null","",NA,NA,NA,NA,""
"image-keyboard-response",455,500858,"0.0-3.148-0.148","2cwn30vh7gl4n44",856,"177.csv","","371.5","resources/trios/L2T2A1.jpg","37","restless",0.5,0.5,0.5,0.45697200690949,"true"
"image-keyboard-response",456,501261,"0.0-3.148-1.148","2cwn30vh7gl4n44",856,"177.csv","","null","resources/maskTrios/L2BB.jpg","null","",NA,NA,NA,NA,""
"image-keyboard-response",457,502463,"0.0-3.148-2.148","2cwn30vh7gl4n44",856,"177.csv","","null","resources/images/coin2.png","null","",NA,NA,NA,NA,""
"image-keyboard-response",458,502676,"0.0-3.149-0.149","2cwn30vh7gl4n44",856,"177.csv","","211.9000000357628","resources/trios/L1T2A2.jpg","37","restless",0.5,0.5,0.5,0.587448588488809,"false"
"image-keyboard-response",459,503082,"0.0-3.149-1.149","2cwn30vh7gl4n44",856,"177.csv","","null","resources/maskTrios/L1BB.jpg","null","",NA,NA,NA,NA,""
"image-keyboard-response",460,504287,"0.0-3.149-2.149","2cwn30vh7gl4n44",856,"177.csv","","null","resources/images/fishbone.png","null","",NA,NA,NA,NA,""
"image-keyboard-response",461,504368,"0.0-3.150-0.150","2cwn30vh7gl4n44",856,"177.csv","","79.40000003576279","resources/trios/L1T1A1.jpg","37","restless",0.5,0.5,0.5,0.496129462967333,"true"
"image-keyboard-response",462,504771,"0.0-3.150-1.150","2cwn30vh7gl4n44",856,"177.csv","","null","resources/maskTrios/L1BB.jpg","null","",NA,NA,NA,NA,""
"image-keyboard-response",463,505975,"0.0-3.150-2.150","2cwn30vh7gl4n44",856,"177.csv","","null","resources/images/coin2.png","null","",NA,NA,NA,NA,""
"image-keyboard-response",464,505977,"0.0-3.151-0.151","2cwn30vh7gl4n44",856,"177.csv","","0.09999996423721313","resources/trios/L2T2A1.jpg","37","restless",0.5,0.5,0.5,0.68275599815825,"false"
"image-keyboard-response",465,506380,"0.0-3.151-1.151","2cwn30vh7gl4n44",856,"177.csv","","null","resources/maskTrios/L2BB.jpg","null","",NA,NA,NA,NA,""
"image-keyboard-response",466,507583,"0.0-3.151-2.151","2cwn30vh7gl4n44",856,"177.csv","","null","resources/images/fishbone.png","null","",NA,NA,NA,NA,""
"image-keyboard-response",467,507766,"0.0-3.152-0.152","2cwn30vh7gl4n44",856,"177.csv","","181.5","resources/trios/L1T1A1.jpg","37","restless",0.5,0.5,0.5,0.972633502017364,"false"
"image-keyboard-response",468,508172,"0.0-3.152-1.152","2cwn30vh7gl4n44",856,"177.csv","","null","resources/maskTrios/L1BB.jpg","null","",NA,NA,NA,NA,""
"image-keyboard-response",469,509378,"0.0-3.152-2.152","2cwn30vh7gl4n44",856,"177.csv","","null","resources/images/fishbone.png","null","",NA,NA,NA,NA,""
"image-keyboard-response",470,509406,"0.0-3.153-0.153","2cwn30vh7gl4n44",856,"177.csv","","26.19999998807907","resources/trios/L1T1A1.jpg","37","restless",0.5,0.5,0.5,0.100706400406568,"true"
"image-keyboard-response",471,509807,"0.0-3.153-1.153","2cwn30vh7gl4n44",856,"177.csv","","null","resources/maskTrios/L1BB.jpg","null","",NA,NA,NA,NA,""
"image-keyboard-response",472,511010,"0.0-3.153-2.153","2cwn30vh7gl4n44",856,"177.csv","","null","resources/images/coin2.png","null","",NA,NA,NA,NA,""
"image-keyboard-response",473,511135,"0.0-3.154-0.154","2cwn30vh7gl4n44",856,"177.csv","","122.69999998807907","resources/trios/L1T1A1.jpg","37","restless",0.5,0.5,0.5,0.539999717214403,"false"
"image-keyboard-response",474,511537,"0.0-3.154-1.154","2cwn30vh7gl4n44",856,"177.csv","","null","resources/maskTrios/L1BB.jpg","null","",NA,NA,NA,NA,""
"image-keyboard-response",475,512741,"0.0-3.154-2.154","2cwn30vh7gl4n44",856,"177.csv","","null","resources/images/fishbone.png","null","",NA,NA,NA,NA,""
"image-keyboard-response",476,512772,"0.0-3.155-0.155","2cwn30vh7gl4n44",856,"177.csv","","29.100000023841858","resources/trios/L2T1A2.jpg","37","restless",0.5,0.5,0.5,0.402323745290479,"true"
"image-keyboard-response",477,513177,"0.0-3.155-1.155","2cwn30vh7gl4n44",856,"177.csv","","null","resources/maskTrios/L2BB.jpg","null","",NA,NA,NA,NA,""
"image-keyboard-response",478,514381,"0.0-3.155-2.155","2cwn30vh7gl4n44",856,"177.csv","","null","resources/images/coin2.png","null","",NA,NA,NA,NA,""
"image-keyboard-response",479,514573,"0.0-3.156-0.156","2cwn30vh7gl4n44",856,"177.csv","","189.10000002384186","resources/trios/L1T2A2.jpg","37","restless",0.5,0.5,0.4,0.304572727165977,"true"
"image-keyboard-response",480,514978,"0.0-3.156-1.156","2cwn30vh7gl4n44",856,"177.csv","","null","resources/maskTrios/L1BB.jpg","null","",NA,NA,NA,NA,""
"image-keyboard-response",481,516181,"0.0-3.156-2.156","2cwn30vh7gl4n44",856,"177.csv","","null","resources/images/coin2.png","null","",NA,NA,NA,NA,""
"image-keyboard-response",482,516263,"0.0-3.157-0.157","2cwn30vh7gl4n44",856,"177.csv","","79.19999998807907","resources/trios/L2T2A2.jpg","37","restless",0.4,0.5,0.4,0.0648851148247869,"true"
"image-keyboard-response",483,516666,"0.0-3.157-1.157","2cwn30vh7gl4n44",856,"177.csv","","null","resources/maskTrios/L2BB.jpg","null","",NA,NA,NA,NA,""
"image-keyboard-response",484,517872,"0.0-3.157-2.157","2cwn30vh7gl4n44",856,"177.csv","","null","resources/images/coin2.png","null","",NA,NA,NA,NA,""
"image-keyboard-response",485,518056,"0.0-3.158-0.158","2cwn30vh7gl4n44",856,"177.csv","","181.89999997615814","resources/trios/L1T1A2.jpg","37","restless",0.4,0.5,0.4,0.396635551352041,"true"
"image-keyboard-response",486,518459,"0.0-3.158-1.158","2cwn30vh7gl4n44",856,"177.csv","","null","resources/maskTrios/L1BB.jpg","null","",NA,NA,NA,NA,""
"image-keyboard-response",487,519664,"0.0-3.158-2.158","2cwn30vh7gl4n44",856,"177.csv","","null","resources/images/coin2.png","null","",NA,NA,NA,NA,""
"image-keyboard-response",488,519685,"0.0-3.159-0.159","2cwn30vh7gl4n44",856,"177.csv","","20.30000001192093","resources/trios/L2T2A1.jpg","39","restless",0.5,0.5,0.4,0.110772230358595,"true"
"image-keyboard-response",489,520087,"0.0-3.159-1.159","2cwn30vh7gl4n44",856,"177.csv","","null","resources/maskTrios/BBA1.jpg","null","",NA,NA,NA,NA,""
"image-keyboard-response",490,521290,"0.0-3.159-2.159","2cwn30vh7gl4n44",856,"177.csv","","null","resources/images/coin2.png","null","",NA,NA,NA,NA,""
"image-keyboard-response",491,521473,"0.0-3.160-0.160","2cwn30vh7gl4n44",856,"177.csv","","181.19999998807907","resources/trios/L1T2A2.jpg","39","restless",0.5,0.5,0.4,0.0953820995825323,"true"
"image-keyboard-response",492,521876,"0.0-3.160-1.160","2cwn30vh7gl4n44",856,"177.csv","","null","resources/maskTrios/BBA2.jpg","null","",NA,NA,NA,NA,""
"image-keyboard-response",493,523082,"0.0-3.160-2.160","2cwn30vh7gl4n44",856,"177.csv","","null","resources/images/coin2.png","null","",NA,NA,NA,NA,""
"image-keyboard-response",494,523125,"0.0-3.161-0.161","2cwn30vh7gl4n44",856,"177.csv","","41.60000002384186","resources/trios/L2T2A2.jpg","39","restless",0.5,0.5,0.4,0.532096275751204,"false"
"image-keyboard-response",495,523530,"0.0-3.161-1.161","2cwn30vh7gl4n44",856,"177.csv","","null","resources/maskTrios/BBA2.jpg","null","",NA,NA,NA,NA,""
"image-keyboard-response",496,524736,"0.0-3.161-2.161","2cwn30vh7gl4n44",856,"177.csv","","null","resources/images/fishbone.png","null","",NA,NA,NA,NA,""
"image-keyboard-response",497,524780,"0.0-3.162-0.162","2cwn30vh7gl4n44",856,"177.csv","","42.69999998807907","resources/trios/L2T1A2.jpg","39","restless",0.5,0.5,0.4,0.993331640320268,"false"
"image-keyboard-response",498,525182,"0.0-3.162-1.162","2cwn30vh7gl4n44",856,"177.csv","","null","resources/maskTrios/BBA2.jpg","null","",NA,NA,NA,NA,""
"image-keyboard-response",499,526385,"0.0-3.162-2.162","2cwn30vh7gl4n44",856,"177.csv","","null","resources/images/fishbone.png","null","",NA,NA,NA,NA,""
"image-keyboard-response",500,526562,"0.0-3.163-0.163","2cwn30vh7gl4n44",856,"177.csv","","175.80000001192093","resources/trios/L1T1A2.jpg","39","restless",0.6,0.5,0.4,0.0397028608257257,"true"
"image-keyboard-response",501,526967,"0.0-3.163-1.163","2cwn30vh7gl4n44",856,"177.csv","","null","resources/maskTrios/BBA2.jpg","null","",NA,NA,NA,NA,""
"image-keyboard-response",502,528170,"0.0-3.163-2.163","2cwn30vh7gl4n44",856,"177.csv","","null","resources/images/coin2.png","null","",NA,NA,NA,NA,""
"image-keyboard-response",503,528325,"0.0-3.164-0.164","2cwn30vh7gl4n44",856,"177.csv","","154.39999997615814","resources/trios/L1T2A2.jpg","39","restless",0.6,0.4,0.4,0.533679072934003,"false"
"image-keyboard-response",504,528728,"0.0-3.164-1.164","2cwn30vh7gl4n44",856,"177.csv","","null","resources/maskTrios/BBA2.jpg","null","",NA,NA,NA,NA,""
"image-keyboard-response",505,529933,"0.0-3.164-2.164","2cwn30vh7gl4n44",856,"177.csv","","null","resources/images/fishbone.png","null","",NA,NA,NA,NA,""
"image-keyboard-response",506,529970,"0.0-3.165-0.165","2cwn30vh7gl4n44",856,"177.csv","","35.69999998807907","resources/trios/L1T2A2.jpg","39","restless",0.6,0.5,0.4,0.405893322966511,"false"
"image-keyboard-response",507,530372,"0.0-3.165-1.165","2cwn30vh7gl4n44",856,"177.csv","","null","resources/maskTrios/BBA2.jpg","null","",NA,NA,NA,NA,""
"image-keyboard-response",508,531575,"0.0-3.165-2.165","2cwn30vh7gl4n44",856,"177.csv","","null","resources/images/fishbone.png","null","",NA,NA,NA,NA,""
"image-keyboard-response",509,531576,"0.0-3.166-0.166","2cwn30vh7gl4n44",856,"177.csv","","0","resources/trios/L2T1A1.jpg","37","restless",0.6,0.5,0.4,0.766343991827283,"false"
"image-keyboard-response",510,531981,"0.0-3.166-1.166","2cwn30vh7gl4n44",856,"177.csv","","null","resources/maskTrios/L2BB.jpg","null","",NA,NA,NA,NA,""
"image-keyboard-response",511,533184,"0.0-3.166-2.166","2cwn30vh7gl4n44",856,"177.csv","","null","resources/images/fishbone.png","null","",NA,NA,NA,NA,""
"image-keyboard-response",512,533193,"0.0-3.167-0.167","2cwn30vh7gl4n44",856,"177.csv","","6.900000035762787","resources/trios/L1T1A1.jpg","37","restless",0.6,0.5,0.4,0.17490465380494,"true"
"image-keyboard-response",513,533599,"0.0-3.167-1.167","2cwn30vh7gl4n44",856,"177.csv","","null","resources/maskTrios/L1BB.jpg","null","",NA,NA,NA,NA,""
"image-keyboard-response",514,534805,"0.0-3.167-2.167","2cwn30vh7gl4n44",856,"177.csv","","null","resources/images/coin2.png","null","",NA,NA,NA,NA,""
"image-keyboard-response",515,535115,"0.0-3.168-0.168","2cwn30vh7gl4n44",856,"177.csv","","308.10000002384186","resources/trios/L2T1A2.jpg","37","restless",0.7,0.5,0.5,0.284948434858956,"true"
"image-keyboard-response",516,535519,"0.0-3.168-1.168","2cwn30vh7gl4n44",856,"177.csv","","null","resources/maskTrios/L2BB.jpg","null","",NA,NA,NA,NA,""
"image-keyboard-response",517,536721,"0.0-3.168-2.168","2cwn30vh7gl4n44",856,"177.csv","","null","resources/images/coin2.png","null","",NA,NA,NA,NA,""
"image-keyboard-response",518,537170,"0.0-3.169-0.169","2cwn30vh7gl4n44",856,"177.csv","","448.19999998807907","resources/trios/L1T1A1.jpg","37","restless",0.7,0.5,0.5,0.223603497554105,"true"
"image-keyboard-response",519,537573,"0.0-3.169-1.169","2cwn30vh7gl4n44",856,"177.csv","","null","resources/maskTrios/L1BB.jpg","null","",NA,NA,NA,NA,""
"image-keyboard-response",520,538778,"0.0-3.169-2.169","2cwn30vh7gl4n44",856,"177.csv","","null","resources/images/coin2.png","null","",NA,NA,NA,NA,""
"image-keyboard-response",521,538991,"0.0-3.170-0.170","2cwn30vh7gl4n44",856,"177.csv","","211.0999999642372","resources/trios/L2T2A1.jpg","37","restless",0.7,0.5,0.5,0.0472492688883572,"true"
"image-keyboard-response",522,539397,"0.0-3.170-1.170","2cwn30vh7gl4n44",856,"177.csv","","null","resources/maskTrios/L2BB.jpg","null","",NA,NA,NA,NA,""
"image-keyboard-response",523,540600,"0.0-3.170-2.170","2cwn30vh7gl4n44",856,"177.csv","","null","resources/images/coin2.png","null","",NA,NA,NA,NA,""
"image-keyboard-response",524,540700,"0.0-3.171-0.171","2cwn30vh7gl4n44",856,"177.csv","","98.10000002384186","resources/trios/L1T1A2.jpg","37","restless",0.7,0.5,0.5,0.260745537552897,"true"
"image-keyboard-response",525,541104,"0.0-3.171-1.171","2cwn30vh7gl4n44",856,"177.csv","","null","resources/maskTrios/L1BB.jpg","null","",NA,NA,NA,NA,""
"image-keyboard-response",526,542310,"0.0-3.171-2.171","2cwn30vh7gl4n44",856,"177.csv","","null","resources/images/coin2.png","null","",NA,NA,NA,NA,""
"image-keyboard-response",527,542461,"0.0-3.172-0.172","2cwn30vh7gl4n44",856,"177.csv","","149.80000001192093","resources/trios/L2T1A1.jpg","37","restless",0.7,0.5,0.5,0.956321631776149,"false"
"image-keyboard-response",528,542866,"0.0-3.172-1.172","2cwn30vh7gl4n44",856,"177.csv","","null","resources/maskTrios/L2BB.jpg","null","",NA,NA,NA,NA,""
"image-keyboard-response",529,544071,"0.0-3.172-2.172","2cwn30vh7gl4n44",856,"177.csv","","null","resources/images/fishbone.png","null","",NA,NA,NA,NA,""
"image-keyboard-response",530,544203,"0.0-3.173-0.173","2cwn30vh7gl4n44",856,"177.csv","","129.20000004768372","resources/trios/L1T2A1.jpg","37","restless",0.7,0.5,0.5,0.302038737816062,"true"
"image-keyboard-response",531,544604,"0.0-3.173-1.173","2cwn30vh7gl4n44",856,"177.csv","","null","resources/maskTrios/L1BB.jpg","null","",NA,NA,NA,NA,""
"image-keyboard-response",532,545806,"0.0-3.173-2.173","2cwn30vh7gl4n44",856,"177.csv","","null","resources/images/coin2.png","null","",NA,NA,NA,NA,""
"image-keyboard-response",533,545996,"0.0-3.174-0.174","2cwn30vh7gl4n44",856,"177.csv","","188.60000002384186","resources/trios/L1T2A2.jpg","37","restless",0.7,0.5,0.5,0.545368528753268,"true"
"image-keyboard-response",534,546402,"0.0-3.174-1.174","2cwn30vh7gl4n44",856,"177.csv","","null","resources/maskTrios/L1BB.jpg","null","",NA,NA,NA,NA,""
"image-keyboard-response",535,547605,"0.0-3.174-2.174","2cwn30vh7gl4n44",856,"177.csv","","null","resources/images/coin2.png","null","",NA,NA,NA,NA,""
"image-keyboard-response",536,547962,"0.0-3.175-0.175","2cwn30vh7gl4n44",856,"177.csv","","355.19999998807907","resources/trios/L2T1A1.jpg","38","restless",0.7,0.5,0.5,0.123843608646286,"true"
"image-keyboard-response",537,548364,"0.0-3.175-1.175","2cwn30vh7gl4n44",856,"177.csv","","null","resources/maskTrios/BT1B.jpg","null","",NA,NA,NA,NA,""
"image-keyboard-response",538,549570,"0.0-3.175-2.175","2cwn30vh7gl4n44",856,"177.csv","","null","resources/images/coin2.png","null","",NA,NA,NA,NA,""
"image-keyboard-response",539,549634,"0.0-3.176-0.176","2cwn30vh7gl4n44",856,"177.csv","","62.89999997615814","resources/trios/L1T2A2.jpg","38","restless",0.7,0.6,0.5,0.311688459423498,"true"
"image-keyboard-response",540,550036,"0.0-3.176-1.176","2cwn30vh7gl4n44",856,"177.csv","","null","resources/maskTrios/BT2B.jpg","null","",NA,NA,NA,NA,""
"image-keyboard-response",541,551242,"0.0-3.176-2.176","2cwn30vh7gl4n44",856,"177.csv","","null","resources/images/coin2.png","null","",NA,NA,NA,NA,""
"image-keyboard-response",542,551289,"0.0-3.177-0.177","2cwn30vh7gl4n44",856,"177.csv","","45.59999996423721","resources/trios/L2T1A1.jpg","38","restless",0.7,0.6,0.5,0.732725027337149,"false"
"image-keyboard-response",543,551692,"0.0-3.177-1.177","2cwn30vh7gl4n44",856,"177.csv","","null","resources/maskTrios/BT1B.jpg","null","",NA,NA,NA,NA,""
"image-keyboard-response",544,552895,"0.0-3.177-2.177","2cwn30vh7gl4n44",856,"177.csv","","null","resources/images/fishbone.png","null","",NA,NA,NA,NA,""
"image-keyboard-response",545,552984,"0.0-3.178-0.178","2cwn30vh7gl4n44",856,"177.csv","","86.60000002384186","resources/trios/L1T1A1.jpg","37","restless",0.7,0.6,0.5,0.667640265799826,"true"
"image-keyboard-response",546,553386,"0.0-3.178-1.178","2cwn30vh7gl4n44",856,"177.csv","","null","resources/maskTrios/L1BB.jpg","null","",NA,NA,NA,NA,""
"image-keyboard-response",547,554588,"0.0-3.178-2.178","2cwn30vh7gl4n44",856,"177.csv","","null","resources/images/coin2.png","null","",NA,NA,NA,NA,""
"image-keyboard-response",548,554759,"0.0-3.179-0.179","2cwn30vh7gl4n44",856,"177.csv","","169.19999998807907","resources/trios/L1T1A1.jpg","37","restless",0.7,0.6,0.5,0.245275489925339,"true"
"image-keyboard-response",549,555163,"0.0-3.179-1.179","2cwn30vh7gl4n44",856,"177.csv","","null","resources/maskTrios/L1BB.jpg","null","",NA,NA,NA,NA,""
"image-keyboard-response",550,556370,"0.0-3.179-2.179","2cwn30vh7gl4n44",856,"177.csv","","null","resources/images/coin2.png","null","",NA,NA,NA,NA,""
"image-keyboard-response",551,556595,"0.0-3.180-0.180","2cwn30vh7gl4n44",856,"177.csv","","223.80000001192093","resources/trios/L2T2A1.jpg","39","restless",0.6,0.5,0.5,0.299926773090182,"true"
"image-keyboard-response",552,557000,"0.0-3.180-1.180","2cwn30vh7gl4n44",856,"177.csv","","null","resources/maskTrios/BBA1.jpg","null","",NA,NA,NA,NA,""
"image-keyboard-response",553,558204,"0.0-3.180-2.180","2cwn30vh7gl4n44",856,"177.csv","","null","resources/images/coin2.png","null","",NA,NA,NA,NA,""
"image-keyboard-response",554,558233,"0.0-3.181-0.181","2cwn30vh7gl4n44",856,"177.csv","","26.80000001192093","resources/trios/L1T1A1.jpg","39","restless",0.6,0.5,0.6,0.33314507195017,"true"
"image-keyboard-response",555,558638,"0.0-3.181-1.181","2cwn30vh7gl4n44",856,"177.csv","","null","resources/maskTrios/BBA1.jpg","null","",NA,NA,NA,NA,""
"image-keyboard-response",556,559841,"0.0-3.181-2.181","2cwn30vh7gl4n44",856,"177.csv","","null","resources/images/coin2.png","null","",NA,NA,NA,NA,""
"image-keyboard-response",557,559979,"0.0-3.182-0.182","2cwn30vh7gl4n44",856,"177.csv","","135.89999997615814","resources/trios/L2T2A1.jpg","37","restless",0.6,0.5,0.7,0.656142395809157,"false"
"image-keyboard-response",558,560383,"0.0-3.182-1.182","2cwn30vh7gl4n44",856,"177.csv","","null","resources/maskTrios/L2BB.jpg","null","",NA,NA,NA,NA,""
"image-keyboard-response",559,561588,"0.0-3.182-2.182","2cwn30vh7gl4n44",856,"177.csv","","null","resources/images/fishbone.png","null","",NA,NA,NA,NA,""
"image-keyboard-response",560,561666,"0.0-3.183-0.183","2cwn30vh7gl4n44",856,"177.csv","","76.90000003576279","resources/trios/L2T2A1.jpg","37","restless",0.6,0.5,0.7,0.254323167332077,"true"
"image-keyboard-response",561,562068,"0.0-3.183-1.183","2cwn30vh7gl4n44",856,"177.csv","","null","resources/maskTrios/L2BB.jpg","null","",NA,NA,NA,NA,""
"image-keyboard-response",562,563273,"0.0-3.183-2.183","2cwn30vh7gl4n44",856,"177.csv","","null","resources/images/coin2.png","null","",NA,NA,NA,NA,""
"image-keyboard-response",563,563397,"0.0-3.184-0.184","2cwn30vh7gl4n44",856,"177.csv","","121.40000003576279","resources/trios/L1T2A2.jpg","37","restless",0.6,0.5,0.7,0.0680730656870943,"true"
"image-keyboard-response",564,563802,"0.0-3.184-1.184","2cwn30vh7gl4n44",856,"177.csv","","null","resources/maskTrios/L1BB.jpg","null","",NA,NA,NA,NA,""
"image-keyboard-response",565,565005,"0.0-3.184-2.184","2cwn30vh7gl4n44",856,"177.csv","","null","resources/images/coin2.png","null","",NA,NA,NA,NA,""
"image-keyboard-response",566,565157,"0.0-3.185-0.185","2cwn30vh7gl4n44",856,"177.csv","","149.5","resources/trios/L1T1A2.jpg","37","restless",0.6,0.5,0.7,0.836837000164344,"false"
"image-keyboard-response",567,565559,"0.0-3.185-1.185","2cwn30vh7gl4n44",856,"177.csv","","null","resources/maskTrios/L1BB.jpg","null","",NA,NA,NA,NA,""
"image-keyboard-response",568,566764,"0.0-3.185-2.185","2cwn30vh7gl4n44",856,"177.csv","","null","resources/images/fishbone.png","null","",NA,NA,NA,NA,""
"image-keyboard-response",569,566894,"0.0-3.186-0.186","2cwn30vh7gl4n44",856,"177.csv","","127.70000004768372","resources/trios/L1T2A1.jpg","38","restless",0.6,0.5,0.7,0.868940975975118,"false"
"image-keyboard-response",570,567298,"0.0-3.186-1.186","2cwn30vh7gl4n44",856,"177.csv","","null","resources/maskTrios/BT2B.jpg","null","",NA,NA,NA,NA,""
"image-keyboard-response",571,568499,"0.0-3.186-2.186","2cwn30vh7gl4n44",856,"177.csv","","null","resources/images/fishbone.png","null","",NA,NA,NA,NA,""
"image-keyboard-response",572,568632,"0.0-3.187-0.187","2cwn30vh7gl4n44",856,"177.csv","","130.69999998807907","resources/trios/L1T1A2.jpg","38","restless",0.6,0.5,0.6,0.110217397023354,"true"
"image-keyboard-response",573,569033,"0.0-3.187-1.187","2cwn30vh7gl4n44",856,"177.csv","","null","resources/maskTrios/BT1B.jpg","null","",NA,NA,NA,NA,""
"image-keyboard-response",574,570238,"0.0-3.187-2.187","2cwn30vh7gl4n44",856,"177.csv","","null","resources/images/coin2.png","null","",NA,NA,NA,NA,""
"image-keyboard-response",575,570430,"0.0-3.188-0.188","2cwn30vh7gl4n44",856,"177.csv","","190.29999995231628","resources/trios/L2T2A2.jpg","38","restless",0.6,0.5,0.6,0.503901969669249,"false"
"image-keyboard-response",576,570837,"0.0-3.188-1.188","2cwn30vh7gl4n44",856,"177.csv","","null","resources/maskTrios/BT2B.jpg","null","",NA,NA,NA,NA,""
"image-keyboard-response",577,572043,"0.0-3.188-2.188","2cwn30vh7gl4n44",856,"177.csv","","null","resources/images/fishbone.png","null","",NA,NA,NA,NA,""
"image-keyboard-response",578,572134,"0.0-3.189-0.189","2cwn30vh7gl4n44",856,"177.csv","","89","resources/trios/L1T1A1.jpg","39","restless",0.6,0.5,0.6,0.535072743330724,"true"
"image-keyboard-response",579,572540,"0.0-3.189-1.189","2cwn30vh7gl4n44",856,"177.csv","","null","resources/maskTrios/BBA1.jpg","null","",NA,NA,NA,NA,""
"image-keyboard-response",580,573746,"0.0-3.189-2.189","2cwn30vh7gl4n44",856,"177.csv","","null","resources/images/coin2.png","null","",NA,NA,NA,NA,""
"image-keyboard-response",581,574696,"0.0-3.190-0.190","2cwn30vh7gl4n44",856,"177.csv","","947.8999999761581","resources/trios/L1T2A1.jpg","39","restless",0.6,0.6,0.6,0.456273413524384,"true"
"image-keyboard-response",582,575097,"0.0-3.190-1.190","2cwn30vh7gl4n44",856,"177.csv","","null","resources/maskTrios/BBA1.jpg","null","",NA,NA,NA,NA,""
"image-keyboard-response",583,576303,"0.0-3.190-2.190","2cwn30vh7gl4n44",856,"177.csv","","null","resources/images/coin2.png","null","",NA,NA,NA,NA,""
"image-keyboard-response",584,576394,"0.0-3.191-0.191","2cwn30vh7gl4n44",856,"177.csv","","89.60000002384186","resources/trios/L1T1A2.jpg","39","restless",0.6,0.6,0.6,0.177634246916449,"true"
"image-keyboard-response",585,576796,"0.0-3.191-1.191","2cwn30vh7gl4n44",856,"177.csv","","null","resources/maskTrios/BBA2.jpg","null","",NA,NA,NA,NA,""
"image-keyboard-response",586,578001,"0.0-3.191-2.191","2cwn30vh7gl4n44",856,"177.csv","","null","resources/images/coin2.png","null","",NA,NA,NA,NA,""
"image-keyboard-response",587,578074,"0.0-3.192-0.192","2cwn30vh7gl4n44",856,"177.csv","","70.90000003576279","resources/trios/L1T2A2.jpg","37","restless",0.6,0.6,0.6,0.54150446643386,"true"
"image-keyboard-response",588,578476,"0.0-3.192-1.192","2cwn30vh7gl4n44",856,"177.csv","","null","resources/maskTrios/L1BB.jpg","null","",NA,NA,NA,NA,""
"image-keyboard-response",589,579679,"0.0-3.192-2.192","2cwn30vh7gl4n44",856,"177.csv","","null","resources/images/coin2.png","null","",NA,NA,NA,NA,""
"image-keyboard-response",590,579848,"0.0-3.193-0.193","2cwn30vh7gl4n44",856,"177.csv","","166.69999998807907","resources/trios/L1T1A1.jpg","38","restless",0.6,0.6,0.6,0.0459616047988047,"true"
"image-keyboard-response",591,580250,"0.0-3.193-1.193","2cwn30vh7gl4n44",856,"177.csv","","null","resources/maskTrios/BT1B.jpg","null","",NA,NA,NA,NA,""
"image-keyboard-response",592,581457,"0.0-3.193-2.193","2cwn30vh7gl4n44",856,"177.csv","","null","resources/images/coin2.png","null","",NA,NA,NA,NA,""
"image-keyboard-response",593,581642,"0.0-3.194-0.194","2cwn30vh7gl4n44",856,"177.csv","","183.30000001192093","resources/trios/L1T1A2.jpg","37","restless",0.6,0.6,0.6,0.544292302402597,"true"
"image-keyboard-response",594,582048,"0.0-3.194-1.194","2cwn30vh7gl4n44",856,"177.csv","","null","resources/maskTrios/L1BB.jpg","null","",NA,NA,NA,NA,""
"image-keyboard-response",595,583253,"0.0-3.194-2.194","2cwn30vh7gl4n44",856,"177.csv","","null","resources/images/coin2.png","null","",NA,NA,NA,NA,""
"image-keyboard-response",596,583299,"0.0-3.195-0.195","2cwn30vh7gl4n44",856,"177.csv","","44.39999997615814","resources/trios/L2T2A2.jpg","38","restless",0.6,0.6,0.6,0.0182381912573941,"true"
"image-keyboard-response",597,583701,"0.0-3.195-1.195","2cwn30vh7gl4n44",856,"177.csv","","null","resources/maskTrios/BT2B.jpg","null","",NA,NA,NA,NA,""
"image-keyboard-response",598,584904,"0.0-3.195-2.195","2cwn30vh7gl4n44",856,"177.csv","","null","resources/images/coin2.png","null","",NA,NA,NA,NA,""
"image-keyboard-response",599,585124,"0.0-3.196-0.196","2cwn30vh7gl4n44",856,"177.csv","","218.30000001192093","resources/trios/L1T1A1.jpg","37","restless",0.6,0.6,0.6,0.162660632684278,"true"
"image-keyboard-response",600,585530,"0.0-3.196-1.196","2cwn30vh7gl4n44",856,"177.csv","","null","resources/maskTrios/L1BB.jpg","null","",NA,NA,NA,NA,""
"image-keyboard-response",601,586734,"0.0-3.196-2.196","2cwn30vh7gl4n44",856,"177.csv","","null","resources/images/coin2.png","null","",NA,NA,NA,NA,""
"image-keyboard-response",602,586749,"0.0-3.197-0.197","2cwn30vh7gl4n44",856,"177.csv","","12.900000035762787","resources/trios/L2T1A2.jpg","38","restless",0.6,0.6,0.6,0.586582234186283,"true"
"image-keyboard-response",603,587153,"0.0-3.197-1.197","2cwn30vh7gl4n44",856,"177.csv","","null","resources/maskTrios/BT1B.jpg","null","",NA,NA,NA,NA,""
"image-keyboard-response",604,588361,"0.0-3.197-2.197","2cwn30vh7gl4n44",856,"177.csv","","null","resources/images/coin2.png","null","",NA,NA,NA,NA,""
"image-keyboard-response",605,588548,"0.0-3.198-0.198","2cwn30vh7gl4n44",856,"177.csv","","184.19999998807907","resources/trios/L1T2A1.jpg","38","restless",0.5,0.6,0.6,0.657616257840034,"false"
