"trial_type","trial_index","time_elapsed","internal_node_id","subject","participantCode","walkNumber","success","rt","stimulus","key_press","test_part","leftProb","midProb","rightProb","generatedNum","correct"
"pavlovia",0,973,"0.0-0.0","harwcqff5uyjqee",611,"51.csv","","","","","",NA,NA,NA,NA,""
"fullscreen",1,5347,"0.0-1.0","harwcqff5uyjqee",611,"51.csv","true","","","","",NA,NA,NA,NA,""
"html-keyboard-response",2,103615,"0.0-2.0-0.0","harwcqff5uyjqee",611,"51.csv","","98266.60000002384","<p><font size='6'>Arrrgh!</p></font><p>Can you be the best pirate? Try to find lots of gold! But beware, some islands have more gold than others, and over time, the island with the most gold may change. Can YOU figure it out? </p><font size='6'>GOOD LUCK, CAPTAIN!!!</font><p>Press any key to begin</p>","32","",NA,NA,NA,NA,""
"image-keyboard-response",3,106627,"0.0-2.0-1.0","harwcqff5uyjqee",611,"51.csv","","null","resources/image_sets/111.png","null","",NA,NA,NA,NA,""
"image-keyboard-response",4,111395,"0.0-2.0-2.0","harwcqff5uyjqee",611,"51.csv","","4766.200000047684","resources/image_sets/left_highlight.png","37","",NA,NA,NA,NA,""
"image-keyboard-response",5,113660,"0.0-2.0-3.0","harwcqff5uyjqee",611,"51.csv","","2263.6999999284744","resources/image_sets/mid_highlight.png","38","",NA,NA,NA,NA,""
"image-keyboard-response",6,114793,"0.0-2.0-4.0","harwcqff5uyjqee",611,"51.csv","","1131.6999999284744","resources/image_sets/right_highlight.png","39","",NA,NA,NA,NA,""
"image-keyboard-response",7,120045,"0.0-2.0-5.0","harwcqff5uyjqee",611,"51.csv","","5250.800000071526","resources/image_sets/111.png","13","",NA,NA,NA,NA,""
"image-keyboard-response",8,122405,"0.0-2.0-6.0","harwcqff5uyjqee",611,"51.csv","","2359.1999999284744","resources/images/coin2.png","13","",NA,NA,NA,NA,""
"image-keyboard-response",9,123808,"0.0-2.0-7.0","harwcqff5uyjqee",611,"51.csv","","1402.8999999761581","resources/images/fishbone.png","13","",NA,NA,NA,NA,""
"html-keyboard-response",10,130245,"0.0-2.0-8.0","harwcqff5uyjqee",611,"51.csv","","6436","<p>Your first journey will be a long one, but you will get a well deserved break at the end</p><p>After the break you will have four more journeys, but each will be much shorter than the first, and you will have breaks in between each</p><p>Press Enter to begin</p>","13","",NA,NA,NA,NA,""
"image-keyboard-response",11,132270,"0.0-3.0-0.0","harwcqff5uyjqee",611,"51.csv","","2023.8999999761581","resources/trios/L1T1A1.jpg","38","restless",0.3,0.7,0.9,0.304563091702176,"true"
"image-keyboard-response",12,132693,"0.0-3.0-1.0","harwcqff5uyjqee",611,"51.csv","","null","resources/maskTrios/BT1B.jpg","null","",NA,NA,NA,NA,""
"image-keyboard-response",13,133907,"0.0-3.0-2.0","harwcqff5uyjqee",611,"51.csv","","null","resources/images/coin2.png","null","",NA,NA,NA,NA,""
"image-keyboard-response",14,137058,"0.0-3.1-0.1","harwcqff5uyjqee",611,"51.csv","","3150.3000000715256","resources/trios/L1T2A3.jpg","39","restless",0.3,0.7,0.9,0.174003541456798,"true"
"image-keyboard-response",15,137477,"0.0-3.1-1.1","harwcqff5uyjqee",611,"51.csv","","null","resources/maskTrios/BBA3.jpg","null","",NA,NA,NA,NA,""
"image-keyboard-response",16,138694,"0.0-3.1-2.1","harwcqff5uyjqee",611,"51.csv","","null","resources/images/coin2.png","null","",NA,NA,NA,NA,""
"image-keyboard-response",17,141863,"0.0-3.2-0.2","harwcqff5uyjqee",611,"51.csv","","3166.899999976158","resources/trios/L2T1A3.jpg","37","restless",0.3,0.7,0.9,0.125842901130188,"true"
"image-keyboard-response",18,142275,"0.0-3.2-1.2","harwcqff5uyjqee",611,"51.csv","","null","resources/maskTrios/L2BB.jpg","null","",NA,NA,NA,NA,""
"image-keyboard-response",19,143494,"0.0-3.2-2.2","harwcqff5uyjqee",611,"51.csv","","null","resources/images/coin2.png","null","",NA,NA,NA,NA,""
"image-keyboard-response",20,144659,"0.0-3.3-0.3","harwcqff5uyjqee",611,"51.csv","","1163.1999999284744","resources/trios/L1T2A3.jpg","38","restless",0.3,0.7,0.9,0.389242331973723,"true"
"image-keyboard-response",21,145071,"0.0-3.3-1.3","harwcqff5uyjqee",611,"51.csv","","null","resources/maskTrios/BT2B.jpg","null","",NA,NA,NA,NA,""
"image-keyboard-response",22,146292,"0.0-3.3-2.3","harwcqff5uyjqee",611,"51.csv","","null","resources/images/coin2.png","null","",NA,NA,NA,NA,""
"image-keyboard-response",23,148248,"0.0-3.4-0.4","harwcqff5uyjqee",611,"51.csv","","1953.6999999284744","resources/trios/L1T1A1.jpg","37","restless",0.3,0.7,0.9,0.648722845483148,"false"
"image-keyboard-response",24,148658,"0.0-3.4-1.4","harwcqff5uyjqee",611,"51.csv","","null","resources/maskTrios/L1BB.jpg","null","",NA,NA,NA,NA,""
"image-keyboard-response",25,149877,"0.0-3.4-2.4","harwcqff5uyjqee",611,"51.csv","","null","resources/images/fishbone.png","null","",NA,NA,NA,NA,""
"image-keyboard-response",26,150644,"0.0-3.5-0.5","harwcqff5uyjqee",611,"51.csv","","766.3000000715256","resources/trios/L1T1A3.jpg","38","restless",0.3,0.7,0.9,0.723744433255459,"false"
"image-keyboard-response",27,151061,"0.0-3.5-1.5","harwcqff5uyjqee",611,"51.csv","","null","resources/maskTrios/BT1B.jpg","null","",NA,NA,NA,NA,""
"image-keyboard-response",28,152266,"0.0-3.5-2.5","harwcqff5uyjqee",611,"51.csv","","null","resources/images/fishbone.png","null","",NA,NA,NA,NA,""
"image-keyboard-response",29,152660,"0.0-3.6-0.6","harwcqff5uyjqee",611,"51.csv","","392.89999997615814","resources/trios/L1T1A1.jpg","39","restless",0.3,0.7,0.9,0.871380938163624,"true"
"image-keyboard-response",30,153072,"0.0-3.6-1.6","harwcqff5uyjqee",611,"51.csv","","null","resources/maskTrios/BBA1.jpg","null","",NA,NA,NA,NA,""
"image-keyboard-response",31,154294,"0.0-3.6-2.6","harwcqff5uyjqee",611,"51.csv","","null","resources/images/coin2.png","null","",NA,NA,NA,NA,""
"image-keyboard-response",32,155929,"0.0-3.7-0.7","harwcqff5uyjqee",611,"51.csv","","1633.5","resources/trios/L1T2A1.jpg","38","restless",0.3,0.7,0.9,0.671249547655363,"true"
"image-keyboard-response",33,156348,"0.0-3.7-1.7","harwcqff5uyjqee",611,"51.csv","","null","resources/maskTrios/BT2B.jpg","null","",NA,NA,NA,NA,""
"image-keyboard-response",34,157567,"0.0-3.7-2.7","harwcqff5uyjqee",611,"51.csv","","null","resources/images/coin2.png","null","",NA,NA,NA,NA,""
"image-keyboard-response",35,158368,"0.0-3.8-0.8","harwcqff5uyjqee",611,"51.csv","","800","resources/trios/L2T1A3.jpg","37","restless",0.3,0.7,0.9,0.747146823577631,"false"
"image-keyboard-response",36,158784,"0.0-3.8-1.8","harwcqff5uyjqee",611,"51.csv","","null","resources/maskTrios/L2BB.jpg","null","",NA,NA,NA,NA,""
"image-keyboard-response",37,159996,"0.0-3.8-2.8","harwcqff5uyjqee",611,"51.csv","","null","resources/images/fishbone.png","null","",NA,NA,NA,NA,""
"image-keyboard-response",38,161056,"0.0-3.9-0.9","harwcqff5uyjqee",611,"51.csv","","1058.8999999761581","resources/trios/L2T2A3.jpg","39","restless",0.3,0.7,0.9,0.565479717704653,"true"
"image-keyboard-response",39,161473,"0.0-3.9-1.9","harwcqff5uyjqee",611,"51.csv","","null","resources/maskTrios/BBA3.jpg","null","",NA,NA,NA,NA,""
"image-keyboard-response",40,162688,"0.0-3.9-2.9","harwcqff5uyjqee",611,"51.csv","","null","resources/images/coin2.png","null","",NA,NA,NA,NA,""
"image-keyboard-response",41,163385,"0.0-3.10-0.10","harwcqff5uyjqee",611,"51.csv","","695.2000000476837","resources/trios/L2T2A1.jpg","38","restless",0.3,0.7,0.9,0.0638566212962208,"true"
"image-keyboard-response",42,163797,"0.0-3.10-1.10","harwcqff5uyjqee",611,"51.csv","","null","resources/maskTrios/BT2B.jpg","null","",NA,NA,NA,NA,""
"image-keyboard-response",43,165008,"0.0-3.10-2.10","harwcqff5uyjqee",611,"51.csv","","null","resources/images/coin2.png","null","",NA,NA,NA,NA,""
"image-keyboard-response",44,165844,"0.0-3.11-0.11","harwcqff5uyjqee",611,"51.csv","","834.4000000953674","resources/trios/L1T2A3.jpg","37","restless",0.3,0.7,0.9,0.603551691419209,"false"
"image-keyboard-response",45,166256,"0.0-3.11-1.11","harwcqff5uyjqee",611,"51.csv","","null","resources/maskTrios/L1BB.jpg","null","",NA,NA,NA,NA,""
"image-keyboard-response",46,167473,"0.0-3.11-2.11","harwcqff5uyjqee",611,"51.csv","","null","resources/images/fishbone.png","null","",NA,NA,NA,NA,""
"image-keyboard-response",47,167975,"0.0-3.12-0.12","harwcqff5uyjqee",611,"51.csv","","499.3000000715256","resources/trios/L2T2A1.jpg","38","restless",0.3,0.7,0.9,0.0375720472364618,"true"
"image-keyboard-response",48,168390,"0.0-3.12-1.12","harwcqff5uyjqee",611,"51.csv","","null","resources/maskTrios/BT2B.jpg","null","",NA,NA,NA,NA,""
"image-keyboard-response",49,169615,"0.0-3.12-2.12","harwcqff5uyjqee",611,"51.csv","","null","resources/images/coin2.png","null","",NA,NA,NA,NA,""
"image-keyboard-response",50,170068,"0.0-3.13-0.13","harwcqff5uyjqee",611,"51.csv","","450.5","resources/trios/L2T2A3.jpg","39","restless",0.2,0.7,0.9,0.768713872702187,"true"
"image-keyboard-response",51,170481,"0.0-3.13-1.13","harwcqff5uyjqee",611,"51.csv","","null","resources/maskTrios/BBA3.jpg","null","",NA,NA,NA,NA,""
"image-keyboard-response",52,171692,"0.0-3.13-2.13","harwcqff5uyjqee",611,"51.csv","","null","resources/images/coin2.png","null","",NA,NA,NA,NA,""
"image-keyboard-response",53,172172,"0.0-3.14-0.14","harwcqff5uyjqee",611,"51.csv","","479","resources/trios/L2T2A3.jpg","38","restless",0.2,0.7,0.9,0.137357528205431,"true"
"image-keyboard-response",54,172580,"0.0-3.14-1.14","harwcqff5uyjqee",611,"51.csv","","null","resources/maskTrios/BT2B.jpg","null","",NA,NA,NA,NA,""
"image-keyboard-response",55,173790,"0.0-3.14-2.14","harwcqff5uyjqee",611,"51.csv","","null","resources/images/coin2.png","null","",NA,NA,NA,NA,""
"image-keyboard-response",56,174300,"0.0-3.15-0.15","harwcqff5uyjqee",611,"51.csv","","509.39999997615814","resources/trios/L1T2A1.jpg","39","restless",0.2,0.7,0.9,0.617822478717094,"true"
"image-keyboard-response",57,174705,"0.0-3.15-1.15","harwcqff5uyjqee",611,"51.csv","","null","resources/maskTrios/BBA1.jpg","null","",NA,NA,NA,NA,""
"image-keyboard-response",58,175927,"0.0-3.15-2.15","harwcqff5uyjqee",611,"51.csv","","null","resources/images/coin2.png","null","",NA,NA,NA,NA,""
"image-keyboard-response",59,176907,"0.0-3.16-0.16","harwcqff5uyjqee",611,"51.csv","","978.6000000238419","resources/trios/L2T1A3.jpg","38","restless",0.2,0.7,0.9,0.147653627774165,"true"
"image-keyboard-response",60,177324,"0.0-3.16-1.16","harwcqff5uyjqee",611,"51.csv","","null","resources/maskTrios/BT1B.jpg","null","",NA,NA,NA,NA,""
"image-keyboard-response",61,178542,"0.0-3.16-2.16","harwcqff5uyjqee",611,"51.csv","","null","resources/images/coin2.png","null","",NA,NA,NA,NA,""
"image-keyboard-response",62,179045,"0.0-3.17-0.17","harwcqff5uyjqee",611,"51.csv","","501.5","resources/trios/L2T1A3.jpg","39","restless",0.2,0.7,0.9,0.895340569501671,"true"
"image-keyboard-response",63,179461,"0.0-3.17-1.17","harwcqff5uyjqee",611,"51.csv","","null","resources/maskTrios/BBA3.jpg","null","",NA,NA,NA,NA,""
"image-keyboard-response",64,180676,"0.0-3.17-2.17","harwcqff5uyjqee",611,"51.csv","","null","resources/images/coin2.png","null","",NA,NA,NA,NA,""
"image-keyboard-response",65,181780,"0.0-3.18-0.18","harwcqff5uyjqee",611,"51.csv","","1102.8999999761581","resources/trios/L1T1A1.jpg","38","restless",0.2,0.8,0.9,0.407522548034076,"true"
"image-keyboard-response",66,182194,"0.0-3.18-1.18","harwcqff5uyjqee",611,"51.csv","","null","resources/maskTrios/BT1B.jpg","null","",NA,NA,NA,NA,""
"image-keyboard-response",67,183416,"0.0-3.18-2.18","harwcqff5uyjqee",611,"51.csv","","null","resources/images/coin2.png","null","",NA,NA,NA,NA,""
"image-keyboard-response",68,183880,"0.0-3.19-0.19","harwcqff5uyjqee",611,"51.csv","","463.10000002384186","resources/trios/L2T2A1.jpg","39","restless",0.2,0.8,0.9,0.259876077078772,"true"
"image-keyboard-response",69,184292,"0.0-3.19-1.19","harwcqff5uyjqee",611,"51.csv","","null","resources/maskTrios/BBA1.jpg","null","",NA,NA,NA,NA,""
"image-keyboard-response",70,185497,"0.0-3.19-2.19","harwcqff5uyjqee",611,"51.csv","","null","resources/images/coin2.png","null","",NA,NA,NA,NA,""
"image-keyboard-response",71,186785,"0.0-3.20-0.20","harwcqff5uyjqee",611,"51.csv","","1286.0999999046326","resources/trios/L1T2A3.jpg","39","restless",0.2,0.8,0.9,0.829460911095668,"true"
"image-keyboard-response",72,187207,"0.0-3.20-1.20","harwcqff5uyjqee",611,"51.csv","","null","resources/maskTrios/BBA3.jpg","null","",NA,NA,NA,NA,""
"image-keyboard-response",73,188421,"0.0-3.20-2.20","harwcqff5uyjqee",611,"51.csv","","null","resources/images/coin2.png","null","",NA,NA,NA,NA,""
"image-keyboard-response",74,189064,"0.0-3.21-0.21","harwcqff5uyjqee",611,"51.csv","","642.0999999046326","resources/trios/L1T1A3.jpg","38","restless",0.2,0.8,0.9,0.489076483162475,"true"
"image-keyboard-response",75,189482,"0.0-3.21-1.21","harwcqff5uyjqee",611,"51.csv","","null","resources/maskTrios/BT1B.jpg","null","",NA,NA,NA,NA,""
"image-keyboard-response",76,190700,"0.0-3.21-2.21","harwcqff5uyjqee",611,"51.csv","","null","resources/images/coin2.png","null","",NA,NA,NA,NA,""
"image-keyboard-response",77,191854,"0.0-3.22-0.22","harwcqff5uyjqee",611,"51.csv","","1152.6000000238419","resources/trios/L1T1A1.jpg","38","restless",0.2,0.8,0.9,0.452478577332263,"true"
"image-keyboard-response",78,192270,"0.0-3.22-1.22","harwcqff5uyjqee",611,"51.csv","","null","resources/maskTrios/BT1B.jpg","null","",NA,NA,NA,NA,""
"image-keyboard-response",79,193486,"0.0-3.22-2.22","harwcqff5uyjqee",611,"51.csv","","null","resources/images/coin2.png","null","",NA,NA,NA,NA,""
"image-keyboard-response",80,194269,"0.0-3.23-0.23","harwcqff5uyjqee",611,"51.csv","","782.2000000476837","resources/trios/L1T1A1.jpg","39","restless",0.2,0.8,0.9,0.599014713308359,"true"
"image-keyboard-response",81,194676,"0.0-3.23-1.23","harwcqff5uyjqee",611,"51.csv","","null","resources/maskTrios/BBA1.jpg","null","",NA,NA,NA,NA,""
"image-keyboard-response",82,195885,"0.0-3.23-2.23","harwcqff5uyjqee",611,"51.csv","","null","resources/images/coin2.png","null","",NA,NA,NA,NA,""
"image-keyboard-response",83,196511,"0.0-3.24-0.24","harwcqff5uyjqee",611,"51.csv","","625.1000000238419","resources/trios/L2T1A1.jpg","38","restless",0.3,0.8,0.8,0.664414856394163,"true"
"image-keyboard-response",84,196927,"0.0-3.24-1.24","harwcqff5uyjqee",611,"51.csv","","null","resources/maskTrios/BT1B.jpg","null","",NA,NA,NA,NA,""
"image-keyboard-response",85,198147,"0.0-3.24-2.24","harwcqff5uyjqee",611,"51.csv","","null","resources/images/coin2.png","null","",NA,NA,NA,NA,""
"image-keyboard-response",86,198991,"0.0-3.25-0.25","harwcqff5uyjqee",611,"51.csv","","841.7999999523163","resources/trios/L1T2A3.jpg","39","restless",0.3,0.8,0.7,0.18847722959845,"true"
"image-keyboard-response",87,199401,"0.0-3.25-1.25","harwcqff5uyjqee",611,"51.csv","","null","resources/maskTrios/BBA3.jpg","null","",NA,NA,NA,NA,""
"image-keyboard-response",88,200617,"0.0-3.25-2.25","harwcqff5uyjqee",611,"51.csv","","null","resources/images/coin2.png","null","",NA,NA,NA,NA,""
"image-keyboard-response",89,201102,"0.0-3.26-0.26","harwcqff5uyjqee",611,"51.csv","","484.2000000476837","resources/trios/L1T1A1.jpg","38","restless",0.3,0.9,0.7,0.207973891361367,"true"
"image-keyboard-response",90,201518,"0.0-3.26-1.26","harwcqff5uyjqee",611,"51.csv","","null","resources/maskTrios/BT1B.jpg","null","",NA,NA,NA,NA,""
"image-keyboard-response",91,202723,"0.0-3.26-2.26","harwcqff5uyjqee",611,"51.csv","","null","resources/images/coin2.png","null","",NA,NA,NA,NA,""
"image-keyboard-response",92,203043,"0.0-3.27-0.27","harwcqff5uyjqee",611,"51.csv","","317.89999997615814","resources/trios/L1T2A3.jpg","39","restless",0.3,0.9,0.7,0.857229583735125,"false"
"image-keyboard-response",93,203449,"0.0-3.27-1.27","harwcqff5uyjqee",611,"51.csv","","null","resources/maskTrios/BBA3.jpg","null","",NA,NA,NA,NA,""
"image-keyboard-response",94,204671,"0.0-3.27-2.27","harwcqff5uyjqee",611,"51.csv","","null","resources/images/fishbone.png","null","",NA,NA,NA,NA,""
"image-keyboard-response",95,205439,"0.0-3.28-0.28","harwcqff5uyjqee",611,"51.csv","","765.8999999761581","resources/trios/L2T1A1.jpg","38","restless",0.3,0.9,0.7,0.378822008650458,"true"
"image-keyboard-response",96,205852,"0.0-3.28-1.28","harwcqff5uyjqee",611,"51.csv","","null","resources/maskTrios/BT1B.jpg","null","",NA,NA,NA,NA,""
"image-keyboard-response",97,207055,"0.0-3.28-2.28","harwcqff5uyjqee",611,"51.csv","","null","resources/images/coin2.png","null","",NA,NA,NA,NA,""
"image-keyboard-response",98,208135,"0.0-3.29-0.29","harwcqff5uyjqee",611,"51.csv","","1079","resources/trios/L1T2A1.jpg","37","restless",0.3,0.9,0.7,0.26001143924948,"true"
"image-keyboard-response",99,208551,"0.0-3.29-1.29","harwcqff5uyjqee",611,"51.csv","","null","resources/maskTrios/L1BB.jpg","null","",NA,NA,NA,NA,""
"image-keyboard-response",100,209763,"0.0-3.29-2.29","harwcqff5uyjqee",611,"51.csv","","null","resources/images/coin2.png","null","",NA,NA,NA,NA,""
"image-keyboard-response",101,210500,"0.0-3.30-0.30","harwcqff5uyjqee",611,"51.csv","","734.8000000715256","resources/trios/L2T1A3.jpg","39","restless",0.3,0.9,0.7,0.681296015463874,"true"
"image-keyboard-response",102,210915,"0.0-3.30-1.30","harwcqff5uyjqee",611,"51.csv","","null","resources/maskTrios/BBA3.jpg","null","",NA,NA,NA,NA,""
"image-keyboard-response",103,212120,"0.0-3.30-2.30","harwcqff5uyjqee",611,"51.csv","","null","resources/images/coin2.png","null","",NA,NA,NA,NA,""
"image-keyboard-response",104,213040,"0.0-3.31-0.31","harwcqff5uyjqee",611,"51.csv","","918.3000000715256","resources/trios/L2T1A3.jpg","39","restless",0.4,0.9,0.6,0.937140051787305,"false"
"image-keyboard-response",105,213455,"0.0-3.31-1.31","harwcqff5uyjqee",611,"51.csv","","null","resources/maskTrios/BBA3.jpg","null","",NA,NA,NA,NA,""
"image-keyboard-response",106,214664,"0.0-3.31-2.31","harwcqff5uyjqee",611,"51.csv","","null","resources/images/fishbone.png","null","",NA,NA,NA,NA,""
"image-keyboard-response",107,214950,"0.0-3.32-0.32","harwcqff5uyjqee",611,"51.csv","","284.2000000476837","resources/trios/L2T1A3.jpg","38","restless",0.4,0.9,0.6,0.654930426373928,"true"
"image-keyboard-response",108,215373,"0.0-3.32-1.32","harwcqff5uyjqee",611,"51.csv","","null","resources/maskTrios/BT1B.jpg","null","",NA,NA,NA,NA,""
"image-keyboard-response",109,216600,"0.0-3.32-2.32","harwcqff5uyjqee",611,"51.csv","","null","resources/images/coin2.png","null","",NA,NA,NA,NA,""
"image-keyboard-response",110,217308,"0.0-3.33-0.33","harwcqff5uyjqee",611,"51.csv","","706.3999999761581","resources/trios/L2T2A1.jpg","39","restless",0.4,0.9,0.6,0.387526683540215,"true"
"image-keyboard-response",111,217714,"0.0-3.33-1.33","harwcqff5uyjqee",611,"51.csv","","null","resources/maskTrios/BBA1.jpg","null","",NA,NA,NA,NA,""
"image-keyboard-response",112,218920,"0.0-3.33-2.33","harwcqff5uyjqee",611,"51.csv","","null","resources/images/coin2.png","null","",NA,NA,NA,NA,""
"image-keyboard-response",113,219382,"0.0-3.34-0.34","harwcqff5uyjqee",611,"51.csv","","460.2000000476837","resources/trios/L1T1A3.jpg","38","restless",0.5,0.9,0.6,0.49957482122799,"true"
"image-keyboard-response",114,219803,"0.0-3.34-1.34","harwcqff5uyjqee",611,"51.csv","","null","resources/maskTrios/BT1B.jpg","null","",NA,NA,NA,NA,""
"image-keyboard-response",115,221013,"0.0-3.34-2.34","harwcqff5uyjqee",611,"51.csv","","null","resources/images/coin2.png","null","",NA,NA,NA,NA,""
"image-keyboard-response",116,221450,"0.0-3.35-0.35","harwcqff5uyjqee",611,"51.csv","","435.7000000476837","resources/trios/L1T1A3.jpg","39","restless",0.5,0.9,0.6,0.193761357476148,"true"
"image-keyboard-response",117,221864,"0.0-3.35-1.35","harwcqff5uyjqee",611,"51.csv","","null","resources/maskTrios/BBA3.jpg","null","",NA,NA,NA,NA,""
"image-keyboard-response",118,223078,"0.0-3.35-2.35","harwcqff5uyjqee",611,"51.csv","","null","resources/images/coin2.png","null","",NA,NA,NA,NA,""
"image-keyboard-response",119,223625,"0.0-3.36-0.36","harwcqff5uyjqee",611,"51.csv","","545.2000000476837","resources/trios/L1T1A1.jpg","38","restless",0.5,0.9,0.6,0.363633519365229,"true"
"image-keyboard-response",120,224038,"0.0-3.36-1.36","harwcqff5uyjqee",611,"51.csv","","null","resources/maskTrios/BT1B.jpg","null","",NA,NA,NA,NA,""
"image-keyboard-response",121,225254,"0.0-3.36-2.36","harwcqff5uyjqee",611,"51.csv","","null","resources/images/coin2.png","null","",NA,NA,NA,NA,""
"image-keyboard-response",122,225700,"0.0-3.37-0.37","harwcqff5uyjqee",611,"51.csv","","444.60000002384186","resources/trios/L1T1A3.jpg","39","restless",0.5,0.9,0.6,0.677049249062354,"false"
"image-keyboard-response",123,226112,"0.0-3.37-1.37","harwcqff5uyjqee",611,"51.csv","","null","resources/maskTrios/BBA3.jpg","null","",NA,NA,NA,NA,""
"image-keyboard-response",124,227332,"0.0-3.37-2.37","harwcqff5uyjqee",611,"51.csv","","null","resources/images/fishbone.png","null","",NA,NA,NA,NA,""
"image-keyboard-response",125,227625,"0.0-3.38-0.38","harwcqff5uyjqee",611,"51.csv","","291.2000000476837","resources/trios/L1T2A3.jpg","37","restless",0.5,0.9,0.6,0.806367327799763,"false"
"image-keyboard-response",126,228034,"0.0-3.38-1.38","harwcqff5uyjqee",611,"51.csv","","null","resources/maskTrios/L1BB.jpg","null","",NA,NA,NA,NA,""
"image-keyboard-response",127,229252,"0.0-3.38-2.38","harwcqff5uyjqee",611,"51.csv","","null","resources/images/fishbone.png","null","",NA,NA,NA,NA,""
"image-keyboard-response",128,230018,"0.0-3.39-0.39","harwcqff5uyjqee",611,"51.csv","","764.7999999523163","resources/trios/L2T1A3.jpg","38","restless",0.5,0.9,0.6,0.377466964184982,"true"
"image-keyboard-response",129,230436,"0.0-3.39-1.39","harwcqff5uyjqee",611,"51.csv","","null","resources/maskTrios/BT1B.jpg","null","",NA,NA,NA,NA,""
"image-keyboard-response",130,231646,"0.0-3.39-2.39","harwcqff5uyjqee",611,"51.csv","","null","resources/images/coin2.png","null","",NA,NA,NA,NA,""
"image-keyboard-response",131,232956,"0.0-3.40-0.40","harwcqff5uyjqee",611,"51.csv","","1309.3999999761581","resources/trios/L2T2A3.jpg","39","restless",0.4,0.9,0.6,0.0500894730887269,"true"
"image-keyboard-response",132,233366,"0.0-3.40-1.40","harwcqff5uyjqee",611,"51.csv","","null","resources/maskTrios/BBA3.jpg","null","",NA,NA,NA,NA,""
"image-keyboard-response",133,234588,"0.0-3.40-2.40","harwcqff5uyjqee",611,"51.csv","","null","resources/images/coin2.png","null","",NA,NA,NA,NA,""
"image-keyboard-response",134,236021,"0.0-3.41-0.41","harwcqff5uyjqee",611,"51.csv","","1431","resources/trios/L1T2A3.jpg","39","restless",0.4,0.9,0.5,0.241103792577849,"true"
"image-keyboard-response",135,236425,"0.0-3.41-1.41","harwcqff5uyjqee",611,"51.csv","","null","resources/maskTrios/BBA3.jpg","null","",NA,NA,NA,NA,""
"image-keyboard-response",136,237637,"0.0-3.41-2.41","harwcqff5uyjqee",611,"51.csv","","null","resources/images/coin2.png","null","",NA,NA,NA,NA,""
"image-keyboard-response",137,238089,"0.0-3.42-0.42","harwcqff5uyjqee",611,"51.csv","","450.3000000715256","resources/trios/L1T1A1.jpg","38","restless",0.4,0.9,0.5,0.82650274929642,"true"
"image-keyboard-response",138,238499,"0.0-3.42-1.42","harwcqff5uyjqee",611,"51.csv","","null","resources/maskTrios/BT1B.jpg","null","",NA,NA,NA,NA,""
"image-keyboard-response",139,239708,"0.0-3.42-2.42","harwcqff5uyjqee",611,"51.csv","","null","resources/images/coin2.png","null","",NA,NA,NA,NA,""
"image-keyboard-response",140,240229,"0.0-3.43-0.43","harwcqff5uyjqee",611,"51.csv","","519.6000000238419","resources/trios/L2T1A3.jpg","38","restless",0.4,0.9,0.5,0.870087475675775,"true"
"image-keyboard-response",141,240632,"0.0-3.43-1.43","harwcqff5uyjqee",611,"51.csv","","null","resources/maskTrios/BT1B.jpg","null","",NA,NA,NA,NA,""
"image-keyboard-response",142,241845,"0.0-3.43-2.43","harwcqff5uyjqee",611,"51.csv","","null","resources/images/coin2.png","null","",NA,NA,NA,NA,""
"image-keyboard-response",143,242981,"0.0-3.44-0.44","harwcqff5uyjqee",611,"51.csv","","1134","resources/trios/L1T2A1.jpg","39","restless",0.4,0.9,0.5,0.67073337073322,"false"
"image-keyboard-response",144,243386,"0.0-3.44-1.44","harwcqff5uyjqee",611,"51.csv","","null","resources/maskTrios/BBA1.jpg","null","",NA,NA,NA,NA,""
"image-keyboard-response",145,244601,"0.0-3.44-2.44","harwcqff5uyjqee",611,"51.csv","","null","resources/images/fishbone.png","null","",NA,NA,NA,NA,""
"image-keyboard-response",146,244962,"0.0-3.45-0.45","harwcqff5uyjqee",611,"51.csv","","359.10000002384186","resources/trios/L2T2A3.jpg","38","restless",0.4,0.9,0.5,0.0850661022883217,"true"
"image-keyboard-response",147,245376,"0.0-3.45-1.45","harwcqff5uyjqee",611,"51.csv","","null","resources/maskTrios/BT2B.jpg","null","",NA,NA,NA,NA,""
"image-keyboard-response",148,246588,"0.0-3.45-2.45","harwcqff5uyjqee",611,"51.csv","","null","resources/images/coin2.png","null","",NA,NA,NA,NA,""
"image-keyboard-response",149,247024,"0.0-3.46-0.46","harwcqff5uyjqee",611,"51.csv","","434.7000000476837","resources/trios/L2T2A3.jpg","38","restless",0.4,0.9,0.5,0.577643280889458,"true"
"image-keyboard-response",150,247433,"0.0-3.46-1.46","harwcqff5uyjqee",611,"51.csv","","null","resources/maskTrios/BT2B.jpg","null","",NA,NA,NA,NA,""
"image-keyboard-response",151,248645,"0.0-3.46-2.46","harwcqff5uyjqee",611,"51.csv","","null","resources/images/coin2.png","null","",NA,NA,NA,NA,""
"image-keyboard-response",152,249296,"0.0-3.47-0.47","harwcqff5uyjqee",611,"51.csv","","650.2999999523163","resources/trios/L1T1A1.jpg","38","restless",0.4,0.9,0.5,0.213233692722654,"true"
"image-keyboard-response",153,249708,"0.0-3.47-1.47","harwcqff5uyjqee",611,"51.csv","","null","resources/maskTrios/BT1B.jpg","null","",NA,NA,NA,NA,""
"image-keyboard-response",154,250924,"0.0-3.47-2.47","harwcqff5uyjqee",611,"51.csv","","null","resources/images/coin2.png","null","",NA,NA,NA,NA,""
"image-keyboard-response",155,251693,"0.0-3.48-0.48","harwcqff5uyjqee",611,"51.csv","","768.5999999046326","resources/trios/L1T2A3.jpg","38","restless",0.4,0.9,0.5,0.600591857066949,"true"
"image-keyboard-response",156,252108,"0.0-3.48-1.48","harwcqff5uyjqee",611,"51.csv","","null","resources/maskTrios/BT2B.jpg","null","",NA,NA,NA,NA,""
"image-keyboard-response",157,253325,"0.0-3.48-2.48","harwcqff5uyjqee",611,"51.csv","","null","resources/images/coin2.png","null","",NA,NA,NA,NA,""
"image-keyboard-response",158,253833,"0.0-3.49-0.49","harwcqff5uyjqee",611,"51.csv","","506.7000000476837","resources/trios/L2T1A1.jpg","39","restless",0.4,0.9,0.5,0.962095923878731,"false"
"image-keyboard-response",159,254253,"0.0-3.49-1.49","harwcqff5uyjqee",611,"51.csv","","null","resources/maskTrios/BBA1.jpg","null","",NA,NA,NA,NA,""
"image-keyboard-response",160,255465,"0.0-3.49-2.49","harwcqff5uyjqee",611,"51.csv","","null","resources/images/fishbone.png","null","",NA,NA,NA,NA,""
"image-keyboard-response",161,256034,"0.0-3.50-0.50","harwcqff5uyjqee",611,"51.csv","","567.5","resources/trios/L1T1A3.jpg","38","restless",0.5,0.9,0.5,0.508256095929591,"true"
"image-keyboard-response",162,256449,"0.0-3.50-1.50","harwcqff5uyjqee",611,"51.csv","","null","resources/maskTrios/BT1B.jpg","null","",NA,NA,NA,NA,""
"image-keyboard-response",163,257657,"0.0-3.50-2.50","harwcqff5uyjqee",611,"51.csv","","null","resources/images/coin2.png","null","",NA,NA,NA,NA,""
"image-keyboard-response",164,258898,"0.0-3.51-0.51","harwcqff5uyjqee",611,"51.csv","","1239.5","resources/trios/L1T1A1.jpg","38","restless",0.5,0.8,0.5,0.212882134880604,"true"
"image-keyboard-response",165,259306,"0.0-3.51-1.51","harwcqff5uyjqee",611,"51.csv","","null","resources/maskTrios/BT1B.jpg","null","",NA,NA,NA,NA,""
"image-keyboard-response",166,260514,"0.0-3.51-2.51","harwcqff5uyjqee",611,"51.csv","","null","resources/images/coin2.png","null","",NA,NA,NA,NA,""
"image-keyboard-response",167,261641,"0.0-3.52-0.52","harwcqff5uyjqee",611,"51.csv","","1125.1999999284744","resources/trios/L1T2A3.jpg","38","restless",0.5,0.8,0.5,0.993991483180292,"false"
"image-keyboard-response",168,262055,"0.0-3.52-1.52","harwcqff5uyjqee",611,"51.csv","","null","resources/maskTrios/BT2B.jpg","null","",NA,NA,NA,NA,""
"image-keyboard-response",169,263264,"0.0-3.52-2.52","harwcqff5uyjqee",611,"51.csv","","null","resources/images/fishbone.png","null","",NA,NA,NA,NA,""
"image-keyboard-response",170,263805,"0.0-3.53-0.53","harwcqff5uyjqee",611,"51.csv","","539.2999999523163","resources/trios/L1T1A1.jpg","38","restless",0.5,0.7,0.5,0.700985329110245,"false"
"image-keyboard-response",171,264219,"0.0-3.53-1.53","harwcqff5uyjqee",611,"51.csv","","null","resources/maskTrios/BT1B.jpg","null","",NA,NA,NA,NA,""
"image-keyboard-response",172,265424,"0.0-3.53-2.53","harwcqff5uyjqee",611,"51.csv","","null","resources/images/fishbone.png","null","",NA,NA,NA,NA,""
"image-keyboard-response",173,266336,"0.0-3.54-0.54","harwcqff5uyjqee",611,"51.csv","","910.3999999761581","resources/trios/L1T1A3.jpg","37","restless",0.5,0.7,0.5,0.578296358365698,"false"
"image-keyboard-response",174,266755,"0.0-3.54-1.54","harwcqff5uyjqee",611,"51.csv","","null","resources/maskTrios/L1BB.jpg","null","",NA,NA,NA,NA,""
"image-keyboard-response",175,267975,"0.0-3.54-2.54","harwcqff5uyjqee",611,"51.csv","","null","resources/images/fishbone.png","null","",NA,NA,NA,NA,""
"image-keyboard-response",176,268249,"0.0-3.55-0.55","harwcqff5uyjqee",611,"51.csv","","272.2999999523163","resources/trios/L1T1A1.jpg","39","restless",0.5,0.7,0.5,0.184186671839153,"true"
"image-keyboard-response",177,268669,"0.0-3.55-1.55","harwcqff5uyjqee",611,"51.csv","","null","resources/maskTrios/BBA1.jpg","null","",NA,NA,NA,NA,""
"image-keyboard-response",178,269887,"0.0-3.55-2.55","harwcqff5uyjqee",611,"51.csv","","null","resources/images/coin2.png","null","",NA,NA,NA,NA,""
"image-keyboard-response",179,270308,"0.0-3.56-0.56","harwcqff5uyjqee",611,"51.csv","","419.39999997615814","resources/trios/L1T1A3.jpg","38","restless",0.5,0.7,0.5,0.95912451642188,"false"
"image-keyboard-response",180,270719,"0.0-3.56-1.56","harwcqff5uyjqee",611,"51.csv","","null","resources/maskTrios/BT1B.jpg","null","",NA,NA,NA,NA,""
"image-keyboard-response",181,271928,"0.0-3.56-2.56","harwcqff5uyjqee",611,"51.csv","","null","resources/images/fishbone.png","null","",NA,NA,NA,NA,""
"image-keyboard-response",182,272407,"0.0-3.57-0.57","harwcqff5uyjqee",611,"51.csv","","477.7999999523163","resources/trios/L2T2A1.jpg","39","restless",0.5,0.7,0.5,0.101727040123131,"true"
"image-keyboard-response",183,272826,"0.0-3.57-1.57","harwcqff5uyjqee",611,"51.csv","","null","resources/maskTrios/BBA1.jpg","null","",NA,NA,NA,NA,""
"image-keyboard-response",184,274041,"0.0-3.57-2.57","harwcqff5uyjqee",611,"51.csv","","null","resources/images/coin2.png","null","",NA,NA,NA,NA,""
"image-keyboard-response",185,275047,"0.0-3.58-0.58","harwcqff5uyjqee",611,"51.csv","","1003.8999999761581","resources/trios/L2T1A1.jpg","39","restless",0.5,0.7,0.5,0.295748674776219,"true"
"image-keyboard-response",186,275472,"0.0-3.58-1.58","harwcqff5uyjqee",611,"51.csv","","null","resources/maskTrios/BBA1.jpg","null","",NA,NA,NA,NA,""
"image-keyboard-response",187,276682,"0.0-3.58-2.58","harwcqff5uyjqee",611,"51.csv","","null","resources/images/coin2.png","null","",NA,NA,NA,NA,""
"image-keyboard-response",188,276876,"0.0-3.59-0.59","harwcqff5uyjqee",611,"51.csv","","191.80000007152557","resources/trios/L1T2A3.jpg","38","restless",0.5,0.7,0.5,0.424857394523042,"true"
"image-keyboard-response",189,277289,"0.0-3.59-1.59","harwcqff5uyjqee",611,"51.csv","","null","resources/maskTrios/BT2B.jpg","null","",NA,NA,NA,NA,""
"image-keyboard-response",190,278504,"0.0-3.59-2.59","harwcqff5uyjqee",611,"51.csv","","null","resources/images/coin2.png","null","",NA,NA,NA,NA,""
"image-keyboard-response",191,278771,"0.0-3.60-0.60","harwcqff5uyjqee",611,"51.csv","","265.6999999284744","resources/trios/L1T1A3.jpg","37","restless",0.5,0.7,0.5,0.925346591344828,"false"
"image-keyboard-response",192,279190,"0.0-3.60-1.60","harwcqff5uyjqee",611,"51.csv","","null","resources/maskTrios/L1BB.jpg","null","",NA,NA,NA,NA,""
"image-keyboard-response",193,280408,"0.0-3.60-2.60","harwcqff5uyjqee",611,"51.csv","","null","resources/images/fishbone.png","null","",NA,NA,NA,NA,""
"image-keyboard-response",194,281048,"0.0-3.61-0.61","harwcqff5uyjqee",611,"51.csv","","638.2999999523163","resources/trios/L1T2A3.jpg","39","restless",0.5,0.7,0.5,0.0824555090287122,"true"
"image-keyboard-response",195,281467,"0.0-3.61-1.61","harwcqff5uyjqee",611,"51.csv","","null","resources/maskTrios/BBA3.jpg","null","",NA,NA,NA,NA,""
"image-keyboard-response",196,282673,"0.0-3.61-2.61","harwcqff5uyjqee",611,"51.csv","","null","resources/images/coin2.png","null","",NA,NA,NA,NA,""
"image-keyboard-response",197,283189,"0.0-3.62-0.62","harwcqff5uyjqee",611,"51.csv","","514.7000000476837","resources/trios/L2T1A1.jpg","38","restless",0.5,0.7,0.5,0.990237960863828,"false"
"image-keyboard-response",198,283595,"0.0-3.62-1.62","harwcqff5uyjqee",611,"51.csv","","null","resources/maskTrios/BT1B.jpg","null","",NA,NA,NA,NA,""
"image-keyboard-response",199,284812,"0.0-3.62-2.62","harwcqff5uyjqee",611,"51.csv","","null","resources/images/fishbone.png","null","",NA,NA,NA,NA,""
"image-keyboard-response",200,285162,"0.0-3.63-0.63","harwcqff5uyjqee",611,"51.csv","","349.10000002384186","resources/trios/L2T2A3.jpg","39","restless",0.5,0.7,0.5,0.210439129707108,"true"
"image-keyboard-response",201,285569,"0.0-3.63-1.63","harwcqff5uyjqee",611,"51.csv","","null","resources/maskTrios/BBA3.jpg","null","",NA,NA,NA,NA,""
"image-keyboard-response",202,286784,"0.0-3.63-2.63","harwcqff5uyjqee",611,"51.csv","","null","resources/images/coin2.png","null","",NA,NA,NA,NA,""
"image-keyboard-response",203,287037,"0.0-3.64-0.64","harwcqff5uyjqee",611,"51.csv","","251.60000002384186","resources/trios/L1T2A1.jpg","38","restless",0.5,0.7,0.5,0.854941704182505,"false"
"image-keyboard-response",204,287453,"0.0-3.64-1.64","harwcqff5uyjqee",611,"51.csv","","null","resources/maskTrios/BT2B.jpg","null","",NA,NA,NA,NA,""
"image-keyboard-response",205,288669,"0.0-3.64-2.64","harwcqff5uyjqee",611,"51.csv","","null","resources/images/fishbone.png","null","",NA,NA,NA,NA,""
"image-keyboard-response",206,288899,"0.0-3.65-0.65","harwcqff5uyjqee",611,"51.csv","","228.89999997615814","resources/trios/L1T2A3.jpg","39","restless",0.5,0.7,0.5,0.192347643814747,"true"
"image-keyboard-response",207,289313,"0.0-3.65-1.65","harwcqff5uyjqee",611,"51.csv","","null","resources/maskTrios/BBA3.jpg","null","",NA,NA,NA,NA,""
"image-keyboard-response",208,290534,"0.0-3.65-2.65","harwcqff5uyjqee",611,"51.csv","","null","resources/images/coin2.png","null","",NA,NA,NA,NA,""
"image-keyboard-response",209,290816,"0.0-3.66-0.66","harwcqff5uyjqee",611,"51.csv","","280.6999999284744","resources/trios/L1T2A1.jpg","38","restless",0.5,0.7,0.5,0.276276264786435,"true"
"image-keyboard-response",210,291235,"0.0-3.66-1.66","harwcqff5uyjqee",611,"51.csv","","null","resources/maskTrios/BT2B.jpg","null","",NA,NA,NA,NA,""
"image-keyboard-response",211,292443,"0.0-3.66-2.66","harwcqff5uyjqee",611,"51.csv","","null","resources/images/coin2.png","null","",NA,NA,NA,NA,""
"image-keyboard-response",212,292852,"0.0-3.67-0.67","harwcqff5uyjqee",611,"51.csv","","406.7999999523163","resources/trios/L2T2A3.jpg","39","restless",0.5,0.7,0.5,0.951072597397796,"false"
"image-keyboard-response",213,293258,"0.0-3.67-1.67","harwcqff5uyjqee",611,"51.csv","","null","resources/maskTrios/BBA3.jpg","null","",NA,NA,NA,NA,""
"image-keyboard-response",214,294474,"0.0-3.67-2.67","harwcqff5uyjqee",611,"51.csv","","null","resources/images/fishbone.png","null","",NA,NA,NA,NA,""
"image-keyboard-response",215,294853,"0.0-3.68-0.68","harwcqff5uyjqee",611,"51.csv","","377.60000002384186","resources/trios/L2T1A3.jpg","37","restless",0.5,0.7,0.5,0.683736634210826,"false"
"image-keyboard-response",216,295270,"0.0-3.68-1.68","harwcqff5uyjqee",611,"51.csv","","null","resources/maskTrios/L2BB.jpg","null","",NA,NA,NA,NA,""
"image-keyboard-response",217,296472,"0.0-3.68-2.68","harwcqff5uyjqee",611,"51.csv","","null","resources/images/fishbone.png","null","",NA,NA,NA,NA,""
"image-keyboard-response",218,296680,"0.0-3.69-0.69","harwcqff5uyjqee",611,"51.csv","","206.19999992847443","resources/trios/L1T2A3.jpg","38","restless",0.5,0.7,0.5,0.949628389084255,"false"
"image-keyboard-response",219,297092,"0.0-3.69-1.69","harwcqff5uyjqee",611,"51.csv","","null","resources/maskTrios/BT2B.jpg","null","",NA,NA,NA,NA,""
"image-keyboard-response",220,298308,"0.0-3.69-2.69","harwcqff5uyjqee",611,"51.csv","","null","resources/images/fishbone.png","null","",NA,NA,NA,NA,""
"image-keyboard-response",221,298403,"0.0-3.70-0.70","harwcqff5uyjqee",611,"51.csv","","94.19999992847443","resources/trios/L1T1A1.jpg","39","restless",0.5,0.7,0.5,0.341932863748731,"true"
"image-keyboard-response",222,298823,"0.0-3.70-1.70","harwcqff5uyjqee",611,"51.csv","","null","resources/maskTrios/BBA1.jpg","null","",NA,NA,NA,NA,""
"image-keyboard-response",223,300042,"0.0-3.70-2.70","harwcqff5uyjqee",611,"51.csv","","null","resources/images/coin2.png","null","",NA,NA,NA,NA,""
"image-keyboard-response",224,300469,"0.0-3.71-0.71","harwcqff5uyjqee",611,"51.csv","","426.2000000476837","resources/trios/L2T2A3.jpg","39","restless",0.6,0.7,0.5,0.0754111770376946,"true"
"image-keyboard-response",225,300881,"0.0-3.71-1.71","harwcqff5uyjqee",611,"51.csv","","null","resources/maskTrios/BBA3.jpg","null","",NA,NA,NA,NA,""
"image-keyboard-response",226,302089,"0.0-3.71-2.71","harwcqff5uyjqee",611,"51.csv","","null","resources/images/coin2.png","null","",NA,NA,NA,NA,""
"image-keyboard-response",227,302484,"0.0-3.72-0.72","harwcqff5uyjqee",611,"51.csv","","392.2000000476837","resources/trios/L2T1A1.jpg","39","restless",0.6,0.7,0.5,0.824915435885531,"false"
"image-keyboard-response",228,302901,"0.0-3.72-1.72","harwcqff5uyjqee",611,"51.csv","","null","resources/maskTrios/BBA1.jpg","null","",NA,NA,NA,NA,""
"image-keyboard-response",229,304117,"0.0-3.72-2.72","harwcqff5uyjqee",611,"51.csv","","null","resources/images/fishbone.png","null","",NA,NA,NA,NA,""
"image-keyboard-response",230,304337,"0.0-3.73-0.73","harwcqff5uyjqee",611,"51.csv","","219.09999990463257","resources/trios/L2T1A3.jpg","38","restless",0.6,0.7,0.5,0.411859448039374,"true"
"image-keyboard-response",231,304752,"0.0-3.73-1.73","harwcqff5uyjqee",611,"51.csv","","null","resources/maskTrios/BT1B.jpg","null","",NA,NA,NA,NA,""
"image-keyboard-response",232,305974,"0.0-3.73-2.73","harwcqff5uyjqee",611,"51.csv","","null","resources/images/coin2.png","null","",NA,NA,NA,NA,""
"image-keyboard-response",233,306417,"0.0-3.74-0.74","harwcqff5uyjqee",611,"51.csv","","441.39999997615814","resources/trios/L1T1A3.jpg","37","restless",0.6,0.7,0.5,0.454800522400985,"true"
"image-keyboard-response",234,306838,"0.0-3.74-1.74","harwcqff5uyjqee",611,"51.csv","","null","resources/maskTrios/L1BB.jpg","null","",NA,NA,NA,NA,""
"image-keyboard-response",235,308049,"0.0-3.74-2.74","harwcqff5uyjqee",611,"51.csv","","null","resources/images/coin2.png","null","",NA,NA,NA,NA,""
"image-keyboard-response",236,308316,"0.0-3.75-0.75","harwcqff5uyjqee",611,"51.csv","","264.6999999284744","resources/trios/L2T1A3.jpg","38","restless",0.6,0.7,0.5,0.456768378127008,"true"
"image-keyboard-response",237,308721,"0.0-3.75-1.75","harwcqff5uyjqee",611,"51.csv","","null","resources/maskTrios/BT1B.jpg","null","",NA,NA,NA,NA,""
"image-keyboard-response",238,309944,"0.0-3.75-2.75","harwcqff5uyjqee",611,"51.csv","","null","resources/images/coin2.png","null","",NA,NA,NA,NA,""
"image-keyboard-response",239,310241,"0.0-3.76-0.76","harwcqff5uyjqee",611,"51.csv","","295.89999997615814","resources/trios/L2T2A1.jpg","37","restless",0.6,0.6,0.5,0.268305132946183,"true"
"image-keyboard-response",240,310648,"0.0-3.76-1.76","harwcqff5uyjqee",611,"51.csv","","null","resources/maskTrios/L2BB.jpg","null","",NA,NA,NA,NA,""
"image-keyboard-response",241,311860,"0.0-3.76-2.76","harwcqff5uyjqee",611,"51.csv","","null","resources/images/coin2.png","null","",NA,NA,NA,NA,""
"image-keyboard-response",242,312175,"0.0-3.77-0.77","harwcqff5uyjqee",611,"51.csv","","314","resources/trios/L1T1A3.jpg","38","restless",0.6,0.6,0.5,0.684995250817995,"false"
"image-keyboard-response",243,312589,"0.0-3.77-1.77","harwcqff5uyjqee",611,"51.csv","","null","resources/maskTrios/BT1B.jpg","null","",NA,NA,NA,NA,""
"image-keyboard-response",244,313795,"0.0-3.77-2.77","harwcqff5uyjqee",611,"51.csv","","null","resources/images/fishbone.png","null","",NA,NA,NA,NA,""
"image-keyboard-response",245,313888,"0.0-3.78-0.78","harwcqff5uyjqee",611,"51.csv","","92","resources/trios/L1T2A1.jpg","37","restless",0.6,0.6,0.5,0.599210991205133,"true"
"image-keyboard-response",246,314297,"0.0-3.78-1.78","harwcqff5uyjqee",611,"51.csv","","null","resources/maskTrios/L1BB.jpg","null","",NA,NA,NA,NA,""
"image-keyboard-response",247,315505,"0.0-3.78-2.78","harwcqff5uyjqee",611,"51.csv","","null","resources/images/coin2.png","null","",NA,NA,NA,NA,""
"image-keyboard-response",248,315757,"0.0-3.79-0.79","harwcqff5uyjqee",611,"51.csv","","251","resources/trios/L2T1A1.jpg","39","restless",0.6,0.6,0.5,0.242422378983593,"true"
"image-keyboard-response",249,316162,"0.0-3.79-1.79","harwcqff5uyjqee",611,"51.csv","","null","resources/maskTrios/BBA1.jpg","null","",NA,NA,NA,NA,""
"image-keyboard-response",250,317375,"0.0-3.79-2.79","harwcqff5uyjqee",611,"51.csv","","null","resources/images/coin2.png","null","",NA,NA,NA,NA,""
"image-keyboard-response",251,317648,"0.0-3.80-0.80","harwcqff5uyjqee",611,"51.csv","","271.89999997615814","resources/trios/L2T1A3.jpg","37","restless",0.6,0.6,0.5,0.185926535157592,"true"
"image-keyboard-response",252,318057,"0.0-3.80-1.80","harwcqff5uyjqee",611,"51.csv","","null","resources/maskTrios/L2BB.jpg","null","",NA,NA,NA,NA,""
"image-keyboard-response",253,319278,"0.0-3.80-2.80","harwcqff5uyjqee",611,"51.csv","","null","resources/images/coin2.png","null","",NA,NA,NA,NA,""
"image-keyboard-response",254,319549,"0.0-3.81-0.81","harwcqff5uyjqee",611,"51.csv","","269.5","resources/trios/L2T2A3.jpg","38","restless",0.6,0.6,0.5,0.0815938403724816,"true"
"image-keyboard-response",255,319963,"0.0-3.81-1.81","harwcqff5uyjqee",611,"51.csv","","null","resources/maskTrios/BT2B.jpg","null","",NA,NA,NA,NA,""
"image-keyboard-response",256,321169,"0.0-3.81-2.81","harwcqff5uyjqee",611,"51.csv","","null","resources/images/coin2.png","null","",NA,NA,NA,NA,""
"image-keyboard-response",257,321720,"0.0-3.82-0.82","harwcqff5uyjqee",611,"51.csv","","549.6000000238419","resources/trios/L1T2A1.jpg","39","restless",0.6,0.5,0.6,0.531889406650171,"true"
"image-keyboard-response",258,322143,"0.0-3.82-1.82","harwcqff5uyjqee",611,"51.csv","","null","resources/maskTrios/BBA1.jpg","null","",NA,NA,NA,NA,""
"image-keyboard-response",259,323356,"0.0-3.82-2.82","harwcqff5uyjqee",611,"51.csv","","null","resources/images/coin2.png","null","",NA,NA,NA,NA,""
"image-keyboard-response",260,323635,"0.0-3.83-0.83","harwcqff5uyjqee",611,"51.csv","","277.2000000476837","resources/trios/L1T1A3.jpg","38","restless",0.6,0.5,0.6,0.668033654376639,"false"
"image-keyboard-response",261,324040,"0.0-3.83-1.83","harwcqff5uyjqee",611,"51.csv","","null","resources/maskTrios/BT1B.jpg","null","",NA,NA,NA,NA,""
"image-keyboard-response",262,325255,"0.0-3.83-2.83","harwcqff5uyjqee",611,"51.csv","","null","resources/images/fishbone.png","null","",NA,NA,NA,NA,""
"image-keyboard-response",263,325587,"0.0-3.84-0.84","harwcqff5uyjqee",611,"51.csv","","330.5","resources/trios/L1T1A1.jpg","37","restless",0.6,0.5,0.6,0.60264457107385,"false"
"image-keyboard-response",264,325999,"0.0-3.84-1.84","harwcqff5uyjqee",611,"51.csv","","null","resources/maskTrios/L1BB.jpg","null","",NA,NA,NA,NA,""
"image-keyboard-response",265,327216,"0.0-3.84-2.84","harwcqff5uyjqee",611,"51.csv","","null","resources/images/fishbone.png","null","",NA,NA,NA,NA,""
"image-keyboard-response",266,327489,"0.0-3.85-0.85","harwcqff5uyjqee",611,"51.csv","","271.89999997615814","resources/trios/L1T1A1.jpg","39","restless",0.6,0.5,0.6,0.36101039478228,"true"
"image-keyboard-response",267,327905,"0.0-3.85-1.85","harwcqff5uyjqee",611,"51.csv","","null","resources/maskTrios/BBA1.jpg","null","",NA,NA,NA,NA,""
"image-keyboard-response",268,329119,"0.0-3.85-2.85","harwcqff5uyjqee",611,"51.csv","","null","resources/images/coin2.png","null","",NA,NA,NA,NA,""
"image-keyboard-response",269,329838,"0.0-3.86-0.86","harwcqff5uyjqee",611,"51.csv","","718.7999999523163","resources/trios/L2T2A3.jpg","39","restless",0.6,0.5,0.6,0.566584985162815,"true"
"image-keyboard-response",270,330243,"0.0-3.86-1.86","harwcqff5uyjqee",611,"51.csv","","null","resources/maskTrios/BBA3.jpg","null","",NA,NA,NA,NA,""
"image-keyboard-response",271,331457,"0.0-3.86-2.86","harwcqff5uyjqee",611,"51.csv","","null","resources/images/coin2.png","null","",NA,NA,NA,NA,""
"image-keyboard-response",272,332698,"0.0-3.87-0.87","harwcqff5uyjqee",611,"51.csv","","1239.2999999523163","resources/trios/L1T2A3.jpg","39","restless",0.6,0.5,0.6,0.913570096764549,"false"
"image-keyboard-response",273,333108,"0.0-3.87-1.87","harwcqff5uyjqee",611,"51.csv","","null","resources/maskTrios/BBA3.jpg","null","",NA,NA,NA,NA,""
"image-keyboard-response",274,334327,"0.0-3.87-2.87","harwcqff5uyjqee",611,"51.csv","","null","resources/images/fishbone.png","null","",NA,NA,NA,NA,""
"image-keyboard-response",275,334571,"0.0-3.88-0.88","harwcqff5uyjqee",611,"51.csv","","242.39999997615814","resources/trios/L2T2A1.jpg","38","restless",0.6,0.5,0.6,0.638005253545278,"false"
"image-keyboard-response",276,334977,"0.0-3.88-1.88","harwcqff5uyjqee",611,"51.csv","","null","resources/maskTrios/BT2B.jpg","null","",NA,NA,NA,NA,""
"image-keyboard-response",277,336196,"0.0-3.88-2.88","harwcqff5uyjqee",611,"51.csv","","null","resources/images/fishbone.png","null","",NA,NA,NA,NA,""
"image-keyboard-response",278,336924,"0.0-3.89-0.89","harwcqff5uyjqee",611,"51.csv","","726.1999999284744","resources/trios/L1T1A1.jpg","37","restless",0.6,0.5,0.6,0.865933062624663,"false"
"image-keyboard-response",279,337337,"0.0-3.89-1.89","harwcqff5uyjqee",611,"51.csv","","null","resources/maskTrios/L1BB.jpg","null","",NA,NA,NA,NA,""
"image-keyboard-response",280,338546,"0.0-3.89-2.89","harwcqff5uyjqee",611,"51.csv","","null","resources/images/fishbone.png","null","",NA,NA,NA,NA,""
"image-keyboard-response",281,338957,"0.0-3.90-0.90","harwcqff5uyjqee",611,"51.csv","","409","resources/trios/L1T1A1.jpg","38","restless",0.6,0.5,0.6,0.627106316038594,"false"
"image-keyboard-response",282,339364,"0.0-3.90-1.90","harwcqff5uyjqee",611,"51.csv","","null","resources/maskTrios/BT1B.jpg","null","",NA,NA,NA,NA,""
"image-keyboard-response",283,340582,"0.0-3.90-2.90","harwcqff5uyjqee",611,"51.csv","","null","resources/images/fishbone.png","null","",NA,NA,NA,NA,""
"image-keyboard-response",284,340754,"0.0-3.91-0.91","harwcqff5uyjqee",611,"51.csv","","170.59999990463257","resources/trios/L1T2A3.jpg","39","restless",0.6,0.4,0.7,0.583299176225438,"true"
"image-keyboard-response",285,341165,"0.0-3.91-1.91","harwcqff5uyjqee",611,"51.csv","","null","resources/maskTrios/BBA3.jpg","null","",NA,NA,NA,NA,""
"image-keyboard-response",286,342372,"0.0-3.91-2.91","harwcqff5uyjqee",611,"51.csv","","null","resources/images/coin2.png","null","",NA,NA,NA,NA,""
"image-keyboard-response",287,342512,"0.0-3.92-0.92","harwcqff5uyjqee",611,"51.csv","","138.69999992847443","resources/trios/L1T1A1.jpg","39","restless",0.6,0.4,0.7,0.370667779238565,"true"
"image-keyboard-response",288,342928,"0.0-3.92-1.92","harwcqff5uyjqee",611,"51.csv","","null","resources/maskTrios/BBA1.jpg","null","",NA,NA,NA,NA,""
"image-keyboard-response",289,344143,"0.0-3.92-2.92","harwcqff5uyjqee",611,"51.csv","","null","resources/images/coin2.png","null","",NA,NA,NA,NA,""
"image-keyboard-response",290,344363,"0.0-3.93-0.93","harwcqff5uyjqee",611,"51.csv","","218.39999997615814","resources/trios/L2T2A3.jpg","39","restless",0.6,0.4,0.7,0.269132326378428,"true"
"image-keyboard-response",291,344777,"0.0-3.93-1.93","harwcqff5uyjqee",611,"51.csv","","null","resources/maskTrios/BBA3.jpg","null","",NA,NA,NA,NA,""
"image-keyboard-response",292,345985,"0.0-3.93-2.93","harwcqff5uyjqee",611,"51.csv","","null","resources/images/coin2.png","null","",NA,NA,NA,NA,""
"image-keyboard-response",293,346242,"0.0-3.94-0.94","harwcqff5uyjqee",611,"51.csv","","255.89999997615814","resources/trios/L2T1A1.jpg","39","restless",0.5,0.4,0.7,0.923699295893351,"false"
"image-keyboard-response",294,346649,"0.0-3.94-1.94","harwcqff5uyjqee",611,"51.csv","","null","resources/maskTrios/BBA1.jpg","null","",NA,NA,NA,NA,""
"image-keyboard-response",295,347859,"0.0-3.94-2.94","harwcqff5uyjqee",611,"51.csv","","null","resources/images/fishbone.png","null","",NA,NA,NA,NA,""
"image-keyboard-response",296,348112,"0.0-3.95-0.95","harwcqff5uyjqee",611,"51.csv","","251.80000007152557","resources/trios/L2T1A3.jpg","38","restless",0.6,0.4,0.7,0.372257410786568,"true"
"image-keyboard-response",297,348530,"0.0-3.95-1.95","harwcqff5uyjqee",611,"51.csv","","null","resources/maskTrios/BT1B.jpg","null","",NA,NA,NA,NA,""
"image-keyboard-response",298,349743,"0.0-3.95-2.95","harwcqff5uyjqee",611,"51.csv","","null","resources/images/coin2.png","null","",NA,NA,NA,NA,""
"image-keyboard-response",299,350262,"0.0-3.96-0.96","harwcqff5uyjqee",611,"51.csv","","517.1000000238419","resources/trios/L2T1A1.jpg","38","restless",0.6,0.4,0.7,0.131631202463457,"true"
"image-keyboard-response",300,350666,"0.0-3.96-1.96","harwcqff5uyjqee",611,"51.csv","","null","resources/maskTrios/BT1B.jpg","null","",NA,NA,NA,NA,""
"image-keyboard-response",301,351875,"0.0-3.96-2.96","harwcqff5uyjqee",611,"51.csv","","null","resources/images/coin2.png","null","",NA,NA,NA,NA,""
"image-keyboard-response",302,352284,"0.0-3.97-0.97","harwcqff5uyjqee",611,"51.csv","","408","resources/trios/L1T1A3.jpg","38","restless",0.6,0.4,0.7,0.558000076137184,"false"
"image-keyboard-response",303,352698,"0.0-3.97-1.97","harwcqff5uyjqee",611,"51.csv","","null","resources/maskTrios/BT1B.jpg","null","",NA,NA,NA,NA,""
"image-keyboard-response",304,353908,"0.0-3.97-2.97","harwcqff5uyjqee",611,"51.csv","","null","resources/images/fishbone.png","null","",NA,NA,NA,NA,""
"image-keyboard-response",305,354519,"0.0-3.98-0.98","harwcqff5uyjqee",611,"51.csv","","609.1000000238419","resources/trios/L1T1A1.jpg","39","restless",0.6,0.4,0.7,0.526932289144316,"true"
"image-keyboard-response",306,354939,"0.0-3.98-1.98","harwcqff5uyjqee",611,"51.csv","","null","resources/maskTrios/BBA1.jpg","null","",NA,NA,NA,NA,""
"image-keyboard-response",307,356158,"0.0-3.98-2.98","harwcqff5uyjqee",611,"51.csv","","null","resources/images/coin2.png","null","",NA,NA,NA,NA,""
"image-keyboard-response",308,356585,"0.0-3.99-0.99","harwcqff5uyjqee",611,"51.csv","","425.6999999284744","resources/trios/L1T1A3.jpg","37","restless",0.6,0.4,0.7,0.760050668238009,"false"
"image-keyboard-response",309,356988,"0.0-3.99-1.99","harwcqff5uyjqee",611,"51.csv","","null","resources/maskTrios/L1BB.jpg","null","",NA,NA,NA,NA,""
"image-keyboard-response",310,358198,"0.0-3.99-2.99","harwcqff5uyjqee",611,"51.csv","","null","resources/images/fishbone.png","null","",NA,NA,NA,NA,""
"image-keyboard-response",311,358428,"0.0-3.100-0.100","harwcqff5uyjqee",611,"51.csv","","229","resources/trios/L1T2A1.jpg","38","restless",0.5,0.4,0.7,0.0142919948026456,"true"
"image-keyboard-response",312,358839,"0.0-3.100-1.100","harwcqff5uyjqee",611,"51.csv","","null","resources/maskTrios/BT2B.jpg","null","",NA,NA,NA,NA,""
"image-keyboard-response",313,360060,"0.0-3.100-2.100","harwcqff5uyjqee",611,"51.csv","","null","resources/images/coin2.png","null","",NA,NA,NA,NA,""
"image-keyboard-response",314,360360,"0.0-3.101-0.101","harwcqff5uyjqee",611,"51.csv","","297.89999997615814","resources/trios/L1T2A3.jpg","39","restless",0.6,0.4,0.7,0.585566348606544,"true"
"image-keyboard-response",315,360775,"0.0-3.101-1.101","harwcqff5uyjqee",611,"51.csv","","null","resources/maskTrios/BBA3.jpg","null","",NA,NA,NA,NA,""
"image-keyboard-response",316,361988,"0.0-3.101-2.101","harwcqff5uyjqee",611,"51.csv","","null","resources/images/coin2.png","null","",NA,NA,NA,NA,""
"image-keyboard-response",317,362351,"0.0-3.102-0.102","harwcqff5uyjqee",611,"51.csv","","361.7000000476837","resources/trios/L2T1A3.jpg","37","restless",0.6,0.4,0.7,0.196593218882308,"true"
"image-keyboard-response",318,362772,"0.0-3.102-1.102","harwcqff5uyjqee",611,"51.csv","","null","resources/maskTrios/L2BB.jpg","null","",NA,NA,NA,NA,""
"image-keyboard-response",319,363984,"0.0-3.102-2.102","harwcqff5uyjqee",611,"51.csv","","null","resources/images/coin2.png","null","",NA,NA,NA,NA,""
"image-keyboard-response",320,364226,"0.0-3.103-0.103","harwcqff5uyjqee",611,"51.csv","","240.39999997615814","resources/trios/L1T2A1.jpg","38","restless",0.6,0.4,0.7,0.126713776655511,"true"
"image-keyboard-response",321,364640,"0.0-3.103-1.103","harwcqff5uyjqee",611,"51.csv","","null","resources/maskTrios/BT2B.jpg","null","",NA,NA,NA,NA,""
"image-keyboard-response",322,365859,"0.0-3.103-2.103","harwcqff5uyjqee",611,"51.csv","","null","resources/images/coin2.png","null","",NA,NA,NA,NA,""
"image-keyboard-response",323,365900,"0.0-3.104-0.104","harwcqff5uyjqee",611,"51.csv","","40","resources/trios/L1T2A1.jpg","39","restless",0.6,0.4,0.7,0.469800648790435,"true"
"image-keyboard-response",324,366311,"0.0-3.104-1.104","harwcqff5uyjqee",611,"51.csv","","null","resources/maskTrios/BBA1.jpg","null","",NA,NA,NA,NA,""
"image-keyboard-response",325,367527,"0.0-3.104-2.104","harwcqff5uyjqee",611,"51.csv","","null","resources/images/coin2.png","null","",NA,NA,NA,NA,""
"image-keyboard-response",326,367824,"0.0-3.105-0.105","harwcqff5uyjqee",611,"51.csv","","296.39999997615814","resources/trios/L1T1A3.jpg","37","restless",0.6,0.4,0.7,0.384686387396812,"true"
"image-keyboard-response",327,368245,"0.0-3.105-1.105","harwcqff5uyjqee",611,"51.csv","","null","resources/maskTrios/L1BB.jpg","null","",NA,NA,NA,NA,""
"image-keyboard-response",328,369454,"0.0-3.105-2.105","harwcqff5uyjqee",611,"51.csv","","null","resources/images/coin2.png","null","",NA,NA,NA,NA,""
"image-keyboard-response",329,369641,"0.0-3.106-0.106","harwcqff5uyjqee",611,"51.csv","","185.29999995231628","resources/trios/L1T2A3.jpg","38","restless",0.6,0.4,0.7,0.170509965986428,"true"
"image-keyboard-response",330,370063,"0.0-3.106-1.106","harwcqff5uyjqee",611,"51.csv","","null","resources/maskTrios/BT2B.jpg","null","",NA,NA,NA,NA,""
"image-keyboard-response",331,371283,"0.0-3.106-2.106","harwcqff5uyjqee",611,"51.csv","","null","resources/images/coin2.png","null","",NA,NA,NA,NA,""
"image-keyboard-response",332,371659,"0.0-3.107-0.107","harwcqff5uyjqee",611,"51.csv","","373.7000000476837","resources/trios/L1T2A1.jpg","38","restless",0.7,0.4,0.7,0.724858491304699,"false"
"image-keyboard-response",333,372072,"0.0-3.107-1.107","harwcqff5uyjqee",611,"51.csv","","null","resources/maskTrios/BT2B.jpg","null","",NA,NA,NA,NA,""
"image-keyboard-response",334,373291,"0.0-3.107-2.107","harwcqff5uyjqee",611,"51.csv","","null","resources/images/fishbone.png","null","",NA,NA,NA,NA,""
"image-keyboard-response",335,373523,"0.0-3.108-0.108","harwcqff5uyjqee",611,"51.csv","","230.29999995231628","resources/trios/L1T2A1.jpg","39","restless",0.7,0.4,0.7,0.416009304476145,"true"
"image-keyboard-response",336,373939,"0.0-3.108-1.108","harwcqff5uyjqee",611,"51.csv","","null","resources/maskTrios/BBA1.jpg","null","",NA,NA,NA,NA,""
"image-keyboard-response",337,375155,"0.0-3.108-2.108","harwcqff5uyjqee",611,"51.csv","","null","resources/images/coin2.png","null","",NA,NA,NA,NA,""
"image-keyboard-response",338,375406,"0.0-3.109-0.109","harwcqff5uyjqee",611,"51.csv","","250.29999995231628","resources/trios/L2T2A3.jpg","38","restless",0.7,0.4,0.7,0.348634558284467,"true"
"image-keyboard-response",339,375821,"0.0-3.109-1.109","harwcqff5uyjqee",611,"51.csv","","null","resources/maskTrios/BT2B.jpg","null","",NA,NA,NA,NA,""
"image-keyboard-response",340,377037,"0.0-3.109-2.109","harwcqff5uyjqee",611,"51.csv","","null","resources/images/coin2.png","null","",NA,NA,NA,NA,""
"image-keyboard-response",341,378072,"0.0-3.110-0.110","harwcqff5uyjqee",611,"51.csv","","1034.1999999284744","resources/trios/L2T1A1.jpg","38","restless",0.7,0.4,0.6,0.171037029208352,"true"
"image-keyboard-response",342,378489,"0.0-3.110-1.110","harwcqff5uyjqee",611,"51.csv","","null","resources/maskTrios/BT1B.jpg","null","",NA,NA,NA,NA,""
"image-keyboard-response",343,379698,"0.0-3.110-2.110","harwcqff5uyjqee",611,"51.csv","","null","resources/images/coin2.png","null","",NA,NA,NA,NA,""
"image-keyboard-response",344,379977,"0.0-3.111-0.111","harwcqff5uyjqee",611,"51.csv","","277.7000000476837","resources/trios/L2T1A1.jpg","39","restless",0.7,0.4,0.6,0.22326611443676,"true"
"image-keyboard-response",345,380392,"0.0-3.111-1.111","harwcqff5uyjqee",611,"51.csv","","null","resources/maskTrios/BBA1.jpg","null","",NA,NA,NA,NA,""
"image-keyboard-response",346,381610,"0.0-3.111-2.111","harwcqff5uyjqee",611,"51.csv","","null","resources/images/coin2.png","null","",NA,NA,NA,NA,""
"image-keyboard-response",347,382966,"0.0-3.112-0.112","harwcqff5uyjqee",611,"51.csv","","1353.8999999761581","resources/trios/L2T2A3.jpg","38","restless",0.6,0.4,0.6,0.197281190399963,"true"
"image-keyboard-response",348,383373,"0.0-3.112-1.112","harwcqff5uyjqee",611,"51.csv","","null","resources/maskTrios/BT2B.jpg","null","",NA,NA,NA,NA,""
"image-keyboard-response",349,384577,"0.0-3.112-2.112","harwcqff5uyjqee",611,"51.csv","","null","resources/images/coin2.png","null","",NA,NA,NA,NA,""
"image-keyboard-response",350,384583,"0.0-3.113-0.113","harwcqff5uyjqee",611,"51.csv","","4.199999928474426","resources/trios/L1T1A1.jpg","37","restless",0.6,0.4,0.6,0.228988820999201,"true"
"image-keyboard-response",351,385002,"0.0-3.113-1.113","harwcqff5uyjqee",611,"51.csv","","null","resources/maskTrios/L1BB.jpg","null","",NA,NA,NA,NA,""
"image-keyboard-response",352,386216,"0.0-3.113-2.113","harwcqff5uyjqee",611,"51.csv","","null","resources/images/coin2.png","null","",NA,NA,NA,NA,""
"image-keyboard-response",353,387157,"0.0-3.114-0.114","harwcqff5uyjqee",611,"51.csv","","939.7000000476837","resources/trios/L2T2A3.jpg","38","restless",0.6,0.4,0.6,0.643457655917459,"false"
"image-keyboard-response",354,387575,"0.0-3.114-1.114","harwcqff5uyjqee",611,"51.csv","","null","resources/maskTrios/BT2B.jpg","null","",NA,NA,NA,NA,""
"image-keyboard-response",355,388778,"0.0-3.114-2.114","harwcqff5uyjqee",611,"51.csv","","null","resources/images/fishbone.png","null","",NA,NA,NA,NA,""
"image-keyboard-response",356,389136,"0.0-3.115-0.115","harwcqff5uyjqee",611,"51.csv","","361.7000000476837","resources/trios/L2T2A3.jpg","37","restless",0.6,0.4,0.6,0.1095738602757,"true"
"image-keyboard-response",357,389550,"0.0-3.115-1.115","harwcqff5uyjqee",611,"51.csv","","null","resources/maskTrios/L2BB.jpg","null","",NA,NA,NA,NA,""
"image-keyboard-response",358,390759,"0.0-3.115-2.115","harwcqff5uyjqee",611,"51.csv","","null","resources/images/coin2.png","null","",NA,NA,NA,NA,""
"image-keyboard-response",359,391027,"0.0-3.116-0.116","harwcqff5uyjqee",611,"51.csv","","266.09999990463257","resources/trios/L2T2A3.jpg","39","restless",0.6,0.4,0.6,0.331397045370263,"true"
"image-keyboard-response",360,391444,"0.0-3.116-1.116","harwcqff5uyjqee",611,"51.csv","","null","resources/maskTrios/BBA3.jpg","null","",NA,NA,NA,NA,""
"image-keyboard-response",361,392663,"0.0-3.116-2.116","harwcqff5uyjqee",611,"51.csv","","null","resources/images/coin2.png","null","",NA,NA,NA,NA,""
"image-keyboard-response",362,392860,"0.0-3.117-0.117","harwcqff5uyjqee",611,"51.csv","","195.19999992847443","resources/trios/L1T2A1.jpg","38","restless",0.6,0.4,0.7,0.822911704814906,"false"
"image-keyboard-response",363,393272,"0.0-3.117-1.117","harwcqff5uyjqee",611,"51.csv","","null","resources/maskTrios/BT2B.jpg","null","",NA,NA,NA,NA,""
"image-keyboard-response",364,394485,"0.0-3.117-2.117","harwcqff5uyjqee",611,"51.csv","","null","resources/images/fishbone.png","null","",NA,NA,NA,NA,""
"image-keyboard-response",365,394832,"0.0-3.118-0.118","harwcqff5uyjqee",611,"51.csv","","344.89999997615814","resources/trios/L1T1A1.jpg","39","restless",0.6,0.4,0.7,0.722143413695535,"false"
"image-keyboard-response",366,395245,"0.0-3.118-1.118","harwcqff5uyjqee",611,"51.csv","","null","resources/maskTrios/BBA1.jpg","null","",NA,NA,NA,NA,""
"image-keyboard-response",367,396453,"0.0-3.118-2.118","harwcqff5uyjqee",611,"51.csv","","null","resources/images/fishbone.png","null","",NA,NA,NA,NA,""
"image-keyboard-response",368,396839,"0.0-3.119-0.119","harwcqff5uyjqee",611,"51.csv","","384.7000000476837","resources/trios/L1T1A3.jpg","37","restless",0.6,0.4,0.6,0.947721124388926,"false"
"image-keyboard-response",369,397250,"0.0-3.119-1.119","harwcqff5uyjqee",611,"51.csv","","null","resources/maskTrios/L1BB.jpg","null","",NA,NA,NA,NA,""
"image-keyboard-response",370,398463,"0.0-3.119-2.119","harwcqff5uyjqee",611,"51.csv","","null","resources/images/fishbone.png","null","",NA,NA,NA,NA,""
"image-keyboard-response",371,399474,"0.0-3.120-0.120","harwcqff5uyjqee",611,"51.csv","","1009.1000000238419","resources/trios/L2T2A1.jpg","37","restless",0.6,0.4,0.6,0.407084370752647,"true"
"image-keyboard-response",372,399894,"0.0-3.120-1.120","harwcqff5uyjqee",611,"51.csv","","null","resources/maskTrios/L2BB.jpg","null","",NA,NA,NA,NA,""
"image-keyboard-response",373,401102,"0.0-3.120-2.120","harwcqff5uyjqee",611,"51.csv","","null","resources/images/coin2.png","null","",NA,NA,NA,NA,""
"image-keyboard-response",374,401911,"0.0-3.121-0.121","harwcqff5uyjqee",611,"51.csv","","807.3999999761581","resources/trios/L2T1A1.jpg","39","restless",0.6,0.4,0.6,0.655673529983756,"false"
"image-keyboard-response",375,402317,"0.0-3.121-1.121","harwcqff5uyjqee",611,"51.csv","","null","resources/maskTrios/BBA1.jpg","null","",NA,NA,NA,NA,""
"image-keyboard-response",376,403530,"0.0-3.121-2.121","harwcqff5uyjqee",611,"51.csv","","null","resources/images/fishbone.png","null","",NA,NA,NA,NA,""
"image-keyboard-response",377,404305,"0.0-3.122-0.122","harwcqff5uyjqee",611,"51.csv","","773.8000000715256","resources/trios/L2T2A1.jpg","37","restless",0.6,0.4,0.6,0.0703946358005694,"true"
"image-keyboard-response",378,404710,"0.0-3.122-1.122","harwcqff5uyjqee",611,"51.csv","","null","resources/maskTrios/L2BB.jpg","null","",NA,NA,NA,NA,""
"image-keyboard-response",379,405923,"0.0-3.122-2.122","harwcqff5uyjqee",611,"51.csv","","null","resources/images/coin2.png","null","",NA,NA,NA,NA,""
"image-keyboard-response",380,406446,"0.0-3.123-0.123","harwcqff5uyjqee",611,"51.csv","","521.7000000476837","resources/trios/L2T1A1.jpg","37","restless",0.6,0.4,0.6,0.273401579531619,"true"
"image-keyboard-response",381,406853,"0.0-3.123-1.123","harwcqff5uyjqee",611,"51.csv","","null","resources/maskTrios/L2BB.jpg","null","",NA,NA,NA,NA,""
"image-keyboard-response",382,408063,"0.0-3.123-2.123","harwcqff5uyjqee",611,"51.csv","","null","resources/images/coin2.png","null","",NA,NA,NA,NA,""
"image-keyboard-response",383,409324,"0.0-3.124-0.124","harwcqff5uyjqee",611,"51.csv","","1259.8000000715256","resources/trios/L1T2A1.jpg","38","restless",0.6,0.4,0.6,0.100311574675995,"true"
"image-keyboard-response",384,409736,"0.0-3.124-1.124","harwcqff5uyjqee",611,"51.csv","","null","resources/maskTrios/BT2B.jpg","null","",NA,NA,NA,NA,""
"image-keyboard-response",385,410950,"0.0-3.124-2.124","harwcqff5uyjqee",611,"51.csv","","null","resources/images/coin2.png","null","",NA,NA,NA,NA,""
"image-keyboard-response",386,412178,"0.0-3.125-0.125","harwcqff5uyjqee",611,"51.csv","","1226.3999999761581","resources/trios/L2T2A3.jpg","37","restless",0.6,0.4,0.5,0.403089638640169,"true"
"image-keyboard-response",387,412601,"0.0-3.125-1.125","harwcqff5uyjqee",611,"51.csv","","null","resources/maskTrios/L2BB.jpg","null","",NA,NA,NA,NA,""
"image-keyboard-response",388,413815,"0.0-3.125-2.125","harwcqff5uyjqee",611,"51.csv","","null","resources/images/coin2.png","null","",NA,NA,NA,NA,""
"image-keyboard-response",389,415512,"0.0-3.126-0.126","harwcqff5uyjqee",611,"51.csv","","1696","resources/trios/L2T2A3.jpg","38","restless",0.5,0.3,0.4,0.419097133214293,"false"
"image-keyboard-response",390,415916,"0.0-3.126-1.126","harwcqff5uyjqee",611,"51.csv","","null","resources/maskTrios/BT2B.jpg","null","",NA,NA,NA,NA,""
"image-keyboard-response",391,417129,"0.0-3.126-2.126","harwcqff5uyjqee",611,"51.csv","","null","resources/images/fishbone.png","null","",NA,NA,NA,NA,""
"image-keyboard-response",392,418096,"0.0-3.127-0.127","harwcqff5uyjqee",611,"51.csv","","965.2000000476837","resources/trios/L1T1A3.jpg","38","restless",0.5,0.3,0.3,0.864026064109219,"false"
"image-keyboard-response",393,418511,"0.0-3.127-1.127","harwcqff5uyjqee",611,"51.csv","","null","resources/maskTrios/BT1B.jpg","null","",NA,NA,NA,NA,""
"image-keyboard-response",394,419724,"0.0-3.127-2.127","harwcqff5uyjqee",611,"51.csv","","null","resources/images/fishbone.png","null","",NA,NA,NA,NA,""
"image-keyboard-response",395,421110,"0.0-3.128-0.128","harwcqff5uyjqee",611,"51.csv","","1383.7999999523163","resources/trios/L1T2A1.jpg","39","restless",0.5,0.3,0.3,0.981190562955502,"false"
"image-keyboard-response",396,421517,"0.0-3.128-1.128","harwcqff5uyjqee",611,"51.csv","","null","resources/maskTrios/BBA1.jpg","null","",NA,NA,NA,NA,""
"image-keyboard-response",397,422734,"0.0-3.128-2.128","harwcqff5uyjqee",611,"51.csv","","null","resources/images/fishbone.png","null","",NA,NA,NA,NA,""
"image-keyboard-response",398,423293,"0.0-3.129-0.129","harwcqff5uyjqee",611,"51.csv","","557.3999999761581","resources/trios/L2T2A1.jpg","37","restless",0.5,0.3,0.3,0.41616621315371,"true"
"image-keyboard-response",399,423702,"0.0-3.129-1.129","harwcqff5uyjqee",611,"51.csv","","null","resources/maskTrios/L2BB.jpg","null","",NA,NA,NA,NA,""
"image-keyboard-response",400,424913,"0.0-3.129-2.129","harwcqff5uyjqee",611,"51.csv","","null","resources/images/coin2.png","null","",NA,NA,NA,NA,""
"image-keyboard-response",401,425452,"0.0-3.130-0.130","harwcqff5uyjqee",611,"51.csv","","537.6000000238419","resources/trios/L2T1A3.jpg","37","restless",0.5,0.3,0.3,0.660805237235667,"false"
"image-keyboard-response",402,425863,"0.0-3.130-1.130","harwcqff5uyjqee",611,"51.csv","","null","resources/maskTrios/L2BB.jpg","null","",NA,NA,NA,NA,""
"image-keyboard-response",403,427072,"0.0-3.130-2.130","harwcqff5uyjqee",611,"51.csv","","null","resources/images/fishbone.png","null","",NA,NA,NA,NA,""
"image-keyboard-response",404,427956,"0.0-3.131-0.131","harwcqff5uyjqee",611,"51.csv","","882.6000000238419","resources/trios/L2T1A3.jpg","38","restless",0.5,0.3,0.3,0.400843157038683,"false"
"image-keyboard-response",405,428364,"0.0-3.131-1.131","harwcqff5uyjqee",611,"51.csv","","null","resources/maskTrios/BT1B.jpg","null","",NA,NA,NA,NA,""
"image-keyboard-response",406,429581,"0.0-3.131-2.131","harwcqff5uyjqee",611,"51.csv","","null","resources/images/fishbone.png","null","",NA,NA,NA,NA,""
"image-keyboard-response",407,430102,"0.0-3.132-0.132","harwcqff5uyjqee",611,"51.csv","","519.2000000476837","resources/trios/L1T1A1.jpg","39","restless",0.5,0.3,0.3,0.828158478404411,"false"
"image-keyboard-response",408,430511,"0.0-3.132-1.132","harwcqff5uyjqee",611,"51.csv","","null","resources/maskTrios/BBA1.jpg","null","",NA,NA,NA,NA,""
"image-keyboard-response",409,431717,"0.0-3.132-2.132","harwcqff5uyjqee",611,"51.csv","","null","resources/images/fishbone.png","null","",NA,NA,NA,NA,""
"image-keyboard-response",410,432247,"0.0-3.133-0.133","harwcqff5uyjqee",611,"51.csv","","529","resources/trios/L2T2A3.jpg","38","restless",0.5,0.3,0.3,0.899093834284031,"false"
"image-keyboard-response",411,432653,"0.0-3.133-1.133","harwcqff5uyjqee",611,"51.csv","","null","resources/maskTrios/BT2B.jpg","null","",NA,NA,NA,NA,""
"image-keyboard-response",412,433868,"0.0-3.133-2.133","harwcqff5uyjqee",611,"51.csv","","null","resources/images/fishbone.png","null","",NA,NA,NA,NA,""
"image-keyboard-response",413,434306,"0.0-3.134-0.134","harwcqff5uyjqee",611,"51.csv","","436.2999999523163","resources/trios/L2T1A1.jpg","37","restless",0.5,0.3,0.3,0.0703382537777171,"true"
"image-keyboard-response",414,434720,"0.0-3.134-1.134","harwcqff5uyjqee",611,"51.csv","","null","resources/maskTrios/L2BB.jpg","null","",NA,NA,NA,NA,""
"image-keyboard-response",415,435930,"0.0-3.134-2.134","harwcqff5uyjqee",611,"51.csv","","null","resources/images/coin2.png","null","",NA,NA,NA,NA,""
"image-keyboard-response",416,436324,"0.0-3.135-0.135","harwcqff5uyjqee",611,"51.csv","","391.7999999523163","resources/trios/L1T1A1.jpg","39","restless",0.5,0.3,0.3,0.11712711904948,"true"
"image-keyboard-response",417,436744,"0.0-3.135-1.135","harwcqff5uyjqee",611,"51.csv","","null","resources/maskTrios/BBA1.jpg","null","",NA,NA,NA,NA,""
"image-keyboard-response",418,437962,"0.0-3.135-2.135","harwcqff5uyjqee",611,"51.csv","","null","resources/images/coin2.png","null","",NA,NA,NA,NA,""
"image-keyboard-response",419,438357,"0.0-3.136-0.136","harwcqff5uyjqee",611,"51.csv","","393.59999990463257","resources/trios/L1T1A1.jpg","39","restless",0.6,0.3,0.3,0.503051161311823,"false"
"image-keyboard-response",420,438773,"0.0-3.136-1.136","harwcqff5uyjqee",611,"51.csv","","null","resources/maskTrios/BBA1.jpg","null","",NA,NA,NA,NA,""
"image-keyboard-response",421,439985,"0.0-3.136-2.136","harwcqff5uyjqee",611,"51.csv","","null","resources/images/fishbone.png","null","",NA,NA,NA,NA,""
"image-keyboard-response",422,440633,"0.0-3.137-0.137","harwcqff5uyjqee",611,"51.csv","","645.8999999761581","resources/trios/L2T2A3.jpg","38","restless",0.6,0.3,0.3,0.0682312276220023,"true"
"image-keyboard-response",423,441050,"0.0-3.137-1.137","harwcqff5uyjqee",611,"51.csv","","null","resources/maskTrios/BT2B.jpg","null","",NA,NA,NA,NA,""
"image-keyboard-response",424,442259,"0.0-3.137-2.137","harwcqff5uyjqee",611,"51.csv","","null","resources/images/coin2.png","null","",NA,NA,NA,NA,""
"image-keyboard-response",425,442797,"0.0-3.138-0.138","harwcqff5uyjqee",611,"51.csv","","535.6000000238419","resources/trios/L1T2A1.jpg","37","restless",0.6,0.3,0.3,0.18262422738895,"true"
"image-keyboard-response",426,443218,"0.0-3.138-1.138","harwcqff5uyjqee",611,"51.csv","","null","resources/maskTrios/L1BB.jpg","null","",NA,NA,NA,NA,""
"image-keyboard-response",427,444436,"0.0-3.138-2.138","harwcqff5uyjqee",611,"51.csv","","null","resources/images/coin2.png","null","",NA,NA,NA,NA,""
"image-keyboard-response",428,444758,"0.0-3.139-0.139","harwcqff5uyjqee",611,"51.csv","","320.59999990463257","resources/trios/L1T2A3.jpg","37","restless",0.6,0.3,0.3,0.472746533699133,"true"
"image-keyboard-response",429,445173,"0.0-3.139-1.139","harwcqff5uyjqee",611,"51.csv","","null","resources/maskTrios/L1BB.jpg","null","",NA,NA,NA,NA,""
"image-keyboard-response",430,446385,"0.0-3.139-2.139","harwcqff5uyjqee",611,"51.csv","","null","resources/images/coin2.png","null","",NA,NA,NA,NA,""
"image-keyboard-response",431,446680,"0.0-3.140-0.140","harwcqff5uyjqee",611,"51.csv","","293.09999990463257","resources/trios/L2T1A1.jpg","39","restless",0.6,0.3,0.3,0.149108607199225,"true"
"image-keyboard-response",432,447096,"0.0-3.140-1.140","harwcqff5uyjqee",611,"51.csv","","null","resources/maskTrios/BBA1.jpg","null","",NA,NA,NA,NA,""
"image-keyboard-response",433,448306,"0.0-3.140-2.140","harwcqff5uyjqee",611,"51.csv","","null","resources/images/coin2.png","null","",NA,NA,NA,NA,""
"image-keyboard-response",434,448623,"0.0-3.141-0.141","harwcqff5uyjqee",611,"51.csv","","316","resources/trios/L1T1A3.jpg","39","restless",0.7,0.3,0.3,0.664412592179747,"false"
"image-keyboard-response",435,449035,"0.0-3.141-1.141","harwcqff5uyjqee",611,"51.csv","","null","resources/maskTrios/BBA3.jpg","null","",NA,NA,NA,NA,""
"image-keyboard-response",436,450253,"0.0-3.141-2.141","harwcqff5uyjqee",611,"51.csv","","null","resources/images/fishbone.png","null","",NA,NA,NA,NA,""
"image-keyboard-response",437,450593,"0.0-3.142-0.142","harwcqff5uyjqee",611,"51.csv","","338.7000000476837","resources/trios/L2T2A1.jpg","39","restless",0.7,0.3,0.4,0.84389708295289,"false"
"image-keyboard-response",438,450998,"0.0-3.142-1.142","harwcqff5uyjqee",611,"51.csv","","null","resources/maskTrios/BBA1.jpg","null","",NA,NA,NA,NA,""
"image-keyboard-response",439,452203,"0.0-3.142-2.142","harwcqff5uyjqee",611,"51.csv","","null","resources/images/fishbone.png","null","",NA,NA,NA,NA,""
"image-keyboard-response",440,452501,"0.0-3.143-0.143","harwcqff5uyjqee",611,"51.csv","","297.10000002384186","resources/trios/L2T1A1.jpg","38","restless",0.7,0.3,0.4,0.239865781091306,"true"
"image-keyboard-response",441,452917,"0.0-3.143-1.143","harwcqff5uyjqee",611,"51.csv","","null","resources/maskTrios/BT1B.jpg","null","",NA,NA,NA,NA,""
"image-keyboard-response",442,454122,"0.0-3.143-2.143","harwcqff5uyjqee",611,"51.csv","","null","resources/images/coin2.png","null","",NA,NA,NA,NA,""
"image-keyboard-response",443,454693,"0.0-3.144-0.144","harwcqff5uyjqee",611,"51.csv","","569.4000000953674","resources/trios/L1T1A3.jpg","38","restless",0.7,0.3,0.4,0.524222849243029,"false"
"image-keyboard-response",444,455108,"0.0-3.144-1.144","harwcqff5uyjqee",611,"51.csv","","null","resources/maskTrios/BT1B.jpg","null","",NA,NA,NA,NA,""
"image-keyboard-response",445,456323,"0.0-3.144-2.144","harwcqff5uyjqee",611,"51.csv","","null","resources/images/fishbone.png","null","",NA,NA,NA,NA,""
"image-keyboard-response",446,456576,"0.0-3.145-0.145","harwcqff5uyjqee",611,"51.csv","","251.89999997615814","resources/trios/L1T1A1.jpg","38","restless",0.8,0.3,0.4,0.165120334501887,"true"
"image-keyboard-response",447,456987,"0.0-3.145-1.145","harwcqff5uyjqee",611,"51.csv","","null","resources/maskTrios/BT1B.jpg","null","",NA,NA,NA,NA,""
"image-keyboard-response",448,458197,"0.0-3.145-2.145","harwcqff5uyjqee",611,"51.csv","","null","resources/images/coin2.png","null","",NA,NA,NA,NA,""
"image-keyboard-response",449,458598,"0.0-3.146-0.146","harwcqff5uyjqee",611,"51.csv","","399.7999999523163","resources/trios/L2T2A3.jpg","38","restless",0.8,0.4,0.4,0.343749398282084,"true"
"image-keyboard-response",450,459015,"0.0-3.146-1.146","harwcqff5uyjqee",611,"51.csv","","null","resources/maskTrios/BT2B.jpg","null","",NA,NA,NA,NA,""
"image-keyboard-response",451,460227,"0.0-3.146-2.146","harwcqff5uyjqee",611,"51.csv","","null","resources/images/coin2.png","null","",NA,NA,NA,NA,""
"image-keyboard-response",452,460692,"0.0-3.147-0.147","harwcqff5uyjqee",611,"51.csv","","463.60000002384186","resources/trios/L1T2A1.jpg","38","restless",0.8,0.4,0.4,0.979827594625553,"false"
"image-keyboard-response",453,461108,"0.0-3.147-1.147","harwcqff5uyjqee",611,"51.csv","","null","resources/maskTrios/BT2B.jpg","null","",NA,NA,NA,NA,""
"image-keyboard-response",454,462324,"0.0-3.147-2.147","harwcqff5uyjqee",611,"51.csv","","null","resources/images/fishbone.png","null","",NA,NA,NA,NA,""
"image-keyboard-response",455,462628,"0.0-3.148-0.148","harwcqff5uyjqee",611,"51.csv","","302.89999997615814","resources/trios/L1T2A3.jpg","37","restless",0.8,0.4,0.4,0.67338694893286,"true"
"image-keyboard-response",456,463044,"0.0-3.148-1.148","harwcqff5uyjqee",611,"51.csv","","null","resources/maskTrios/L1BB.jpg","null","",NA,NA,NA,NA,""
"image-keyboard-response",457,464262,"0.0-3.148-2.148","harwcqff5uyjqee",611,"51.csv","","null","resources/images/coin2.png","null","",NA,NA,NA,NA,""
"image-keyboard-response",458,464641,"0.0-3.149-0.149","harwcqff5uyjqee",611,"51.csv","","377","resources/trios/L1T1A1.jpg","39","restless",0.8,0.4,0.4,0.714840818249075,"false"
"image-keyboard-response",459,465049,"0.0-3.149-1.149","harwcqff5uyjqee",611,"51.csv","","null","resources/maskTrios/BBA1.jpg","null","",NA,NA,NA,NA,""
"image-keyboard-response",460,466268,"0.0-3.149-2.149","harwcqff5uyjqee",611,"51.csv","","null","resources/images/fishbone.png","null","",NA,NA,NA,NA,""
"image-keyboard-response",461,466621,"0.0-3.150-0.150","harwcqff5uyjqee",611,"51.csv","","351.60000002384186","resources/trios/L1T1A1.jpg","37","restless",0.8,0.4,0.4,0.396613435719358,"true"
"image-keyboard-response",462,467031,"0.0-3.150-1.150","harwcqff5uyjqee",611,"51.csv","","null","resources/maskTrios/L1BB.jpg","null","",NA,NA,NA,NA,""
"image-keyboard-response",463,468246,"0.0-3.150-2.150","harwcqff5uyjqee",611,"51.csv","","null","resources/images/coin2.png","null","",NA,NA,NA,NA,""
"image-keyboard-response",464,469110,"0.0-3.151-0.151","harwcqff5uyjqee",611,"51.csv","","862.7000000476837","resources/trios/L1T1A1.jpg","38","restless",0.8,0.4,0.4,0.98957501751075,"false"
"image-keyboard-response",465,469527,"0.0-3.151-1.151","harwcqff5uyjqee",611,"51.csv","","null","resources/maskTrios/BT1B.jpg","null","",NA,NA,NA,NA,""
"image-keyboard-response",466,470737,"0.0-3.151-2.151","harwcqff5uyjqee",611,"51.csv","","null","resources/images/fishbone.png","null","",NA,NA,NA,NA,""
"image-keyboard-response",467,519055,"0.0-3.152-0.152","harwcqff5uyjqee",611,"51.csv","","48316.89999997616","resources/trios/L2T2A3.jpg","38","restless",0.8,0.4,0.4,0.640752047975005,"false"
"image-keyboard-response",468,519477,"0.0-3.152-1.152","harwcqff5uyjqee",611,"51.csv","","null","resources/maskTrios/BT2B.jpg","null","",NA,NA,NA,NA,""
"image-keyboard-response",469,520690,"0.0-3.152-2.152","harwcqff5uyjqee",611,"51.csv","","null","resources/images/fishbone.png","null","",NA,NA,NA,NA,""
"image-keyboard-response",470,521265,"0.0-3.153-0.153","harwcqff5uyjqee",611,"51.csv","","572.5999999046326","resources/trios/L1T2A1.jpg","39","restless",0.8,0.4,0.4,0.35269067545299,"true"
"image-keyboard-response",471,521677,"0.0-3.153-1.153","harwcqff5uyjqee",611,"51.csv","","null","resources/maskTrios/BBA1.jpg","null","",NA,NA,NA,NA,""
"image-keyboard-response",472,522886,"0.0-3.153-2.153","harwcqff5uyjqee",611,"51.csv","","null","resources/images/coin2.png","null","",NA,NA,NA,NA,""
"image-keyboard-response",473,523282,"0.0-3.154-0.154","harwcqff5uyjqee",611,"51.csv","","394.1999999284744","resources/trios/L2T2A1.jpg","39","restless",0.8,0.4,0.4,0.962560300749487,"false"
"image-keyboard-response",474,523702,"0.0-3.154-1.154","harwcqff5uyjqee",611,"51.csv","","null","resources/maskTrios/BBA1.jpg","null","",NA,NA,NA,NA,""
"image-keyboard-response",475,524914,"0.0-3.154-2.154","harwcqff5uyjqee",611,"51.csv","","null","resources/images/fishbone.png","null","",NA,NA,NA,NA,""
"image-keyboard-response",476,525305,"0.0-3.155-0.155","harwcqff5uyjqee",611,"51.csv","","389.2999999523163","resources/trios/L1T2A1.jpg","38","restless",0.8,0.4,0.4,0.27087623204929,"true"
"image-keyboard-response",477,525719,"0.0-3.155-1.155","harwcqff5uyjqee",611,"51.csv","","null","resources/maskTrios/BT2B.jpg","null","",NA,NA,NA,NA,""
"image-keyboard-response",478,526930,"0.0-3.155-2.155","harwcqff5uyjqee",611,"51.csv","","null","resources/images/coin2.png","null","",NA,NA,NA,NA,""
"image-keyboard-response",479,526999,"0.0-3.156-0.156","harwcqff5uyjqee",611,"51.csv","","67","resources/trios/L1T1A3.jpg","37","restless",0.8,0.4,0.4,0.964960924824926,"false"
"image-keyboard-response",480,527410,"0.0-3.156-1.156","harwcqff5uyjqee",611,"51.csv","","null","resources/maskTrios/L1BB.jpg","null","",NA,NA,NA,NA,""
"image-keyboard-response",481,528628,"0.0-3.156-2.156","harwcqff5uyjqee",611,"51.csv","","null","resources/images/fishbone.png","null","",NA,NA,NA,NA,""
"image-keyboard-response",482,528821,"0.0-3.157-0.157","harwcqff5uyjqee",611,"51.csv","","190.89999997615814","resources/trios/L1T1A3.jpg","38","restless",0.8,0.4,0.4,0.00101586862112368,"true"
"image-keyboard-response",483,529237,"0.0-3.157-1.157","harwcqff5uyjqee",611,"51.csv","","null","resources/maskTrios/BT1B.jpg","null","",NA,NA,NA,NA,""
"image-keyboard-response",484,530440,"0.0-3.157-2.157","harwcqff5uyjqee",611,"51.csv","","null","resources/images/coin2.png","null","",NA,NA,NA,NA,""
"image-keyboard-response",485,530695,"0.0-3.158-0.158","harwcqff5uyjqee",611,"51.csv","","253.60000002384186","resources/trios/L2T1A3.jpg","39","restless",0.8,0.4,0.4,0.288487147783896,"true"
"image-keyboard-response",486,531106,"0.0-3.158-1.158","harwcqff5uyjqee",611,"51.csv","","null","resources/maskTrios/BBA3.jpg","null","",NA,NA,NA,NA,""
"image-keyboard-response",487,532321,"0.0-3.158-2.158","harwcqff5uyjqee",611,"51.csv","","null","resources/images/coin2.png","null","",NA,NA,NA,NA,""
"image-keyboard-response",488,532593,"0.0-3.159-0.159","harwcqff5uyjqee",611,"51.csv","","270.8000000715256","resources/trios/L1T1A3.jpg","39","restless",0.7,0.4,0.5,0.845303873234895,"false"
"image-keyboard-response",489,533010,"0.0-3.159-1.159","harwcqff5uyjqee",611,"51.csv","","null","resources/maskTrios/BBA3.jpg","null","",NA,NA,NA,NA,""
"image-keyboard-response",490,534217,"0.0-3.159-2.159","harwcqff5uyjqee",611,"51.csv","","null","resources/images/fishbone.png","null","",NA,NA,NA,NA,""
"image-keyboard-response",491,534429,"0.0-3.160-0.160","harwcqff5uyjqee",611,"51.csv","","211.09999990463257","resources/trios/L1T2A1.jpg","38","restless",0.7,0.4,0.5,0.953619255870421,"false"
"image-keyboard-response",492,534836,"0.0-3.160-1.160","harwcqff5uyjqee",611,"51.csv","","null","resources/maskTrios/BT2B.jpg","null","",NA,NA,NA,NA,""
"image-keyboard-response",493,536050,"0.0-3.160-2.160","harwcqff5uyjqee",611,"51.csv","","null","resources/images/fishbone.png","null","",NA,NA,NA,NA,""
"image-keyboard-response",494,536416,"0.0-3.161-0.161","harwcqff5uyjqee",611,"51.csv","","364.7000000476837","resources/trios/L1T1A1.jpg","37","restless",0.7,0.4,0.5,0.0388755279357931,"true"
"image-keyboard-response",495,536829,"0.0-3.161-1.161","harwcqff5uyjqee",611,"51.csv","","null","resources/maskTrios/L1BB.jpg","null","",NA,NA,NA,NA,""
"image-keyboard-response",496,538034,"0.0-3.161-2.161","harwcqff5uyjqee",611,"51.csv","","null","resources/images/coin2.png","null","",NA,NA,NA,NA,""
"image-keyboard-response",497,538346,"0.0-3.162-0.162","harwcqff5uyjqee",611,"51.csv","","311","resources/trios/L1T2A3.jpg","37","restless",0.7,0.4,0.5,0.711698499516292,"false"
"image-keyboard-response",498,538754,"0.0-3.162-1.162","harwcqff5uyjqee",611,"51.csv","","null","resources/maskTrios/L1BB.jpg","null","",NA,NA,NA,NA,""
"image-keyboard-response",499,539968,"0.0-3.162-2.162","harwcqff5uyjqee",611,"51.csv","","null","resources/images/fishbone.png","null","",NA,NA,NA,NA,""
"image-keyboard-response",500,540236,"0.0-3.163-0.163","harwcqff5uyjqee",611,"51.csv","","267.2000000476837","resources/trios/L1T1A3.jpg","38","restless",0.7,0.4,0.5,0.80694057506687,"false"
"image-keyboard-response",501,540651,"0.0-3.163-1.163","harwcqff5uyjqee",611,"51.csv","","null","resources/maskTrios/BT1B.jpg","null","",NA,NA,NA,NA,""
"image-keyboard-response",502,541868,"0.0-3.163-2.163","harwcqff5uyjqee",611,"51.csv","","null","resources/images/fishbone.png","null","",NA,NA,NA,NA,""
"image-keyboard-response",503,542029,"0.0-3.164-0.164","harwcqff5uyjqee",611,"51.csv","","159.20000004768372","resources/trios/L1T2A1.jpg","39","restless",0.7,0.4,0.6,0.341237633165202,"true"
"image-keyboard-response",504,542444,"0.0-3.164-1.164","harwcqff5uyjqee",611,"51.csv","","null","resources/maskTrios/BBA1.jpg","null","",NA,NA,NA,NA,""
"image-keyboard-response",505,543659,"0.0-3.164-2.164","harwcqff5uyjqee",611,"51.csv","","null","resources/images/coin2.png","null","",NA,NA,NA,NA,""
"image-keyboard-response",506,543938,"0.0-3.165-0.165","harwcqff5uyjqee",611,"51.csv","","277.1999999284744","resources/trios/L2T1A1.jpg","39","restless",0.7,0.4,0.6,0.00829692409104443,"true"
"image-keyboard-response",507,544346,"0.0-3.165-1.165","harwcqff5uyjqee",611,"51.csv","","null","resources/maskTrios/BBA1.jpg","null","",NA,NA,NA,NA,""
"image-keyboard-response",508,545568,"0.0-3.165-2.165","harwcqff5uyjqee",611,"51.csv","","null","resources/images/coin2.png","null","",NA,NA,NA,NA,""
"image-keyboard-response",509,545948,"0.0-3.166-0.166","harwcqff5uyjqee",611,"51.csv","","378.2999999523163","resources/trios/L2T2A3.jpg","39","restless",0.7,0.4,0.6,0.291035504512835,"true"
"image-keyboard-response",510,546361,"0.0-3.166-1.166","harwcqff5uyjqee",611,"51.csv","","null","resources/maskTrios/BBA3.jpg","null","",NA,NA,NA,NA,""
"image-keyboard-response",511,547572,"0.0-3.166-2.166","harwcqff5uyjqee",611,"51.csv","","null","resources/images/coin2.png","null","",NA,NA,NA,NA,""
"image-keyboard-response",512,547960,"0.0-3.167-0.167","harwcqff5uyjqee",611,"51.csv","","386.89999997615814","resources/trios/L2T2A3.jpg","39","restless",0.7,0.4,0.6,0.963086749803022,"false"
"image-keyboard-response",513,548373,"0.0-3.167-1.167","harwcqff5uyjqee",611,"51.csv","","null","resources/maskTrios/BBA3.jpg","null","",NA,NA,NA,NA,""
"image-keyboard-response",514,549590,"0.0-3.167-2.167","harwcqff5uyjqee",611,"51.csv","","null","resources/images/fishbone.png","null","",NA,NA,NA,NA,""
"image-keyboard-response",515,549927,"0.0-3.168-0.168","harwcqff5uyjqee",611,"51.csv","","336.2000000476837","resources/trios/L2T2A1.jpg","37","restless",0.7,0.4,0.5,0.853729790781155,"false"
"image-keyboard-response",516,550343,"0.0-3.168-1.168","harwcqff5uyjqee",611,"51.csv","","null","resources/maskTrios/L2BB.jpg","null","",NA,NA,NA,NA,""
"image-keyboard-response",517,551557,"0.0-3.168-2.168","harwcqff5uyjqee",611,"51.csv","","null","resources/images/fishbone.png","null","",NA,NA,NA,NA,""
"image-keyboard-response",518,551686,"0.0-3.169-0.169","harwcqff5uyjqee",611,"51.csv","","127.70000004768372","resources/trios/L1T1A3.jpg","38","restless",0.7,0.4,0.5,0.403598426206326,"false"
"image-keyboard-response",519,552098,"0.0-3.169-1.169","harwcqff5uyjqee",611,"51.csv","","null","resources/maskTrios/BT1B.jpg","null","",NA,NA,NA,NA,""
"image-keyboard-response",520,553308,"0.0-3.169-2.169","harwcqff5uyjqee",611,"51.csv","","null","resources/images/fishbone.png","null","",NA,NA,NA,NA,""
"image-keyboard-response",521,553548,"0.0-3.170-0.170","harwcqff5uyjqee",611,"51.csv","","238.60000002384186","resources/trios/L2T2A1.jpg","39","restless",0.7,0.4,0.5,0.278941699224109,"true"
"image-keyboard-response",522,553966,"0.0-3.170-1.170","harwcqff5uyjqee",611,"51.csv","","null","resources/maskTrios/BBA1.jpg","null","",NA,NA,NA,NA,""
"image-keyboard-response",523,555185,"0.0-3.170-2.170","harwcqff5uyjqee",611,"51.csv","","null","resources/images/coin2.png","null","",NA,NA,NA,NA,""
"image-keyboard-response",524,555393,"0.0-3.171-0.171","harwcqff5uyjqee",611,"51.csv","","206.70000004768372","resources/trios/L2T2A3.jpg","39","restless",0.6,0.4,0.5,0.423615417387697,"true"
"image-keyboard-response",525,555809,"0.0-3.171-1.171","harwcqff5uyjqee",611,"51.csv","","null","resources/maskTrios/BBA3.jpg","null","",NA,NA,NA,NA,""
"image-keyboard-response",526,557031,"0.0-3.171-2.171","harwcqff5uyjqee",611,"51.csv","","null","resources/images/coin2.png","null","",NA,NA,NA,NA,""
"image-keyboard-response",527,557283,"0.0-3.172-0.172","harwcqff5uyjqee",611,"51.csv","","250.39999997615814","resources/trios/L1T2A3.jpg","37","restless",0.6,0.4,0.5,0.668470958494316,"false"
"image-keyboard-response",528,557689,"0.0-3.172-1.172","harwcqff5uyjqee",611,"51.csv","","null","resources/maskTrios/L1BB.jpg","null","",NA,NA,NA,NA,""
"image-keyboard-response",529,558910,"0.0-3.172-2.172","harwcqff5uyjqee",611,"51.csv","","null","resources/images/fishbone.png","null","",NA,NA,NA,NA,""
"image-keyboard-response",530,559557,"0.0-3.173-0.173","harwcqff5uyjqee",611,"51.csv","","645.6999999284744","resources/trios/L2T2A1.jpg","38","restless",0.6,0.4,0.5,0.850934477730823,"false"
"image-keyboard-response",531,559967,"0.0-3.173-1.173","harwcqff5uyjqee",611,"51.csv","","null","resources/maskTrios/BT2B.jpg","null","",NA,NA,NA,NA,""
"image-keyboard-response",532,561179,"0.0-3.173-2.173","harwcqff5uyjqee",611,"51.csv","","null","resources/images/fishbone.png","null","",NA,NA,NA,NA,""
"image-keyboard-response",533,562186,"0.0-3.174-0.174","harwcqff5uyjqee",611,"51.csv","","1005.5","resources/trios/L1T2A3.jpg","37","restless",0.6,0.4,0.5,0.516990573166501,"true"
"image-keyboard-response",534,562603,"0.0-3.174-1.174","harwcqff5uyjqee",611,"51.csv","","null","resources/maskTrios/L1BB.jpg","null","",NA,NA,NA,NA,""
"image-keyboard-response",535,563814,"0.0-3.174-2.174","harwcqff5uyjqee",611,"51.csv","","null","resources/images/coin2.png","null","",NA,NA,NA,NA,""
"image-keyboard-response",536,564499,"0.0-3.175-0.175","harwcqff5uyjqee",611,"51.csv","","683.8000000715256","resources/trios/L2T1A1.jpg","37","restless",0.6,0.4,0.5,0.424732697185824,"true"
"image-keyboard-response",537,564905,"0.0-3.175-1.175","harwcqff5uyjqee",611,"51.csv","","null","resources/maskTrios/L2BB.jpg","null","",NA,NA,NA,NA,""
"image-keyboard-response",538,566117,"0.0-3.175-2.175","harwcqff5uyjqee",611,"51.csv","","null","resources/images/coin2.png","null","",NA,NA,NA,NA,""
"image-keyboard-response",539,566834,"0.0-3.176-0.176","harwcqff5uyjqee",611,"51.csv","","714.7999999523163","resources/trios/L1T1A3.jpg","37","restless",0.6,0.4,0.5,0.753382800840573,"false"
"image-keyboard-response",540,567253,"0.0-3.176-1.176","harwcqff5uyjqee",611,"51.csv","","null","resources/maskTrios/L1BB.jpg","null","",NA,NA,NA,NA,""
"image-keyboard-response",541,568468,"0.0-3.176-2.176","harwcqff5uyjqee",611,"51.csv","","null","resources/images/fishbone.png","null","",NA,NA,NA,NA,""
"image-keyboard-response",542,568918,"0.0-3.177-0.177","harwcqff5uyjqee",611,"51.csv","","448.5","resources/trios/L1T1A3.jpg","39","restless",0.6,0.4,0.5,0.943130182222377,"false"
"image-keyboard-response",543,569324,"0.0-3.177-1.177","harwcqff5uyjqee",611,"51.csv","","null","resources/maskTrios/BBA3.jpg","null","",NA,NA,NA,NA,""
"image-keyboard-response",544,570533,"0.0-3.177-2.177","harwcqff5uyjqee",611,"51.csv","","null","resources/images/fishbone.png","null","",NA,NA,NA,NA,""
"image-keyboard-response",545,570952,"0.0-3.178-0.178","harwcqff5uyjqee",611,"51.csv","","417","resources/trios/L1T1A1.jpg","38","restless",0.6,0.4,0.5,0.0857585191457162,"true"
"image-keyboard-response",546,571355,"0.0-3.178-1.178","harwcqff5uyjqee",611,"51.csv","","null","resources/maskTrios/BT1B.jpg","null","",NA,NA,NA,NA,""
"image-keyboard-response",547,572563,"0.0-3.178-2.178","harwcqff5uyjqee",611,"51.csv","","null","resources/images/coin2.png","null","",NA,NA,NA,NA,""
"image-keyboard-response",548,573057,"0.0-3.179-0.179","harwcqff5uyjqee",611,"51.csv","","492.89999997615814","resources/trios/L1T2A1.jpg","37","restless",0.6,0.4,0.5,0.151052123745416,"true"
"image-keyboard-response",549,573465,"0.0-3.179-1.179","harwcqff5uyjqee",611,"51.csv","","null","resources/maskTrios/L1BB.jpg","null","",NA,NA,NA,NA,""
"image-keyboard-response",550,574682,"0.0-3.179-2.179","harwcqff5uyjqee",611,"51.csv","","null","resources/images/coin2.png","null","",NA,NA,NA,NA,""
"image-keyboard-response",551,575206,"0.0-3.180-0.180","harwcqff5uyjqee",611,"51.csv","","522","resources/trios/L2T2A3.jpg","37","restless",0.6,0.4,0.5,0.608700343868729,"false"
"image-keyboard-response",552,575620,"0.0-3.180-1.180","harwcqff5uyjqee",611,"51.csv","","null","resources/maskTrios/L2BB.jpg","null","",NA,NA,NA,NA,""
"image-keyboard-response",553,576827,"0.0-3.180-2.180","harwcqff5uyjqee",611,"51.csv","","null","resources/images/fishbone.png","null","",NA,NA,NA,NA,""
"image-keyboard-response",554,577306,"0.0-3.181-0.181","harwcqff5uyjqee",611,"51.csv","","478.2000000476837","resources/trios/L2T1A1.jpg","38","restless",0.5,0.4,0.5,0.454801679739873,"false"
"image-keyboard-response",555,577720,"0.0-3.181-1.181","harwcqff5uyjqee",611,"51.csv","","null","resources/maskTrios/BT1B.jpg","null","",NA,NA,NA,NA,""
"image-keyboard-response",556,578933,"0.0-3.181-2.181","harwcqff5uyjqee",611,"51.csv","","null","resources/images/fishbone.png","null","",NA,NA,NA,NA,""
"image-keyboard-response",557,579325,"0.0-3.182-0.182","harwcqff5uyjqee",611,"51.csv","","390.5","resources/trios/L2T1A3.jpg","39","restless",0.5,0.4,0.6,0.419577807489324,"true"
"image-keyboard-response",558,579743,"0.0-3.182-1.182","harwcqff5uyjqee",611,"51.csv","","null","resources/maskTrios/BBA3.jpg","null","",NA,NA,NA,NA,""
"image-keyboard-response",559,580956,"0.0-3.182-2.182","harwcqff5uyjqee",611,"51.csv","","null","resources/images/coin2.png","null","",NA,NA,NA,NA,""
"image-keyboard-response",560,581522,"0.0-3.183-0.183","harwcqff5uyjqee",611,"51.csv","","565.2000000476837","resources/trios/L2T1A1.jpg","37","restless",0.5,0.4,0.6,0.435707562604819,"true"
"image-keyboard-response",561,581935,"0.0-3.183-1.183","harwcqff5uyjqee",611,"51.csv","","null","resources/maskTrios/L2BB.jpg","null","",NA,NA,NA,NA,""
"image-keyboard-response",562,583148,"0.0-3.183-2.183","harwcqff5uyjqee",611,"51.csv","","null","resources/images/coin2.png","null","",NA,NA,NA,NA,""
"image-keyboard-response",563,583609,"0.0-3.184-0.184","harwcqff5uyjqee",611,"51.csv","","460.5","resources/trios/L1T2A3.jpg","39","restless",0.4,0.4,0.6,0.294477491320801,"true"
"image-keyboard-response",564,584019,"0.0-3.184-1.184","harwcqff5uyjqee",611,"51.csv","","null","resources/maskTrios/BBA3.jpg","null","",NA,NA,NA,NA,""
"image-keyboard-response",565,585230,"0.0-3.184-2.184","harwcqff5uyjqee",611,"51.csv","","null","resources/images/coin2.png","null","",NA,NA,NA,NA,""
"image-keyboard-response",566,586101,"0.0-3.185-0.185","harwcqff5uyjqee",611,"51.csv","","868.2999999523163","resources/trios/L1T1A1.jpg","38","restless",0.4,0.4,0.6,0.508936721580552,"false"
"image-keyboard-response",567,586514,"0.0-3.185-1.185","harwcqff5uyjqee",611,"51.csv","","null","resources/maskTrios/BT1B.jpg","null","",NA,NA,NA,NA,""
"image-keyboard-response",568,587729,"0.0-3.185-2.185","harwcqff5uyjqee",611,"51.csv","","null","resources/images/fishbone.png","null","",NA,NA,NA,NA,""
"image-keyboard-response",569,588091,"0.0-3.186-0.186","harwcqff5uyjqee",611,"51.csv","","359.90000009536743","resources/trios/L2T1A3.jpg","38","restless",0.5,0.4,0.6,0.76287025737338,"false"
"image-keyboard-response",570,588499,"0.0-3.186-1.186","harwcqff5uyjqee",611,"51.csv","","null","resources/maskTrios/BT1B.jpg","null","",NA,NA,NA,NA,""
"image-keyboard-response",571,589712,"0.0-3.186-2.186","harwcqff5uyjqee",611,"51.csv","","null","resources/images/fishbone.png","null","",NA,NA,NA,NA,""
"image-keyboard-response",572,590344,"0.0-3.187-0.187","harwcqff5uyjqee",611,"51.csv","","630.6000000238419","resources/trios/L2T1A1.jpg","37","restless",0.5,0.4,0.6,0.487281960743113,"true"
"image-keyboard-response",573,590753,"0.0-3.187-1.187","harwcqff5uyjqee",611,"51.csv","","null","resources/maskTrios/L2BB.jpg","null","",NA,NA,NA,NA,""
"image-keyboard-response",574,591970,"0.0-3.187-2.187","harwcqff5uyjqee",611,"51.csv","","null","resources/images/coin2.png","null","",NA,NA,NA,NA,""
"image-keyboard-response",575,599098,"0.0-3.188-0.188","harwcqff5uyjqee",611,"51.csv","","7125.899999976158","resources/trios/L2T2A1.jpg","37","restless",0.5,0.4,0.6,0.962149885569762,"false"
"image-keyboard-response",576,599516,"0.0-3.188-1.188","harwcqff5uyjqee",611,"51.csv","","null","resources/maskTrios/L2BB.jpg","null","",NA,NA,NA,NA,""
"image-keyboard-response",577,600735,"0.0-3.188-2.188","harwcqff5uyjqee",611,"51.csv","","null","resources/images/fishbone.png","null","",NA,NA,NA,NA,""
"image-keyboard-response",578,603835,"0.0-3.189-0.189","harwcqff5uyjqee",611,"51.csv","","3098.399999976158","resources/trios/L1T1A1.jpg","38","restless",0.5,0.4,0.6,0.672144799379941,"false"
"image-keyboard-response",579,604254,"0.0-3.189-1.189","harwcqff5uyjqee",611,"51.csv","","null","resources/maskTrios/BT1B.jpg","null","",NA,NA,NA,NA,""
"image-keyboard-response",580,605457,"0.0-3.189-2.189","harwcqff5uyjqee",611,"51.csv","","null","resources/images/fishbone.png","null","",NA,NA,NA,NA,""
"image-keyboard-response",581,613931,"0.0-3.190-0.190","harwcqff5uyjqee",611,"51.csv","","8472.200000047684","resources/trios/L2T2A1.jpg","39","restless",0.5,0.4,0.5,0.791505789042617,"false"
"image-keyboard-response",582,614345,"0.0-3.190-1.190","harwcqff5uyjqee",611,"51.csv","","null","resources/maskTrios/BBA1.jpg","null","",NA,NA,NA,NA,""
"image-keyboard-response",583,615562,"0.0-3.190-2.190","harwcqff5uyjqee",611,"51.csv","","null","resources/images/fishbone.png","null","",NA,NA,NA,NA,""
"image-keyboard-response",584,615865,"0.0-3.191-0.191","harwcqff5uyjqee",611,"51.csv","","302.09999990463257","resources/trios/L2T1A3.jpg","38","restless",0.5,0.4,0.5,0.289722121574828,"true"
"image-keyboard-response",585,616275,"0.0-3.191-1.191","harwcqff5uyjqee",611,"51.csv","","null","resources/maskTrios/BT1B.jpg","null","",NA,NA,NA,NA,""
"image-keyboard-response",586,617496,"0.0-3.191-2.191","harwcqff5uyjqee",611,"51.csv","","null","resources/images/coin2.png","null","",NA,NA,NA,NA,""
"image-keyboard-response",587,629234,"0.0-3.192-0.192","harwcqff5uyjqee",611,"51.csv","","11737.5","resources/trios/L1T2A3.jpg","39","restless",0.5,0.4,0.5,0.113131442480765,"true"
"image-keyboard-response",588,629651,"0.0-3.192-1.192","harwcqff5uyjqee",611,"51.csv","","null","resources/maskTrios/BBA3.jpg","null","",NA,NA,NA,NA,""
"image-keyboard-response",589,630871,"0.0-3.192-2.192","harwcqff5uyjqee",611,"51.csv","","null","resources/images/coin2.png","null","",NA,NA,NA,NA,""
"image-keyboard-response",590,639278,"0.0-3.193-0.193","harwcqff5uyjqee",611,"51.csv","","8419.300000071526","resources/trios/L1T1A3.jpg","38","restless",0.5,0.4,0.5,0.852851102546725,"false"
"image-keyboard-response",591,639687,"0.0-3.193-1.193","harwcqff5uyjqee",611,"51.csv","","null","resources/maskTrios/BT1B.jpg","null","",NA,NA,NA,NA,""
"image-keyboard-response",592,640899,"0.0-3.193-2.193","harwcqff5uyjqee",611,"51.csv","","null","resources/images/fishbone.png","null","",NA,NA,NA,NA,""
"image-keyboard-response",593,641765,"0.0-3.194-0.194","harwcqff5uyjqee",611,"51.csv","","864.0999999046326","resources/trios/L2T2A3.jpg","37","restless",0.4,0.5,0.5,0.932737319644289,"false"
"image-keyboard-response",594,642178,"0.0-3.194-1.194","harwcqff5uyjqee",611,"51.csv","","null","resources/maskTrios/L2BB.jpg","null","",NA,NA,NA,NA,""
"image-keyboard-response",595,643401,"0.0-3.194-2.194","harwcqff5uyjqee",611,"51.csv","","null","resources/images/fishbone.png","null","",NA,NA,NA,NA,""
"image-keyboard-response",596,647693,"0.0-3.195-0.195","harwcqff5uyjqee",611,"51.csv","","4291.200000047684","resources/trios/L2T1A1.jpg","38","restless",0.4,0.5,0.5,0.212239641865659,"true"
"image-keyboard-response",597,648112,"0.0-3.195-1.195","harwcqff5uyjqee",611,"51.csv","","null","resources/maskTrios/BT1B.jpg","null","",NA,NA,NA,NA,""
"image-keyboard-response",598,649324,"0.0-3.195-2.195","harwcqff5uyjqee",611,"51.csv","","null","resources/images/coin2.png","null","",NA,NA,NA,NA,""
"image-keyboard-response",599,650879,"0.0-3.196-0.196","harwcqff5uyjqee",611,"51.csv","","1554.6000000238419","resources/trios/L1T2A1.jpg","38","restless",0.4,0.5,0.5,0.419375713204687,"true"
"image-keyboard-response",600,651286,"0.0-3.196-1.196","harwcqff5uyjqee",611,"51.csv","","null","resources/maskTrios/BT2B.jpg","null","",NA,NA,NA,NA,""
"image-keyboard-response",601,652499,"0.0-3.196-2.196","harwcqff5uyjqee",611,"51.csv","","null","resources/images/coin2.png","null","",NA,NA,NA,NA,""
"image-keyboard-response",602,654890,"0.0-3.197-0.197","harwcqff5uyjqee",611,"51.csv","","2389","resources/trios/L2T1A1.jpg","37","restless",0.4,0.6,0.5,0.639753954625391,"false"
"image-keyboard-response",603,655301,"0.0-3.197-1.197","harwcqff5uyjqee",611,"51.csv","","null","resources/maskTrios/L2BB.jpg","null","",NA,NA,NA,NA,""
"image-keyboard-response",604,656507,"0.0-3.197-2.197","harwcqff5uyjqee",611,"51.csv","","null","resources/images/fishbone.png","null","",NA,NA,NA,NA,""
"image-keyboard-response",605,660232,"0.0-3.198-0.198","harwcqff5uyjqee",611,"51.csv","","3723.5","resources/trios/L2T2A1.jpg","38","restless",0.4,0.6,0.5,0.373386187022371,"true"
"image-keyboard-response",606,660648,"0.0-3.198-1.198","harwcqff5uyjqee",611,"51.csv","","null","resources/maskTrios/BT2B.jpg","null","",NA,NA,NA,NA,""
"image-keyboard-response",607,661861,"0.0-3.198-2.198","harwcqff5uyjqee",611,"51.csv","","null","resources/images/coin2.png","null","",NA,NA,NA,NA,""
"image-keyboard-response",608,663491,"0.0-3.199-0.199","harwcqff5uyjqee",611,"51.csv","","1628.5999999046326","resources/trios/L2T2A1.jpg","38","restless",0.4,0.6,0.5,0.0349064984954943,"true"
"image-keyboard-response",609,663913,"0.0-3.199-1.199","harwcqff5uyjqee",611,"51.csv","","null","resources/maskTrios/BT2B.jpg","null","",NA,NA,NA,NA,""
