"trial_type","trial_index","time_elapsed","internal_node_id","subject","walkNumber","success","rt","stimulus","key_press","test_part","leftProb","midProb","rightProb","generatedNum","correct"
"pavlovia",0,1180,"0.0-0.0","jsnakn4m73maafz","9.csv","","","","","",NA,NA,NA,NA,""
"fullscreen",1,8257,"0.0-1.0","jsnakn4m73maafz","9.csv","true","","","","",NA,NA,NA,NA,""
"html-keyboard-response",2,26985,"0.0-2.0-0.0","jsnakn4m73maafz","9.csv","","18726.39999985695","<p><font size='6'>Arrrgh!</p></font><p>Can you be the best pirate? Try to find lots of gold! But beware, some islands have more gold than others, and over time, the island with the most gold may change. Can YOU figure it out? </p><font size='6'>GOOD LUCK, CAPTAIN!!!</font><p>Press any key to begin</p>","186","",NA,NA,NA,NA,""
"image-keyboard-response",3,29989,"0.0-2.0-1.0","jsnakn4m73maafz","9.csv","","null","resources/image_sets/111.png","null","",NA,NA,NA,NA,""
"image-keyboard-response",4,37198,"0.0-2.0-2.0","jsnakn4m73maafz","9.csv","","7207.599999904633","resources/image_sets/left_highlight.png","37","",NA,NA,NA,NA,""
"image-keyboard-response",5,45762,"0.0-2.0-3.0","jsnakn4m73maafz","9.csv","","8562.100000143051","resources/image_sets/mid_highlight.png","38","",NA,NA,NA,NA,""
"image-keyboard-response",6,48436,"0.0-2.0-4.0","jsnakn4m73maafz","9.csv","","2672.800000190735","resources/image_sets/right_highlight.png","39","",NA,NA,NA,NA,""
"image-keyboard-response",7,53413,"0.0-2.0-5.0","jsnakn4m73maafz","9.csv","","4975.299999952316","resources/image_sets/111.png","13","",NA,NA,NA,NA,""
"image-keyboard-response",8,56097,"0.0-2.0-6.0","jsnakn4m73maafz","9.csv","","2683.0999999046326","resources/images/coin2.png","13","",NA,NA,NA,NA,""
"image-keyboard-response",9,58427,"0.0-2.0-7.0","jsnakn4m73maafz","9.csv","","2330.0999999046326","resources/images/fishbone.png","13","",NA,NA,NA,NA,""
"html-keyboard-response",10,65926,"0.0-2.0-8.0","jsnakn4m73maafz","9.csv","","7498","<p>Your first journey will be a long one, but you will get a well deserved break at the end</p><p>After the break you will have four more journeys, but each will be much shorter than the first, and you will have breaks in between each</p><p>Press Enter to begin</p>","13","",NA,NA,NA,NA,""
"image-keyboard-response",11,69880,"0.0-3.0-0.0","jsnakn4m73maafz","9.csv","","3952.2000000476837","resources/trios/L4T4A1.jpg","38","restless",0.7,0.9,0.3,0.281500929477126,"true"
"image-keyboard-response",12,70290,"0.0-3.0-1.0","jsnakn4m73maafz","9.csv","","null","resources/maskTrios/BT4B.jpg","null","",NA,NA,NA,NA,""
"image-keyboard-response",13,71503,"0.0-3.0-2.0","jsnakn4m73maafz","9.csv","","null","resources/images/coin2.png","null","",NA,NA,NA,NA,""
"image-keyboard-response",14,76394,"0.0-3.1-0.1","jsnakn4m73maafz","9.csv","","4889.5","resources/trios/L1T1A3.jpg","37","restless",0.7,0.9,0.3,0.924965022360503,"false"
"image-keyboard-response",15,76804,"0.0-3.1-1.1","jsnakn4m73maafz","9.csv","","null","resources/maskTrios/L1BB.jpg","null","",NA,NA,NA,NA,""
"image-keyboard-response",16,78011,"0.0-3.1-2.1","jsnakn4m73maafz","9.csv","","null","resources/images/fishbone.png","null","",NA,NA,NA,NA,""
"image-keyboard-response",17,80291,"0.0-3.2-0.2","jsnakn4m73maafz","9.csv","","2278","resources/trios/L4T1A1.jpg","38","restless",0.6,0.9,0.3,0.745992867653009,"true"
"image-keyboard-response",18,80697,"0.0-3.2-1.2","jsnakn4m73maafz","9.csv","","null","resources/maskTrios/BT1B.jpg","null","",NA,NA,NA,NA,""
"image-keyboard-response",19,81913,"0.0-3.2-2.2","jsnakn4m73maafz","9.csv","","null","resources/images/coin2.png","null","",NA,NA,NA,NA,""
"image-keyboard-response",20,83917,"0.0-3.3-0.3","jsnakn4m73maafz","9.csv","","2002.8999998569489","resources/trios/L1T4A1.jpg","38","restless",0.6,0.8,0.3,0.195308168647266,"true"
"image-keyboard-response",21,84328,"0.0-3.3-1.3","jsnakn4m73maafz","9.csv","","null","resources/maskTrios/BT4B.jpg","null","",NA,NA,NA,NA,""
"image-keyboard-response",22,85540,"0.0-3.3-2.3","jsnakn4m73maafz","9.csv","","null","resources/images/coin2.png","null","",NA,NA,NA,NA,""
"image-keyboard-response",23,87477,"0.0-3.4-0.4","jsnakn4m73maafz","9.csv","","1936.2000000476837","resources/trios/L4T4A3.jpg","38","restless",0.6,0.7,0.3,0.0806445749217326,"true"
"image-keyboard-response",24,87895,"0.0-3.4-1.4","jsnakn4m73maafz","9.csv","","null","resources/maskTrios/BT4B.jpg","null","",NA,NA,NA,NA,""
"image-keyboard-response",25,89103,"0.0-3.4-2.4","jsnakn4m73maafz","9.csv","","null","resources/images/coin2.png","null","",NA,NA,NA,NA,""
"image-keyboard-response",26,90936,"0.0-3.5-0.5","jsnakn4m73maafz","9.csv","","1831.1000001430511","resources/trios/L4T1A3.jpg","38","restless",0.6,0.7,0.3,0.776883722989135,"false"
"image-keyboard-response",27,91347,"0.0-3.5-1.5","jsnakn4m73maafz","9.csv","","null","resources/maskTrios/BT1B.jpg","null","",NA,NA,NA,NA,""
"image-keyboard-response",28,92558,"0.0-3.5-2.5","jsnakn4m73maafz","9.csv","","null","resources/images/fishbone.png","null","",NA,NA,NA,NA,""
"image-keyboard-response",29,93886,"0.0-3.6-0.6","jsnakn4m73maafz","9.csv","","1326","resources/trios/L1T1A3.jpg","39","restless",0.6,0.7,0.3,0.234979122810289,"true"
"image-keyboard-response",30,94297,"0.0-3.6-1.6","jsnakn4m73maafz","9.csv","","null","resources/maskTrios/BBA3.jpg","null","",NA,NA,NA,NA,""
"image-keyboard-response",31,95505,"0.0-3.6-2.6","jsnakn4m73maafz","9.csv","","null","resources/images/coin2.png","null","",NA,NA,NA,NA,""
"image-keyboard-response",32,96797,"0.0-3.7-0.7","jsnakn4m73maafz","9.csv","","1289.9000000953674","resources/trios/L1T1A3.jpg","39","restless",0.6,0.7,0.3,0.994626119309393,"false"
"image-keyboard-response",33,97208,"0.0-3.7-1.7","jsnakn4m73maafz","9.csv","","null","resources/maskTrios/BBA3.jpg","null","",NA,NA,NA,NA,""
"image-keyboard-response",34,98421,"0.0-3.7-2.7","jsnakn4m73maafz","9.csv","","null","resources/images/fishbone.png","null","",NA,NA,NA,NA,""
"image-keyboard-response",35,99685,"0.0-3.8-0.8","jsnakn4m73maafz","9.csv","","1262.2000000476837","resources/trios/L1T4A1.jpg","38","restless",0.6,0.7,0.3,0.0336363144401892,"true"
"image-keyboard-response",36,100092,"0.0-3.8-1.8","jsnakn4m73maafz","9.csv","","null","resources/maskTrios/BT4B.jpg","null","",NA,NA,NA,NA,""
"image-keyboard-response",37,101310,"0.0-3.8-2.8","jsnakn4m73maafz","9.csv","","null","resources/images/coin2.png","null","",NA,NA,NA,NA,""
"image-keyboard-response",38,103033,"0.0-3.9-0.9","jsnakn4m73maafz","9.csv","","1721.2000000476837","resources/trios/L4T1A3.jpg","38","restless",0.6,0.7,0.4,0.692224679952249,"true"
"image-keyboard-response",39,103440,"0.0-3.9-1.9","jsnakn4m73maafz","9.csv","","null","resources/maskTrios/BT1B.jpg","null","",NA,NA,NA,NA,""
"image-keyboard-response",40,104651,"0.0-3.9-2.9","jsnakn4m73maafz","9.csv","","null","resources/images/coin2.png","null","",NA,NA,NA,NA,""
"image-keyboard-response",41,106526,"0.0-3.10-0.10","jsnakn4m73maafz","9.csv","","1873.4000000953674","resources/trios/L1T1A1.jpg","38","restless",0.6,0.7,0.4,0.616408148812558,"true"
"image-keyboard-response",42,106938,"0.0-3.10-1.10","jsnakn4m73maafz","9.csv","","null","resources/maskTrios/BT1B.jpg","null","",NA,NA,NA,NA,""
"image-keyboard-response",43,108146,"0.0-3.10-2.10","jsnakn4m73maafz","9.csv","","null","resources/images/coin2.png","null","",NA,NA,NA,NA,""
"image-keyboard-response",44,109112,"0.0-3.11-0.11","jsnakn4m73maafz","9.csv","","964.7999999523163","resources/trios/L1T1A1.jpg","38","restless",0.6,0.6,0.4,0.557441646860217,"true"
"image-keyboard-response",45,109524,"0.0-3.11-1.11","jsnakn4m73maafz","9.csv","","null","resources/maskTrios/BT1B.jpg","null","",NA,NA,NA,NA,""
"image-keyboard-response",46,110732,"0.0-3.11-2.11","jsnakn4m73maafz","9.csv","","null","resources/images/coin2.png","null","",NA,NA,NA,NA,""
"image-keyboard-response",47,112788,"0.0-3.12-0.12","jsnakn4m73maafz","9.csv","","2054.100000143051","resources/trios/L4T4A1.jpg","38","restless",0.6,0.6,0.4,0.796682947761916,"false"
"image-keyboard-response",48,113203,"0.0-3.12-1.12","jsnakn4m73maafz","9.csv","","null","resources/maskTrios/BT4B.jpg","null","",NA,NA,NA,NA,""
"image-keyboard-response",49,114411,"0.0-3.12-2.12","jsnakn4m73maafz","9.csv","","null","resources/images/fishbone.png","null","",NA,NA,NA,NA,""
"image-keyboard-response",50,117165,"0.0-3.13-0.13","jsnakn4m73maafz","9.csv","","2752.0999999046326","resources/trios/L1T1A1.jpg","38","restless",0.6,0.6,0.4,0.10214384800581,"true"
"image-keyboard-response",51,117580,"0.0-3.13-1.13","jsnakn4m73maafz","9.csv","","null","resources/maskTrios/BT1B.jpg","null","",NA,NA,NA,NA,""
"image-keyboard-response",52,118790,"0.0-3.13-2.13","jsnakn4m73maafz","9.csv","","null","resources/images/coin2.png","null","",NA,NA,NA,NA,""
"image-keyboard-response",53,120463,"0.0-3.14-0.14","jsnakn4m73maafz","9.csv","","1672.1000001430511","resources/trios/L1T4A1.jpg","38","restless",0.6,0.6,0.4,0.407120858816135,"true"
"image-keyboard-response",54,120877,"0.0-3.14-1.14","jsnakn4m73maafz","9.csv","","null","resources/maskTrios/BT4B.jpg","null","",NA,NA,NA,NA,""
"image-keyboard-response",55,122092,"0.0-3.14-2.14","jsnakn4m73maafz","9.csv","","null","resources/images/coin2.png","null","",NA,NA,NA,NA,""
"image-keyboard-response",56,124597,"0.0-3.15-0.15","jsnakn4m73maafz","9.csv","","2503.600000143051","resources/trios/L1T4A3.jpg","38","restless",0.6,0.6,0.4,0.994138781075635,"false"
"image-keyboard-response",57,125005,"0.0-3.15-1.15","jsnakn4m73maafz","9.csv","","null","resources/maskTrios/BT4B.jpg","null","",NA,NA,NA,NA,""
"image-keyboard-response",58,126216,"0.0-3.15-2.15","jsnakn4m73maafz","9.csv","","null","resources/images/fishbone.png","null","",NA,NA,NA,NA,""
"image-keyboard-response",59,128160,"0.0-3.16-0.16","jsnakn4m73maafz","9.csv","","1942.5999999046326","resources/trios/L4T4A1.jpg","37","restless",0.6,0.6,0.3,0.260526899986659,"true"
"image-keyboard-response",60,128576,"0.0-3.16-1.16","jsnakn4m73maafz","9.csv","","null","resources/maskTrios/L4BB.jpg","null","",NA,NA,NA,NA,""
"image-keyboard-response",61,129784,"0.0-3.16-2.16","jsnakn4m73maafz","9.csv","","null","resources/images/coin2.png","null","",NA,NA,NA,NA,""
"image-keyboard-response",62,131986,"0.0-3.17-0.17","jsnakn4m73maafz","9.csv","","2200.2000000476837","resources/trios/L1T4A3.jpg","39","restless",0.6,0.6,0.3,0.870327413899071,"false"
"image-keyboard-response",63,132397,"0.0-3.17-1.17","jsnakn4m73maafz","9.csv","","null","resources/maskTrios/BBA3.jpg","null","",NA,NA,NA,NA,""
"image-keyboard-response",64,133600,"0.0-3.17-2.17","jsnakn4m73maafz","9.csv","","null","resources/images/fishbone.png","null","",NA,NA,NA,NA,""
"image-keyboard-response",65,134890,"0.0-3.18-0.18","jsnakn4m73maafz","9.csv","","1287.7000000476837","resources/trios/L4T1A1.jpg","37","restless",0.6,0.6,0.3,0.579268893144032,"true"
"image-keyboard-response",66,135302,"0.0-3.18-1.18","jsnakn4m73maafz","9.csv","","null","resources/maskTrios/L4BB.jpg","null","",NA,NA,NA,NA,""
"image-keyboard-response",67,136514,"0.0-3.18-2.18","jsnakn4m73maafz","9.csv","","null","resources/images/coin2.png","null","",NA,NA,NA,NA,""
"image-keyboard-response",68,137775,"0.0-3.19-0.19","jsnakn4m73maafz","9.csv","","1259.4000000953674","resources/trios/L4T4A3.jpg","37","restless",0.6,0.6,0.3,0.587282958144883,"true"
"image-keyboard-response",69,138186,"0.0-3.19-1.19","jsnakn4m73maafz","9.csv","","null","resources/maskTrios/L4BB.jpg","null","",NA,NA,NA,NA,""
"image-keyboard-response",70,139402,"0.0-3.19-2.19","jsnakn4m73maafz","9.csv","","null","resources/images/coin2.png","null","",NA,NA,NA,NA,""
"image-keyboard-response",71,142036,"0.0-3.20-0.20","jsnakn4m73maafz","9.csv","","2632.600000143051","resources/trios/L4T1A3.jpg","38","restless",0.7,0.6,0.3,0.306497959109725,"true"
"image-keyboard-response",72,142453,"0.0-3.20-1.20","jsnakn4m73maafz","9.csv","","null","resources/maskTrios/BT1B.jpg","null","",NA,NA,NA,NA,""
"image-keyboard-response",73,143659,"0.0-3.20-2.20","jsnakn4m73maafz","9.csv","","null","resources/images/coin2.png","null","",NA,NA,NA,NA,""
"image-keyboard-response",74,146246,"0.0-3.21-0.21","jsnakn4m73maafz","9.csv","","2584.7999999523163","resources/trios/L1T4A3.jpg","38","restless",0.7,0.6,0.3,0.440528410211501,"true"
"image-keyboard-response",75,146664,"0.0-3.21-1.21","jsnakn4m73maafz","9.csv","","null","resources/maskTrios/BT4B.jpg","null","",NA,NA,NA,NA,""
"image-keyboard-response",76,147875,"0.0-3.21-2.21","jsnakn4m73maafz","9.csv","","null","resources/images/coin2.png","null","",NA,NA,NA,NA,""
"image-keyboard-response",77,149410,"0.0-3.22-0.22","jsnakn4m73maafz","9.csv","","1534","resources/trios/L1T1A3.jpg","38","restless",0.7,0.6,0.3,0.00800492261380259,"true"
"image-keyboard-response",78,149822,"0.0-3.22-1.22","jsnakn4m73maafz","9.csv","","null","resources/maskTrios/BT1B.jpg","null","",NA,NA,NA,NA,""
"image-keyboard-response",79,151033,"0.0-3.22-2.22","jsnakn4m73maafz","9.csv","","null","resources/images/coin2.png","null","",NA,NA,NA,NA,""
"image-keyboard-response",80,152571,"0.0-3.23-0.23","jsnakn4m73maafz","9.csv","","1536.5","resources/trios/L1T4A1.jpg","38","restless",0.7,0.6,0.3,0.603669844719922,"false"
"image-keyboard-response",81,152975,"0.0-3.23-1.23","jsnakn4m73maafz","9.csv","","null","resources/maskTrios/BT4B.jpg","null","",NA,NA,NA,NA,""
"image-keyboard-response",82,154183,"0.0-3.23-2.23","jsnakn4m73maafz","9.csv","","null","resources/images/fishbone.png","null","",NA,NA,NA,NA,""
"image-keyboard-response",83,156805,"0.0-3.24-0.24","jsnakn4m73maafz","9.csv","","2620.2999999523163","resources/trios/L1T1A1.jpg","38","restless",0.7,0.7,0.3,0.869398022325865,"false"
"image-keyboard-response",84,157211,"0.0-3.24-1.24","jsnakn4m73maafz","9.csv","","null","resources/maskTrios/BT1B.jpg","null","",NA,NA,NA,NA,""
"image-keyboard-response",85,158422,"0.0-3.24-2.24","jsnakn4m73maafz","9.csv","","null","resources/images/fishbone.png","null","",NA,NA,NA,NA,""
"image-keyboard-response",86,159296,"0.0-3.25-0.25","jsnakn4m73maafz","9.csv","","872.3999998569489","resources/trios/L1T1A1.jpg","37","restless",0.7,0.7,0.3,0.151554654389206,"true"
"image-keyboard-response",87,159704,"0.0-3.25-1.25","jsnakn4m73maafz","9.csv","","null","resources/maskTrios/L1BB.jpg","null","",NA,NA,NA,NA,""
"image-keyboard-response",88,160916,"0.0-3.25-2.25","jsnakn4m73maafz","9.csv","","null","resources/images/coin2.png","null","",NA,NA,NA,NA,""
"image-keyboard-response",89,162198,"0.0-3.26-0.26","jsnakn4m73maafz","9.csv","","1280.5","resources/trios/L4T4A1.jpg","37","restless",0.7,0.7,0.3,0.686505941303741,"true"
"image-keyboard-response",90,162611,"0.0-3.26-1.26","jsnakn4m73maafz","9.csv","","null","resources/maskTrios/L4BB.jpg","null","",NA,NA,NA,NA,""
"image-keyboard-response",91,163821,"0.0-3.26-2.26","jsnakn4m73maafz","9.csv","","null","resources/images/coin2.png","null","",NA,NA,NA,NA,""
"image-keyboard-response",92,164852,"0.0-3.27-0.27","jsnakn4m73maafz","9.csv","","1029.9000000953674","resources/trios/L1T1A1.jpg","37","restless",0.7,0.7,0.3,0.608432207271788,"true"
"image-keyboard-response",93,165259,"0.0-3.27-1.27","jsnakn4m73maafz","9.csv","","null","resources/maskTrios/L1BB.jpg","null","",NA,NA,NA,NA,""
"image-keyboard-response",94,166472,"0.0-3.27-2.27","jsnakn4m73maafz","9.csv","","null","resources/images/coin2.png","null","",NA,NA,NA,NA,""
"image-keyboard-response",95,168868,"0.0-3.28-0.28","jsnakn4m73maafz","9.csv","","2394.699999809265","resources/trios/L4T4A1.jpg","39","restless",0.7,0.7,0.3,0.269245440199844,"true"
"image-keyboard-response",96,169275,"0.0-3.28-1.28","jsnakn4m73maafz","9.csv","","null","resources/maskTrios/BBA1.jpg","null","",NA,NA,NA,NA,""
"image-keyboard-response",97,170482,"0.0-3.28-2.28","jsnakn4m73maafz","9.csv","","null","resources/images/coin2.png","null","",NA,NA,NA,NA,""
"image-keyboard-response",98,171689,"0.0-3.29-0.29","jsnakn4m73maafz","9.csv","","1205.0999999046326","resources/trios/L4T4A3.jpg","39","restless",0.8,0.7,0.3,0.765945320890864,"false"
"image-keyboard-response",99,172096,"0.0-3.29-1.29","jsnakn4m73maafz","9.csv","","null","resources/maskTrios/BBA3.jpg","null","",NA,NA,NA,NA,""
"image-keyboard-response",100,173302,"0.0-3.29-2.29","jsnakn4m73maafz","9.csv","","null","resources/images/fishbone.png","null","",NA,NA,NA,NA,""
"image-keyboard-response",101,174291,"0.0-3.30-0.30","jsnakn4m73maafz","9.csv","","987.1999998092651","resources/trios/L1T1A1.jpg","39","restless",0.9,0.7,0.3,0.765013389559877,"false"
"image-keyboard-response",102,174708,"0.0-3.30-1.30","jsnakn4m73maafz","9.csv","","null","resources/maskTrios/BBA1.jpg","null","",NA,NA,NA,NA,""
"image-keyboard-response",103,175922,"0.0-3.30-2.30","jsnakn4m73maafz","9.csv","","null","resources/images/fishbone.png","null","",NA,NA,NA,NA,""
"image-keyboard-response",104,177280,"0.0-3.31-0.31","jsnakn4m73maafz","9.csv","","1356","resources/trios/L1T1A3.jpg","38","restless",0.9,0.7,0.3,0.765993277443694,"false"
"image-keyboard-response",105,177693,"0.0-3.31-1.31","jsnakn4m73maafz","9.csv","","null","resources/maskTrios/BT1B.jpg","null","",NA,NA,NA,NA,""
"image-keyboard-response",106,178905,"0.0-3.31-2.31","jsnakn4m73maafz","9.csv","","null","resources/images/fishbone.png","null","",NA,NA,NA,NA,""
"image-keyboard-response",107,179763,"0.0-3.32-0.32","jsnakn4m73maafz","9.csv","","856.5","resources/trios/L4T4A1.jpg","37","restless",0.9,0.7,0.3,0.312607794148317,"true"
"image-keyboard-response",108,180177,"0.0-3.32-1.32","jsnakn4m73maafz","9.csv","","null","resources/maskTrios/L4BB.jpg","null","",NA,NA,NA,NA,""
"image-keyboard-response",109,181386,"0.0-3.32-2.32","jsnakn4m73maafz","9.csv","","null","resources/images/coin2.png","null","",NA,NA,NA,NA,""
"image-keyboard-response",110,182416,"0.0-3.33-0.33","jsnakn4m73maafz","9.csv","","1028","resources/trios/L4T4A3.jpg","37","restless",0.9,0.7,0.3,0.621368685266821,"true"
"image-keyboard-response",111,182820,"0.0-3.33-1.33","jsnakn4m73maafz","9.csv","","null","resources/maskTrios/L4BB.jpg","null","",NA,NA,NA,NA,""
"image-keyboard-response",112,184032,"0.0-3.33-2.33","jsnakn4m73maafz","9.csv","","null","resources/images/coin2.png","null","",NA,NA,NA,NA,""
"image-keyboard-response",113,185334,"0.0-3.34-0.34","jsnakn4m73maafz","9.csv","","1300.0999999046326","resources/trios/L1T1A3.jpg","37","restless",0.9,0.7,0.3,0.816565043729951,"true"
"image-keyboard-response",114,185752,"0.0-3.34-1.34","jsnakn4m73maafz","9.csv","","null","resources/maskTrios/L1BB.jpg","null","",NA,NA,NA,NA,""
"image-keyboard-response",115,186963,"0.0-3.34-2.34","jsnakn4m73maafz","9.csv","","null","resources/images/coin2.png","null","",NA,NA,NA,NA,""
"image-keyboard-response",116,188428,"0.0-3.35-0.35","jsnakn4m73maafz","9.csv","","1463.0999999046326","resources/trios/L4T4A3.jpg","37","restless",0.9,0.7,0.2,0.547307700255771,"true"
"image-keyboard-response",117,188843,"0.0-3.35-1.35","jsnakn4m73maafz","9.csv","","null","resources/maskTrios/L4BB.jpg","null","",NA,NA,NA,NA,""
"image-keyboard-response",118,190050,"0.0-3.35-2.35","jsnakn4m73maafz","9.csv","","null","resources/images/coin2.png","null","",NA,NA,NA,NA,""
"image-keyboard-response",119,191786,"0.0-3.36-0.36","jsnakn4m73maafz","9.csv","","1734.0999999046326","resources/trios/L4T4A1.jpg","37","restless",0.9,0.7,0.2,0.345860181166441,"true"
"image-keyboard-response",120,192192,"0.0-3.36-1.36","jsnakn4m73maafz","9.csv","","null","resources/maskTrios/L4BB.jpg","null","",NA,NA,NA,NA,""
"image-keyboard-response",121,193400,"0.0-3.36-2.36","jsnakn4m73maafz","9.csv","","null","resources/images/coin2.png","null","",NA,NA,NA,NA,""
"image-keyboard-response",122,194163,"0.0-3.37-0.37","jsnakn4m73maafz","9.csv","","761.7000000476837","resources/trios/L1T4A1.jpg","37","restless",0.8,0.7,0.2,0.533401964048176,"true"
"image-keyboard-response",123,194577,"0.0-3.37-1.37","jsnakn4m73maafz","9.csv","","null","resources/maskTrios/L1BB.jpg","null","",NA,NA,NA,NA,""
"image-keyboard-response",124,195786,"0.0-3.37-2.37","jsnakn4m73maafz","9.csv","","null","resources/images/coin2.png","null","",NA,NA,NA,NA,""
"image-keyboard-response",125,196769,"0.0-3.38-0.38","jsnakn4m73maafz","9.csv","","980.8999998569489","resources/trios/L4T1A1.jpg","37","restless",0.8,0.7,0.2,0.410116439521892,"true"
"image-keyboard-response",126,197186,"0.0-3.38-1.38","jsnakn4m73maafz","9.csv","","null","resources/maskTrios/L4BB.jpg","null","",NA,NA,NA,NA,""
"image-keyboard-response",127,198396,"0.0-3.38-2.38","jsnakn4m73maafz","9.csv","","null","resources/images/coin2.png","null","",NA,NA,NA,NA,""
"image-keyboard-response",128,200104,"0.0-3.39-0.39","jsnakn4m73maafz","9.csv","","1706.9000000953674","resources/trios/L4T4A1.jpg","37","restless",0.7,0.7,0.3,0.610993422909905,"true"
"image-keyboard-response",129,200516,"0.0-3.39-1.39","jsnakn4m73maafz","9.csv","","null","resources/maskTrios/L4BB.jpg","null","",NA,NA,NA,NA,""
"image-keyboard-response",130,201734,"0.0-3.39-2.39","jsnakn4m73maafz","9.csv","","null","resources/images/coin2.png","null","",NA,NA,NA,NA,""
"image-keyboard-response",131,202467,"0.0-3.40-0.40","jsnakn4m73maafz","9.csv","","732.4000000953674","resources/trios/L4T4A1.jpg","37","restless",0.7,0.7,0.3,0.632958603843493,"true"
"image-keyboard-response",132,202879,"0.0-3.40-1.40","jsnakn4m73maafz","9.csv","","null","resources/maskTrios/L4BB.jpg","null","",NA,NA,NA,NA,""
"image-keyboard-response",133,204082,"0.0-3.40-2.40","jsnakn4m73maafz","9.csv","","null","resources/images/coin2.png","null","",NA,NA,NA,NA,""
"image-keyboard-response",134,204660,"0.0-3.41-0.41","jsnakn4m73maafz","9.csv","","576.5","resources/trios/L4T1A1.jpg","37","restless",0.6,0.7,0.3,0.385056880833491,"true"
"image-keyboard-response",135,205070,"0.0-3.41-1.41","jsnakn4m73maafz","9.csv","","null","resources/maskTrios/L4BB.jpg","null","",NA,NA,NA,NA,""
"image-keyboard-response",136,206283,"0.0-3.41-2.41","jsnakn4m73maafz","9.csv","","null","resources/images/coin2.png","null","",NA,NA,NA,NA,""
"image-keyboard-response",137,206667,"0.0-3.42-0.42","jsnakn4m73maafz","9.csv","","382.59999990463257","resources/trios/L1T4A1.jpg","37","restless",0.6,0.7,0.3,0.146440912122326,"true"
"image-keyboard-response",138,207069,"0.0-3.42-1.42","jsnakn4m73maafz","9.csv","","null","resources/maskTrios/L1BB.jpg","null","",NA,NA,NA,NA,""
"image-keyboard-response",139,208279,"0.0-3.42-2.42","jsnakn4m73maafz","9.csv","","null","resources/images/coin2.png","null","",NA,NA,NA,NA,""
"image-keyboard-response",140,208791,"0.0-3.43-0.43","jsnakn4m73maafz","9.csv","","510.7000000476837","resources/trios/L4T1A3.jpg","37","restless",0.6,0.7,0.3,0.757139232448833,"false"
"image-keyboard-response",141,209194,"0.0-3.43-1.43","jsnakn4m73maafz","9.csv","","null","resources/maskTrios/L4BB.jpg","null","",NA,NA,NA,NA,""
"image-keyboard-response",142,210399,"0.0-3.43-2.43","jsnakn4m73maafz","9.csv","","null","resources/images/fishbone.png","null","",NA,NA,NA,NA,""
"image-keyboard-response",143,211717,"0.0-3.44-0.44","jsnakn4m73maafz","9.csv","","1316.6000001430511","resources/trios/L4T4A1.jpg","37","restless",0.5,0.7,0.4,0.10415678201218,"true"
"image-keyboard-response",144,212134,"0.0-3.44-1.44","jsnakn4m73maafz","9.csv","","null","resources/maskTrios/L4BB.jpg","null","",NA,NA,NA,NA,""
"image-keyboard-response",145,213341,"0.0-3.44-2.44","jsnakn4m73maafz","9.csv","","null","resources/images/coin2.png","null","",NA,NA,NA,NA,""
"image-keyboard-response",146,214437,"0.0-3.45-0.45","jsnakn4m73maafz","9.csv","","1094.7999999523163","resources/trios/L1T1A3.jpg","38","restless",0.5,0.7,0.5,0.880209292913487,"false"
"image-keyboard-response",147,214855,"0.0-3.45-1.45","jsnakn4m73maafz","9.csv","","null","resources/maskTrios/BT1B.jpg","null","",NA,NA,NA,NA,""
"image-keyboard-response",148,216064,"0.0-3.45-2.45","jsnakn4m73maafz","9.csv","","null","resources/images/fishbone.png","null","",NA,NA,NA,NA,""
"image-keyboard-response",149,216720,"0.0-3.46-0.46","jsnakn4m73maafz","9.csv","","654.6000001430511","resources/trios/L4T4A3.jpg","38","restless",0.5,0.7,0.5,0.0305373050213946,"true"
"image-keyboard-response",150,217123,"0.0-3.46-1.46","jsnakn4m73maafz","9.csv","","null","resources/maskTrios/BT4B.jpg","null","",NA,NA,NA,NA,""
"image-keyboard-response",151,218332,"0.0-3.46-2.46","jsnakn4m73maafz","9.csv","","null","resources/images/coin2.png","null","",NA,NA,NA,NA,""
"image-keyboard-response",152,219605,"0.0-3.47-0.47","jsnakn4m73maafz","9.csv","","1271.7000000476837","resources/trios/L1T1A1.jpg","38","restless",0.5,0.7,0.5,0.727830142083447,"false"
"image-keyboard-response",153,220020,"0.0-3.47-1.47","jsnakn4m73maafz","9.csv","","null","resources/maskTrios/BT1B.jpg","null","",NA,NA,NA,NA,""
"image-keyboard-response",154,221225,"0.0-3.47-2.47","jsnakn4m73maafz","9.csv","","null","resources/images/fishbone.png","null","",NA,NA,NA,NA,""
"image-keyboard-response",155,222026,"0.0-3.48-0.48","jsnakn4m73maafz","9.csv","","799","resources/trios/L4T4A1.jpg","39","restless",0.5,0.7,0.5,0.141813543367771,"true"
"image-keyboard-response",156,222433,"0.0-3.48-1.48","jsnakn4m73maafz","9.csv","","null","resources/maskTrios/BBA1.jpg","null","",NA,NA,NA,NA,""
"image-keyboard-response",157,223636,"0.0-3.48-2.48","jsnakn4m73maafz","9.csv","","null","resources/images/coin2.png","null","",NA,NA,NA,NA,""
"image-keyboard-response",158,224321,"0.0-3.49-0.49","jsnakn4m73maafz","9.csv","","682.6000001430511","resources/trios/L1T1A1.jpg","39","restless",0.5,0.7,0.4,0.165718493125932,"true"
"image-keyboard-response",159,224729,"0.0-3.49-1.49","jsnakn4m73maafz","9.csv","","null","resources/maskTrios/BBA1.jpg","null","",NA,NA,NA,NA,""
"image-keyboard-response",160,225933,"0.0-3.49-2.49","jsnakn4m73maafz","9.csv","","null","resources/images/coin2.png","null","",NA,NA,NA,NA,""
"image-keyboard-response",161,226708,"0.0-3.50-0.50","jsnakn4m73maafz","9.csv","","772.9000000953674","resources/trios/L4T4A1.jpg","39","restless",0.5,0.7,0.5,0.244705883352044,"true"
"image-keyboard-response",162,227115,"0.0-3.50-1.50","jsnakn4m73maafz","9.csv","","null","resources/maskTrios/BBA1.jpg","null","",NA,NA,NA,NA,""
"image-keyboard-response",163,228323,"0.0-3.50-2.50","jsnakn4m73maafz","9.csv","","null","resources/images/coin2.png","null","",NA,NA,NA,NA,""
"image-keyboard-response",164,229745,"0.0-3.51-0.51","jsnakn4m73maafz","9.csv","","1420.7000000476837","resources/trios/L1T4A3.jpg","37","restless",0.5,0.7,0.6,0.246044410583701,"true"
"image-keyboard-response",165,230148,"0.0-3.51-1.51","jsnakn4m73maafz","9.csv","","null","resources/maskTrios/L1BB.jpg","null","",NA,NA,NA,NA,""
"image-keyboard-response",166,231356,"0.0-3.51-2.51","jsnakn4m73maafz","9.csv","","null","resources/images/coin2.png","null","",NA,NA,NA,NA,""
"image-keyboard-response",167,232346,"0.0-3.52-0.52","jsnakn4m73maafz","9.csv","","988.4000000953674","resources/trios/L1T4A1.jpg","37","restless",0.5,0.7,0.6,0.331803779510213,"true"
"image-keyboard-response",168,232759,"0.0-3.52-1.52","jsnakn4m73maafz","9.csv","","null","resources/maskTrios/L1BB.jpg","null","",NA,NA,NA,NA,""
"image-keyboard-response",169,233961,"0.0-3.52-2.52","jsnakn4m73maafz","9.csv","","null","resources/images/coin2.png","null","",NA,NA,NA,NA,""
"image-keyboard-response",170,235314,"0.0-3.53-0.53","jsnakn4m73maafz","9.csv","","1351.1000001430511","resources/trios/L4T1A3.jpg","37","restless",0.5,0.6,0.6,0.814439097060208,"false"
"image-keyboard-response",171,235724,"0.0-3.53-1.53","jsnakn4m73maafz","9.csv","","null","resources/maskTrios/L4BB.jpg","null","",NA,NA,NA,NA,""
"image-keyboard-response",172,236936,"0.0-3.53-2.53","jsnakn4m73maafz","9.csv","","null","resources/images/fishbone.png","null","",NA,NA,NA,NA,""
"image-keyboard-response",173,237699,"0.0-3.54-0.54","jsnakn4m73maafz","9.csv","","761.5","resources/trios/L4T1A3.jpg","38","restless",0.5,0.7,0.6,0.0350766248287206,"true"
"image-keyboard-response",174,238111,"0.0-3.54-1.54","jsnakn4m73maafz","9.csv","","null","resources/maskTrios/BT1B.jpg","null","",NA,NA,NA,NA,""
"image-keyboard-response",175,239323,"0.0-3.54-2.54","jsnakn4m73maafz","9.csv","","null","resources/images/coin2.png","null","",NA,NA,NA,NA,""
"image-keyboard-response",176,240015,"0.0-3.55-0.55","jsnakn4m73maafz","9.csv","","690.6000001430511","resources/trios/L4T1A1.jpg","38","restless",0.4,0.7,0.6,0.102671966693253,"true"
"image-keyboard-response",177,240423,"0.0-3.55-1.55","jsnakn4m73maafz","9.csv","","null","resources/maskTrios/BT1B.jpg","null","",NA,NA,NA,NA,""
"image-keyboard-response",178,241639,"0.0-3.55-2.55","jsnakn4m73maafz","9.csv","","null","resources/images/coin2.png","null","",NA,NA,NA,NA,""
"image-keyboard-response",179,242258,"0.0-3.56-0.56","jsnakn4m73maafz","9.csv","","617.9000000953674","resources/trios/L1T1A1.jpg","38","restless",0.4,0.7,0.6,0.172652998782423,"true"
"image-keyboard-response",180,242675,"0.0-3.56-1.56","jsnakn4m73maafz","9.csv","","null","resources/maskTrios/BT1B.jpg","null","",NA,NA,NA,NA,""
"image-keyboard-response",181,243886,"0.0-3.56-2.56","jsnakn4m73maafz","9.csv","","null","resources/images/coin2.png","null","",NA,NA,NA,NA,""
"image-keyboard-response",182,244514,"0.0-3.57-0.57","jsnakn4m73maafz","9.csv","","627.3999998569489","resources/trios/L1T1A3.jpg","38","restless",0.4,0.7,0.6,0.820538833819205,"false"
"image-keyboard-response",183,244929,"0.0-3.57-1.57","jsnakn4m73maafz","9.csv","","null","resources/maskTrios/BT1B.jpg","null","",NA,NA,NA,NA,""
"image-keyboard-response",184,246137,"0.0-3.57-2.57","jsnakn4m73maafz","9.csv","","null","resources/images/fishbone.png","null","",NA,NA,NA,NA,""
"image-keyboard-response",185,247225,"0.0-3.58-0.58","jsnakn4m73maafz","9.csv","","1085.8000001907349","resources/trios/L1T4A1.jpg","38","restless",0.4,0.7,0.6,0.297400563454673,"true"
"image-keyboard-response",186,247641,"0.0-3.58-1.58","jsnakn4m73maafz","9.csv","","null","resources/maskTrios/BT4B.jpg","null","",NA,NA,NA,NA,""
"image-keyboard-response",187,248855,"0.0-3.58-2.58","jsnakn4m73maafz","9.csv","","null","resources/images/coin2.png","null","",NA,NA,NA,NA,""
"image-keyboard-response",188,249539,"0.0-3.59-0.59","jsnakn4m73maafz","9.csv","","681.7999999523163","resources/trios/L4T4A3.jpg","38","restless",0.4,0.7,0.6,0.0259241878939671,"true"
"image-keyboard-response",189,249943,"0.0-3.59-1.59","jsnakn4m73maafz","9.csv","","null","resources/maskTrios/BT4B.jpg","null","",NA,NA,NA,NA,""
"image-keyboard-response",190,251153,"0.0-3.59-2.59","jsnakn4m73maafz","9.csv","","null","resources/images/coin2.png","null","",NA,NA,NA,NA,""
"image-keyboard-response",191,251774,"0.0-3.60-0.60","jsnakn4m73maafz","9.csv","","619.7000000476837","resources/trios/L4T1A3.jpg","38","restless",0.3,0.7,0.5,0.69263928459358,"true"
"image-keyboard-response",192,252182,"0.0-3.60-1.60","jsnakn4m73maafz","9.csv","","null","resources/maskTrios/BT1B.jpg","null","",NA,NA,NA,NA,""
"image-keyboard-response",193,253389,"0.0-3.60-2.60","jsnakn4m73maafz","9.csv","","null","resources/images/coin2.png","null","",NA,NA,NA,NA,""
"image-keyboard-response",194,253903,"0.0-3.61-0.61","jsnakn4m73maafz","9.csv","","512.2999999523163","resources/trios/L4T4A3.jpg","38","restless",0.3,0.7,0.5,0.469976825127964,"true"
"image-keyboard-response",195,254306,"0.0-3.61-1.61","jsnakn4m73maafz","9.csv","","null","resources/maskTrios/BT4B.jpg","null","",NA,NA,NA,NA,""
"image-keyboard-response",196,255512,"0.0-3.61-2.61","jsnakn4m73maafz","9.csv","","null","resources/images/coin2.png","null","",NA,NA,NA,NA,""
"image-keyboard-response",197,256128,"0.0-3.62-0.62","jsnakn4m73maafz","9.csv","","614.0999999046326","resources/trios/L4T4A3.jpg","38","restless",0.3,0.8,0.5,0.82697715838138,"false"
"image-keyboard-response",198,256534,"0.0-3.62-1.62","jsnakn4m73maafz","9.csv","","null","resources/maskTrios/BT4B.jpg","null","",NA,NA,NA,NA,""
"image-keyboard-response",199,257748,"0.0-3.62-2.62","jsnakn4m73maafz","9.csv","","null","resources/images/fishbone.png","null","",NA,NA,NA,NA,""
"image-keyboard-response",200,258946,"0.0-3.63-0.63","jsnakn4m73maafz","9.csv","","1196.2999999523163","resources/trios/L1T1A1.jpg","37","restless",0.3,0.8,0.5,0.415162183510166,"false"
"image-keyboard-response",201,259359,"0.0-3.63-1.63","jsnakn4m73maafz","9.csv","","null","resources/maskTrios/L1BB.jpg","null","",NA,NA,NA,NA,""
"image-keyboard-response",202,260565,"0.0-3.63-2.63","jsnakn4m73maafz","9.csv","","null","resources/images/fishbone.png","null","",NA,NA,NA,NA,""
"image-keyboard-response",203,261330,"0.0-3.64-0.64","jsnakn4m73maafz","9.csv","","763.8000001907349","resources/trios/L4T1A1.jpg","37","restless",0.3,0.8,0.5,0.161478486298661,"true"
"image-keyboard-response",204,261742,"0.0-3.64-1.64","jsnakn4m73maafz","9.csv","","null","resources/maskTrios/L4BB.jpg","null","",NA,NA,NA,NA,""
"image-keyboard-response",205,262951,"0.0-3.64-2.64","jsnakn4m73maafz","9.csv","","null","resources/images/coin2.png","null","",NA,NA,NA,NA,""
"image-keyboard-response",206,263873,"0.0-3.65-0.65","jsnakn4m73maafz","9.csv","","920.1000001430511","resources/trios/L4T1A1.jpg","37","restless",0.3,0.8,0.6,0.0164978221121515,"true"
"image-keyboard-response",207,264281,"0.0-3.65-1.65","jsnakn4m73maafz","9.csv","","null","resources/maskTrios/L4BB.jpg","null","",NA,NA,NA,NA,""
"image-keyboard-response",208,265491,"0.0-3.65-2.65","jsnakn4m73maafz","9.csv","","null","resources/images/coin2.png","null","",NA,NA,NA,NA,""
"image-keyboard-response",209,269238,"0.0-3.66-0.66","jsnakn4m73maafz","9.csv","","3745.4000000953674","resources/trios/L1T4A1.jpg","39","restless",0.3,0.8,0.6,0.075547364289771,"true"
"image-keyboard-response",210,269653,"0.0-3.66-1.66","jsnakn4m73maafz","9.csv","","null","resources/maskTrios/BBA1.jpg","null","",NA,NA,NA,NA,""
"image-keyboard-response",211,270861,"0.0-3.66-2.66","jsnakn4m73maafz","9.csv","","null","resources/images/coin2.png","null","",NA,NA,NA,NA,""
"image-keyboard-response",212,271915,"0.0-3.67-0.67","jsnakn4m73maafz","9.csv","","1053.0999999046326","resources/trios/L4T4A3.jpg","38","restless",0.3,0.8,0.6,0.293136578005892,"true"
"image-keyboard-response",213,272328,"0.0-3.67-1.67","jsnakn4m73maafz","9.csv","","null","resources/maskTrios/BT4B.jpg","null","",NA,NA,NA,NA,""
"image-keyboard-response",214,273535,"0.0-3.67-2.67","jsnakn4m73maafz","9.csv","","null","resources/images/coin2.png","null","",NA,NA,NA,NA,""
"image-keyboard-response",215,274613,"0.0-3.68-0.68","jsnakn4m73maafz","9.csv","","1076","resources/trios/L1T4A1.jpg","38","restless",0.3,0.8,0.6,0.947606518643254,"false"
"image-keyboard-response",216,275027,"0.0-3.68-1.68","jsnakn4m73maafz","9.csv","","null","resources/maskTrios/BT4B.jpg","null","",NA,NA,NA,NA,""
"image-keyboard-response",217,276239,"0.0-3.68-2.68","jsnakn4m73maafz","9.csv","","null","resources/images/fishbone.png","null","",NA,NA,NA,NA,""
"image-keyboard-response",218,277551,"0.0-3.69-0.69","jsnakn4m73maafz","9.csv","","1309.7000000476837","resources/trios/L4T4A1.jpg","37","restless",0.3,0.8,0.5,0.0514581507481426,"true"
"image-keyboard-response",219,277966,"0.0-3.69-1.69","jsnakn4m73maafz","9.csv","","null","resources/maskTrios/L4BB.jpg","null","",NA,NA,NA,NA,""
"image-keyboard-response",220,279177,"0.0-3.69-2.69","jsnakn4m73maafz","9.csv","","null","resources/images/coin2.png","null","",NA,NA,NA,NA,""
"image-keyboard-response",221,281060,"0.0-3.70-0.70","jsnakn4m73maafz","9.csv","","1881.7000000476837","resources/trios/L1T1A1.jpg","38","restless",0.3,0.8,0.5,0.739511949932817,"true"
"image-keyboard-response",222,281466,"0.0-3.70-1.70","jsnakn4m73maafz","9.csv","","null","resources/maskTrios/BT1B.jpg","null","",NA,NA,NA,NA,""
"image-keyboard-response",223,282682,"0.0-3.70-2.70","jsnakn4m73maafz","9.csv","","null","resources/images/coin2.png","null","",NA,NA,NA,NA,""
"image-keyboard-response",224,284064,"0.0-3.71-0.71","jsnakn4m73maafz","9.csv","","1379.9000000953674","resources/trios/L4T4A3.jpg","37","restless",0.3,0.8,0.6,0.894818278541781,"false"
"image-keyboard-response",225,284477,"0.0-3.71-1.71","jsnakn4m73maafz","9.csv","","null","resources/maskTrios/L4BB.jpg","null","",NA,NA,NA,NA,""
"image-keyboard-response",226,285688,"0.0-3.71-2.71","jsnakn4m73maafz","9.csv","","null","resources/images/fishbone.png","null","",NA,NA,NA,NA,""
"image-keyboard-response",227,287696,"0.0-3.72-0.72","jsnakn4m73maafz","9.csv","","2005.9000000953674","resources/trios/L4T4A1.jpg","38","restless",0.3,0.8,0.6,0.727331152688709,"true"
"image-keyboard-response",228,288110,"0.0-3.72-1.72","jsnakn4m73maafz","9.csv","","null","resources/maskTrios/BT4B.jpg","null","",NA,NA,NA,NA,""
"image-keyboard-response",229,289315,"0.0-3.72-2.72","jsnakn4m73maafz","9.csv","","null","resources/images/coin2.png","null","",NA,NA,NA,NA,""
"image-keyboard-response",230,291286,"0.0-3.73-0.73","jsnakn4m73maafz","9.csv","","1969.5","resources/trios/L4T1A3.jpg","38","restless",0.4,0.8,0.6,0.802153545740828,"false"
"image-keyboard-response",231,291702,"0.0-3.73-1.73","jsnakn4m73maafz","9.csv","","null","resources/maskTrios/BT1B.jpg","null","",NA,NA,NA,NA,""
"image-keyboard-response",232,292916,"0.0-3.73-2.73","jsnakn4m73maafz","9.csv","","null","resources/images/fishbone.png","null","",NA,NA,NA,NA,""
"image-keyboard-response",233,293880,"0.0-3.74-0.74","jsnakn4m73maafz","9.csv","","962.5999999046326","resources/trios/L1T4A1.jpg","37","restless",0.4,0.8,0.6,0.537043389755991,"false"
"image-keyboard-response",234,294296,"0.0-3.74-1.74","jsnakn4m73maafz","9.csv","","null","resources/maskTrios/L1BB.jpg","null","",NA,NA,NA,NA,""
"image-keyboard-response",235,295506,"0.0-3.74-2.74","jsnakn4m73maafz","9.csv","","null","resources/images/fishbone.png","null","",NA,NA,NA,NA,""
"image-keyboard-response",236,296435,"0.0-3.75-0.75","jsnakn4m73maafz","9.csv","","928.2000000476837","resources/trios/L1T4A3.jpg","37","restless",0.4,0.8,0.6,0.97275786701314,"false"
"image-keyboard-response",237,296843,"0.0-3.75-1.75","jsnakn4m73maafz","9.csv","","null","resources/maskTrios/L1BB.jpg","null","",NA,NA,NA,NA,""
"image-keyboard-response",238,298053,"0.0-3.75-2.75","jsnakn4m73maafz","9.csv","","null","resources/images/fishbone.png","null","",NA,NA,NA,NA,""
"image-keyboard-response",239,298733,"0.0-3.76-0.76","jsnakn4m73maafz","9.csv","","679.2000000476837","resources/trios/L1T1A1.jpg","38","restless",0.4,0.8,0.6,0.484973060245383,"true"
"image-keyboard-response",240,299136,"0.0-3.76-1.76","jsnakn4m73maafz","9.csv","","null","resources/maskTrios/BT1B.jpg","null","",NA,NA,NA,NA,""
"image-keyboard-response",241,300346,"0.0-3.76-2.76","jsnakn4m73maafz","9.csv","","null","resources/images/coin2.png","null","",NA,NA,NA,NA,""
"image-keyboard-response",242,301710,"0.0-3.77-0.77","jsnakn4m73maafz","9.csv","","1362.9000000953674","resources/trios/L1T4A1.jpg","38","restless",0.5,0.8,0.6,0.658796179062314,"true"
"image-keyboard-response",243,302115,"0.0-3.77-1.77","jsnakn4m73maafz","9.csv","","null","resources/maskTrios/BT4B.jpg","null","",NA,NA,NA,NA,""
"image-keyboard-response",244,303323,"0.0-3.77-2.77","jsnakn4m73maafz","9.csv","","null","resources/images/coin2.png","null","",NA,NA,NA,NA,""
"image-keyboard-response",245,303924,"0.0-3.78-0.78","jsnakn4m73maafz","9.csv","","599.7000000476837","resources/trios/L4T4A1.jpg","38","restless",0.5,0.7,0.6,0.00845491908228735,"true"
"image-keyboard-response",246,304329,"0.0-3.78-1.78","jsnakn4m73maafz","9.csv","","null","resources/maskTrios/BT4B.jpg","null","",NA,NA,NA,NA,""
"image-keyboard-response",247,305537,"0.0-3.78-2.78","jsnakn4m73maafz","9.csv","","null","resources/images/coin2.png","null","",NA,NA,NA,NA,""
"image-keyboard-response",248,306099,"0.0-3.79-0.79","jsnakn4m73maafz","9.csv","","559.8999998569489","resources/trios/L4T1A1.jpg","38","restless",0.5,0.7,0.6,0.0613979046651318,"true"
"image-keyboard-response",249,306514,"0.0-3.79-1.79","jsnakn4m73maafz","9.csv","","null","resources/maskTrios/BT1B.jpg","null","",NA,NA,NA,NA,""
"image-keyboard-response",250,307724,"0.0-3.79-2.79","jsnakn4m73maafz","9.csv","","null","resources/images/coin2.png","null","",NA,NA,NA,NA,""
"image-keyboard-response",251,308373,"0.0-3.80-0.80","jsnakn4m73maafz","9.csv","","647.5","resources/trios/L4T4A1.jpg","38","restless",0.5,0.7,0.6,0.890677124581427,"false"
"image-keyboard-response",252,308780,"0.0-3.80-1.80","jsnakn4m73maafz","9.csv","","null","resources/maskTrios/BT4B.jpg","null","",NA,NA,NA,NA,""
"image-keyboard-response",253,309988,"0.0-3.80-2.80","jsnakn4m73maafz","9.csv","","null","resources/images/fishbone.png","null","",NA,NA,NA,NA,""
"image-keyboard-response",254,311140,"0.0-3.81-0.81","jsnakn4m73maafz","9.csv","","1150.5999999046326","resources/trios/L1T1A3.jpg","38","restless",0.5,0.7,0.6,0.00692101161968495,"true"
"image-keyboard-response",255,311552,"0.0-3.81-1.81","jsnakn4m73maafz","9.csv","","null","resources/maskTrios/BT1B.jpg","null","",NA,NA,NA,NA,""
"image-keyboard-response",256,312768,"0.0-3.81-2.81","jsnakn4m73maafz","9.csv","","null","resources/images/coin2.png","null","",NA,NA,NA,NA,""
"image-keyboard-response",257,313781,"0.0-3.82-0.82","jsnakn4m73maafz","9.csv","","1010.6999998092651","resources/trios/L1T1A1.jpg","38","restless",0.5,0.7,0.6,0.182830734886225,"true"
"image-keyboard-response",258,314184,"0.0-3.82-1.82","jsnakn4m73maafz","9.csv","","null","resources/maskTrios/BT1B.jpg","null","",NA,NA,NA,NA,""
"image-keyboard-response",259,315389,"0.0-3.82-2.82","jsnakn4m73maafz","9.csv","","null","resources/images/coin2.png","null","",NA,NA,NA,NA,""
"image-keyboard-response",260,317087,"0.0-3.83-0.83","jsnakn4m73maafz","9.csv","","1695.7999999523163","resources/trios/L4T1A1.jpg","38","restless",0.5,0.7,0.6,0.498583278948985,"true"
"image-keyboard-response",261,317496,"0.0-3.83-1.83","jsnakn4m73maafz","9.csv","","null","resources/maskTrios/BT1B.jpg","null","",NA,NA,NA,NA,""
"image-keyboard-response",262,318708,"0.0-3.83-2.83","jsnakn4m73maafz","9.csv","","null","resources/images/coin2.png","null","",NA,NA,NA,NA,""
"image-keyboard-response",263,320802,"0.0-3.84-0.84","jsnakn4m73maafz","9.csv","","2092.7999999523163","resources/trios/L1T4A3.jpg","37","restless",0.5,0.7,0.6,0.767831457739732,"false"
"image-keyboard-response",264,321214,"0.0-3.84-1.84","jsnakn4m73maafz","9.csv","","null","resources/maskTrios/L1BB.jpg","null","",NA,NA,NA,NA,""
"image-keyboard-response",265,322427,"0.0-3.84-2.84","jsnakn4m73maafz","9.csv","","null","resources/images/fishbone.png","null","",NA,NA,NA,NA,""
"image-keyboard-response",266,323824,"0.0-3.85-0.85","jsnakn4m73maafz","9.csv","","1396","resources/trios/L4T1A3.jpg","38","restless",0.5,0.7,0.6,0.852070784826545,"false"
"image-keyboard-response",267,324241,"0.0-3.85-1.85","jsnakn4m73maafz","9.csv","","null","resources/maskTrios/BT1B.jpg","null","",NA,NA,NA,NA,""
"image-keyboard-response",268,325450,"0.0-3.85-2.85","jsnakn4m73maafz","9.csv","","null","resources/images/fishbone.png","null","",NA,NA,NA,NA,""
"image-keyboard-response",269,326795,"0.0-3.86-0.86","jsnakn4m73maafz","9.csv","","1343.1999998092651","resources/trios/L4T1A3.jpg","37","restless",0.5,0.7,0.6,0.394350215934541,"true"
"image-keyboard-response",270,327202,"0.0-3.86-1.86","jsnakn4m73maafz","9.csv","","null","resources/maskTrios/L4BB.jpg","null","",NA,NA,NA,NA,""
"image-keyboard-response",271,328414,"0.0-3.86-2.86","jsnakn4m73maafz","9.csv","","null","resources/images/coin2.png","null","",NA,NA,NA,NA,""
"image-keyboard-response",272,330891,"0.0-3.87-0.87","jsnakn4m73maafz","9.csv","","2475.199999809265","resources/trios/L1T4A3.jpg","39","restless",0.5,0.7,0.6,0.790455068739679,"false"
"image-keyboard-response",273,331306,"0.0-3.87-1.87","jsnakn4m73maafz","9.csv","","null","resources/maskTrios/BBA3.jpg","null","",NA,NA,NA,NA,""
"image-keyboard-response",274,332508,"0.0-3.87-2.87","jsnakn4m73maafz","9.csv","","null","resources/images/fishbone.png","null","",NA,NA,NA,NA,""
"image-keyboard-response",275,334661,"0.0-3.88-0.88","jsnakn4m73maafz","9.csv","","2152.2000000476837","resources/trios/L1T4A3.jpg","38","restless",0.5,0.7,0.6,0.667069135426312,"true"
"image-keyboard-response",276,335075,"0.0-3.88-1.88","jsnakn4m73maafz","9.csv","","null","resources/maskTrios/BT4B.jpg","null","",NA,NA,NA,NA,""
"image-keyboard-response",277,336284,"0.0-3.88-2.88","jsnakn4m73maafz","9.csv","","null","resources/images/coin2.png","null","",NA,NA,NA,NA,""
"image-keyboard-response",278,339462,"0.0-3.89-0.89","jsnakn4m73maafz","9.csv","","3176.7999999523163","resources/trios/L1T4A3.jpg","38","restless",0.5,0.7,0.6,0.0440033263516466,"true"
"image-keyboard-response",279,339871,"0.0-3.89-1.89","jsnakn4m73maafz","9.csv","","null","resources/maskTrios/BT4B.jpg","null","",NA,NA,NA,NA,""
"image-keyboard-response",280,341079,"0.0-3.89-2.89","jsnakn4m73maafz","9.csv","","null","resources/images/coin2.png","null","",NA,NA,NA,NA,""
"image-keyboard-response",281,343026,"0.0-3.90-0.90","jsnakn4m73maafz","9.csv","","1945.5","resources/trios/L1T1A1.jpg","39","restless",0.5,0.7,0.6,0.231250680778455,"true"
"image-keyboard-response",282,343430,"0.0-3.90-1.90","jsnakn4m73maafz","9.csv","","null","resources/maskTrios/BBA1.jpg","null","",NA,NA,NA,NA,""
"image-keyboard-response",283,344641,"0.0-3.90-2.90","jsnakn4m73maafz","9.csv","","null","resources/images/coin2.png","null","",NA,NA,NA,NA,""
"image-keyboard-response",284,345507,"0.0-3.91-0.91","jsnakn4m73maafz","9.csv","","864.4000000953674","resources/trios/L1T1A1.jpg","39","restless",0.5,0.7,0.6,0.673729411312748,"false"
"image-keyboard-response",285,345915,"0.0-3.91-1.91","jsnakn4m73maafz","9.csv","","null","resources/maskTrios/BBA1.jpg","null","",NA,NA,NA,NA,""
"image-keyboard-response",286,347131,"0.0-3.91-2.91","jsnakn4m73maafz","9.csv","","null","resources/images/fishbone.png","null","",NA,NA,NA,NA,""
"image-keyboard-response",287,348496,"0.0-3.92-0.92","jsnakn4m73maafz","9.csv","","1362.9000000953674","resources/trios/L1T4A1.jpg","38","restless",0.5,0.7,0.6,0.496823902150813,"true"
"image-keyboard-response",288,348900,"0.0-3.92-1.92","jsnakn4m73maafz","9.csv","","null","resources/maskTrios/BT4B.jpg","null","",NA,NA,NA,NA,""
"image-keyboard-response",289,350112,"0.0-3.92-2.92","jsnakn4m73maafz","9.csv","","null","resources/images/coin2.png","null","",NA,NA,NA,NA,""
"image-keyboard-response",290,350700,"0.0-3.93-0.93","jsnakn4m73maafz","9.csv","","586.3000001907349","resources/trios/L4T4A1.jpg","38","restless",0.4,0.7,0.6,0.327453673862378,"true"
"image-keyboard-response",291,351117,"0.0-3.93-1.93","jsnakn4m73maafz","9.csv","","null","resources/maskTrios/BT4B.jpg","null","",NA,NA,NA,NA,""
"image-keyboard-response",292,352331,"0.0-3.93-2.93","jsnakn4m73maafz","9.csv","","null","resources/images/coin2.png","null","",NA,NA,NA,NA,""
"image-keyboard-response",293,353039,"0.0-3.94-0.94","jsnakn4m73maafz","9.csv","","705.8999998569489","resources/trios/L1T4A3.jpg","38","restless",0.4,0.7,0.6,0.00958612789994406,"true"
"image-keyboard-response",294,353447,"0.0-3.94-1.94","jsnakn4m73maafz","9.csv","","null","resources/maskTrios/BT4B.jpg","null","",NA,NA,NA,NA,""
"image-keyboard-response",295,354653,"0.0-3.94-2.94","jsnakn4m73maafz","9.csv","","null","resources/images/coin2.png","null","",NA,NA,NA,NA,""
"image-keyboard-response",296,355231,"0.0-3.95-0.95","jsnakn4m73maafz","9.csv","","576.1999998092651","resources/trios/L1T4A3.jpg","38","restless",0.4,0.6,0.6,0.294474040415798,"true"
"image-keyboard-response",297,355646,"0.0-3.95-1.95","jsnakn4m73maafz","9.csv","","null","resources/maskTrios/BT4B.jpg","null","",NA,NA,NA,NA,""
"image-keyboard-response",298,356860,"0.0-3.95-2.95","jsnakn4m73maafz","9.csv","","null","resources/images/coin2.png","null","",NA,NA,NA,NA,""
"image-keyboard-response",299,357332,"0.0-3.96-0.96","jsnakn4m73maafz","9.csv","","469.7999999523163","resources/trios/L1T4A3.jpg","38","restless",0.4,0.6,0.6,0.0728097323766208,"true"
"image-keyboard-response",300,357742,"0.0-3.96-1.96","jsnakn4m73maafz","9.csv","","null","resources/maskTrios/BT4B.jpg","null","",NA,NA,NA,NA,""
"image-keyboard-response",301,358952,"0.0-3.96-2.96","jsnakn4m73maafz","9.csv","","null","resources/images/coin2.png","null","",NA,NA,NA,NA,""
"image-keyboard-response",302,360853,"0.0-3.97-0.97","jsnakn4m73maafz","9.csv","","1899.7000000476837","resources/trios/L1T1A1.jpg","39","restless",0.4,0.6,0.6,0.0809300465072418,"true"
"image-keyboard-response",303,361255,"0.0-3.97-1.97","jsnakn4m73maafz","9.csv","","null","resources/maskTrios/BBA1.jpg","null","",NA,NA,NA,NA,""
"image-keyboard-response",304,362470,"0.0-3.97-2.97","jsnakn4m73maafz","9.csv","","null","resources/images/coin2.png","null","",NA,NA,NA,NA,""
"image-keyboard-response",305,364282,"0.0-3.98-0.98","jsnakn4m73maafz","9.csv","","1809.9000000953674","resources/trios/L4T4A3.jpg","38","restless",0.4,0.6,0.6,0.727978008971784,"false"
"image-keyboard-response",306,364685,"0.0-3.98-1.98","jsnakn4m73maafz","9.csv","","null","resources/maskTrios/BT4B.jpg","null","",NA,NA,NA,NA,""
"image-keyboard-response",307,365893,"0.0-3.98-2.98","jsnakn4m73maafz","9.csv","","null","resources/images/fishbone.png","null","",NA,NA,NA,NA,""
"image-keyboard-response",308,367674,"0.0-3.99-0.99","jsnakn4m73maafz","9.csv","","1779.5","resources/trios/L4T4A1.jpg","39","restless",0.4,0.6,0.6,0.322125229689158,"true"
"image-keyboard-response",309,368081,"0.0-3.99-1.99","jsnakn4m73maafz","9.csv","","null","resources/maskTrios/BBA1.jpg","null","",NA,NA,NA,NA,""
"image-keyboard-response",310,369293,"0.0-3.99-2.99","jsnakn4m73maafz","9.csv","","null","resources/images/coin2.png","null","",NA,NA,NA,NA,""
"image-keyboard-response",311,370443,"0.0-3.100-0.100","jsnakn4m73maafz","9.csv","","1149","resources/trios/L4T1A3.jpg","37","restless",0.4,0.5,0.6,0.465640418728271,"false"
"image-keyboard-response",312,370849,"0.0-3.100-1.100","jsnakn4m73maafz","9.csv","","null","resources/maskTrios/L4BB.jpg","null","",NA,NA,NA,NA,""
"image-keyboard-response",313,372062,"0.0-3.100-2.100","jsnakn4m73maafz","9.csv","","null","resources/images/fishbone.png","null","",NA,NA,NA,NA,""
"image-keyboard-response",314,373275,"0.0-3.101-0.101","jsnakn4m73maafz","9.csv","","1211.9000000953674","resources/trios/L4T4A3.jpg","37","restless",0.4,0.5,0.6,0.123861548837701,"true"
"image-keyboard-response",315,373686,"0.0-3.101-1.101","jsnakn4m73maafz","9.csv","","null","resources/maskTrios/L4BB.jpg","null","",NA,NA,NA,NA,""
"image-keyboard-response",316,374897,"0.0-3.101-2.101","jsnakn4m73maafz","9.csv","","null","resources/images/coin2.png","null","",NA,NA,NA,NA,""
"image-keyboard-response",317,376725,"0.0-3.102-0.102","jsnakn4m73maafz","9.csv","","1826.1000001430511","resources/trios/L4T1A1.jpg","39","restless",0.4,0.5,0.6,0.517139133461652,"true"
"image-keyboard-response",318,377141,"0.0-3.102-1.102","jsnakn4m73maafz","9.csv","","null","resources/maskTrios/BBA1.jpg","null","",NA,NA,NA,NA,""
"image-keyboard-response",319,378351,"0.0-3.102-2.102","jsnakn4m73maafz","9.csv","","null","resources/images/coin2.png","null","",NA,NA,NA,NA,""
"image-keyboard-response",320,379463,"0.0-3.103-0.103","jsnakn4m73maafz","9.csv","","1111","resources/trios/L1T1A1.jpg","38","restless",0.4,0.5,0.6,0.73288742360224,"false"
"image-keyboard-response",321,379868,"0.0-3.103-1.103","jsnakn4m73maafz","9.csv","","null","resources/maskTrios/BT1B.jpg","null","",NA,NA,NA,NA,""
"image-keyboard-response",322,381076,"0.0-3.103-2.103","jsnakn4m73maafz","9.csv","","null","resources/images/fishbone.png","null","",NA,NA,NA,NA,""
"image-keyboard-response",323,382260,"0.0-3.104-0.104","jsnakn4m73maafz","9.csv","","1183","resources/trios/L1T1A3.jpg","38","restless",0.4,0.5,0.6,0.633826888508887,"false"
"image-keyboard-response",324,382672,"0.0-3.104-1.104","jsnakn4m73maafz","9.csv","","null","resources/maskTrios/BT1B.jpg","null","",NA,NA,NA,NA,""
"image-keyboard-response",325,383880,"0.0-3.104-2.104","jsnakn4m73maafz","9.csv","","null","resources/images/fishbone.png","null","",NA,NA,NA,NA,""
"image-keyboard-response",326,385283,"0.0-3.105-0.105","jsnakn4m73maafz","9.csv","","1401.6000001430511","resources/trios/L4T1A1.jpg","39","restless",0.5,0.5,0.6,0.0546944499055075,"true"
"image-keyboard-response",327,385688,"0.0-3.105-1.105","jsnakn4m73maafz","9.csv","","null","resources/maskTrios/BBA1.jpg","null","",NA,NA,NA,NA,""
"image-keyboard-response",328,386889,"0.0-3.105-2.105","jsnakn4m73maafz","9.csv","","null","resources/images/coin2.png","null","",NA,NA,NA,NA,""
"image-keyboard-response",329,388227,"0.0-3.106-0.106","jsnakn4m73maafz","9.csv","","1336.2999999523163","resources/trios/L4T4A3.jpg","37","restless",0.5,0.5,0.6,0.00535411619850135,"true"
"image-keyboard-response",330,388642,"0.0-3.106-1.106","jsnakn4m73maafz","9.csv","","null","resources/maskTrios/L4BB.jpg","null","",NA,NA,NA,NA,""
"image-keyboard-response",331,389849,"0.0-3.106-2.106","jsnakn4m73maafz","9.csv","","null","resources/images/coin2.png","null","",NA,NA,NA,NA,""
"image-keyboard-response",332,390785,"0.0-3.107-0.107","jsnakn4m73maafz","9.csv","","934","resources/trios/L1T4A3.jpg","37","restless",0.5,0.5,0.6,0.409096060305625,"true"
"image-keyboard-response",333,391195,"0.0-3.107-1.107","jsnakn4m73maafz","9.csv","","null","resources/maskTrios/L1BB.jpg","null","",NA,NA,NA,NA,""
"image-keyboard-response",334,392409,"0.0-3.107-2.107","jsnakn4m73maafz","9.csv","","null","resources/images/coin2.png","null","",NA,NA,NA,NA,""
"image-keyboard-response",335,393819,"0.0-3.108-0.108","jsnakn4m73maafz","9.csv","","1407.9000000953674","resources/trios/L1T4A3.jpg","37","restless",0.5,0.5,0.6,0.686260798854006,"false"
"image-keyboard-response",336,394225,"0.0-3.108-1.108","jsnakn4m73maafz","9.csv","","null","resources/maskTrios/L1BB.jpg","null","",NA,NA,NA,NA,""
"image-keyboard-response",337,395430,"0.0-3.108-2.108","jsnakn4m73maafz","9.csv","","null","resources/images/fishbone.png","null","",NA,NA,NA,NA,""
"image-keyboard-response",338,397887,"0.0-3.109-0.109","jsnakn4m73maafz","9.csv","","2455.199999809265","resources/trios/L4T1A3.jpg","37","restless",0.5,0.5,0.6,0.0328912137243,"true"
"image-keyboard-response",339,398297,"0.0-3.109-1.109","jsnakn4m73maafz","9.csv","","null","resources/maskTrios/L4BB.jpg","null","",NA,NA,NA,NA,""
"image-keyboard-response",340,399508,"0.0-3.109-2.109","jsnakn4m73maafz","9.csv","","null","resources/images/coin2.png","null","",NA,NA,NA,NA,""
"image-keyboard-response",341,401226,"0.0-3.110-0.110","jsnakn4m73maafz","9.csv","","1715.7999999523163","resources/trios/L4T4A1.jpg","39","restless",0.5,0.5,0.6,0.772617991271653,"false"
"image-keyboard-response",342,401640,"0.0-3.110-1.110","jsnakn4m73maafz","9.csv","","null","resources/maskTrios/BBA1.jpg","null","",NA,NA,NA,NA,""
"image-keyboard-response",343,402855,"0.0-3.110-2.110","jsnakn4m73maafz","9.csv","","null","resources/images/fishbone.png","null","",NA,NA,NA,NA,""
"image-keyboard-response",344,404392,"0.0-3.111-0.111","jsnakn4m73maafz","9.csv","","1535.7000000476837","resources/trios/L4T1A3.jpg","38","restless",0.5,0.5,0.6,0.794460985956332,"false"
"image-keyboard-response",345,404810,"0.0-3.111-1.111","jsnakn4m73maafz","9.csv","","null","resources/maskTrios/BT1B.jpg","null","",NA,NA,NA,NA,""
"image-keyboard-response",346,406020,"0.0-3.111-2.111","jsnakn4m73maafz","9.csv","","null","resources/images/fishbone.png","null","",NA,NA,NA,NA,""
"image-keyboard-response",347,406911,"0.0-3.112-0.112","jsnakn4m73maafz","9.csv","","890.2000000476837","resources/trios/L4T4A3.jpg","38","restless",0.4,0.5,0.6,0.514097900806485,"false"
"image-keyboard-response",348,407316,"0.0-3.112-1.112","jsnakn4m73maafz","9.csv","","null","resources/maskTrios/BT4B.jpg","null","",NA,NA,NA,NA,""
"image-keyboard-response",349,408523,"0.0-3.112-2.112","jsnakn4m73maafz","9.csv","","null","resources/images/fishbone.png","null","",NA,NA,NA,NA,""
"image-keyboard-response",350,409393,"0.0-3.113-0.113","jsnakn4m73maafz","9.csv","","868.1000001430511","resources/trios/L4T4A1.jpg","39","restless",0.4,0.5,0.6,0.240051279547264,"true"
"image-keyboard-response",351,409806,"0.0-3.113-1.113","jsnakn4m73maafz","9.csv","","null","resources/maskTrios/BBA1.jpg","null","",NA,NA,NA,NA,""
"image-keyboard-response",352,411014,"0.0-3.113-2.113","jsnakn4m73maafz","9.csv","","null","resources/images/coin2.png","null","",NA,NA,NA,NA,""
"image-keyboard-response",353,412252,"0.0-3.114-0.114","jsnakn4m73maafz","9.csv","","1236.0999999046326","resources/trios/L4T1A3.jpg","37","restless",0.3,0.5,0.6,0.802782680239142,"false"
"image-keyboard-response",354,412665,"0.0-3.114-1.114","jsnakn4m73maafz","9.csv","","null","resources/maskTrios/L4BB.jpg","null","",NA,NA,NA,NA,""
"image-keyboard-response",355,413875,"0.0-3.114-2.114","jsnakn4m73maafz","9.csv","","null","resources/images/fishbone.png","null","",NA,NA,NA,NA,""
"image-keyboard-response",356,416722,"0.0-3.115-0.115","jsnakn4m73maafz","9.csv","","2845.300000190735","resources/trios/L1T4A3.jpg","37","restless",0.3,0.5,0.7,0.248794541576107,"true"
"image-keyboard-response",357,417132,"0.0-3.115-1.115","jsnakn4m73maafz","9.csv","","null","resources/maskTrios/L1BB.jpg","null","",NA,NA,NA,NA,""
"image-keyboard-response",358,418339,"0.0-3.115-2.115","jsnakn4m73maafz","9.csv","","null","resources/images/coin2.png","null","",NA,NA,NA,NA,""
"image-keyboard-response",359,419200,"0.0-3.116-0.116","jsnakn4m73maafz","9.csv","","859.2000000476837","resources/trios/L4T4A1.jpg","37","restless",0.3,0.5,0.7,0.709694914376404,"false"
"image-keyboard-response",360,419609,"0.0-3.116-1.116","jsnakn4m73maafz","9.csv","","null","resources/maskTrios/L4BB.jpg","null","",NA,NA,NA,NA,""
"image-keyboard-response",361,420821,"0.0-3.116-2.116","jsnakn4m73maafz","9.csv","","null","resources/images/fishbone.png","null","",NA,NA,NA,NA,""
"image-keyboard-response",362,424010,"0.0-3.117-0.117","jsnakn4m73maafz","9.csv","","3186.2999999523163","resources/trios/L4T4A3.jpg","38","restless",0.3,0.5,0.7,0.760488860144726,"false"
"image-keyboard-response",363,424417,"0.0-3.117-1.117","jsnakn4m73maafz","9.csv","","null","resources/maskTrios/BT4B.jpg","null","",NA,NA,NA,NA,""
"image-keyboard-response",364,425623,"0.0-3.117-2.117","jsnakn4m73maafz","9.csv","","null","resources/images/fishbone.png","null","",NA,NA,NA,NA,""
"image-keyboard-response",365,426335,"0.0-3.118-0.118","jsnakn4m73maafz","9.csv","","711","resources/trios/L1T1A1.jpg","39","restless",0.4,0.5,0.7,0.360269305823662,"true"
"image-keyboard-response",366,426738,"0.0-3.118-1.118","jsnakn4m73maafz","9.csv","","null","resources/maskTrios/BBA1.jpg","null","",NA,NA,NA,NA,""
"image-keyboard-response",367,427952,"0.0-3.118-2.118","jsnakn4m73maafz","9.csv","","null","resources/images/coin2.png","null","",NA,NA,NA,NA,""
"image-keyboard-response",368,429462,"0.0-3.119-0.119","jsnakn4m73maafz","9.csv","","1508.4000000953674","resources/trios/L4T1A1.jpg","38","restless",0.4,0.5,0.8,0.902859125332834,"false"
"image-keyboard-response",369,429874,"0.0-3.119-1.119","jsnakn4m73maafz","9.csv","","null","resources/maskTrios/BT1B.jpg","null","",NA,NA,NA,NA,""
"image-keyboard-response",370,431084,"0.0-3.119-2.119","jsnakn4m73maafz","9.csv","","null","resources/images/fishbone.png","null","",NA,NA,NA,NA,""
"image-keyboard-response",371,432242,"0.0-3.120-0.120","jsnakn4m73maafz","9.csv","","1155.5","resources/trios/L4T4A3.jpg","38","restless",0.4,0.5,0.8,0.755110104978023,"false"
"image-keyboard-response",372,432659,"0.0-3.120-1.120","jsnakn4m73maafz","9.csv","","null","resources/maskTrios/BT4B.jpg","null","",NA,NA,NA,NA,""
"image-keyboard-response",373,433862,"0.0-3.120-2.120","jsnakn4m73maafz","9.csv","","null","resources/images/fishbone.png","null","",NA,NA,NA,NA,""
"image-keyboard-response",374,435516,"0.0-3.121-0.121","jsnakn4m73maafz","9.csv","","1652.2000000476837","resources/trios/L1T1A3.jpg","37","restless",0.4,0.5,0.8,0.296698190997219,"true"
"image-keyboard-response",375,435929,"0.0-3.121-1.121","jsnakn4m73maafz","9.csv","","null","resources/maskTrios/L1BB.jpg","null","",NA,NA,NA,NA,""
"image-keyboard-response",376,437142,"0.0-3.121-2.121","jsnakn4m73maafz","9.csv","","null","resources/images/coin2.png","null","",NA,NA,NA,NA,""
"image-keyboard-response",377,439927,"0.0-3.122-0.122","jsnakn4m73maafz","9.csv","","2782.7999999523163","resources/trios/L1T1A3.jpg","37","restless",0.5,0.5,0.8,0.742003761873819,"false"
"image-keyboard-response",378,440339,"0.0-3.122-1.122","jsnakn4m73maafz","9.csv","","null","resources/maskTrios/L1BB.jpg","null","",NA,NA,NA,NA,""
"image-keyboard-response",379,441544,"0.0-3.122-2.122","jsnakn4m73maafz","9.csv","","null","resources/images/fishbone.png","null","",NA,NA,NA,NA,""
"image-keyboard-response",380,442858,"0.0-3.123-0.123","jsnakn4m73maafz","9.csv","","1312.5","resources/trios/L1T1A3.jpg","38","restless",0.5,0.5,0.8,0.327917898562561,"true"
"image-keyboard-response",381,443262,"0.0-3.123-1.123","jsnakn4m73maafz","9.csv","","null","resources/maskTrios/BT1B.jpg","null","",NA,NA,NA,NA,""
"image-keyboard-response",382,444467,"0.0-3.123-2.123","jsnakn4m73maafz","9.csv","","null","resources/images/coin2.png","null","",NA,NA,NA,NA,""
"image-keyboard-response",383,446079,"0.0-3.124-0.124","jsnakn4m73maafz","9.csv","","1609.5","resources/trios/L1T1A3.jpg","38","restless",0.6,0.5,0.8,0.552808469280096,"false"
"image-keyboard-response",384,446482,"0.0-3.124-1.124","jsnakn4m73maafz","9.csv","","null","resources/maskTrios/BT1B.jpg","null","",NA,NA,NA,NA,""
"image-keyboard-response",385,447699,"0.0-3.124-2.124","jsnakn4m73maafz","9.csv","","null","resources/images/fishbone.png","null","",NA,NA,NA,NA,""
"image-keyboard-response",386,448612,"0.0-3.125-0.125","jsnakn4m73maafz","9.csv","","911.1000001430511","resources/trios/L4T1A3.jpg","38","restless",0.6,0.5,0.8,0.519826511062804,"false"
"image-keyboard-response",387,449016,"0.0-3.125-1.125","jsnakn4m73maafz","9.csv","","null","resources/maskTrios/BT1B.jpg","null","",NA,NA,NA,NA,""
"image-keyboard-response",388,450224,"0.0-3.125-2.125","jsnakn4m73maafz","9.csv","","null","resources/images/fishbone.png","null","",NA,NA,NA,NA,""
"image-keyboard-response",389,451234,"0.0-3.126-0.126","jsnakn4m73maafz","9.csv","","1008.5","resources/trios/L1T4A1.jpg","39","restless",0.6,0.5,0.8,0.962375555192188,"false"
"image-keyboard-response",390,451645,"0.0-3.126-1.126","jsnakn4m73maafz","9.csv","","null","resources/maskTrios/BBA1.jpg","null","",NA,NA,NA,NA,""
"image-keyboard-response",391,452855,"0.0-3.126-2.126","jsnakn4m73maafz","9.csv","","null","resources/images/fishbone.png","null","",NA,NA,NA,NA,""
"image-keyboard-response",392,454054,"0.0-3.127-0.127","jsnakn4m73maafz","9.csv","","1197.2999999523163","resources/trios/L4T1A1.jpg","39","restless",0.6,0.5,0.8,0.642006957722745,"true"
"image-keyboard-response",393,454465,"0.0-3.127-1.127","jsnakn4m73maafz","9.csv","","null","resources/maskTrios/BBA1.jpg","null","",NA,NA,NA,NA,""
"image-keyboard-response",394,455672,"0.0-3.127-2.127","jsnakn4m73maafz","9.csv","","null","resources/images/coin2.png","null","",NA,NA,NA,NA,""
"image-keyboard-response",395,461844,"0.0-3.128-0.128","jsnakn4m73maafz","9.csv","","6170.5","resources/trios/L1T4A3.jpg","38","restless",0.6,0.4,0.8,0.291591277611581,"true"
"image-keyboard-response",396,462250,"0.0-3.128-1.128","jsnakn4m73maafz","9.csv","","null","resources/maskTrios/BT4B.jpg","null","",NA,NA,NA,NA,""
"image-keyboard-response",397,463454,"0.0-3.128-2.128","jsnakn4m73maafz","9.csv","","null","resources/images/coin2.png","null","",NA,NA,NA,NA,""
"image-keyboard-response",398,465635,"0.0-3.129-0.129","jsnakn4m73maafz","9.csv","","2179.300000190735","resources/trios/L1T1A3.jpg","38","restless",0.6,0.4,0.8,0.0679105653525984,"true"
"image-keyboard-response",399,466049,"0.0-3.129-1.129","jsnakn4m73maafz","9.csv","","null","resources/maskTrios/BT1B.jpg","null","",NA,NA,NA,NA,""
"image-keyboard-response",400,467265,"0.0-3.129-2.129","jsnakn4m73maafz","9.csv","","null","resources/images/coin2.png","null","",NA,NA,NA,NA,""
"image-keyboard-response",401,468758,"0.0-3.130-0.130","jsnakn4m73maafz","9.csv","","1491.4000000953674","resources/trios/L1T1A3.jpg","38","restless",0.6,0.4,0.8,0.339474452625428,"true"
"image-keyboard-response",402,469172,"0.0-3.130-1.130","jsnakn4m73maafz","9.csv","","null","resources/maskTrios/BT1B.jpg","null","",NA,NA,NA,NA,""
"image-keyboard-response",403,470382,"0.0-3.130-2.130","jsnakn4m73maafz","9.csv","","null","resources/images/coin2.png","null","",NA,NA,NA,NA,""
"image-keyboard-response",404,471825,"0.0-3.131-0.131","jsnakn4m73maafz","9.csv","","1440.8000001907349","resources/trios/L4T4A3.jpg","38","restless",0.6,0.4,0.8,0.192988023522844,"true"
"image-keyboard-response",405,472228,"0.0-3.131-1.131","jsnakn4m73maafz","9.csv","","null","resources/maskTrios/BT4B.jpg","null","",NA,NA,NA,NA,""
"image-keyboard-response",406,473435,"0.0-3.131-2.131","jsnakn4m73maafz","9.csv","","null","resources/images/coin2.png","null","",NA,NA,NA,NA,""
"image-keyboard-response",407,474726,"0.0-3.132-0.132","jsnakn4m73maafz","9.csv","","1289.2999999523163","resources/trios/L1T4A1.jpg","39","restless",0.6,0.4,0.8,0.0864014649209637,"true"
"image-keyboard-response",408,475142,"0.0-3.132-1.132","jsnakn4m73maafz","9.csv","","null","resources/maskTrios/BBA1.jpg","null","",NA,NA,NA,NA,""
"image-keyboard-response",409,476350,"0.0-3.132-2.132","jsnakn4m73maafz","9.csv","","null","resources/images/coin2.png","null","",NA,NA,NA,NA,""
"image-keyboard-response",410,477981,"0.0-3.133-0.133","jsnakn4m73maafz","9.csv","","1628.7999999523163","resources/trios/L1T4A1.jpg","38","restless",0.6,0.4,0.8,0.839167109573455,"false"
"image-keyboard-response",411,478386,"0.0-3.133-1.133","jsnakn4m73maafz","9.csv","","null","resources/maskTrios/BT4B.jpg","null","",NA,NA,NA,NA,""
"image-keyboard-response",412,479597,"0.0-3.133-2.133","jsnakn4m73maafz","9.csv","","null","resources/images/fishbone.png","null","",NA,NA,NA,NA,""
"image-keyboard-response",413,481220,"0.0-3.134-0.134","jsnakn4m73maafz","9.csv","","1621.4000000953674","resources/trios/L4T4A1.jpg","39","restless",0.6,0.3,0.8,0.74323497059509,"true"
"image-keyboard-response",414,481628,"0.0-3.134-1.134","jsnakn4m73maafz","9.csv","","null","resources/maskTrios/BBA1.jpg","null","",NA,NA,NA,NA,""
"image-keyboard-response",415,482841,"0.0-3.134-2.134","jsnakn4m73maafz","9.csv","","null","resources/images/coin2.png","null","",NA,NA,NA,NA,""
"image-keyboard-response",416,484419,"0.0-3.135-0.135","jsnakn4m73maafz","9.csv","","1576.5","resources/trios/L1T1A3.jpg","37","restless",0.6,0.3,0.8,0.344405610999108,"true"
"image-keyboard-response",417,484825,"0.0-3.135-1.135","jsnakn4m73maafz","9.csv","","null","resources/maskTrios/L1BB.jpg","null","",NA,NA,NA,NA,""
"image-keyboard-response",418,486035,"0.0-3.135-2.135","jsnakn4m73maafz","9.csv","","null","resources/images/coin2.png","null","",NA,NA,NA,NA,""
"image-keyboard-response",419,487913,"0.0-3.136-0.136","jsnakn4m73maafz","9.csv","","1876.6000001430511","resources/trios/L4T4A3.jpg","37","restless",0.6,0.4,0.8,0.90816368496807,"false"
"image-keyboard-response",420,488324,"0.0-3.136-1.136","jsnakn4m73maafz","9.csv","","null","resources/maskTrios/L4BB.jpg","null","",NA,NA,NA,NA,""
"image-keyboard-response",421,489534,"0.0-3.136-2.136","jsnakn4m73maafz","9.csv","","null","resources/images/fishbone.png","null","",NA,NA,NA,NA,""
"image-keyboard-response",422,490805,"0.0-3.137-0.137","jsnakn4m73maafz","9.csv","","1269.2000000476837","resources/trios/L1T4A1.jpg","39","restless",0.6,0.4,0.9,0.493257370801613,"true"
"image-keyboard-response",423,491209,"0.0-3.137-1.137","jsnakn4m73maafz","9.csv","","null","resources/maskTrios/BBA1.jpg","null","",NA,NA,NA,NA,""
"image-keyboard-response",424,492424,"0.0-3.137-2.137","jsnakn4m73maafz","9.csv","","null","resources/images/coin2.png","null","",NA,NA,NA,NA,""
"image-keyboard-response",425,493670,"0.0-3.138-0.138","jsnakn4m73maafz","9.csv","","1244.2999999523163","resources/trios/L4T4A1.jpg","39","restless",0.6,0.4,0.9,0.973145746819507,"false"
"image-keyboard-response",426,494084,"0.0-3.138-1.138","jsnakn4m73maafz","9.csv","","null","resources/maskTrios/BBA1.jpg","null","",NA,NA,NA,NA,""
"image-keyboard-response",427,495291,"0.0-3.138-2.138","jsnakn4m73maafz","9.csv","","null","resources/images/fishbone.png","null","",NA,NA,NA,NA,""
"image-keyboard-response",428,496212,"0.0-3.139-0.139","jsnakn4m73maafz","9.csv","","918","resources/trios/L4T4A1.jpg","38","restless",0.6,0.4,0.9,0.621092537969673,"false"
"image-keyboard-response",429,496621,"0.0-3.139-1.139","jsnakn4m73maafz","9.csv","","null","resources/maskTrios/BT4B.jpg","null","",NA,NA,NA,NA,""
"image-keyboard-response",430,497836,"0.0-3.139-2.139","jsnakn4m73maafz","9.csv","","null","resources/images/fishbone.png","null","",NA,NA,NA,NA,""
"image-keyboard-response",431,499025,"0.0-3.140-0.140","jsnakn4m73maafz","9.csv","","1186.6999998092651","resources/trios/L4T4A3.jpg","38","restless",0.6,0.4,0.9,0.701693024980918,"false"
"image-keyboard-response",432,499438,"0.0-3.140-1.140","jsnakn4m73maafz","9.csv","","null","resources/maskTrios/BT4B.jpg","null","",NA,NA,NA,NA,""
"image-keyboard-response",433,500647,"0.0-3.140-2.140","jsnakn4m73maafz","9.csv","","null","resources/images/fishbone.png","null","",NA,NA,NA,NA,""
"image-keyboard-response",434,501537,"0.0-3.141-0.141","jsnakn4m73maafz","9.csv","","888.2999999523163","resources/trios/L4T4A3.jpg","37","restless",0.6,0.4,0.9,0.990779617380702,"false"
"image-keyboard-response",435,501954,"0.0-3.141-1.141","jsnakn4m73maafz","9.csv","","null","resources/maskTrios/L4BB.jpg","null","",NA,NA,NA,NA,""
"image-keyboard-response",436,503166,"0.0-3.141-2.141","jsnakn4m73maafz","9.csv","","null","resources/images/fishbone.png","null","",NA,NA,NA,NA,""
"image-keyboard-response",437,504969,"0.0-3.142-0.142","jsnakn4m73maafz","9.csv","","1801.0999999046326","resources/trios/L4T4A3.jpg","39","restless",0.7,0.4,0.9,0.336865086478251,"true"
"image-keyboard-response",438,505383,"0.0-3.142-1.142","jsnakn4m73maafz","9.csv","","null","resources/maskTrios/BBA3.jpg","null","",NA,NA,NA,NA,""
"image-keyboard-response",439,506593,"0.0-3.142-2.142","jsnakn4m73maafz","9.csv","","null","resources/images/coin2.png","null","",NA,NA,NA,NA,""
"image-keyboard-response",440,508557,"0.0-3.143-0.143","jsnakn4m73maafz","9.csv","","1962.1999998092651","resources/trios/L1T4A3.jpg","37","restless",0.7,0.4,0.8,0.00860336594544431,"true"
"image-keyboard-response",441,508966,"0.0-3.143-1.143","jsnakn4m73maafz","9.csv","","null","resources/maskTrios/L1BB.jpg","null","",NA,NA,NA,NA,""
"image-keyboard-response",442,510174,"0.0-3.143-2.143","jsnakn4m73maafz","9.csv","","null","resources/images/coin2.png","null","",NA,NA,NA,NA,""
"image-keyboard-response",443,513656,"0.0-3.144-0.144","jsnakn4m73maafz","9.csv","","3480.5999999046326","resources/trios/L1T1A3.jpg","39","restless",0.7,0.4,0.8,0.680806755756886,"true"
"image-keyboard-response",444,514063,"0.0-3.144-1.144","jsnakn4m73maafz","9.csv","","null","resources/maskTrios/BBA3.jpg","null","",NA,NA,NA,NA,""
"image-keyboard-response",445,515273,"0.0-3.144-2.144","jsnakn4m73maafz","9.csv","","null","resources/images/coin2.png","null","",NA,NA,NA,NA,""
"image-keyboard-response",446,516273,"0.0-3.145-0.145","jsnakn4m73maafz","9.csv","","998.2999999523163","resources/trios/L1T1A3.jpg","39","restless",0.7,0.4,0.8,0.111927267495343,"true"
"image-keyboard-response",447,516675,"0.0-3.145-1.145","jsnakn4m73maafz","9.csv","","null","resources/maskTrios/BBA3.jpg","null","",NA,NA,NA,NA,""
"image-keyboard-response",448,517885,"0.0-3.145-2.145","jsnakn4m73maafz","9.csv","","null","resources/images/coin2.png","null","",NA,NA,NA,NA,""
"image-keyboard-response",449,518777,"0.0-3.146-0.146","jsnakn4m73maafz","9.csv","","890.2999999523163","resources/trios/L4T4A3.jpg","39","restless",0.7,0.4,0.8,0.271097992114235,"true"
"image-keyboard-response",450,519184,"0.0-3.146-1.146","jsnakn4m73maafz","9.csv","","null","resources/maskTrios/BBA3.jpg","null","",NA,NA,NA,NA,""
"image-keyboard-response",451,520392,"0.0-3.146-2.146","jsnakn4m73maafz","9.csv","","null","resources/images/coin2.png","null","",NA,NA,NA,NA,""
"image-keyboard-response",452,521269,"0.0-3.147-0.147","jsnakn4m73maafz","9.csv","","875.3999998569489","resources/trios/L1T4A3.jpg","39","restless",0.7,0.4,0.8,0.295808563481341,"true"
"image-keyboard-response",453,521677,"0.0-3.147-1.147","jsnakn4m73maafz","9.csv","","null","resources/maskTrios/BBA3.jpg","null","",NA,NA,NA,NA,""
"image-keyboard-response",454,522892,"0.0-3.147-2.147","jsnakn4m73maafz","9.csv","","null","resources/images/coin2.png","null","",NA,NA,NA,NA,""
"image-keyboard-response",455,523995,"0.0-3.148-0.148","jsnakn4m73maafz","9.csv","","1102","resources/trios/L4T4A3.jpg","39","restless",0.7,0.4,0.9,0.393348001661428,"true"
"image-keyboard-response",456,524398,"0.0-3.148-1.148","jsnakn4m73maafz","9.csv","","null","resources/maskTrios/BBA3.jpg","null","",NA,NA,NA,NA,""
"image-keyboard-response",457,525603,"0.0-3.148-2.148","jsnakn4m73maafz","9.csv","","null","resources/images/coin2.png","null","",NA,NA,NA,NA,""
"image-keyboard-response",458,526315,"0.0-3.149-0.149","jsnakn4m73maafz","9.csv","","709.5","resources/trios/L1T4A3.jpg","39","restless",0.7,0.4,0.9,0.65551052444839,"true"
"image-keyboard-response",459,526717,"0.0-3.149-1.149","jsnakn4m73maafz","9.csv","","null","resources/maskTrios/BBA3.jpg","null","",NA,NA,NA,NA,""
"image-keyboard-response",460,527920,"0.0-3.149-2.149","jsnakn4m73maafz","9.csv","","null","resources/images/coin2.png","null","",NA,NA,NA,NA,""
"image-keyboard-response",461,528477,"0.0-3.150-0.150","jsnakn4m73maafz","9.csv","","555","resources/trios/L4T4A3.jpg","39","restless",0.7,0.4,0.8,0.395938917481151,"true"
"image-keyboard-response",462,528883,"0.0-3.150-1.150","jsnakn4m73maafz","9.csv","","null","resources/maskTrios/BBA3.jpg","null","",NA,NA,NA,NA,""
"image-keyboard-response",463,530091,"0.0-3.150-2.150","jsnakn4m73maafz","9.csv","","null","resources/images/coin2.png","null","",NA,NA,NA,NA,""
"image-keyboard-response",464,530863,"0.0-3.151-0.151","jsnakn4m73maafz","9.csv","","769.7000000476837","resources/trios/L1T1A3.jpg","39","restless",0.7,0.4,0.8,0.792771805577018,"true"
"image-keyboard-response",465,531268,"0.0-3.151-1.151","jsnakn4m73maafz","9.csv","","null","resources/maskTrios/BBA3.jpg","null","",NA,NA,NA,NA,""
"image-keyboard-response",466,532478,"0.0-3.151-2.151","jsnakn4m73maafz","9.csv","","null","resources/images/coin2.png","null","",NA,NA,NA,NA,""
"image-keyboard-response",467,533534,"0.0-3.152-0.152","jsnakn4m73maafz","9.csv","","1054.6000001430511","resources/trios/L4T1A3.jpg","39","restless",0.6,0.4,0.7,0.429842283248487,"true"
"image-keyboard-response",468,533947,"0.0-3.152-1.152","jsnakn4m73maafz","9.csv","","null","resources/maskTrios/BBA3.jpg","null","",NA,NA,NA,NA,""
"image-keyboard-response",469,535154,"0.0-3.152-2.152","jsnakn4m73maafz","9.csv","","null","resources/images/coin2.png","null","",NA,NA,NA,NA,""
"image-keyboard-response",470,535660,"0.0-3.153-0.153","jsnakn4m73maafz","9.csv","","503.7000000476837","resources/trios/L4T4A1.jpg","39","restless",0.6,0.4,0.7,0.518808525484932,"true"
"image-keyboard-response",471,536070,"0.0-3.153-1.153","jsnakn4m73maafz","9.csv","","null","resources/maskTrios/BBA1.jpg","null","",NA,NA,NA,NA,""
"image-keyboard-response",472,537280,"0.0-3.153-2.153","jsnakn4m73maafz","9.csv","","null","resources/images/coin2.png","null","",NA,NA,NA,NA,""
"image-keyboard-response",473,537818,"0.0-3.154-0.154","jsnakn4m73maafz","9.csv","","536.1999998092651","resources/trios/L1T4A3.jpg","39","restless",0.6,0.4,0.7,0.278379055948091,"true"
"image-keyboard-response",474,538224,"0.0-3.154-1.154","jsnakn4m73maafz","9.csv","","null","resources/maskTrios/BBA3.jpg","null","",NA,NA,NA,NA,""
"image-keyboard-response",475,539436,"0.0-3.154-2.154","jsnakn4m73maafz","9.csv","","null","resources/images/coin2.png","null","",NA,NA,NA,NA,""
"image-keyboard-response",476,539948,"0.0-3.155-0.155","jsnakn4m73maafz","9.csv","","509.5","resources/trios/L1T1A3.jpg","39","restless",0.6,0.4,0.7,0.78311095939692,"false"
"image-keyboard-response",477,540354,"0.0-3.155-1.155","jsnakn4m73maafz","9.csv","","null","resources/maskTrios/BBA3.jpg","null","",NA,NA,NA,NA,""
"image-keyboard-response",478,541563,"0.0-3.155-2.155","jsnakn4m73maafz","9.csv","","null","resources/images/fishbone.png","null","",NA,NA,NA,NA,""
"image-keyboard-response",479,542203,"0.0-3.156-0.156","jsnakn4m73maafz","9.csv","","638","resources/trios/L1T1A1.jpg","39","restless",0.6,0.4,0.7,0.781035237811449,"false"
"image-keyboard-response",480,542607,"0.0-3.156-1.156","jsnakn4m73maafz","9.csv","","null","resources/maskTrios/BBA1.jpg","null","",NA,NA,NA,NA,""
"image-keyboard-response",481,543816,"0.0-3.156-2.156","jsnakn4m73maafz","9.csv","","null","resources/images/fishbone.png","null","",NA,NA,NA,NA,""
"image-keyboard-response",482,545777,"0.0-3.157-0.157","jsnakn4m73maafz","9.csv","","1959.9000000953674","resources/trios/L1T1A3.jpg","37","restless",0.6,0.4,0.7,0.829739017993923,"false"
"image-keyboard-response",483,546188,"0.0-3.157-1.157","jsnakn4m73maafz","9.csv","","null","resources/maskTrios/L1BB.jpg","null","",NA,NA,NA,NA,""
"image-keyboard-response",484,547392,"0.0-3.157-2.157","jsnakn4m73maafz","9.csv","","null","resources/images/fishbone.png","null","",NA,NA,NA,NA,""
"image-keyboard-response",485,548156,"0.0-3.158-0.158","jsnakn4m73maafz","9.csv","","762.0999999046326","resources/trios/L4T4A1.jpg","37","restless",0.6,0.4,0.7,0.993419948092905,"false"
"image-keyboard-response",486,548566,"0.0-3.158-1.158","jsnakn4m73maafz","9.csv","","null","resources/maskTrios/L4BB.jpg","null","",NA,NA,NA,NA,""
"image-keyboard-response",487,549770,"0.0-3.158-2.158","jsnakn4m73maafz","9.csv","","null","resources/images/fishbone.png","null","",NA,NA,NA,NA,""
"image-keyboard-response",488,550330,"0.0-3.159-0.159","jsnakn4m73maafz","9.csv","","558.3999998569489","resources/trios/L4T4A1.jpg","38","restless",0.6,0.4,0.7,0.337869891116602,"true"
"image-keyboard-response",489,550744,"0.0-3.159-1.159","jsnakn4m73maafz","9.csv","","null","resources/maskTrios/BT4B.jpg","null","",NA,NA,NA,NA,""
"image-keyboard-response",490,551956,"0.0-3.159-2.159","jsnakn4m73maafz","9.csv","","null","resources/images/coin2.png","null","",NA,NA,NA,NA,""
"image-keyboard-response",491,552661,"0.0-3.160-0.160","jsnakn4m73maafz","9.csv","","703.5","resources/trios/L4T1A1.jpg","38","restless",0.6,0.4,0.7,0.478236178354314,"false"
"image-keyboard-response",492,553074,"0.0-3.160-1.160","jsnakn4m73maafz","9.csv","","null","resources/maskTrios/BT1B.jpg","null","",NA,NA,NA,NA,""
"image-keyboard-response",493,554284,"0.0-3.160-2.160","jsnakn4m73maafz","9.csv","","null","resources/images/fishbone.png","null","",NA,NA,NA,NA,""
"image-keyboard-response",494,555704,"0.0-3.161-0.161","jsnakn4m73maafz","9.csv","","1417.5","resources/trios/L4T1A1.jpg","39","restless",0.6,0.4,0.7,0.177484831206861,"true"
"image-keyboard-response",495,556111,"0.0-3.161-1.161","jsnakn4m73maafz","9.csv","","null","resources/maskTrios/BBA1.jpg","null","",NA,NA,NA,NA,""
"image-keyboard-response",496,557324,"0.0-3.161-2.161","jsnakn4m73maafz","9.csv","","null","resources/images/coin2.png","null","",NA,NA,NA,NA,""
"image-keyboard-response",497,558104,"0.0-3.162-0.162","jsnakn4m73maafz","9.csv","","779.4000000953674","resources/trios/L4T1A3.jpg","39","restless",0.6,0.4,0.7,0.15895149279019,"true"
"image-keyboard-response",498,558521,"0.0-3.162-1.162","jsnakn4m73maafz","9.csv","","null","resources/maskTrios/BBA3.jpg","null","",NA,NA,NA,NA,""
"image-keyboard-response",499,559729,"0.0-3.162-2.162","jsnakn4m73maafz","9.csv","","null","resources/images/coin2.png","null","",NA,NA,NA,NA,""
"image-keyboard-response",500,560306,"0.0-3.163-0.163","jsnakn4m73maafz","9.csv","","575.9000000953674","resources/trios/L4T1A1.jpg","39","restless",0.6,0.4,0.7,0.542738111567498,"true"
"image-keyboard-response",501,560713,"0.0-3.163-1.163","jsnakn4m73maafz","9.csv","","null","resources/maskTrios/BBA1.jpg","null","",NA,NA,NA,NA,""
"image-keyboard-response",502,561925,"0.0-3.163-2.163","jsnakn4m73maafz","9.csv","","null","resources/images/coin2.png","null","",NA,NA,NA,NA,""
"image-keyboard-response",503,562552,"0.0-3.164-0.164","jsnakn4m73maafz","9.csv","","625.0999999046326","resources/trios/L4T1A3.jpg","39","restless",0.6,0.4,0.7,0.578898044883366,"true"
"image-keyboard-response",504,562956,"0.0-3.164-1.164","jsnakn4m73maafz","9.csv","","null","resources/maskTrios/BBA3.jpg","null","",NA,NA,NA,NA,""
"image-keyboard-response",505,564163,"0.0-3.164-2.164","jsnakn4m73maafz","9.csv","","null","resources/images/coin2.png","null","",NA,NA,NA,NA,""
"image-keyboard-response",506,564947,"0.0-3.165-0.165","jsnakn4m73maafz","9.csv","","782.5","resources/trios/L1T4A1.jpg","39","restless",0.6,0.4,0.7,0.811491424500305,"false"
"image-keyboard-response",507,565354,"0.0-3.165-1.165","jsnakn4m73maafz","9.csv","","null","resources/maskTrios/BBA1.jpg","null","",NA,NA,NA,NA,""
"image-keyboard-response",508,566561,"0.0-3.165-2.165","jsnakn4m73maafz","9.csv","","null","resources/images/fishbone.png","null","",NA,NA,NA,NA,""
"image-keyboard-response",509,568009,"0.0-3.166-0.166","jsnakn4m73maafz","9.csv","","1446.2000000476837","resources/trios/L4T4A1.jpg","37","restless",0.6,0.4,0.7,0.157194535461499,"true"
"image-keyboard-response",510,568425,"0.0-3.166-1.166","jsnakn4m73maafz","9.csv","","null","resources/maskTrios/L4BB.jpg","null","",NA,NA,NA,NA,""
"image-keyboard-response",511,569638,"0.0-3.166-2.166","jsnakn4m73maafz","9.csv","","null","resources/images/coin2.png","null","",NA,NA,NA,NA,""
"image-keyboard-response",512,570702,"0.0-3.167-0.167","jsnakn4m73maafz","9.csv","","1062","resources/trios/L1T4A3.jpg","39","restless",0.6,0.4,0.7,0.346357400723421,"true"
"image-keyboard-response",513,571110,"0.0-3.167-1.167","jsnakn4m73maafz","9.csv","","null","resources/maskTrios/BBA3.jpg","null","",NA,NA,NA,NA,""
"image-keyboard-response",514,572323,"0.0-3.167-2.167","jsnakn4m73maafz","9.csv","","null","resources/images/coin2.png","null","",NA,NA,NA,NA,""
"image-keyboard-response",515,574683,"0.0-3.168-0.168","jsnakn4m73maafz","9.csv","","2357.800000190735","resources/trios/L1T4A1.jpg","39","restless",0.6,0.4,0.7,0.716693733934172,"false"
"image-keyboard-response",516,575096,"0.0-3.168-1.168","jsnakn4m73maafz","9.csv","","null","resources/maskTrios/BBA1.jpg","null","",NA,NA,NA,NA,""
"image-keyboard-response",517,576308,"0.0-3.168-2.168","jsnakn4m73maafz","9.csv","","null","resources/images/fishbone.png","null","",NA,NA,NA,NA,""
"image-keyboard-response",518,577454,"0.0-3.169-0.169","jsnakn4m73maafz","9.csv","","1144","resources/trios/L1T1A3.jpg","39","restless",0.6,0.4,0.7,0.468256303353609,"true"
"image-keyboard-response",519,577863,"0.0-3.169-1.169","jsnakn4m73maafz","9.csv","","null","resources/maskTrios/BBA3.jpg","null","",NA,NA,NA,NA,""
"image-keyboard-response",520,579073,"0.0-3.169-2.169","jsnakn4m73maafz","9.csv","","null","resources/images/coin2.png","null","",NA,NA,NA,NA,""
"image-keyboard-response",521,579915,"0.0-3.170-0.170","jsnakn4m73maafz","9.csv","","841.2000000476837","resources/trios/L4T4A3.jpg","39","restless",0.6,0.4,0.6,0.263391810000534,"true"
"image-keyboard-response",522,580329,"0.0-3.170-1.170","jsnakn4m73maafz","9.csv","","null","resources/maskTrios/BBA3.jpg","null","",NA,NA,NA,NA,""
"image-keyboard-response",523,581541,"0.0-3.170-2.170","jsnakn4m73maafz","9.csv","","null","resources/images/coin2.png","null","",NA,NA,NA,NA,""
"image-keyboard-response",524,582499,"0.0-3.171-0.171","jsnakn4m73maafz","9.csv","","955.7000000476837","resources/trios/L4T1A1.jpg","37","restless",0.5,0.4,0.6,0.827661567495903,"false"
"image-keyboard-response",525,582911,"0.0-3.171-1.171","jsnakn4m73maafz","9.csv","","null","resources/maskTrios/L4BB.jpg","null","",NA,NA,NA,NA,""
"image-keyboard-response",526,584120,"0.0-3.171-2.171","jsnakn4m73maafz","9.csv","","null","resources/images/fishbone.png","null","",NA,NA,NA,NA,""
"image-keyboard-response",527,585144,"0.0-3.172-0.172","jsnakn4m73maafz","9.csv","","1021.7999999523163","resources/trios/L4T4A3.jpg","39","restless",0.5,0.4,0.6,0.392992755224557,"true"
"image-keyboard-response",528,585548,"0.0-3.172-1.172","jsnakn4m73maafz","9.csv","","null","resources/maskTrios/BBA3.jpg","null","",NA,NA,NA,NA,""
"image-keyboard-response",529,586756,"0.0-3.172-2.172","jsnakn4m73maafz","9.csv","","null","resources/images/coin2.png","null","",NA,NA,NA,NA,""
"image-keyboard-response",530,587433,"0.0-3.173-0.173","jsnakn4m73maafz","9.csv","","675.5","resources/trios/L4T4A3.jpg","39","restless",0.5,0.3,0.6,0.434605791217143,"true"
"image-keyboard-response",531,587843,"0.0-3.173-1.173","jsnakn4m73maafz","9.csv","","null","resources/maskTrios/BBA3.jpg","null","",NA,NA,NA,NA,""
"image-keyboard-response",532,589054,"0.0-3.173-2.173","jsnakn4m73maafz","9.csv","","null","resources/images/coin2.png","null","",NA,NA,NA,NA,""
"image-keyboard-response",533,590406,"0.0-3.174-0.174","jsnakn4m73maafz","9.csv","","1350.3999998569489","resources/trios/L4T4A1.jpg","38","restless",0.6,0.3,0.6,0.471420015106265,"false"
"image-keyboard-response",534,590822,"0.0-3.174-1.174","jsnakn4m73maafz","9.csv","","null","resources/maskTrios/BT4B.jpg","null","",NA,NA,NA,NA,""
"image-keyboard-response",535,592033,"0.0-3.174-2.174","jsnakn4m73maafz","9.csv","","null","resources/images/fishbone.png","null","",NA,NA,NA,NA,""
"image-keyboard-response",536,592845,"0.0-3.175-0.175","jsnakn4m73maafz","9.csv","","811","resources/trios/L4T1A3.jpg","39","restless",0.6,0.3,0.6,0.297487247123881,"true"
"image-keyboard-response",537,593259,"0.0-3.175-1.175","jsnakn4m73maafz","9.csv","","null","resources/maskTrios/BBA3.jpg","null","",NA,NA,NA,NA,""
"image-keyboard-response",538,594469,"0.0-3.175-2.175","jsnakn4m73maafz","9.csv","","null","resources/images/coin2.png","null","",NA,NA,NA,NA,""
"image-keyboard-response",539,595059,"0.0-3.176-0.176","jsnakn4m73maafz","9.csv","","588.8999998569489","resources/trios/L1T1A3.jpg","39","restless",0.6,0.3,0.6,0.714345413438972,"false"
"image-keyboard-response",540,595474,"0.0-3.176-1.176","jsnakn4m73maafz","9.csv","","null","resources/maskTrios/BBA3.jpg","null","",NA,NA,NA,NA,""
"image-keyboard-response",541,596683,"0.0-3.176-2.176","jsnakn4m73maafz","9.csv","","null","resources/images/fishbone.png","null","",NA,NA,NA,NA,""
"image-keyboard-response",542,597836,"0.0-3.177-0.177","jsnakn4m73maafz","9.csv","","1151.7999999523163","resources/trios/L1T1A3.jpg","39","restless",0.6,0.3,0.6,0.00088106215057393,"true"
"image-keyboard-response",543,598240,"0.0-3.177-1.177","jsnakn4m73maafz","9.csv","","null","resources/maskTrios/BBA3.jpg","null","",NA,NA,NA,NA,""
"image-keyboard-response",544,599453,"0.0-3.177-2.177","jsnakn4m73maafz","9.csv","","null","resources/images/coin2.png","null","",NA,NA,NA,NA,""
"image-keyboard-response",545,602274,"0.0-3.178-0.178","jsnakn4m73maafz","9.csv","","2819.2999999523163","resources/trios/L4T1A1.jpg","38","restless",0.5,0.3,0.6,0.867648987591035,"false"
"image-keyboard-response",546,602682,"0.0-3.178-1.178","jsnakn4m73maafz","9.csv","","null","resources/maskTrios/BT1B.jpg","null","",NA,NA,NA,NA,""
"image-keyboard-response",547,603892,"0.0-3.178-2.178","jsnakn4m73maafz","9.csv","","null","resources/images/fishbone.png","null","",NA,NA,NA,NA,""
"image-keyboard-response",548,604548,"0.0-3.179-0.179","jsnakn4m73maafz","9.csv","","654.4000000953674","resources/trios/L1T1A3.jpg","37","restless",0.5,0.3,0.6,0.681153436479139,"false"
"image-keyboard-response",549,604963,"0.0-3.179-1.179","jsnakn4m73maafz","9.csv","","null","resources/maskTrios/L1BB.jpg","null","",NA,NA,NA,NA,""
"image-keyboard-response",550,606173,"0.0-3.179-2.179","jsnakn4m73maafz","9.csv","","null","resources/images/fishbone.png","null","",NA,NA,NA,NA,""
"image-keyboard-response",551,607559,"0.0-3.180-0.180","jsnakn4m73maafz","9.csv","","1384.9000000953674","resources/trios/L1T1A1.jpg","39","restless",0.6,0.3,0.6,0.409876115746199,"true"
"image-keyboard-response",552,607961,"0.0-3.180-1.180","jsnakn4m73maafz","9.csv","","null","resources/maskTrios/BBA1.jpg","null","",NA,NA,NA,NA,""
"image-keyboard-response",553,609170,"0.0-3.180-2.180","jsnakn4m73maafz","9.csv","","null","resources/images/coin2.png","null","",NA,NA,NA,NA,""
"image-keyboard-response",554,610554,"0.0-3.181-0.181","jsnakn4m73maafz","9.csv","","1381.5","resources/trios/L1T1A1.jpg","38","restless",0.6,0.3,0.6,0.741187420943132,"false"
"image-keyboard-response",555,610957,"0.0-3.181-1.181","jsnakn4m73maafz","9.csv","","null","resources/maskTrios/BT1B.jpg","null","",NA,NA,NA,NA,""
"image-keyboard-response",556,612165,"0.0-3.181-2.181","jsnakn4m73maafz","9.csv","","null","resources/images/fishbone.png","null","",NA,NA,NA,NA,""
"image-keyboard-response",557,613030,"0.0-3.182-0.182","jsnakn4m73maafz","9.csv","","863.8999998569489","resources/trios/L4T1A3.jpg","39","restless",0.5,0.3,0.6,0.943733170105359,"false"
"image-keyboard-response",558,613437,"0.0-3.182-1.182","jsnakn4m73maafz","9.csv","","null","resources/maskTrios/BBA3.jpg","null","",NA,NA,NA,NA,""
"image-keyboard-response",559,614645,"0.0-3.182-2.182","jsnakn4m73maafz","9.csv","","null","resources/images/fishbone.png","null","",NA,NA,NA,NA,""
"image-keyboard-response",560,616888,"0.0-3.183-0.183","jsnakn4m73maafz","9.csv","","2240.899999856949","resources/trios/L1T4A3.jpg","39","restless",0.5,0.3,0.6,0.320394125259862,"true"
"image-keyboard-response",561,617301,"0.0-3.183-1.183","jsnakn4m73maafz","9.csv","","null","resources/maskTrios/BBA3.jpg","null","",NA,NA,NA,NA,""
"image-keyboard-response",562,618513,"0.0-3.183-2.183","jsnakn4m73maafz","9.csv","","null","resources/images/coin2.png","null","",NA,NA,NA,NA,""
"image-keyboard-response",563,619837,"0.0-3.184-0.184","jsnakn4m73maafz","9.csv","","1322.0999999046326","resources/trios/L1T1A1.jpg","37","restless",0.5,0.3,0.6,0.626318516120561,"false"
"image-keyboard-response",564,620249,"0.0-3.184-1.184","jsnakn4m73maafz","9.csv","","null","resources/maskTrios/L1BB.jpg","null","",NA,NA,NA,NA,""
"image-keyboard-response",565,621460,"0.0-3.184-2.184","jsnakn4m73maafz","9.csv","","null","resources/images/fishbone.png","null","",NA,NA,NA,NA,""
"image-keyboard-response",566,622362,"0.0-3.185-0.185","jsnakn4m73maafz","9.csv","","901","resources/trios/L4T1A1.jpg","38","restless",0.5,0.3,0.6,0.346637974938107,"false"
"image-keyboard-response",567,622768,"0.0-3.185-1.185","jsnakn4m73maafz","9.csv","","null","resources/maskTrios/BT1B.jpg","null","",NA,NA,NA,NA,""
"image-keyboard-response",568,623980,"0.0-3.185-2.185","jsnakn4m73maafz","9.csv","","null","resources/images/fishbone.png","null","",NA,NA,NA,NA,""
"image-keyboard-response",569,624725,"0.0-3.186-0.186","jsnakn4m73maafz","9.csv","","742.9000000953674","resources/trios/L1T4A3.jpg","39","restless",0.6,0.2,0.6,0.495930102711323,"true"
"image-keyboard-response",570,625143,"0.0-3.186-1.186","jsnakn4m73maafz","9.csv","","null","resources/maskTrios/BBA3.jpg","null","",NA,NA,NA,NA,""
"image-keyboard-response",571,626353,"0.0-3.186-2.186","jsnakn4m73maafz","9.csv","","null","resources/images/coin2.png","null","",NA,NA,NA,NA,""
"image-keyboard-response",572,627151,"0.0-3.187-0.187","jsnakn4m73maafz","9.csv","","796.2999999523163","resources/trios/L1T1A3.jpg","39","restless",0.6,0.2,0.5,0.624312362409287,"false"
"image-keyboard-response",573,627566,"0.0-3.187-1.187","jsnakn4m73maafz","9.csv","","null","resources/maskTrios/BBA3.jpg","null","",NA,NA,NA,NA,""
"image-keyboard-response",574,628774,"0.0-3.187-2.187","jsnakn4m73maafz","9.csv","","null","resources/images/fishbone.png","null","",NA,NA,NA,NA,""
"image-keyboard-response",575,630185,"0.0-3.188-0.188","jsnakn4m73maafz","9.csv","","1409.0999999046326","resources/trios/L1T1A3.jpg","39","restless",0.5,0.2,0.5,0.1675177690652,"true"
"image-keyboard-response",576,630600,"0.0-3.188-1.188","jsnakn4m73maafz","9.csv","","null","resources/maskTrios/BBA3.jpg","null","",NA,NA,NA,NA,""
"image-keyboard-response",577,631812,"0.0-3.188-2.188","jsnakn4m73maafz","9.csv","","null","resources/images/coin2.png","null","",NA,NA,NA,NA,""
"image-keyboard-response",578,634468,"0.0-3.189-0.189","jsnakn4m73maafz","9.csv","","2653.5999999046326","resources/trios/L4T4A1.jpg","39","restless",0.5,0.2,0.5,0.612284310071315,"false"
"image-keyboard-response",579,634882,"0.0-3.189-1.189","jsnakn4m73maafz","9.csv","","null","resources/maskTrios/BBA1.jpg","null","",NA,NA,NA,NA,""
"image-keyboard-response",580,636088,"0.0-3.189-2.189","jsnakn4m73maafz","9.csv","","null","resources/images/fishbone.png","null","",NA,NA,NA,NA,""
"image-keyboard-response",581,638031,"0.0-3.190-0.190","jsnakn4m73maafz","9.csv","","1941.2999999523163","resources/trios/L4T1A1.jpg","37","restless",0.4,0.2,0.5,0.252200990858046,"true"
"image-keyboard-response",582,638448,"0.0-3.190-1.190","jsnakn4m73maafz","9.csv","","null","resources/maskTrios/L4BB.jpg","null","",NA,NA,NA,NA,""
"image-keyboard-response",583,639659,"0.0-3.190-2.190","jsnakn4m73maafz","9.csv","","null","resources/images/coin2.png","null","",NA,NA,NA,NA,""
"image-keyboard-response",584,642326,"0.0-3.191-0.191","jsnakn4m73maafz","9.csv","","2665.600000143051","resources/trios/L4T4A1.jpg","37","restless",0.4,0.2,0.5,0.901548266773939,"false"
"image-keyboard-response",585,642737,"0.0-3.191-1.191","jsnakn4m73maafz","9.csv","","null","resources/maskTrios/L4BB.jpg","null","",NA,NA,NA,NA,""
"image-keyboard-response",586,643944,"0.0-3.191-2.191","jsnakn4m73maafz","9.csv","","null","resources/images/fishbone.png","null","",NA,NA,NA,NA,""
"image-keyboard-response",587,645241,"0.0-3.192-0.192","jsnakn4m73maafz","9.csv","","1296","resources/trios/L1T4A1.jpg","39","restless",0.4,0.2,0.4,0.959360149375746,"false"
"image-keyboard-response",588,645648,"0.0-3.192-1.192","jsnakn4m73maafz","9.csv","","null","resources/maskTrios/BBA1.jpg","null","",NA,NA,NA,NA,""
"image-keyboard-response",589,646860,"0.0-3.192-2.192","jsnakn4m73maafz","9.csv","","null","resources/images/fishbone.png","null","",NA,NA,NA,NA,""
"image-keyboard-response",590,647664,"0.0-3.193-0.193","jsnakn4m73maafz","9.csv","","802.6000001430511","resources/trios/L4T4A3.jpg","39","restless",0.4,0.2,0.4,0.973131366658534,"false"
"image-keyboard-response",591,648069,"0.0-3.193-1.193","jsnakn4m73maafz","9.csv","","null","resources/maskTrios/BBA3.jpg","null","",NA,NA,NA,NA,""
"image-keyboard-response",592,649276,"0.0-3.193-2.193","jsnakn4m73maafz","9.csv","","null","resources/images/fishbone.png","null","",NA,NA,NA,NA,""
"image-keyboard-response",593,651665,"0.0-3.194-0.194","jsnakn4m73maafz","9.csv","","2387.2000000476837","resources/trios/L1T4A1.jpg","37","restless",0.4,0.2,0.4,0.649367022199816,"false"
"image-keyboard-response",594,652082,"0.0-3.194-1.194","jsnakn4m73maafz","9.csv","","null","resources/maskTrios/L1BB.jpg","null","",NA,NA,NA,NA,""
"image-keyboard-response",595,653292,"0.0-3.194-2.194","jsnakn4m73maafz","9.csv","","null","resources/images/fishbone.png","null","",NA,NA,NA,NA,""
"image-keyboard-response",596,654461,"0.0-3.195-0.195","jsnakn4m73maafz","9.csv","","1167.0999999046326","resources/trios/L1T1A1.jpg","39","restless",0.4,0.2,0.4,0.391112650011296,"true"
"image-keyboard-response",597,654875,"0.0-3.195-1.195","jsnakn4m73maafz","9.csv","","null","resources/maskTrios/BBA1.jpg","null","",NA,NA,NA,NA,""
"image-keyboard-response",598,656081,"0.0-3.195-2.195","jsnakn4m73maafz","9.csv","","null","resources/images/coin2.png","null","",NA,NA,NA,NA,""
"image-keyboard-response",599,657044,"0.0-3.196-0.196","jsnakn4m73maafz","9.csv","","960.7999999523163","resources/trios/L4T1A3.jpg","39","restless",0.4,0.1,0.4,0.800453355497095,"false"
"image-keyboard-response",600,657461,"0.0-3.196-1.196","jsnakn4m73maafz","9.csv","","null","resources/maskTrios/BBA3.jpg","null","",NA,NA,NA,NA,""
"image-keyboard-response",601,658670,"0.0-3.196-2.196","jsnakn4m73maafz","9.csv","","null","resources/images/fishbone.png","null","",NA,NA,NA,NA,""
"image-keyboard-response",602,660142,"0.0-3.197-0.197","jsnakn4m73maafz","9.csv","","1470.7000000476837","resources/trios/L1T4A1.jpg","38","restless",0.4,0.1,0.4,0.0659822225057167,"true"
"image-keyboard-response",603,660560,"0.0-3.197-1.197","jsnakn4m73maafz","9.csv","","null","resources/maskTrios/BT4B.jpg","null","",NA,NA,NA,NA,""
"image-keyboard-response",604,661767,"0.0-3.197-2.197","jsnakn4m73maafz","9.csv","","null","resources/images/coin2.png","null","",NA,NA,NA,NA,""
"image-keyboard-response",605,662662,"0.0-3.198-0.198","jsnakn4m73maafz","9.csv","","893.6000001430511","resources/trios/L4T4A3.jpg","38","restless",0.4,0.1,0.4,0.692568806151324,"false"
"image-keyboard-response",606,663078,"0.0-3.198-1.198","jsnakn4m73maafz","9.csv","","null","resources/maskTrios/BT4B.jpg","null","",NA,NA,NA,NA,""
"image-keyboard-response",607,664287,"0.0-3.198-2.198","jsnakn4m73maafz","9.csv","","null","resources/images/fishbone.png","null","",NA,NA,NA,NA,""
"image-keyboard-response",608,665780,"0.0-3.199-0.199","jsnakn4m73maafz","9.csv","","1492","resources/trios/L1T1A3.jpg","39","restless",0.4,0.1,0.4,0.783678550825457,"false"
"image-keyboard-response",609,666195,"0.0-3.199-1.199","jsnakn4m73maafz","9.csv","","null","resources/maskTrios/BBA3.jpg","null","",NA,NA,NA,NA,""
"image-keyboard-response",610,667412,"0.0-3.199-2.199","jsnakn4m73maafz","9.csv","","null","resources/images/fishbone.png","null","",NA,NA,NA,NA,""
"image-keyboard-response",611,668613,"0.0-3.200-0.200","jsnakn4m73maafz","9.csv","","1200.2000000476837","resources/trios/L4T4A1.jpg","37","restless",0.4,0.1,0.4,0.136656566287466,"true"
"image-keyboard-response",612,669027,"0.0-3.200-1.200","jsnakn4m73maafz","9.csv","","null","resources/maskTrios/L4BB.jpg","null","",NA,NA,NA,NA,""
"image-keyboard-response",613,670235,"0.0-3.200-2.200","jsnakn4m73maafz","9.csv","","null","resources/images/coin2.png","null","",NA,NA,NA,NA,""
"image-keyboard-response",614,671901,"0.0-3.201-0.201","jsnakn4m73maafz","9.csv","","1664.2000000476837","resources/trios/L1T4A3.jpg","38","restless",0.4,0.2,0.3,0.679526391353694,"false"
"image-keyboard-response",615,672314,"0.0-3.201-1.201","jsnakn4m73maafz","9.csv","","null","resources/maskTrios/BT4B.jpg","null","",NA,NA,NA,NA,""
"image-keyboard-response",616,673522,"0.0-3.201-2.201","jsnakn4m73maafz","9.csv","","null","resources/images/fishbone.png","null","",NA,NA,NA,NA,""
"image-keyboard-response",617,674411,"0.0-3.202-0.202","jsnakn4m73maafz","9.csv","","886.8999998569489","resources/trios/L4T1A3.jpg","37","restless",0.5,0.2,0.3,0.549483412566216,"false"
"image-keyboard-response",618,674821,"0.0-3.202-1.202","jsnakn4m73maafz","9.csv","","null","resources/maskTrios/L4BB.jpg","null","",NA,NA,NA,NA,""
"image-keyboard-response",619,676031,"0.0-3.202-2.202","jsnakn4m73maafz","9.csv","","null","resources/images/fishbone.png","null","",NA,NA,NA,NA,""
"image-keyboard-response",620,676854,"0.0-3.203-0.203","jsnakn4m73maafz","9.csv","","821.0999999046326","resources/trios/L4T1A3.jpg","39","restless",0.5,0.2,0.3,0.770489168734685,"false"
"image-keyboard-response",621,677263,"0.0-3.203-1.203","jsnakn4m73maafz","9.csv","","null","resources/maskTrios/BBA3.jpg","null","",NA,NA,NA,NA,""
"image-keyboard-response",622,678477,"0.0-3.203-2.203","jsnakn4m73maafz","9.csv","","null","resources/images/fishbone.png","null","",NA,NA,NA,NA,""
"image-keyboard-response",623,680836,"0.0-3.204-0.204","jsnakn4m73maafz","9.csv","","2356.5","resources/trios/L1T4A3.jpg","39","restless",0.5,0.2,0.4,0.202161419623979,"true"
"image-keyboard-response",624,681248,"0.0-3.204-1.204","jsnakn4m73maafz","9.csv","","null","resources/maskTrios/BBA3.jpg","null","",NA,NA,NA,NA,""
"image-keyboard-response",625,682452,"0.0-3.204-2.204","jsnakn4m73maafz","9.csv","","null","resources/images/coin2.png","null","",NA,NA,NA,NA,""
"image-keyboard-response",626,683677,"0.0-3.205-0.205","jsnakn4m73maafz","9.csv","","1223.3999998569489","resources/trios/L1T4A1.jpg","38","restless",0.5,0.2,0.4,0.658207135737147,"false"
"image-keyboard-response",627,684091,"0.0-3.205-1.205","jsnakn4m73maafz","9.csv","","null","resources/maskTrios/BT4B.jpg","null","",NA,NA,NA,NA,""
"image-keyboard-response",628,685299,"0.0-3.205-2.205","jsnakn4m73maafz","9.csv","","null","resources/images/fishbone.png","null","",NA,NA,NA,NA,""
"image-keyboard-response",629,687067,"0.0-3.206-0.206","jsnakn4m73maafz","9.csv","","1766","resources/trios/L1T4A3.jpg","39","restless",0.5,0.3,0.4,0.446693522734969,"false"
