"trial_type","trial_index","time_elapsed","internal_node_id","subject","participantCode","walkNumber","success","rt","stimulus","key_press","test_part","leftProb","midProb","rightProb","generatedNum","correct"
"pavlovia",0,2097,"0.0-0.0","rhg6xwwvd29p6ec",217,"49.csv","","","","","",NA,NA,NA,NA,""
"fullscreen",1,7789,"0.0-1.0","rhg6xwwvd29p6ec",217,"49.csv","true","","","","",NA,NA,NA,NA,""
"html-keyboard-response",2,17900,"0.0-2.0-0.0","rhg6xwwvd29p6ec",217,"49.csv","","10109.199999988079","<p><font size='6'>Arrrgh!</p></font><p>Can you be the best pirate? Try to find lots of gold! But beware, some islands have more gold than others, and over time, the island with the most gold may change. Can YOU figure it out? </p><font size='6'>GOOD LUCK, CAPTAIN!!!</font><p>Press any key to begin</p>","32","",NA,NA,NA,NA,""
"image-keyboard-response",3,20904,"0.0-2.0-1.0","rhg6xwwvd29p6ec",217,"49.csv","","null","resources/image_sets/111.png","null","",NA,NA,NA,NA,""
"image-keyboard-response",4,24286,"0.0-2.0-2.0","rhg6xwwvd29p6ec",217,"49.csv","","3381.2999999821186","resources/image_sets/left_highlight.png","37","",NA,NA,NA,NA,""
"image-keyboard-response",5,25878,"0.0-2.0-3.0","rhg6xwwvd29p6ec",217,"49.csv","","1590.300000011921","resources/image_sets/mid_highlight.png","38","",NA,NA,NA,NA,""
"image-keyboard-response",6,27580,"0.0-2.0-4.0","rhg6xwwvd29p6ec",217,"49.csv","","1701.800000011921","resources/image_sets/right_highlight.png","39","",NA,NA,NA,NA,""
"image-keyboard-response",7,33020,"0.0-2.0-5.0","rhg6xwwvd29p6ec",217,"49.csv","","5438.800000011921","resources/image_sets/111.png","13","",NA,NA,NA,NA,""
"image-keyboard-response",8,36044,"0.0-2.0-6.0","rhg6xwwvd29p6ec",217,"49.csv","","3023.4000000059605","resources/images/coin2.png","13","",NA,NA,NA,NA,""
"image-keyboard-response",9,38074,"0.0-2.0-7.0","rhg6xwwvd29p6ec",217,"49.csv","","2029.2000000178814","resources/images/fishbone.png","13","",NA,NA,NA,NA,""
"html-keyboard-response",10,42536,"0.0-2.0-8.0","rhg6xwwvd29p6ec",217,"49.csv","","4462","<p>Your first journey will be a long one, but you will get a well deserved break at the end</p><p>After the break you will have four more journeys, but each will be much shorter than the first, and you will have breaks in between each</p><p>Press Enter to begin</p>","13","",NA,NA,NA,NA,""
"image-keyboard-response",11,44412,"0.0-3.0-0.0","rhg6xwwvd29p6ec",217,"49.csv","","1874.3999999761581","resources/trios/L4T2A2.jpg","38","restless",0.3,0.9,0.7,0.595406651920268,"true"
"image-keyboard-response",12,44816,"0.0-3.0-1.0","rhg6xwwvd29p6ec",217,"49.csv","","null","resources/maskTrios/BT2B.jpg","null","",NA,NA,NA,NA,""
"image-keyboard-response",13,46019,"0.0-3.0-2.0","rhg6xwwvd29p6ec",217,"49.csv","","null","resources/images/coin2.png","null","",NA,NA,NA,NA,""
"image-keyboard-response",14,47412,"0.0-3.1-0.1","rhg6xwwvd29p6ec",217,"49.csv","","1391.699999988079","resources/trios/L4T1A3.jpg","37","restless",0.3,0.9,0.8,0.91816397489302,"false"
"image-keyboard-response",15,47813,"0.0-3.1-1.1","rhg6xwwvd29p6ec",217,"49.csv","","null","resources/maskTrios/L4BB.jpg","null","",NA,NA,NA,NA,""
"image-keyboard-response",16,49014,"0.0-3.1-2.1","rhg6xwwvd29p6ec",217,"49.csv","","null","resources/images/fishbone.png","null","",NA,NA,NA,NA,""
"image-keyboard-response",17,50337,"0.0-3.2-0.2","rhg6xwwvd29p6ec",217,"49.csv","","1322.2999999821186","resources/trios/L1T1A2.jpg","38","restless",0.3,0.9,0.8,0.267579060165688,"true"
"image-keyboard-response",18,50742,"0.0-3.2-1.2","rhg6xwwvd29p6ec",217,"49.csv","","null","resources/maskTrios/BT1B.jpg","null","",NA,NA,NA,NA,""
"image-keyboard-response",19,51945,"0.0-3.2-2.2","rhg6xwwvd29p6ec",217,"49.csv","","null","resources/images/coin2.png","null","",NA,NA,NA,NA,""
"image-keyboard-response",20,53140,"0.0-3.3-0.3","rhg6xwwvd29p6ec",217,"49.csv","","1194.199999988079","resources/trios/L4T2A3.jpg","38","restless",0.3,0.9,0.8,0.408443657839682,"true"
"image-keyboard-response",21,53542,"0.0-3.3-1.3","rhg6xwwvd29p6ec",217,"49.csv","","null","resources/maskTrios/BT2B.jpg","null","",NA,NA,NA,NA,""
"image-keyboard-response",22,54746,"0.0-3.3-2.3","rhg6xwwvd29p6ec",217,"49.csv","","null","resources/images/coin2.png","null","",NA,NA,NA,NA,""
"image-keyboard-response",23,55768,"0.0-3.4-0.4","rhg6xwwvd29p6ec",217,"49.csv","","1021.8000000119209","resources/trios/L1T2A3.jpg","38","restless",0.3,0.8,0.8,0.701901532835384,"true"
"image-keyboard-response",24,56174,"0.0-3.4-1.4","rhg6xwwvd29p6ec",217,"49.csv","","null","resources/maskTrios/BT2B.jpg","null","",NA,NA,NA,NA,""
"image-keyboard-response",25,57380,"0.0-3.4-2.4","rhg6xwwvd29p6ec",217,"49.csv","","null","resources/images/coin2.png","null","",NA,NA,NA,NA,""
"image-keyboard-response",26,58136,"0.0-3.5-0.5","rhg6xwwvd29p6ec",217,"49.csv","","754.8000000119209","resources/trios/L4T1A3.jpg","38","restless",0.3,0.8,0.8,0.25185742151254,"true"
"image-keyboard-response",27,58537,"0.0-3.5-1.5","rhg6xwwvd29p6ec",217,"49.csv","","null","resources/maskTrios/BT1B.jpg","null","",NA,NA,NA,NA,""
"image-keyboard-response",28,59742,"0.0-3.5-2.5","rhg6xwwvd29p6ec",217,"49.csv","","null","resources/images/coin2.png","null","",NA,NA,NA,NA,""
"image-keyboard-response",29,60391,"0.0-3.6-0.6","rhg6xwwvd29p6ec",217,"49.csv","","648.2999999821186","resources/trios/L1T1A2.jpg","38","restless",0.3,0.8,0.9,0.465633429970473,"true"
"image-keyboard-response",30,60798,"0.0-3.6-1.6","rhg6xwwvd29p6ec",217,"49.csv","","null","resources/maskTrios/BT1B.jpg","null","",NA,NA,NA,NA,""
"image-keyboard-response",31,61999,"0.0-3.6-2.6","rhg6xwwvd29p6ec",217,"49.csv","","null","resources/images/coin2.png","null","",NA,NA,NA,NA,""
"image-keyboard-response",32,62752,"0.0-3.7-0.7","rhg6xwwvd29p6ec",217,"49.csv","","751.9000000059605","resources/trios/L4T2A3.jpg","38","restless",0.3,0.8,0.9,0.337302760875221,"true"
"image-keyboard-response",33,63156,"0.0-3.7-1.7","rhg6xwwvd29p6ec",217,"49.csv","","null","resources/maskTrios/BT2B.jpg","null","",NA,NA,NA,NA,""
"image-keyboard-response",34,64361,"0.0-3.7-2.7","rhg6xwwvd29p6ec",217,"49.csv","","null","resources/images/coin2.png","null","",NA,NA,NA,NA,""
"image-keyboard-response",35,64990,"0.0-3.8-0.8","rhg6xwwvd29p6ec",217,"49.csv","","627.9000000059605","resources/trios/L4T1A3.jpg","38","restless",0.3,0.8,0.8,0.239826635688555,"true"
"image-keyboard-response",36,65394,"0.0-3.8-1.8","rhg6xwwvd29p6ec",217,"49.csv","","null","resources/maskTrios/BT1B.jpg","null","",NA,NA,NA,NA,""
"image-keyboard-response",37,66597,"0.0-3.8-2.8","rhg6xwwvd29p6ec",217,"49.csv","","null","resources/images/coin2.png","null","",NA,NA,NA,NA,""
"image-keyboard-response",38,67275,"0.0-3.9-0.9","rhg6xwwvd29p6ec",217,"49.csv","","677.3000000119209","resources/trios/L4T2A3.jpg","38","restless",0.2,0.8,0.8,0.518514179649192,"true"
"image-keyboard-response",39,67681,"0.0-3.9-1.9","rhg6xwwvd29p6ec",217,"49.csv","","null","resources/maskTrios/BT2B.jpg","null","",NA,NA,NA,NA,""
"image-keyboard-response",40,68886,"0.0-3.9-2.9","rhg6xwwvd29p6ec",217,"49.csv","","null","resources/images/coin2.png","null","",NA,NA,NA,NA,""
"image-keyboard-response",41,69425,"0.0-3.10-0.10","rhg6xwwvd29p6ec",217,"49.csv","","537.7000000178814","resources/trios/L1T1A3.jpg","38","restless",0.2,0.8,0.8,0.832455285041209,"false"
"image-keyboard-response",42,69831,"0.0-3.10-1.10","rhg6xwwvd29p6ec",217,"49.csv","","null","resources/maskTrios/BT1B.jpg","null","",NA,NA,NA,NA,""
"image-keyboard-response",43,71035,"0.0-3.10-2.10","rhg6xwwvd29p6ec",217,"49.csv","","null","resources/images/fishbone.png","null","",NA,NA,NA,NA,""
"image-keyboard-response",44,71958,"0.0-3.11-0.11","rhg6xwwvd29p6ec",217,"49.csv","","922.3000000119209","resources/trios/L1T1A2.jpg","38","restless",0.2,0.8,0.9,0.541966821430262,"true"
"image-keyboard-response",45,72363,"0.0-3.11-1.11","rhg6xwwvd29p6ec",217,"49.csv","","null","resources/maskTrios/BT1B.jpg","null","",NA,NA,NA,NA,""
"image-keyboard-response",46,73566,"0.0-3.11-2.11","rhg6xwwvd29p6ec",217,"49.csv","","null","resources/images/coin2.png","null","",NA,NA,NA,NA,""
"image-keyboard-response",47,74199,"0.0-3.12-0.12","rhg6xwwvd29p6ec",217,"49.csv","","631.5","resources/trios/L4T2A2.jpg","38","restless",0.2,0.8,0.9,0.878123974406995,"false"
"image-keyboard-response",48,74601,"0.0-3.12-1.12","rhg6xwwvd29p6ec",217,"49.csv","","null","resources/maskTrios/BT2B.jpg","null","",NA,NA,NA,NA,""
"image-keyboard-response",49,75804,"0.0-3.12-2.12","rhg6xwwvd29p6ec",217,"49.csv","","null","resources/images/fishbone.png","null","",NA,NA,NA,NA,""
"image-keyboard-response",50,76675,"0.0-3.13-0.13","rhg6xwwvd29p6ec",217,"49.csv","","869.9000000059605","resources/trios/L4T1A2.jpg","38","restless",0.2,0.8,0.9,0.62163585972483,"true"
"image-keyboard-response",51,77080,"0.0-3.13-1.13","rhg6xwwvd29p6ec",217,"49.csv","","null","resources/maskTrios/BT1B.jpg","null","",NA,NA,NA,NA,""
"image-keyboard-response",52,78283,"0.0-3.13-2.13","rhg6xwwvd29p6ec",217,"49.csv","","null","resources/images/coin2.png","null","",NA,NA,NA,NA,""
"image-keyboard-response",53,78966,"0.0-3.14-0.14","rhg6xwwvd29p6ec",217,"49.csv","","681.4000000059605","resources/trios/L4T2A3.jpg","37","restless",0.2,0.8,0.8,0.799121834831478,"false"
"image-keyboard-response",54,79368,"0.0-3.14-1.14","rhg6xwwvd29p6ec",217,"49.csv","","null","resources/maskTrios/L4BB.jpg","null","",NA,NA,NA,NA,""
"image-keyboard-response",55,80571,"0.0-3.14-2.14","rhg6xwwvd29p6ec",217,"49.csv","","null","resources/images/fishbone.png","null","",NA,NA,NA,NA,""
"image-keyboard-response",56,81583,"0.0-3.15-0.15","rhg6xwwvd29p6ec",217,"49.csv","","1010.7000000178814","resources/trios/L1T1A3.jpg","38","restless",0.2,0.7,0.8,0.833202154551888,"false"
"image-keyboard-response",57,81988,"0.0-3.15-1.15","rhg6xwwvd29p6ec",217,"49.csv","","null","resources/maskTrios/BT1B.jpg","null","",NA,NA,NA,NA,""
"image-keyboard-response",58,83189,"0.0-3.15-2.15","rhg6xwwvd29p6ec",217,"49.csv","","null","resources/images/fishbone.png","null","",NA,NA,NA,NA,""
"image-keyboard-response",59,83776,"0.0-3.16-0.16","rhg6xwwvd29p6ec",217,"49.csv","","586.5","resources/trios/L1T2A2.jpg","39","restless",0.1,0.7,0.8,0.365524253698102,"true"
"image-keyboard-response",60,84181,"0.0-3.16-1.16","rhg6xwwvd29p6ec",217,"49.csv","","null","resources/maskTrios/BBA2.jpg","null","",NA,NA,NA,NA,""
"image-keyboard-response",61,85387,"0.0-3.16-2.16","rhg6xwwvd29p6ec",217,"49.csv","","null","resources/images/coin2.png","null","",NA,NA,NA,NA,""
"image-keyboard-response",62,87506,"0.0-3.17-0.17","rhg6xwwvd29p6ec",217,"49.csv","","2117.5999999940395","resources/trios/L1T2A2.jpg","37","restless",0.1,0.7,0.8,0.110824762614412,"false"
"image-keyboard-response",63,87911,"0.0-3.17-1.17","rhg6xwwvd29p6ec",217,"49.csv","","null","resources/maskTrios/L1BB.jpg","null","",NA,NA,NA,NA,""
"image-keyboard-response",64,89113,"0.0-3.17-2.17","rhg6xwwvd29p6ec",217,"49.csv","","null","resources/images/fishbone.png","null","",NA,NA,NA,NA,""
"image-keyboard-response",65,90317,"0.0-3.18-0.18","rhg6xwwvd29p6ec",217,"49.csv","","1203.2999999821186","resources/trios/L1T2A3.jpg","39","restless",0.1,0.7,0.8,0.883755206201409,"false"
"image-keyboard-response",66,90720,"0.0-3.18-1.18","rhg6xwwvd29p6ec",217,"49.csv","","null","resources/maskTrios/BBA3.jpg","null","",NA,NA,NA,NA,""
"image-keyboard-response",67,91925,"0.0-3.18-2.18","rhg6xwwvd29p6ec",217,"49.csv","","null","resources/images/fishbone.png","null","",NA,NA,NA,NA,""
"image-keyboard-response",68,94165,"0.0-3.19-0.19","rhg6xwwvd29p6ec",217,"49.csv","","2238.5","resources/trios/L1T1A2.jpg","39","restless",0.1,0.7,0.8,0.677812367351477,"true"
"image-keyboard-response",69,94571,"0.0-3.19-1.19","rhg6xwwvd29p6ec",217,"49.csv","","null","resources/maskTrios/BBA2.jpg","null","",NA,NA,NA,NA,""
"image-keyboard-response",70,95776,"0.0-3.19-2.19","rhg6xwwvd29p6ec",217,"49.csv","","null","resources/images/coin2.png","null","",NA,NA,NA,NA,""
"image-keyboard-response",71,98146,"0.0-3.20-0.20","rhg6xwwvd29p6ec",217,"49.csv","","2368.7000000178814","resources/trios/L1T2A3.jpg","37","restless",0.1,0.7,0.8,0.741444409948931,"false"
"image-keyboard-response",72,98547,"0.0-3.20-1.20","rhg6xwwvd29p6ec",217,"49.csv","","null","resources/maskTrios/L1BB.jpg","null","",NA,NA,NA,NA,""
"image-keyboard-response",73,99752,"0.0-3.20-2.20","rhg6xwwvd29p6ec",217,"49.csv","","null","resources/images/fishbone.png","null","",NA,NA,NA,NA,""
"image-keyboard-response",74,101074,"0.0-3.21-0.21","rhg6xwwvd29p6ec",217,"49.csv","","1320.8999999761581","resources/trios/L4T1A2.jpg","38","restless",0.1,0.7,0.8,0.658485762326787,"true"
"image-keyboard-response",75,101478,"0.0-3.21-1.21","rhg6xwwvd29p6ec",217,"49.csv","","null","resources/maskTrios/BT1B.jpg","null","",NA,NA,NA,NA,""
"image-keyboard-response",76,102683,"0.0-3.21-2.21","rhg6xwwvd29p6ec",217,"49.csv","","null","resources/images/coin2.png","null","",NA,NA,NA,NA,""
"image-keyboard-response",77,103446,"0.0-3.22-0.22","rhg6xwwvd29p6ec",217,"49.csv","","761.5","resources/trios/L1T2A3.jpg","38","restless",0.1,0.6,0.8,0.388406135943068,"true"
"image-keyboard-response",78,103850,"0.0-3.22-1.22","rhg6xwwvd29p6ec",217,"49.csv","","null","resources/maskTrios/BT2B.jpg","null","",NA,NA,NA,NA,""
"image-keyboard-response",79,105053,"0.0-3.22-2.22","rhg6xwwvd29p6ec",217,"49.csv","","null","resources/images/coin2.png","null","",NA,NA,NA,NA,""
"image-keyboard-response",80,106459,"0.0-3.23-0.23","rhg6xwwvd29p6ec",217,"49.csv","","1404.7000000178814","resources/trios/L4T2A3.jpg","38","restless",0.1,0.6,0.8,0.572977351355345,"true"
"image-keyboard-response",81,106863,"0.0-3.23-1.23","rhg6xwwvd29p6ec",217,"49.csv","","null","resources/maskTrios/BT2B.jpg","null","",NA,NA,NA,NA,""
"image-keyboard-response",82,108065,"0.0-3.23-2.23","rhg6xwwvd29p6ec",217,"49.csv","","null","resources/images/coin2.png","null","",NA,NA,NA,NA,""
"image-keyboard-response",83,108736,"0.0-3.24-0.24","rhg6xwwvd29p6ec",217,"49.csv","","669.8000000119209","resources/trios/L4T1A3.jpg","38","restless",0.1,0.6,0.7,0.863194888942364,"false"
"image-keyboard-response",84,109137,"0.0-3.24-1.24","rhg6xwwvd29p6ec",217,"49.csv","","null","resources/maskTrios/BT1B.jpg","null","",NA,NA,NA,NA,""
"image-keyboard-response",85,110342,"0.0-3.24-2.24","rhg6xwwvd29p6ec",217,"49.csv","","null","resources/images/fishbone.png","null","",NA,NA,NA,NA,""
"image-keyboard-response",86,111293,"0.0-3.25-0.25","rhg6xwwvd29p6ec",217,"49.csv","","949.8000000119209","resources/trios/L4T1A2.jpg","39","restless",0.1,0.6,0.7,0.315121465962761,"true"
"image-keyboard-response",87,111694,"0.0-3.25-1.25","rhg6xwwvd29p6ec",217,"49.csv","","null","resources/maskTrios/BBA2.jpg","null","",NA,NA,NA,NA,""
"image-keyboard-response",88,112898,"0.0-3.25-2.25","rhg6xwwvd29p6ec",217,"49.csv","","null","resources/images/coin2.png","null","",NA,NA,NA,NA,""
"image-keyboard-response",89,113892,"0.0-3.26-0.26","rhg6xwwvd29p6ec",217,"49.csv","","993.5","resources/trios/L4T1A2.jpg","37","restless",0.1,0.6,0.7,0.34237038629639,"false"
"image-keyboard-response",90,114295,"0.0-3.26-1.26","rhg6xwwvd29p6ec",217,"49.csv","","null","resources/maskTrios/L4BB.jpg","null","",NA,NA,NA,NA,""
"image-keyboard-response",91,115497,"0.0-3.26-2.26","rhg6xwwvd29p6ec",217,"49.csv","","null","resources/images/fishbone.png","null","",NA,NA,NA,NA,""
"image-keyboard-response",92,116330,"0.0-3.27-0.27","rhg6xwwvd29p6ec",217,"49.csv","","831.9000000059605","resources/trios/L1T1A3.jpg","39","restless",0.1,0.6,0.7,0.0604871632154362,"true"
"image-keyboard-response",93,116732,"0.0-3.27-1.27","rhg6xwwvd29p6ec",217,"49.csv","","null","resources/maskTrios/BBA3.jpg","null","",NA,NA,NA,NA,""
"image-keyboard-response",94,117935,"0.0-3.27-2.27","rhg6xwwvd29p6ec",217,"49.csv","","null","resources/images/coin2.png","null","",NA,NA,NA,NA,""
"image-keyboard-response",95,119101,"0.0-3.28-0.28","rhg6xwwvd29p6ec",217,"49.csv","","1164.5999999940395","resources/trios/L1T2A3.jpg","38","restless",0.1,0.6,0.7,0.332608741342483,"true"
"image-keyboard-response",96,119502,"0.0-3.28-1.28","rhg6xwwvd29p6ec",217,"49.csv","","null","resources/maskTrios/BT2B.jpg","null","",NA,NA,NA,NA,""
"image-keyboard-response",97,120707,"0.0-3.28-2.28","rhg6xwwvd29p6ec",217,"49.csv","","null","resources/images/coin2.png","null","",NA,NA,NA,NA,""
"image-keyboard-response",98,121443,"0.0-3.29-0.29","rhg6xwwvd29p6ec",217,"49.csv","","735.5","resources/trios/L1T1A2.jpg","39","restless",0.1,0.6,0.7,0.494627154425102,"true"
"image-keyboard-response",99,121847,"0.0-3.29-1.29","rhg6xwwvd29p6ec",217,"49.csv","","null","resources/maskTrios/BBA2.jpg","null","",NA,NA,NA,NA,""
"image-keyboard-response",100,123049,"0.0-3.29-2.29","rhg6xwwvd29p6ec",217,"49.csv","","null","resources/images/coin2.png","null","",NA,NA,NA,NA,""
"image-keyboard-response",101,124290,"0.0-3.30-0.30","rhg6xwwvd29p6ec",217,"49.csv","","1240.4000000059605","resources/trios/L1T2A2.jpg","38","restless",0.1,0.6,0.7,0.345710521098111,"true"
"image-keyboard-response",102,124696,"0.0-3.30-1.30","rhg6xwwvd29p6ec",217,"49.csv","","null","resources/maskTrios/BT2B.jpg","null","",NA,NA,NA,NA,""
"image-keyboard-response",103,125898,"0.0-3.30-2.30","rhg6xwwvd29p6ec",217,"49.csv","","null","resources/images/coin2.png","null","",NA,NA,NA,NA,""
"image-keyboard-response",104,127070,"0.0-3.31-0.31","rhg6xwwvd29p6ec",217,"49.csv","","1171.199999988079","resources/trios/L1T1A2.jpg","39","restless",0.1,0.6,0.7,0.904547904931796,"false"
"image-keyboard-response",105,127476,"0.0-3.31-1.31","rhg6xwwvd29p6ec",217,"49.csv","","null","resources/maskTrios/BBA2.jpg","null","",NA,NA,NA,NA,""
"image-keyboard-response",106,128677,"0.0-3.31-2.31","rhg6xwwvd29p6ec",217,"49.csv","","null","resources/images/fishbone.png","null","",NA,NA,NA,NA,""
"image-keyboard-response",107,129218,"0.0-3.32-0.32","rhg6xwwvd29p6ec",217,"49.csv","","539.6999999880791","resources/trios/L1T1A2.jpg","37","restless",0.1,0.6,0.7,0.709316631819169,"false"
"image-keyboard-response",108,129622,"0.0-3.32-1.32","rhg6xwwvd29p6ec",217,"49.csv","","null","resources/maskTrios/L1BB.jpg","null","",NA,NA,NA,NA,""
"image-keyboard-response",109,130826,"0.0-3.32-2.32","rhg6xwwvd29p6ec",217,"49.csv","","null","resources/images/fishbone.png","null","",NA,NA,NA,NA,""
"image-keyboard-response",110,131144,"0.0-3.33-0.33","rhg6xwwvd29p6ec",217,"49.csv","","316.5","resources/trios/L4T2A3.jpg","38","restless",0.1,0.6,0.7,0.367206024124152,"true"
"image-keyboard-response",111,131545,"0.0-3.33-1.33","rhg6xwwvd29p6ec",217,"49.csv","","null","resources/maskTrios/BT2B.jpg","null","",NA,NA,NA,NA,""
"image-keyboard-response",112,132749,"0.0-3.33-2.33","rhg6xwwvd29p6ec",217,"49.csv","","null","resources/images/coin2.png","null","",NA,NA,NA,NA,""
"image-keyboard-response",113,133905,"0.0-3.34-0.34","rhg6xwwvd29p6ec",217,"49.csv","","1154.300000011921","resources/trios/L4T2A2.jpg","38","restless",0.1,0.6,0.7,0.116490482563464,"true"
"image-keyboard-response",114,134311,"0.0-3.34-1.34","rhg6xwwvd29p6ec",217,"49.csv","","null","resources/maskTrios/BT2B.jpg","null","",NA,NA,NA,NA,""
"image-keyboard-response",115,135517,"0.0-3.34-2.34","rhg6xwwvd29p6ec",217,"49.csv","","null","resources/images/coin2.png","null","",NA,NA,NA,NA,""
"image-keyboard-response",116,136110,"0.0-3.35-0.35","rhg6xwwvd29p6ec",217,"49.csv","","592.2000000178814","resources/trios/L1T1A3.jpg","38","restless",0.1,0.6,0.7,0.40322759161376,"true"
"image-keyboard-response",117,136516,"0.0-3.35-1.35","rhg6xwwvd29p6ec",217,"49.csv","","null","resources/maskTrios/BT1B.jpg","null","",NA,NA,NA,NA,""
"image-keyboard-response",118,137719,"0.0-3.35-2.35","rhg6xwwvd29p6ec",217,"49.csv","","null","resources/images/coin2.png","null","",NA,NA,NA,NA,""
"image-keyboard-response",119,138281,"0.0-3.36-0.36","rhg6xwwvd29p6ec",217,"49.csv","","560.1999999880791","resources/trios/L4T1A2.jpg","38","restless",0.1,0.6,0.7,0.443992969192738,"true"
"image-keyboard-response",120,138684,"0.0-3.36-1.36","rhg6xwwvd29p6ec",217,"49.csv","","null","resources/maskTrios/BT1B.jpg","null","",NA,NA,NA,NA,""
"image-keyboard-response",121,139888,"0.0-3.36-2.36","rhg6xwwvd29p6ec",217,"49.csv","","null","resources/images/coin2.png","null","",NA,NA,NA,NA,""
"image-keyboard-response",122,140454,"0.0-3.37-0.37","rhg6xwwvd29p6ec",217,"49.csv","","565.1999999880791","resources/trios/L1T1A3.jpg","38","restless",0.2,0.5,0.7,0.638530317090525,"false"
"image-keyboard-response",123,140856,"0.0-3.37-1.37","rhg6xwwvd29p6ec",217,"49.csv","","null","resources/maskTrios/BT1B.jpg","null","",NA,NA,NA,NA,""
"image-keyboard-response",124,142061,"0.0-3.37-2.37","rhg6xwwvd29p6ec",217,"49.csv","","null","resources/images/fishbone.png","null","",NA,NA,NA,NA,""
"image-keyboard-response",125,142954,"0.0-3.38-0.38","rhg6xwwvd29p6ec",217,"49.csv","","891.5","resources/trios/L4T2A2.jpg","38","restless",0.2,0.5,0.7,0.379367530034247,"true"
"image-keyboard-response",126,143358,"0.0-3.38-1.38","rhg6xwwvd29p6ec",217,"49.csv","","null","resources/maskTrios/BT2B.jpg","null","",NA,NA,NA,NA,""
"image-keyboard-response",127,144565,"0.0-3.38-2.38","rhg6xwwvd29p6ec",217,"49.csv","","null","resources/images/coin2.png","null","",NA,NA,NA,NA,""
"image-keyboard-response",128,145085,"0.0-3.39-0.39","rhg6xwwvd29p6ec",217,"49.csv","","519","resources/trios/L4T1A3.jpg","39","restless",0.2,0.5,0.7,0.567254917579602,"true"
"image-keyboard-response",129,145488,"0.0-3.39-1.39","rhg6xwwvd29p6ec",217,"49.csv","","null","resources/maskTrios/BBA3.jpg","null","",NA,NA,NA,NA,""
"image-keyboard-response",130,146695,"0.0-3.39-2.39","rhg6xwwvd29p6ec",217,"49.csv","","null","resources/images/coin2.png","null","",NA,NA,NA,NA,""
"image-keyboard-response",131,147371,"0.0-3.40-0.40","rhg6xwwvd29p6ec",217,"49.csv","","674.2999999821186","resources/trios/L1T1A2.jpg","39","restless",0.2,0.5,0.7,0.169028498117043,"true"
"image-keyboard-response",132,147772,"0.0-3.40-1.40","rhg6xwwvd29p6ec",217,"49.csv","","null","resources/maskTrios/BBA2.jpg","null","",NA,NA,NA,NA,""
"image-keyboard-response",133,148975,"0.0-3.40-2.40","rhg6xwwvd29p6ec",217,"49.csv","","null","resources/images/coin2.png","null","",NA,NA,NA,NA,""
"image-keyboard-response",134,149544,"0.0-3.41-0.41","rhg6xwwvd29p6ec",217,"49.csv","","567.6999999880791","resources/trios/L1T1A2.jpg","39","restless",0.2,0.5,0.7,0.728624817032236,"false"
"image-keyboard-response",135,149949,"0.0-3.41-1.41","rhg6xwwvd29p6ec",217,"49.csv","","null","resources/maskTrios/BBA2.jpg","null","",NA,NA,NA,NA,""
"image-keyboard-response",136,151150,"0.0-3.41-2.41","rhg6xwwvd29p6ec",217,"49.csv","","null","resources/images/fishbone.png","null","",NA,NA,NA,NA,""
"image-keyboard-response",137,152679,"0.0-3.42-0.42","rhg6xwwvd29p6ec",217,"49.csv","","1527.300000011921","resources/trios/L4T2A3.jpg","38","restless",0.2,0.5,0.7,0.189707647177103,"true"
"image-keyboard-response",138,153082,"0.0-3.42-1.42","rhg6xwwvd29p6ec",217,"49.csv","","null","resources/maskTrios/BT2B.jpg","null","",NA,NA,NA,NA,""
"image-keyboard-response",139,154285,"0.0-3.42-2.42","rhg6xwwvd29p6ec",217,"49.csv","","null","resources/images/coin2.png","null","",NA,NA,NA,NA,""
"image-keyboard-response",140,155937,"0.0-3.43-0.43","rhg6xwwvd29p6ec",217,"49.csv","","1650.4000000059605","resources/trios/L4T2A2.jpg","38","restless",0.2,0.5,0.8,0.852128181103928,"false"
"image-keyboard-response",141,156342,"0.0-3.43-1.43","rhg6xwwvd29p6ec",217,"49.csv","","null","resources/maskTrios/BT2B.jpg","null","",NA,NA,NA,NA,""
"image-keyboard-response",142,157546,"0.0-3.43-2.43","rhg6xwwvd29p6ec",217,"49.csv","","null","resources/images/fishbone.png","null","",NA,NA,NA,NA,""
"image-keyboard-response",143,158857,"0.0-3.44-0.44","rhg6xwwvd29p6ec",217,"49.csv","","1309.0999999940395","resources/trios/L1T1A2.jpg","38","restless",0.2,0.5,0.9,0.588637971730142,"false"
"image-keyboard-response",144,159258,"0.0-3.44-1.44","rhg6xwwvd29p6ec",217,"49.csv","","null","resources/maskTrios/BT1B.jpg","null","",NA,NA,NA,NA,""
"image-keyboard-response",145,160460,"0.0-3.44-2.44","rhg6xwwvd29p6ec",217,"49.csv","","null","resources/images/fishbone.png","null","",NA,NA,NA,NA,""
"image-keyboard-response",146,161368,"0.0-3.45-0.45","rhg6xwwvd29p6ec",217,"49.csv","","905.8000000119209","resources/trios/L4T2A2.jpg","38","restless",0.2,0.5,0.9,0.0432679827770639,"true"
"image-keyboard-response",147,161770,"0.0-3.45-1.45","rhg6xwwvd29p6ec",217,"49.csv","","null","resources/maskTrios/BT2B.jpg","null","",NA,NA,NA,NA,""
"image-keyboard-response",148,162973,"0.0-3.45-2.45","rhg6xwwvd29p6ec",217,"49.csv","","null","resources/images/coin2.png","null","",NA,NA,NA,NA,""
"image-keyboard-response",149,163795,"0.0-3.46-0.46","rhg6xwwvd29p6ec",217,"49.csv","","821","resources/trios/L4T2A3.jpg","39","restless",0.2,0.4,0.9,0.255978448706352,"true"
"image-keyboard-response",150,164199,"0.0-3.46-1.46","rhg6xwwvd29p6ec",217,"49.csv","","null","resources/maskTrios/BBA3.jpg","null","",NA,NA,NA,NA,""
"image-keyboard-response",151,165401,"0.0-3.46-2.46","rhg6xwwvd29p6ec",217,"49.csv","","null","resources/images/coin2.png","null","",NA,NA,NA,NA,""
"image-keyboard-response",152,166100,"0.0-3.47-0.47","rhg6xwwvd29p6ec",217,"49.csv","","698.3999999761581","resources/trios/L1T2A2.jpg","37","restless",0.2,0.4,0.9,0.33541764513584,"false"
"image-keyboard-response",153,166505,"0.0-3.47-1.47","rhg6xwwvd29p6ec",217,"49.csv","","null","resources/maskTrios/L1BB.jpg","null","",NA,NA,NA,NA,""
"image-keyboard-response",154,167708,"0.0-3.47-2.47","rhg6xwwvd29p6ec",217,"49.csv","","null","resources/images/fishbone.png","null","",NA,NA,NA,NA,""
"image-keyboard-response",155,169402,"0.0-3.48-0.48","rhg6xwwvd29p6ec",217,"49.csv","","1693.2999999821186","resources/trios/L1T1A2.jpg","39","restless",0.2,0.4,0.9,0.315816216533155,"true"
"image-keyboard-response",156,169805,"0.0-3.48-1.48","rhg6xwwvd29p6ec",217,"49.csv","","null","resources/maskTrios/BBA2.jpg","null","",NA,NA,NA,NA,""
"image-keyboard-response",157,171009,"0.0-3.48-2.48","rhg6xwwvd29p6ec",217,"49.csv","","null","resources/images/coin2.png","null","",NA,NA,NA,NA,""
"image-keyboard-response",158,172066,"0.0-3.49-0.49","rhg6xwwvd29p6ec",217,"49.csv","","1056.3999999761581","resources/trios/L4T2A2.jpg","38","restless",0.2,0.4,0.9,0.182205650880638,"true"
"image-keyboard-response",159,172470,"0.0-3.49-1.49","rhg6xwwvd29p6ec",217,"49.csv","","null","resources/maskTrios/BT2B.jpg","null","",NA,NA,NA,NA,""
"image-keyboard-response",160,173671,"0.0-3.49-2.49","rhg6xwwvd29p6ec",217,"49.csv","","null","resources/images/coin2.png","null","",NA,NA,NA,NA,""
"image-keyboard-response",161,174859,"0.0-3.50-0.50","rhg6xwwvd29p6ec",217,"49.csv","","1186.5999999940395","resources/trios/L4T1A2.jpg","39","restless",0.2,0.4,0.9,0.758408558960378,"true"
"image-keyboard-response",162,175265,"0.0-3.50-1.50","rhg6xwwvd29p6ec",217,"49.csv","","null","resources/maskTrios/BBA2.jpg","null","",NA,NA,NA,NA,""
"image-keyboard-response",163,176468,"0.0-3.50-2.50","rhg6xwwvd29p6ec",217,"49.csv","","null","resources/images/coin2.png","null","",NA,NA,NA,NA,""
"image-keyboard-response",164,177572,"0.0-3.51-0.51","rhg6xwwvd29p6ec",217,"49.csv","","1102.4000000059605","resources/trios/L1T1A2.jpg","39","restless",0.2,0.4,0.8,0.457256536291858,"true"
"image-keyboard-response",165,177975,"0.0-3.51-1.51","rhg6xwwvd29p6ec",217,"49.csv","","null","resources/maskTrios/BBA2.jpg","null","",NA,NA,NA,NA,""
"image-keyboard-response",166,179179,"0.0-3.51-2.51","rhg6xwwvd29p6ec",217,"49.csv","","null","resources/images/coin2.png","null","",NA,NA,NA,NA,""
"image-keyboard-response",167,180064,"0.0-3.52-0.52","rhg6xwwvd29p6ec",217,"49.csv","","884.2000000178814","resources/trios/L4T2A2.jpg","38","restless",0.3,0.4,0.8,0.260173930090179,"true"
"image-keyboard-response",168,180469,"0.0-3.52-1.52","rhg6xwwvd29p6ec",217,"49.csv","","null","resources/maskTrios/BT2B.jpg","null","",NA,NA,NA,NA,""
"image-keyboard-response",169,181672,"0.0-3.52-2.52","rhg6xwwvd29p6ec",217,"49.csv","","null","resources/images/coin2.png","null","",NA,NA,NA,NA,""
"image-keyboard-response",170,182536,"0.0-3.53-0.53","rhg6xwwvd29p6ec",217,"49.csv","","862.7000000178814","resources/trios/L1T1A2.jpg","38","restless",0.3,0.4,0.8,0.392125650856969,"true"
"image-keyboard-response",171,182940,"0.0-3.53-1.53","rhg6xwwvd29p6ec",217,"49.csv","","null","resources/maskTrios/BT1B.jpg","null","",NA,NA,NA,NA,""
"image-keyboard-response",172,184143,"0.0-3.53-2.53","rhg6xwwvd29p6ec",217,"49.csv","","null","resources/images/coin2.png","null","",NA,NA,NA,NA,""
"image-keyboard-response",173,185068,"0.0-3.54-0.54","rhg6xwwvd29p6ec",217,"49.csv","","923.5","resources/trios/L1T2A2.jpg","38","restless",0.3,0.3,0.8,0.078445827792097,"true"
"image-keyboard-response",174,185472,"0.0-3.54-1.54","rhg6xwwvd29p6ec",217,"49.csv","","null","resources/maskTrios/BT2B.jpg","null","",NA,NA,NA,NA,""
"image-keyboard-response",175,186673,"0.0-3.54-2.54","rhg6xwwvd29p6ec",217,"49.csv","","null","resources/images/coin2.png","null","",NA,NA,NA,NA,""
"image-keyboard-response",176,187709,"0.0-3.55-0.55","rhg6xwwvd29p6ec",217,"49.csv","","1035.2000000178814","resources/trios/L4T2A3.jpg","38","restless",0.3,0.3,0.7,0.537914765811996,"false"
"image-keyboard-response",177,188112,"0.0-3.55-1.55","rhg6xwwvd29p6ec",217,"49.csv","","null","resources/maskTrios/BT2B.jpg","null","",NA,NA,NA,NA,""
"image-keyboard-response",178,189313,"0.0-3.55-2.55","rhg6xwwvd29p6ec",217,"49.csv","","null","resources/images/fishbone.png","null","",NA,NA,NA,NA,""
"image-keyboard-response",179,192782,"0.0-3.56-0.56","rhg6xwwvd29p6ec",217,"49.csv","","3468","resources/trios/L4T2A3.jpg","38","restless",0.3,0.3,0.7,0.297501121248793,"true"
"image-keyboard-response",180,193185,"0.0-3.56-1.56","rhg6xwwvd29p6ec",217,"49.csv","","null","resources/maskTrios/BT2B.jpg","null","",NA,NA,NA,NA,""
"image-keyboard-response",181,194388,"0.0-3.56-2.56","rhg6xwwvd29p6ec",217,"49.csv","","null","resources/images/coin2.png","null","",NA,NA,NA,NA,""
"image-keyboard-response",182,195730,"0.0-3.57-0.57","rhg6xwwvd29p6ec",217,"49.csv","","1341.699999988079","resources/trios/L1T2A3.jpg","38","restless",0.3,0.3,0.7,0.0282426210748341,"true"
"image-keyboard-response",183,196136,"0.0-3.57-1.57","rhg6xwwvd29p6ec",217,"49.csv","","null","resources/maskTrios/BT2B.jpg","null","",NA,NA,NA,NA,""
"image-keyboard-response",184,197340,"0.0-3.57-2.57","rhg6xwwvd29p6ec",217,"49.csv","","null","resources/images/coin2.png","null","",NA,NA,NA,NA,""
"image-keyboard-response",185,199887,"0.0-3.58-0.58","rhg6xwwvd29p6ec",217,"49.csv","","2545.5","resources/trios/L4T2A3.jpg","38","restless",0.3,0.3,0.7,0.763904972982445,"false"
"image-keyboard-response",186,200291,"0.0-3.58-1.58","rhg6xwwvd29p6ec",217,"49.csv","","null","resources/maskTrios/BT2B.jpg","null","",NA,NA,NA,NA,""
"image-keyboard-response",187,201492,"0.0-3.58-2.58","rhg6xwwvd29p6ec",217,"49.csv","","null","resources/images/fishbone.png","null","",NA,NA,NA,NA,""
"image-keyboard-response",188,202282,"0.0-3.59-0.59","rhg6xwwvd29p6ec",217,"49.csv","","789.7000000178814","resources/trios/L1T1A2.jpg","38","restless",0.3,0.3,0.7,0.862849414020928,"false"
"image-keyboard-response",189,202686,"0.0-3.59-1.59","rhg6xwwvd29p6ec",217,"49.csv","","null","resources/maskTrios/BT1B.jpg","null","",NA,NA,NA,NA,""
"image-keyboard-response",190,203890,"0.0-3.59-2.59","rhg6xwwvd29p6ec",217,"49.csv","","null","resources/images/fishbone.png","null","",NA,NA,NA,NA,""
"image-keyboard-response",191,204723,"0.0-3.60-0.60","rhg6xwwvd29p6ec",217,"49.csv","","832","resources/trios/L4T2A3.jpg","37","restless",0.3,0.3,0.6,0.3293379634299,"false"
"image-keyboard-response",192,205124,"0.0-3.60-1.60","rhg6xwwvd29p6ec",217,"49.csv","","null","resources/maskTrios/L4BB.jpg","null","",NA,NA,NA,NA,""
"image-keyboard-response",193,206325,"0.0-3.60-2.60","rhg6xwwvd29p6ec",217,"49.csv","","null","resources/images/fishbone.png","null","",NA,NA,NA,NA,""
"image-keyboard-response",194,206697,"0.0-3.61-0.61","rhg6xwwvd29p6ec",217,"49.csv","","370.80000001192093","resources/trios/L4T2A2.jpg","39","restless",0.3,0.3,0.6,0.499468996605411,"true"
"image-keyboard-response",195,207099,"0.0-3.61-1.61","rhg6xwwvd29p6ec",217,"49.csv","","null","resources/maskTrios/BBA2.jpg","null","",NA,NA,NA,NA,""
"image-keyboard-response",196,208303,"0.0-3.61-2.61","rhg6xwwvd29p6ec",217,"49.csv","","null","resources/images/coin2.png","null","",NA,NA,NA,NA,""
"image-keyboard-response",197,208818,"0.0-3.62-0.62","rhg6xwwvd29p6ec",217,"49.csv","","514.4000000059605","resources/trios/L4T1A2.jpg","39","restless",0.4,0.3,0.6,0.0999543160541321,"true"
"image-keyboard-response",198,209221,"0.0-3.62-1.62","rhg6xwwvd29p6ec",217,"49.csv","","null","resources/maskTrios/BBA2.jpg","null","",NA,NA,NA,NA,""
"image-keyboard-response",199,210427,"0.0-3.62-2.62","rhg6xwwvd29p6ec",217,"49.csv","","null","resources/images/coin2.png","null","",NA,NA,NA,NA,""
"image-keyboard-response",200,210887,"0.0-3.63-0.63","rhg6xwwvd29p6ec",217,"49.csv","","458.30000001192093","resources/trios/L1T1A3.jpg","39","restless",0.4,0.3,0.6,0.245004704861624,"true"
"image-keyboard-response",201,211292,"0.0-3.63-1.63","rhg6xwwvd29p6ec",217,"49.csv","","null","resources/maskTrios/BBA3.jpg","null","",NA,NA,NA,NA,""
"image-keyboard-response",202,212495,"0.0-3.63-2.63","rhg6xwwvd29p6ec",217,"49.csv","","null","resources/images/coin2.png","null","",NA,NA,NA,NA,""
"image-keyboard-response",203,212944,"0.0-3.64-0.64","rhg6xwwvd29p6ec",217,"49.csv","","448.2000000178814","resources/trios/L4T2A3.jpg","39","restless",0.4,0.3,0.6,0.710989475734554,"false"
"image-keyboard-response",204,213349,"0.0-3.64-1.64","rhg6xwwvd29p6ec",217,"49.csv","","null","resources/maskTrios/BBA3.jpg","null","",NA,NA,NA,NA,""
"image-keyboard-response",205,214550,"0.0-3.64-2.64","rhg6xwwvd29p6ec",217,"49.csv","","null","resources/images/fishbone.png","null","",NA,NA,NA,NA,""
"image-keyboard-response",206,214901,"0.0-3.65-0.65","rhg6xwwvd29p6ec",217,"49.csv","","349.80000001192093","resources/trios/L1T1A2.jpg","38","restless",0.4,0.3,0.6,0.950693634856882,"false"
"image-keyboard-response",207,215304,"0.0-3.65-1.65","rhg6xwwvd29p6ec",217,"49.csv","","null","resources/maskTrios/BT1B.jpg","null","",NA,NA,NA,NA,""
"image-keyboard-response",208,216510,"0.0-3.65-2.65","rhg6xwwvd29p6ec",217,"49.csv","","null","resources/images/fishbone.png","null","",NA,NA,NA,NA,""
"image-keyboard-response",209,217093,"0.0-3.66-0.66","rhg6xwwvd29p6ec",217,"49.csv","","582.0999999940395","resources/trios/L4T1A3.jpg","37","restless",0.5,0.3,0.6,0.944524982287411,"false"
"image-keyboard-response",210,217495,"0.0-3.66-1.66","rhg6xwwvd29p6ec",217,"49.csv","","null","resources/maskTrios/L4BB.jpg","null","",NA,NA,NA,NA,""
"image-keyboard-response",211,218700,"0.0-3.66-2.66","rhg6xwwvd29p6ec",217,"49.csv","","null","resources/images/fishbone.png","null","",NA,NA,NA,NA,""
"image-keyboard-response",212,219068,"0.0-3.67-0.67","rhg6xwwvd29p6ec",217,"49.csv","","366.5","resources/trios/L4T1A2.jpg","38","restless",0.4,0.3,0.6,0.709468805622755,"false"
"image-keyboard-response",213,219473,"0.0-3.67-1.67","rhg6xwwvd29p6ec",217,"49.csv","","null","resources/maskTrios/BT1B.jpg","null","",NA,NA,NA,NA,""
"image-keyboard-response",214,220676,"0.0-3.67-2.67","rhg6xwwvd29p6ec",217,"49.csv","","null","resources/images/fishbone.png","null","",NA,NA,NA,NA,""
"image-keyboard-response",215,221489,"0.0-3.68-0.68","rhg6xwwvd29p6ec",217,"49.csv","","812.4000000059605","resources/trios/L1T2A2.jpg","38","restless",0.4,0.3,0.6,0.000608742512659743,"true"
"image-keyboard-response",216,221892,"0.0-3.68-1.68","rhg6xwwvd29p6ec",217,"49.csv","","null","resources/maskTrios/BT2B.jpg","null","",NA,NA,NA,NA,""
"image-keyboard-response",217,223093,"0.0-3.68-2.68","rhg6xwwvd29p6ec",217,"49.csv","","null","resources/images/coin2.png","null","",NA,NA,NA,NA,""
"image-keyboard-response",218,224208,"0.0-3.69-0.69","rhg6xwwvd29p6ec",217,"49.csv","","1113.5999999940395","resources/trios/L1T1A3.jpg","39","restless",0.4,0.3,0.6,0.027334612840626,"true"
"image-keyboard-response",219,224611,"0.0-3.69-1.69","rhg6xwwvd29p6ec",217,"49.csv","","null","resources/maskTrios/BBA3.jpg","null","",NA,NA,NA,NA,""
"image-keyboard-response",220,225815,"0.0-3.69-2.69","rhg6xwwvd29p6ec",217,"49.csv","","null","resources/images/coin2.png","null","",NA,NA,NA,NA,""
"image-keyboard-response",221,226582,"0.0-3.70-0.70","rhg6xwwvd29p6ec",217,"49.csv","","766.1999999880791","resources/trios/L4T1A2.jpg","39","restless",0.4,0.3,0.6,0.237324929960188,"true"
"image-keyboard-response",222,226983,"0.0-3.70-1.70","rhg6xwwvd29p6ec",217,"49.csv","","null","resources/maskTrios/BBA2.jpg","null","",NA,NA,NA,NA,""
"image-keyboard-response",223,228187,"0.0-3.70-2.70","rhg6xwwvd29p6ec",217,"49.csv","","null","resources/images/coin2.png","null","",NA,NA,NA,NA,""
"image-keyboard-response",224,229690,"0.0-3.71-0.71","rhg6xwwvd29p6ec",217,"49.csv","","1501.5999999940395","resources/trios/L4T2A3.jpg","37","restless",0.4,0.2,0.6,0.178390211031529,"true"
"image-keyboard-response",225,230094,"0.0-3.71-1.71","rhg6xwwvd29p6ec",217,"49.csv","","null","resources/maskTrios/L4BB.jpg","null","",NA,NA,NA,NA,""
"image-keyboard-response",226,231299,"0.0-3.71-2.71","rhg6xwwvd29p6ec",217,"49.csv","","null","resources/images/coin2.png","null","",NA,NA,NA,NA,""
"image-keyboard-response",227,232629,"0.0-3.72-0.72","rhg6xwwvd29p6ec",217,"49.csv","","1328.8999999761581","resources/trios/L4T1A2.jpg","39","restless",0.4,0.2,0.6,0.199312564764179,"true"
"image-keyboard-response",228,233031,"0.0-3.72-1.72","rhg6xwwvd29p6ec",217,"49.csv","","null","resources/maskTrios/BBA2.jpg","null","",NA,NA,NA,NA,""
"image-keyboard-response",229,234233,"0.0-3.72-2.72","rhg6xwwvd29p6ec",217,"49.csv","","null","resources/images/coin2.png","null","",NA,NA,NA,NA,""
"image-keyboard-response",230,235247,"0.0-3.73-0.73","rhg6xwwvd29p6ec",217,"49.csv","","1013.7999999821186","resources/trios/L1T1A2.jpg","39","restless",0.4,0.2,0.6,0.349481945636725,"true"
"image-keyboard-response",231,235651,"0.0-3.73-1.73","rhg6xwwvd29p6ec",217,"49.csv","","null","resources/maskTrios/BBA2.jpg","null","",NA,NA,NA,NA,""
"image-keyboard-response",232,236856,"0.0-3.73-2.73","rhg6xwwvd29p6ec",217,"49.csv","","null","resources/images/coin2.png","null","",NA,NA,NA,NA,""
"image-keyboard-response",233,237955,"0.0-3.74-0.74","rhg6xwwvd29p6ec",217,"49.csv","","1098.5","resources/trios/L1T1A2.jpg","39","restless",0.4,0.2,0.6,0.755374895366657,"false"
"image-keyboard-response",234,238358,"0.0-3.74-1.74","rhg6xwwvd29p6ec",217,"49.csv","","null","resources/maskTrios/BBA2.jpg","null","",NA,NA,NA,NA,""
"image-keyboard-response",235,239559,"0.0-3.74-2.74","rhg6xwwvd29p6ec",217,"49.csv","","null","resources/images/fishbone.png","null","",NA,NA,NA,NA,""
"image-keyboard-response",236,241121,"0.0-3.75-0.75","rhg6xwwvd29p6ec",217,"49.csv","","1561","resources/trios/L1T1A3.jpg","39","restless",0.4,0.2,0.6,0.24100430715461,"true"
"image-keyboard-response",237,241522,"0.0-3.75-1.75","rhg6xwwvd29p6ec",217,"49.csv","","null","resources/maskTrios/BBA3.jpg","null","",NA,NA,NA,NA,""
"image-keyboard-response",238,242725,"0.0-3.75-2.75","rhg6xwwvd29p6ec",217,"49.csv","","null","resources/images/coin2.png","null","",NA,NA,NA,NA,""
"image-keyboard-response",239,243545,"0.0-3.76-0.76","rhg6xwwvd29p6ec",217,"49.csv","","819.5","resources/trios/L1T2A3.jpg","37","restless",0.4,0.2,0.6,0.221348053052707,"true"
"image-keyboard-response",240,243951,"0.0-3.76-1.76","rhg6xwwvd29p6ec",217,"49.csv","","null","resources/maskTrios/L1BB.jpg","null","",NA,NA,NA,NA,""
"image-keyboard-response",241,245153,"0.0-3.76-2.76","rhg6xwwvd29p6ec",217,"49.csv","","null","resources/images/coin2.png","null","",NA,NA,NA,NA,""
"image-keyboard-response",242,246124,"0.0-3.77-0.77","rhg6xwwvd29p6ec",217,"49.csv","","969.5","resources/trios/L1T2A2.jpg","37","restless",0.4,0.2,0.6,0.64193530820158,"false"
"image-keyboard-response",243,246529,"0.0-3.77-1.77","rhg6xwwvd29p6ec",217,"49.csv","","null","resources/maskTrios/L1BB.jpg","null","",NA,NA,NA,NA,""
"image-keyboard-response",244,247732,"0.0-3.77-2.77","rhg6xwwvd29p6ec",217,"49.csv","","null","resources/images/fishbone.png","null","",NA,NA,NA,NA,""
"image-keyboard-response",245,249096,"0.0-3.78-0.78","rhg6xwwvd29p6ec",217,"49.csv","","1363.199999988079","resources/trios/L1T1A2.jpg","39","restless",0.4,0.2,0.6,0.676920698466614,"false"
"image-keyboard-response",246,249501,"0.0-3.78-1.78","rhg6xwwvd29p6ec",217,"49.csv","","null","resources/maskTrios/BBA2.jpg","null","",NA,NA,NA,NA,""
"image-keyboard-response",247,250707,"0.0-3.78-2.78","rhg6xwwvd29p6ec",217,"49.csv","","null","resources/images/fishbone.png","null","",NA,NA,NA,NA,""
"image-keyboard-response",248,251439,"0.0-3.79-0.79","rhg6xwwvd29p6ec",217,"49.csv","","730.6999999880791","resources/trios/L4T1A2.jpg","38","restless",0.4,0.2,0.6,0.0740765644195567,"true"
"image-keyboard-response",249,251841,"0.0-3.79-1.79","rhg6xwwvd29p6ec",217,"49.csv","","null","resources/maskTrios/BT1B.jpg","null","",NA,NA,NA,NA,""
"image-keyboard-response",250,253045,"0.0-3.79-2.79","rhg6xwwvd29p6ec",217,"49.csv","","null","resources/images/coin2.png","null","",NA,NA,NA,NA,""
"image-keyboard-response",251,253620,"0.0-3.80-0.80","rhg6xwwvd29p6ec",217,"49.csv","","573.5","resources/trios/L1T1A3.jpg","38","restless",0.4,0.2,0.5,0.188640771605527,"true"
"image-keyboard-response",252,254021,"0.0-3.80-1.80","rhg6xwwvd29p6ec",217,"49.csv","","null","resources/maskTrios/BT1B.jpg","null","",NA,NA,NA,NA,""
"image-keyboard-response",253,255224,"0.0-3.80-2.80","rhg6xwwvd29p6ec",217,"49.csv","","null","resources/images/coin2.png","null","",NA,NA,NA,NA,""
"image-keyboard-response",254,256024,"0.0-3.81-0.81","rhg6xwwvd29p6ec",217,"49.csv","","799.0999999940395","resources/trios/L4T1A3.jpg","39","restless",0.4,0.2,0.4,0.285306418166241,"true"
"image-keyboard-response",255,256429,"0.0-3.81-1.81","rhg6xwwvd29p6ec",217,"49.csv","","null","resources/maskTrios/BBA3.jpg","null","",NA,NA,NA,NA,""
"image-keyboard-response",256,257630,"0.0-3.81-2.81","rhg6xwwvd29p6ec",217,"49.csv","","null","resources/images/coin2.png","null","",NA,NA,NA,NA,""
"image-keyboard-response",257,258156,"0.0-3.82-0.82","rhg6xwwvd29p6ec",217,"49.csv","","524.9000000059605","resources/trios/L4T1A2.jpg","37","restless",0.4,0.2,0.4,0.157334755669078,"true"
"image-keyboard-response",258,258558,"0.0-3.82-1.82","rhg6xwwvd29p6ec",217,"49.csv","","null","resources/maskTrios/L4BB.jpg","null","",NA,NA,NA,NA,""
"image-keyboard-response",259,259762,"0.0-3.82-2.82","rhg6xwwvd29p6ec",217,"49.csv","","null","resources/images/coin2.png","null","",NA,NA,NA,NA,""
"image-keyboard-response",260,261183,"0.0-3.83-0.83","rhg6xwwvd29p6ec",217,"49.csv","","1420.2999999821186","resources/trios/L1T1A3.jpg","38","restless",0.4,0.3,0.4,0.180389083112919,"true"
"image-keyboard-response",261,261589,"0.0-3.83-1.83","rhg6xwwvd29p6ec",217,"49.csv","","null","resources/maskTrios/BT1B.jpg","null","",NA,NA,NA,NA,""
"image-keyboard-response",262,262792,"0.0-3.83-2.83","rhg6xwwvd29p6ec",217,"49.csv","","null","resources/images/coin2.png","null","",NA,NA,NA,NA,""
"image-keyboard-response",263,264000,"0.0-3.84-0.84","rhg6xwwvd29p6ec",217,"49.csv","","1207.300000011921","resources/trios/L1T2A3.jpg","38","restless",0.4,0.3,0.4,0.137104155656667,"true"
"image-keyboard-response",264,264403,"0.0-3.84-1.84","rhg6xwwvd29p6ec",217,"49.csv","","null","resources/maskTrios/BT2B.jpg","null","",NA,NA,NA,NA,""
"image-keyboard-response",265,265606,"0.0-3.84-2.84","rhg6xwwvd29p6ec",217,"49.csv","","null","resources/images/coin2.png","null","",NA,NA,NA,NA,""
"image-keyboard-response",266,266878,"0.0-3.85-0.85","rhg6xwwvd29p6ec",217,"49.csv","","1271.300000011921","resources/trios/L1T1A2.jpg","39","restless",0.4,0.4,0.5,0.622820949569848,"false"
"image-keyboard-response",267,267279,"0.0-3.85-1.85","rhg6xwwvd29p6ec",217,"49.csv","","null","resources/maskTrios/BBA2.jpg","null","",NA,NA,NA,NA,""
"image-keyboard-response",268,268485,"0.0-3.85-2.85","rhg6xwwvd29p6ec",217,"49.csv","","null","resources/images/fishbone.png","null","",NA,NA,NA,NA,""
"image-keyboard-response",269,269388,"0.0-3.86-0.86","rhg6xwwvd29p6ec",217,"49.csv","","902.3000000119209","resources/trios/L1T2A3.jpg","38","restless",0.4,0.5,0.5,0.94379668254326,"false"
"image-keyboard-response",270,269790,"0.0-3.86-1.86","rhg6xwwvd29p6ec",217,"49.csv","","null","resources/maskTrios/BT2B.jpg","null","",NA,NA,NA,NA,""
"image-keyboard-response",271,270995,"0.0-3.86-2.86","rhg6xwwvd29p6ec",217,"49.csv","","null","resources/images/fishbone.png","null","",NA,NA,NA,NA,""
"image-keyboard-response",272,272172,"0.0-3.87-0.87","rhg6xwwvd29p6ec",217,"49.csv","","1175.699999988079","resources/trios/L4T2A3.jpg","37","restless",0.4,0.5,0.5,0.593076812996151,"false"
"image-keyboard-response",273,272575,"0.0-3.87-1.87","rhg6xwwvd29p6ec",217,"49.csv","","null","resources/maskTrios/L4BB.jpg","null","",NA,NA,NA,NA,""
"image-keyboard-response",274,273777,"0.0-3.87-2.87","rhg6xwwvd29p6ec",217,"49.csv","","null","resources/images/fishbone.png","null","",NA,NA,NA,NA,""
"image-keyboard-response",275,274587,"0.0-3.88-0.88","rhg6xwwvd29p6ec",217,"49.csv","","808.1999999880791","resources/trios/L1T1A3.jpg","39","restless",0.5,0.5,0.5,0.630369352585442,"false"
"image-keyboard-response",276,274988,"0.0-3.88-1.88","rhg6xwwvd29p6ec",217,"49.csv","","null","resources/maskTrios/BBA3.jpg","null","",NA,NA,NA,NA,""
"image-keyboard-response",277,276193,"0.0-3.88-2.88","rhg6xwwvd29p6ec",217,"49.csv","","null","resources/images/fishbone.png","null","",NA,NA,NA,NA,""
"image-keyboard-response",278,276981,"0.0-3.89-0.89","rhg6xwwvd29p6ec",217,"49.csv","","787.4000000059605","resources/trios/L4T1A3.jpg","38","restless",0.5,0.6,0.5,0.219415460530193,"true"
"image-keyboard-response",279,277386,"0.0-3.89-1.89","rhg6xwwvd29p6ec",217,"49.csv","","null","resources/maskTrios/BT1B.jpg","null","",NA,NA,NA,NA,""
"image-keyboard-response",280,278590,"0.0-3.89-2.89","rhg6xwwvd29p6ec",217,"49.csv","","null","resources/images/coin2.png","null","",NA,NA,NA,NA,""
"image-keyboard-response",281,279595,"0.0-3.90-0.90","rhg6xwwvd29p6ec",217,"49.csv","","1004.2000000178814","resources/trios/L4T1A3.jpg","39","restless",0.5,0.6,0.5,0.671133914694636,"false"
"image-keyboard-response",282,279998,"0.0-3.90-1.90","rhg6xwwvd29p6ec",217,"49.csv","","null","resources/maskTrios/BBA3.jpg","null","",NA,NA,NA,NA,""
"image-keyboard-response",283,281203,"0.0-3.90-2.90","rhg6xwwvd29p6ec",217,"49.csv","","null","resources/images/fishbone.png","null","",NA,NA,NA,NA,""
"image-keyboard-response",284,282119,"0.0-3.91-0.91","rhg6xwwvd29p6ec",217,"49.csv","","915.2000000178814","resources/trios/L4T2A2.jpg","38","restless",0.5,0.6,0.5,0.0660961961601556,"true"
"image-keyboard-response",285,282520,"0.0-3.91-1.91","rhg6xwwvd29p6ec",217,"49.csv","","null","resources/maskTrios/BT2B.jpg","null","",NA,NA,NA,NA,""
"image-keyboard-response",286,283722,"0.0-3.91-2.91","rhg6xwwvd29p6ec",217,"49.csv","","null","resources/images/coin2.png","null","",NA,NA,NA,NA,""
"image-keyboard-response",287,284017,"0.0-3.92-0.92","rhg6xwwvd29p6ec",217,"49.csv","","293","resources/trios/L4T1A2.jpg","37","restless",0.5,0.6,0.5,0.122712600417214,"true"
"image-keyboard-response",288,284420,"0.0-3.92-1.92","rhg6xwwvd29p6ec",217,"49.csv","","null","resources/maskTrios/L4BB.jpg","null","",NA,NA,NA,NA,""
"image-keyboard-response",289,285622,"0.0-3.92-2.92","rhg6xwwvd29p6ec",217,"49.csv","","null","resources/images/coin2.png","null","",NA,NA,NA,NA,""
"image-keyboard-response",290,286300,"0.0-3.93-0.93","rhg6xwwvd29p6ec",217,"49.csv","","676.0999999940395","resources/trios/L4T2A3.jpg","37","restless",0.5,0.6,0.5,0.255879737968903,"true"
"image-keyboard-response",291,286706,"0.0-3.93-1.93","rhg6xwwvd29p6ec",217,"49.csv","","null","resources/maskTrios/L4BB.jpg","null","",NA,NA,NA,NA,""
"image-keyboard-response",292,287909,"0.0-3.93-2.93","rhg6xwwvd29p6ec",217,"49.csv","","null","resources/images/coin2.png","null","",NA,NA,NA,NA,""
"image-keyboard-response",293,289425,"0.0-3.94-0.94","rhg6xwwvd29p6ec",217,"49.csv","","1515.0999999940395","resources/trios/L1T1A3.jpg","39","restless",0.5,0.6,0.6,0.806690905886304,"false"
"image-keyboard-response",294,289826,"0.0-3.94-1.94","rhg6xwwvd29p6ec",217,"49.csv","","null","resources/maskTrios/BBA3.jpg","null","",NA,NA,NA,NA,""
"image-keyboard-response",295,291027,"0.0-3.94-2.94","rhg6xwwvd29p6ec",217,"49.csv","","null","resources/images/fishbone.png","null","",NA,NA,NA,NA,""
"image-keyboard-response",296,292111,"0.0-3.95-0.95","rhg6xwwvd29p6ec",217,"49.csv","","1083.1000000238419","resources/trios/L4T2A2.jpg","38","restless",0.5,0.6,0.6,0.165923030044544,"true"
"image-keyboard-response",297,292513,"0.0-3.95-1.95","rhg6xwwvd29p6ec",217,"49.csv","","null","resources/maskTrios/BT2B.jpg","null","",NA,NA,NA,NA,""
"image-keyboard-response",298,293714,"0.0-3.95-2.95","rhg6xwwvd29p6ec",217,"49.csv","","null","resources/images/coin2.png","null","",NA,NA,NA,NA,""
"image-keyboard-response",299,294301,"0.0-3.96-0.96","rhg6xwwvd29p6ec",217,"49.csv","","585.6999999880791","resources/trios/L1T2A2.jpg","37","restless",0.5,0.6,0.6,0.167931931138944,"true"
"image-keyboard-response",300,294703,"0.0-3.96-1.96","rhg6xwwvd29p6ec",217,"49.csv","","null","resources/maskTrios/L1BB.jpg","null","",NA,NA,NA,NA,""
"image-keyboard-response",301,295908,"0.0-3.96-2.96","rhg6xwwvd29p6ec",217,"49.csv","","null","resources/images/coin2.png","null","",NA,NA,NA,NA,""
"image-keyboard-response",302,296504,"0.0-3.97-0.97","rhg6xwwvd29p6ec",217,"49.csv","","594.6999999880791","resources/trios/L4T2A2.jpg","37","restless",0.5,0.6,0.6,0.480435475844711,"true"
"image-keyboard-response",303,296908,"0.0-3.97-1.97","rhg6xwwvd29p6ec",217,"49.csv","","null","resources/maskTrios/L4BB.jpg","null","",NA,NA,NA,NA,""
"image-keyboard-response",304,298112,"0.0-3.97-2.97","rhg6xwwvd29p6ec",217,"49.csv","","null","resources/images/coin2.png","null","",NA,NA,NA,NA,""
"image-keyboard-response",305,300109,"0.0-3.98-0.98","rhg6xwwvd29p6ec",217,"49.csv","","1996.2000000178814","resources/trios/L1T1A2.jpg","37","restless",0.6,0.6,0.6,0.48512416303744,"true"
"image-keyboard-response",306,300510,"0.0-3.98-1.98","rhg6xwwvd29p6ec",217,"49.csv","","null","resources/maskTrios/L1BB.jpg","null","",NA,NA,NA,NA,""
"image-keyboard-response",307,301716,"0.0-3.98-2.98","rhg6xwwvd29p6ec",217,"49.csv","","null","resources/images/coin2.png","null","",NA,NA,NA,NA,""
"image-keyboard-response",308,302309,"0.0-3.99-0.99","rhg6xwwvd29p6ec",217,"49.csv","","591.3000000119209","resources/trios/L1T1A3.jpg","38","restless",0.7,0.6,0.6,0.8935072247963,"false"
"image-keyboard-response",309,302713,"0.0-3.99-1.99","rhg6xwwvd29p6ec",217,"49.csv","","null","resources/maskTrios/BT1B.jpg","null","",NA,NA,NA,NA,""
"image-keyboard-response",310,303914,"0.0-3.99-2.99","rhg6xwwvd29p6ec",217,"49.csv","","null","resources/images/fishbone.png","null","",NA,NA,NA,NA,""
"image-keyboard-response",311,304847,"0.0-3.100-0.100","rhg6xwwvd29p6ec",217,"49.csv","","931.4000000059605","resources/trios/L4T2A2.jpg","37","restless",0.7,0.6,0.6,0.542765948865512,"true"
"image-keyboard-response",312,305252,"0.0-3.100-1.100","rhg6xwwvd29p6ec",217,"49.csv","","null","resources/maskTrios/L4BB.jpg","null","",NA,NA,NA,NA,""
"image-keyboard-response",313,306457,"0.0-3.100-2.100","rhg6xwwvd29p6ec",217,"49.csv","","null","resources/images/coin2.png","null","",NA,NA,NA,NA,""
"image-keyboard-response",314,306966,"0.0-3.101-0.101","rhg6xwwvd29p6ec",217,"49.csv","","508.59999999403954","resources/trios/L4T2A2.jpg","38","restless",0.7,0.6,0.6,0.284243996739061,"true"
"image-keyboard-response",315,307367,"0.0-3.101-1.101","rhg6xwwvd29p6ec",217,"49.csv","","null","resources/maskTrios/BT2B.jpg","null","",NA,NA,NA,NA,""
"image-keyboard-response",316,308573,"0.0-3.101-2.101","rhg6xwwvd29p6ec",217,"49.csv","","null","resources/images/coin2.png","null","",NA,NA,NA,NA,""
"image-keyboard-response",317,309945,"0.0-3.102-0.102","rhg6xwwvd29p6ec",217,"49.csv","","1371.199999988079","resources/trios/L4T1A3.jpg","37","restless",0.7,0.7,0.6,0.707791232912123,"false"
"image-keyboard-response",318,310348,"0.0-3.102-1.102","rhg6xwwvd29p6ec",217,"49.csv","","null","resources/maskTrios/L4BB.jpg","null","",NA,NA,NA,NA,""
"image-keyboard-response",319,311549,"0.0-3.102-2.102","rhg6xwwvd29p6ec",217,"49.csv","","null","resources/images/fishbone.png","null","",NA,NA,NA,NA,""
"image-keyboard-response",320,311978,"0.0-3.103-0.103","rhg6xwwvd29p6ec",217,"49.csv","","427.39999997615814","resources/trios/L4T1A3.jpg","38","restless",0.7,0.7,0.6,0.604190108554054,"true"
"image-keyboard-response",321,312382,"0.0-3.103-1.103","rhg6xwwvd29p6ec",217,"49.csv","","null","resources/maskTrios/BT1B.jpg","null","",NA,NA,NA,NA,""
"image-keyboard-response",322,313587,"0.0-3.103-2.103","rhg6xwwvd29p6ec",217,"49.csv","","null","resources/images/coin2.png","null","",NA,NA,NA,NA,""
"image-keyboard-response",323,313948,"0.0-3.104-0.104","rhg6xwwvd29p6ec",217,"49.csv","","359.7999999821186","resources/trios/L1T1A3.jpg","39","restless",0.7,0.7,0.6,0.381140911371696,"true"
"image-keyboard-response",324,314352,"0.0-3.104-1.104","rhg6xwwvd29p6ec",217,"49.csv","","null","resources/maskTrios/BBA3.jpg","null","",NA,NA,NA,NA,""
"image-keyboard-response",325,315554,"0.0-3.104-2.104","rhg6xwwvd29p6ec",217,"49.csv","","null","resources/images/coin2.png","null","",NA,NA,NA,NA,""
"image-keyboard-response",326,316208,"0.0-3.105-0.105","rhg6xwwvd29p6ec",217,"49.csv","","653.1999999880791","resources/trios/L1T1A2.jpg","38","restless",0.7,0.7,0.6,0.75398050035822,"false"
"image-keyboard-response",327,316610,"0.0-3.105-1.105","rhg6xwwvd29p6ec",217,"49.csv","","null","resources/maskTrios/BT1B.jpg","null","",NA,NA,NA,NA,""
"image-keyboard-response",328,317813,"0.0-3.105-2.105","rhg6xwwvd29p6ec",217,"49.csv","","null","resources/images/fishbone.png","null","",NA,NA,NA,NA,""
"image-keyboard-response",329,319846,"0.0-3.106-0.106","rhg6xwwvd29p6ec",217,"49.csv","","2032.199999988079","resources/trios/L4T1A2.jpg","38","restless",0.7,0.7,0.6,0.029343382724093,"true"
"image-keyboard-response",330,320250,"0.0-3.106-1.106","rhg6xwwvd29p6ec",217,"49.csv","","null","resources/maskTrios/BT1B.jpg","null","",NA,NA,NA,NA,""
"image-keyboard-response",331,321454,"0.0-3.106-2.106","rhg6xwwvd29p6ec",217,"49.csv","","null","resources/images/coin2.png","null","",NA,NA,NA,NA,""
"image-keyboard-response",332,321962,"0.0-3.107-0.107","rhg6xwwvd29p6ec",217,"49.csv","","507.2000000178814","resources/trios/L1T1A2.jpg","38","restless",0.7,0.7,0.6,0.767950013874688,"false"
"image-keyboard-response",333,322368,"0.0-3.107-1.107","rhg6xwwvd29p6ec",217,"49.csv","","null","resources/maskTrios/BT1B.jpg","null","",NA,NA,NA,NA,""
"image-keyboard-response",334,323569,"0.0-3.107-2.107","rhg6xwwvd29p6ec",217,"49.csv","","null","resources/images/fishbone.png","null","",NA,NA,NA,NA,""
"image-keyboard-response",335,323915,"0.0-3.108-0.108","rhg6xwwvd29p6ec",217,"49.csv","","345.80000001192093","resources/trios/L4T1A2.jpg","39","restless",0.7,0.7,0.6,0.136044026374219,"true"
"image-keyboard-response",336,324318,"0.0-3.108-1.108","rhg6xwwvd29p6ec",217,"49.csv","","null","resources/maskTrios/BBA2.jpg","null","",NA,NA,NA,NA,""
"image-keyboard-response",337,325522,"0.0-3.108-2.108","rhg6xwwvd29p6ec",217,"49.csv","","null","resources/images/coin2.png","null","",NA,NA,NA,NA,""
"image-keyboard-response",338,325770,"0.0-3.109-0.109","rhg6xwwvd29p6ec",217,"49.csv","","246.19999998807907","resources/trios/L4T2A2.jpg","39","restless",0.8,0.6,0.6,0.00620073709400448,"true"
"image-keyboard-response",339,326175,"0.0-3.109-1.109","rhg6xwwvd29p6ec",217,"49.csv","","null","resources/maskTrios/BBA2.jpg","null","",NA,NA,NA,NA,""
"image-keyboard-response",340,327378,"0.0-3.109-2.109","rhg6xwwvd29p6ec",217,"49.csv","","null","resources/images/coin2.png","null","",NA,NA,NA,NA,""
"image-keyboard-response",341,327748,"0.0-3.110-0.110","rhg6xwwvd29p6ec",217,"49.csv","","369.5","resources/trios/L1T1A2.jpg","38","restless",0.8,0.6,0.6,0.989070246470517,"false"
"image-keyboard-response",342,328153,"0.0-3.110-1.110","rhg6xwwvd29p6ec",217,"49.csv","","null","resources/maskTrios/BT1B.jpg","null","",NA,NA,NA,NA,""
"image-keyboard-response",343,329357,"0.0-3.110-2.110","rhg6xwwvd29p6ec",217,"49.csv","","null","resources/images/fishbone.png","null","",NA,NA,NA,NA,""
"image-keyboard-response",344,330410,"0.0-3.111-0.111","rhg6xwwvd29p6ec",217,"49.csv","","1051.4000000059605","resources/trios/L4T2A2.jpg","38","restless",0.8,0.6,0.6,0.288058166380348,"true"
"image-keyboard-response",345,330815,"0.0-3.111-1.111","rhg6xwwvd29p6ec",217,"49.csv","","null","resources/maskTrios/BT2B.jpg","null","",NA,NA,NA,NA,""
"image-keyboard-response",346,332019,"0.0-3.111-2.111","rhg6xwwvd29p6ec",217,"49.csv","","null","resources/images/coin2.png","null","",NA,NA,NA,NA,""
"image-keyboard-response",347,332312,"0.0-3.112-0.112","rhg6xwwvd29p6ec",217,"49.csv","","291.90000000596046","resources/trios/L1T2A3.jpg","37","restless",0.8,0.6,0.6,0.567006442885748,"true"
"image-keyboard-response",348,332713,"0.0-3.112-1.112","rhg6xwwvd29p6ec",217,"49.csv","","null","resources/maskTrios/L1BB.jpg","null","",NA,NA,NA,NA,""
"image-keyboard-response",349,333915,"0.0-3.112-2.112","rhg6xwwvd29p6ec",217,"49.csv","","null","resources/images/coin2.png","null","",NA,NA,NA,NA,""
"image-keyboard-response",350,334645,"0.0-3.113-0.113","rhg6xwwvd29p6ec",217,"49.csv","","729.4000000059605","resources/trios/L4T1A2.jpg","39","restless",0.8,0.7,0.6,0.369013924196324,"true"
"image-keyboard-response",351,335048,"0.0-3.113-1.113","rhg6xwwvd29p6ec",217,"49.csv","","null","resources/maskTrios/BBA2.jpg","null","",NA,NA,NA,NA,""
"image-keyboard-response",352,336250,"0.0-3.113-2.113","rhg6xwwvd29p6ec",217,"49.csv","","null","resources/images/coin2.png","null","",NA,NA,NA,NA,""
"image-keyboard-response",353,337852,"0.0-3.114-0.114","rhg6xwwvd29p6ec",217,"49.csv","","1601.800000011921","resources/trios/L1T2A3.jpg","37","restless",0.8,0.6,0.5,0.110965290075636,"true"
"image-keyboard-response",354,338255,"0.0-3.114-1.114","rhg6xwwvd29p6ec",217,"49.csv","","null","resources/maskTrios/L1BB.jpg","null","",NA,NA,NA,NA,""
"image-keyboard-response",355,339459,"0.0-3.114-2.114","rhg6xwwvd29p6ec",217,"49.csv","","null","resources/images/coin2.png","null","",NA,NA,NA,NA,""
"image-keyboard-response",356,339750,"0.0-3.115-0.115","rhg6xwwvd29p6ec",217,"49.csv","","289.40000000596046","resources/trios/L1T2A2.jpg","38","restless",0.7,0.6,0.5,0.949436409072385,"false"
"image-keyboard-response",357,340153,"0.0-3.115-1.115","rhg6xwwvd29p6ec",217,"49.csv","","null","resources/maskTrios/BT2B.jpg","null","",NA,NA,NA,NA,""
"image-keyboard-response",358,341358,"0.0-3.115-2.115","rhg6xwwvd29p6ec",217,"49.csv","","null","resources/images/fishbone.png","null","",NA,NA,NA,NA,""
"image-keyboard-response",359,342107,"0.0-3.116-0.116","rhg6xwwvd29p6ec",217,"49.csv","","748.0999999940395","resources/trios/L4T2A2.jpg","37","restless",0.7,0.6,0.5,0.192861178824759,"true"
"image-keyboard-response",360,342512,"0.0-3.116-1.116","rhg6xwwvd29p6ec",217,"49.csv","","null","resources/maskTrios/L4BB.jpg","null","",NA,NA,NA,NA,""
"image-keyboard-response",361,343717,"0.0-3.116-2.116","rhg6xwwvd29p6ec",217,"49.csv","","null","resources/images/coin2.png","null","",NA,NA,NA,NA,""
"image-keyboard-response",362,344155,"0.0-3.117-0.117","rhg6xwwvd29p6ec",217,"49.csv","","437","resources/trios/L4T2A3.jpg","39","restless",0.7,0.6,0.5,0.334038489269178,"true"
"image-keyboard-response",363,344560,"0.0-3.117-1.117","rhg6xwwvd29p6ec",217,"49.csv","","null","resources/maskTrios/BBA3.jpg","null","",NA,NA,NA,NA,""
"image-keyboard-response",364,345765,"0.0-3.117-2.117","rhg6xwwvd29p6ec",217,"49.csv","","null","resources/images/coin2.png","null","",NA,NA,NA,NA,""
"image-keyboard-response",365,346087,"0.0-3.118-0.118","rhg6xwwvd29p6ec",217,"49.csv","","321.2000000178814","resources/trios/L1T1A3.jpg","38","restless",0.7,0.6,0.4,0.578068319075863,"true"
"image-keyboard-response",366,346492,"0.0-3.118-1.118","rhg6xwwvd29p6ec",217,"49.csv","","null","resources/maskTrios/BT1B.jpg","null","",NA,NA,NA,NA,""
"image-keyboard-response",367,347698,"0.0-3.118-2.118","rhg6xwwvd29p6ec",217,"49.csv","","null","resources/images/coin2.png","null","",NA,NA,NA,NA,""
"image-keyboard-response",368,347985,"0.0-3.119-0.119","rhg6xwwvd29p6ec",217,"49.csv","","286.40000000596046","resources/trios/L1T2A2.jpg","39","restless",0.7,0.6,0.4,0.952528990110699,"false"
"image-keyboard-response",369,348388,"0.0-3.119-1.119","rhg6xwwvd29p6ec",217,"49.csv","","null","resources/maskTrios/BBA2.jpg","null","",NA,NA,NA,NA,""
"image-keyboard-response",370,349593,"0.0-3.119-2.119","rhg6xwwvd29p6ec",217,"49.csv","","null","resources/images/fishbone.png","null","",NA,NA,NA,NA,""
"image-keyboard-response",371,349874,"0.0-3.120-0.120","rhg6xwwvd29p6ec",217,"49.csv","","279.90000000596046","resources/trios/L4T1A3.jpg","38","restless",0.7,0.5,0.3,0.150290973299194,"true"
"image-keyboard-response",372,350275,"0.0-3.120-1.120","rhg6xwwvd29p6ec",217,"49.csv","","null","resources/maskTrios/BT1B.jpg","null","",NA,NA,NA,NA,""
"image-keyboard-response",373,351479,"0.0-3.120-2.120","rhg6xwwvd29p6ec",217,"49.csv","","null","resources/images/coin2.png","null","",NA,NA,NA,NA,""
"image-keyboard-response",374,351762,"0.0-3.121-0.121","rhg6xwwvd29p6ec",217,"49.csv","","281.80000001192093","resources/trios/L4T2A3.jpg","37","restless",0.7,0.5,0.3,0.122018056143688,"true"
"image-keyboard-response",375,352167,"0.0-3.121-1.121","rhg6xwwvd29p6ec",217,"49.csv","","null","resources/maskTrios/L4BB.jpg","null","",NA,NA,NA,NA,""
"image-keyboard-response",376,353372,"0.0-3.121-2.121","rhg6xwwvd29p6ec",217,"49.csv","","null","resources/images/coin2.png","null","",NA,NA,NA,NA,""
"image-keyboard-response",377,353651,"0.0-3.122-0.122","rhg6xwwvd29p6ec",217,"49.csv","","277","resources/trios/L4T1A2.jpg","38","restless",0.7,0.5,0.3,0.253012858621253,"true"
"image-keyboard-response",378,354051,"0.0-3.122-1.122","rhg6xwwvd29p6ec",217,"49.csv","","null","resources/maskTrios/BT1B.jpg","null","",NA,NA,NA,NA,""
"image-keyboard-response",379,355254,"0.0-3.122-2.122","rhg6xwwvd29p6ec",217,"49.csv","","null","resources/images/coin2.png","null","",NA,NA,NA,NA,""
"image-keyboard-response",380,355310,"0.0-3.123-0.123","rhg6xwwvd29p6ec",217,"49.csv","","54.29999998211861","resources/trios/L4T2A2.jpg","39","restless",0.7,0.5,0.3,0.989742400401664,"false"
"image-keyboard-response",381,355711,"0.0-3.123-1.123","rhg6xwwvd29p6ec",217,"49.csv","","null","resources/maskTrios/BBA2.jpg","null","",NA,NA,NA,NA,""
"image-keyboard-response",382,356915,"0.0-3.123-2.123","rhg6xwwvd29p6ec",217,"49.csv","","null","resources/images/fishbone.png","null","",NA,NA,NA,NA,""
"image-keyboard-response",383,357349,"0.0-3.124-0.124","rhg6xwwvd29p6ec",217,"49.csv","","432.40000000596046","resources/trios/L1T2A2.jpg","38","restless",0.7,0.5,0.3,0.0577492492540173,"true"
"image-keyboard-response",384,357751,"0.0-3.124-1.124","rhg6xwwvd29p6ec",217,"49.csv","","null","resources/maskTrios/BT2B.jpg","null","",NA,NA,NA,NA,""
"image-keyboard-response",385,358957,"0.0-3.124-2.124","rhg6xwwvd29p6ec",217,"49.csv","","null","resources/images/coin2.png","null","",NA,NA,NA,NA,""
"image-keyboard-response",386,359300,"0.0-3.125-0.125","rhg6xwwvd29p6ec",217,"49.csv","","342.59999999403954","resources/trios/L4T1A2.jpg","37","restless",0.6,0.4,0.3,0.0458812591344808,"true"
"image-keyboard-response",387,359704,"0.0-3.125-1.125","rhg6xwwvd29p6ec",217,"49.csv","","null","resources/maskTrios/L4BB.jpg","null","",NA,NA,NA,NA,""
"image-keyboard-response",388,360910,"0.0-3.125-2.125","rhg6xwwvd29p6ec",217,"49.csv","","null","resources/images/coin2.png","null","",NA,NA,NA,NA,""
"image-keyboard-response",389,361249,"0.0-3.126-0.126","rhg6xwwvd29p6ec",217,"49.csv","","338.30000001192093","resources/trios/L4T2A2.jpg","39","restless",0.6,0.4,0.3,0.116302696068956,"true"
"image-keyboard-response",390,361655,"0.0-3.126-1.126","rhg6xwwvd29p6ec",217,"49.csv","","null","resources/maskTrios/BBA2.jpg","null","",NA,NA,NA,NA,""
"image-keyboard-response",391,362860,"0.0-3.126-2.126","rhg6xwwvd29p6ec",217,"49.csv","","null","resources/images/coin2.png","null","",NA,NA,NA,NA,""
"image-keyboard-response",392,363138,"0.0-3.127-0.127","rhg6xwwvd29p6ec",217,"49.csv","","277.59999999403954","resources/trios/L1T1A2.jpg","39","restless",0.6,0.5,0.3,0.0684497917054818,"true"
"image-keyboard-response",393,363540,"0.0-3.127-1.127","rhg6xwwvd29p6ec",217,"49.csv","","null","resources/maskTrios/BBA2.jpg","null","",NA,NA,NA,NA,""
"image-keyboard-response",394,364742,"0.0-3.127-2.127","rhg6xwwvd29p6ec",217,"49.csv","","null","resources/images/coin2.png","null","",NA,NA,NA,NA,""
"image-keyboard-response",395,365046,"0.0-3.128-0.128","rhg6xwwvd29p6ec",217,"49.csv","","302.90000000596046","resources/trios/L4T2A3.jpg","37","restless",0.6,0.5,0.3,0.596695435312046,"true"
"image-keyboard-response",396,365448,"0.0-3.128-1.128","rhg6xwwvd29p6ec",217,"49.csv","","null","resources/maskTrios/L4BB.jpg","null","",NA,NA,NA,NA,""
"image-keyboard-response",397,366649,"0.0-3.128-2.128","rhg6xwwvd29p6ec",217,"49.csv","","null","resources/images/coin2.png","null","",NA,NA,NA,NA,""
"image-keyboard-response",398,366960,"0.0-3.129-0.129","rhg6xwwvd29p6ec",217,"49.csv","","309.7000000178814","resources/trios/L4T2A3.jpg","38","restless",0.6,0.5,0.3,0.088529837200785,"true"
"image-keyboard-response",399,367362,"0.0-3.129-1.129","rhg6xwwvd29p6ec",217,"49.csv","","null","resources/maskTrios/BT2B.jpg","null","",NA,NA,NA,NA,""
"image-keyboard-response",400,368567,"0.0-3.129-2.129","rhg6xwwvd29p6ec",217,"49.csv","","null","resources/images/coin2.png","null","",NA,NA,NA,NA,""
"image-keyboard-response",401,368883,"0.0-3.130-0.130","rhg6xwwvd29p6ec",217,"49.csv","","315.7000000178814","resources/trios/L4T1A2.jpg","39","restless",0.6,0.5,0.3,0.40293461125151,"false"
"image-keyboard-response",402,369287,"0.0-3.130-1.130","rhg6xwwvd29p6ec",217,"49.csv","","null","resources/maskTrios/BBA2.jpg","null","",NA,NA,NA,NA,""
"image-keyboard-response",403,370491,"0.0-3.130-2.130","rhg6xwwvd29p6ec",217,"49.csv","","null","resources/images/fishbone.png","null","",NA,NA,NA,NA,""
"image-keyboard-response",404,370545,"0.0-3.131-0.131","rhg6xwwvd29p6ec",217,"49.csv","","53.099999994039536","resources/trios/L1T1A3.jpg","37","restless",0.7,0.5,0.2,0.822123993237301,"false"
"image-keyboard-response",405,370949,"0.0-3.131-1.131","rhg6xwwvd29p6ec",217,"49.csv","","null","resources/maskTrios/L1BB.jpg","null","",NA,NA,NA,NA,""
"image-keyboard-response",406,372151,"0.0-3.131-2.131","rhg6xwwvd29p6ec",217,"49.csv","","null","resources/images/fishbone.png","null","",NA,NA,NA,NA,""
"image-keyboard-response",407,372362,"0.0-3.132-0.132","rhg6xwwvd29p6ec",217,"49.csv","","210.09999999403954","resources/trios/L1T2A3.jpg","38","restless",0.7,0.5,0.2,0.653102210059117,"false"
"image-keyboard-response",408,372765,"0.0-3.132-1.132","rhg6xwwvd29p6ec",217,"49.csv","","null","resources/maskTrios/BT2B.jpg","null","",NA,NA,NA,NA,""
"image-keyboard-response",409,373966,"0.0-3.132-2.132","rhg6xwwvd29p6ec",217,"49.csv","","null","resources/images/fishbone.png","null","",NA,NA,NA,NA,""
"image-keyboard-response",410,374471,"0.0-3.133-0.133","rhg6xwwvd29p6ec",217,"49.csv","","503.5","resources/trios/L4T1A3.jpg","39","restless",0.8,0.5,0.2,0.634267541901124,"false"
"image-keyboard-response",411,374875,"0.0-3.133-1.133","rhg6xwwvd29p6ec",217,"49.csv","","null","resources/maskTrios/BBA3.jpg","null","",NA,NA,NA,NA,""
"image-keyboard-response",412,376078,"0.0-3.133-2.133","rhg6xwwvd29p6ec",217,"49.csv","","null","resources/images/fishbone.png","null","",NA,NA,NA,NA,""
"image-keyboard-response",413,376445,"0.0-3.134-0.134","rhg6xwwvd29p6ec",217,"49.csv","","365.40000000596046","resources/trios/L1T2A2.jpg","37","restless",0.8,0.5,0.2,0.00202924404497962,"true"
"image-keyboard-response",414,376849,"0.0-3.134-1.134","rhg6xwwvd29p6ec",217,"49.csv","","null","resources/maskTrios/L1BB.jpg","null","",NA,NA,NA,NA,""
"image-keyboard-response",415,378054,"0.0-3.134-2.134","rhg6xwwvd29p6ec",217,"49.csv","","null","resources/images/coin2.png","null","",NA,NA,NA,NA,""
"image-keyboard-response",416,378573,"0.0-3.135-0.135","rhg6xwwvd29p6ec",217,"49.csv","","519","resources/trios/L1T1A3.jpg","37","restless",0.8,0.5,0.2,0.898816074377782,"false"
"image-keyboard-response",417,378979,"0.0-3.135-1.135","rhg6xwwvd29p6ec",217,"49.csv","","null","resources/maskTrios/L1BB.jpg","null","",NA,NA,NA,NA,""
"image-keyboard-response",418,380181,"0.0-3.135-2.135","rhg6xwwvd29p6ec",217,"49.csv","","null","resources/images/fishbone.png","null","",NA,NA,NA,NA,""
"image-keyboard-response",419,380526,"0.0-3.136-0.136","rhg6xwwvd29p6ec",217,"49.csv","","344.40000000596046","resources/trios/L4T2A3.jpg","38","restless",0.8,0.5,0.2,0.424716356798518,"true"
"image-keyboard-response",420,380928,"0.0-3.136-1.136","rhg6xwwvd29p6ec",217,"49.csv","","null","resources/maskTrios/BT2B.jpg","null","",NA,NA,NA,NA,""
"image-keyboard-response",421,382131,"0.0-3.136-2.136","rhg6xwwvd29p6ec",217,"49.csv","","null","resources/images/coin2.png","null","",NA,NA,NA,NA,""
"image-keyboard-response",422,382479,"0.0-3.137-0.137","rhg6xwwvd29p6ec",217,"49.csv","","347.69999998807907","resources/trios/L1T2A3.jpg","39","restless",0.9,0.5,0.2,0.0712938783715136,"true"
"image-keyboard-response",423,382881,"0.0-3.137-1.137","rhg6xwwvd29p6ec",217,"49.csv","","null","resources/maskTrios/BBA3.jpg","null","",NA,NA,NA,NA,""
"image-keyboard-response",424,384082,"0.0-3.137-2.137","rhg6xwwvd29p6ec",217,"49.csv","","null","resources/images/coin2.png","null","",NA,NA,NA,NA,""
"image-keyboard-response",425,384467,"0.0-3.138-0.138","rhg6xwwvd29p6ec",217,"49.csv","","383.5","resources/trios/L4T1A2.jpg","38","restless",0.9,0.5,0.2,0.769619848680817,"false"
"image-keyboard-response",426,384871,"0.0-3.138-1.138","rhg6xwwvd29p6ec",217,"49.csv","","null","resources/maskTrios/BT1B.jpg","null","",NA,NA,NA,NA,""
"image-keyboard-response",427,386073,"0.0-3.138-2.138","rhg6xwwvd29p6ec",217,"49.csv","","null","resources/images/fishbone.png","null","",NA,NA,NA,NA,""
"image-keyboard-response",428,386404,"0.0-3.139-0.139","rhg6xwwvd29p6ec",217,"49.csv","","329.09999999403954","resources/trios/L4T2A3.jpg","37","restless",0.8,0.5,0.2,0.114056272274617,"true"
"image-keyboard-response",429,386808,"0.0-3.139-1.139","rhg6xwwvd29p6ec",217,"49.csv","","null","resources/maskTrios/L4BB.jpg","null","",NA,NA,NA,NA,""
"image-keyboard-response",430,388010,"0.0-3.139-2.139","rhg6xwwvd29p6ec",217,"49.csv","","null","resources/images/coin2.png","null","",NA,NA,NA,NA,""
"image-keyboard-response",431,388463,"0.0-3.140-0.140","rhg6xwwvd29p6ec",217,"49.csv","","452.7000000178814","resources/trios/L1T1A3.jpg","38","restless",0.8,0.5,0.2,0.925016718505479,"false"
"image-keyboard-response",432,388865,"0.0-3.140-1.140","rhg6xwwvd29p6ec",217,"49.csv","","null","resources/maskTrios/BT1B.jpg","null","",NA,NA,NA,NA,""
"image-keyboard-response",433,390069,"0.0-3.140-2.140","rhg6xwwvd29p6ec",217,"49.csv","","null","resources/images/fishbone.png","null","",NA,NA,NA,NA,""
"image-keyboard-response",434,390577,"0.0-3.141-0.141","rhg6xwwvd29p6ec",217,"49.csv","","506.80000001192093","resources/trios/L1T2A3.jpg","39","restless",0.8,0.5,0.3,0.833155297026271,"false"
"image-keyboard-response",435,390982,"0.0-3.141-1.141","rhg6xwwvd29p6ec",217,"49.csv","","null","resources/maskTrios/BBA3.jpg","null","",NA,NA,NA,NA,""
"image-keyboard-response",436,392188,"0.0-3.141-2.141","rhg6xwwvd29p6ec",217,"49.csv","","null","resources/images/fishbone.png","null","",NA,NA,NA,NA,""
"image-keyboard-response",437,392467,"0.0-3.142-0.142","rhg6xwwvd29p6ec",217,"49.csv","","278.5","resources/trios/L4T1A3.jpg","37","restless",0.8,0.5,0.3,0.483029172002413,"true"
"image-keyboard-response",438,392870,"0.0-3.142-1.142","rhg6xwwvd29p6ec",217,"49.csv","","null","resources/maskTrios/L4BB.jpg","null","",NA,NA,NA,NA,""
"image-keyboard-response",439,394071,"0.0-3.142-2.142","rhg6xwwvd29p6ec",217,"49.csv","","null","resources/images/coin2.png","null","",NA,NA,NA,NA,""
"image-keyboard-response",440,394236,"0.0-3.143-0.143","rhg6xwwvd29p6ec",217,"49.csv","","163.90000000596046","resources/trios/L4T2A3.jpg","38","restless",0.8,0.5,0.3,0.515317254298673,"false"
"image-keyboard-response",441,394641,"0.0-3.143-1.143","rhg6xwwvd29p6ec",217,"49.csv","","null","resources/maskTrios/BT2B.jpg","null","",NA,NA,NA,NA,""
"image-keyboard-response",442,395847,"0.0-3.143-2.143","rhg6xwwvd29p6ec",217,"49.csv","","null","resources/images/fishbone.png","null","",NA,NA,NA,NA,""
"image-keyboard-response",443,395877,"0.0-3.144-0.144","rhg6xwwvd29p6ec",217,"49.csv","","28.799999982118607","resources/trios/L1T2A2.jpg","39","restless",0.8,0.5,0.3,0.125462601106602,"true"
"image-keyboard-response",444,396281,"0.0-3.144-1.144","rhg6xwwvd29p6ec",217,"49.csv","","null","resources/maskTrios/BBA2.jpg","null","",NA,NA,NA,NA,""
"image-keyboard-response",445,397485,"0.0-3.144-2.144","rhg6xwwvd29p6ec",217,"49.csv","","null","resources/images/coin2.png","null","",NA,NA,NA,NA,""
"image-keyboard-response",446,397813,"0.0-3.145-0.145","rhg6xwwvd29p6ec",217,"49.csv","","326.39999997615814","resources/trios/L1T1A3.jpg","39","restless",0.9,0.5,0.3,0.732244227458665,"false"
"image-keyboard-response",447,398218,"0.0-3.145-1.145","rhg6xwwvd29p6ec",217,"49.csv","","null","resources/maskTrios/BBA3.jpg","null","",NA,NA,NA,NA,""
"image-keyboard-response",448,399424,"0.0-3.145-2.145","rhg6xwwvd29p6ec",217,"49.csv","","null","resources/images/fishbone.png","null","",NA,NA,NA,NA,""
"image-keyboard-response",449,399718,"0.0-3.146-0.146","rhg6xwwvd29p6ec",217,"49.csv","","291.90000000596046","resources/trios/L4T1A2.jpg","38","restless",0.9,0.4,0.3,0.376642721580375,"true"
"image-keyboard-response",450,400119,"0.0-3.146-1.146","rhg6xwwvd29p6ec",217,"49.csv","","null","resources/maskTrios/BT1B.jpg","null","",NA,NA,NA,NA,""
"image-keyboard-response",451,401322,"0.0-3.146-2.146","rhg6xwwvd29p6ec",217,"49.csv","","null","resources/images/coin2.png","null","",NA,NA,NA,NA,""
"image-keyboard-response",452,401606,"0.0-3.147-0.147","rhg6xwwvd29p6ec",217,"49.csv","","283.09999999403954","resources/trios/L4T2A2.jpg","37","restless",0.9,0.3,0.3,0.188783873911836,"true"
"image-keyboard-response",453,402009,"0.0-3.147-1.147","rhg6xwwvd29p6ec",217,"49.csv","","null","resources/maskTrios/L4BB.jpg","null","",NA,NA,NA,NA,""
"image-keyboard-response",454,403210,"0.0-3.147-2.147","rhg6xwwvd29p6ec",217,"49.csv","","null","resources/images/coin2.png","null","",NA,NA,NA,NA,""
"image-keyboard-response",455,403576,"0.0-3.148-0.148","rhg6xwwvd29p6ec",217,"49.csv","","364.5","resources/trios/L4T1A3.jpg","38","restless",0.9,0.3,0.3,0.0970474393077967,"true"
"image-keyboard-response",456,403980,"0.0-3.148-1.148","rhg6xwwvd29p6ec",217,"49.csv","","null","resources/maskTrios/BT1B.jpg","null","",NA,NA,NA,NA,""
"image-keyboard-response",457,405181,"0.0-3.148-2.148","rhg6xwwvd29p6ec",217,"49.csv","","null","resources/images/coin2.png","null","",NA,NA,NA,NA,""
"image-keyboard-response",458,405750,"0.0-3.149-0.149","rhg6xwwvd29p6ec",217,"49.csv","","567.5","resources/trios/L1T2A3.jpg","38","restless",0.9,0.3,0.3,0.232706455828176,"true"
"image-keyboard-response",459,406154,"0.0-3.149-1.149","rhg6xwwvd29p6ec",217,"49.csv","","null","resources/maskTrios/BT2B.jpg","null","",NA,NA,NA,NA,""
"image-keyboard-response",460,407356,"0.0-3.149-2.149","rhg6xwwvd29p6ec",217,"49.csv","","null","resources/images/coin2.png","null","",NA,NA,NA,NA,""
"image-keyboard-response",461,407662,"0.0-3.150-0.150","rhg6xwwvd29p6ec",217,"49.csv","","305.09999999403954","resources/trios/L4T2A2.jpg","39","restless",0.9,0.3,0.3,0.573341251654096,"false"
"image-keyboard-response",462,408066,"0.0-3.150-1.150","rhg6xwwvd29p6ec",217,"49.csv","","null","resources/maskTrios/BBA2.jpg","null","",NA,NA,NA,NA,""
"image-keyboard-response",463,409271,"0.0-3.150-2.150","rhg6xwwvd29p6ec",217,"49.csv","","null","resources/images/fishbone.png","null","",NA,NA,NA,NA,""
"image-keyboard-response",464,409801,"0.0-3.151-0.151","rhg6xwwvd29p6ec",217,"49.csv","","528.5999999940395","resources/trios/L1T1A3.jpg","37","restless",0.9,0.3,0.3,0.315011809605797,"true"
"image-keyboard-response",465,410203,"0.0-3.151-1.151","rhg6xwwvd29p6ec",217,"49.csv","","null","resources/maskTrios/L1BB.jpg","null","",NA,NA,NA,NA,""
"image-keyboard-response",466,411408,"0.0-3.151-2.151","rhg6xwwvd29p6ec",217,"49.csv","","null","resources/images/coin2.png","null","",NA,NA,NA,NA,""
"image-keyboard-response",467,411672,"0.0-3.152-0.152","rhg6xwwvd29p6ec",217,"49.csv","","262.40000000596046","resources/trios/L1T2A2.jpg","37","restless",0.9,0.3,0.3,0.799445836060403,"true"
"image-keyboard-response",468,412078,"0.0-3.152-1.152","rhg6xwwvd29p6ec",217,"49.csv","","null","resources/maskTrios/L1BB.jpg","null","",NA,NA,NA,NA,""
"image-keyboard-response",469,413282,"0.0-3.152-2.152","rhg6xwwvd29p6ec",217,"49.csv","","null","resources/images/coin2.png","null","",NA,NA,NA,NA,""
"image-keyboard-response",470,413688,"0.0-3.153-0.153","rhg6xwwvd29p6ec",217,"49.csv","","405.2000000178814","resources/trios/L1T1A3.jpg","37","restless",0.9,0.3,0.3,0.895161439173279,"true"
"image-keyboard-response",471,414089,"0.0-3.153-1.153","rhg6xwwvd29p6ec",217,"49.csv","","null","resources/maskTrios/L1BB.jpg","null","",NA,NA,NA,NA,""
"image-keyboard-response",472,415292,"0.0-3.153-2.153","rhg6xwwvd29p6ec",217,"49.csv","","null","resources/images/coin2.png","null","",NA,NA,NA,NA,""
"image-keyboard-response",473,415624,"0.0-3.154-0.154","rhg6xwwvd29p6ec",217,"49.csv","","330.40000000596046","resources/trios/L1T1A3.jpg","38","restless",0.8,0.3,0.3,0.153147770651664,"true"
"image-keyboard-response",474,416027,"0.0-3.154-1.154","rhg6xwwvd29p6ec",217,"49.csv","","null","resources/maskTrios/BT1B.jpg","null","",NA,NA,NA,NA,""
"image-keyboard-response",475,417228,"0.0-3.154-2.154","rhg6xwwvd29p6ec",217,"49.csv","","null","resources/images/coin2.png","null","",NA,NA,NA,NA,""
"image-keyboard-response",476,417557,"0.0-3.155-0.155","rhg6xwwvd29p6ec",217,"49.csv","","328.10000002384186","resources/trios/L4T2A2.jpg","39","restless",0.8,0.3,0.3,0.16776915814206,"true"
"image-keyboard-response",477,417962,"0.0-3.155-1.155","rhg6xwwvd29p6ec",217,"49.csv","","null","resources/maskTrios/BBA2.jpg","null","",NA,NA,NA,NA,""
"image-keyboard-response",478,419164,"0.0-3.155-2.155","rhg6xwwvd29p6ec",217,"49.csv","","null","resources/images/coin2.png","null","",NA,NA,NA,NA,""
"image-keyboard-response",479,419510,"0.0-3.156-0.156","rhg6xwwvd29p6ec",217,"49.csv","","344.2000000178814","resources/trios/L4T1A2.jpg","39","restless",0.7,0.3,0.3,0.946426536327177,"false"
"image-keyboard-response",480,419912,"0.0-3.156-1.156","rhg6xwwvd29p6ec",217,"49.csv","","null","resources/maskTrios/BBA2.jpg","null","",NA,NA,NA,NA,""
"image-keyboard-response",481,421116,"0.0-3.156-2.156","rhg6xwwvd29p6ec",217,"49.csv","","null","resources/images/fishbone.png","null","",NA,NA,NA,NA,""
"image-keyboard-response",482,421668,"0.0-3.157-0.157","rhg6xwwvd29p6ec",217,"49.csv","","551.6000000238419","resources/trios/L4T2A3.jpg","38","restless",0.7,0.3,0.3,0.864587984276367,"false"
"image-keyboard-response",483,422071,"0.0-3.157-1.157","rhg6xwwvd29p6ec",217,"49.csv","","null","resources/maskTrios/BT2B.jpg","null","",NA,NA,NA,NA,""
"image-keyboard-response",484,423273,"0.0-3.157-2.157","rhg6xwwvd29p6ec",217,"49.csv","","null","resources/images/fishbone.png","null","",NA,NA,NA,NA,""
"image-keyboard-response",485,423744,"0.0-3.158-0.158","rhg6xwwvd29p6ec",217,"49.csv","","471","resources/trios/L1T2A2.jpg","37","restless",0.7,0.3,0.3,0.668074881669927,"true"
"image-keyboard-response",486,424150,"0.0-3.158-1.158","rhg6xwwvd29p6ec",217,"49.csv","","null","resources/maskTrios/L1BB.jpg","null","",NA,NA,NA,NA,""
"image-keyboard-response",487,425351,"0.0-3.158-2.158","rhg6xwwvd29p6ec",217,"49.csv","","null","resources/images/coin2.png","null","",NA,NA,NA,NA,""
"image-keyboard-response",488,425805,"0.0-3.159-0.159","rhg6xwwvd29p6ec",217,"49.csv","","452.2999999821186","resources/trios/L1T1A3.jpg","37","restless",0.7,0.3,0.3,0.0963629415187486,"true"
"image-keyboard-response",489,426206,"0.0-3.159-1.159","rhg6xwwvd29p6ec",217,"49.csv","","null","resources/maskTrios/L1BB.jpg","null","",NA,NA,NA,NA,""
"image-keyboard-response",490,427410,"0.0-3.159-2.159","rhg6xwwvd29p6ec",217,"49.csv","","null","resources/images/coin2.png","null","",NA,NA,NA,NA,""
"image-keyboard-response",491,427772,"0.0-3.160-0.160","rhg6xwwvd29p6ec",217,"49.csv","","361","resources/trios/L1T1A2.jpg","38","restless",0.7,0.3,0.3,0.293900746402826,"true"
"image-keyboard-response",492,428178,"0.0-3.160-1.160","rhg6xwwvd29p6ec",217,"49.csv","","null","resources/maskTrios/BT1B.jpg","null","",NA,NA,NA,NA,""
"image-keyboard-response",493,429382,"0.0-3.160-2.160","rhg6xwwvd29p6ec",217,"49.csv","","null","resources/images/coin2.png","null","",NA,NA,NA,NA,""
"image-keyboard-response",494,429694,"0.0-3.161-0.161","rhg6xwwvd29p6ec",217,"49.csv","","310.69999998807907","resources/trios/L4T1A2.jpg","39","restless",0.7,0.3,0.4,0.966432017103358,"false"
"image-keyboard-response",495,430097,"0.0-3.161-1.161","rhg6xwwvd29p6ec",217,"49.csv","","null","resources/maskTrios/BBA2.jpg","null","",NA,NA,NA,NA,""
"image-keyboard-response",496,431302,"0.0-3.161-2.161","rhg6xwwvd29p6ec",217,"49.csv","","null","resources/images/fishbone.png","null","",NA,NA,NA,NA,""
"image-keyboard-response",497,431613,"0.0-3.162-0.162","rhg6xwwvd29p6ec",217,"49.csv","","309.90000000596046","resources/trios/L4T1A3.jpg","37","restless",0.7,0.3,0.4,0.565816364906195,"true"
"image-keyboard-response",498,432017,"0.0-3.162-1.162","rhg6xwwvd29p6ec",217,"49.csv","","null","resources/maskTrios/L4BB.jpg","null","",NA,NA,NA,NA,""
"image-keyboard-response",499,433219,"0.0-3.162-2.162","rhg6xwwvd29p6ec",217,"49.csv","","null","resources/images/coin2.png","null","",NA,NA,NA,NA,""
"image-keyboard-response",500,433755,"0.0-3.163-0.163","rhg6xwwvd29p6ec",217,"49.csv","","534.5","resources/trios/L4T2A2.jpg","38","restless",0.7,0.3,0.4,0.901084278033396,"false"
"image-keyboard-response",501,434157,"0.0-3.163-1.163","rhg6xwwvd29p6ec",217,"49.csv","","null","resources/maskTrios/BT2B.jpg","null","",NA,NA,NA,NA,""
"image-keyboard-response",502,435361,"0.0-3.163-2.163","rhg6xwwvd29p6ec",217,"49.csv","","null","resources/images/fishbone.png","null","",NA,NA,NA,NA,""
"image-keyboard-response",503,435730,"0.0-3.164-0.164","rhg6xwwvd29p6ec",217,"49.csv","","367.60000002384186","resources/trios/L1T2A2.jpg","37","restless",0.7,0.4,0.4,0.830804830267331,"false"
"image-keyboard-response",504,436131,"0.0-3.164-1.164","rhg6xwwvd29p6ec",217,"49.csv","","null","resources/maskTrios/L1BB.jpg","null","",NA,NA,NA,NA,""
"image-keyboard-response",505,437334,"0.0-3.164-2.164","rhg6xwwvd29p6ec",217,"49.csv","","null","resources/images/fishbone.png","null","",NA,NA,NA,NA,""
"image-keyboard-response",506,437663,"0.0-3.165-0.165","rhg6xwwvd29p6ec",217,"49.csv","","328.30000001192093","resources/trios/L4T1A3.jpg","39","restless",0.6,0.4,0.4,0.856347894794886,"false"
"image-keyboard-response",507,438068,"0.0-3.165-1.165","rhg6xwwvd29p6ec",217,"49.csv","","null","resources/maskTrios/BBA3.jpg","null","",NA,NA,NA,NA,""
"image-keyboard-response",508,439274,"0.0-3.165-2.165","rhg6xwwvd29p6ec",217,"49.csv","","null","resources/images/fishbone.png","null","",NA,NA,NA,NA,""
"image-keyboard-response",509,439403,"0.0-3.166-0.166","rhg6xwwvd29p6ec",217,"49.csv","","128","resources/trios/L4T2A3.jpg","38","restless",0.7,0.4,0.4,0.56625543370033,"false"
"image-keyboard-response",510,439808,"0.0-3.166-1.166","rhg6xwwvd29p6ec",217,"49.csv","","null","resources/maskTrios/BT2B.jpg","null","",NA,NA,NA,NA,""
"image-keyboard-response",511,441014,"0.0-3.166-2.166","rhg6xwwvd29p6ec",217,"49.csv","","null","resources/images/fishbone.png","null","",NA,NA,NA,NA,""
"image-keyboard-response",512,441874,"0.0-3.167-0.167","rhg6xwwvd29p6ec",217,"49.csv","","858.8000000119209","resources/trios/L1T2A3.jpg","39","restless",0.7,0.4,0.4,0.919341970006877,"false"
"image-keyboard-response",513,442278,"0.0-3.167-1.167","rhg6xwwvd29p6ec",217,"49.csv","","null","resources/maskTrios/BBA3.jpg","null","",NA,NA,NA,NA,""
"image-keyboard-response",514,443480,"0.0-3.167-2.167","rhg6xwwvd29p6ec",217,"49.csv","","null","resources/images/fishbone.png","null","",NA,NA,NA,NA,""
"image-keyboard-response",515,444192,"0.0-3.168-0.168","rhg6xwwvd29p6ec",217,"49.csv","","710.8000000119209","resources/trios/L4T2A3.jpg","37","restless",0.7,0.4,0.4,0.878879618400261,"false"
"image-keyboard-response",516,444597,"0.0-3.168-1.168","rhg6xwwvd29p6ec",217,"49.csv","","null","resources/maskTrios/L4BB.jpg","null","",NA,NA,NA,NA,""
"image-keyboard-response",517,445801,"0.0-3.168-2.168","rhg6xwwvd29p6ec",217,"49.csv","","null","resources/images/fishbone.png","null","",NA,NA,NA,NA,""
"image-keyboard-response",518,446141,"0.0-3.169-0.169","rhg6xwwvd29p6ec",217,"49.csv","","339.5","resources/trios/L4T2A2.jpg","38","restless",0.7,0.4,0.4,0.382306474658772,"true"
"image-keyboard-response",519,446547,"0.0-3.169-1.169","rhg6xwwvd29p6ec",217,"49.csv","","null","resources/maskTrios/BT2B.jpg","null","",NA,NA,NA,NA,""
"image-keyboard-response",520,447752,"0.0-3.169-2.169","rhg6xwwvd29p6ec",217,"49.csv","","null","resources/images/coin2.png","null","",NA,NA,NA,NA,""
"image-keyboard-response",521,448183,"0.0-3.170-0.170","rhg6xwwvd29p6ec",217,"49.csv","","429.09999999403954","resources/trios/L1T1A3.jpg","38","restless",0.7,0.5,0.4,0.989398814161228,"false"
"image-keyboard-response",522,448588,"0.0-3.170-1.170","rhg6xwwvd29p6ec",217,"49.csv","","null","resources/maskTrios/BT1B.jpg","null","",NA,NA,NA,NA,""
"image-keyboard-response",523,449790,"0.0-3.170-2.170","rhg6xwwvd29p6ec",217,"49.csv","","null","resources/images/fishbone.png","null","",NA,NA,NA,NA,""
"image-keyboard-response",524,449792,"0.0-3.171-0.171","rhg6xwwvd29p6ec",217,"49.csv","","0.800000011920929","resources/trios/L1T2A3.jpg","39","restless",0.7,0.5,0.4,0.129768461455863,"true"
"image-keyboard-response",525,450197,"0.0-3.171-1.171","rhg6xwwvd29p6ec",217,"49.csv","","null","resources/maskTrios/BBA3.jpg","null","",NA,NA,NA,NA,""
"image-keyboard-response",526,451401,"0.0-3.171-2.171","rhg6xwwvd29p6ec",217,"49.csv","","null","resources/images/coin2.png","null","",NA,NA,NA,NA,""
"image-keyboard-response",527,451706,"0.0-3.172-0.172","rhg6xwwvd29p6ec",217,"49.csv","","304.2000000178814","resources/trios/L4T2A3.jpg","37","restless",0.7,0.5,0.3,0.292035926017445,"true"
"image-keyboard-response",528,452111,"0.0-3.172-1.172","rhg6xwwvd29p6ec",217,"49.csv","","null","resources/maskTrios/L4BB.jpg","null","",NA,NA,NA,NA,""
"image-keyboard-response",529,453317,"0.0-3.172-2.172","rhg6xwwvd29p6ec",217,"49.csv","","null","resources/images/coin2.png","null","",NA,NA,NA,NA,""
"image-keyboard-response",530,453644,"0.0-3.173-0.173","rhg6xwwvd29p6ec",217,"49.csv","","325.40000000596046","resources/trios/L4T1A3.jpg","37","restless",0.7,0.5,0.3,0.810776394312049,"false"
"image-keyboard-response",531,454047,"0.0-3.173-1.173","rhg6xwwvd29p6ec",217,"49.csv","","null","resources/maskTrios/L4BB.jpg","null","",NA,NA,NA,NA,""
"image-keyboard-response",532,455250,"0.0-3.173-2.173","rhg6xwwvd29p6ec",217,"49.csv","","null","resources/images/fishbone.png","null","",NA,NA,NA,NA,""
"image-keyboard-response",533,455405,"0.0-3.174-0.174","rhg6xwwvd29p6ec",217,"49.csv","","153.90000000596046","resources/trios/L4T1A3.jpg","39","restless",0.7,0.5,0.3,0.618759586615412,"false"
"image-keyboard-response",534,455808,"0.0-3.174-1.174","rhg6xwwvd29p6ec",217,"49.csv","","null","resources/maskTrios/BBA3.jpg","null","",NA,NA,NA,NA,""
"image-keyboard-response",535,457010,"0.0-3.174-2.174","rhg6xwwvd29p6ec",217,"49.csv","","null","resources/images/fishbone.png","null","",NA,NA,NA,NA,""
"image-keyboard-response",536,457474,"0.0-3.175-0.175","rhg6xwwvd29p6ec",217,"49.csv","","463.59999999403954","resources/trios/L1T2A2.jpg","38","restless",0.7,0.5,0.3,0.6622633998263,"false"
"image-keyboard-response",537,457876,"0.0-3.175-1.175","rhg6xwwvd29p6ec",217,"49.csv","","null","resources/maskTrios/BT2B.jpg","null","",NA,NA,NA,NA,""
"image-keyboard-response",538,459080,"0.0-3.175-2.175","rhg6xwwvd29p6ec",217,"49.csv","","null","resources/images/fishbone.png","null","",NA,NA,NA,NA,""
"image-keyboard-response",539,459382,"0.0-3.176-0.176","rhg6xwwvd29p6ec",217,"49.csv","","301.39999997615814","resources/trios/L1T2A2.jpg","37","restless",0.7,0.5,0.3,0.891835502471243,"false"
"image-keyboard-response",540,459787,"0.0-3.176-1.176","rhg6xwwvd29p6ec",217,"49.csv","","null","resources/maskTrios/L1BB.jpg","null","",NA,NA,NA,NA,""
"image-keyboard-response",541,460990,"0.0-3.176-2.176","rhg6xwwvd29p6ec",217,"49.csv","","null","resources/images/fishbone.png","null","",NA,NA,NA,NA,""
"image-keyboard-response",542,461292,"0.0-3.177-0.177","rhg6xwwvd29p6ec",217,"49.csv","","300.7999999821186","resources/trios/L4T1A2.jpg","39","restless",0.7,0.5,0.3,0.110160001260384,"true"
"image-keyboard-response",543,461693,"0.0-3.177-1.177","rhg6xwwvd29p6ec",217,"49.csv","","null","resources/maskTrios/BBA2.jpg","null","",NA,NA,NA,NA,""
"image-keyboard-response",544,462896,"0.0-3.177-2.177","rhg6xwwvd29p6ec",217,"49.csv","","null","resources/images/coin2.png","null","",NA,NA,NA,NA,""
"image-keyboard-response",545,463281,"0.0-3.178-0.178","rhg6xwwvd29p6ec",217,"49.csv","","384.30000001192093","resources/trios/L4T2A2.jpg","39","restless",0.7,0.6,0.3,0.932567152524356,"false"
"image-keyboard-response",546,463685,"0.0-3.178-1.178","rhg6xwwvd29p6ec",217,"49.csv","","null","resources/maskTrios/BBA2.jpg","null","",NA,NA,NA,NA,""
"image-keyboard-response",547,464887,"0.0-3.178-2.178","rhg6xwwvd29p6ec",217,"49.csv","","null","resources/images/fishbone.png","null","",NA,NA,NA,NA,""
"image-keyboard-response",548,465232,"0.0-3.179-0.179","rhg6xwwvd29p6ec",217,"49.csv","","343.5","resources/trios/L4T2A2.jpg","39","restless",0.7,0.6,0.3,0.362404354624358,"false"
"image-keyboard-response",549,465636,"0.0-3.179-1.179","rhg6xwwvd29p6ec",217,"49.csv","","null","resources/maskTrios/BBA2.jpg","null","",NA,NA,NA,NA,""
"image-keyboard-response",550,466841,"0.0-3.179-2.179","rhg6xwwvd29p6ec",217,"49.csv","","null","resources/images/fishbone.png","null","",NA,NA,NA,NA,""
"image-keyboard-response",551,467047,"0.0-3.180-0.180","rhg6xwwvd29p6ec",217,"49.csv","","205","resources/trios/L1T1A2.jpg","37","restless",0.7,0.6,0.2,0.433018276818648,"true"
"image-keyboard-response",552,467448,"0.0-3.180-1.180","rhg6xwwvd29p6ec",217,"49.csv","","null","resources/maskTrios/L1BB.jpg","null","",NA,NA,NA,NA,""
"image-keyboard-response",553,468650,"0.0-3.180-2.180","rhg6xwwvd29p6ec",217,"49.csv","","null","resources/images/coin2.png","null","",NA,NA,NA,NA,""
"image-keyboard-response",554,468933,"0.0-3.181-0.181","rhg6xwwvd29p6ec",217,"49.csv","","282.5","resources/trios/L1T2A3.jpg","38","restless",0.7,0.6,0.2,0.639821393830154,"false"
"image-keyboard-response",555,469336,"0.0-3.181-1.181","rhg6xwwvd29p6ec",217,"49.csv","","null","resources/maskTrios/BT2B.jpg","null","",NA,NA,NA,NA,""
"image-keyboard-response",556,470538,"0.0-3.181-2.181","rhg6xwwvd29p6ec",217,"49.csv","","null","resources/images/fishbone.png","null","",NA,NA,NA,NA,""
"image-keyboard-response",557,471135,"0.0-3.182-0.182","rhg6xwwvd29p6ec",217,"49.csv","","596.0999999940395","resources/trios/L4T2A3.jpg","37","restless",0.7,0.6,0.2,0.794227118122862,"false"
"image-keyboard-response",558,471541,"0.0-3.182-1.182","rhg6xwwvd29p6ec",217,"49.csv","","null","resources/maskTrios/L4BB.jpg","null","",NA,NA,NA,NA,""
"image-keyboard-response",559,472746,"0.0-3.182-2.182","rhg6xwwvd29p6ec",217,"49.csv","","null","resources/images/fishbone.png","null","",NA,NA,NA,NA,""
"image-keyboard-response",560,473268,"0.0-3.183-0.183","rhg6xwwvd29p6ec",217,"49.csv","","521.0999999940395","resources/trios/L4T2A3.jpg","39","restless",0.7,0.5,0.2,0.1517656324744,"true"
"image-keyboard-response",561,473673,"0.0-3.183-1.183","rhg6xwwvd29p6ec",217,"49.csv","","null","resources/maskTrios/BBA3.jpg","null","",NA,NA,NA,NA,""
"image-keyboard-response",562,474879,"0.0-3.183-2.183","rhg6xwwvd29p6ec",217,"49.csv","","null","resources/images/coin2.png","null","",NA,NA,NA,NA,""
"image-keyboard-response",563,475239,"0.0-3.184-0.184","rhg6xwwvd29p6ec",217,"49.csv","","359","resources/trios/L4T2A3.jpg","38","restless",0.7,0.5,0.2,0.575151465618095,"false"
"image-keyboard-response",564,475645,"0.0-3.184-1.184","rhg6xwwvd29p6ec",217,"49.csv","","null","resources/maskTrios/BT2B.jpg","null","",NA,NA,NA,NA,""
"image-keyboard-response",565,476846,"0.0-3.184-2.184","rhg6xwwvd29p6ec",217,"49.csv","","null","resources/images/fishbone.png","null","",NA,NA,NA,NA,""
"image-keyboard-response",566,477079,"0.0-3.185-0.185","rhg6xwwvd29p6ec",217,"49.csv","","231.30000001192093","resources/trios/L1T1A3.jpg","37","restless",0.7,0.5,0.2,0.196468339386521,"true"
"image-keyboard-response",567,477481,"0.0-3.185-1.185","rhg6xwwvd29p6ec",217,"49.csv","","null","resources/maskTrios/L1BB.jpg","null","",NA,NA,NA,NA,""
"image-keyboard-response",568,478683,"0.0-3.185-2.185","rhg6xwwvd29p6ec",217,"49.csv","","null","resources/images/coin2.png","null","",NA,NA,NA,NA,""
"image-keyboard-response",569,479176,"0.0-3.186-0.186","rhg6xwwvd29p6ec",217,"49.csv","","491.90000000596046","resources/trios/L1T1A3.jpg","38","restless",0.7,0.5,0.2,0.0354924763790165,"true"
"image-keyboard-response",570,479578,"0.0-3.186-1.186","rhg6xwwvd29p6ec",217,"49.csv","","null","resources/maskTrios/BT1B.jpg","null","",NA,NA,NA,NA,""
"image-keyboard-response",571,480784,"0.0-3.186-2.186","rhg6xwwvd29p6ec",217,"49.csv","","null","resources/images/coin2.png","null","",NA,NA,NA,NA,""
"image-keyboard-response",572,481115,"0.0-3.187-0.187","rhg6xwwvd29p6ec",217,"49.csv","","329.40000000596046","resources/trios/L1T2A2.jpg","38","restless",0.7,0.5,0.2,0.609488218950635,"false"
"image-keyboard-response",573,481518,"0.0-3.187-1.187","rhg6xwwvd29p6ec",217,"49.csv","","null","resources/maskTrios/BT2B.jpg","null","",NA,NA,NA,NA,""
"image-keyboard-response",574,482722,"0.0-3.187-2.187","rhg6xwwvd29p6ec",217,"49.csv","","null","resources/images/fishbone.png","null","",NA,NA,NA,NA,""
"image-keyboard-response",575,483090,"0.0-3.188-0.188","rhg6xwwvd29p6ec",217,"49.csv","","366.5","resources/trios/L1T1A3.jpg","37","restless",0.6,0.5,0.2,0.657257371534319,"false"
"image-keyboard-response",576,483495,"0.0-3.188-1.188","rhg6xwwvd29p6ec",217,"49.csv","","null","resources/maskTrios/L1BB.jpg","null","",NA,NA,NA,NA,""
"image-keyboard-response",577,484699,"0.0-3.188-2.188","rhg6xwwvd29p6ec",217,"49.csv","","null","resources/images/fishbone.png","null","",NA,NA,NA,NA,""
"image-keyboard-response",578,485068,"0.0-3.189-0.189","rhg6xwwvd29p6ec",217,"49.csv","","367.80000001192093","resources/trios/L1T1A3.jpg","38","restless",0.6,0.5,0.2,0.0634866843373647,"true"
"image-keyboard-response",579,485473,"0.0-3.189-1.189","rhg6xwwvd29p6ec",217,"49.csv","","null","resources/maskTrios/BT1B.jpg","null","",NA,NA,NA,NA,""
"image-keyboard-response",580,486677,"0.0-3.189-2.189","rhg6xwwvd29p6ec",217,"49.csv","","null","resources/images/coin2.png","null","",NA,NA,NA,NA,""
"image-keyboard-response",581,486991,"0.0-3.190-0.190","rhg6xwwvd29p6ec",217,"49.csv","","313.5","resources/trios/L4T2A3.jpg","38","restless",0.6,0.5,0.2,0.356021261392661,"true"
"image-keyboard-response",582,487392,"0.0-3.190-1.190","rhg6xwwvd29p6ec",217,"49.csv","","null","resources/maskTrios/BT2B.jpg","null","",NA,NA,NA,NA,""
"image-keyboard-response",583,488595,"0.0-3.190-2.190","rhg6xwwvd29p6ec",217,"49.csv","","null","resources/images/coin2.png","null","",NA,NA,NA,NA,""
"image-keyboard-response",584,488912,"0.0-3.191-0.191","rhg6xwwvd29p6ec",217,"49.csv","","316.30000001192093","resources/trios/L4T1A3.jpg","38","restless",0.6,0.5,0.2,0.161011174690799,"true"
"image-keyboard-response",585,489312,"0.0-3.191-1.191","rhg6xwwvd29p6ec",217,"49.csv","","null","resources/maskTrios/BT1B.jpg","null","",NA,NA,NA,NA,""
"image-keyboard-response",586,490517,"0.0-3.191-2.191","rhg6xwwvd29p6ec",217,"49.csv","","null","resources/images/coin2.png","null","",NA,NA,NA,NA,""
"image-keyboard-response",587,490819,"0.0-3.192-0.192","rhg6xwwvd29p6ec",217,"49.csv","","300.69999998807907","resources/trios/L4T1A2.jpg","39","restless",0.6,0.5,0.1,0.461989130383675,"false"
"image-keyboard-response",588,491220,"0.0-3.192-1.192","rhg6xwwvd29p6ec",217,"49.csv","","null","resources/maskTrios/BBA2.jpg","null","",NA,NA,NA,NA,""
"image-keyboard-response",589,492421,"0.0-3.192-2.192","rhg6xwwvd29p6ec",217,"49.csv","","null","resources/images/fishbone.png","null","",NA,NA,NA,NA,""
"image-keyboard-response",590,492726,"0.0-3.193-0.193","rhg6xwwvd29p6ec",217,"49.csv","","303.7000000178814","resources/trios/L4T1A3.jpg","38","restless",0.6,0.5,0.1,0.00833185809612114,"true"
"image-keyboard-response",591,493131,"0.0-3.193-1.193","rhg6xwwvd29p6ec",217,"49.csv","","null","resources/maskTrios/BT1B.jpg","null","",NA,NA,NA,NA,""
"image-keyboard-response",592,494334,"0.0-3.193-2.193","rhg6xwwvd29p6ec",217,"49.csv","","null","resources/images/coin2.png","null","",NA,NA,NA,NA,""
"image-keyboard-response",593,494428,"0.0-3.194-0.194","rhg6xwwvd29p6ec",217,"49.csv","","93.59999999403954","resources/trios/L1T2A3.jpg","38","restless",0.7,0.5,0.1,0.811858752367307,"false"
"image-keyboard-response",594,494829,"0.0-3.194-1.194","rhg6xwwvd29p6ec",217,"49.csv","","null","resources/maskTrios/BT2B.jpg","null","",NA,NA,NA,NA,""
"image-keyboard-response",595,496033,"0.0-3.194-2.194","rhg6xwwvd29p6ec",217,"49.csv","","null","resources/images/fishbone.png","null","",NA,NA,NA,NA,""
"image-keyboard-response",596,496467,"0.0-3.195-0.195","rhg6xwwvd29p6ec",217,"49.csv","","433.69999998807907","resources/trios/L4T2A3.jpg","37","restless",0.7,0.5,0.2,0.530465229888796,"true"
"image-keyboard-response",597,496869,"0.0-3.195-1.195","rhg6xwwvd29p6ec",217,"49.csv","","null","resources/maskTrios/L4BB.jpg","null","",NA,NA,NA,NA,""
"image-keyboard-response",598,498072,"0.0-3.195-2.195","rhg6xwwvd29p6ec",217,"49.csv","","null","resources/images/coin2.png","null","",NA,NA,NA,NA,""
"image-keyboard-response",599,498412,"0.0-3.196-0.196","rhg6xwwvd29p6ec",217,"49.csv","","338.39999997615814","resources/trios/L4T2A2.jpg","39","restless",0.7,0.5,0.2,0.504956799851046,"false"
"image-keyboard-response",600,498816,"0.0-3.196-1.196","rhg6xwwvd29p6ec",217,"49.csv","","null","resources/maskTrios/BBA2.jpg","null","",NA,NA,NA,NA,""
"image-keyboard-response",601,500020,"0.0-3.196-2.196","rhg6xwwvd29p6ec",217,"49.csv","","null","resources/images/fishbone.png","null","",NA,NA,NA,NA,""
"image-keyboard-response",602,500310,"0.0-3.197-0.197","rhg6xwwvd29p6ec",217,"49.csv","","288.2999999821186","resources/trios/L4T2A3.jpg","37","restless",0.7,0.5,0.2,0.0985204031148599,"true"
"image-keyboard-response",603,500716,"0.0-3.197-1.197","rhg6xwwvd29p6ec",217,"49.csv","","null","resources/maskTrios/L4BB.jpg","null","",NA,NA,NA,NA,""
"image-keyboard-response",604,501919,"0.0-3.197-2.197","rhg6xwwvd29p6ec",217,"49.csv","","null","resources/images/coin2.png","null","",NA,NA,NA,NA,""
"image-keyboard-response",605,502151,"0.0-3.198-0.198","rhg6xwwvd29p6ec",217,"49.csv","","231.09999999403954","resources/trios/L4T1A3.jpg","38","restless",0.7,0.5,0.2,0.214974035336313,"true"
"image-keyboard-response",606,502554,"0.0-3.198-1.198","rhg6xwwvd29p6ec",217,"49.csv","","null","resources/maskTrios/BT1B.jpg","null","",NA,NA,NA,NA,""
"image-keyboard-response",607,503758,"0.0-3.198-2.198","rhg6xwwvd29p6ec",217,"49.csv","","null","resources/images/coin2.png","null","",NA,NA,NA,NA,""
"image-keyboard-response",608,504037,"0.0-3.199-0.199","rhg6xwwvd29p6ec",217,"49.csv","","277.80000001192093","resources/trios/L4T2A2.jpg","37","restless",0.7,0.5,0.2,0.607196570170218,"true"
"image-keyboard-response",609,504438,"0.0-3.199-1.199","rhg6xwwvd29p6ec",217,"49.csv","","null","resources/maskTrios/L4BB.jpg","null","",NA,NA,NA,NA,""
"image-keyboard-response",610,505640,"0.0-3.199-2.199","rhg6xwwvd29p6ec",217,"49.csv","","null","resources/images/coin2.png","null","",NA,NA,NA,NA,""
