"trial_type","trial_index","time_elapsed","internal_node_id","subject","walkNumber","success","rt","stimulus","key_press","test_part","leftProb","midProb","rightProb","generatedNum","correct"
"pavlovia",0,1442,"0.0-0.0","wtwln2x34o0v21v","79.csv","","","","","",NA,NA,NA,NA,""
"fullscreen",1,5271,"0.0-1.0","wtwln2x34o0v21v","79.csv","true","","","","",NA,NA,NA,NA,""
"html-keyboard-response",2,20146,"0.0-2.0-0.0","wtwln2x34o0v21v","79.csv","","14873.699999988079","<p><font size='6'>Arrrgh!</p></font><p>Can you be the best pirate? Try to find lots of gold! But beware, some islands have more gold than others, and over time, the island with the most gold may change. Can YOU figure it out? </p><font size='6'>GOOD LUCK, CAPTAIN!!!</font><p>Press any key to begin</p>","32","",NA,NA,NA,NA,""
"image-keyboard-response",3,23154,"0.0-2.0-1.0","wtwln2x34o0v21v","79.csv","","null","resources/image_sets/111.png","null","",NA,NA,NA,NA,""
"image-keyboard-response",4,27651,"0.0-2.0-2.0","wtwln2x34o0v21v","79.csv","","4495.199999988079","resources/image_sets/left_highlight.png","37","",NA,NA,NA,NA,""
"image-keyboard-response",5,29779,"0.0-2.0-3.0","wtwln2x34o0v21v","79.csv","","2124.899999976158","resources/image_sets/mid_highlight.png","38","",NA,NA,NA,NA,""
"image-keyboard-response",6,30733,"0.0-2.0-4.0","wtwln2x34o0v21v","79.csv","","952.5","resources/image_sets/right_highlight.png","39","",NA,NA,NA,NA,""
"image-keyboard-response",7,43316,"0.0-2.0-5.0","wtwln2x34o0v21v","79.csv","","12581.09999999404","resources/image_sets/111.png","13","",NA,NA,NA,NA,""
"image-keyboard-response",8,46594,"0.0-2.0-6.0","wtwln2x34o0v21v","79.csv","","3275.7000000178814","resources/images/coin2.png","13","",NA,NA,NA,NA,""
"image-keyboard-response",9,48353,"0.0-2.0-7.0","wtwln2x34o0v21v","79.csv","","1756.199999988079","resources/images/fishbone.png","13","",NA,NA,NA,NA,""
"html-keyboard-response",10,54368,"0.0-2.0-8.0","wtwln2x34o0v21v","79.csv","","6014","<p>Your first journey will be a long one, but you will get a well deserved break at the end</p><p>After the break you will have four more journeys, but each will be much shorter than the first, and you will have breaks in between each</p><p>Press Enter to begin</p>","13","",NA,NA,NA,NA,""
"image-keyboard-response",11,58423,"0.0-3.0-0.0","wtwln2x34o0v21v","79.csv","","4052.0999999940395","resources/trios/L1T2A3.jpg","38","restless",0.9,0.3,0.7,0.114298868044637,"true"
"image-keyboard-response",12,58830,"0.0-3.0-1.0","wtwln2x34o0v21v","79.csv","","null","resources/maskTrios/BT2B.jpg","null","",NA,NA,NA,NA,""
"image-keyboard-response",13,60039,"0.0-3.0-2.0","wtwln2x34o0v21v","79.csv","","null","resources/images/coin2.png","null","",NA,NA,NA,NA,""
"image-keyboard-response",14,65797,"0.0-3.1-0.1","wtwln2x34o0v21v","79.csv","","5754","resources/trios/L4T1A2.jpg","38","restless",0.9,0.3,0.7,0.4208472376832,"false"
"image-keyboard-response",15,66202,"0.0-3.1-1.1","wtwln2x34o0v21v","79.csv","","null","resources/maskTrios/BT1B.jpg","null","",NA,NA,NA,NA,""
"image-keyboard-response",16,67409,"0.0-3.1-2.1","wtwln2x34o0v21v","79.csv","","null","resources/images/fishbone.png","null","",NA,NA,NA,NA,""
"image-keyboard-response",17,69775,"0.0-3.2-0.2","wtwln2x34o0v21v","79.csv","","2363.0999999940395","resources/trios/L1T1A2.jpg","37","restless",0.9,0.3,0.7,0.45583920583303,"true"
"image-keyboard-response",18,70180,"0.0-3.2-1.2","wtwln2x34o0v21v","79.csv","","null","resources/maskTrios/L1BB.jpg","null","",NA,NA,NA,NA,""
"image-keyboard-response",19,71387,"0.0-3.2-2.2","wtwln2x34o0v21v","79.csv","","null","resources/images/coin2.png","null","",NA,NA,NA,NA,""
"image-keyboard-response",20,73680,"0.0-3.3-0.3","wtwln2x34o0v21v","79.csv","","2290.0999999940395","resources/trios/L1T2A2.jpg","38","restless",0.9,0.3,0.7,0.809423151389032,"false"
"image-keyboard-response",21,74083,"0.0-3.3-1.3","wtwln2x34o0v21v","79.csv","","null","resources/maskTrios/BT2B.jpg","null","",NA,NA,NA,NA,""
"image-keyboard-response",22,75290,"0.0-3.3-2.3","wtwln2x34o0v21v","79.csv","","null","resources/images/fishbone.png","null","",NA,NA,NA,NA,""
"image-keyboard-response",23,76290,"0.0-3.4-0.4","wtwln2x34o0v21v","79.csv","","998","resources/trios/L1T1A3.jpg","39","restless",0.9,0.3,0.7,0.753436483900223,"false"
"image-keyboard-response",24,76698,"0.0-3.4-1.4","wtwln2x34o0v21v","79.csv","","null","resources/maskTrios/BBA3.jpg","null","",NA,NA,NA,NA,""
"image-keyboard-response",25,77905,"0.0-3.4-2.4","wtwln2x34o0v21v","79.csv","","null","resources/images/fishbone.png","null","",NA,NA,NA,NA,""
"image-keyboard-response",26,80922,"0.0-3.5-0.5","wtwln2x34o0v21v","79.csv","","3014.9000000059605","resources/trios/L4T2A2.jpg","37","restless",0.9,0.3,0.7,0.557868238317507,"true"
"image-keyboard-response",27,81330,"0.0-3.5-1.5","wtwln2x34o0v21v","79.csv","","null","resources/maskTrios/L4BB.jpg","null","",NA,NA,NA,NA,""
"image-keyboard-response",28,82537,"0.0-3.5-2.5","wtwln2x34o0v21v","79.csv","","null","resources/images/coin2.png","null","",NA,NA,NA,NA,""
"image-keyboard-response",29,90706,"0.0-3.6-0.6","wtwln2x34o0v21v","79.csv","","8167.0999999940395","resources/trios/L4T2A3.jpg","38","restless",0.9,0.3,0.7,0.176527166298598,"true"
"image-keyboard-response",30,91114,"0.0-3.6-1.6","wtwln2x34o0v21v","79.csv","","null","resources/maskTrios/BT2B.jpg","null","",NA,NA,NA,NA,""
"image-keyboard-response",31,92321,"0.0-3.6-2.6","wtwln2x34o0v21v","79.csv","","null","resources/images/coin2.png","null","",NA,NA,NA,NA,""
"image-keyboard-response",32,94359,"0.0-3.7-0.7","wtwln2x34o0v21v","79.csv","","2035.9000000059605","resources/trios/L4T2A2.jpg","39","restless",0.8,0.3,0.7,0.0199677360027029,"true"
"image-keyboard-response",33,94766,"0.0-3.7-1.7","wtwln2x34o0v21v","79.csv","","null","resources/maskTrios/BBA2.jpg","null","",NA,NA,NA,NA,""
"image-keyboard-response",34,95973,"0.0-3.7-2.7","wtwln2x34o0v21v","79.csv","","null","resources/images/coin2.png","null","",NA,NA,NA,NA,""
"image-keyboard-response",35,98662,"0.0-3.8-0.8","wtwln2x34o0v21v","79.csv","","2686.199999988079","resources/trios/L1T1A3.jpg","38","restless",0.8,0.3,0.7,0.958433591853279,"false"
"image-keyboard-response",36,99067,"0.0-3.8-1.8","wtwln2x34o0v21v","79.csv","","null","resources/maskTrios/BT1B.jpg","null","",NA,NA,NA,NA,""
"image-keyboard-response",37,100274,"0.0-3.8-2.8","wtwln2x34o0v21v","79.csv","","null","resources/images/fishbone.png","null","",NA,NA,NA,NA,""
"image-keyboard-response",38,101114,"0.0-3.9-0.9","wtwln2x34o0v21v","79.csv","","837.6000000238419","resources/trios/L1T1A2.jpg","37","restless",0.8,0.3,0.7,0.890540533531571,"false"
"image-keyboard-response",39,101522,"0.0-3.9-1.9","wtwln2x34o0v21v","79.csv","","null","resources/maskTrios/L1BB.jpg","null","",NA,NA,NA,NA,""
"image-keyboard-response",40,102729,"0.0-3.9-2.9","wtwln2x34o0v21v","79.csv","","null","resources/images/fishbone.png","null","",NA,NA,NA,NA,""
"image-keyboard-response",41,104720,"0.0-3.10-0.10","wtwln2x34o0v21v","79.csv","","1989.0999999940395","resources/trios/L1T1A3.jpg","39","restless",0.8,0.3,0.7,0.557481070577821,"true"
"image-keyboard-response",42,105130,"0.0-3.10-1.10","wtwln2x34o0v21v","79.csv","","null","resources/maskTrios/BBA3.jpg","null","",NA,NA,NA,NA,""
"image-keyboard-response",43,106334,"0.0-3.10-2.10","wtwln2x34o0v21v","79.csv","","null","resources/images/coin2.png","null","",NA,NA,NA,NA,""
"image-keyboard-response",44,112070,"0.0-3.11-0.11","wtwln2x34o0v21v","79.csv","","5734.300000011921","resources/trios/L1T1A2.jpg","37","restless",0.8,0.3,0.7,0.0972745376831128,"true"
"image-keyboard-response",45,112478,"0.0-3.11-1.11","wtwln2x34o0v21v","79.csv","","null","resources/maskTrios/L1BB.jpg","null","",NA,NA,NA,NA,""
"image-keyboard-response",46,113683,"0.0-3.11-2.11","wtwln2x34o0v21v","79.csv","","null","resources/images/coin2.png","null","",NA,NA,NA,NA,""
"image-keyboard-response",47,115635,"0.0-3.12-0.12","wtwln2x34o0v21v","79.csv","","1949.4000000059605","resources/trios/L4T2A2.jpg","38","restless",0.8,0.2,0.7,0.315236077066939,"false"
"image-keyboard-response",48,116043,"0.0-3.12-1.12","wtwln2x34o0v21v","79.csv","","null","resources/maskTrios/BT2B.jpg","null","",NA,NA,NA,NA,""
"image-keyboard-response",49,117250,"0.0-3.12-2.12","wtwln2x34o0v21v","79.csv","","null","resources/images/fishbone.png","null","",NA,NA,NA,NA,""
"image-keyboard-response",50,117987,"0.0-3.13-0.13","wtwln2x34o0v21v","79.csv","","735.1999999880791","resources/trios/L4T2A2.jpg","39","restless",0.8,0.2,0.7,0.576322722926874,"true"
"image-keyboard-response",51,118394,"0.0-3.13-1.13","wtwln2x34o0v21v","79.csv","","null","resources/maskTrios/BBA2.jpg","null","",NA,NA,NA,NA,""
"image-keyboard-response",52,119602,"0.0-3.13-2.13","wtwln2x34o0v21v","79.csv","","null","resources/images/coin2.png","null","",NA,NA,NA,NA,""
"image-keyboard-response",53,120281,"0.0-3.14-0.14","wtwln2x34o0v21v","79.csv","","677.1999999880791","resources/trios/L1T1A2.jpg","37","restless",0.8,0.2,0.7,0.29697795554758,"true"
"image-keyboard-response",54,120687,"0.0-3.14-1.14","wtwln2x34o0v21v","79.csv","","null","resources/maskTrios/L1BB.jpg","null","",NA,NA,NA,NA,""
"image-keyboard-response",55,121895,"0.0-3.14-2.14","wtwln2x34o0v21v","79.csv","","null","resources/images/coin2.png","null","",NA,NA,NA,NA,""
"image-keyboard-response",56,123013,"0.0-3.15-0.15","wtwln2x34o0v21v","79.csv","","1115.7999999821186","resources/trios/L4T2A3.jpg","39","restless",0.8,0.2,0.7,0.933378003577098,"false"
"image-keyboard-response",57,123416,"0.0-3.15-1.15","wtwln2x34o0v21v","79.csv","","null","resources/maskTrios/BBA3.jpg","null","",NA,NA,NA,NA,""
"image-keyboard-response",58,124623,"0.0-3.15-2.15","wtwln2x34o0v21v","79.csv","","null","resources/images/fishbone.png","null","",NA,NA,NA,NA,""
"image-keyboard-response",59,125361,"0.0-3.16-0.16","wtwln2x34o0v21v","79.csv","","736","resources/trios/L1T2A3.jpg","37","restless",0.8,0.2,0.7,0.634421152166241,"true"
"image-keyboard-response",60,125766,"0.0-3.16-1.16","wtwln2x34o0v21v","79.csv","","null","resources/maskTrios/L1BB.jpg","null","",NA,NA,NA,NA,""
"image-keyboard-response",61,126974,"0.0-3.16-2.16","wtwln2x34o0v21v","79.csv","","null","resources/images/coin2.png","null","",NA,NA,NA,NA,""
"image-keyboard-response",62,128473,"0.0-3.17-0.17","wtwln2x34o0v21v","79.csv","","1496.5999999940395","resources/trios/L1T2A2.jpg","38","restless",0.8,0.2,0.6,0.356928558616688,"false"
"image-keyboard-response",63,128880,"0.0-3.17-1.17","wtwln2x34o0v21v","79.csv","","null","resources/maskTrios/BT2B.jpg","null","",NA,NA,NA,NA,""
"image-keyboard-response",64,130087,"0.0-3.17-2.17","wtwln2x34o0v21v","79.csv","","null","resources/images/fishbone.png","null","",NA,NA,NA,NA,""
"image-keyboard-response",65,130461,"0.0-3.18-0.18","wtwln2x34o0v21v","79.csv","","372","resources/trios/L1T1A3.jpg","37","restless",0.8,0.3,0.5,0.232072017098679,"true"
"image-keyboard-response",66,130868,"0.0-3.18-1.18","wtwln2x34o0v21v","79.csv","","null","resources/maskTrios/L1BB.jpg","null","",NA,NA,NA,NA,""
"image-keyboard-response",67,132076,"0.0-3.18-2.18","wtwln2x34o0v21v","79.csv","","null","resources/images/coin2.png","null","",NA,NA,NA,NA,""
"image-keyboard-response",68,135906,"0.0-3.19-0.19","wtwln2x34o0v21v","79.csv","","3828.199999988079","resources/trios/L4T1A3.jpg","39","restless",0.8,0.3,0.5,0.223605021476981,"true"
"image-keyboard-response",69,136314,"0.0-3.19-1.19","wtwln2x34o0v21v","79.csv","","null","resources/maskTrios/BBA3.jpg","null","",NA,NA,NA,NA,""
"image-keyboard-response",70,137520,"0.0-3.19-2.19","wtwln2x34o0v21v","79.csv","","null","resources/images/coin2.png","null","",NA,NA,NA,NA,""
"image-keyboard-response",71,138349,"0.0-3.20-0.20","wtwln2x34o0v21v","79.csv","","827","resources/trios/L1T1A3.jpg","37","restless",0.8,0.3,0.5,0.782825350073978,"true"
"image-keyboard-response",72,138756,"0.0-3.20-1.20","wtwln2x34o0v21v","79.csv","","null","resources/maskTrios/L1BB.jpg","null","",NA,NA,NA,NA,""
"image-keyboard-response",73,139963,"0.0-3.20-2.20","wtwln2x34o0v21v","79.csv","","null","resources/images/coin2.png","null","",NA,NA,NA,NA,""
"image-keyboard-response",74,140656,"0.0-3.21-0.21","wtwln2x34o0v21v","79.csv","","690.0999999940395","resources/trios/L1T2A2.jpg","38","restless",0.8,0.4,0.5,0.347343771942987,"true"
"image-keyboard-response",75,141063,"0.0-3.21-1.21","wtwln2x34o0v21v","79.csv","","null","resources/maskTrios/BT2B.jpg","null","",NA,NA,NA,NA,""
"image-keyboard-response",76,142265,"0.0-3.21-2.21","wtwln2x34o0v21v","79.csv","","null","resources/images/coin2.png","null","",NA,NA,NA,NA,""
"image-keyboard-response",77,143680,"0.0-3.22-0.22","wtwln2x34o0v21v","79.csv","","1413.0999999940395","resources/trios/L4T1A2.jpg","37","restless",0.8,0.4,0.5,0.30210648571513,"true"
"image-keyboard-response",78,144087,"0.0-3.22-1.22","wtwln2x34o0v21v","79.csv","","null","resources/maskTrios/L4BB.jpg","null","",NA,NA,NA,NA,""
"image-keyboard-response",79,145294,"0.0-3.22-2.22","wtwln2x34o0v21v","79.csv","","null","resources/images/coin2.png","null","",NA,NA,NA,NA,""
"image-keyboard-response",80,146109,"0.0-3.23-0.23","wtwln2x34o0v21v","79.csv","","812.0999999940395","resources/trios/L1T2A3.jpg","38","restless",0.7,0.4,0.5,0.00676087426289129,"true"
"image-keyboard-response",81,146516,"0.0-3.23-1.23","wtwln2x34o0v21v","79.csv","","null","resources/maskTrios/BT2B.jpg","null","",NA,NA,NA,NA,""
"image-keyboard-response",82,147723,"0.0-3.23-2.23","wtwln2x34o0v21v","79.csv","","null","resources/images/coin2.png","null","",NA,NA,NA,NA,""
"image-keyboard-response",83,148208,"0.0-3.24-0.24","wtwln2x34o0v21v","79.csv","","483.5","resources/trios/L4T1A3.jpg","39","restless",0.7,0.4,0.5,0.215475783501415,"true"
"image-keyboard-response",84,148616,"0.0-3.24-1.24","wtwln2x34o0v21v","79.csv","","null","resources/maskTrios/BBA3.jpg","null","",NA,NA,NA,NA,""
"image-keyboard-response",85,149823,"0.0-3.24-2.24","wtwln2x34o0v21v","79.csv","","null","resources/images/coin2.png","null","",NA,NA,NA,NA,""
"image-keyboard-response",86,150339,"0.0-3.25-0.25","wtwln2x34o0v21v","79.csv","","513.8000000119209","resources/trios/L4T2A3.jpg","37","restless",0.7,0.4,0.5,0.430976481730526,"true"
"image-keyboard-response",87,150747,"0.0-3.25-1.25","wtwln2x34o0v21v","79.csv","","null","resources/maskTrios/L4BB.jpg","null","",NA,NA,NA,NA,""
"image-keyboard-response",88,151954,"0.0-3.25-2.25","wtwln2x34o0v21v","79.csv","","null","resources/images/coin2.png","null","",NA,NA,NA,NA,""
"image-keyboard-response",89,152802,"0.0-3.26-0.26","wtwln2x34o0v21v","79.csv","","846.2999999821186","resources/trios/L1T2A2.jpg","38","restless",0.7,0.5,0.5,0.259375099845881,"true"
"image-keyboard-response",90,153210,"0.0-3.26-1.26","wtwln2x34o0v21v","79.csv","","null","resources/maskTrios/BT2B.jpg","null","",NA,NA,NA,NA,""
"image-keyboard-response",91,154413,"0.0-3.26-2.26","wtwln2x34o0v21v","79.csv","","null","resources/images/coin2.png","null","",NA,NA,NA,NA,""
"image-keyboard-response",92,155661,"0.0-3.27-0.27","wtwln2x34o0v21v","79.csv","","1245.800000011921","resources/trios/L4T1A2.jpg","37","restless",0.6,0.5,0.5,0.186379978829759,"true"
"image-keyboard-response",93,156069,"0.0-3.27-1.27","wtwln2x34o0v21v","79.csv","","null","resources/maskTrios/L4BB.jpg","null","",NA,NA,NA,NA,""
"image-keyboard-response",94,157276,"0.0-3.27-2.27","wtwln2x34o0v21v","79.csv","","null","resources/images/coin2.png","null","",NA,NA,NA,NA,""
"image-keyboard-response",95,157930,"0.0-3.28-0.28","wtwln2x34o0v21v","79.csv","","651.6999999880791","resources/trios/L4T2A3.jpg","38","restless",0.6,0.5,0.5,0.046329346647924,"true"
"image-keyboard-response",96,158334,"0.0-3.28-1.28","wtwln2x34o0v21v","79.csv","","null","resources/maskTrios/BT2B.jpg","null","",NA,NA,NA,NA,""
"image-keyboard-response",97,159539,"0.0-3.28-2.28","wtwln2x34o0v21v","79.csv","","null","resources/images/coin2.png","null","",NA,NA,NA,NA,""
"image-keyboard-response",98,160022,"0.0-3.29-0.29","wtwln2x34o0v21v","79.csv","","480.30000001192093","resources/trios/L1T2A2.jpg","37","restless",0.6,0.5,0.5,0.664884150631143,"false"
"image-keyboard-response",99,160429,"0.0-3.29-1.29","wtwln2x34o0v21v","79.csv","","null","resources/maskTrios/L1BB.jpg","null","",NA,NA,NA,NA,""
"image-keyboard-response",100,161638,"0.0-3.29-2.29","wtwln2x34o0v21v","79.csv","","null","resources/images/fishbone.png","null","",NA,NA,NA,NA,""
"image-keyboard-response",101,162066,"0.0-3.30-0.30","wtwln2x34o0v21v","79.csv","","425.40000000596046","resources/trios/L4T1A3.jpg","39","restless",0.6,0.5,0.5,0.839994986667538,"false"
"image-keyboard-response",102,162468,"0.0-3.30-1.30","wtwln2x34o0v21v","79.csv","","null","resources/maskTrios/BBA3.jpg","null","",NA,NA,NA,NA,""
"image-keyboard-response",103,163675,"0.0-3.30-2.30","wtwln2x34o0v21v","79.csv","","null","resources/images/fishbone.png","null","",NA,NA,NA,NA,""
"image-keyboard-response",104,163986,"0.0-3.31-0.31","wtwln2x34o0v21v","79.csv","","308.59999999403954","resources/trios/L4T1A3.jpg","38","restless",0.6,0.5,0.5,0.0012377564453645,"true"
"image-keyboard-response",105,164393,"0.0-3.31-1.31","wtwln2x34o0v21v","79.csv","","null","resources/maskTrios/BT1B.jpg","null","",NA,NA,NA,NA,""
"image-keyboard-response",106,165600,"0.0-3.31-2.31","wtwln2x34o0v21v","79.csv","","null","resources/images/coin2.png","null","",NA,NA,NA,NA,""
"image-keyboard-response",107,168103,"0.0-3.32-0.32","wtwln2x34o0v21v","79.csv","","2501.4000000059605","resources/trios/L4T2A3.jpg","38","restless",0.5,0.5,0.5,0.844314261934255,"false"
"image-keyboard-response",108,168506,"0.0-3.32-1.32","wtwln2x34o0v21v","79.csv","","null","resources/maskTrios/BT2B.jpg","null","",NA,NA,NA,NA,""
"image-keyboard-response",109,169713,"0.0-3.32-2.32","wtwln2x34o0v21v","79.csv","","null","resources/images/fishbone.png","null","",NA,NA,NA,NA,""
"image-keyboard-response",110,170171,"0.0-3.33-0.33","wtwln2x34o0v21v","79.csv","","455.2000000178814","resources/trios/L4T1A3.jpg","37","restless",0.5,0.5,0.5,0.53520865072837,"false"
"image-keyboard-response",111,170578,"0.0-3.33-1.33","wtwln2x34o0v21v","79.csv","","null","resources/maskTrios/L4BB.jpg","null","",NA,NA,NA,NA,""
"image-keyboard-response",112,171784,"0.0-3.33-2.33","wtwln2x34o0v21v","79.csv","","null","resources/images/fishbone.png","null","",NA,NA,NA,NA,""
"image-keyboard-response",113,172191,"0.0-3.34-0.34","wtwln2x34o0v21v","79.csv","","404.7000000178814","resources/trios/L1T2A2.jpg","39","restless",0.5,0.5,0.5,0.0246566165110655,"true"
"image-keyboard-response",114,172598,"0.0-3.34-1.34","wtwln2x34o0v21v","79.csv","","null","resources/maskTrios/BBA2.jpg","null","",NA,NA,NA,NA,""
"image-keyboard-response",115,173801,"0.0-3.34-2.34","wtwln2x34o0v21v","79.csv","","null","resources/images/coin2.png","null","",NA,NA,NA,NA,""
"image-keyboard-response",116,175303,"0.0-3.35-0.35","wtwln2x34o0v21v","79.csv","","1500.4000000059605","resources/trios/L4T1A3.jpg","39","restless",0.4,0.5,0.5,0.916998282122645,"false"
"image-keyboard-response",117,175707,"0.0-3.35-1.35","wtwln2x34o0v21v","79.csv","","null","resources/maskTrios/BBA3.jpg","null","",NA,NA,NA,NA,""
"image-keyboard-response",118,176914,"0.0-3.35-2.35","wtwln2x34o0v21v","79.csv","","null","resources/images/fishbone.png","null","",NA,NA,NA,NA,""
"image-keyboard-response",119,177292,"0.0-3.36-0.36","wtwln2x34o0v21v","79.csv","","375.89999997615814","resources/trios/L4T1A3.jpg","38","restless",0.4,0.5,0.5,0.719141317203744,"false"
"image-keyboard-response",120,177699,"0.0-3.36-1.36","wtwln2x34o0v21v","79.csv","","null","resources/maskTrios/BT1B.jpg","null","",NA,NA,NA,NA,""
"image-keyboard-response",121,178906,"0.0-3.36-2.36","wtwln2x34o0v21v","79.csv","","null","resources/images/fishbone.png","null","",NA,NA,NA,NA,""
"image-keyboard-response",122,179203,"0.0-3.37-0.37","wtwln2x34o0v21v","79.csv","","294.2999999821186","resources/trios/L1T1A3.jpg","37","restless",0.4,0.5,0.5,0.869331861339192,"false"
"image-keyboard-response",123,179610,"0.0-3.37-1.37","wtwln2x34o0v21v","79.csv","","null","resources/maskTrios/L1BB.jpg","null","",NA,NA,NA,NA,""
"image-keyboard-response",124,180817,"0.0-3.37-2.37","wtwln2x34o0v21v","79.csv","","null","resources/images/fishbone.png","null","",NA,NA,NA,NA,""
"image-keyboard-response",125,181247,"0.0-3.38-0.38","wtwln2x34o0v21v","79.csv","","427.5","resources/trios/L1T2A2.jpg","37","restless",0.4,0.5,0.5,0.492511701557006,"false"
"image-keyboard-response",126,181654,"0.0-3.38-1.38","wtwln2x34o0v21v","79.csv","","null","resources/maskTrios/L1BB.jpg","null","",NA,NA,NA,NA,""
"image-keyboard-response",127,182859,"0.0-3.38-2.38","wtwln2x34o0v21v","79.csv","","null","resources/images/fishbone.png","null","",NA,NA,NA,NA,""
"image-keyboard-response",128,183323,"0.0-3.39-0.39","wtwln2x34o0v21v","79.csv","","461.2000000178814","resources/trios/L4T2A2.jpg","38","restless",0.4,0.5,0.5,0.610057027702907,"false"
"image-keyboard-response",129,183730,"0.0-3.39-1.39","wtwln2x34o0v21v","79.csv","","null","resources/maskTrios/BT2B.jpg","null","",NA,NA,NA,NA,""
"image-keyboard-response",130,184937,"0.0-3.39-2.39","wtwln2x34o0v21v","79.csv","","null","resources/images/fishbone.png","null","",NA,NA,NA,NA,""
"image-keyboard-response",131,185386,"0.0-3.40-0.40","wtwln2x34o0v21v","79.csv","","445.69999998807907","resources/trios/L4T2A3.jpg","39","restless",0.4,0.5,0.5,0.91865275903506,"false"
"image-keyboard-response",132,185791,"0.0-3.40-1.40","wtwln2x34o0v21v","79.csv","","null","resources/maskTrios/BBA3.jpg","null","",NA,NA,NA,NA,""
"image-keyboard-response",133,186998,"0.0-3.40-2.40","wtwln2x34o0v21v","79.csv","","null","resources/images/fishbone.png","null","",NA,NA,NA,NA,""
"image-keyboard-response",134,191113,"0.0-3.41-0.41","wtwln2x34o0v21v","79.csv","","4112.4000000059605","resources/trios/L4T1A2.jpg","37","restless",0.4,0.5,0.5,0.773096063786326,"false"
"image-keyboard-response",135,191520,"0.0-3.41-1.41","wtwln2x34o0v21v","79.csv","","null","resources/maskTrios/L4BB.jpg","null","",NA,NA,NA,NA,""
"image-keyboard-response",136,192727,"0.0-3.41-2.41","wtwln2x34o0v21v","79.csv","","null","resources/images/fishbone.png","null","",NA,NA,NA,NA,""
"image-keyboard-response",137,193082,"0.0-3.42-0.42","wtwln2x34o0v21v","79.csv","","352.40000000596046","resources/trios/L1T2A3.jpg","38","restless",0.4,0.5,0.5,0.613333738899004,"false"
"image-keyboard-response",138,193490,"0.0-3.42-1.42","wtwln2x34o0v21v","79.csv","","null","resources/maskTrios/BT2B.jpg","null","",NA,NA,NA,NA,""
"image-keyboard-response",139,194696,"0.0-3.42-2.42","wtwln2x34o0v21v","79.csv","","null","resources/images/fishbone.png","null","",NA,NA,NA,NA,""
"image-keyboard-response",140,195795,"0.0-3.43-0.43","wtwln2x34o0v21v","79.csv","","1096.7000000178814","resources/trios/L4T2A3.jpg","39","restless",0.4,0.5,0.5,0.061317094229578,"true"
"image-keyboard-response",141,196200,"0.0-3.43-1.43","wtwln2x34o0v21v","79.csv","","null","resources/maskTrios/BBA3.jpg","null","",NA,NA,NA,NA,""
"image-keyboard-response",142,197407,"0.0-3.43-2.43","wtwln2x34o0v21v","79.csv","","null","resources/images/coin2.png","null","",NA,NA,NA,NA,""
"image-keyboard-response",143,197885,"0.0-3.44-0.44","wtwln2x34o0v21v","79.csv","","476.09999999403954","resources/trios/L1T1A2.jpg","39","restless",0.4,0.5,0.5,0.388997211198025,"true"
"image-keyboard-response",144,198293,"0.0-3.44-1.44","wtwln2x34o0v21v","79.csv","","null","resources/maskTrios/BBA2.jpg","null","",NA,NA,NA,NA,""
"image-keyboard-response",145,199499,"0.0-3.44-2.44","wtwln2x34o0v21v","79.csv","","null","resources/images/coin2.png","null","",NA,NA,NA,NA,""
"image-keyboard-response",146,200256,"0.0-3.45-0.45","wtwln2x34o0v21v","79.csv","","755.3000000119209","resources/trios/L1T1A3.jpg","37","restless",0.4,0.5,0.5,0.355624125988614,"true"
"image-keyboard-response",147,200664,"0.0-3.45-1.45","wtwln2x34o0v21v","79.csv","","null","resources/maskTrios/L1BB.jpg","null","",NA,NA,NA,NA,""
"image-keyboard-response",148,201871,"0.0-3.45-2.45","wtwln2x34o0v21v","79.csv","","null","resources/images/coin2.png","null","",NA,NA,NA,NA,""
"image-keyboard-response",149,202269,"0.0-3.46-0.46","wtwln2x34o0v21v","79.csv","","395.7000000178814","resources/trios/L4T2A3.jpg","39","restless",0.4,0.5,0.5,0.105503772075546,"true"
"image-keyboard-response",150,202676,"0.0-3.46-1.46","wtwln2x34o0v21v","79.csv","","null","resources/maskTrios/BBA3.jpg","null","",NA,NA,NA,NA,""
"image-keyboard-response",151,203884,"0.0-3.46-2.46","wtwln2x34o0v21v","79.csv","","null","resources/images/coin2.png","null","",NA,NA,NA,NA,""
"image-keyboard-response",152,204260,"0.0-3.47-0.47","wtwln2x34o0v21v","79.csv","","373.5","resources/trios/L4T1A3.jpg","37","restless",0.4,0.5,0.5,0.563583295992995,"false"
"image-keyboard-response",153,204667,"0.0-3.47-1.47","wtwln2x34o0v21v","79.csv","","null","resources/maskTrios/L4BB.jpg","null","",NA,NA,NA,NA,""
"image-keyboard-response",154,205874,"0.0-3.47-2.47","wtwln2x34o0v21v","79.csv","","null","resources/images/fishbone.png","null","",NA,NA,NA,NA,""
"image-keyboard-response",155,206480,"0.0-3.48-0.48","wtwln2x34o0v21v","79.csv","","603.6999999880791","resources/trios/L1T2A2.jpg","38","restless",0.4,0.5,0.5,0.97942236411609,"false"
"image-keyboard-response",156,206886,"0.0-3.48-1.48","wtwln2x34o0v21v","79.csv","","null","resources/maskTrios/BT2B.jpg","null","",NA,NA,NA,NA,""
"image-keyboard-response",157,208093,"0.0-3.48-2.48","wtwln2x34o0v21v","79.csv","","null","resources/images/fishbone.png","null","",NA,NA,NA,NA,""
"image-keyboard-response",158,208546,"0.0-3.49-0.49","wtwln2x34o0v21v","79.csv","","451.30000001192093","resources/trios/L1T1A3.jpg","39","restless",0.4,0.5,0.6,0.94018844135157,"false"
"image-keyboard-response",159,208954,"0.0-3.49-1.49","wtwln2x34o0v21v","79.csv","","null","resources/maskTrios/BBA3.jpg","null","",NA,NA,NA,NA,""
"image-keyboard-response",160,210159,"0.0-3.49-2.49","wtwln2x34o0v21v","79.csv","","null","resources/images/fishbone.png","null","",NA,NA,NA,NA,""
"image-keyboard-response",161,210580,"0.0-3.50-0.50","wtwln2x34o0v21v","79.csv","","418.80000001192093","resources/trios/L1T2A3.jpg","39","restless",0.4,0.5,0.6,0.38438255972249,"true"
"image-keyboard-response",162,210988,"0.0-3.50-1.50","wtwln2x34o0v21v","79.csv","","null","resources/maskTrios/BBA3.jpg","null","",NA,NA,NA,NA,""
"image-keyboard-response",163,212195,"0.0-3.50-2.50","wtwln2x34o0v21v","79.csv","","null","resources/images/coin2.png","null","",NA,NA,NA,NA,""
"image-keyboard-response",164,213290,"0.0-3.51-0.51","wtwln2x34o0v21v","79.csv","","1092.4000000059605","resources/trios/L1T1A3.jpg","37","restless",0.4,0.5,0.6,0.608241275869866,"false"
"image-keyboard-response",165,213697,"0.0-3.51-1.51","wtwln2x34o0v21v","79.csv","","null","resources/maskTrios/L1BB.jpg","null","",NA,NA,NA,NA,""
"image-keyboard-response",166,214904,"0.0-3.51-2.51","wtwln2x34o0v21v","79.csv","","null","resources/images/fishbone.png","null","",NA,NA,NA,NA,""
"image-keyboard-response",167,215345,"0.0-3.52-0.52","wtwln2x34o0v21v","79.csv","","438.40000000596046","resources/trios/L1T1A3.jpg","39","restless",0.4,0.5,0.7,0.68036633742452,"true"
"image-keyboard-response",168,215753,"0.0-3.52-1.52","wtwln2x34o0v21v","79.csv","","null","resources/maskTrios/BBA3.jpg","null","",NA,NA,NA,NA,""
"image-keyboard-response",169,216960,"0.0-3.52-2.52","wtwln2x34o0v21v","79.csv","","null","resources/images/coin2.png","null","",NA,NA,NA,NA,""
"image-keyboard-response",170,217390,"0.0-3.53-0.53","wtwln2x34o0v21v","79.csv","","428.19999998807907","resources/trios/L1T1A3.jpg","38","restless",0.4,0.5,0.7,0.433056899540951,"true"
"image-keyboard-response",171,217798,"0.0-3.53-1.53","wtwln2x34o0v21v","79.csv","","null","resources/maskTrios/BT1B.jpg","null","",NA,NA,NA,NA,""
"image-keyboard-response",172,219002,"0.0-3.53-2.53","wtwln2x34o0v21v","79.csv","","null","resources/images/coin2.png","null","",NA,NA,NA,NA,""
"image-keyboard-response",173,219588,"0.0-3.54-0.54","wtwln2x34o0v21v","79.csv","","583.4000000059605","resources/trios/L1T2A2.jpg","38","restless",0.4,0.5,0.6,0.608775001933123,"false"
"image-keyboard-response",174,219995,"0.0-3.54-1.54","wtwln2x34o0v21v","79.csv","","null","resources/maskTrios/BT2B.jpg","null","",NA,NA,NA,NA,""
"image-keyboard-response",175,221202,"0.0-3.54-2.54","wtwln2x34o0v21v","79.csv","","null","resources/images/fishbone.png","null","",NA,NA,NA,NA,""
"image-keyboard-response",176,221441,"0.0-3.55-0.55","wtwln2x34o0v21v","79.csv","","236.69999998807907","resources/trios/L4T2A2.jpg","37","restless",0.4,0.5,0.6,0.363184258931565,"true"
"image-keyboard-response",177,221849,"0.0-3.55-1.55","wtwln2x34o0v21v","79.csv","","null","resources/maskTrios/L4BB.jpg","null","",NA,NA,NA,NA,""
"image-keyboard-response",178,223056,"0.0-3.55-2.55","wtwln2x34o0v21v","79.csv","","null","resources/images/coin2.png","null","",NA,NA,NA,NA,""
"image-keyboard-response",179,223863,"0.0-3.56-0.56","wtwln2x34o0v21v","79.csv","","804.4000000059605","resources/trios/L4T2A3.jpg","39","restless",0.4,0.5,0.7,0.216162081927197,"true"
"image-keyboard-response",180,224266,"0.0-3.56-1.56","wtwln2x34o0v21v","79.csv","","null","resources/maskTrios/BBA3.jpg","null","",NA,NA,NA,NA,""
"image-keyboard-response",181,225473,"0.0-3.56-2.56","wtwln2x34o0v21v","79.csv","","null","resources/images/coin2.png","null","",NA,NA,NA,NA,""
"image-keyboard-response",182,226949,"0.0-3.57-0.57","wtwln2x34o0v21v","79.csv","","1473.7999999821186","resources/trios/L4T2A2.jpg","38","restless",0.4,0.5,0.7,0.895150119691933,"false"
"image-keyboard-response",183,227357,"0.0-3.57-1.57","wtwln2x34o0v21v","79.csv","","null","resources/maskTrios/BT2B.jpg","null","",NA,NA,NA,NA,""
"image-keyboard-response",184,228564,"0.0-3.57-2.57","wtwln2x34o0v21v","79.csv","","null","resources/images/fishbone.png","null","",NA,NA,NA,NA,""
"image-keyboard-response",185,228826,"0.0-3.58-0.58","wtwln2x34o0v21v","79.csv","","258.59999999403954","resources/trios/L1T2A2.jpg","37","restless",0.4,0.5,0.7,0.582016022137777,"false"
"image-keyboard-response",186,229233,"0.0-3.58-1.58","wtwln2x34o0v21v","79.csv","","null","resources/maskTrios/L1BB.jpg","null","",NA,NA,NA,NA,""
"image-keyboard-response",187,230440,"0.0-3.58-2.58","wtwln2x34o0v21v","79.csv","","null","resources/images/fishbone.png","null","",NA,NA,NA,NA,""
"image-keyboard-response",188,230569,"0.0-3.59-0.59","wtwln2x34o0v21v","79.csv","","127.19999998807907","resources/trios/L1T1A3.jpg","39","restless",0.4,0.5,0.6,0.917341249333901,"false"
"image-keyboard-response",189,230976,"0.0-3.59-1.59","wtwln2x34o0v21v","79.csv","","null","resources/maskTrios/BBA3.jpg","null","",NA,NA,NA,NA,""
"image-keyboard-response",190,232180,"0.0-3.59-2.59","wtwln2x34o0v21v","79.csv","","null","resources/images/fishbone.png","null","",NA,NA,NA,NA,""
"image-keyboard-response",191,232523,"0.0-3.60-0.60","wtwln2x34o0v21v","79.csv","","341.59999999403954","resources/trios/L4T1A3.jpg","38","restless",0.4,0.5,0.7,0.354088828603363,"true"
"image-keyboard-response",192,232930,"0.0-3.60-1.60","wtwln2x34o0v21v","79.csv","","null","resources/maskTrios/BT1B.jpg","null","",NA,NA,NA,NA,""
"image-keyboard-response",193,234138,"0.0-3.60-2.60","wtwln2x34o0v21v","79.csv","","null","resources/images/coin2.png","null","",NA,NA,NA,NA,""
"image-keyboard-response",194,234245,"0.0-3.61-0.61","wtwln2x34o0v21v","79.csv","","105.5","resources/trios/L1T1A2.jpg","38","restless",0.4,0.5,0.7,0.355549395058487,"true"
"image-keyboard-response",195,234652,"0.0-3.61-1.61","wtwln2x34o0v21v","79.csv","","null","resources/maskTrios/BT1B.jpg","null","",NA,NA,NA,NA,""
"image-keyboard-response",196,235859,"0.0-3.61-2.61","wtwln2x34o0v21v","79.csv","","null","resources/images/coin2.png","null","",NA,NA,NA,NA,""
"image-keyboard-response",197,236801,"0.0-3.62-0.62","wtwln2x34o0v21v","79.csv","","939.3000000119209","resources/trios/L4T2A2.jpg","38","restless",0.4,0.5,0.7,0.786380916153905,"false"
"image-keyboard-response",198,237208,"0.0-3.62-1.62","wtwln2x34o0v21v","79.csv","","null","resources/maskTrios/BT2B.jpg","null","",NA,NA,NA,NA,""
"image-keyboard-response",199,238414,"0.0-3.62-2.62","wtwln2x34o0v21v","79.csv","","null","resources/images/fishbone.png","null","",NA,NA,NA,NA,""
"image-keyboard-response",200,238603,"0.0-3.63-0.63","wtwln2x34o0v21v","79.csv","","186.69999998807907","resources/trios/L4T2A3.jpg","37","restless",0.3,0.5,0.7,0.736738318758199,"false"
"image-keyboard-response",201,239010,"0.0-3.63-1.63","wtwln2x34o0v21v","79.csv","","null","resources/maskTrios/L4BB.jpg","null","",NA,NA,NA,NA,""
"image-keyboard-response",202,240217,"0.0-3.63-2.63","wtwln2x34o0v21v","79.csv","","null","resources/images/fishbone.png","null","",NA,NA,NA,NA,""
"image-keyboard-response",203,240963,"0.0-3.64-0.64","wtwln2x34o0v21v","79.csv","","743.8000000119209","resources/trios/L4T2A3.jpg","39","restless",0.3,0.5,0.7,0.753061887730565,"false"
"image-keyboard-response",204,241371,"0.0-3.64-1.64","wtwln2x34o0v21v","79.csv","","null","resources/maskTrios/BBA3.jpg","null","",NA,NA,NA,NA,""
"image-keyboard-response",205,242578,"0.0-3.64-2.64","wtwln2x34o0v21v","79.csv","","null","resources/images/fishbone.png","null","",NA,NA,NA,NA,""
"image-keyboard-response",206,247972,"0.0-3.65-0.65","wtwln2x34o0v21v","79.csv","","5392.300000011921","resources/trios/L1T1A2.jpg","39","restless",0.3,0.6,0.7,0.9036571087476,"false"
"image-keyboard-response",207,248380,"0.0-3.65-1.65","wtwln2x34o0v21v","79.csv","","null","resources/maskTrios/BBA2.jpg","null","",NA,NA,NA,NA,""
"image-keyboard-response",208,249587,"0.0-3.65-2.65","wtwln2x34o0v21v","79.csv","","null","resources/images/fishbone.png","null","",NA,NA,NA,NA,""
"image-keyboard-response",209,249975,"0.0-3.66-0.66","wtwln2x34o0v21v","79.csv","","386.5","resources/trios/L1T1A2.jpg","38","restless",0.3,0.6,0.8,0.36496731778545,"true"
"image-keyboard-response",210,250382,"0.0-3.66-1.66","wtwln2x34o0v21v","79.csv","","null","resources/maskTrios/BT1B.jpg","null","",NA,NA,NA,NA,""
"image-keyboard-response",211,251590,"0.0-3.66-2.66","wtwln2x34o0v21v","79.csv","","null","resources/images/coin2.png","null","",NA,NA,NA,NA,""
"image-keyboard-response",212,252484,"0.0-3.67-0.67","wtwln2x34o0v21v","79.csv","","891.7999999821186","resources/trios/L1T1A2.jpg","38","restless",0.3,0.6,0.8,0.102157494582918,"true"
"image-keyboard-response",213,252891,"0.0-3.67-1.67","wtwln2x34o0v21v","79.csv","","null","resources/maskTrios/BT1B.jpg","null","",NA,NA,NA,NA,""
"image-keyboard-response",214,254098,"0.0-3.67-2.67","wtwln2x34o0v21v","79.csv","","null","resources/images/coin2.png","null","",NA,NA,NA,NA,""
"image-keyboard-response",215,254469,"0.0-3.68-0.68","wtwln2x34o0v21v","79.csv","","369.90000000596046","resources/trios/L1T2A2.jpg","38","restless",0.3,0.6,0.8,0.31443517387475,"true"
"image-keyboard-response",216,254877,"0.0-3.68-1.68","wtwln2x34o0v21v","79.csv","","null","resources/maskTrios/BT2B.jpg","null","",NA,NA,NA,NA,""
"image-keyboard-response",217,256084,"0.0-3.68-2.68","wtwln2x34o0v21v","79.csv","","null","resources/images/coin2.png","null","",NA,NA,NA,NA,""
"image-keyboard-response",218,256419,"0.0-3.69-0.69","wtwln2x34o0v21v","79.csv","","332.7999999821186","resources/trios/L4T2A2.jpg","37","restless",0.3,0.6,0.8,0.24495467870969,"true"
"image-keyboard-response",219,256827,"0.0-3.69-1.69","wtwln2x34o0v21v","79.csv","","null","resources/maskTrios/L4BB.jpg","null","",NA,NA,NA,NA,""
"image-keyboard-response",220,258034,"0.0-3.69-2.69","wtwln2x34o0v21v","79.csv","","null","resources/images/coin2.png","null","",NA,NA,NA,NA,""
"image-keyboard-response",221,258393,"0.0-3.70-0.70","wtwln2x34o0v21v","79.csv","","356.40000000596046","resources/trios/L4T1A2.jpg","37","restless",0.3,0.6,0.8,0.305831975347746,"false"
"image-keyboard-response",222,258800,"0.0-3.70-1.70","wtwln2x34o0v21v","79.csv","","null","resources/maskTrios/L4BB.jpg","null","",NA,NA,NA,NA,""
"image-keyboard-response",223,260007,"0.0-3.70-2.70","wtwln2x34o0v21v","79.csv","","null","resources/images/fishbone.png","null","",NA,NA,NA,NA,""
"image-keyboard-response",224,260613,"0.0-3.71-0.71","wtwln2x34o0v21v","79.csv","","604.0999999940395","resources/trios/L4T2A2.jpg","39","restless",0.3,0.6,0.8,0.992029079731596,"false"
"image-keyboard-response",225,261021,"0.0-3.71-1.71","wtwln2x34o0v21v","79.csv","","null","resources/maskTrios/BBA2.jpg","null","",NA,NA,NA,NA,""
"image-keyboard-response",226,262228,"0.0-3.71-2.71","wtwln2x34o0v21v","79.csv","","null","resources/images/fishbone.png","null","",NA,NA,NA,NA,""
"image-keyboard-response",227,262537,"0.0-3.72-0.72","wtwln2x34o0v21v","79.csv","","307.19999998807907","resources/trios/L4T2A3.jpg","38","restless",0.3,0.6,0.8,0.482445730881562,"true"
"image-keyboard-response",228,262945,"0.0-3.72-1.72","wtwln2x34o0v21v","79.csv","","null","resources/maskTrios/BT2B.jpg","null","",NA,NA,NA,NA,""
"image-keyboard-response",229,264152,"0.0-3.72-2.72","wtwln2x34o0v21v","79.csv","","null","resources/images/coin2.png","null","",NA,NA,NA,NA,""
"image-keyboard-response",230,264582,"0.0-3.73-0.73","wtwln2x34o0v21v","79.csv","","427.69999998807907","resources/trios/L1T1A2.jpg","38","restless",0.3,0.6,0.8,0.707462147259822,"false"
"image-keyboard-response",231,264986,"0.0-3.73-1.73","wtwln2x34o0v21v","79.csv","","null","resources/maskTrios/BT1B.jpg","null","",NA,NA,NA,NA,""
"image-keyboard-response",232,266193,"0.0-3.73-2.73","wtwln2x34o0v21v","79.csv","","null","resources/images/fishbone.png","null","",NA,NA,NA,NA,""
"image-keyboard-response",233,266472,"0.0-3.74-0.74","wtwln2x34o0v21v","79.csv","","276.5","resources/trios/L4T1A2.jpg","37","restless",0.4,0.6,0.8,0.0534243884336343,"true"
"image-keyboard-response",234,266879,"0.0-3.74-1.74","wtwln2x34o0v21v","79.csv","","null","resources/maskTrios/L4BB.jpg","null","",NA,NA,NA,NA,""
"image-keyboard-response",235,268086,"0.0-3.74-2.74","wtwln2x34o0v21v","79.csv","","null","resources/images/coin2.png","null","",NA,NA,NA,NA,""
"image-keyboard-response",236,268633,"0.0-3.75-0.75","wtwln2x34o0v21v","79.csv","","544.8000000119209","resources/trios/L1T1A2.jpg","37","restless",0.4,0.6,0.8,0.780977811048048,"false"
"image-keyboard-response",237,269040,"0.0-3.75-1.75","wtwln2x34o0v21v","79.csv","","null","resources/maskTrios/L1BB.jpg","null","",NA,NA,NA,NA,""
"image-keyboard-response",238,270245,"0.0-3.75-2.75","wtwln2x34o0v21v","79.csv","","null","resources/images/fishbone.png","null","",NA,NA,NA,NA,""
"image-keyboard-response",239,270542,"0.0-3.76-0.76","wtwln2x34o0v21v","79.csv","","295.40000000596046","resources/trios/L4T2A2.jpg","38","restless",0.4,0.6,0.8,0.250809214752341,"true"
"image-keyboard-response",240,270947,"0.0-3.76-1.76","wtwln2x34o0v21v","79.csv","","null","resources/maskTrios/BT2B.jpg","null","",NA,NA,NA,NA,""
"image-keyboard-response",241,272151,"0.0-3.76-2.76","wtwln2x34o0v21v","79.csv","","null","resources/images/coin2.png","null","",NA,NA,NA,NA,""
"image-keyboard-response",242,273028,"0.0-3.77-0.77","wtwln2x34o0v21v","79.csv","","875","resources/trios/L1T2A2.jpg","38","restless",0.3,0.6,0.8,0.46265090234703,"true"
"image-keyboard-response",243,273436,"0.0-3.77-1.77","wtwln2x34o0v21v","79.csv","","null","resources/maskTrios/BT2B.jpg","null","",NA,NA,NA,NA,""
"image-keyboard-response",244,274643,"0.0-3.77-2.77","wtwln2x34o0v21v","79.csv","","null","resources/images/coin2.png","null","",NA,NA,NA,NA,""
"image-keyboard-response",245,275026,"0.0-3.78-0.78","wtwln2x34o0v21v","79.csv","","380.59999999403954","resources/trios/L4T2A3.jpg","37","restless",0.3,0.6,0.8,0.668633378261586,"false"
"image-keyboard-response",246,275433,"0.0-3.78-1.78","wtwln2x34o0v21v","79.csv","","null","resources/maskTrios/L4BB.jpg","null","",NA,NA,NA,NA,""
"image-keyboard-response",247,276640,"0.0-3.78-2.78","wtwln2x34o0v21v","79.csv","","null","resources/images/fishbone.png","null","",NA,NA,NA,NA,""
"image-keyboard-response",248,276956,"0.0-3.79-0.79","wtwln2x34o0v21v","79.csv","","313.39999997615814","resources/trios/L4T2A2.jpg","39","restless",0.3,0.6,0.8,0.662010745436157,"true"
"image-keyboard-response",249,277362,"0.0-3.79-1.79","wtwln2x34o0v21v","79.csv","","null","resources/maskTrios/BBA2.jpg","null","",NA,NA,NA,NA,""
"image-keyboard-response",250,278570,"0.0-3.79-2.79","wtwln2x34o0v21v","79.csv","","null","resources/images/coin2.png","null","",NA,NA,NA,NA,""
"image-keyboard-response",251,278850,"0.0-3.80-0.80","wtwln2x34o0v21v","79.csv","","278.19999998807907","resources/trios/L4T1A3.jpg","39","restless",0.3,0.6,0.8,0.352034591139383,"true"
"image-keyboard-response",252,279254,"0.0-3.80-1.80","wtwln2x34o0v21v","79.csv","","null","resources/maskTrios/BBA3.jpg","null","",NA,NA,NA,NA,""
"image-keyboard-response",253,280461,"0.0-3.80-2.80","wtwln2x34o0v21v","79.csv","","null","resources/images/coin2.png","null","",NA,NA,NA,NA,""
"image-keyboard-response",254,280781,"0.0-3.81-0.81","wtwln2x34o0v21v","79.csv","","316.09999999403954","resources/trios/L4T2A3.jpg","39","restless",0.3,0.6,0.8,0.39548000109079,"true"
"image-keyboard-response",255,281188,"0.0-3.81-1.81","wtwln2x34o0v21v","79.csv","","null","resources/maskTrios/BBA3.jpg","null","",NA,NA,NA,NA,""
"image-keyboard-response",256,282395,"0.0-3.81-2.81","wtwln2x34o0v21v","79.csv","","null","resources/images/coin2.png","null","",NA,NA,NA,NA,""
"image-keyboard-response",257,282817,"0.0-3.82-0.82","wtwln2x34o0v21v","79.csv","","419.5","resources/trios/L1T1A2.jpg","39","restless",0.3,0.6,0.8,0.719568571565571,"true"
"image-keyboard-response",258,283224,"0.0-3.82-1.82","wtwln2x34o0v21v","79.csv","","null","resources/maskTrios/BBA2.jpg","null","",NA,NA,NA,NA,""
"image-keyboard-response",259,284428,"0.0-3.82-2.82","wtwln2x34o0v21v","79.csv","","null","resources/images/coin2.png","null","",NA,NA,NA,NA,""
"image-keyboard-response",260,284881,"0.0-3.83-0.83","wtwln2x34o0v21v","79.csv","","451.2000000178814","resources/trios/L4T1A2.jpg","39","restless",0.3,0.6,0.8,0.834985684645352,"false"
"image-keyboard-response",261,285287,"0.0-3.83-1.83","wtwln2x34o0v21v","79.csv","","null","resources/maskTrios/BBA2.jpg","null","",NA,NA,NA,NA,""
"image-keyboard-response",262,286494,"0.0-3.83-2.83","wtwln2x34o0v21v","79.csv","","null","resources/images/fishbone.png","null","",NA,NA,NA,NA,""
"image-keyboard-response",263,286808,"0.0-3.84-0.84","wtwln2x34o0v21v","79.csv","","312.59999999403954","resources/trios/L4T1A2.jpg","38","restless",0.3,0.6,0.9,0.994883176054686,"false"
"image-keyboard-response",264,287212,"0.0-3.84-1.84","wtwln2x34o0v21v","79.csv","","null","resources/maskTrios/BT1B.jpg","null","",NA,NA,NA,NA,""
"image-keyboard-response",265,288415,"0.0-3.84-2.84","wtwln2x34o0v21v","79.csv","","null","resources/images/fishbone.png","null","",NA,NA,NA,NA,""
"image-keyboard-response",266,288737,"0.0-3.85-0.85","wtwln2x34o0v21v","79.csv","","320.40000000596046","resources/trios/L1T2A2.jpg","37","restless",0.3,0.6,0.9,0.415073364447946,"false"
"image-keyboard-response",267,289140,"0.0-3.85-1.85","wtwln2x34o0v21v","79.csv","","null","resources/maskTrios/L1BB.jpg","null","",NA,NA,NA,NA,""
"image-keyboard-response",268,290347,"0.0-3.85-2.85","wtwln2x34o0v21v","79.csv","","null","resources/images/fishbone.png","null","",NA,NA,NA,NA,""
"image-keyboard-response",269,290731,"0.0-3.86-0.86","wtwln2x34o0v21v","79.csv","","380.7999999821186","resources/trios/L1T2A3.jpg","38","restless",0.3,0.6,0.9,0.272629402413319,"true"
"image-keyboard-response",270,291138,"0.0-3.86-1.86","wtwln2x34o0v21v","79.csv","","null","resources/maskTrios/BT2B.jpg","null","",NA,NA,NA,NA,""
"image-keyboard-response",271,292345,"0.0-3.86-2.86","wtwln2x34o0v21v","79.csv","","null","resources/images/coin2.png","null","",NA,NA,NA,NA,""
"image-keyboard-response",272,292630,"0.0-3.87-0.87","wtwln2x34o0v21v","79.csv","","281.90000000596046","resources/trios/L1T1A3.jpg","38","restless",0.4,0.6,0.9,0.369682235406487,"true"
"image-keyboard-response",273,293037,"0.0-3.87-1.87","wtwln2x34o0v21v","79.csv","","null","resources/maskTrios/BT1B.jpg","null","",NA,NA,NA,NA,""
"image-keyboard-response",274,294244,"0.0-3.87-2.87","wtwln2x34o0v21v","79.csv","","null","resources/images/coin2.png","null","",NA,NA,NA,NA,""
"image-keyboard-response",275,294607,"0.0-3.88-0.88","wtwln2x34o0v21v","79.csv","","360.80000001192093","resources/trios/L1T2A2.jpg","38","restless",0.4,0.6,0.9,0.285928512314132,"true"
"image-keyboard-response",276,295015,"0.0-3.88-1.88","wtwln2x34o0v21v","79.csv","","null","resources/maskTrios/BT2B.jpg","null","",NA,NA,NA,NA,""
"image-keyboard-response",277,296222,"0.0-3.88-2.88","wtwln2x34o0v21v","79.csv","","null","resources/images/coin2.png","null","",NA,NA,NA,NA,""
"image-keyboard-response",278,296464,"0.0-3.89-0.89","wtwln2x34o0v21v","79.csv","","240","resources/trios/L4T1A2.jpg","38","restless",0.5,0.6,0.8,0.876741687475283,"false"
"image-keyboard-response",279,296872,"0.0-3.89-1.89","wtwln2x34o0v21v","79.csv","","null","resources/maskTrios/BT1B.jpg","null","",NA,NA,NA,NA,""
"image-keyboard-response",280,298076,"0.0-3.89-2.89","wtwln2x34o0v21v","79.csv","","null","resources/images/fishbone.png","null","",NA,NA,NA,NA,""
"image-keyboard-response",281,298360,"0.0-3.90-0.90","wtwln2x34o0v21v","79.csv","","281.5","resources/trios/L1T2A2.jpg","39","restless",0.5,0.6,0.8,0.26934629882059,"true"
"image-keyboard-response",282,298764,"0.0-3.90-1.90","wtwln2x34o0v21v","79.csv","","null","resources/maskTrios/BBA2.jpg","null","",NA,NA,NA,NA,""
"image-keyboard-response",283,299971,"0.0-3.90-2.90","wtwln2x34o0v21v","79.csv","","null","resources/images/coin2.png","null","",NA,NA,NA,NA,""
"image-keyboard-response",284,300293,"0.0-3.91-0.91","wtwln2x34o0v21v","79.csv","","319.60000002384186","resources/trios/L1T2A3.jpg","39","restless",0.5,0.6,0.8,0.582387061243875,"true"
"image-keyboard-response",285,300698,"0.0-3.91-1.91","wtwln2x34o0v21v","79.csv","","null","resources/maskTrios/BBA3.jpg","null","",NA,NA,NA,NA,""
"image-keyboard-response",286,301905,"0.0-3.91-2.91","wtwln2x34o0v21v","79.csv","","null","resources/images/coin2.png","null","",NA,NA,NA,NA,""
"image-keyboard-response",287,302252,"0.0-3.92-0.92","wtwln2x34o0v21v","79.csv","","345","resources/trios/L1T1A2.jpg","39","restless",0.5,0.6,0.7,0.0875823356816061,"true"
"image-keyboard-response",288,302658,"0.0-3.92-1.92","wtwln2x34o0v21v","79.csv","","null","resources/maskTrios/BBA2.jpg","null","",NA,NA,NA,NA,""
"image-keyboard-response",289,303865,"0.0-3.92-2.92","wtwln2x34o0v21v","79.csv","","null","resources/images/coin2.png","null","",NA,NA,NA,NA,""
"image-keyboard-response",290,304292,"0.0-3.93-0.93","wtwln2x34o0v21v","79.csv","","424.5","resources/trios/L1T2A2.jpg","39","restless",0.5,0.6,0.7,0.150200259286806,"true"
"image-keyboard-response",291,304700,"0.0-3.93-1.93","wtwln2x34o0v21v","79.csv","","null","resources/maskTrios/BBA2.jpg","null","",NA,NA,NA,NA,""
"image-keyboard-response",292,305907,"0.0-3.93-2.93","wtwln2x34o0v21v","79.csv","","null","resources/images/coin2.png","null","",NA,NA,NA,NA,""
"image-keyboard-response",293,306138,"0.0-3.94-0.94","wtwln2x34o0v21v","79.csv","","228.59999999403954","resources/trios/L4T2A2.jpg","39","restless",0.5,0.6,0.7,0.607679726541884,"true"
"image-keyboard-response",294,306543,"0.0-3.94-1.94","wtwln2x34o0v21v","79.csv","","null","resources/maskTrios/BBA2.jpg","null","",NA,NA,NA,NA,""
"image-keyboard-response",295,307748,"0.0-3.94-2.94","wtwln2x34o0v21v","79.csv","","null","resources/images/coin2.png","null","",NA,NA,NA,NA,""
"image-keyboard-response",296,308364,"0.0-3.95-0.95","wtwln2x34o0v21v","79.csv","","613.3000000119209","resources/trios/L4T1A3.jpg","39","restless",0.5,0.6,0.7,0.092784077054664,"true"
"image-keyboard-response",297,308768,"0.0-3.95-1.95","wtwln2x34o0v21v","79.csv","","null","resources/maskTrios/BBA3.jpg","null","",NA,NA,NA,NA,""
"image-keyboard-response",298,309975,"0.0-3.95-2.95","wtwln2x34o0v21v","79.csv","","null","resources/images/coin2.png","null","",NA,NA,NA,NA,""
"image-keyboard-response",299,310265,"0.0-3.96-0.96","wtwln2x34o0v21v","79.csv","","287.40000000596046","resources/trios/L1T1A3.jpg","39","restless",0.5,0.6,0.7,0.00181559550189458,"true"
"image-keyboard-response",300,310673,"0.0-3.96-1.96","wtwln2x34o0v21v","79.csv","","null","resources/maskTrios/BBA3.jpg","null","",NA,NA,NA,NA,""
"image-keyboard-response",301,311880,"0.0-3.96-2.96","wtwln2x34o0v21v","79.csv","","null","resources/images/coin2.png","null","",NA,NA,NA,NA,""
"image-keyboard-response",302,312464,"0.0-3.97-0.97","wtwln2x34o0v21v","79.csv","","582.2000000178814","resources/trios/L4T2A3.jpg","39","restless",0.5,0.6,0.7,0.712961331813879,"false"
"image-keyboard-response",303,312869,"0.0-3.97-1.97","wtwln2x34o0v21v","79.csv","","null","resources/maskTrios/BBA3.jpg","null","",NA,NA,NA,NA,""
"image-keyboard-response",304,314074,"0.0-3.97-2.97","wtwln2x34o0v21v","79.csv","","null","resources/images/fishbone.png","null","",NA,NA,NA,NA,""
"image-keyboard-response",305,314443,"0.0-3.98-0.98","wtwln2x34o0v21v","79.csv","","366.80000001192093","resources/trios/L1T2A2.jpg","38","restless",0.5,0.6,0.7,0.27085778141609,"true"
"image-keyboard-response",306,314851,"0.0-3.98-1.98","wtwln2x34o0v21v","79.csv","","null","resources/maskTrios/BT2B.jpg","null","",NA,NA,NA,NA,""
"image-keyboard-response",307,316058,"0.0-3.98-2.98","wtwln2x34o0v21v","79.csv","","null","resources/images/coin2.png","null","",NA,NA,NA,NA,""
"image-keyboard-response",308,316321,"0.0-3.99-0.99","wtwln2x34o0v21v","79.csv","","261","resources/trios/L1T1A3.jpg","38","restless",0.5,0.6,0.7,0.514110036508309,"true"
"image-keyboard-response",309,316729,"0.0-3.99-1.99","wtwln2x34o0v21v","79.csv","","null","resources/maskTrios/BT1B.jpg","null","",NA,NA,NA,NA,""
"image-keyboard-response",310,317931,"0.0-3.99-2.99","wtwln2x34o0v21v","79.csv","","null","resources/images/coin2.png","null","",NA,NA,NA,NA,""
"image-keyboard-response",311,318277,"0.0-3.100-0.100","wtwln2x34o0v21v","79.csv","","342.69999998807907","resources/trios/L1T2A2.jpg","38","restless",0.5,0.6,0.7,0.211257524516422,"true"
"image-keyboard-response",312,318683,"0.0-3.100-1.100","wtwln2x34o0v21v","79.csv","","null","resources/maskTrios/BT2B.jpg","null","",NA,NA,NA,NA,""
"image-keyboard-response",313,319890,"0.0-3.100-2.100","wtwln2x34o0v21v","79.csv","","null","resources/images/coin2.png","null","",NA,NA,NA,NA,""
"image-keyboard-response",314,319994,"0.0-3.101-0.101","wtwln2x34o0v21v","79.csv","","101.7000000178814","resources/trios/L4T2A3.jpg","38","restless",0.5,0.6,0.7,0.32125413327364,"true"
"image-keyboard-response",315,320397,"0.0-3.101-1.101","wtwln2x34o0v21v","79.csv","","null","resources/maskTrios/BT2B.jpg","null","",NA,NA,NA,NA,""
"image-keyboard-response",316,321605,"0.0-3.101-2.101","wtwln2x34o0v21v","79.csv","","null","resources/images/coin2.png","null","",NA,NA,NA,NA,""
"image-keyboard-response",317,322195,"0.0-3.102-0.102","wtwln2x34o0v21v","79.csv","","588.5","resources/trios/L4T1A3.jpg","38","restless",0.5,0.6,0.7,0.317089410604274,"true"
"image-keyboard-response",318,322600,"0.0-3.102-1.102","wtwln2x34o0v21v","79.csv","","null","resources/maskTrios/BT1B.jpg","null","",NA,NA,NA,NA,""
"image-keyboard-response",319,323807,"0.0-3.102-2.102","wtwln2x34o0v21v","79.csv","","null","resources/images/coin2.png","null","",NA,NA,NA,NA,""
"image-keyboard-response",320,324439,"0.0-3.103-0.103","wtwln2x34o0v21v","79.csv","","629.7999999821186","resources/trios/L4T2A2.jpg","38","restless",0.5,0.6,0.7,0.380310839936532,"true"
"image-keyboard-response",321,324847,"0.0-3.103-1.103","wtwln2x34o0v21v","79.csv","","null","resources/maskTrios/BT2B.jpg","null","",NA,NA,NA,NA,""
"image-keyboard-response",322,326054,"0.0-3.103-2.103","wtwln2x34o0v21v","79.csv","","null","resources/images/coin2.png","null","",NA,NA,NA,NA,""
"image-keyboard-response",323,326130,"0.0-3.104-0.104","wtwln2x34o0v21v","79.csv","","74.09999999403954","resources/trios/L1T1A3.jpg","38","restless",0.5,0.6,0.7,0.546256265619942,"true"
"image-keyboard-response",324,326538,"0.0-3.104-1.104","wtwln2x34o0v21v","79.csv","","null","resources/maskTrios/BT1B.jpg","null","",NA,NA,NA,NA,""
"image-keyboard-response",325,327745,"0.0-3.104-2.104","wtwln2x34o0v21v","79.csv","","null","resources/images/coin2.png","null","",NA,NA,NA,NA,""
"image-keyboard-response",326,328112,"0.0-3.105-0.105","wtwln2x34o0v21v","79.csv","","365.19999998807907","resources/trios/L1T1A3.jpg","38","restless",0.5,0.6,0.7,0.799964319124265,"false"
"image-keyboard-response",327,328519,"0.0-3.105-1.105","wtwln2x34o0v21v","79.csv","","null","resources/maskTrios/BT1B.jpg","null","",NA,NA,NA,NA,""
"image-keyboard-response",328,329723,"0.0-3.105-2.105","wtwln2x34o0v21v","79.csv","","null","resources/images/fishbone.png","null","",NA,NA,NA,NA,""
"image-keyboard-response",329,330180,"0.0-3.106-0.106","wtwln2x34o0v21v","79.csv","","455","resources/trios/L1T2A2.jpg","37","restless",0.5,0.6,0.7,0.785275483986702,"false"
"image-keyboard-response",330,330588,"0.0-3.106-1.106","wtwln2x34o0v21v","79.csv","","null","resources/maskTrios/L1BB.jpg","null","",NA,NA,NA,NA,""
"image-keyboard-response",331,331795,"0.0-3.106-2.106","wtwln2x34o0v21v","79.csv","","null","resources/images/fishbone.png","null","",NA,NA,NA,NA,""
"image-keyboard-response",332,332072,"0.0-3.107-0.107","wtwln2x34o0v21v","79.csv","","275.40000000596046","resources/trios/L4T2A2.jpg","39","restless",0.5,0.6,0.7,0.0426425265221684,"true"
"image-keyboard-response",333,332480,"0.0-3.107-1.107","wtwln2x34o0v21v","79.csv","","null","resources/maskTrios/BBA2.jpg","null","",NA,NA,NA,NA,""
"image-keyboard-response",334,333686,"0.0-3.107-2.107","wtwln2x34o0v21v","79.csv","","null","resources/images/coin2.png","null","",NA,NA,NA,NA,""
"image-keyboard-response",335,334049,"0.0-3.108-0.108","wtwln2x34o0v21v","79.csv","","360.90000000596046","resources/trios/L1T2A2.jpg","39","restless",0.5,0.6,0.7,0.188873297725628,"true"
"image-keyboard-response",336,334456,"0.0-3.108-1.108","wtwln2x34o0v21v","79.csv","","null","resources/maskTrios/BBA2.jpg","null","",NA,NA,NA,NA,""
"image-keyboard-response",337,335661,"0.0-3.108-2.108","wtwln2x34o0v21v","79.csv","","null","resources/images/coin2.png","null","",NA,NA,NA,NA,""
"image-keyboard-response",338,336357,"0.0-3.109-0.109","wtwln2x34o0v21v","79.csv","","693.0999999940395","resources/trios/L1T1A2.jpg","39","restless",0.5,0.6,0.7,0.965688900663022,"false"
"image-keyboard-response",339,336764,"0.0-3.109-1.109","wtwln2x34o0v21v","79.csv","","null","resources/maskTrios/BBA2.jpg","null","",NA,NA,NA,NA,""
"image-keyboard-response",340,337970,"0.0-3.109-2.109","wtwln2x34o0v21v","79.csv","","null","resources/images/fishbone.png","null","",NA,NA,NA,NA,""
"image-keyboard-response",341,338540,"0.0-3.110-0.110","wtwln2x34o0v21v","79.csv","","567.9000000059605","resources/trios/L4T1A2.jpg","38","restless",0.5,0.6,0.7,0.0850781252843409,"true"
"image-keyboard-response",342,338948,"0.0-3.110-1.110","wtwln2x34o0v21v","79.csv","","null","resources/maskTrios/BT1B.jpg","null","",NA,NA,NA,NA,""
"image-keyboard-response",343,340153,"0.0-3.110-2.110","wtwln2x34o0v21v","79.csv","","null","resources/images/coin2.png","null","",NA,NA,NA,NA,""
"image-keyboard-response",344,340697,"0.0-3.111-0.111","wtwln2x34o0v21v","79.csv","","541.6999999880791","resources/trios/L1T1A3.jpg","38","restless",0.5,0.6,0.8,0.117777861044357,"true"
"image-keyboard-response",345,341103,"0.0-3.111-1.111","wtwln2x34o0v21v","79.csv","","null","resources/maskTrios/BT1B.jpg","null","",NA,NA,NA,NA,""
"image-keyboard-response",346,342310,"0.0-3.111-2.111","wtwln2x34o0v21v","79.csv","","null","resources/images/coin2.png","null","",NA,NA,NA,NA,""
"image-keyboard-response",347,342650,"0.0-3.112-0.112","wtwln2x34o0v21v","79.csv","","337.40000000596046","resources/trios/L1T2A3.jpg","38","restless",0.5,0.6,0.8,0.0477397478034329,"true"
"image-keyboard-response",348,343056,"0.0-3.112-1.112","wtwln2x34o0v21v","79.csv","","null","resources/maskTrios/BT2B.jpg","null","",NA,NA,NA,NA,""
"image-keyboard-response",349,344263,"0.0-3.112-2.112","wtwln2x34o0v21v","79.csv","","null","resources/images/coin2.png","null","",NA,NA,NA,NA,""
"image-keyboard-response",350,344912,"0.0-3.113-0.113","wtwln2x34o0v21v","79.csv","","646.5999999940395","resources/trios/L1T1A2.jpg","38","restless",0.5,0.6,0.8,0.716461998064959,"false"
"image-keyboard-response",351,345319,"0.0-3.113-1.113","wtwln2x34o0v21v","79.csv","","null","resources/maskTrios/BT1B.jpg","null","",NA,NA,NA,NA,""
"image-keyboard-response",352,346522,"0.0-3.113-2.113","wtwln2x34o0v21v","79.csv","","null","resources/images/fishbone.png","null","",NA,NA,NA,NA,""
"image-keyboard-response",353,346767,"0.0-3.114-0.114","wtwln2x34o0v21v","79.csv","","243.40000000596046","resources/trios/L1T2A2.jpg","37","restless",0.5,0.5,0.8,0.0655269118697452,"true"
"image-keyboard-response",354,347174,"0.0-3.114-1.114","wtwln2x34o0v21v","79.csv","","null","resources/maskTrios/L1BB.jpg","null","",NA,NA,NA,NA,""
"image-keyboard-response",355,348378,"0.0-3.114-2.114","wtwln2x34o0v21v","79.csv","","null","resources/images/coin2.png","null","",NA,NA,NA,NA,""
"image-keyboard-response",356,348789,"0.0-3.115-0.115","wtwln2x34o0v21v","79.csv","","408.89999997615814","resources/trios/L4T2A3.jpg","37","restless",0.5,0.5,0.8,0.382144676874653,"true"
"image-keyboard-response",357,349197,"0.0-3.115-1.115","wtwln2x34o0v21v","79.csv","","null","resources/maskTrios/L4BB.jpg","null","",NA,NA,NA,NA,""
"image-keyboard-response",358,350404,"0.0-3.115-2.115","wtwln2x34o0v21v","79.csv","","null","resources/images/coin2.png","null","",NA,NA,NA,NA,""
"image-keyboard-response",359,350989,"0.0-3.116-0.116","wtwln2x34o0v21v","79.csv","","583.3999999761581","resources/trios/L1T1A3.jpg","37","restless",0.5,0.5,0.8,0.419634504261055,"true"
"image-keyboard-response",360,351397,"0.0-3.116-1.116","wtwln2x34o0v21v","79.csv","","null","resources/maskTrios/L1BB.jpg","null","",NA,NA,NA,NA,""
"image-keyboard-response",361,352603,"0.0-3.116-2.116","wtwln2x34o0v21v","79.csv","","null","resources/images/coin2.png","null","",NA,NA,NA,NA,""
"image-keyboard-response",362,353388,"0.0-3.117-0.117","wtwln2x34o0v21v","79.csv","","782.2999999821186","resources/trios/L1T1A3.jpg","37","restless",0.5,0.5,0.8,0.534062353964568,"false"
"image-keyboard-response",363,353795,"0.0-3.117-1.117","wtwln2x34o0v21v","79.csv","","null","resources/maskTrios/L1BB.jpg","null","",NA,NA,NA,NA,""
"image-keyboard-response",364,355002,"0.0-3.117-2.117","wtwln2x34o0v21v","79.csv","","null","resources/images/fishbone.png","null","",NA,NA,NA,NA,""
"image-keyboard-response",365,355370,"0.0-3.118-0.118","wtwln2x34o0v21v","79.csv","","366","resources/trios/L4T1A2.jpg","39","restless",0.5,0.5,0.8,0.82743009667205,"false"
"image-keyboard-response",366,355777,"0.0-3.118-1.118","wtwln2x34o0v21v","79.csv","","null","resources/maskTrios/BBA2.jpg","null","",NA,NA,NA,NA,""
"image-keyboard-response",367,356984,"0.0-3.118-2.118","wtwln2x34o0v21v","79.csv","","null","resources/images/fishbone.png","null","",NA,NA,NA,NA,""
"image-keyboard-response",368,357462,"0.0-3.119-0.119","wtwln2x34o0v21v","79.csv","","476.10000002384186","resources/trios/L1T2A2.jpg","38","restless",0.5,0.5,0.8,0.839965120731366,"false"
"image-keyboard-response",369,357869,"0.0-3.119-1.119","wtwln2x34o0v21v","79.csv","","null","resources/maskTrios/BT2B.jpg","null","",NA,NA,NA,NA,""
"image-keyboard-response",370,359076,"0.0-3.119-2.119","wtwln2x34o0v21v","79.csv","","null","resources/images/fishbone.png","null","",NA,NA,NA,NA,""
"image-keyboard-response",371,359484,"0.0-3.120-0.120","wtwln2x34o0v21v","79.csv","","406.09999999403954","resources/trios/L4T2A3.jpg","37","restless",0.5,0.5,0.8,0.907160595390222,"false"
"image-keyboard-response",372,359891,"0.0-3.120-1.120","wtwln2x34o0v21v","79.csv","","null","resources/maskTrios/L4BB.jpg","null","",NA,NA,NA,NA,""
"image-keyboard-response",373,361098,"0.0-3.120-2.120","wtwln2x34o0v21v","79.csv","","null","resources/images/fishbone.png","null","",NA,NA,NA,NA,""
"image-keyboard-response",374,361606,"0.0-3.121-0.121","wtwln2x34o0v21v","79.csv","","505.90000000596046","resources/trios/L4T2A2.jpg","38","restless",0.5,0.5,0.8,0.466901563505325,"true"
"image-keyboard-response",375,362009,"0.0-3.121-1.121","wtwln2x34o0v21v","79.csv","","null","resources/maskTrios/BT2B.jpg","null","",NA,NA,NA,NA,""
"image-keyboard-response",376,363216,"0.0-3.121-2.121","wtwln2x34o0v21v","79.csv","","null","resources/images/coin2.png","null","",NA,NA,NA,NA,""
"image-keyboard-response",377,363653,"0.0-3.122-0.122","wtwln2x34o0v21v","79.csv","","434.5","resources/trios/L1T2A3.jpg","38","restless",0.5,0.6,0.9,0.885060741518766,"false"
"image-keyboard-response",378,364060,"0.0-3.122-1.122","wtwln2x34o0v21v","79.csv","","null","resources/maskTrios/BT2B.jpg","null","",NA,NA,NA,NA,""
"image-keyboard-response",379,365267,"0.0-3.122-2.122","wtwln2x34o0v21v","79.csv","","null","resources/images/fishbone.png","null","",NA,NA,NA,NA,""
"image-keyboard-response",380,366221,"0.0-3.123-0.123","wtwln2x34o0v21v","79.csv","","951.6999999880791","resources/trios/L4T2A2.jpg","37","restless",0.5,0.6,0.8,0.9281423907678,"false"
"image-keyboard-response",381,366628,"0.0-3.123-1.123","wtwln2x34o0v21v","79.csv","","null","resources/maskTrios/L4BB.jpg","null","",NA,NA,NA,NA,""
"image-keyboard-response",382,367835,"0.0-3.123-2.123","wtwln2x34o0v21v","79.csv","","null","resources/images/fishbone.png","null","",NA,NA,NA,NA,""
"image-keyboard-response",383,368213,"0.0-3.124-0.124","wtwln2x34o0v21v","79.csv","","375.09999999403954","resources/trios/L1T1A3.jpg","39","restless",0.5,0.6,0.8,0.127072637543006,"true"
"image-keyboard-response",384,368620,"0.0-3.124-1.124","wtwln2x34o0v21v","79.csv","","null","resources/maskTrios/BBA3.jpg","null","",NA,NA,NA,NA,""
"image-keyboard-response",385,369823,"0.0-3.124-2.124","wtwln2x34o0v21v","79.csv","","null","resources/images/coin2.png","null","",NA,NA,NA,NA,""
"image-keyboard-response",386,370096,"0.0-3.125-0.125","wtwln2x34o0v21v","79.csv","","270.80000001192093","resources/trios/L1T1A2.jpg","39","restless",0.5,0.7,0.8,0.402540831307879,"true"
"image-keyboard-response",387,370504,"0.0-3.125-1.125","wtwln2x34o0v21v","79.csv","","null","resources/maskTrios/BBA2.jpg","null","",NA,NA,NA,NA,""
"image-keyboard-response",388,371707,"0.0-3.125-2.125","wtwln2x34o0v21v","79.csv","","null","resources/images/coin2.png","null","",NA,NA,NA,NA,""
"image-keyboard-response",389,372240,"0.0-3.126-0.126","wtwln2x34o0v21v","79.csv","","529.8999999761581","resources/trios/L4T1A3.jpg","39","restless",0.5,0.7,0.8,0.442272285986816,"true"
"image-keyboard-response",390,372647,"0.0-3.126-1.126","wtwln2x34o0v21v","79.csv","","null","resources/maskTrios/BBA3.jpg","null","",NA,NA,NA,NA,""
"image-keyboard-response",391,373854,"0.0-3.126-2.126","wtwln2x34o0v21v","79.csv","","null","resources/images/coin2.png","null","",NA,NA,NA,NA,""
"image-keyboard-response",392,374341,"0.0-3.127-0.127","wtwln2x34o0v21v","79.csv","","484.5","resources/trios/L4T1A3.jpg","39","restless",0.5,0.7,0.8,0.1711578970505,"true"
"image-keyboard-response",393,374749,"0.0-3.127-1.127","wtwln2x34o0v21v","79.csv","","null","resources/maskTrios/BBA3.jpg","null","",NA,NA,NA,NA,""
"image-keyboard-response",394,375956,"0.0-3.127-2.127","wtwln2x34o0v21v","79.csv","","null","resources/images/coin2.png","null","",NA,NA,NA,NA,""
"image-keyboard-response",395,377315,"0.0-3.128-0.128","wtwln2x34o0v21v","79.csv","","1356.800000011921","resources/trios/L4T1A3.jpg","39","restless",0.5,0.7,0.8,0.744619402179095,"true"
"image-keyboard-response",396,377722,"0.0-3.128-1.128","wtwln2x34o0v21v","79.csv","","null","resources/maskTrios/BBA3.jpg","null","",NA,NA,NA,NA,""
"image-keyboard-response",397,378929,"0.0-3.128-2.128","wtwln2x34o0v21v","79.csv","","null","resources/images/coin2.png","null","",NA,NA,NA,NA,""
"image-keyboard-response",398,379792,"0.0-3.129-0.129","wtwln2x34o0v21v","79.csv","","860","resources/trios/L1T1A3.jpg","39","restless",0.5,0.8,0.8,0.129998419411153,"true"
"image-keyboard-response",399,380199,"0.0-3.129-1.129","wtwln2x34o0v21v","79.csv","","null","resources/maskTrios/BBA3.jpg","null","",NA,NA,NA,NA,""
"image-keyboard-response",400,381406,"0.0-3.129-2.129","wtwln2x34o0v21v","79.csv","","null","resources/images/coin2.png","null","",NA,NA,NA,NA,""
"image-keyboard-response",401,382184,"0.0-3.130-0.130","wtwln2x34o0v21v","79.csv","","775.5999999940395","resources/trios/L4T2A3.jpg","39","restless",0.5,0.8,0.8,0.671545627148398,"true"
"image-keyboard-response",402,382591,"0.0-3.130-1.130","wtwln2x34o0v21v","79.csv","","null","resources/maskTrios/BBA3.jpg","null","",NA,NA,NA,NA,""
"image-keyboard-response",403,383798,"0.0-3.130-2.130","wtwln2x34o0v21v","79.csv","","null","resources/images/coin2.png","null","",NA,NA,NA,NA,""
"image-keyboard-response",404,387154,"0.0-3.131-0.131","wtwln2x34o0v21v","79.csv","","3353.699999988079","resources/trios/L4T2A3.jpg","39","restless",0.5,0.8,0.8,0.86069940612959,"false"
"image-keyboard-response",405,387558,"0.0-3.131-1.131","wtwln2x34o0v21v","79.csv","","null","resources/maskTrios/BBA3.jpg","null","",NA,NA,NA,NA,""
"image-keyboard-response",406,388763,"0.0-3.131-2.131","wtwln2x34o0v21v","79.csv","","null","resources/images/fishbone.png","null","",NA,NA,NA,NA,""
"image-keyboard-response",407,389085,"0.0-3.132-0.132","wtwln2x34o0v21v","79.csv","","320.09999999403954","resources/trios/L4T1A2.jpg","37","restless",0.5,0.8,0.8,0.336425121971526,"true"
"image-keyboard-response",408,389493,"0.0-3.132-1.132","wtwln2x34o0v21v","79.csv","","null","resources/maskTrios/L4BB.jpg","null","",NA,NA,NA,NA,""
"image-keyboard-response",409,390700,"0.0-3.132-2.132","wtwln2x34o0v21v","79.csv","","null","resources/images/coin2.png","null","",NA,NA,NA,NA,""
"image-keyboard-response",410,391093,"0.0-3.133-0.133","wtwln2x34o0v21v","79.csv","","390.90000000596046","resources/trios/L1T1A2.jpg","37","restless",0.5,0.8,0.8,0.342997123837955,"true"
"image-keyboard-response",411,391500,"0.0-3.133-1.133","wtwln2x34o0v21v","79.csv","","null","resources/maskTrios/L1BB.jpg","null","",NA,NA,NA,NA,""
"image-keyboard-response",412,392703,"0.0-3.133-2.133","wtwln2x34o0v21v","79.csv","","null","resources/images/coin2.png","null","",NA,NA,NA,NA,""
"image-keyboard-response",413,393131,"0.0-3.134-0.134","wtwln2x34o0v21v","79.csv","","426.09999999403954","resources/trios/L4T2A3.jpg","37","restless",0.5,0.8,0.8,0.555587091510511,"false"
"image-keyboard-response",414,393536,"0.0-3.134-1.134","wtwln2x34o0v21v","79.csv","","null","resources/maskTrios/L4BB.jpg","null","",NA,NA,NA,NA,""
"image-keyboard-response",415,394740,"0.0-3.134-2.134","wtwln2x34o0v21v","79.csv","","null","resources/images/fishbone.png","null","",NA,NA,NA,NA,""
"image-keyboard-response",416,395224,"0.0-3.135-0.135","wtwln2x34o0v21v","79.csv","","481.5","resources/trios/L1T1A3.jpg","38","restless",0.6,0.8,0.8,0.14564537769734,"true"
"image-keyboard-response",417,395627,"0.0-3.135-1.135","wtwln2x34o0v21v","79.csv","","null","resources/maskTrios/BT1B.jpg","null","",NA,NA,NA,NA,""
"image-keyboard-response",418,396834,"0.0-3.135-2.135","wtwln2x34o0v21v","79.csv","","null","resources/images/coin2.png","null","",NA,NA,NA,NA,""
"image-keyboard-response",419,397272,"0.0-3.136-0.136","wtwln2x34o0v21v","79.csv","","435.09999999403954","resources/trios/L1T2A3.jpg","38","restless",0.6,0.8,0.8,0.658801143277383,"true"
"image-keyboard-response",420,397677,"0.0-3.136-1.136","wtwln2x34o0v21v","79.csv","","null","resources/maskTrios/BT2B.jpg","null","",NA,NA,NA,NA,""
"image-keyboard-response",421,398880,"0.0-3.136-2.136","wtwln2x34o0v21v","79.csv","","null","resources/images/coin2.png","null","",NA,NA,NA,NA,""
"image-keyboard-response",422,399138,"0.0-3.137-0.137","wtwln2x34o0v21v","79.csv","","255.40000000596046","resources/trios/L4T1A3.jpg","38","restless",0.6,0.8,0.8,0.0595572526214143,"true"
"image-keyboard-response",423,399545,"0.0-3.137-1.137","wtwln2x34o0v21v","79.csv","","null","resources/maskTrios/BT1B.jpg","null","",NA,NA,NA,NA,""
"image-keyboard-response",424,400750,"0.0-3.137-2.137","wtwln2x34o0v21v","79.csv","","null","resources/images/coin2.png","null","",NA,NA,NA,NA,""
"image-keyboard-response",425,403921,"0.0-3.138-0.138","wtwln2x34o0v21v","79.csv","","3168.2999999821186","resources/trios/L1T1A2.jpg","38","restless",0.6,0.7,0.7,0.468156706805829,"true"
"image-keyboard-response",426,404328,"0.0-3.138-1.138","wtwln2x34o0v21v","79.csv","","null","resources/maskTrios/BT1B.jpg","null","",NA,NA,NA,NA,""
"image-keyboard-response",427,405535,"0.0-3.138-2.138","wtwln2x34o0v21v","79.csv","","null","resources/images/coin2.png","null","",NA,NA,NA,NA,""
"image-keyboard-response",428,405869,"0.0-3.139-0.139","wtwln2x34o0v21v","79.csv","","332.30000001192093","resources/trios/L1T1A2.jpg","38","restless",0.6,0.7,0.7,0.15251734615501,"true"
"image-keyboard-response",429,406277,"0.0-3.139-1.139","wtwln2x34o0v21v","79.csv","","null","resources/maskTrios/BT1B.jpg","null","",NA,NA,NA,NA,""
"image-keyboard-response",430,407480,"0.0-3.139-2.139","wtwln2x34o0v21v","79.csv","","null","resources/images/coin2.png","null","",NA,NA,NA,NA,""
"image-keyboard-response",431,410818,"0.0-3.140-0.140","wtwln2x34o0v21v","79.csv","","3336.0999999940395","resources/trios/L1T1A3.jpg","38","restless",0.6,0.7,0.7,0.924014403074691,"false"
"image-keyboard-response",432,411226,"0.0-3.140-1.140","wtwln2x34o0v21v","79.csv","","null","resources/maskTrios/BT1B.jpg","null","",NA,NA,NA,NA,""
"image-keyboard-response",433,412432,"0.0-3.140-2.140","wtwln2x34o0v21v","79.csv","","null","resources/images/fishbone.png","null","",NA,NA,NA,NA,""
"image-keyboard-response",434,413431,"0.0-3.141-0.141","wtwln2x34o0v21v","79.csv","","996.8000000119209","resources/trios/L4T2A2.jpg","39","restless",0.6,0.7,0.7,0.683846817993319,"true"
"image-keyboard-response",435,413838,"0.0-3.141-1.141","wtwln2x34o0v21v","79.csv","","null","resources/maskTrios/BBA2.jpg","null","",NA,NA,NA,NA,""
"image-keyboard-response",436,415045,"0.0-3.141-2.141","wtwln2x34o0v21v","79.csv","","null","resources/images/coin2.png","null","",NA,NA,NA,NA,""
"image-keyboard-response",437,416230,"0.0-3.142-0.142","wtwln2x34o0v21v","79.csv","","1182.7000000178814","resources/trios/L4T1A2.jpg","39","restless",0.6,0.7,0.7,0.749931446127668,"false"
"image-keyboard-response",438,416637,"0.0-3.142-1.142","wtwln2x34o0v21v","79.csv","","null","resources/maskTrios/BBA2.jpg","null","",NA,NA,NA,NA,""
"image-keyboard-response",439,417844,"0.0-3.142-2.142","wtwln2x34o0v21v","79.csv","","null","resources/images/fishbone.png","null","",NA,NA,NA,NA,""
"image-keyboard-response",440,419470,"0.0-3.143-0.143","wtwln2x34o0v21v","79.csv","","1623.7999999821186","resources/trios/L4T2A2.jpg","38","restless",0.6,0.7,0.6,0.118858708316433,"true"
"image-keyboard-response",441,419873,"0.0-3.143-1.143","wtwln2x34o0v21v","79.csv","","null","resources/maskTrios/BT2B.jpg","null","",NA,NA,NA,NA,""
"image-keyboard-response",442,421081,"0.0-3.143-2.143","wtwln2x34o0v21v","79.csv","","null","resources/images/coin2.png","null","",NA,NA,NA,NA,""
"image-keyboard-response",443,421696,"0.0-3.144-0.144","wtwln2x34o0v21v","79.csv","","613.5","resources/trios/L1T2A3.jpg","38","restless",0.6,0.7,0.6,0.0716466973534522,"true"
"image-keyboard-response",444,422104,"0.0-3.144-1.144","wtwln2x34o0v21v","79.csv","","null","resources/maskTrios/BT2B.jpg","null","",NA,NA,NA,NA,""
"image-keyboard-response",445,423308,"0.0-3.144-2.144","wtwln2x34o0v21v","79.csv","","null","resources/images/coin2.png","null","",NA,NA,NA,NA,""
"image-keyboard-response",446,425581,"0.0-3.145-0.145","wtwln2x34o0v21v","79.csv","","2273","resources/trios/L4T1A2.jpg","38","restless",0.6,0.7,0.6,0.581283269605587,"true"
"image-keyboard-response",447,425988,"0.0-3.145-1.145","wtwln2x34o0v21v","79.csv","","null","resources/maskTrios/BT1B.jpg","null","",NA,NA,NA,NA,""
"image-keyboard-response",448,427193,"0.0-3.145-2.145","wtwln2x34o0v21v","79.csv","","null","resources/images/coin2.png","null","",NA,NA,NA,NA,""
"image-keyboard-response",449,460584,"0.0-3.146-0.146","wtwln2x34o0v21v","79.csv","","33401.5","resources/trios/L1T2A3.jpg","39","restless",0.6,0.7,0.6,0.236799321604072,"true"
"image-keyboard-response",450,460991,"0.0-3.146-1.146","wtwln2x34o0v21v","79.csv","","null","resources/maskTrios/BBA3.jpg","null","",NA,NA,NA,NA,""
"image-keyboard-response",451,462198,"0.0-3.146-2.146","wtwln2x34o0v21v","79.csv","","null","resources/images/coin2.png","null","",NA,NA,NA,NA,""
"image-keyboard-response",452,462570,"0.0-3.147-0.147","wtwln2x34o0v21v","79.csv","","369.40000000596046","resources/trios/L4T2A2.jpg","39","restless",0.7,0.7,0.6,0.390391454381572,"true"
"image-keyboard-response",453,462977,"0.0-3.147-1.147","wtwln2x34o0v21v","79.csv","","null","resources/maskTrios/BBA2.jpg","null","",NA,NA,NA,NA,""
"image-keyboard-response",454,464184,"0.0-3.147-2.147","wtwln2x34o0v21v","79.csv","","null","resources/images/coin2.png","null","",NA,NA,NA,NA,""
"image-keyboard-response",455,464649,"0.0-3.148-0.148","wtwln2x34o0v21v","79.csv","","462.59999999403954","resources/trios/L1T1A2.jpg","39","restless",0.7,0.7,0.6,0.849581996646978,"false"
"image-keyboard-response",456,465056,"0.0-3.148-1.148","wtwln2x34o0v21v","79.csv","","null","resources/maskTrios/BBA2.jpg","null","",NA,NA,NA,NA,""
"image-keyboard-response",457,466259,"0.0-3.148-2.148","wtwln2x34o0v21v","79.csv","","null","resources/images/fishbone.png","null","",NA,NA,NA,NA,""
"image-keyboard-response",458,466671,"0.0-3.149-0.149","wtwln2x34o0v21v","79.csv","","409.7000000178814","resources/trios/L1T1A2.jpg","37","restless",0.7,0.7,0.6,0.499621604526796,"true"
"image-keyboard-response",459,467079,"0.0-3.149-1.149","wtwln2x34o0v21v","79.csv","","null","resources/maskTrios/L1BB.jpg","null","",NA,NA,NA,NA,""
"image-keyboard-response",460,468286,"0.0-3.149-2.149","wtwln2x34o0v21v","79.csv","","null","resources/images/coin2.png","null","",NA,NA,NA,NA,""
"image-keyboard-response",461,468803,"0.0-3.150-0.150","wtwln2x34o0v21v","79.csv","","515.5","resources/trios/L4T2A3.jpg","37","restless",0.7,0.7,0.6,0.783585925279781,"false"
"image-keyboard-response",462,469211,"0.0-3.150-1.150","wtwln2x34o0v21v","79.csv","","null","resources/maskTrios/L4BB.jpg","null","",NA,NA,NA,NA,""
"image-keyboard-response",463,470418,"0.0-3.150-2.150","wtwln2x34o0v21v","79.csv","","null","resources/images/fishbone.png","null","",NA,NA,NA,NA,""
"image-keyboard-response",464,470726,"0.0-3.151-0.151","wtwln2x34o0v21v","79.csv","","306.2000000178814","resources/trios/L4T1A2.jpg","38","restless",0.7,0.7,0.6,0.310278232721273,"true"
"image-keyboard-response",465,471131,"0.0-3.151-1.151","wtwln2x34o0v21v","79.csv","","null","resources/maskTrios/BT1B.jpg","null","",NA,NA,NA,NA,""
"image-keyboard-response",466,472338,"0.0-3.151-2.151","wtwln2x34o0v21v","79.csv","","null","resources/images/coin2.png","null","",NA,NA,NA,NA,""
"image-keyboard-response",467,472583,"0.0-3.152-0.152","wtwln2x34o0v21v","79.csv","","243.30000001192093","resources/trios/L4T2A2.jpg","38","restless",0.7,0.7,0.6,0.261301712264952,"true"
"image-keyboard-response",468,472991,"0.0-3.152-1.152","wtwln2x34o0v21v","79.csv","","null","resources/maskTrios/BT2B.jpg","null","",NA,NA,NA,NA,""
"image-keyboard-response",469,474198,"0.0-3.152-2.152","wtwln2x34o0v21v","79.csv","","null","resources/images/coin2.png","null","",NA,NA,NA,NA,""
"image-keyboard-response",470,474834,"0.0-3.153-0.153","wtwln2x34o0v21v","79.csv","","633.7999999821186","resources/trios/L4T2A3.jpg","38","restless",0.7,0.7,0.5,0.910324115981992,"false"
"image-keyboard-response",471,475240,"0.0-3.153-1.153","wtwln2x34o0v21v","79.csv","","null","resources/maskTrios/BT2B.jpg","null","",NA,NA,NA,NA,""
"image-keyboard-response",472,476447,"0.0-3.153-2.153","wtwln2x34o0v21v","79.csv","","null","resources/images/fishbone.png","null","",NA,NA,NA,NA,""
"image-keyboard-response",473,477896,"0.0-3.154-0.154","wtwln2x34o0v21v","79.csv","","1446.5999999940395","resources/trios/L1T2A2.jpg","39","restless",0.7,0.7,0.5,0.569145480035413,"false"
"image-keyboard-response",474,478304,"0.0-3.154-1.154","wtwln2x34o0v21v","79.csv","","null","resources/maskTrios/BBA2.jpg","null","",NA,NA,NA,NA,""
"image-keyboard-response",475,479511,"0.0-3.154-2.154","wtwln2x34o0v21v","79.csv","","null","resources/images/fishbone.png","null","",NA,NA,NA,NA,""
"image-keyboard-response",476,480929,"0.0-3.155-0.155","wtwln2x34o0v21v","79.csv","","1415.699999988079","resources/trios/L4T2A2.jpg","37","restless",0.6,0.7,0.4,0.5709575046664,"true"
"image-keyboard-response",477,481336,"0.0-3.155-1.155","wtwln2x34o0v21v","79.csv","","null","resources/maskTrios/L4BB.jpg","null","",NA,NA,NA,NA,""
"image-keyboard-response",478,482543,"0.0-3.155-2.155","wtwln2x34o0v21v","79.csv","","null","resources/images/coin2.png","null","",NA,NA,NA,NA,""
"image-keyboard-response",479,483153,"0.0-3.156-0.156","wtwln2x34o0v21v","79.csv","","607.3999999761581","resources/trios/L1T2A3.jpg","37","restless",0.6,0.7,0.4,0.102744175122489,"true"
"image-keyboard-response",480,483560,"0.0-3.156-1.156","wtwln2x34o0v21v","79.csv","","null","resources/maskTrios/L1BB.jpg","null","",NA,NA,NA,NA,""
"image-keyboard-response",481,484766,"0.0-3.156-2.156","wtwln2x34o0v21v","79.csv","","null","resources/images/coin2.png","null","",NA,NA,NA,NA,""
"image-keyboard-response",482,485363,"0.0-3.157-0.157","wtwln2x34o0v21v","79.csv","","594.6000000238419","resources/trios/L1T1A3.jpg","37","restless",0.6,0.7,0.4,0.283218276269134,"true"
"image-keyboard-response",483,485770,"0.0-3.157-1.157","wtwln2x34o0v21v","79.csv","","null","resources/maskTrios/L1BB.jpg","null","",NA,NA,NA,NA,""
"image-keyboard-response",484,486975,"0.0-3.157-2.157","wtwln2x34o0v21v","79.csv","","null","resources/images/coin2.png","null","",NA,NA,NA,NA,""
"image-keyboard-response",485,487326,"0.0-3.158-0.158","wtwln2x34o0v21v","79.csv","","348.69999998807907","resources/trios/L4T2A2.jpg","37","restless",0.6,0.7,0.4,0.609208638673043,"false"
"image-keyboard-response",486,487733,"0.0-3.158-1.158","wtwln2x34o0v21v","79.csv","","null","resources/maskTrios/L4BB.jpg","null","",NA,NA,NA,NA,""
"image-keyboard-response",487,488939,"0.0-3.158-2.158","wtwln2x34o0v21v","79.csv","","null","resources/images/fishbone.png","null","",NA,NA,NA,NA,""
"image-keyboard-response",488,489417,"0.0-3.159-0.159","wtwln2x34o0v21v","79.csv","","475.30000001192093","resources/trios/L4T1A3.jpg","38","restless",0.6,0.7,0.4,0.526969165687168,"true"
"image-keyboard-response",489,489824,"0.0-3.159-1.159","wtwln2x34o0v21v","79.csv","","null","resources/maskTrios/BT1B.jpg","null","",NA,NA,NA,NA,""
"image-keyboard-response",490,491031,"0.0-3.159-2.159","wtwln2x34o0v21v","79.csv","","null","resources/images/coin2.png","null","",NA,NA,NA,NA,""
"image-keyboard-response",491,491325,"0.0-3.160-0.160","wtwln2x34o0v21v","79.csv","","291.59999999403954","resources/trios/L1T1A3.jpg","38","restless",0.6,0.7,0.4,0.910939837068748,"false"
"image-keyboard-response",492,491733,"0.0-3.160-1.160","wtwln2x34o0v21v","79.csv","","null","resources/maskTrios/BT1B.jpg","null","",NA,NA,NA,NA,""
"image-keyboard-response",493,492940,"0.0-3.160-2.160","wtwln2x34o0v21v","79.csv","","null","resources/images/fishbone.png","null","",NA,NA,NA,NA,""
"image-keyboard-response",494,493242,"0.0-3.161-0.161","wtwln2x34o0v21v","79.csv","","299.7999999821186","resources/trios/L1T1A2.jpg","39","restless",0.6,0.7,0.4,0.0582095995668239,"true"
"image-keyboard-response",495,493649,"0.0-3.161-1.161","wtwln2x34o0v21v","79.csv","","null","resources/maskTrios/BBA2.jpg","null","",NA,NA,NA,NA,""
"image-keyboard-response",496,494855,"0.0-3.161-2.161","wtwln2x34o0v21v","79.csv","","null","resources/images/coin2.png","null","",NA,NA,NA,NA,""
"image-keyboard-response",497,495341,"0.0-3.162-0.162","wtwln2x34o0v21v","79.csv","","483.7999999821186","resources/trios/L1T1A3.jpg","39","restless",0.6,0.7,0.4,0.418044582685654,"false"
"image-keyboard-response",498,495745,"0.0-3.162-1.162","wtwln2x34o0v21v","79.csv","","null","resources/maskTrios/BBA3.jpg","null","",NA,NA,NA,NA,""
"image-keyboard-response",499,496952,"0.0-3.162-2.162","wtwln2x34o0v21v","79.csv","","null","resources/images/fishbone.png","null","",NA,NA,NA,NA,""
"image-keyboard-response",500,497408,"0.0-3.163-0.163","wtwln2x34o0v21v","79.csv","","454.30000001192093","resources/trios/L1T1A3.jpg","38","restless",0.6,0.7,0.3,0.907255276666651,"false"
"image-keyboard-response",501,497816,"0.0-3.163-1.163","wtwln2x34o0v21v","79.csv","","null","resources/maskTrios/BT1B.jpg","null","",NA,NA,NA,NA,""
"image-keyboard-response",502,499020,"0.0-3.163-2.163","wtwln2x34o0v21v","79.csv","","null","resources/images/fishbone.png","null","",NA,NA,NA,NA,""
"image-keyboard-response",503,499680,"0.0-3.164-0.164","wtwln2x34o0v21v","79.csv","","657.5","resources/trios/L4T2A2.jpg","37","restless",0.6,0.7,0.3,0.942312922959978,"false"
"image-keyboard-response",504,500084,"0.0-3.164-1.164","wtwln2x34o0v21v","79.csv","","null","resources/maskTrios/L4BB.jpg","null","",NA,NA,NA,NA,""
"image-keyboard-response",505,501291,"0.0-3.164-2.164","wtwln2x34o0v21v","79.csv","","null","resources/images/fishbone.png","null","",NA,NA,NA,NA,""
"image-keyboard-response",506,501619,"0.0-3.165-0.165","wtwln2x34o0v21v","79.csv","","325.40000000596046","resources/trios/L4T2A2.jpg","38","restless",0.6,0.7,0.3,0.602402431098036,"true"
"image-keyboard-response",507,502026,"0.0-3.165-1.165","wtwln2x34o0v21v","79.csv","","null","resources/maskTrios/BT2B.jpg","null","",NA,NA,NA,NA,""
"image-keyboard-response",508,503233,"0.0-3.165-2.165","wtwln2x34o0v21v","79.csv","","null","resources/images/coin2.png","null","",NA,NA,NA,NA,""
"image-keyboard-response",509,503373,"0.0-3.166-0.166","wtwln2x34o0v21v","79.csv","","137.90000000596046","resources/trios/L4T1A3.jpg","38","restless",0.6,0.8,0.3,0.926105340414088,"false"
"image-keyboard-response",510,503781,"0.0-3.166-1.166","wtwln2x34o0v21v","79.csv","","null","resources/maskTrios/BT1B.jpg","null","",NA,NA,NA,NA,""
"image-keyboard-response",511,504984,"0.0-3.166-2.166","wtwln2x34o0v21v","79.csv","","null","resources/images/fishbone.png","null","",NA,NA,NA,NA,""
"image-keyboard-response",512,505503,"0.0-3.167-0.167","wtwln2x34o0v21v","79.csv","","517.3000000119209","resources/trios/L1T2A2.jpg","39","restless",0.6,0.7,0.3,0.276299657224817,"true"
"image-keyboard-response",513,505911,"0.0-3.167-1.167","wtwln2x34o0v21v","79.csv","","null","resources/maskTrios/BBA2.jpg","null","",NA,NA,NA,NA,""
"image-keyboard-response",514,507118,"0.0-3.167-2.167","wtwln2x34o0v21v","79.csv","","null","resources/images/coin2.png","null","",NA,NA,NA,NA,""
"image-keyboard-response",515,507809,"0.0-3.168-0.168","wtwln2x34o0v21v","79.csv","","689.0999999940395","resources/trios/L4T2A2.jpg","39","restless",0.5,0.7,0.3,0.756017705944421,"false"
"image-keyboard-response",516,508216,"0.0-3.168-1.168","wtwln2x34o0v21v","79.csv","","null","resources/maskTrios/BBA2.jpg","null","",NA,NA,NA,NA,""
"image-keyboard-response",517,509423,"0.0-3.168-2.168","wtwln2x34o0v21v","79.csv","","null","resources/images/fishbone.png","null","",NA,NA,NA,NA,""
"image-keyboard-response",518,510017,"0.0-3.169-0.169","wtwln2x34o0v21v","79.csv","","591.5","resources/trios/L4T1A3.jpg","37","restless",0.5,0.7,0.3,0.867697333127258,"false"
"image-keyboard-response",519,510424,"0.0-3.169-1.169","wtwln2x34o0v21v","79.csv","","null","resources/maskTrios/L4BB.jpg","null","",NA,NA,NA,NA,""
"image-keyboard-response",520,511631,"0.0-3.169-2.169","wtwln2x34o0v21v","79.csv","","null","resources/images/fishbone.png","null","",NA,NA,NA,NA,""
"image-keyboard-response",521,512038,"0.0-3.170-0.170","wtwln2x34o0v21v","79.csv","","404.7999999821186","resources/trios/L1T1A2.jpg","38","restless",0.5,0.7,0.3,0.247186375242752,"true"
"image-keyboard-response",522,512441,"0.0-3.170-1.170","wtwln2x34o0v21v","79.csv","","null","resources/maskTrios/BT1B.jpg","null","",NA,NA,NA,NA,""
"image-keyboard-response",523,513649,"0.0-3.170-2.170","wtwln2x34o0v21v","79.csv","","null","resources/images/coin2.png","null","",NA,NA,NA,NA,""
"image-keyboard-response",524,514113,"0.0-3.171-0.171","wtwln2x34o0v21v","79.csv","","462.09999999403954","resources/trios/L4T2A2.jpg","38","restless",0.5,0.7,0.3,0.783741034179668,"false"
"image-keyboard-response",525,514521,"0.0-3.171-1.171","wtwln2x34o0v21v","79.csv","","null","resources/maskTrios/BT2B.jpg","null","",NA,NA,NA,NA,""
"image-keyboard-response",526,515728,"0.0-3.171-2.171","wtwln2x34o0v21v","79.csv","","null","resources/images/fishbone.png","null","",NA,NA,NA,NA,""
"image-keyboard-response",527,516117,"0.0-3.172-0.172","wtwln2x34o0v21v","79.csv","","387.30000001192093","resources/trios/L1T1A2.jpg","39","restless",0.5,0.7,0.3,0.39393613049964,"false"
"image-keyboard-response",528,516525,"0.0-3.172-1.172","wtwln2x34o0v21v","79.csv","","null","resources/maskTrios/BBA2.jpg","null","",NA,NA,NA,NA,""
"image-keyboard-response",529,517732,"0.0-3.172-2.172","wtwln2x34o0v21v","79.csv","","null","resources/images/fishbone.png","null","",NA,NA,NA,NA,""
"image-keyboard-response",530,518218,"0.0-3.173-0.173","wtwln2x34o0v21v","79.csv","","483.69999998807907","resources/trios/L4T2A2.jpg","37","restless",0.5,0.7,0.3,0.724531341814726,"false"
"image-keyboard-response",531,518625,"0.0-3.173-1.173","wtwln2x34o0v21v","79.csv","","null","resources/maskTrios/L4BB.jpg","null","",NA,NA,NA,NA,""
"image-keyboard-response",532,519832,"0.0-3.173-2.173","wtwln2x34o0v21v","79.csv","","null","resources/images/fishbone.png","null","",NA,NA,NA,NA,""
"image-keyboard-response",533,520353,"0.0-3.174-0.174","wtwln2x34o0v21v","79.csv","","518.1000000238419","resources/trios/L4T1A2.jpg","38","restless",0.5,0.7,0.3,0.897050108906404,"false"
"image-keyboard-response",534,520760,"0.0-3.174-1.174","wtwln2x34o0v21v","79.csv","","null","resources/maskTrios/BT1B.jpg","null","",NA,NA,NA,NA,""
"image-keyboard-response",535,521967,"0.0-3.174-2.174","wtwln2x34o0v21v","79.csv","","null","resources/images/fishbone.png","null","",NA,NA,NA,NA,""
"image-keyboard-response",536,522327,"0.0-3.175-0.175","wtwln2x34o0v21v","79.csv","","357.19999998807907","resources/trios/L4T1A2.jpg","39","restless",0.5,0.7,0.3,0.85792908796082,"false"
"image-keyboard-response",537,522734,"0.0-3.175-1.175","wtwln2x34o0v21v","79.csv","","null","resources/maskTrios/BBA2.jpg","null","",NA,NA,NA,NA,""
"image-keyboard-response",538,523941,"0.0-3.175-2.175","wtwln2x34o0v21v","79.csv","","null","resources/images/fishbone.png","null","",NA,NA,NA,NA,""
"image-keyboard-response",539,524748,"0.0-3.176-0.176","wtwln2x34o0v21v","79.csv","","805.3000000119209","resources/trios/L4T1A3.jpg","37","restless",0.5,0.7,0.3,0.302331362683181,"true"
"image-keyboard-response",540,525156,"0.0-3.176-1.176","wtwln2x34o0v21v","79.csv","","null","resources/maskTrios/L4BB.jpg","null","",NA,NA,NA,NA,""
"image-keyboard-response",541,526363,"0.0-3.176-2.176","wtwln2x34o0v21v","79.csv","","null","resources/images/coin2.png","null","",NA,NA,NA,NA,""
"image-keyboard-response",542,526701,"0.0-3.177-0.177","wtwln2x34o0v21v","79.csv","","335.40000000596046","resources/trios/L4T2A2.jpg","37","restless",0.5,0.7,0.3,0.0944626195654783,"true"
"image-keyboard-response",543,527108,"0.0-3.177-1.177","wtwln2x34o0v21v","79.csv","","null","resources/maskTrios/L4BB.jpg","null","",NA,NA,NA,NA,""
"image-keyboard-response",544,528315,"0.0-3.177-2.177","wtwln2x34o0v21v","79.csv","","null","resources/images/coin2.png","null","",NA,NA,NA,NA,""
"image-keyboard-response",545,529999,"0.0-3.178-0.178","wtwln2x34o0v21v","79.csv","","1681.199999988079","resources/trios/L1T2A3.jpg","37","restless",0.5,0.7,0.3,0.663678247207377,"false"
"image-keyboard-response",546,530406,"0.0-3.178-1.178","wtwln2x34o0v21v","79.csv","","null","resources/maskTrios/L1BB.jpg","null","",NA,NA,NA,NA,""
"image-keyboard-response",547,531608,"0.0-3.178-2.178","wtwln2x34o0v21v","79.csv","","null","resources/images/fishbone.png","null","",NA,NA,NA,NA,""
"image-keyboard-response",548,537398,"0.0-3.179-0.179","wtwln2x34o0v21v","79.csv","","5787","resources/trios/L1T2A3.jpg","39","restless",0.5,0.7,0.3,0.0597884286984725,"true"
"image-keyboard-response",549,537805,"0.0-3.179-1.179","wtwln2x34o0v21v","79.csv","","null","resources/maskTrios/BBA3.jpg","null","",NA,NA,NA,NA,""
"image-keyboard-response",550,539012,"0.0-3.179-2.179","wtwln2x34o0v21v","79.csv","","null","resources/images/coin2.png","null","",NA,NA,NA,NA,""
"image-keyboard-response",551,539576,"0.0-3.180-0.180","wtwln2x34o0v21v","79.csv","","561.4000000059605","resources/trios/L1T2A2.jpg","39","restless",0.5,0.7,0.3,0.994203123069071,"false"
"image-keyboard-response",552,539981,"0.0-3.180-1.180","wtwln2x34o0v21v","79.csv","","null","resources/maskTrios/BBA2.jpg","null","",NA,NA,NA,NA,""
"image-keyboard-response",553,541188,"0.0-3.180-2.180","wtwln2x34o0v21v","79.csv","","null","resources/images/fishbone.png","null","",NA,NA,NA,NA,""
"image-keyboard-response",554,541684,"0.0-3.181-0.181","wtwln2x34o0v21v","79.csv","","494.09999999403954","resources/trios/L4T1A3.jpg","37","restless",0.5,0.7,0.3,0.902494884541456,"false"
"image-keyboard-response",555,542092,"0.0-3.181-1.181","wtwln2x34o0v21v","79.csv","","null","resources/maskTrios/L4BB.jpg","null","",NA,NA,NA,NA,""
"image-keyboard-response",556,543299,"0.0-3.181-2.181","wtwln2x34o0v21v","79.csv","","null","resources/images/fishbone.png","null","",NA,NA,NA,NA,""
"image-keyboard-response",557,543432,"0.0-3.182-0.182","wtwln2x34o0v21v","79.csv","","131.09999999403954","resources/trios/L4T1A3.jpg","38","restless",0.5,0.7,0.3,0.0926308840697032,"true"
"image-keyboard-response",558,543840,"0.0-3.182-1.182","wtwln2x34o0v21v","79.csv","","null","resources/maskTrios/BT1B.jpg","null","",NA,NA,NA,NA,""
"image-keyboard-response",559,545047,"0.0-3.182-2.182","wtwln2x34o0v21v","79.csv","","null","resources/images/coin2.png","null","",NA,NA,NA,NA,""
"image-keyboard-response",560,545314,"0.0-3.183-0.183","wtwln2x34o0v21v","79.csv","","264.90000000596046","resources/trios/L1T2A3.jpg","38","restless",0.5,0.7,0.3,0.103686460998626,"true"
"image-keyboard-response",561,545722,"0.0-3.183-1.183","wtwln2x34o0v21v","79.csv","","null","resources/maskTrios/BT2B.jpg","null","",NA,NA,NA,NA,""
"image-keyboard-response",562,546929,"0.0-3.183-2.183","wtwln2x34o0v21v","79.csv","","null","resources/images/coin2.png","null","",NA,NA,NA,NA,""
"image-keyboard-response",563,547908,"0.0-3.184-0.184","wtwln2x34o0v21v","79.csv","","976.3000000119209","resources/trios/L4T2A3.jpg","38","restless",0.5,0.7,0.3,0.69399955854121,"true"
"image-keyboard-response",564,548311,"0.0-3.184-1.184","wtwln2x34o0v21v","79.csv","","null","resources/maskTrios/BT2B.jpg","null","",NA,NA,NA,NA,""
"image-keyboard-response",565,549518,"0.0-3.184-2.184","wtwln2x34o0v21v","79.csv","","null","resources/images/coin2.png","null","",NA,NA,NA,NA,""
"image-keyboard-response",566,550348,"0.0-3.185-0.185","wtwln2x34o0v21v","79.csv","","827.4000000059605","resources/trios/L4T1A2.jpg","38","restless",0.5,0.7,0.3,0.157507714792174,"true"
"image-keyboard-response",567,550755,"0.0-3.185-1.185","wtwln2x34o0v21v","79.csv","","null","resources/maskTrios/BT1B.jpg","null","",NA,NA,NA,NA,""
"image-keyboard-response",568,551962,"0.0-3.185-2.185","wtwln2x34o0v21v","79.csv","","null","resources/images/coin2.png","null","",NA,NA,NA,NA,""
"image-keyboard-response",569,552708,"0.0-3.186-0.186","wtwln2x34o0v21v","79.csv","","742.7999999821186","resources/trios/L4T2A2.jpg","38","restless",0.4,0.7,0.3,0.613237144073564,"true"
"image-keyboard-response",570,553111,"0.0-3.186-1.186","wtwln2x34o0v21v","79.csv","","null","resources/maskTrios/BT2B.jpg","null","",NA,NA,NA,NA,""
"image-keyboard-response",571,554317,"0.0-3.186-2.186","wtwln2x34o0v21v","79.csv","","null","resources/images/coin2.png","null","",NA,NA,NA,NA,""
"image-keyboard-response",572,555874,"0.0-3.187-0.187","wtwln2x34o0v21v","79.csv","","1554.300000011921","resources/trios/L1T1A2.jpg","38","restless",0.4,0.7,0.3,0.295880397060067,"true"
"image-keyboard-response",573,556281,"0.0-3.187-1.187","wtwln2x34o0v21v","79.csv","","null","resources/maskTrios/BT1B.jpg","null","",NA,NA,NA,NA,""
"image-keyboard-response",574,557488,"0.0-3.187-2.187","wtwln2x34o0v21v","79.csv","","null","resources/images/coin2.png","null","",NA,NA,NA,NA,""
"image-keyboard-response",575,559273,"0.0-3.188-0.188","wtwln2x34o0v21v","79.csv","","1782.699999988079","resources/trios/L4T2A2.jpg","38","restless",0.4,0.7,0.3,0.346778714496539,"true"
"image-keyboard-response",576,559678,"0.0-3.188-1.188","wtwln2x34o0v21v","79.csv","","null","resources/maskTrios/BT2B.jpg","null","",NA,NA,NA,NA,""
"image-keyboard-response",577,560882,"0.0-3.188-2.188","wtwln2x34o0v21v","79.csv","","null","resources/images/coin2.png","null","",NA,NA,NA,NA,""
"image-keyboard-response",578,561357,"0.0-3.189-0.189","wtwln2x34o0v21v","79.csv","","472","resources/trios/L1T1A2.jpg","38","restless",0.4,0.7,0.3,0.462778484580808,"true"
"image-keyboard-response",579,561764,"0.0-3.189-1.189","wtwln2x34o0v21v","79.csv","","null","resources/maskTrios/BT1B.jpg","null","",NA,NA,NA,NA,""
"image-keyboard-response",580,562967,"0.0-3.189-2.189","wtwln2x34o0v21v","79.csv","","null","resources/images/coin2.png","null","",NA,NA,NA,NA,""
"image-keyboard-response",581,564758,"0.0-3.190-0.190","wtwln2x34o0v21v","79.csv","","1788.800000011921","resources/trios/L1T2A2.jpg","38","restless",0.4,0.7,0.3,0.135075621547948,"true"
"image-keyboard-response",582,565165,"0.0-3.190-1.190","wtwln2x34o0v21v","79.csv","","null","resources/maskTrios/BT2B.jpg","null","",NA,NA,NA,NA,""
"image-keyboard-response",583,566369,"0.0-3.190-2.190","wtwln2x34o0v21v","79.csv","","null","resources/images/coin2.png","null","",NA,NA,NA,NA,""
"image-keyboard-response",584,566727,"0.0-3.191-0.191","wtwln2x34o0v21v","79.csv","","355.40000000596046","resources/trios/L1T1A2.jpg","38","restless",0.4,0.7,0.3,0.172345574593603,"true"
"image-keyboard-response",585,567135,"0.0-3.191-1.191","wtwln2x34o0v21v","79.csv","","null","resources/maskTrios/BT1B.jpg","null","",NA,NA,NA,NA,""
"image-keyboard-response",586,568342,"0.0-3.191-2.191","wtwln2x34o0v21v","79.csv","","null","resources/images/coin2.png","null","",NA,NA,NA,NA,""
"image-keyboard-response",587,569024,"0.0-3.192-0.192","wtwln2x34o0v21v","79.csv","","679.3000000119209","resources/trios/L4T2A2.jpg","38","restless",0.4,0.7,0.3,0.476364955934006,"true"
"image-keyboard-response",588,569431,"0.0-3.192-1.192","wtwln2x34o0v21v","79.csv","","null","resources/maskTrios/BT2B.jpg","null","",NA,NA,NA,NA,""
"image-keyboard-response",589,570638,"0.0-3.192-2.192","wtwln2x34o0v21v","79.csv","","null","resources/images/coin2.png","null","",NA,NA,NA,NA,""
"image-keyboard-response",590,570974,"0.0-3.193-0.193","wtwln2x34o0v21v","79.csv","","333.30000001192093","resources/trios/L1T2A2.jpg","38","restless",0.4,0.7,0.3,0.750267696205041,"false"
"image-keyboard-response",591,571381,"0.0-3.193-1.193","wtwln2x34o0v21v","79.csv","","null","resources/maskTrios/BT2B.jpg","null","",NA,NA,NA,NA,""
"image-keyboard-response",592,572588,"0.0-3.193-2.193","wtwln2x34o0v21v","79.csv","","null","resources/images/fishbone.png","null","",NA,NA,NA,NA,""
"image-keyboard-response",593,572831,"0.0-3.194-0.194","wtwln2x34o0v21v","79.csv","","240.39999997615814","resources/trios/L4T1A2.jpg","39","restless",0.4,0.7,0.4,0.0695559052620005,"true"
"image-keyboard-response",594,573239,"0.0-3.194-1.194","wtwln2x34o0v21v","79.csv","","null","resources/maskTrios/BBA2.jpg","null","",NA,NA,NA,NA,""
"image-keyboard-response",595,574446,"0.0-3.194-2.194","wtwln2x34o0v21v","79.csv","","null","resources/images/coin2.png","null","",NA,NA,NA,NA,""
"image-keyboard-response",596,575069,"0.0-3.195-0.195","wtwln2x34o0v21v","79.csv","","620.3000000119209","resources/trios/L4T1A2.jpg","39","restless",0.4,0.7,0.4,0.405975175366691,"false"
"image-keyboard-response",597,575476,"0.0-3.195-1.195","wtwln2x34o0v21v","79.csv","","null","resources/maskTrios/BBA2.jpg","null","",NA,NA,NA,NA,""
"image-keyboard-response",598,576683,"0.0-3.195-2.195","wtwln2x34o0v21v","79.csv","","null","resources/images/fishbone.png","null","",NA,NA,NA,NA,""
"image-keyboard-response",599,577032,"0.0-3.196-0.196","wtwln2x34o0v21v","79.csv","","346.59999999403954","resources/trios/L1T2A3.jpg","37","restless",0.4,0.7,0.4,0.672746274520821,"false"
"image-keyboard-response",600,577439,"0.0-3.196-1.196","wtwln2x34o0v21v","79.csv","","null","resources/maskTrios/L1BB.jpg","null","",NA,NA,NA,NA,""
"image-keyboard-response",601,578644,"0.0-3.196-2.196","wtwln2x34o0v21v","79.csv","","null","resources/images/fishbone.png","null","",NA,NA,NA,NA,""
"image-keyboard-response",602,579152,"0.0-3.197-0.197","wtwln2x34o0v21v","79.csv","","505.59999999403954","resources/trios/L4T2A3.jpg","38","restless",0.4,0.7,0.4,0.155812511402645,"true"
"image-keyboard-response",603,579559,"0.0-3.197-1.197","wtwln2x34o0v21v","79.csv","","null","resources/maskTrios/BT2B.jpg","null","",NA,NA,NA,NA,""
"image-keyboard-response",604,580766,"0.0-3.197-2.197","wtwln2x34o0v21v","79.csv","","null","resources/images/coin2.png","null","",NA,NA,NA,NA,""
"image-keyboard-response",605,581254,"0.0-3.198-0.198","wtwln2x34o0v21v","79.csv","","486.09999999403954","resources/trios/L4T2A2.jpg","38","restless",0.4,0.7,0.4,0.728261376867368,"false"
"image-keyboard-response",606,581662,"0.0-3.198-1.198","wtwln2x34o0v21v","79.csv","","null","resources/maskTrios/BT2B.jpg","null","",NA,NA,NA,NA,""
"image-keyboard-response",607,582869,"0.0-3.198-2.198","wtwln2x34o0v21v","79.csv","","null","resources/images/fishbone.png","null","",NA,NA,NA,NA,""
"image-keyboard-response",608,583168,"0.0-3.199-0.199","wtwln2x34o0v21v","79.csv","","297.19999998807907","resources/trios/L1T2A3.jpg","39","restless",0.4,0.7,0.4,0.14082450406777,"true"
"image-keyboard-response",609,583576,"0.0-3.199-1.199","wtwln2x34o0v21v","79.csv","","null","resources/maskTrios/BBA3.jpg","null","",NA,NA,NA,NA,""
"image-keyboard-response",610,584781,"0.0-3.199-2.199","wtwln2x34o0v21v","79.csv","","null","resources/images/coin2.png","null","",NA,NA,NA,NA,""
"image-keyboard-response",611,584829,"0.0-3.200-0.200","wtwln2x34o0v21v","79.csv","","45.69999998807907","resources/trios/L1T1A3.jpg","39","restless",0.4,0.7,0.4,0.918852632214198,"false"
"image-keyboard-response",612,585236,"0.0-3.200-1.200","wtwln2x34o0v21v","79.csv","","null","resources/maskTrios/BBA3.jpg","null","",NA,NA,NA,NA,""
"image-keyboard-response",613,586442,"0.0-3.200-2.200","wtwln2x34o0v21v","79.csv","","null","resources/images/fishbone.png","null","",NA,NA,NA,NA,""
"image-keyboard-response",614,586478,"0.0-3.201-0.201","wtwln2x34o0v21v","79.csv","","32.89999997615814","resources/trios/L1T2A2.jpg","37","restless",0.4,0.7,0.4,0.47630603709175,"false"
"image-keyboard-response",615,586885,"0.0-3.201-1.201","wtwln2x34o0v21v","79.csv","","null","resources/maskTrios/L1BB.jpg","null","",NA,NA,NA,NA,""
"image-keyboard-response",616,588092,"0.0-3.201-2.201","wtwln2x34o0v21v","79.csv","","null","resources/images/fishbone.png","null","",NA,NA,NA,NA,""
"image-keyboard-response",617,588738,"0.0-3.202-0.202","wtwln2x34o0v21v","79.csv","","643.8999999761581","resources/trios/L1T1A2.jpg","38","restless",0.4,0.7,0.4,0.0784684482622271,"true"
"image-keyboard-response",618,589145,"0.0-3.202-1.202","wtwln2x34o0v21v","79.csv","","null","resources/maskTrios/BT1B.jpg","null","",NA,NA,NA,NA,""
"image-keyboard-response",619,590352,"0.0-3.202-2.202","wtwln2x34o0v21v","79.csv","","null","resources/images/coin2.png","null","",NA,NA,NA,NA,""
"image-keyboard-response",620,590739,"0.0-3.203-0.203","wtwln2x34o0v21v","79.csv","","384.5","resources/trios/L4T1A3.jpg","38","restless",0.4,0.7,0.4,0.494658078890699,"true"
"image-keyboard-response",621,591146,"0.0-3.203-1.203","wtwln2x34o0v21v","79.csv","","null","resources/maskTrios/BT1B.jpg","null","",NA,NA,NA,NA,""
"image-keyboard-response",622,592353,"0.0-3.203-2.203","wtwln2x34o0v21v","79.csv","","null","resources/images/coin2.png","null","",NA,NA,NA,NA,""
"image-keyboard-response",623,592729,"0.0-3.204-0.204","wtwln2x34o0v21v","79.csv","","373","resources/trios/L1T1A2.jpg","38","restless",0.4,0.7,0.4,0.686274484611719,"true"
"image-keyboard-response",624,593131,"0.0-3.204-1.204","wtwln2x34o0v21v","79.csv","","null","resources/maskTrios/BT1B.jpg","null","",NA,NA,NA,NA,""
