"trial_type","trial_index","time_elapsed","internal_node_id","subject","participantCode","walkNumber","success","rt","stimulus","key_press","test_part","leftProb","midProb","rightProb","generatedNum","correct"
"pavlovia",0,1243,"0.0-0.0","u13os16xepsc5je",316,"9.csv","","","","","",NA,NA,NA,NA,""
"fullscreen",1,4320,"0.0-1.0","u13os16xepsc5je",316,"9.csv","true","","","","",NA,NA,NA,NA,""
"html-keyboard-response",2,8254,"0.0-2.0-0.0","u13os16xepsc5je",316,"9.csv","","3932","<p><font size='6'>Arrrgh!</p></font><p>Can you be the best pirate? Try to find lots of gold! But beware, some islands have more gold than others, and over time, the island with the most gold may change. Can YOU figure it out? </p><font size='6'>GOOD LUCK, CAPTAIN!!!</font><p>Press any key to begin</p>","32","",NA,NA,NA,NA,""
"image-keyboard-response",3,11256,"0.0-2.0-1.0","u13os16xepsc5je",316,"9.csv","","null","resources/image_sets/111.png","null","",NA,NA,NA,NA,""
"image-keyboard-response",4,20561,"0.0-2.0-2.0","u13os16xepsc5je",316,"9.csv","","9304","resources/image_sets/left_highlight.png","37","",NA,NA,NA,NA,""
"image-keyboard-response",5,22862,"0.0-2.0-3.0","u13os16xepsc5je",316,"9.csv","","2300.0000000000036","resources/image_sets/mid_highlight.png","38","",NA,NA,NA,NA,""
"image-keyboard-response",6,25842,"0.0-2.0-4.0","u13os16xepsc5je",316,"9.csv","","2979","resources/image_sets/right_highlight.png","39","",NA,NA,NA,NA,""
"image-keyboard-response",7,28624,"0.0-2.0-5.0","u13os16xepsc5je",316,"9.csv","","2782","resources/image_sets/111.png","13","",NA,NA,NA,NA,""
"image-keyboard-response",8,30657,"0.0-2.0-6.0","u13os16xepsc5je",316,"9.csv","","2033","resources/images/coin2.png","13","",NA,NA,NA,NA,""
"image-keyboard-response",9,32225,"0.0-2.0-7.0","u13os16xepsc5je",316,"9.csv","","1568","resources/images/fishbone.png","13","",NA,NA,NA,NA,""
"html-keyboard-response",10,33976,"0.0-2.0-8.0","u13os16xepsc5je",316,"9.csv","","1751","<p>Your first journey will be a long one, but you will get a well deserved break at the end</p><p>After the break you will have four more journeys, but each will be much shorter than the first, and you will have breaks in between each</p><p>Press Enter to begin</p>","13","",NA,NA,NA,NA,""
"image-keyboard-response",11,37202,"0.0-3.0-0.0","u13os16xepsc5je",316,"9.csv","","3225","resources/trios/L2T2A2.jpg","39","restless",0.7,0.9,0.3,0.791236281714402,"false"
"image-keyboard-response",12,37605,"0.0-3.0-1.0","u13os16xepsc5je",316,"9.csv","","null","resources/maskTrios/BBA2.jpg","null","",NA,NA,NA,NA,""
"image-keyboard-response",13,38807,"0.0-3.0-2.0","u13os16xepsc5je",316,"9.csv","","null","resources/images/fishbone.png","null","",NA,NA,NA,NA,""
"image-keyboard-response",14,39783,"0.0-3.1-0.1","u13os16xepsc5je",316,"9.csv","","974","resources/trios/L2T2A3.jpg","39","restless",0.7,0.9,0.3,0.535606980494392,"false"
"image-keyboard-response",15,40185,"0.0-3.1-1.1","u13os16xepsc5je",316,"9.csv","","null","resources/maskTrios/BBA3.jpg","null","",NA,NA,NA,NA,""
"image-keyboard-response",16,41387,"0.0-3.1-2.1","u13os16xepsc5je",316,"9.csv","","null","resources/images/fishbone.png","null","",NA,NA,NA,NA,""
"image-keyboard-response",17,41747,"0.0-3.2-0.2","u13os16xepsc5je",316,"9.csv","","358.0000000000073","resources/trios/L2T4A3.jpg","37","restless",0.6,0.9,0.3,0.563536412469644,"true"
"image-keyboard-response",18,42149,"0.0-3.2-1.2","u13os16xepsc5je",316,"9.csv","","null","resources/maskTrios/L2BB.jpg","null","",NA,NA,NA,NA,""
"image-keyboard-response",19,43352,"0.0-3.2-2.2","u13os16xepsc5je",316,"9.csv","","null","resources/images/coin2.png","null","",NA,NA,NA,NA,""
"image-keyboard-response",20,43693,"0.0-3.3-0.3","u13os16xepsc5je",316,"9.csv","","340","resources/trios/L4T2A2.jpg","37","restless",0.6,0.8,0.3,0.71404683638459,"false"
"image-keyboard-response",21,44095,"0.0-3.3-1.3","u13os16xepsc5je",316,"9.csv","","null","resources/maskTrios/L4BB.jpg","null","",NA,NA,NA,NA,""
"image-keyboard-response",22,45297,"0.0-3.3-2.3","u13os16xepsc5je",316,"9.csv","","null","resources/images/fishbone.png","null","",NA,NA,NA,NA,""
"image-keyboard-response",23,45570,"0.0-3.4-0.4","u13os16xepsc5je",316,"9.csv","","273","resources/trios/L2T4A3.jpg","38","restless",0.6,0.7,0.3,0.291957419073603,"true"
"image-keyboard-response",24,45972,"0.0-3.4-1.4","u13os16xepsc5je",316,"9.csv","","null","resources/maskTrios/BT4B.jpg","null","",NA,NA,NA,NA,""
"image-keyboard-response",25,47174,"0.0-3.4-2.4","u13os16xepsc5je",316,"9.csv","","null","resources/images/coin2.png","null","",NA,NA,NA,NA,""
"image-keyboard-response",26,47299,"0.0-3.5-0.5","u13os16xepsc5je",316,"9.csv","","124","resources/trios/L2T2A2.jpg","38","restless",0.6,0.7,0.3,0.136593860273318,"true"
"image-keyboard-response",27,47700,"0.0-3.5-1.5","u13os16xepsc5je",316,"9.csv","","null","resources/maskTrios/BT2B.jpg","null","",NA,NA,NA,NA,""
"image-keyboard-response",28,48903,"0.0-3.5-2.5","u13os16xepsc5je",316,"9.csv","","null","resources/images/coin2.png","null","",NA,NA,NA,NA,""
"image-keyboard-response",29,48977,"0.0-3.6-0.6","u13os16xepsc5je",316,"9.csv","","73","resources/trios/L2T2A2.jpg","38","restless",0.6,0.7,0.3,0.10839270538686,"true"
"image-keyboard-response",30,49379,"0.0-3.6-1.6","u13os16xepsc5je",316,"9.csv","","null","resources/maskTrios/BT2B.jpg","null","",NA,NA,NA,NA,""
"image-keyboard-response",31,50581,"0.0-3.6-2.6","u13os16xepsc5je",316,"9.csv","","null","resources/images/coin2.png","null","",NA,NA,NA,NA,""
"image-keyboard-response",32,50597,"0.0-3.7-0.7","u13os16xepsc5je",316,"9.csv","","15","resources/trios/L2T4A3.jpg","38","restless",0.6,0.7,0.3,0.25001004023452,"true"
"image-keyboard-response",33,50999,"0.0-3.7-1.7","u13os16xepsc5je",316,"9.csv","","null","resources/maskTrios/BT4B.jpg","null","",NA,NA,NA,NA,""
"image-keyboard-response",34,52201,"0.0-3.7-2.7","u13os16xepsc5je",316,"9.csv","","null","resources/images/coin2.png","null","",NA,NA,NA,NA,""
"image-keyboard-response",35,52443,"0.0-3.8-0.8","u13os16xepsc5je",316,"9.csv","","241","resources/trios/L2T2A2.jpg","38","restless",0.6,0.7,0.3,0.314089537240124,"true"
"image-keyboard-response",36,52845,"0.0-3.8-1.8","u13os16xepsc5je",316,"9.csv","","null","resources/maskTrios/BT2B.jpg","null","",NA,NA,NA,NA,""
"image-keyboard-response",37,54047,"0.0-3.8-2.8","u13os16xepsc5je",316,"9.csv","","null","resources/images/coin2.png","null","",NA,NA,NA,NA,""
"image-keyboard-response",38,54423,"0.0-3.9-0.9","u13os16xepsc5je",316,"9.csv","","374","resources/trios/L4T2A2.jpg","38","restless",0.6,0.7,0.4,0.858297267387399,"false"
"image-keyboard-response",39,54825,"0.0-3.9-1.9","u13os16xepsc5je",316,"9.csv","","null","resources/maskTrios/BT2B.jpg","null","",NA,NA,NA,NA,""
"image-keyboard-response",40,56027,"0.0-3.9-2.9","u13os16xepsc5je",316,"9.csv","","null","resources/images/fishbone.png","null","",NA,NA,NA,NA,""
"image-keyboard-response",41,56202,"0.0-3.10-0.10","u13os16xepsc5je",316,"9.csv","","174","resources/trios/L4T4A3.jpg","38","restless",0.6,0.7,0.4,0.909321616281278,"false"
"image-keyboard-response",42,56604,"0.0-3.10-1.10","u13os16xepsc5je",316,"9.csv","","null","resources/maskTrios/BT4B.jpg","null","",NA,NA,NA,NA,""
"image-keyboard-response",43,57806,"0.0-3.10-2.10","u13os16xepsc5je",316,"9.csv","","null","resources/images/fishbone.png","null","",NA,NA,NA,NA,""
"image-keyboard-response",44,57834,"0.0-3.11-0.11","u13os16xepsc5je",316,"9.csv","","27","resources/trios/L4T2A2.jpg","38","restless",0.6,0.6,0.4,0.883942104856405,"false"
"image-keyboard-response",45,58235,"0.0-3.11-1.11","u13os16xepsc5je",316,"9.csv","","null","resources/maskTrios/BT2B.jpg","null","",NA,NA,NA,NA,""
"image-keyboard-response",46,59438,"0.0-3.11-2.11","u13os16xepsc5je",316,"9.csv","","null","resources/images/fishbone.png","null","",NA,NA,NA,NA,""
"image-keyboard-response",47,59861,"0.0-3.12-0.12","u13os16xepsc5je",316,"9.csv","","421.9999999999927","resources/trios/L2T4A2.jpg","37","restless",0.6,0.6,0.4,0.151249390795957,"true"
"image-keyboard-response",48,60263,"0.0-3.12-1.12","u13os16xepsc5je",316,"9.csv","","null","resources/maskTrios/L2BB.jpg","null","",NA,NA,NA,NA,""
"image-keyboard-response",49,61465,"0.0-3.12-2.12","u13os16xepsc5je",316,"9.csv","","null","resources/images/coin2.png","null","",NA,NA,NA,NA,""
"image-keyboard-response",50,61883,"0.0-3.13-0.13","u13os16xepsc5je",316,"9.csv","","417.0000000000073","resources/trios/L4T2A2.jpg","39","restless",0.6,0.6,0.4,0.405996159963971,"false"
"image-keyboard-response",51,62285,"0.0-3.13-1.13","u13os16xepsc5je",316,"9.csv","","null","resources/maskTrios/BBA2.jpg","null","",NA,NA,NA,NA,""
"image-keyboard-response",52,63486,"0.0-3.13-2.13","u13os16xepsc5je",316,"9.csv","","null","resources/images/fishbone.png","null","",NA,NA,NA,NA,""
"image-keyboard-response",53,63656,"0.0-3.14-0.14","u13os16xepsc5je",316,"9.csv","","170.00000000001455","resources/trios/L4T2A2.jpg","37","restless",0.6,0.6,0.4,0.106043356736974,"true"
"image-keyboard-response",54,64058,"0.0-3.14-1.14","u13os16xepsc5je",316,"9.csv","","null","resources/maskTrios/L4BB.jpg","null","",NA,NA,NA,NA,""
"image-keyboard-response",55,65260,"0.0-3.14-2.14","u13os16xepsc5je",316,"9.csv","","null","resources/images/coin2.png","null","",NA,NA,NA,NA,""
"image-keyboard-response",56,65333,"0.0-3.15-0.15","u13os16xepsc5je",316,"9.csv","","72","resources/trios/L2T4A3.jpg","37","restless",0.6,0.6,0.4,0.661272971236401,"false"
"image-keyboard-response",57,65734,"0.0-3.15-1.15","u13os16xepsc5je",316,"9.csv","","null","resources/maskTrios/L2BB.jpg","null","",NA,NA,NA,NA,""
"image-keyboard-response",58,66936,"0.0-3.15-2.15","u13os16xepsc5je",316,"9.csv","","null","resources/images/fishbone.png","null","",NA,NA,NA,NA,""
"image-keyboard-response",59,66979,"0.0-3.16-0.16","u13os16xepsc5je",316,"9.csv","","42","resources/trios/L2T4A2.jpg","37","restless",0.6,0.6,0.3,0.522445120474601,"true"
"image-keyboard-response",60,67379,"0.0-3.16-1.16","u13os16xepsc5je",316,"9.csv","","null","resources/maskTrios/L2BB.jpg","null","",NA,NA,NA,NA,""
"image-keyboard-response",61,68581,"0.0-3.16-2.16","u13os16xepsc5je",316,"9.csv","","null","resources/images/coin2.png","null","",NA,NA,NA,NA,""
"image-keyboard-response",62,68891,"0.0-3.17-0.17","u13os16xepsc5je",316,"9.csv","","309","resources/trios/L4T4A2.jpg","38","restless",0.6,0.6,0.3,0.0923128552488267,"true"
"image-keyboard-response",63,69292,"0.0-3.17-1.17","u13os16xepsc5je",316,"9.csv","","null","resources/maskTrios/BT4B.jpg","null","",NA,NA,NA,NA,""
"image-keyboard-response",64,70494,"0.0-3.17-2.17","u13os16xepsc5je",316,"9.csv","","null","resources/images/coin2.png","null","",NA,NA,NA,NA,""
"image-keyboard-response",65,70500,"0.0-3.18-0.18","u13os16xepsc5je",316,"9.csv","","5","resources/trios/L4T4A3.jpg","38","restless",0.6,0.6,0.3,0.577602384651061,"true"
"image-keyboard-response",66,70901,"0.0-3.18-1.18","u13os16xepsc5je",316,"9.csv","","null","resources/maskTrios/BT4B.jpg","null","",NA,NA,NA,NA,""
"image-keyboard-response",67,72104,"0.0-3.18-2.18","u13os16xepsc5je",316,"9.csv","","null","resources/images/coin2.png","null","",NA,NA,NA,NA,""
"image-keyboard-response",68,72134,"0.0-3.19-0.19","u13os16xepsc5je",316,"9.csv","","30","resources/trios/L2T2A3.jpg","38","restless",0.6,0.6,0.3,0.77146412283024,"false"
"image-keyboard-response",69,72536,"0.0-3.19-1.19","u13os16xepsc5je",316,"9.csv","","null","resources/maskTrios/BT2B.jpg","null","",NA,NA,NA,NA,""
"image-keyboard-response",70,73738,"0.0-3.19-2.19","u13os16xepsc5je",316,"9.csv","","null","resources/images/fishbone.png","null","",NA,NA,NA,NA,""
"image-keyboard-response",71,74000,"0.0-3.20-0.20","u13os16xepsc5je",316,"9.csv","","261","resources/trios/L2T4A3.jpg","39","restless",0.7,0.6,0.3,0.00948204732210944,"true"
"image-keyboard-response",72,74402,"0.0-3.20-1.20","u13os16xepsc5je",316,"9.csv","","null","resources/maskTrios/BBA3.jpg","null","",NA,NA,NA,NA,""
"image-keyboard-response",73,75604,"0.0-3.20-2.20","u13os16xepsc5je",316,"9.csv","","null","resources/images/coin2.png","null","",NA,NA,NA,NA,""
"image-keyboard-response",74,75608,"0.0-3.21-0.21","u13os16xepsc5je",316,"9.csv","","3","resources/trios/L4T2A2.jpg","39","restless",0.7,0.6,0.3,0.993026901568913,"false"
"image-keyboard-response",75,76009,"0.0-3.21-1.21","u13os16xepsc5je",316,"9.csv","","null","resources/maskTrios/BBA2.jpg","null","",NA,NA,NA,NA,""
"image-keyboard-response",76,77211,"0.0-3.21-2.21","u13os16xepsc5je",316,"9.csv","","null","resources/images/fishbone.png","null","",NA,NA,NA,NA,""
"image-keyboard-response",77,77291,"0.0-3.22-0.22","u13os16xepsc5je",316,"9.csv","","79.00000000001455","resources/trios/L4T2A3.jpg","39","restless",0.7,0.6,0.3,0.380181008400865,"false"
"image-keyboard-response",78,77693,"0.0-3.22-1.22","u13os16xepsc5je",316,"9.csv","","null","resources/maskTrios/BBA3.jpg","null","",NA,NA,NA,NA,""
"image-keyboard-response",79,78895,"0.0-3.22-2.22","u13os16xepsc5je",316,"9.csv","","null","resources/images/fishbone.png","null","",NA,NA,NA,NA,""
"image-keyboard-response",80,78933,"0.0-3.23-0.23","u13os16xepsc5je",316,"9.csv","","37","resources/trios/L2T2A2.jpg","39","restless",0.7,0.6,0.3,0.965025578105698,"false"
"image-keyboard-response",81,79335,"0.0-3.23-1.23","u13os16xepsc5je",316,"9.csv","","null","resources/maskTrios/BBA2.jpg","null","",NA,NA,NA,NA,""
"image-keyboard-response",82,80537,"0.0-3.23-2.23","u13os16xepsc5je",316,"9.csv","","null","resources/images/fishbone.png","null","",NA,NA,NA,NA,""
"image-keyboard-response",83,80716,"0.0-3.24-0.24","u13os16xepsc5je",316,"9.csv","","179","resources/trios/L4T4A2.jpg","39","restless",0.7,0.7,0.3,0.221161486245227,"true"
"image-keyboard-response",84,81118,"0.0-3.24-1.24","u13os16xepsc5je",316,"9.csv","","null","resources/maskTrios/BBA2.jpg","null","",NA,NA,NA,NA,""
"image-keyboard-response",85,82320,"0.0-3.24-2.24","u13os16xepsc5je",316,"9.csv","","null","resources/images/coin2.png","null","",NA,NA,NA,NA,""
"image-keyboard-response",86,82752,"0.0-3.25-0.25","u13os16xepsc5je",316,"9.csv","","431","resources/trios/L4T4A2.jpg","37","restless",0.7,0.7,0.3,0.0827246694379771,"true"
"image-keyboard-response",87,83154,"0.0-3.25-1.25","u13os16xepsc5je",316,"9.csv","","null","resources/maskTrios/L4BB.jpg","null","",NA,NA,NA,NA,""
"image-keyboard-response",88,84355,"0.0-3.25-2.25","u13os16xepsc5je",316,"9.csv","","null","resources/images/coin2.png","null","",NA,NA,NA,NA,""
"image-keyboard-response",89,84703,"0.0-3.26-0.26","u13os16xepsc5je",316,"9.csv","","346","resources/trios/L4T4A3.jpg","38","restless",0.7,0.7,0.3,0.0268412948145847,"true"
"image-keyboard-response",90,85105,"0.0-3.26-1.26","u13os16xepsc5je",316,"9.csv","","null","resources/maskTrios/BT4B.jpg","null","",NA,NA,NA,NA,""
"image-keyboard-response",91,86307,"0.0-3.26-2.26","u13os16xepsc5je",316,"9.csv","","null","resources/images/coin2.png","null","",NA,NA,NA,NA,""
"image-keyboard-response",92,87938,"0.0-3.27-0.27","u13os16xepsc5je",316,"9.csv","","1631","resources/trios/L2T2A3.jpg","38","restless",0.7,0.7,0.3,0.203940342376979,"true"
"image-keyboard-response",93,88340,"0.0-3.27-1.27","u13os16xepsc5je",316,"9.csv","","null","resources/maskTrios/BT2B.jpg","null","",NA,NA,NA,NA,""
"image-keyboard-response",94,89542,"0.0-3.27-2.27","u13os16xepsc5je",316,"9.csv","","null","resources/images/coin2.png","null","",NA,NA,NA,NA,""
"image-keyboard-response",95,89553,"0.0-3.28-0.28","u13os16xepsc5je",316,"9.csv","","10.000000000014552","resources/trios/L2T4A3.jpg","39","restless",0.7,0.7,0.3,0.460143569501609,"false"
"image-keyboard-response",96,89954,"0.0-3.28-1.28","u13os16xepsc5je",316,"9.csv","","null","resources/maskTrios/BBA3.jpg","null","",NA,NA,NA,NA,""
"image-keyboard-response",97,91156,"0.0-3.28-2.28","u13os16xepsc5je",316,"9.csv","","null","resources/images/fishbone.png","null","",NA,NA,NA,NA,""
"image-keyboard-response",98,91450,"0.0-3.29-0.29","u13os16xepsc5je",316,"9.csv","","292.99999999998545","resources/trios/L4T4A2.jpg","38","restless",0.8,0.7,0.3,0.037882356916825,"true"
"image-keyboard-response",99,91852,"0.0-3.29-1.29","u13os16xepsc5je",316,"9.csv","","null","resources/maskTrios/BT4B.jpg","null","",NA,NA,NA,NA,""
"image-keyboard-response",100,93054,"0.0-3.29-2.29","u13os16xepsc5je",316,"9.csv","","null","resources/images/coin2.png","null","",NA,NA,NA,NA,""
"image-keyboard-response",101,93214,"0.0-3.30-0.30","u13os16xepsc5je",316,"9.csv","","159","resources/trios/L2T2A3.jpg","38","restless",0.9,0.7,0.3,0.716505955232919,"false"
"image-keyboard-response",102,93616,"0.0-3.30-1.30","u13os16xepsc5je",316,"9.csv","","null","resources/maskTrios/BT2B.jpg","null","",NA,NA,NA,NA,""
"image-keyboard-response",103,94818,"0.0-3.30-2.30","u13os16xepsc5je",316,"9.csv","","null","resources/images/fishbone.png","null","",NA,NA,NA,NA,""
"image-keyboard-response",104,97608,"0.0-3.31-0.31","u13os16xepsc5je",316,"9.csv","","2789","resources/trios/L4T2A3.jpg","37","restless",0.9,0.7,0.3,0.051646260977002,"true"
"image-keyboard-response",105,98010,"0.0-3.31-1.31","u13os16xepsc5je",316,"9.csv","","null","resources/maskTrios/L4BB.jpg","null","",NA,NA,NA,NA,""
"image-keyboard-response",106,99211,"0.0-3.31-2.31","u13os16xepsc5je",316,"9.csv","","null","resources/images/coin2.png","null","",NA,NA,NA,NA,""
"image-keyboard-response",107,99276,"0.0-3.32-0.32","u13os16xepsc5je",316,"9.csv","","63","resources/trios/L2T2A3.jpg","39","restless",0.9,0.7,0.3,0.247514939930993,"true"
"image-keyboard-response",108,99678,"0.0-3.32-1.32","u13os16xepsc5je",316,"9.csv","","null","resources/maskTrios/BBA3.jpg","null","",NA,NA,NA,NA,""
"image-keyboard-response",109,100880,"0.0-3.32-2.32","u13os16xepsc5je",316,"9.csv","","null","resources/images/coin2.png","null","",NA,NA,NA,NA,""
"image-keyboard-response",110,101687,"0.0-3.33-0.33","u13os16xepsc5je",316,"9.csv","","807.0000000000146","resources/trios/L4T2A2.jpg","37","restless",0.9,0.7,0.3,0.67113408647982,"true"
"image-keyboard-response",111,102089,"0.0-3.33-1.33","u13os16xepsc5je",316,"9.csv","","null","resources/maskTrios/L4BB.jpg","null","",NA,NA,NA,NA,""
"image-keyboard-response",112,103294,"0.0-3.33-2.33","u13os16xepsc5je",316,"9.csv","","null","resources/images/coin2.png","null","",NA,NA,NA,NA,""
"image-keyboard-response",113,103501,"0.0-3.34-0.34","u13os16xepsc5je",316,"9.csv","","206","resources/trios/L2T4A2.jpg","37","restless",0.9,0.7,0.3,0.762721105921573,"true"
"image-keyboard-response",114,103902,"0.0-3.34-1.34","u13os16xepsc5je",316,"9.csv","","null","resources/maskTrios/L2BB.jpg","null","",NA,NA,NA,NA,""
"image-keyboard-response",115,105104,"0.0-3.34-2.34","u13os16xepsc5je",316,"9.csv","","null","resources/images/coin2.png","null","",NA,NA,NA,NA,""
"image-keyboard-response",116,105154,"0.0-3.35-0.35","u13os16xepsc5je",316,"9.csv","","49.00000000001455","resources/trios/L2T2A2.jpg","39","restless",0.9,0.7,0.2,0.241559567245967,"false"
"image-keyboard-response",117,105556,"0.0-3.35-1.35","u13os16xepsc5je",316,"9.csv","","null","resources/maskTrios/BBA2.jpg","null","",NA,NA,NA,NA,""
"image-keyboard-response",118,106758,"0.0-3.35-2.35","u13os16xepsc5je",316,"9.csv","","null","resources/images/fishbone.png","null","",NA,NA,NA,NA,""
"image-keyboard-response",119,107055,"0.0-3.36-0.36","u13os16xepsc5je",316,"9.csv","","296","resources/trios/L4T4A3.jpg","39","restless",0.9,0.7,0.2,0.6015587045473,"false"
"image-keyboard-response",120,107457,"0.0-3.36-1.36","u13os16xepsc5je",316,"9.csv","","null","resources/maskTrios/BBA3.jpg","null","",NA,NA,NA,NA,""
"image-keyboard-response",121,108659,"0.0-3.36-2.36","u13os16xepsc5je",316,"9.csv","","null","resources/images/fishbone.png","null","",NA,NA,NA,NA,""
"image-keyboard-response",122,108709,"0.0-3.37-0.37","u13os16xepsc5je",316,"9.csv","","47.99999999998545","resources/trios/L2T4A2.jpg","37","restless",0.8,0.7,0.2,0.376422051623249,"true"
"image-keyboard-response",123,109111,"0.0-3.37-1.37","u13os16xepsc5je",316,"9.csv","","null","resources/maskTrios/L2BB.jpg","null","",NA,NA,NA,NA,""
"image-keyboard-response",124,110313,"0.0-3.37-2.37","u13os16xepsc5je",316,"9.csv","","null","resources/images/coin2.png","null","",NA,NA,NA,NA,""
"image-keyboard-response",125,110546,"0.0-3.38-0.38","u13os16xepsc5je",316,"9.csv","","232","resources/trios/L4T2A3.jpg","38","restless",0.8,0.7,0.2,0.748849623848695,"false"
"image-keyboard-response",126,110948,"0.0-3.38-1.38","u13os16xepsc5je",316,"9.csv","","null","resources/maskTrios/BT2B.jpg","null","",NA,NA,NA,NA,""
"image-keyboard-response",127,112150,"0.0-3.38-2.38","u13os16xepsc5je",316,"9.csv","","null","resources/images/fishbone.png","null","",NA,NA,NA,NA,""
"image-keyboard-response",128,112319,"0.0-3.39-0.39","u13os16xepsc5je",316,"9.csv","","168.00000000001455","resources/trios/L4T4A3.jpg","38","restless",0.7,0.7,0.3,0.512846078314992,"true"
"image-keyboard-response",129,112721,"0.0-3.39-1.39","u13os16xepsc5je",316,"9.csv","","null","resources/maskTrios/BT4B.jpg","null","",NA,NA,NA,NA,""
"image-keyboard-response",130,113923,"0.0-3.39-2.39","u13os16xepsc5je",316,"9.csv","","null","resources/images/coin2.png","null","",NA,NA,NA,NA,""
"image-keyboard-response",131,114111,"0.0-3.40-0.40","u13os16xepsc5je",316,"9.csv","","187","resources/trios/L4T4A3.jpg","37","restless",0.7,0.7,0.3,0.916498647502512,"false"
"image-keyboard-response",132,114512,"0.0-3.40-1.40","u13os16xepsc5je",316,"9.csv","","null","resources/maskTrios/L4BB.jpg","null","",NA,NA,NA,NA,""
"image-keyboard-response",133,115714,"0.0-3.40-2.40","u13os16xepsc5je",316,"9.csv","","null","resources/images/fishbone.png","null","",NA,NA,NA,NA,""
"image-keyboard-response",134,115745,"0.0-3.41-0.41","u13os16xepsc5je",316,"9.csv","","27","resources/trios/L4T2A3.jpg","37","restless",0.6,0.7,0.3,0.190438427972147,"true"
"image-keyboard-response",135,116146,"0.0-3.41-1.41","u13os16xepsc5je",316,"9.csv","","null","resources/maskTrios/L4BB.jpg","null","",NA,NA,NA,NA,""
"image-keyboard-response",136,117347,"0.0-3.41-2.41","u13os16xepsc5je",316,"9.csv","","null","resources/images/coin2.png","null","",NA,NA,NA,NA,""
"image-keyboard-response",137,117450,"0.0-3.42-0.42","u13os16xepsc5je",316,"9.csv","","100.00000000001455","resources/trios/L4T4A2.jpg","37","restless",0.6,0.7,0.3,0.28102035073568,"true"
"image-keyboard-response",138,117852,"0.0-3.42-1.42","u13os16xepsc5je",316,"9.csv","","null","resources/maskTrios/L4BB.jpg","null","",NA,NA,NA,NA,""
"image-keyboard-response",139,119054,"0.0-3.42-2.42","u13os16xepsc5je",316,"9.csv","","null","resources/images/coin2.png","null","",NA,NA,NA,NA,""
"image-keyboard-response",140,119146,"0.0-3.43-0.43","u13os16xepsc5je",316,"9.csv","","92","resources/trios/L2T4A3.jpg","37","restless",0.6,0.7,0.3,0.614048617957238,"false"
"image-keyboard-response",141,119548,"0.0-3.43-1.43","u13os16xepsc5je",316,"9.csv","","null","resources/maskTrios/L2BB.jpg","null","",NA,NA,NA,NA,""
"image-keyboard-response",142,120750,"0.0-3.43-2.43","u13os16xepsc5je",316,"9.csv","","null","resources/images/fishbone.png","null","",NA,NA,NA,NA,""
"image-keyboard-response",143,120820,"0.0-3.44-0.44","u13os16xepsc5je",316,"9.csv","","69","resources/trios/L2T4A2.jpg","38","restless",0.5,0.7,0.4,0.940477609150167,"false"
"image-keyboard-response",144,121222,"0.0-3.44-1.44","u13os16xepsc5je",316,"9.csv","","null","resources/maskTrios/BT4B.jpg","null","",NA,NA,NA,NA,""
"image-keyboard-response",145,122423,"0.0-3.44-2.44","u13os16xepsc5je",316,"9.csv","","null","resources/images/fishbone.png","null","",NA,NA,NA,NA,""
"image-keyboard-response",146,122615,"0.0-3.45-0.45","u13os16xepsc5je",316,"9.csv","","190","resources/trios/L4T2A2.jpg","39","restless",0.5,0.7,0.5,0.257239021539386,"true"
"image-keyboard-response",147,123017,"0.0-3.45-1.45","u13os16xepsc5je",316,"9.csv","","null","resources/maskTrios/BBA2.jpg","null","",NA,NA,NA,NA,""
"image-keyboard-response",148,124219,"0.0-3.45-2.45","u13os16xepsc5je",316,"9.csv","","null","resources/images/coin2.png","null","",NA,NA,NA,NA,""
"image-keyboard-response",149,124338,"0.0-3.46-0.46","u13os16xepsc5je",316,"9.csv","","118","resources/trios/L2T4A3.jpg","37","restless",0.5,0.7,0.5,0.962948826300246,"false"
"image-keyboard-response",150,124739,"0.0-3.46-1.46","u13os16xepsc5je",316,"9.csv","","null","resources/maskTrios/L2BB.jpg","null","",NA,NA,NA,NA,""
"image-keyboard-response",151,125941,"0.0-3.46-2.46","u13os16xepsc5je",316,"9.csv","","null","resources/images/fishbone.png","null","",NA,NA,NA,NA,""
"image-keyboard-response",152,126781,"0.0-3.47-0.47","u13os16xepsc5je",316,"9.csv","","839","resources/trios/L2T4A2.jpg","37","restless",0.5,0.7,0.5,0.467752399050665,"true"
"image-keyboard-response",153,127182,"0.0-3.47-1.47","u13os16xepsc5je",316,"9.csv","","null","resources/maskTrios/L2BB.jpg","null","",NA,NA,NA,NA,""
"image-keyboard-response",154,128384,"0.0-3.47-2.47","u13os16xepsc5je",316,"9.csv","","null","resources/images/coin2.png","null","",NA,NA,NA,NA,""
"image-keyboard-response",155,128419,"0.0-3.48-0.48","u13os16xepsc5je",316,"9.csv","","33.99999999998545","resources/trios/L4T2A3.jpg","38","restless",0.5,0.7,0.5,0.208895052479943,"true"
"image-keyboard-response",156,128821,"0.0-3.48-1.48","u13os16xepsc5je",316,"9.csv","","null","resources/maskTrios/BT2B.jpg","null","",NA,NA,NA,NA,""
"image-keyboard-response",157,130023,"0.0-3.48-2.48","u13os16xepsc5je",316,"9.csv","","null","resources/images/coin2.png","null","",NA,NA,NA,NA,""
"image-keyboard-response",158,130707,"0.0-3.49-0.49","u13os16xepsc5je",316,"9.csv","","683","resources/trios/L4T4A3.jpg","39","restless",0.5,0.7,0.4,0.602766992771918,"false"
"image-keyboard-response",159,131108,"0.0-3.49-1.49","u13os16xepsc5je",316,"9.csv","","null","resources/maskTrios/BBA3.jpg","null","",NA,NA,NA,NA,""
"image-keyboard-response",160,132312,"0.0-3.49-2.49","u13os16xepsc5je",316,"9.csv","","null","resources/images/fishbone.png","null","",NA,NA,NA,NA,""
"image-keyboard-response",161,132442,"0.0-3.50-0.50","u13os16xepsc5je",316,"9.csv","","130","resources/trios/L4T2A2.jpg","37","restless",0.5,0.7,0.5,0.102385402514667,"true"
"image-keyboard-response",162,132844,"0.0-3.50-1.50","u13os16xepsc5je",316,"9.csv","","null","resources/maskTrios/L4BB.jpg","null","",NA,NA,NA,NA,""
"image-keyboard-response",163,134046,"0.0-3.50-2.50","u13os16xepsc5je",316,"9.csv","","null","resources/images/coin2.png","null","",NA,NA,NA,NA,""
"image-keyboard-response",164,134099,"0.0-3.51-0.51","u13os16xepsc5je",316,"9.csv","","49","resources/trios/L2T2A2.jpg","38","restless",0.5,0.7,0.6,0.427083208873617,"true"
"image-keyboard-response",165,134501,"0.0-3.51-1.51","u13os16xepsc5je",316,"9.csv","","null","resources/maskTrios/BT2B.jpg","null","",NA,NA,NA,NA,""
"image-keyboard-response",166,135703,"0.0-3.51-2.51","u13os16xepsc5je",316,"9.csv","","null","resources/images/coin2.png","null","",NA,NA,NA,NA,""
"image-keyboard-response",167,135869,"0.0-3.52-0.52","u13os16xepsc5je",316,"9.csv","","165","resources/trios/L4T4A3.jpg","38","restless",0.5,0.7,0.6,0.50411565722775,"true"
"image-keyboard-response",168,136271,"0.0-3.52-1.52","u13os16xepsc5je",316,"9.csv","","null","resources/maskTrios/BT4B.jpg","null","",NA,NA,NA,NA,""
"image-keyboard-response",169,137473,"0.0-3.52-2.52","u13os16xepsc5je",316,"9.csv","","null","resources/images/coin2.png","null","",NA,NA,NA,NA,""
"image-keyboard-response",170,137600,"0.0-3.53-0.53","u13os16xepsc5je",316,"9.csv","","127","resources/trios/L4T2A2.jpg","38","restless",0.5,0.6,0.6,0.760504347590504,"false"
"image-keyboard-response",171,138001,"0.0-3.53-1.53","u13os16xepsc5je",316,"9.csv","","null","resources/maskTrios/BT2B.jpg","null","",NA,NA,NA,NA,""
"image-keyboard-response",172,139203,"0.0-3.53-2.53","u13os16xepsc5je",316,"9.csv","","null","resources/images/fishbone.png","null","",NA,NA,NA,NA,""
"image-keyboard-response",173,139382,"0.0-3.54-0.54","u13os16xepsc5je",316,"9.csv","","179","resources/trios/L4T2A3.jpg","38","restless",0.5,0.7,0.6,0.239131336522735,"true"
"image-keyboard-response",174,139784,"0.0-3.54-1.54","u13os16xepsc5je",316,"9.csv","","null","resources/maskTrios/BT2B.jpg","null","",NA,NA,NA,NA,""
"image-keyboard-response",175,140986,"0.0-3.54-2.54","u13os16xepsc5je",316,"9.csv","","null","resources/images/coin2.png","null","",NA,NA,NA,NA,""
"image-keyboard-response",176,141231,"0.0-3.55-0.55","u13os16xepsc5je",316,"9.csv","","244","resources/trios/L4T4A3.jpg","39","restless",0.4,0.7,0.6,0.995609742779328,"false"
"image-keyboard-response",177,141633,"0.0-3.55-1.55","u13os16xepsc5je",316,"9.csv","","null","resources/maskTrios/BBA3.jpg","null","",NA,NA,NA,NA,""
"image-keyboard-response",178,142835,"0.0-3.55-2.55","u13os16xepsc5je",316,"9.csv","","null","resources/images/fishbone.png","null","",NA,NA,NA,NA,""
"image-keyboard-response",179,142919,"0.0-3.56-0.56","u13os16xepsc5je",316,"9.csv","","83","resources/trios/L4T4A2.jpg","37","restless",0.4,0.7,0.6,0.00504154386041922,"true"
"image-keyboard-response",180,143321,"0.0-3.56-1.56","u13os16xepsc5je",316,"9.csv","","null","resources/maskTrios/L4BB.jpg","null","",NA,NA,NA,NA,""
"image-keyboard-response",181,144523,"0.0-3.56-2.56","u13os16xepsc5je",316,"9.csv","","null","resources/images/coin2.png","null","",NA,NA,NA,NA,""
"image-keyboard-response",182,144601,"0.0-3.57-0.57","u13os16xepsc5je",316,"9.csv","","75","resources/trios/L4T2A3.jpg","37","restless",0.4,0.7,0.6,0.540126666966649,"false"
"image-keyboard-response",183,145003,"0.0-3.57-1.57","u13os16xepsc5je",316,"9.csv","","null","resources/maskTrios/L4BB.jpg","null","",NA,NA,NA,NA,""
"image-keyboard-response",184,146204,"0.0-3.57-2.57","u13os16xepsc5je",316,"9.csv","","null","resources/images/fishbone.png","null","",NA,NA,NA,NA,""
"image-keyboard-response",185,146237,"0.0-3.58-0.58","u13os16xepsc5je",316,"9.csv","","33","resources/trios/L4T2A2.jpg","39","restless",0.4,0.7,0.6,0.505257182450782,"true"
"image-keyboard-response",186,146639,"0.0-3.58-1.58","u13os16xepsc5je",316,"9.csv","","null","resources/maskTrios/BBA2.jpg","null","",NA,NA,NA,NA,""
"image-keyboard-response",187,147841,"0.0-3.58-2.58","u13os16xepsc5je",316,"9.csv","","null","resources/images/coin2.png","null","",NA,NA,NA,NA,""
"image-keyboard-response",188,147980,"0.0-3.59-0.59","u13os16xepsc5je",316,"9.csv","","137","resources/trios/L4T2A3.jpg","37","restless",0.4,0.7,0.6,0.126963449500469,"true"
"image-keyboard-response",189,148382,"0.0-3.59-1.59","u13os16xepsc5je",316,"9.csv","","null","resources/maskTrios/L4BB.jpg","null","",NA,NA,NA,NA,""
"image-keyboard-response",190,149583,"0.0-3.59-2.59","u13os16xepsc5je",316,"9.csv","","null","resources/images/coin2.png","null","",NA,NA,NA,NA,""
"image-keyboard-response",191,149654,"0.0-3.60-0.60","u13os16xepsc5je",316,"9.csv","","70.0000000000291","resources/trios/L2T2A2.jpg","38","restless",0.3,0.7,0.5,0.530943023447932,"true"
"image-keyboard-response",192,150054,"0.0-3.60-1.60","u13os16xepsc5je",316,"9.csv","","null","resources/maskTrios/BT2B.jpg","null","",NA,NA,NA,NA,""
"image-keyboard-response",193,151255,"0.0-3.60-2.60","u13os16xepsc5je",316,"9.csv","","null","resources/images/coin2.png","null","",NA,NA,NA,NA,""
"image-keyboard-response",194,151372,"0.0-3.61-0.61","u13os16xepsc5je",316,"9.csv","","117","resources/trios/L2T2A3.jpg","38","restless",0.3,0.7,0.5,0.648025098225639,"true"
"image-keyboard-response",195,151774,"0.0-3.61-1.61","u13os16xepsc5je",316,"9.csv","","null","resources/maskTrios/BT2B.jpg","null","",NA,NA,NA,NA,""
"image-keyboard-response",196,152975,"0.0-3.61-2.61","u13os16xepsc5je",316,"9.csv","","null","resources/images/coin2.png","null","",NA,NA,NA,NA,""
"image-keyboard-response",197,153808,"0.0-3.62-0.62","u13os16xepsc5je",316,"9.csv","","832","resources/trios/L4T2A2.jpg","37","restless",0.3,0.8,0.5,0.758272379449554,"false"
"image-keyboard-response",198,154209,"0.0-3.62-1.62","u13os16xepsc5je",316,"9.csv","","null","resources/maskTrios/L4BB.jpg","null","",NA,NA,NA,NA,""
"image-keyboard-response",199,155411,"0.0-3.62-2.62","u13os16xepsc5je",316,"9.csv","","null","resources/images/fishbone.png","null","",NA,NA,NA,NA,""
"image-keyboard-response",200,156094,"0.0-3.63-0.63","u13os16xepsc5je",316,"9.csv","","682","resources/trios/L2T4A2.jpg","38","restless",0.3,0.8,0.5,0.274160186627288,"true"
"image-keyboard-response",201,156495,"0.0-3.63-1.63","u13os16xepsc5je",316,"9.csv","","null","resources/maskTrios/BT4B.jpg","null","",NA,NA,NA,NA,""
"image-keyboard-response",202,157698,"0.0-3.63-2.63","u13os16xepsc5je",316,"9.csv","","null","resources/images/coin2.png","null","",NA,NA,NA,NA,""
"image-keyboard-response",203,157946,"0.0-3.64-0.64","u13os16xepsc5je",316,"9.csv","","247","resources/trios/L4T2A2.jpg","38","restless",0.3,0.8,0.5,0.0300690942768473,"true"
"image-keyboard-response",204,158348,"0.0-3.64-1.64","u13os16xepsc5je",316,"9.csv","","null","resources/maskTrios/BT2B.jpg","null","",NA,NA,NA,NA,""
"image-keyboard-response",205,159549,"0.0-3.64-2.64","u13os16xepsc5je",316,"9.csv","","null","resources/images/coin2.png","null","",NA,NA,NA,NA,""
"image-keyboard-response",206,159554,"0.0-3.65-0.65","u13os16xepsc5je",316,"9.csv","","2","resources/trios/L2T2A2.jpg","38","restless",0.3,0.8,0.6,0.550779515501791,"true"
"image-keyboard-response",207,159956,"0.0-3.65-1.65","u13os16xepsc5je",316,"9.csv","","null","resources/maskTrios/BT2B.jpg","null","",NA,NA,NA,NA,""
"image-keyboard-response",208,161157,"0.0-3.65-2.65","u13os16xepsc5je",316,"9.csv","","null","resources/images/coin2.png","null","",NA,NA,NA,NA,""
"image-keyboard-response",209,161262,"0.0-3.66-0.66","u13os16xepsc5je",316,"9.csv","","104","resources/trios/L2T4A3.jpg","38","restless",0.3,0.8,0.6,0.730922980485863,"true"
"image-keyboard-response",210,161664,"0.0-3.66-1.66","u13os16xepsc5je",316,"9.csv","","null","resources/maskTrios/BT4B.jpg","null","",NA,NA,NA,NA,""
"image-keyboard-response",211,162866,"0.0-3.66-2.66","u13os16xepsc5je",316,"9.csv","","null","resources/images/coin2.png","null","",NA,NA,NA,NA,""
"image-keyboard-response",212,162960,"0.0-3.67-0.67","u13os16xepsc5je",316,"9.csv","","93","resources/trios/L4T2A2.jpg","38","restless",0.3,0.8,0.6,0.542615683449794,"true"
"image-keyboard-response",213,163362,"0.0-3.67-1.67","u13os16xepsc5je",316,"9.csv","","null","resources/maskTrios/BT2B.jpg","null","",NA,NA,NA,NA,""
"image-keyboard-response",214,164564,"0.0-3.67-2.67","u13os16xepsc5je",316,"9.csv","","null","resources/images/coin2.png","null","",NA,NA,NA,NA,""
"image-keyboard-response",215,164589,"0.0-3.68-0.68","u13os16xepsc5je",316,"9.csv","","24","resources/trios/L4T2A3.jpg","38","restless",0.3,0.8,0.6,0.815757729523362,"false"
"image-keyboard-response",216,164991,"0.0-3.68-1.68","u13os16xepsc5je",316,"9.csv","","null","resources/maskTrios/BT2B.jpg","null","",NA,NA,NA,NA,""
"image-keyboard-response",217,166193,"0.0-3.68-2.68","u13os16xepsc5je",316,"9.csv","","null","resources/images/fishbone.png","null","",NA,NA,NA,NA,""
"image-keyboard-response",218,166215,"0.0-3.69-0.69","u13os16xepsc5je",316,"9.csv","","21","resources/trios/L4T2A3.jpg","38","restless",0.3,0.8,0.5,0.551575813965918,"true"
"image-keyboard-response",219,166615,"0.0-3.69-1.69","u13os16xepsc5je",316,"9.csv","","null","resources/maskTrios/BT2B.jpg","null","",NA,NA,NA,NA,""
"image-keyboard-response",220,167816,"0.0-3.69-2.69","u13os16xepsc5je",316,"9.csv","","null","resources/images/coin2.png","null","",NA,NA,NA,NA,""
"image-keyboard-response",221,167858,"0.0-3.70-0.70","u13os16xepsc5je",316,"9.csv","","41","resources/trios/L4T2A3.jpg","38","restless",0.3,0.8,0.5,0.377346177894141,"true"
"image-keyboard-response",222,168260,"0.0-3.70-1.70","u13os16xepsc5je",316,"9.csv","","null","resources/maskTrios/BT2B.jpg","null","",NA,NA,NA,NA,""
"image-keyboard-response",223,169462,"0.0-3.70-2.70","u13os16xepsc5je",316,"9.csv","","null","resources/images/coin2.png","null","",NA,NA,NA,NA,""
"image-keyboard-response",224,169484,"0.0-3.71-0.71","u13os16xepsc5je",316,"9.csv","","21","resources/trios/L2T2A3.jpg","38","restless",0.3,0.8,0.6,0.0190524264471025,"true"
"image-keyboard-response",225,169885,"0.0-3.71-1.71","u13os16xepsc5je",316,"9.csv","","null","resources/maskTrios/BT2B.jpg","null","",NA,NA,NA,NA,""
"image-keyboard-response",226,171086,"0.0-3.71-2.71","u13os16xepsc5je",316,"9.csv","","null","resources/images/coin2.png","null","",NA,NA,NA,NA,""
"image-keyboard-response",227,171351,"0.0-3.72-0.72","u13os16xepsc5je",316,"9.csv","","264","resources/trios/L2T4A3.jpg","38","restless",0.3,0.8,0.6,0.460486903934921,"true"
"image-keyboard-response",228,171753,"0.0-3.72-1.72","u13os16xepsc5je",316,"9.csv","","null","resources/maskTrios/BT4B.jpg","null","",NA,NA,NA,NA,""
"image-keyboard-response",229,172954,"0.0-3.72-2.72","u13os16xepsc5je",316,"9.csv","","null","resources/images/coin2.png","null","",NA,NA,NA,NA,""
"image-keyboard-response",230,173075,"0.0-3.73-0.73","u13os16xepsc5je",316,"9.csv","","117","resources/trios/L2T2A3.jpg","37","restless",0.4,0.8,0.6,0.7775333849679,"false"
"image-keyboard-response",231,173477,"0.0-3.73-1.73","u13os16xepsc5je",316,"9.csv","","null","resources/maskTrios/L2BB.jpg","null","",NA,NA,NA,NA,""
"image-keyboard-response",232,174679,"0.0-3.73-2.73","u13os16xepsc5je",316,"9.csv","","null","resources/images/fishbone.png","null","",NA,NA,NA,NA,""
"image-keyboard-response",233,174882,"0.0-3.74-0.74","u13os16xepsc5je",316,"9.csv","","202","resources/trios/L4T4A2.jpg","39","restless",0.4,0.8,0.6,0.263360491796655,"true"
"image-keyboard-response",234,175284,"0.0-3.74-1.74","u13os16xepsc5je",316,"9.csv","","null","resources/maskTrios/BBA2.jpg","null","",NA,NA,NA,NA,""
"image-keyboard-response",235,176486,"0.0-3.74-2.74","u13os16xepsc5je",316,"9.csv","","null","resources/images/coin2.png","null","",NA,NA,NA,NA,""
"image-keyboard-response",236,176608,"0.0-3.75-0.75","u13os16xepsc5je",316,"9.csv","","120.9999999999709","resources/trios/L4T2A2.jpg","37","restless",0.4,0.8,0.6,0.0201519175915845,"true"
"image-keyboard-response",237,177009,"0.0-3.75-1.75","u13os16xepsc5je",316,"9.csv","","null","resources/maskTrios/L4BB.jpg","null","",NA,NA,NA,NA,""
"image-keyboard-response",238,178210,"0.0-3.75-2.75","u13os16xepsc5je",316,"9.csv","","null","resources/images/coin2.png","null","",NA,NA,NA,NA,""
"image-keyboard-response",239,178384,"0.0-3.76-0.76","u13os16xepsc5je",316,"9.csv","","173","resources/trios/L2T4A3.jpg","38","restless",0.4,0.8,0.6,0.275968398064914,"true"
"image-keyboard-response",240,178786,"0.0-3.76-1.76","u13os16xepsc5je",316,"9.csv","","null","resources/maskTrios/BT4B.jpg","null","",NA,NA,NA,NA,""
"image-keyboard-response",241,179988,"0.0-3.76-2.76","u13os16xepsc5je",316,"9.csv","","null","resources/images/coin2.png","null","",NA,NA,NA,NA,""
"image-keyboard-response",242,180122,"0.0-3.77-0.77","u13os16xepsc5je",316,"9.csv","","133","resources/trios/L2T2A3.jpg","38","restless",0.5,0.8,0.6,0.517398930508319,"true"
"image-keyboard-response",243,180523,"0.0-3.77-1.77","u13os16xepsc5je",316,"9.csv","","null","resources/maskTrios/BT2B.jpg","null","",NA,NA,NA,NA,""
"image-keyboard-response",244,181725,"0.0-3.77-2.77","u13os16xepsc5je",316,"9.csv","","null","resources/images/coin2.png","null","",NA,NA,NA,NA,""
"image-keyboard-response",245,181913,"0.0-3.78-0.78","u13os16xepsc5je",316,"9.csv","","186","resources/trios/L4T2A2.jpg","37","restless",0.5,0.7,0.6,0.807406285790829,"false"
"image-keyboard-response",246,182315,"0.0-3.78-1.78","u13os16xepsc5je",316,"9.csv","","null","resources/maskTrios/L4BB.jpg","null","",NA,NA,NA,NA,""
"image-keyboard-response",247,183517,"0.0-3.78-2.78","u13os16xepsc5je",316,"9.csv","","null","resources/images/fishbone.png","null","",NA,NA,NA,NA,""
"image-keyboard-response",248,183622,"0.0-3.79-0.79","u13os16xepsc5je",316,"9.csv","","103","resources/trios/L2T2A2.jpg","37","restless",0.5,0.7,0.6,0.621082213167815,"false"
"image-keyboard-response",249,184024,"0.0-3.79-1.79","u13os16xepsc5je",316,"9.csv","","null","resources/maskTrios/L2BB.jpg","null","",NA,NA,NA,NA,""
"image-keyboard-response",250,185225,"0.0-3.79-2.79","u13os16xepsc5je",316,"9.csv","","null","resources/images/fishbone.png","null","",NA,NA,NA,NA,""
"image-keyboard-response",251,185375,"0.0-3.80-0.80","u13os16xepsc5je",316,"9.csv","","146.0000000000291","resources/trios/L2T4A2.jpg","39","restless",0.5,0.7,0.6,0.733092095989131,"false"
"image-keyboard-response",252,185777,"0.0-3.80-1.80","u13os16xepsc5je",316,"9.csv","","null","resources/maskTrios/BBA2.jpg","null","",NA,NA,NA,NA,""
"image-keyboard-response",253,186978,"0.0-3.80-2.80","u13os16xepsc5je",316,"9.csv","","null","resources/images/fishbone.png","null","",NA,NA,NA,NA,""
"image-keyboard-response",254,187247,"0.0-3.81-0.81","u13os16xepsc5je",316,"9.csv","","267","resources/trios/L4T2A2.jpg","39","restless",0.5,0.7,0.6,0.0645526687061228,"true"
"image-keyboard-response",255,187648,"0.0-3.81-1.81","u13os16xepsc5je",316,"9.csv","","null","resources/maskTrios/BBA2.jpg","null","",NA,NA,NA,NA,""
"image-keyboard-response",256,188850,"0.0-3.81-2.81","u13os16xepsc5je",316,"9.csv","","null","resources/images/coin2.png","null","",NA,NA,NA,NA,""
"image-keyboard-response",257,189851,"0.0-3.82-0.82","u13os16xepsc5je",316,"9.csv","","1000","resources/trios/L2T2A3.jpg","39","restless",0.5,0.7,0.6,0.823624507358155,"false"
"image-keyboard-response",258,190252,"0.0-3.82-1.82","u13os16xepsc5je",316,"9.csv","","null","resources/maskTrios/BBA3.jpg","null","",NA,NA,NA,NA,""
"image-keyboard-response",259,191454,"0.0-3.82-2.82","u13os16xepsc5je",316,"9.csv","","null","resources/images/fishbone.png","null","",NA,NA,NA,NA,""
"image-keyboard-response",260,191642,"0.0-3.83-0.83","u13os16xepsc5je",316,"9.csv","","186","resources/trios/L2T2A3.jpg","37","restless",0.5,0.7,0.6,0.418284860980937,"true"
"image-keyboard-response",261,192043,"0.0-3.83-1.83","u13os16xepsc5je",316,"9.csv","","null","resources/maskTrios/L2BB.jpg","null","",NA,NA,NA,NA,""
"image-keyboard-response",262,193245,"0.0-3.83-2.83","u13os16xepsc5je",316,"9.csv","","null","resources/images/coin2.png","null","",NA,NA,NA,NA,""
"image-keyboard-response",263,193250,"0.0-3.84-0.84","u13os16xepsc5je",316,"9.csv","","2.000000000029104","resources/trios/L2T2A2.jpg","39","restless",0.5,0.7,0.6,0.396109261686943,"true"
"image-keyboard-response",264,193651,"0.0-3.84-1.84","u13os16xepsc5je",316,"9.csv","","null","resources/maskTrios/BBA2.jpg","null","",NA,NA,NA,NA,""
"image-keyboard-response",265,194853,"0.0-3.84-2.84","u13os16xepsc5je",316,"9.csv","","null","resources/images/coin2.png","null","",NA,NA,NA,NA,""
"image-keyboard-response",266,195443,"0.0-3.85-0.85","u13os16xepsc5je",316,"9.csv","","589","resources/trios/L4T2A2.jpg","39","restless",0.5,0.7,0.6,0.642987243885075,"false"
"image-keyboard-response",267,195845,"0.0-3.85-1.85","u13os16xepsc5je",316,"9.csv","","null","resources/maskTrios/BBA2.jpg","null","",NA,NA,NA,NA,""
"image-keyboard-response",268,197045,"0.0-3.85-2.85","u13os16xepsc5je",316,"9.csv","","null","resources/images/fishbone.png","null","",NA,NA,NA,NA,""
"image-keyboard-response",269,197207,"0.0-3.86-0.86","u13os16xepsc5je",316,"9.csv","","161","resources/trios/L4T2A3.jpg","39","restless",0.5,0.7,0.6,0.395496104886769,"true"
"image-keyboard-response",270,197610,"0.0-3.86-1.86","u13os16xepsc5je",316,"9.csv","","null","resources/maskTrios/BBA3.jpg","null","",NA,NA,NA,NA,""
"image-keyboard-response",271,198809,"0.0-3.86-2.86","u13os16xepsc5je",316,"9.csv","","null","resources/images/coin2.png","null","",NA,NA,NA,NA,""
"image-keyboard-response",272,198851,"0.0-3.87-0.87","u13os16xepsc5je",316,"9.csv","","41","resources/trios/L4T4A2.jpg","39","restless",0.5,0.7,0.6,0.922009688246615,"false"
"image-keyboard-response",273,199252,"0.0-3.87-1.87","u13os16xepsc5je",316,"9.csv","","null","resources/maskTrios/BBA2.jpg","null","",NA,NA,NA,NA,""
"image-keyboard-response",274,200452,"0.0-3.87-2.87","u13os16xepsc5je",316,"9.csv","","null","resources/images/fishbone.png","null","",NA,NA,NA,NA,""
"image-keyboard-response",275,200971,"0.0-3.88-0.88","u13os16xepsc5je",316,"9.csv","","519.0000000000291","resources/trios/L4T4A2.jpg","37","restless",0.5,0.7,0.6,0.156905980726779,"true"
"image-keyboard-response",276,201373,"0.0-3.88-1.88","u13os16xepsc5je",316,"9.csv","","null","resources/maskTrios/L4BB.jpg","null","",NA,NA,NA,NA,""
"image-keyboard-response",277,202573,"0.0-3.88-2.88","u13os16xepsc5je",316,"9.csv","","null","resources/images/coin2.png","null","",NA,NA,NA,NA,""
"image-keyboard-response",278,202920,"0.0-3.89-0.89","u13os16xepsc5je",316,"9.csv","","346","resources/trios/L2T4A3.jpg","38","restless",0.5,0.7,0.6,0.330430747892376,"true"
"image-keyboard-response",279,203320,"0.0-3.89-1.89","u13os16xepsc5je",316,"9.csv","","null","resources/maskTrios/BT4B.jpg","null","",NA,NA,NA,NA,""
"image-keyboard-response",280,204520,"0.0-3.89-2.89","u13os16xepsc5je",316,"9.csv","","null","resources/images/coin2.png","null","",NA,NA,NA,NA,""
"image-keyboard-response",281,204578,"0.0-3.90-0.90","u13os16xepsc5je",316,"9.csv","","57","resources/trios/L2T4A2.jpg","39","restless",0.5,0.7,0.6,0.0349741656856782,"true"
"image-keyboard-response",282,204980,"0.0-3.90-1.90","u13os16xepsc5je",316,"9.csv","","null","resources/maskTrios/BBA2.jpg","null","",NA,NA,NA,NA,""
"image-keyboard-response",283,206180,"0.0-3.90-2.90","u13os16xepsc5je",316,"9.csv","","null","resources/images/coin2.png","null","",NA,NA,NA,NA,""
"image-keyboard-response",284,206825,"0.0-3.91-0.91","u13os16xepsc5je",316,"9.csv","","645","resources/trios/L2T4A3.jpg","39","restless",0.5,0.7,0.6,0.76228063494723,"false"
"image-keyboard-response",285,207227,"0.0-3.91-1.91","u13os16xepsc5je",316,"9.csv","","null","resources/maskTrios/BBA3.jpg","null","",NA,NA,NA,NA,""
"image-keyboard-response",286,208428,"0.0-3.91-2.91","u13os16xepsc5je",316,"9.csv","","null","resources/images/fishbone.png","null","",NA,NA,NA,NA,""
"image-keyboard-response",287,208893,"0.0-3.92-0.92","u13os16xepsc5je",316,"9.csv","","464","resources/trios/L4T2A2.jpg","39","restless",0.5,0.7,0.6,0.657282153143196,"false"
"image-keyboard-response",288,209296,"0.0-3.92-1.92","u13os16xepsc5je",316,"9.csv","","null","resources/maskTrios/BBA2.jpg","null","",NA,NA,NA,NA,""
"image-keyboard-response",289,210497,"0.0-3.92-2.92","u13os16xepsc5je",316,"9.csv","","null","resources/images/fishbone.png","null","",NA,NA,NA,NA,""
"image-keyboard-response",290,213321,"0.0-3.93-0.93","u13os16xepsc5je",316,"9.csv","","2825","resources/trios/L4T4A2.jpg","38","restless",0.4,0.7,0.6,0.104794442900334,"true"
"image-keyboard-response",291,213722,"0.0-3.93-1.93","u13os16xepsc5je",316,"9.csv","","null","resources/maskTrios/BT4B.jpg","null","",NA,NA,NA,NA,""
"image-keyboard-response",292,214924,"0.0-3.93-2.93","u13os16xepsc5je",316,"9.csv","","null","resources/images/coin2.png","null","",NA,NA,NA,NA,""
"image-keyboard-response",293,215068,"0.0-3.94-0.94","u13os16xepsc5je",316,"9.csv","","144","resources/trios/L4T2A3.jpg","39","restless",0.4,0.7,0.6,0.490132144867649,"true"
"image-keyboard-response",294,215470,"0.0-3.94-1.94","u13os16xepsc5je",316,"9.csv","","null","resources/maskTrios/BBA3.jpg","null","",NA,NA,NA,NA,""
"image-keyboard-response",295,216671,"0.0-3.94-2.94","u13os16xepsc5je",316,"9.csv","","null","resources/images/coin2.png","null","",NA,NA,NA,NA,""
"image-keyboard-response",296,216729,"0.0-3.95-0.95","u13os16xepsc5je",316,"9.csv","","57.000000000029104","resources/trios/L2T2A2.jpg","39","restless",0.4,0.6,0.6,0.653172504290413,"false"
"image-keyboard-response",297,217131,"0.0-3.95-1.95","u13os16xepsc5je",316,"9.csv","","null","resources/maskTrios/BBA2.jpg","null","",NA,NA,NA,NA,""
"image-keyboard-response",298,218332,"0.0-3.95-2.95","u13os16xepsc5je",316,"9.csv","","null","resources/images/fishbone.png","null","",NA,NA,NA,NA,""
"image-keyboard-response",299,218773,"0.0-3.96-0.96","u13os16xepsc5je",316,"9.csv","","438","resources/trios/L2T2A3.jpg","39","restless",0.4,0.6,0.6,0.857346187135723,"false"
"image-keyboard-response",300,219174,"0.0-3.96-1.96","u13os16xepsc5je",316,"9.csv","","null","resources/maskTrios/BBA3.jpg","null","",NA,NA,NA,NA,""
"image-keyboard-response",301,220375,"0.0-3.96-2.96","u13os16xepsc5je",316,"9.csv","","null","resources/images/fishbone.png","null","",NA,NA,NA,NA,""
"image-keyboard-response",302,220553,"0.0-3.97-0.97","u13os16xepsc5je",316,"9.csv","","177","resources/trios/L2T4A2.jpg","39","restless",0.4,0.6,0.6,0.59545095690455,"true"
"image-keyboard-response",303,220954,"0.0-3.97-1.97","u13os16xepsc5je",316,"9.csv","","null","resources/maskTrios/BBA2.jpg","null","",NA,NA,NA,NA,""
"image-keyboard-response",304,222155,"0.0-3.97-2.97","u13os16xepsc5je",316,"9.csv","","null","resources/images/coin2.png","null","",NA,NA,NA,NA,""
"image-keyboard-response",305,222303,"0.0-3.98-0.98","u13os16xepsc5je",316,"9.csv","","144","resources/trios/L4T2A2.jpg","39","restless",0.4,0.6,0.6,0.791790031392172,"false"
"image-keyboard-response",306,222705,"0.0-3.98-1.98","u13os16xepsc5je",316,"9.csv","","null","resources/maskTrios/BBA2.jpg","null","",NA,NA,NA,NA,""
"image-keyboard-response",307,223906,"0.0-3.98-2.98","u13os16xepsc5je",316,"9.csv","","null","resources/images/fishbone.png","null","",NA,NA,NA,NA,""
"image-keyboard-response",308,224121,"0.0-3.99-0.99","u13os16xepsc5je",316,"9.csv","","214","resources/trios/L4T4A2.jpg","39","restless",0.4,0.6,0.6,0.317273084507345,"true"
"image-keyboard-response",309,224523,"0.0-3.99-1.99","u13os16xepsc5je",316,"9.csv","","null","resources/maskTrios/BBA2.jpg","null","",NA,NA,NA,NA,""
"image-keyboard-response",310,225724,"0.0-3.99-2.99","u13os16xepsc5je",316,"9.csv","","null","resources/images/coin2.png","null","",NA,NA,NA,NA,""
"image-keyboard-response",311,225989,"0.0-3.100-0.100","u13os16xepsc5je",316,"9.csv","","262.9999999999709","resources/trios/L4T2A3.jpg","39","restless",0.4,0.5,0.6,0.372229166515064,"true"
"image-keyboard-response",312,226390,"0.0-3.100-1.100","u13os16xepsc5je",316,"9.csv","","null","resources/maskTrios/BBA3.jpg","null","",NA,NA,NA,NA,""
"image-keyboard-response",313,227592,"0.0-3.100-2.100","u13os16xepsc5je",316,"9.csv","","null","resources/images/coin2.png","null","",NA,NA,NA,NA,""
"image-keyboard-response",314,227694,"0.0-3.101-0.101","u13os16xepsc5je",316,"9.csv","","101","resources/trios/L4T4A3.jpg","39","restless",0.4,0.5,0.6,0.406095155049109,"true"
"image-keyboard-response",315,228096,"0.0-3.101-1.101","u13os16xepsc5je",316,"9.csv","","null","resources/maskTrios/BBA3.jpg","null","",NA,NA,NA,NA,""
"image-keyboard-response",316,229298,"0.0-3.101-2.101","u13os16xepsc5je",316,"9.csv","","null","resources/images/coin2.png","null","",NA,NA,NA,NA,""
"image-keyboard-response",317,229883,"0.0-3.102-0.102","u13os16xepsc5je",316,"9.csv","","585","resources/trios/L2T2A2.jpg","39","restless",0.4,0.5,0.6,0.70067045969679,"false"
"image-keyboard-response",318,230286,"0.0-3.102-1.102","u13os16xepsc5je",316,"9.csv","","null","resources/maskTrios/BBA2.jpg","null","",NA,NA,NA,NA,""
"image-keyboard-response",319,231487,"0.0-3.102-2.102","u13os16xepsc5je",316,"9.csv","","null","resources/images/fishbone.png","null","",NA,NA,NA,NA,""
"image-keyboard-response",320,233637,"0.0-3.103-0.103","u13os16xepsc5je",316,"9.csv","","2147","resources/trios/L2T4A2.jpg","39","restless",0.4,0.5,0.6,0.219252895872933,"true"
"image-keyboard-response",321,234039,"0.0-3.103-1.103","u13os16xepsc5je",316,"9.csv","","null","resources/maskTrios/BBA2.jpg","null","",NA,NA,NA,NA,""
"image-keyboard-response",322,235240,"0.0-3.103-2.103","u13os16xepsc5je",316,"9.csv","","null","resources/images/coin2.png","null","",NA,NA,NA,NA,""
"image-keyboard-response",323,235363,"0.0-3.104-0.104","u13os16xepsc5je",316,"9.csv","","121.9999999999709","resources/trios/L2T4A2.jpg","37","restless",0.4,0.5,0.6,0.464624920497119,"false"
"image-keyboard-response",324,235765,"0.0-3.104-1.104","u13os16xepsc5je",316,"9.csv","","null","resources/maskTrios/L2BB.jpg","null","",NA,NA,NA,NA,""
"image-keyboard-response",325,236967,"0.0-3.104-2.104","u13os16xepsc5je",316,"9.csv","","null","resources/images/fishbone.png","null","",NA,NA,NA,NA,""
"image-keyboard-response",326,237975,"0.0-3.105-0.105","u13os16xepsc5je",316,"9.csv","","1007","resources/trios/L2T2A3.jpg","39","restless",0.5,0.5,0.6,0.232345372682727,"true"
"image-keyboard-response",327,238377,"0.0-3.105-1.105","u13os16xepsc5je",316,"9.csv","","null","resources/maskTrios/BBA3.jpg","null","",NA,NA,NA,NA,""
"image-keyboard-response",328,239579,"0.0-3.105-2.105","u13os16xepsc5je",316,"9.csv","","null","resources/images/coin2.png","null","",NA,NA,NA,NA,""
"image-keyboard-response",329,239602,"0.0-3.106-0.106","u13os16xepsc5je",316,"9.csv","","21.999999999970896","resources/trios/L4T4A3.jpg","39","restless",0.5,0.5,0.6,0.363164821626028,"true"
"image-keyboard-response",330,240003,"0.0-3.106-1.106","u13os16xepsc5je",316,"9.csv","","null","resources/maskTrios/BBA3.jpg","null","",NA,NA,NA,NA,""
"image-keyboard-response",331,241205,"0.0-3.106-2.106","u13os16xepsc5je",316,"9.csv","","null","resources/images/coin2.png","null","",NA,NA,NA,NA,""
"image-keyboard-response",332,241211,"0.0-3.107-0.107","u13os16xepsc5je",316,"9.csv","","5","resources/trios/L2T4A3.jpg","39","restless",0.5,0.5,0.6,0.927226909082915,"false"
"image-keyboard-response",333,241613,"0.0-3.107-1.107","u13os16xepsc5je",316,"9.csv","","null","resources/maskTrios/BBA3.jpg","null","",NA,NA,NA,NA,""
"image-keyboard-response",334,242817,"0.0-3.107-2.107","u13os16xepsc5je",316,"9.csv","","null","resources/images/fishbone.png","null","",NA,NA,NA,NA,""
"image-keyboard-response",335,242986,"0.0-3.108-0.108","u13os16xepsc5je",316,"9.csv","","168.9999999999709","resources/trios/L4T4A2.jpg","39","restless",0.5,0.5,0.6,0.531482511299118,"true"
"image-keyboard-response",336,243388,"0.0-3.108-1.108","u13os16xepsc5je",316,"9.csv","","null","resources/maskTrios/BBA2.jpg","null","",NA,NA,NA,NA,""
"image-keyboard-response",337,244589,"0.0-3.108-2.108","u13os16xepsc5je",316,"9.csv","","null","resources/images/coin2.png","null","",NA,NA,NA,NA,""
"image-keyboard-response",338,244781,"0.0-3.109-0.109","u13os16xepsc5je",316,"9.csv","","189","resources/trios/L2T2A3.jpg","39","restless",0.5,0.5,0.6,0.0592390690019738,"true"
"image-keyboard-response",339,245182,"0.0-3.109-1.109","u13os16xepsc5je",316,"9.csv","","null","resources/maskTrios/BBA3.jpg","null","",NA,NA,NA,NA,""
"image-keyboard-response",340,246384,"0.0-3.109-2.109","u13os16xepsc5je",316,"9.csv","","null","resources/images/coin2.png","null","",NA,NA,NA,NA,""
"image-keyboard-response",341,246530,"0.0-3.110-0.110","u13os16xepsc5je",316,"9.csv","","145","resources/trios/L2T2A2.jpg","39","restless",0.5,0.5,0.6,0.213749578129914,"true"
"image-keyboard-response",342,246932,"0.0-3.110-1.110","u13os16xepsc5je",316,"9.csv","","null","resources/maskTrios/BBA2.jpg","null","",NA,NA,NA,NA,""
"image-keyboard-response",343,248133,"0.0-3.110-2.110","u13os16xepsc5je",316,"9.csv","","null","resources/images/coin2.png","null","",NA,NA,NA,NA,""
"image-keyboard-response",344,248776,"0.0-3.111-0.111","u13os16xepsc5je",316,"9.csv","","641.0000000000291","resources/trios/L2T2A3.jpg","39","restless",0.5,0.5,0.6,0.452679745261848,"true"
"image-keyboard-response",345,249177,"0.0-3.111-1.111","u13os16xepsc5je",316,"9.csv","","null","resources/maskTrios/BBA3.jpg","null","",NA,NA,NA,NA,""
"image-keyboard-response",346,250379,"0.0-3.111-2.111","u13os16xepsc5je",316,"9.csv","","null","resources/images/coin2.png","null","",NA,NA,NA,NA,""
"image-keyboard-response",347,250404,"0.0-3.112-0.112","u13os16xepsc5je",316,"9.csv","","23","resources/trios/L2T2A2.jpg","39","restless",0.4,0.5,0.6,0.141607102461375,"true"
"image-keyboard-response",348,250805,"0.0-3.112-1.112","u13os16xepsc5je",316,"9.csv","","null","resources/maskTrios/BBA2.jpg","null","",NA,NA,NA,NA,""
"image-keyboard-response",349,252007,"0.0-3.112-2.112","u13os16xepsc5je",316,"9.csv","","null","resources/images/coin2.png","null","",NA,NA,NA,NA,""
"image-keyboard-response",350,252130,"0.0-3.113-0.113","u13os16xepsc5je",316,"9.csv","","121.9999999999709","resources/trios/L2T2A3.jpg","39","restless",0.4,0.5,0.6,0.71367423797791,"false"
"image-keyboard-response",351,252531,"0.0-3.113-1.113","u13os16xepsc5je",316,"9.csv","","null","resources/maskTrios/BBA3.jpg","null","",NA,NA,NA,NA,""
"image-keyboard-response",352,253735,"0.0-3.113-2.113","u13os16xepsc5je",316,"9.csv","","null","resources/images/fishbone.png","null","",NA,NA,NA,NA,""
"image-keyboard-response",353,253896,"0.0-3.114-0.114","u13os16xepsc5je",316,"9.csv","","160.0000000000291","resources/trios/L4T2A2.jpg","37","restless",0.3,0.5,0.6,0.717054901994487,"false"
"image-keyboard-response",354,254298,"0.0-3.114-1.114","u13os16xepsc5je",316,"9.csv","","null","resources/maskTrios/L4BB.jpg","null","",NA,NA,NA,NA,""
"image-keyboard-response",355,255499,"0.0-3.114-2.114","u13os16xepsc5je",316,"9.csv","","null","resources/images/fishbone.png","null","",NA,NA,NA,NA,""
"image-keyboard-response",356,255630,"0.0-3.115-0.115","u13os16xepsc5je",316,"9.csv","","127","resources/trios/L4T4A2.jpg","39","restless",0.3,0.5,0.7,0.686684927997795,"true"
"image-keyboard-response",357,256031,"0.0-3.115-1.115","u13os16xepsc5je",316,"9.csv","","null","resources/maskTrios/BBA2.jpg","null","",NA,NA,NA,NA,""
"image-keyboard-response",358,257233,"0.0-3.115-2.115","u13os16xepsc5je",316,"9.csv","","null","resources/images/coin2.png","null","",NA,NA,NA,NA,""
"image-keyboard-response",359,257409,"0.0-3.116-0.116","u13os16xepsc5je",316,"9.csv","","174.0000000000291","resources/trios/L4T4A2.jpg","39","restless",0.3,0.5,0.7,0.500416237834,"true"
"image-keyboard-response",360,257810,"0.0-3.116-1.116","u13os16xepsc5je",316,"9.csv","","null","resources/maskTrios/BBA2.jpg","null","",NA,NA,NA,NA,""
"image-keyboard-response",361,259012,"0.0-3.116-2.116","u13os16xepsc5je",316,"9.csv","","null","resources/images/coin2.png","null","",NA,NA,NA,NA,""
"image-keyboard-response",362,259050,"0.0-3.117-0.117","u13os16xepsc5je",316,"9.csv","","38.000000000029104","resources/trios/L2T4A2.jpg","39","restless",0.3,0.5,0.7,0.250259773501119,"true"
"image-keyboard-response",363,259452,"0.0-3.117-1.117","u13os16xepsc5je",316,"9.csv","","null","resources/maskTrios/BBA2.jpg","null","",NA,NA,NA,NA,""
"image-keyboard-response",364,260654,"0.0-3.117-2.117","u13os16xepsc5je",316,"9.csv","","null","resources/images/coin2.png","null","",NA,NA,NA,NA,""
"image-keyboard-response",365,261117,"0.0-3.118-0.118","u13os16xepsc5je",316,"9.csv","","462.0000000000582","resources/trios/L4T4A3.jpg","39","restless",0.4,0.5,0.7,0.937637519341628,"false"
"image-keyboard-response",366,261519,"0.0-3.118-1.118","u13os16xepsc5je",316,"9.csv","","null","resources/maskTrios/BBA3.jpg","null","",NA,NA,NA,NA,""
"image-keyboard-response",367,262720,"0.0-3.118-2.118","u13os16xepsc5je",316,"9.csv","","null","resources/images/fishbone.png","null","",NA,NA,NA,NA,""
"image-keyboard-response",368,262747,"0.0-3.119-0.119","u13os16xepsc5je",316,"9.csv","","26","resources/trios/L2T2A2.jpg","39","restless",0.4,0.5,0.8,0.529624908166414,"true"
"image-keyboard-response",369,263148,"0.0-3.119-1.119","u13os16xepsc5je",316,"9.csv","","null","resources/maskTrios/BBA2.jpg","null","",NA,NA,NA,NA,""
"image-keyboard-response",370,264350,"0.0-3.119-2.119","u13os16xepsc5je",316,"9.csv","","null","resources/images/coin2.png","null","",NA,NA,NA,NA,""
"image-keyboard-response",371,264406,"0.0-3.120-0.120","u13os16xepsc5je",316,"9.csv","","55","resources/trios/L4T4A3.jpg","39","restless",0.4,0.5,0.8,0.456242777847114,"true"
"image-keyboard-response",372,264807,"0.0-3.120-1.120","u13os16xepsc5je",316,"9.csv","","null","resources/maskTrios/BBA3.jpg","null","",NA,NA,NA,NA,""
"image-keyboard-response",373,266009,"0.0-3.120-2.120","u13os16xepsc5je",316,"9.csv","","null","resources/images/coin2.png","null","",NA,NA,NA,NA,""
"image-keyboard-response",374,266345,"0.0-3.121-0.121","u13os16xepsc5je",316,"9.csv","","333","resources/trios/L4T2A2.jpg","39","restless",0.4,0.5,0.8,0.906239083343266,"false"
"image-keyboard-response",375,266745,"0.0-3.121-1.121","u13os16xepsc5je",316,"9.csv","","null","resources/maskTrios/BBA2.jpg","null","",NA,NA,NA,NA,""
"image-keyboard-response",376,267947,"0.0-3.121-2.121","u13os16xepsc5je",316,"9.csv","","null","resources/images/fishbone.png","null","",NA,NA,NA,NA,""
"image-keyboard-response",377,268074,"0.0-3.122-0.122","u13os16xepsc5je",316,"9.csv","","124","resources/trios/L2T4A2.jpg","39","restless",0.5,0.5,0.8,0.521087474952719,"true"
"image-keyboard-response",378,268476,"0.0-3.122-1.122","u13os16xepsc5je",316,"9.csv","","null","resources/maskTrios/BBA2.jpg","null","",NA,NA,NA,NA,""
"image-keyboard-response",379,269678,"0.0-3.122-2.122","u13os16xepsc5je",316,"9.csv","","null","resources/images/coin2.png","null","",NA,NA,NA,NA,""
"image-keyboard-response",380,270953,"0.0-3.123-0.123","u13os16xepsc5je",316,"9.csv","","1274","resources/trios/L4T2A3.jpg","39","restless",0.5,0.5,0.8,0.970670347080738,"false"
"image-keyboard-response",381,271355,"0.0-3.123-1.123","u13os16xepsc5je",316,"9.csv","","null","resources/maskTrios/BBA3.jpg","null","",NA,NA,NA,NA,""
"image-keyboard-response",382,272556,"0.0-3.123-2.123","u13os16xepsc5je",316,"9.csv","","null","resources/images/fishbone.png","null","",NA,NA,NA,NA,""
"image-keyboard-response",383,282335,"0.0-3.124-0.124","u13os16xepsc5je",316,"9.csv","","9778","resources/trios/L2T4A2.jpg","39","restless",0.6,0.5,0.8,0.867870353136881,"false"
"image-keyboard-response",384,282737,"0.0-3.124-1.124","u13os16xepsc5je",316,"9.csv","","null","resources/maskTrios/BBA2.jpg","null","",NA,NA,NA,NA,""
"image-keyboard-response",385,283939,"0.0-3.124-2.124","u13os16xepsc5je",316,"9.csv","","null","resources/images/fishbone.png","null","",NA,NA,NA,NA,""
"image-keyboard-response",386,284021,"0.0-3.125-0.125","u13os16xepsc5je",316,"9.csv","","81","resources/trios/L4T4A3.jpg","39","restless",0.6,0.5,0.8,0.85249099472984,"false"
"image-keyboard-response",387,284423,"0.0-3.125-1.125","u13os16xepsc5je",316,"9.csv","","null","resources/maskTrios/BBA3.jpg","null","",NA,NA,NA,NA,""
"image-keyboard-response",388,285624,"0.0-3.125-2.125","u13os16xepsc5je",316,"9.csv","","null","resources/images/fishbone.png","null","",NA,NA,NA,NA,""
"image-keyboard-response",389,285647,"0.0-3.126-0.126","u13os16xepsc5je",316,"9.csv","","21","resources/trios/L4T4A2.jpg","39","restless",0.6,0.5,0.8,0.273690010250863,"true"
"image-keyboard-response",390,286048,"0.0-3.126-1.126","u13os16xepsc5je",316,"9.csv","","null","resources/maskTrios/BBA2.jpg","null","",NA,NA,NA,NA,""
"image-keyboard-response",391,287250,"0.0-3.126-2.126","u13os16xepsc5je",316,"9.csv","","null","resources/images/coin2.png","null","",NA,NA,NA,NA,""
"image-keyboard-response",392,288429,"0.0-3.127-0.127","u13os16xepsc5je",316,"9.csv","","1174.9999999999418","resources/trios/L4T2A3.jpg","39","restless",0.6,0.5,0.8,0.634262899042166,"true"
"image-keyboard-response",393,288831,"0.0-3.127-1.127","u13os16xepsc5je",316,"9.csv","","null","resources/maskTrios/BBA3.jpg","null","",NA,NA,NA,NA,""
"image-keyboard-response",394,290033,"0.0-3.127-2.127","u13os16xepsc5je",316,"9.csv","","null","resources/images/coin2.png","null","",NA,NA,NA,NA,""
"image-keyboard-response",395,290060,"0.0-3.128-0.128","u13os16xepsc5je",316,"9.csv","","26","resources/trios/L2T2A3.jpg","39","restless",0.6,0.4,0.8,0.00854795043503076,"true"
"image-keyboard-response",396,290462,"0.0-3.128-1.128","u13os16xepsc5je",316,"9.csv","","null","resources/maskTrios/BBA3.jpg","null","",NA,NA,NA,NA,""
"image-keyboard-response",397,291663,"0.0-3.128-2.128","u13os16xepsc5je",316,"9.csv","","null","resources/images/coin2.png","null","",NA,NA,NA,NA,""
"image-keyboard-response",398,291828,"0.0-3.129-0.129","u13os16xepsc5je",316,"9.csv","","161","resources/trios/L4T2A2.jpg","39","restless",0.6,0.4,0.8,0.440991690666506,"true"
"image-keyboard-response",399,292229,"0.0-3.129-1.129","u13os16xepsc5je",316,"9.csv","","null","resources/maskTrios/BBA2.jpg","null","",NA,NA,NA,NA,""
"image-keyboard-response",400,293431,"0.0-3.129-2.129","u13os16xepsc5je",316,"9.csv","","null","resources/images/coin2.png","null","",NA,NA,NA,NA,""
"image-keyboard-response",401,293894,"0.0-3.130-0.130","u13os16xepsc5je",316,"9.csv","","461","resources/trios/L4T2A3.jpg","39","restless",0.6,0.4,0.8,0.0938113601341244,"true"
"image-keyboard-response",402,294296,"0.0-3.130-1.130","u13os16xepsc5je",316,"9.csv","","null","resources/maskTrios/BBA3.jpg","null","",NA,NA,NA,NA,""
"image-keyboard-response",403,295498,"0.0-3.130-2.130","u13os16xepsc5je",316,"9.csv","","null","resources/images/coin2.png","null","",NA,NA,NA,NA,""
"image-keyboard-response",404,295643,"0.0-3.131-0.131","u13os16xepsc5je",316,"9.csv","","144","resources/trios/L4T2A2.jpg","39","restless",0.6,0.4,0.8,0.00775697925253105,"true"
"image-keyboard-response",405,296044,"0.0-3.131-1.131","u13os16xepsc5je",316,"9.csv","","null","resources/maskTrios/BBA2.jpg","null","",NA,NA,NA,NA,""
"image-keyboard-response",406,297246,"0.0-3.131-2.131","u13os16xepsc5je",316,"9.csv","","null","resources/images/coin2.png","null","",NA,NA,NA,NA,""
"image-keyboard-response",407,297779,"0.0-3.132-0.132","u13os16xepsc5je",316,"9.csv","","532","resources/trios/L2T2A2.jpg","39","restless",0.6,0.4,0.8,0.709684984105323,"true"
"image-keyboard-response",408,298181,"0.0-3.132-1.132","u13os16xepsc5je",316,"9.csv","","null","resources/maskTrios/BBA2.jpg","null","",NA,NA,NA,NA,""
"image-keyboard-response",409,299382,"0.0-3.132-2.132","u13os16xepsc5je",316,"9.csv","","null","resources/images/coin2.png","null","",NA,NA,NA,NA,""
"image-keyboard-response",410,299824,"0.0-3.133-0.133","u13os16xepsc5je",316,"9.csv","","439","resources/trios/L4T2A2.jpg","39","restless",0.6,0.4,0.8,0.461338717139121,"true"
"image-keyboard-response",411,300225,"0.0-3.133-1.133","u13os16xepsc5je",316,"9.csv","","null","resources/maskTrios/BBA2.jpg","null","",NA,NA,NA,NA,""
"image-keyboard-response",412,301426,"0.0-3.133-2.133","u13os16xepsc5je",316,"9.csv","","null","resources/images/coin2.png","null","",NA,NA,NA,NA,""
"image-keyboard-response",413,301521,"0.0-3.134-0.134","u13os16xepsc5je",316,"9.csv","","93.99999999994179","resources/trios/L2T2A3.jpg","39","restless",0.6,0.3,0.8,0.75534584146676,"true"
"image-keyboard-response",414,301922,"0.0-3.134-1.134","u13os16xepsc5je",316,"9.csv","","null","resources/maskTrios/BBA3.jpg","null","",NA,NA,NA,NA,""
"image-keyboard-response",415,303124,"0.0-3.134-2.134","u13os16xepsc5je",316,"9.csv","","null","resources/images/coin2.png","null","",NA,NA,NA,NA,""
"image-keyboard-response",416,303198,"0.0-3.135-0.135","u13os16xepsc5je",316,"9.csv","","73","resources/trios/L4T4A3.jpg","39","restless",0.6,0.3,0.8,0.137113066612595,"true"
"image-keyboard-response",417,303600,"0.0-3.135-1.135","u13os16xepsc5je",316,"9.csv","","null","resources/maskTrios/BBA3.jpg","null","",NA,NA,NA,NA,""
"image-keyboard-response",418,304802,"0.0-3.135-2.135","u13os16xepsc5je",316,"9.csv","","null","resources/images/coin2.png","null","",NA,NA,NA,NA,""
"image-keyboard-response",419,304848,"0.0-3.136-0.136","u13os16xepsc5je",316,"9.csv","","45","resources/trios/L2T4A2.jpg","39","restless",0.6,0.4,0.8,0.0664228602609058,"true"
"image-keyboard-response",420,305250,"0.0-3.136-1.136","u13os16xepsc5je",316,"9.csv","","null","resources/maskTrios/BBA2.jpg","null","",NA,NA,NA,NA,""
"image-keyboard-response",421,306452,"0.0-3.136-2.136","u13os16xepsc5je",316,"9.csv","","null","resources/images/coin2.png","null","",NA,NA,NA,NA,""
"image-keyboard-response",422,306633,"0.0-3.137-0.137","u13os16xepsc5je",316,"9.csv","","180","resources/trios/L2T2A3.jpg","39","restless",0.6,0.4,0.9,0.278848750225535,"true"
"image-keyboard-response",423,307035,"0.0-3.137-1.137","u13os16xepsc5je",316,"9.csv","","null","resources/maskTrios/BBA3.jpg","null","",NA,NA,NA,NA,""
"image-keyboard-response",424,308237,"0.0-3.137-2.137","u13os16xepsc5je",316,"9.csv","","null","resources/images/coin2.png","null","",NA,NA,NA,NA,""
"image-keyboard-response",425,308342,"0.0-3.138-0.138","u13os16xepsc5je",316,"9.csv","","104","resources/trios/L4T2A3.jpg","39","restless",0.6,0.4,0.9,0.199480933721512,"true"
"image-keyboard-response",426,308744,"0.0-3.138-1.138","u13os16xepsc5je",316,"9.csv","","null","resources/maskTrios/BBA3.jpg","null","",NA,NA,NA,NA,""
"image-keyboard-response",427,309946,"0.0-3.138-2.138","u13os16xepsc5je",316,"9.csv","","null","resources/images/coin2.png","null","",NA,NA,NA,NA,""
"image-keyboard-response",428,310035,"0.0-3.139-0.139","u13os16xepsc5je",316,"9.csv","","88","resources/trios/L2T4A2.jpg","39","restless",0.6,0.4,0.9,0.873470831666149,"true"
"image-keyboard-response",429,310436,"0.0-3.139-1.139","u13os16xepsc5je",316,"9.csv","","null","resources/maskTrios/BBA2.jpg","null","",NA,NA,NA,NA,""
"image-keyboard-response",430,311639,"0.0-3.139-2.139","u13os16xepsc5je",316,"9.csv","","null","resources/images/coin2.png","null","",NA,NA,NA,NA,""
"image-keyboard-response",431,314413,"0.0-3.140-0.140","u13os16xepsc5je",316,"9.csv","","2771.999999999942","resources/trios/L4T4A3.jpg","39","restless",0.6,0.4,0.9,0.0869676655484327,"true"
"image-keyboard-response",432,314816,"0.0-3.140-1.140","u13os16xepsc5je",316,"9.csv","","null","resources/maskTrios/BBA3.jpg","null","",NA,NA,NA,NA,""
"image-keyboard-response",433,316018,"0.0-3.140-2.140","u13os16xepsc5je",316,"9.csv","","null","resources/images/coin2.png","null","",NA,NA,NA,NA,""
"image-keyboard-response",434,316207,"0.0-3.141-0.141","u13os16xepsc5je",316,"9.csv","","188","resources/trios/L2T2A2.jpg","39","restless",0.6,0.4,0.9,0.810537224197487,"true"
"image-keyboard-response",435,316609,"0.0-3.141-1.141","u13os16xepsc5je",316,"9.csv","","null","resources/maskTrios/BBA2.jpg","null","",NA,NA,NA,NA,""
"image-keyboard-response",436,317811,"0.0-3.141-2.141","u13os16xepsc5je",316,"9.csv","","null","resources/images/coin2.png","null","",NA,NA,NA,NA,""
"image-keyboard-response",437,317851,"0.0-3.142-0.142","u13os16xepsc5je",316,"9.csv","","38","resources/trios/L4T4A3.jpg","39","restless",0.7,0.4,0.9,0.103820304129819,"true"
"image-keyboard-response",438,318253,"0.0-3.142-1.142","u13os16xepsc5je",316,"9.csv","","null","resources/maskTrios/BBA3.jpg","null","",NA,NA,NA,NA,""
"image-keyboard-response",439,319454,"0.0-3.142-2.142","u13os16xepsc5je",316,"9.csv","","null","resources/images/coin2.png","null","",NA,NA,NA,NA,""
"image-keyboard-response",440,320939,"0.0-3.143-0.143","u13os16xepsc5je",316,"9.csv","","1485","resources/trios/L4T4A3.jpg","39","restless",0.7,0.4,0.8,0.986814339457562,"false"
"image-keyboard-response",441,321341,"0.0-3.143-1.143","u13os16xepsc5je",316,"9.csv","","null","resources/maskTrios/BBA3.jpg","null","",NA,NA,NA,NA,""
"image-keyboard-response",442,322543,"0.0-3.143-2.143","u13os16xepsc5je",316,"9.csv","","null","resources/images/fishbone.png","null","",NA,NA,NA,NA,""
"image-keyboard-response",443,322549,"0.0-3.144-0.144","u13os16xepsc5je",316,"9.csv","","6","resources/trios/L4T2A3.jpg","39","restless",0.7,0.4,0.8,0.419987833877064,"true"
"image-keyboard-response",444,322951,"0.0-3.144-1.144","u13os16xepsc5je",316,"9.csv","","null","resources/maskTrios/BBA3.jpg","null","",NA,NA,NA,NA,""
"image-keyboard-response",445,324152,"0.0-3.144-2.144","u13os16xepsc5je",316,"9.csv","","null","resources/images/coin2.png","null","",NA,NA,NA,NA,""
"image-keyboard-response",446,324155,"0.0-3.145-0.145","u13os16xepsc5je",316,"9.csv","","0.9999999999417923","resources/trios/L4T4A3.jpg","39","restless",0.7,0.4,0.8,0.0239288188052125,"true"
"image-keyboard-response",447,324557,"0.0-3.145-1.145","u13os16xepsc5je",316,"9.csv","","null","resources/maskTrios/BBA3.jpg","null","",NA,NA,NA,NA,""
"image-keyboard-response",448,325759,"0.0-3.145-2.145","u13os16xepsc5je",316,"9.csv","","null","resources/images/coin2.png","null","",NA,NA,NA,NA,""
"image-keyboard-response",449,325848,"0.0-3.146-0.146","u13os16xepsc5je",316,"9.csv","","85","resources/trios/L4T4A3.jpg","39","restless",0.7,0.4,0.8,0.894407641823769,"false"
"image-keyboard-response",450,326250,"0.0-3.146-1.146","u13os16xepsc5je",316,"9.csv","","null","resources/maskTrios/BBA3.jpg","null","",NA,NA,NA,NA,""
"image-keyboard-response",451,327452,"0.0-3.146-2.146","u13os16xepsc5je",316,"9.csv","","null","resources/images/fishbone.png","null","",NA,NA,NA,NA,""
"image-keyboard-response",452,327646,"0.0-3.147-0.147","u13os16xepsc5je",316,"9.csv","","193","resources/trios/L4T2A3.jpg","39","restless",0.7,0.4,0.8,0.189077551505637,"true"
"image-keyboard-response",453,328048,"0.0-3.147-1.147","u13os16xepsc5je",316,"9.csv","","null","resources/maskTrios/BBA3.jpg","null","",NA,NA,NA,NA,""
"image-keyboard-response",454,329250,"0.0-3.147-2.147","u13os16xepsc5je",316,"9.csv","","null","resources/images/coin2.png","null","",NA,NA,NA,NA,""
"image-keyboard-response",455,329280,"0.0-3.148-0.148","u13os16xepsc5je",316,"9.csv","","28","resources/trios/L2T2A2.jpg","37","restless",0.7,0.4,0.9,0.00082524199888856,"true"
"image-keyboard-response",456,329682,"0.0-3.148-1.148","u13os16xepsc5je",316,"9.csv","","null","resources/maskTrios/L2BB.jpg","null","",NA,NA,NA,NA,""
"image-keyboard-response",457,330884,"0.0-3.148-2.148","u13os16xepsc5je",316,"9.csv","","null","resources/images/coin2.png","null","",NA,NA,NA,NA,""
"image-keyboard-response",458,332614,"0.0-3.149-0.149","u13os16xepsc5je",316,"9.csv","","1729","resources/trios/L2T2A2.jpg","39","restless",0.7,0.4,0.9,0.286387446013533,"true"
"image-keyboard-response",459,333016,"0.0-3.149-1.149","u13os16xepsc5je",316,"9.csv","","null","resources/maskTrios/BBA2.jpg","null","",NA,NA,NA,NA,""
"image-keyboard-response",460,334218,"0.0-3.149-2.149","u13os16xepsc5je",316,"9.csv","","null","resources/images/coin2.png","null","",NA,NA,NA,NA,""
"image-keyboard-response",461,334803,"0.0-3.150-0.150","u13os16xepsc5je",316,"9.csv","","582","resources/trios/L2T4A2.jpg","39","restless",0.7,0.4,0.8,0.124058510407142,"true"
"image-keyboard-response",462,335205,"0.0-3.150-1.150","u13os16xepsc5je",316,"9.csv","","null","resources/maskTrios/BBA2.jpg","null","",NA,NA,NA,NA,""
"image-keyboard-response",463,336407,"0.0-3.150-2.150","u13os16xepsc5je",316,"9.csv","","null","resources/images/coin2.png","null","",NA,NA,NA,NA,""
"image-keyboard-response",464,336656,"0.0-3.151-0.151","u13os16xepsc5je",316,"9.csv","","248","resources/trios/L2T4A2.jpg","39","restless",0.7,0.4,0.8,0.0254682459316599,"true"
"image-keyboard-response",465,337058,"0.0-3.151-1.151","u13os16xepsc5je",316,"9.csv","","null","resources/maskTrios/BBA2.jpg","null","",NA,NA,NA,NA,""
"image-keyboard-response",466,338259,"0.0-3.151-2.151","u13os16xepsc5je",316,"9.csv","","null","resources/images/coin2.png","null","",NA,NA,NA,NA,""
"image-keyboard-response",467,338314,"0.0-3.152-0.152","u13os16xepsc5je",316,"9.csv","","53.00000000005821","resources/trios/L4T4A3.jpg","39","restless",0.6,0.4,0.7,0.0509593487780898,"true"
"image-keyboard-response",468,338716,"0.0-3.152-1.152","u13os16xepsc5je",316,"9.csv","","null","resources/maskTrios/BBA3.jpg","null","",NA,NA,NA,NA,""
"image-keyboard-response",469,339918,"0.0-3.152-2.152","u13os16xepsc5je",316,"9.csv","","null","resources/images/coin2.png","null","",NA,NA,NA,NA,""
"image-keyboard-response",470,339987,"0.0-3.153-0.153","u13os16xepsc5je",316,"9.csv","","68.00000000005821","resources/trios/L4T4A2.jpg","39","restless",0.6,0.4,0.7,0.0975492109271358,"true"
"image-keyboard-response",471,340389,"0.0-3.153-1.153","u13os16xepsc5je",316,"9.csv","","null","resources/maskTrios/BBA2.jpg","null","",NA,NA,NA,NA,""
"image-keyboard-response",472,341591,"0.0-3.153-2.153","u13os16xepsc5je",316,"9.csv","","null","resources/images/coin2.png","null","",NA,NA,NA,NA,""
"image-keyboard-response",473,341757,"0.0-3.154-0.154","u13os16xepsc5je",316,"9.csv","","165","resources/trios/L2T2A3.jpg","39","restless",0.6,0.4,0.7,0.671122277369934,"true"
"image-keyboard-response",474,342159,"0.0-3.154-1.154","u13os16xepsc5je",316,"9.csv","","null","resources/maskTrios/BBA3.jpg","null","",NA,NA,NA,NA,""
"image-keyboard-response",475,343361,"0.0-3.154-2.154","u13os16xepsc5je",316,"9.csv","","null","resources/images/coin2.png","null","",NA,NA,NA,NA,""
"image-keyboard-response",476,343524,"0.0-3.155-0.155","u13os16xepsc5je",316,"9.csv","","161.9999999999418","resources/trios/L4T2A2.jpg","39","restless",0.6,0.4,0.7,0.216383057473286,"true"
"image-keyboard-response",477,343926,"0.0-3.155-1.155","u13os16xepsc5je",316,"9.csv","","null","resources/maskTrios/BBA2.jpg","null","",NA,NA,NA,NA,""
"image-keyboard-response",478,345128,"0.0-3.155-2.155","u13os16xepsc5je",316,"9.csv","","null","resources/images/coin2.png","null","",NA,NA,NA,NA,""
"image-keyboard-response",479,345589,"0.0-3.156-0.156","u13os16xepsc5je",316,"9.csv","","458","resources/trios/L2T2A2.jpg","39","restless",0.6,0.4,0.7,0.0820677339003006,"true"
"image-keyboard-response",480,345991,"0.0-3.156-1.156","u13os16xepsc5je",316,"9.csv","","null","resources/maskTrios/BBA2.jpg","null","",NA,NA,NA,NA,""
"image-keyboard-response",481,347193,"0.0-3.156-2.156","u13os16xepsc5je",316,"9.csv","","null","resources/images/coin2.png","null","",NA,NA,NA,NA,""
"image-keyboard-response",482,347235,"0.0-3.157-0.157","u13os16xepsc5je",316,"9.csv","","41","resources/trios/L4T2A3.jpg","39","restless",0.6,0.4,0.7,0.991984338589572,"false"
"image-keyboard-response",483,347636,"0.0-3.157-1.157","u13os16xepsc5je",316,"9.csv","","null","resources/maskTrios/BBA3.jpg","null","",NA,NA,NA,NA,""
"image-keyboard-response",484,348839,"0.0-3.157-2.157","u13os16xepsc5je",316,"9.csv","","null","resources/images/fishbone.png","null","",NA,NA,NA,NA,""
"image-keyboard-response",485,364667,"0.0-3.158-0.158","u13os16xepsc5je",316,"9.csv","","15827","resources/trios/L2T2A2.jpg","37","restless",0.6,0.4,0.7,0.400948594073868,"true"
"image-keyboard-response",486,365068,"0.0-3.158-1.158","u13os16xepsc5je",316,"9.csv","","null","resources/maskTrios/L2BB.jpg","null","",NA,NA,NA,NA,""
"image-keyboard-response",487,366270,"0.0-3.158-2.158","u13os16xepsc5je",316,"9.csv","","null","resources/images/coin2.png","null","",NA,NA,NA,NA,""
"image-keyboard-response",488,366410,"0.0-3.159-0.159","u13os16xepsc5je",316,"9.csv","","140","resources/trios/L4T4A3.jpg","39","restless",0.6,0.4,0.7,0.0288022274724493,"true"
"image-keyboard-response",489,366812,"0.0-3.159-1.159","u13os16xepsc5je",316,"9.csv","","null","resources/maskTrios/BBA3.jpg","null","",NA,NA,NA,NA,""
"image-keyboard-response",490,368013,"0.0-3.159-2.159","u13os16xepsc5je",316,"9.csv","","null","resources/images/coin2.png","null","",NA,NA,NA,NA,""
"image-keyboard-response",491,368348,"0.0-3.160-0.160","u13os16xepsc5je",316,"9.csv","","334","resources/trios/L2T2A2.jpg","39","restless",0.6,0.4,0.7,0.578543325198335,"true"
"image-keyboard-response",492,368750,"0.0-3.160-1.160","u13os16xepsc5je",316,"9.csv","","null","resources/maskTrios/BBA2.jpg","null","",NA,NA,NA,NA,""
"image-keyboard-response",493,369951,"0.0-3.160-2.160","u13os16xepsc5je",316,"9.csv","","null","resources/images/coin2.png","null","",NA,NA,NA,NA,""
"image-keyboard-response",494,370146,"0.0-3.161-0.161","u13os16xepsc5je",316,"9.csv","","193","resources/trios/L4T4A3.jpg","39","restless",0.6,0.4,0.7,0.813984598022582,"false"
"image-keyboard-response",495,370548,"0.0-3.161-1.161","u13os16xepsc5je",316,"9.csv","","null","resources/maskTrios/BBA3.jpg","null","",NA,NA,NA,NA,""
"image-keyboard-response",496,371749,"0.0-3.161-2.161","u13os16xepsc5je",316,"9.csv","","null","resources/images/fishbone.png","null","",NA,NA,NA,NA,""
"image-keyboard-response",497,371849,"0.0-3.162-0.162","u13os16xepsc5je",316,"9.csv","","99","resources/trios/L4T2A3.jpg","39","restless",0.6,0.4,0.7,0.715474612423709,"false"
"image-keyboard-response",498,372251,"0.0-3.162-1.162","u13os16xepsc5je",316,"9.csv","","null","resources/maskTrios/BBA3.jpg","null","",NA,NA,NA,NA,""
"image-keyboard-response",499,373453,"0.0-3.162-2.162","u13os16xepsc5je",316,"9.csv","","null","resources/images/fishbone.png","null","",NA,NA,NA,NA,""
"image-keyboard-response",500,373560,"0.0-3.163-0.163","u13os16xepsc5je",316,"9.csv","","106","resources/trios/L2T2A2.jpg","39","restless",0.6,0.4,0.7,0.0672120191234001,"true"
"image-keyboard-response",501,373962,"0.0-3.163-1.163","u13os16xepsc5je",316,"9.csv","","null","resources/maskTrios/BBA2.jpg","null","",NA,NA,NA,NA,""
"image-keyboard-response",502,375165,"0.0-3.163-2.163","u13os16xepsc5je",316,"9.csv","","null","resources/images/coin2.png","null","",NA,NA,NA,NA,""
"image-keyboard-response",503,375349,"0.0-3.164-0.164","u13os16xepsc5je",316,"9.csv","","183","resources/trios/L4T2A3.jpg","39","restless",0.6,0.4,0.7,0.613989503466615,"true"
"image-keyboard-response",504,375751,"0.0-3.164-1.164","u13os16xepsc5je",316,"9.csv","","null","resources/maskTrios/BBA3.jpg","null","",NA,NA,NA,NA,""
"image-keyboard-response",505,376953,"0.0-3.164-2.164","u13os16xepsc5je",316,"9.csv","","null","resources/images/coin2.png","null","",NA,NA,NA,NA,""
"image-keyboard-response",506,377002,"0.0-3.165-0.165","u13os16xepsc5je",316,"9.csv","","48","resources/trios/L2T2A2.jpg","39","restless",0.6,0.4,0.7,0.605637773490229,"true"
"image-keyboard-response",507,377404,"0.0-3.165-1.165","u13os16xepsc5je",316,"9.csv","","null","resources/maskTrios/BBA2.jpg","null","",NA,NA,NA,NA,""
"image-keyboard-response",508,378606,"0.0-3.165-2.165","u13os16xepsc5je",316,"9.csv","","null","resources/images/coin2.png","null","",NA,NA,NA,NA,""
"image-keyboard-response",509,378754,"0.0-3.166-0.166","u13os16xepsc5je",316,"9.csv","","147.0000000000582","resources/trios/L2T2A2.jpg","39","restless",0.6,0.4,0.7,0.489294592936904,"true"
"image-keyboard-response",510,379156,"0.0-3.166-1.166","u13os16xepsc5je",316,"9.csv","","null","resources/maskTrios/BBA2.jpg","null","",NA,NA,NA,NA,""
"image-keyboard-response",511,380358,"0.0-3.166-2.166","u13os16xepsc5je",316,"9.csv","","null","resources/images/coin2.png","null","",NA,NA,NA,NA,""
"image-keyboard-response",512,380449,"0.0-3.167-0.167","u13os16xepsc5je",316,"9.csv","","89","resources/trios/L2T4A2.jpg","39","restless",0.6,0.4,0.7,0.152058122723057,"true"
"image-keyboard-response",513,380851,"0.0-3.167-1.167","u13os16xepsc5je",316,"9.csv","","null","resources/maskTrios/BBA2.jpg","null","",NA,NA,NA,NA,""
"image-keyboard-response",514,382053,"0.0-3.167-2.167","u13os16xepsc5je",316,"9.csv","","null","resources/images/coin2.png","null","",NA,NA,NA,NA,""
"image-keyboard-response",515,382236,"0.0-3.168-0.168","u13os16xepsc5je",316,"9.csv","","182","resources/trios/L2T4A2.jpg","39","restless",0.6,0.4,0.7,0.712033680447831,"false"
"image-keyboard-response",516,382638,"0.0-3.168-1.168","u13os16xepsc5je",316,"9.csv","","null","resources/maskTrios/BBA2.jpg","null","",NA,NA,NA,NA,""
"image-keyboard-response",517,383840,"0.0-3.168-2.168","u13os16xepsc5je",316,"9.csv","","null","resources/images/fishbone.png","null","",NA,NA,NA,NA,""
"image-keyboard-response",518,383991,"0.0-3.169-0.169","u13os16xepsc5je",316,"9.csv","","147.9999999999418","resources/trios/L4T2A3.jpg","39","restless",0.6,0.4,0.7,0.921824265855468,"false"
"image-keyboard-response",519,384392,"0.0-3.169-1.169","u13os16xepsc5je",316,"9.csv","","null","resources/maskTrios/BBA3.jpg","null","",NA,NA,NA,NA,""
"image-keyboard-response",520,385594,"0.0-3.169-2.169","u13os16xepsc5je",316,"9.csv","","null","resources/images/fishbone.png","null","",NA,NA,NA,NA,""
"image-keyboard-response",521,385928,"0.0-3.170-0.170","u13os16xepsc5je",316,"9.csv","","334","resources/trios/L4T2A3.jpg","39","restless",0.6,0.4,0.6,0.697433262902636,"false"
"image-keyboard-response",522,386330,"0.0-3.170-1.170","u13os16xepsc5je",316,"9.csv","","null","resources/maskTrios/BBA3.jpg","null","",NA,NA,NA,NA,""
"image-keyboard-response",523,387532,"0.0-3.170-2.170","u13os16xepsc5je",316,"9.csv","","null","resources/images/fishbone.png","null","",NA,NA,NA,NA,""
"image-keyboard-response",524,387710,"0.0-3.171-0.171","u13os16xepsc5je",316,"9.csv","","177","resources/trios/L4T4A3.jpg","39","restless",0.5,0.4,0.6,0.465079035467481,"true"
"image-keyboard-response",525,388112,"0.0-3.171-1.171","u13os16xepsc5je",316,"9.csv","","null","resources/maskTrios/BBA3.jpg","null","",NA,NA,NA,NA,""
"image-keyboard-response",526,389314,"0.0-3.171-2.171","u13os16xepsc5je",316,"9.csv","","null","resources/images/coin2.png","null","",NA,NA,NA,NA,""
"image-keyboard-response",527,389330,"0.0-3.172-0.172","u13os16xepsc5je",316,"9.csv","","15.999999999941792","resources/trios/L4T4A3.jpg","39","restless",0.5,0.4,0.6,0.97294439981798,"false"
"image-keyboard-response",528,389732,"0.0-3.172-1.172","u13os16xepsc5je",316,"9.csv","","null","resources/maskTrios/BBA3.jpg","null","",NA,NA,NA,NA,""
"image-keyboard-response",529,390934,"0.0-3.172-2.172","u13os16xepsc5je",316,"9.csv","","null","resources/images/fishbone.png","null","",NA,NA,NA,NA,""
"image-keyboard-response",530,391066,"0.0-3.173-0.173","u13os16xepsc5je",316,"9.csv","","131","resources/trios/L4T2A2.jpg","39","restless",0.5,0.3,0.6,0.917650289512899,"false"
"image-keyboard-response",531,391467,"0.0-3.173-1.173","u13os16xepsc5je",316,"9.csv","","null","resources/maskTrios/BBA2.jpg","null","",NA,NA,NA,NA,""
"image-keyboard-response",532,392668,"0.0-3.173-2.173","u13os16xepsc5je",316,"9.csv","","null","resources/images/fishbone.png","null","",NA,NA,NA,NA,""
"image-keyboard-response",533,392847,"0.0-3.174-0.174","u13os16xepsc5je",316,"9.csv","","177","resources/trios/L4T4A2.jpg","39","restless",0.6,0.3,0.6,0.0844861242348316,"true"
"image-keyboard-response",534,393249,"0.0-3.174-1.174","u13os16xepsc5je",316,"9.csv","","null","resources/maskTrios/BBA2.jpg","null","",NA,NA,NA,NA,""
"image-keyboard-response",535,394451,"0.0-3.174-2.174","u13os16xepsc5je",316,"9.csv","","null","resources/images/coin2.png","null","",NA,NA,NA,NA,""
"image-keyboard-response",536,394498,"0.0-3.175-0.175","u13os16xepsc5je",316,"9.csv","","45","resources/trios/L2T4A2.jpg","39","restless",0.6,0.3,0.6,0.856524085186125,"false"
"image-keyboard-response",537,394900,"0.0-3.175-1.175","u13os16xepsc5je",316,"9.csv","","null","resources/maskTrios/BBA2.jpg","null","",NA,NA,NA,NA,""
"image-keyboard-response",538,396102,"0.0-3.175-2.175","u13os16xepsc5je",316,"9.csv","","null","resources/images/fishbone.png","null","",NA,NA,NA,NA,""
"image-keyboard-response",539,396263,"0.0-3.176-0.176","u13os16xepsc5je",316,"9.csv","","159","resources/trios/L4T4A3.jpg","39","restless",0.6,0.3,0.6,0.427530773721503,"true"
"image-keyboard-response",540,396663,"0.0-3.176-1.176","u13os16xepsc5je",316,"9.csv","","null","resources/maskTrios/BBA3.jpg","null","",NA,NA,NA,NA,""
"image-keyboard-response",541,397866,"0.0-3.176-2.176","u13os16xepsc5je",316,"9.csv","","null","resources/images/coin2.png","null","",NA,NA,NA,NA,""
"image-keyboard-response",542,397879,"0.0-3.177-0.177","u13os16xepsc5je",316,"9.csv","","13.000000000058208","resources/trios/L4T4A2.jpg","39","restless",0.6,0.3,0.6,0.785361302321945,"false"
"image-keyboard-response",543,398281,"0.0-3.177-1.177","u13os16xepsc5je",316,"9.csv","","null","resources/maskTrios/BBA2.jpg","null","",NA,NA,NA,NA,""
"image-keyboard-response",544,399483,"0.0-3.177-2.177","u13os16xepsc5je",316,"9.csv","","null","resources/images/fishbone.png","null","",NA,NA,NA,NA,""
"image-keyboard-response",545,399656,"0.0-3.178-0.178","u13os16xepsc5je",316,"9.csv","","170","resources/trios/L4T2A2.jpg","39","restless",0.5,0.3,0.6,0.499143488923987,"true"
"image-keyboard-response",546,400058,"0.0-3.178-1.178","u13os16xepsc5je",316,"9.csv","","null","resources/maskTrios/BBA2.jpg","null","",NA,NA,NA,NA,""
"image-keyboard-response",547,401260,"0.0-3.178-2.178","u13os16xepsc5je",316,"9.csv","","null","resources/images/coin2.png","null","",NA,NA,NA,NA,""
"image-keyboard-response",548,401991,"0.0-3.179-0.179","u13os16xepsc5je",316,"9.csv","","728.9999999999418","resources/trios/L2T2A3.jpg","39","restless",0.5,0.3,0.6,0.107263090653685,"true"
"image-keyboard-response",549,402393,"0.0-3.179-1.179","u13os16xepsc5je",316,"9.csv","","null","resources/maskTrios/BBA3.jpg","null","",NA,NA,NA,NA,""
"image-keyboard-response",550,403594,"0.0-3.179-2.179","u13os16xepsc5je",316,"9.csv","","null","resources/images/coin2.png","null","",NA,NA,NA,NA,""
"image-keyboard-response",551,403671,"0.0-3.180-0.180","u13os16xepsc5je",316,"9.csv","","76","resources/trios/L4T4A2.jpg","39","restless",0.6,0.3,0.6,0.335116682189166,"true"
"image-keyboard-response",552,404073,"0.0-3.180-1.180","u13os16xepsc5je",316,"9.csv","","null","resources/maskTrios/BBA2.jpg","null","",NA,NA,NA,NA,""
"image-keyboard-response",553,405275,"0.0-3.180-2.180","u13os16xepsc5je",316,"9.csv","","null","resources/images/coin2.png","null","",NA,NA,NA,NA,""
"image-keyboard-response",554,405863,"0.0-3.181-0.181","u13os16xepsc5je",316,"9.csv","","587","resources/trios/L2T2A3.jpg","39","restless",0.6,0.3,0.6,0.746415598660159,"false"
"image-keyboard-response",555,406267,"0.0-3.181-1.181","u13os16xepsc5je",316,"9.csv","","null","resources/maskTrios/BBA3.jpg","null","",NA,NA,NA,NA,""
"image-keyboard-response",556,407469,"0.0-3.181-2.181","u13os16xepsc5je",316,"9.csv","","null","resources/images/fishbone.png","null","",NA,NA,NA,NA,""
"image-keyboard-response",557,407501,"0.0-3.182-0.182","u13os16xepsc5je",316,"9.csv","","31","resources/trios/L2T4A2.jpg","39","restless",0.5,0.3,0.6,0.0207380145932028,"true"
"image-keyboard-response",558,407902,"0.0-3.182-1.182","u13os16xepsc5je",316,"9.csv","","null","resources/maskTrios/BBA2.jpg","null","",NA,NA,NA,NA,""
"image-keyboard-response",559,409104,"0.0-3.182-2.182","u13os16xepsc5je",316,"9.csv","","null","resources/images/coin2.png","null","",NA,NA,NA,NA,""
"image-keyboard-response",560,409255,"0.0-3.183-0.183","u13os16xepsc5je",316,"9.csv","","148","resources/trios/L4T4A3.jpg","39","restless",0.5,0.3,0.6,0.142049178247326,"true"
"image-keyboard-response",561,409657,"0.0-3.183-1.183","u13os16xepsc5je",316,"9.csv","","null","resources/maskTrios/BBA3.jpg","null","",NA,NA,NA,NA,""
"image-keyboard-response",562,410859,"0.0-3.183-2.183","u13os16xepsc5je",316,"9.csv","","null","resources/images/coin2.png","null","",NA,NA,NA,NA,""
"image-keyboard-response",563,410917,"0.0-3.184-0.184","u13os16xepsc5je",316,"9.csv","","56","resources/trios/L4T4A2.jpg","39","restless",0.5,0.3,0.6,0.434471515496096,"true"
"image-keyboard-response",564,411318,"0.0-3.184-1.184","u13os16xepsc5je",316,"9.csv","","null","resources/maskTrios/BBA2.jpg","null","",NA,NA,NA,NA,""
"image-keyboard-response",565,412520,"0.0-3.184-2.184","u13os16xepsc5je",316,"9.csv","","null","resources/images/coin2.png","null","",NA,NA,NA,NA,""
"image-keyboard-response",566,412561,"0.0-3.185-0.185","u13os16xepsc5je",316,"9.csv","","40","resources/trios/L2T4A3.jpg","39","restless",0.5,0.3,0.6,0.0861108141564452,"true"
"image-keyboard-response",567,412963,"0.0-3.185-1.185","u13os16xepsc5je",316,"9.csv","","null","resources/maskTrios/BBA3.jpg","null","",NA,NA,NA,NA,""
"image-keyboard-response",568,414165,"0.0-3.185-2.185","u13os16xepsc5je",316,"9.csv","","null","resources/images/coin2.png","null","",NA,NA,NA,NA,""
"image-keyboard-response",569,414195,"0.0-3.186-0.186","u13os16xepsc5je",316,"9.csv","","28.999999999941792","resources/trios/L2T2A2.jpg","39","restless",0.6,0.2,0.6,0.334345684220655,"true"
"image-keyboard-response",570,414597,"0.0-3.186-1.186","u13os16xepsc5je",316,"9.csv","","null","resources/maskTrios/BBA2.jpg","null","",NA,NA,NA,NA,""
"image-keyboard-response",571,415798,"0.0-3.186-2.186","u13os16xepsc5je",316,"9.csv","","null","resources/images/coin2.png","null","",NA,NA,NA,NA,""
"image-keyboard-response",572,415991,"0.0-3.187-0.187","u13os16xepsc5je",316,"9.csv","","192","resources/trios/L4T4A3.jpg","39","restless",0.6,0.2,0.5,0.0697345585941692,"true"
"image-keyboard-response",573,416393,"0.0-3.187-1.187","u13os16xepsc5je",316,"9.csv","","null","resources/maskTrios/BBA3.jpg","null","",NA,NA,NA,NA,""
"image-keyboard-response",574,417595,"0.0-3.187-2.187","u13os16xepsc5je",316,"9.csv","","null","resources/images/coin2.png","null","",NA,NA,NA,NA,""
"image-keyboard-response",575,417644,"0.0-3.188-0.188","u13os16xepsc5je",316,"9.csv","","48","resources/trios/L4T4A3.jpg","39","restless",0.5,0.2,0.5,0.0671094345131243,"true"
"image-keyboard-response",576,418046,"0.0-3.188-1.188","u13os16xepsc5je",316,"9.csv","","null","resources/maskTrios/BBA3.jpg","null","",NA,NA,NA,NA,""
"image-keyboard-response",577,419249,"0.0-3.188-2.188","u13os16xepsc5je",316,"9.csv","","null","resources/images/coin2.png","null","",NA,NA,NA,NA,""
"image-keyboard-response",578,419504,"0.0-3.189-0.189","u13os16xepsc5je",316,"9.csv","","254.0000000000582","resources/trios/L2T2A2.jpg","39","restless",0.5,0.2,0.5,0.470675387468837,"true"
"image-keyboard-response",579,419905,"0.0-3.189-1.189","u13os16xepsc5je",316,"9.csv","","null","resources/maskTrios/BBA2.jpg","null","",NA,NA,NA,NA,""
"image-keyboard-response",580,421107,"0.0-3.189-2.189","u13os16xepsc5je",316,"9.csv","","null","resources/images/coin2.png","null","",NA,NA,NA,NA,""
"image-keyboard-response",581,421439,"0.0-3.190-0.190","u13os16xepsc5je",316,"9.csv","","330","resources/trios/L4T2A3.jpg","39","restless",0.4,0.2,0.5,0.000138150213367383,"true"
"image-keyboard-response",582,421841,"0.0-3.190-1.190","u13os16xepsc5je",316,"9.csv","","null","resources/maskTrios/BBA3.jpg","null","",NA,NA,NA,NA,""
"image-keyboard-response",583,423043,"0.0-3.190-2.190","u13os16xepsc5je",316,"9.csv","","null","resources/images/coin2.png","null","",NA,NA,NA,NA,""
"image-keyboard-response",584,425399,"0.0-3.191-0.191","u13os16xepsc5je",316,"9.csv","","2355","resources/trios/L4T4A2.jpg","39","restless",0.4,0.2,0.5,0.536036570564861,"false"
"image-keyboard-response",585,425802,"0.0-3.191-1.191","u13os16xepsc5je",316,"9.csv","","null","resources/maskTrios/BBA2.jpg","null","",NA,NA,NA,NA,""
"image-keyboard-response",586,427004,"0.0-3.191-2.191","u13os16xepsc5je",316,"9.csv","","null","resources/images/fishbone.png","null","",NA,NA,NA,NA,""
"image-keyboard-response",587,429056,"0.0-3.192-0.192","u13os16xepsc5je",316,"9.csv","","2050","resources/trios/L2T4A2.jpg","39","restless",0.4,0.2,0.4,0.807601273374039,"false"
"image-keyboard-response",588,429460,"0.0-3.192-1.192","u13os16xepsc5je",316,"9.csv","","null","resources/maskTrios/BBA2.jpg","null","",NA,NA,NA,NA,""
"image-keyboard-response",589,430662,"0.0-3.192-2.192","u13os16xepsc5je",316,"9.csv","","null","resources/images/fishbone.png","null","",NA,NA,NA,NA,""
"image-keyboard-response",590,431173,"0.0-3.193-0.193","u13os16xepsc5je",316,"9.csv","","510","resources/trios/L2T4A2.jpg","39","restless",0.4,0.2,0.4,0.0968433149258021,"true"
"image-keyboard-response",591,431575,"0.0-3.193-1.193","u13os16xepsc5je",316,"9.csv","","null","resources/maskTrios/BBA2.jpg","null","",NA,NA,NA,NA,""
"image-keyboard-response",592,432777,"0.0-3.193-2.193","u13os16xepsc5je",316,"9.csv","","null","resources/images/coin2.png","null","",NA,NA,NA,NA,""
"image-keyboard-response",593,432861,"0.0-3.194-0.194","u13os16xepsc5je",316,"9.csv","","81.99999999994179","resources/trios/L2T2A2.jpg","39","restless",0.4,0.2,0.4,0.527480410535549,"false"
"image-keyboard-response",594,433263,"0.0-3.194-1.194","u13os16xepsc5je",316,"9.csv","","null","resources/maskTrios/BBA2.jpg","null","",NA,NA,NA,NA,""
"image-keyboard-response",595,434465,"0.0-3.194-2.194","u13os16xepsc5je",316,"9.csv","","null","resources/images/fishbone.png","null","",NA,NA,NA,NA,""
"image-keyboard-response",596,434537,"0.0-3.195-0.195","u13os16xepsc5je",316,"9.csv","","71","resources/trios/L2T4A3.jpg","39","restless",0.4,0.2,0.4,0.869498709936544,"false"
"image-keyboard-response",597,434939,"0.0-3.195-1.195","u13os16xepsc5je",316,"9.csv","","null","resources/maskTrios/BBA3.jpg","null","",NA,NA,NA,NA,""
"image-keyboard-response",598,436141,"0.0-3.195-2.195","u13os16xepsc5je",316,"9.csv","","null","resources/images/fishbone.png","null","",NA,NA,NA,NA,""
"image-keyboard-response",599,436325,"0.0-3.196-0.196","u13os16xepsc5je",316,"9.csv","","182.9999999999418","resources/trios/L2T2A2.jpg","39","restless",0.4,0.1,0.4,0.303274711041233,"true"
"image-keyboard-response",600,436727,"0.0-3.196-1.196","u13os16xepsc5je",316,"9.csv","","null","resources/maskTrios/BBA2.jpg","null","",NA,NA,NA,NA,""
"image-keyboard-response",601,437928,"0.0-3.196-2.196","u13os16xepsc5je",316,"9.csv","","null","resources/images/coin2.png","null","",NA,NA,NA,NA,""
"image-keyboard-response",602,438311,"0.0-3.197-0.197","u13os16xepsc5je",316,"9.csv","","380","resources/trios/L2T4A3.jpg","39","restless",0.4,0.1,0.4,0.259322080125133,"true"
"image-keyboard-response",603,438713,"0.0-3.197-1.197","u13os16xepsc5je",316,"9.csv","","null","resources/maskTrios/BBA3.jpg","null","",NA,NA,NA,NA,""
"image-keyboard-response",604,439915,"0.0-3.197-2.197","u13os16xepsc5je",316,"9.csv","","null","resources/images/coin2.png","null","",NA,NA,NA,NA,""
"image-keyboard-response",605,440038,"0.0-3.198-0.198","u13os16xepsc5je",316,"9.csv","","121.99999999994179","resources/trios/L2T4A3.jpg","39","restless",0.4,0.1,0.4,0.991168087465174,"false"
"image-keyboard-response",606,440439,"0.0-3.198-1.198","u13os16xepsc5je",316,"9.csv","","null","resources/maskTrios/BBA3.jpg","null","",NA,NA,NA,NA,""
"image-keyboard-response",607,441641,"0.0-3.198-2.198","u13os16xepsc5je",316,"9.csv","","null","resources/images/fishbone.png","null","",NA,NA,NA,NA,""
"image-keyboard-response",608,441836,"0.0-3.199-0.199","u13os16xepsc5je",316,"9.csv","","193.9999999999418","resources/trios/L4T4A2.jpg","39","restless",0.4,0.1,0.4,0.203276368538825,"true"
"image-keyboard-response",609,442237,"0.0-3.199-1.199","u13os16xepsc5je",316,"9.csv","","null","resources/maskTrios/BBA2.jpg","null","",NA,NA,NA,NA,""
"image-keyboard-response",610,443438,"0.0-3.199-2.199","u13os16xepsc5je",316,"9.csv","","null","resources/images/coin2.png","null","",NA,NA,NA,NA,""
"image-keyboard-response",611,443626,"0.0-3.200-0.200","u13os16xepsc5je",316,"9.csv","","184","resources/trios/L4T4A2.jpg","39","restless",0.4,0.1,0.4,0.0180985767135982,"true"
"image-keyboard-response",612,444028,"0.0-3.200-1.200","u13os16xepsc5je",316,"9.csv","","null","resources/maskTrios/BBA2.jpg","null","",NA,NA,NA,NA,""
"image-keyboard-response",613,445230,"0.0-3.200-2.200","u13os16xepsc5je",316,"9.csv","","null","resources/images/coin2.png","null","",NA,NA,NA,NA,""
"image-keyboard-response",614,445416,"0.0-3.201-0.201","u13os16xepsc5je",316,"9.csv","","184.0000000000582","resources/trios/L2T2A3.jpg","39","restless",0.4,0.2,0.3,0.391370010589811,"false"
"image-keyboard-response",615,445817,"0.0-3.201-1.201","u13os16xepsc5je",316,"9.csv","","null","resources/maskTrios/BBA3.jpg","null","",NA,NA,NA,NA,""
"image-keyboard-response",616,447019,"0.0-3.201-2.201","u13os16xepsc5je",316,"9.csv","","null","resources/images/fishbone.png","null","",NA,NA,NA,NA,""
"image-keyboard-response",617,447064,"0.0-3.202-0.202","u13os16xepsc5je",316,"9.csv","","44.00000000005821","resources/trios/L2T2A3.jpg","39","restless",0.5,0.2,0.3,0.594007638591033,"false"
"image-keyboard-response",618,447466,"0.0-3.202-1.202","u13os16xepsc5je",316,"9.csv","","null","resources/maskTrios/BBA3.jpg","null","",NA,NA,NA,NA,""
"image-keyboard-response",619,448669,"0.0-3.202-2.202","u13os16xepsc5je",316,"9.csv","","null","resources/images/fishbone.png","null","",NA,NA,NA,NA,""
"image-keyboard-response",620,448738,"0.0-3.203-0.203","u13os16xepsc5je",316,"9.csv","","68.00000000005821","resources/trios/L2T2A3.jpg","39","restless",0.5,0.2,0.3,0.217788144407103,"true"
"image-keyboard-response",621,449141,"0.0-3.203-1.203","u13os16xepsc5je",316,"9.csv","","null","resources/maskTrios/BBA3.jpg","null","",NA,NA,NA,NA,""
"image-keyboard-response",622,450343,"0.0-3.203-2.203","u13os16xepsc5je",316,"9.csv","","null","resources/images/coin2.png","null","",NA,NA,NA,NA,""
"image-keyboard-response",623,450448,"0.0-3.204-0.204","u13os16xepsc5je",316,"9.csv","","104","resources/trios/L4T2A2.jpg","39","restless",0.5,0.2,0.4,0.396189295010012,"true"
"image-keyboard-response",624,450850,"0.0-3.204-1.204","u13os16xepsc5je",316,"9.csv","","null","resources/maskTrios/BBA2.jpg","null","",NA,NA,NA,NA,""
"image-keyboard-response",625,452052,"0.0-3.204-2.204","u13os16xepsc5je",316,"9.csv","","null","resources/images/coin2.png","null","",NA,NA,NA,NA,""
