"trial_type","trial_index","time_elapsed","internal_node_id","subject","participantCode","walkNumber","success","rt","stimulus","key_press","test_part","leftProb","midProb","rightProb","generatedNum","correct"
"pavlovia",0,1186,"0.0-0.0","j254fx16vbf96l3",261,"141.csv","","","","","",NA,NA,NA,NA,""
"fullscreen",1,11751,"0.0-1.0","j254fx16vbf96l3",261,"141.csv","true","","","","",NA,NA,NA,NA,""
"html-keyboard-response",2,19092,"0.0-2.0-0.0","j254fx16vbf96l3",261,"141.csv","","7337","<p><font size='6'>Arrrgh!</p></font><p>Can you be the best pirate? Try to find lots of gold! But beware, some islands have more gold than others, and over time, the island with the most gold may change. Can YOU figure it out? </p><font size='6'>GOOD LUCK, CAPTAIN!!!</font><p>Press any key to begin</p>","32","",NA,NA,NA,NA,""
"image-keyboard-response",3,22099,"0.0-2.0-1.0","j254fx16vbf96l3",261,"141.csv","","null","resources/image_sets/111.png","null","",NA,NA,NA,NA,""
"image-keyboard-response",4,26012,"0.0-2.0-2.0","j254fx16vbf96l3",261,"141.csv","","3909.199999809265","resources/image_sets/left_highlight.png","37","",NA,NA,NA,NA,""
"image-keyboard-response",5,28974,"0.0-2.0-3.0","j254fx16vbf96l3",261,"141.csv","","2960.800000190735","resources/image_sets/mid_highlight.png","38","",NA,NA,NA,NA,""
"image-keyboard-response",6,30129,"0.0-2.0-4.0","j254fx16vbf96l3",261,"141.csv","","1152.6000003814697","resources/image_sets/right_highlight.png","39","",NA,NA,NA,NA,""
"image-keyboard-response",7,33705,"0.0-2.0-5.0","j254fx16vbf96l3",261,"141.csv","","3574","resources/image_sets/111.png","13","",NA,NA,NA,NA,""
"image-keyboard-response",8,38836,"0.0-2.0-6.0","j254fx16vbf96l3",261,"141.csv","","5130.200000762939","resources/images/coin2.png","13","",NA,NA,NA,NA,""
"image-keyboard-response",9,41045,"0.0-2.0-7.0","j254fx16vbf96l3",261,"141.csv","","2207.4000005722046","resources/images/fishbone.png","13","",NA,NA,NA,NA,""
"html-keyboard-response",10,48147,"0.0-2.0-8.0","j254fx16vbf96l3",261,"141.csv","","7102.300000190735","<p>Your first journey will be a long one, but you will get a well deserved break at the end</p><p>After the break you will have four more journeys, but each will be much shorter than the first, and you will have breaks in between each</p><p>Press Enter to begin</p>","13","",NA,NA,NA,NA,""
"image-keyboard-response",11,49847,"0.0-3.0-0.0","j254fx16vbf96l3",261,"141.csv","","1697.6999998092651","resources/trios/L1T4A2.jpg","37","restless",0.3,0.7,0.9,0.130389542264959,"true"
"image-keyboard-response",12,50272,"0.0-3.0-1.0","j254fx16vbf96l3",261,"141.csv","","null","resources/maskTrios/L1BB.jpg","null","",NA,NA,NA,NA,""
"image-keyboard-response",13,51497,"0.0-3.0-2.0","j254fx16vbf96l3",261,"141.csv","","null","resources/images/coin2.png","null","",NA,NA,NA,NA,""
"image-keyboard-response",14,52751,"0.0-3.1-0.1","j254fx16vbf96l3",261,"141.csv","","1249.6999998092651","resources/trios/L2T4A1.jpg","37","restless",0.3,0.7,0.9,0.268651187529655,"true"
"image-keyboard-response",15,53171,"0.0-3.1-1.1","j254fx16vbf96l3",261,"141.csv","","null","resources/maskTrios/L2BB.jpg","null","",NA,NA,NA,NA,""
"image-keyboard-response",16,54397,"0.0-3.1-2.1","j254fx16vbf96l3",261,"141.csv","","null","resources/images/coin2.png","null","",NA,NA,NA,NA,""
"image-keyboard-response",17,54874,"0.0-3.2-0.2","j254fx16vbf96l3",261,"141.csv","","472.6000003814697","resources/trios/L1T4A2.jpg","37","restless",0.4,0.7,0.9,0.123990191175304,"true"
"image-keyboard-response",18,55298,"0.0-3.2-1.2","j254fx16vbf96l3",261,"141.csv","","null","resources/maskTrios/L1BB.jpg","null","",NA,NA,NA,NA,""
"image-keyboard-response",19,56513,"0.0-3.2-2.2","j254fx16vbf96l3",261,"141.csv","","null","resources/images/coin2.png","null","",NA,NA,NA,NA,""
"image-keyboard-response",20,57009,"0.0-3.3-0.3","j254fx16vbf96l3",261,"141.csv","","492","resources/trios/L1T4A1.jpg","37","restless",0.4,0.6,0.8,0.961924016943235,"false"
"image-keyboard-response",21,57422,"0.0-3.3-1.3","j254fx16vbf96l3",261,"141.csv","","null","resources/maskTrios/L1BB.jpg","null","",NA,NA,NA,NA,""
"image-keyboard-response",22,58635,"0.0-3.3-2.3","j254fx16vbf96l3",261,"141.csv","","null","resources/images/fishbone.png","null","",NA,NA,NA,NA,""
"image-keyboard-response",23,59240,"0.0-3.4-0.4","j254fx16vbf96l3",261,"141.csv","","600.2000007629395","resources/trios/L1T4A2.jpg","37","restless",0.4,0.6,0.8,0.109388438152854,"true"
"image-keyboard-response",24,59656,"0.0-3.4-1.4","j254fx16vbf96l3",261,"141.csv","","null","resources/maskTrios/L1BB.jpg","null","",NA,NA,NA,NA,""
"image-keyboard-response",25,60863,"0.0-3.4-2.4","j254fx16vbf96l3",261,"141.csv","","null","resources/images/coin2.png","null","",NA,NA,NA,NA,""
"image-keyboard-response",26,61246,"0.0-3.5-0.5","j254fx16vbf96l3",261,"141.csv","","379.0999994277954","resources/trios/L1T2A1.jpg","37","restless",0.4,0.6,0.8,0.713758781352639,"false"
"image-keyboard-response",27,61656,"0.0-3.5-1.5","j254fx16vbf96l3",261,"141.csv","","null","resources/maskTrios/L1BB.jpg","null","",NA,NA,NA,NA,""
"image-keyboard-response",28,62875,"0.0-3.5-2.5","j254fx16vbf96l3",261,"141.csv","","null","resources/images/fishbone.png","null","",NA,NA,NA,NA,""
"image-keyboard-response",29,63459,"0.0-3.6-0.6","j254fx16vbf96l3",261,"141.csv","","581.3000001907349","resources/trios/L2T4A1.jpg","37","restless",0.4,0.6,0.8,0.547582486483674,"false"
"image-keyboard-response",30,63876,"0.0-3.6-1.6","j254fx16vbf96l3",261,"141.csv","","null","resources/maskTrios/L2BB.jpg","null","",NA,NA,NA,NA,""
"image-keyboard-response",31,65085,"0.0-3.6-2.6","j254fx16vbf96l3",261,"141.csv","","null","resources/images/fishbone.png","null","",NA,NA,NA,NA,""
"image-keyboard-response",32,65727,"0.0-3.7-0.7","j254fx16vbf96l3",261,"141.csv","","639.1999998092651","resources/trios/L1T2A1.jpg","39","restless",0.4,0.6,0.8,0.638516432185284,"true"
"image-keyboard-response",33,66138,"0.0-3.7-1.7","j254fx16vbf96l3",261,"141.csv","","null","resources/maskTrios/BBA1.jpg","null","",NA,NA,NA,NA,""
"image-keyboard-response",34,67343,"0.0-3.7-2.7","j254fx16vbf96l3",261,"141.csv","","null","resources/images/coin2.png","null","",NA,NA,NA,NA,""
"image-keyboard-response",35,67790,"0.0-3.8-0.8","j254fx16vbf96l3",261,"141.csv","","442.6000003814697","resources/trios/L2T4A2.jpg","39","restless",0.4,0.6,0.8,0.533712620907069,"true"
"image-keyboard-response",36,68200,"0.0-3.8-1.8","j254fx16vbf96l3",261,"141.csv","","null","resources/maskTrios/BBA2.jpg","null","",NA,NA,NA,NA,""
"image-keyboard-response",37,69412,"0.0-3.8-2.8","j254fx16vbf96l3",261,"141.csv","","null","resources/images/coin2.png","null","",NA,NA,NA,NA,""
"image-keyboard-response",38,70112,"0.0-3.9-0.9","j254fx16vbf96l3",261,"141.csv","","696.5","resources/trios/L1T4A1.jpg","37","restless",0.5,0.6,0.8,0.930741191121232,"false"
"image-keyboard-response",39,70520,"0.0-3.9-1.9","j254fx16vbf96l3",261,"141.csv","","null","resources/maskTrios/L1BB.jpg","null","",NA,NA,NA,NA,""
"image-keyboard-response",40,71741,"0.0-3.9-2.9","j254fx16vbf96l3",261,"141.csv","","null","resources/images/fishbone.png","null","",NA,NA,NA,NA,""
"image-keyboard-response",41,72429,"0.0-3.10-0.10","j254fx16vbf96l3",261,"141.csv","","684.7000007629395","resources/trios/L1T4A2.jpg","39","restless",0.5,0.6,0.8,0.273373479180183,"true"
"image-keyboard-response",42,72845,"0.0-3.10-1.10","j254fx16vbf96l3",261,"141.csv","","null","resources/maskTrios/BBA2.jpg","null","",NA,NA,NA,NA,""
"image-keyboard-response",43,74065,"0.0-3.10-2.10","j254fx16vbf96l3",261,"141.csv","","null","resources/images/coin2.png","null","",NA,NA,NA,NA,""
"image-keyboard-response",44,75171,"0.0-3.11-0.11","j254fx16vbf96l3",261,"141.csv","","1101.3999996185303","resources/trios/L1T2A1.jpg","37","restless",0.5,0.6,0.8,0.290924807318161,"true"
"image-keyboard-response",45,75588,"0.0-3.11-1.11","j254fx16vbf96l3",261,"141.csv","","null","resources/maskTrios/L1BB.jpg","null","",NA,NA,NA,NA,""
"image-keyboard-response",46,76810,"0.0-3.11-2.11","j254fx16vbf96l3",261,"141.csv","","null","resources/images/coin2.png","null","",NA,NA,NA,NA,""
"image-keyboard-response",47,78447,"0.0-3.12-0.12","j254fx16vbf96l3",261,"141.csv","","1634","resources/trios/L2T2A2.jpg","38","restless",0.4,0.6,0.8,0.835183740539403,"false"
"image-keyboard-response",48,78855,"0.0-3.12-1.12","j254fx16vbf96l3",261,"141.csv","","null","resources/maskTrios/BT2B.jpg","null","",NA,NA,NA,NA,""
"image-keyboard-response",49,80070,"0.0-3.12-2.12","j254fx16vbf96l3",261,"141.csv","","null","resources/images/fishbone.png","null","",NA,NA,NA,NA,""
"image-keyboard-response",50,80636,"0.0-3.13-0.13","j254fx16vbf96l3",261,"141.csv","","562.6999998092651","resources/trios/L1T2A2.jpg","37","restless",0.4,0.6,0.8,0.721335220493282,"false"
"image-keyboard-response",51,81056,"0.0-3.13-1.13","j254fx16vbf96l3",261,"141.csv","","null","resources/maskTrios/L1BB.jpg","null","",NA,NA,NA,NA,""
"image-keyboard-response",52,82276,"0.0-3.13-2.13","j254fx16vbf96l3",261,"141.csv","","null","resources/images/fishbone.png","null","",NA,NA,NA,NA,""
"image-keyboard-response",53,82557,"0.0-3.14-0.14","j254fx16vbf96l3",261,"141.csv","","277.30000019073486","resources/trios/L1T2A1.jpg","37","restless",0.4,0.6,0.8,0.985345652692639,"false"
"image-keyboard-response",54,82974,"0.0-3.14-1.14","j254fx16vbf96l3",261,"141.csv","","null","resources/maskTrios/L1BB.jpg","null","",NA,NA,NA,NA,""
"image-keyboard-response",55,84183,"0.0-3.14-2.14","j254fx16vbf96l3",261,"141.csv","","null","resources/images/fishbone.png","null","",NA,NA,NA,NA,""
"image-keyboard-response",56,84566,"0.0-3.15-0.15","j254fx16vbf96l3",261,"141.csv","","378.80000019073486","resources/trios/L1T2A1.jpg","39","restless",0.4,0.6,0.8,0.49347611184387,"true"
"image-keyboard-response",57,84988,"0.0-3.15-1.15","j254fx16vbf96l3",261,"141.csv","","null","resources/maskTrios/BBA1.jpg","null","",NA,NA,NA,NA,""
"image-keyboard-response",58,86203,"0.0-3.15-2.15","j254fx16vbf96l3",261,"141.csv","","null","resources/images/coin2.png","null","",NA,NA,NA,NA,""
"image-keyboard-response",59,86521,"0.0-3.16-0.16","j254fx16vbf96l3",261,"141.csv","","314.70000076293945","resources/trios/L2T4A2.jpg","39","restless",0.4,0.6,0.7,0.508978747886688,"true"
"image-keyboard-response",60,86937,"0.0-3.16-1.16","j254fx16vbf96l3",261,"141.csv","","null","resources/maskTrios/BBA2.jpg","null","",NA,NA,NA,NA,""
"image-keyboard-response",61,88147,"0.0-3.16-2.16","j254fx16vbf96l3",261,"141.csv","","null","resources/images/coin2.png","null","",NA,NA,NA,NA,""
"image-keyboard-response",62,88724,"0.0-3.17-0.17","j254fx16vbf96l3",261,"141.csv","","574.0999994277954","resources/trios/L2T4A2.jpg","39","restless",0.4,0.6,0.7,0.571593139601756,"true"
"image-keyboard-response",63,89138,"0.0-3.17-1.17","j254fx16vbf96l3",261,"141.csv","","null","resources/maskTrios/BBA2.jpg","null","",NA,NA,NA,NA,""
"image-keyboard-response",64,90358,"0.0-3.17-2.17","j254fx16vbf96l3",261,"141.csv","","null","resources/images/coin2.png","null","",NA,NA,NA,NA,""
"image-keyboard-response",65,90835,"0.0-3.18-0.18","j254fx16vbf96l3",261,"141.csv","","473.9000005722046","resources/trios/L1T4A1.jpg","39","restless",0.4,0.6,0.7,0.299538928100702,"true"
"image-keyboard-response",66,91247,"0.0-3.18-1.18","j254fx16vbf96l3",261,"141.csv","","null","resources/maskTrios/BBA1.jpg","null","",NA,NA,NA,NA,""
"image-keyboard-response",67,92465,"0.0-3.18-2.18","j254fx16vbf96l3",261,"141.csv","","null","resources/images/coin2.png","null","",NA,NA,NA,NA,""
"image-keyboard-response",68,93024,"0.0-3.19-0.19","j254fx16vbf96l3",261,"141.csv","","555.6999998092651","resources/trios/L1T2A2.jpg","39","restless",0.4,0.6,0.7,0.973405797066681,"false"
"image-keyboard-response",69,93435,"0.0-3.19-1.19","j254fx16vbf96l3",261,"141.csv","","null","resources/maskTrios/BBA2.jpg","null","",NA,NA,NA,NA,""
"image-keyboard-response",70,94656,"0.0-3.19-2.19","j254fx16vbf96l3",261,"141.csv","","null","resources/images/fishbone.png","null","",NA,NA,NA,NA,""
"image-keyboard-response",71,95350,"0.0-3.20-0.20","j254fx16vbf96l3",261,"141.csv","","690.3999996185303","resources/trios/L2T2A1.jpg","37","restless",0.4,0.6,0.6,0.504687481195334,"false"
"image-keyboard-response",72,95769,"0.0-3.20-1.20","j254fx16vbf96l3",261,"141.csv","","null","resources/maskTrios/L2BB.jpg","null","",NA,NA,NA,NA,""
"image-keyboard-response",73,96985,"0.0-3.20-2.20","j254fx16vbf96l3",261,"141.csv","","null","resources/images/fishbone.png","null","",NA,NA,NA,NA,""
"image-keyboard-response",74,97589,"0.0-3.21-0.21","j254fx16vbf96l3",261,"141.csv","","599.5","resources/trios/L1T4A2.jpg","37","restless",0.4,0.6,0.6,0.941555999713403,"false"
"image-keyboard-response",75,98003,"0.0-3.21-1.21","j254fx16vbf96l3",261,"141.csv","","null","resources/maskTrios/L1BB.jpg","null","",NA,NA,NA,NA,""
"image-keyboard-response",76,99221,"0.0-3.21-2.21","j254fx16vbf96l3",261,"141.csv","","null","resources/images/fishbone.png","null","",NA,NA,NA,NA,""
"image-keyboard-response",77,99648,"0.0-3.22-0.22","j254fx16vbf96l3",261,"141.csv","","423.69999980926514","resources/trios/L2T4A2.jpg","37","restless",0.4,0.6,0.5,0.173563255447567,"true"
"image-keyboard-response",78,100060,"0.0-3.22-1.22","j254fx16vbf96l3",261,"141.csv","","null","resources/maskTrios/L2BB.jpg","null","",NA,NA,NA,NA,""
"image-keyboard-response",79,101281,"0.0-3.22-2.22","j254fx16vbf96l3",261,"141.csv","","null","resources/images/coin2.png","null","",NA,NA,NA,NA,""
"image-keyboard-response",80,101795,"0.0-3.23-0.23","j254fx16vbf96l3",261,"141.csv","","510.5","resources/trios/L1T2A1.jpg","37","restless",0.4,0.6,0.5,0.183722644029633,"true"
"image-keyboard-response",81,102208,"0.0-3.23-1.23","j254fx16vbf96l3",261,"141.csv","","null","resources/maskTrios/L1BB.jpg","null","",NA,NA,NA,NA,""
"image-keyboard-response",82,103420,"0.0-3.23-2.23","j254fx16vbf96l3",261,"141.csv","","null","resources/images/coin2.png","null","",NA,NA,NA,NA,""
"image-keyboard-response",83,104248,"0.0-3.24-0.24","j254fx16vbf96l3",261,"141.csv","","824.4000005722046","resources/trios/L1T2A1.jpg","39","restless",0.4,0.6,0.4,0.148333091802429,"true"
"image-keyboard-response",84,104673,"0.0-3.24-1.24","j254fx16vbf96l3",261,"141.csv","","null","resources/maskTrios/BBA1.jpg","null","",NA,NA,NA,NA,""
"image-keyboard-response",85,105883,"0.0-3.24-2.24","j254fx16vbf96l3",261,"141.csv","","null","resources/images/coin2.png","null","",NA,NA,NA,NA,""
"image-keyboard-response",86,106775,"0.0-3.25-0.25","j254fx16vbf96l3",261,"141.csv","","887.1999998092651","resources/trios/L1T4A1.jpg","39","restless",0.4,0.6,0.4,0.87533351021061,"false"
"image-keyboard-response",87,107197,"0.0-3.25-1.25","j254fx16vbf96l3",261,"141.csv","","null","resources/maskTrios/BBA1.jpg","null","",NA,NA,NA,NA,""
"image-keyboard-response",88,108406,"0.0-3.25-2.25","j254fx16vbf96l3",261,"141.csv","","null","resources/images/fishbone.png","null","",NA,NA,NA,NA,""
"image-keyboard-response",89,108879,"0.0-3.26-0.26","j254fx16vbf96l3",261,"141.csv","","469.1000003814697","resources/trios/L1T4A1.jpg","37","restless",0.3,0.6,0.4,0.298759441954666,"true"
"image-keyboard-response",90,109297,"0.0-3.26-1.26","j254fx16vbf96l3",261,"141.csv","","null","resources/maskTrios/L1BB.jpg","null","",NA,NA,NA,NA,""
"image-keyboard-response",91,110518,"0.0-3.26-2.26","j254fx16vbf96l3",261,"141.csv","","null","resources/images/coin2.png","null","",NA,NA,NA,NA,""
"image-keyboard-response",92,110969,"0.0-3.27-0.27","j254fx16vbf96l3",261,"141.csv","","446.69999980926514","resources/trios/L2T4A1.jpg","37","restless",0.3,0.6,0.4,0.169108345389003,"true"
"image-keyboard-response",93,111389,"0.0-3.27-1.27","j254fx16vbf96l3",261,"141.csv","","null","resources/maskTrios/L2BB.jpg","null","",NA,NA,NA,NA,""
"image-keyboard-response",94,112607,"0.0-3.27-2.27","j254fx16vbf96l3",261,"141.csv","","null","resources/images/coin2.png","null","",NA,NA,NA,NA,""
"image-keyboard-response",95,112911,"0.0-3.28-0.28","j254fx16vbf96l3",261,"141.csv","","300.5","resources/trios/L2T2A2.jpg","37","restless",0.3,0.5,0.4,0.0287752927734606,"true"
"image-keyboard-response",96,113324,"0.0-3.28-1.28","j254fx16vbf96l3",261,"141.csv","","null","resources/maskTrios/L2BB.jpg","null","",NA,NA,NA,NA,""
"image-keyboard-response",97,114530,"0.0-3.28-2.28","j254fx16vbf96l3",261,"141.csv","","null","resources/images/coin2.png","null","",NA,NA,NA,NA,""
"image-keyboard-response",98,114753,"0.0-3.29-0.29","j254fx16vbf96l3",261,"141.csv","","219","resources/trios/L2T2A1.jpg","37","restless",0.2,0.5,0.4,0.568462399471586,"false"
"image-keyboard-response",99,115176,"0.0-3.29-1.29","j254fx16vbf96l3",261,"141.csv","","null","resources/maskTrios/L2BB.jpg","null","",NA,NA,NA,NA,""
"image-keyboard-response",100,116398,"0.0-3.29-2.29","j254fx16vbf96l3",261,"141.csv","","null","resources/images/fishbone.png","null","",NA,NA,NA,NA,""
"image-keyboard-response",101,116872,"0.0-3.30-0.30","j254fx16vbf96l3",261,"141.csv","","470.3999996185303","resources/trios/L2T4A1.jpg","39","restless",0.2,0.5,0.4,0.773776250641796,"false"
"image-keyboard-response",102,117292,"0.0-3.30-1.30","j254fx16vbf96l3",261,"141.csv","","null","resources/maskTrios/BBA1.jpg","null","",NA,NA,NA,NA,""
"image-keyboard-response",103,118504,"0.0-3.30-2.30","j254fx16vbf96l3",261,"141.csv","","null","resources/images/fishbone.png","null","",NA,NA,NA,NA,""
"image-keyboard-response",104,118681,"0.0-3.31-0.31","j254fx16vbf96l3",261,"141.csv","","173.69999980926514","resources/trios/L2T4A2.jpg","37","restless",0.2,0.6,0.3,0.836534958695113,"false"
"image-keyboard-response",105,119091,"0.0-3.31-1.31","j254fx16vbf96l3",261,"141.csv","","null","resources/maskTrios/L2BB.jpg","null","",NA,NA,NA,NA,""
"image-keyboard-response",106,120306,"0.0-3.31-2.31","j254fx16vbf96l3",261,"141.csv","","null","resources/images/fishbone.png","null","",NA,NA,NA,NA,""
"image-keyboard-response",107,120496,"0.0-3.32-0.32","j254fx16vbf96l3",261,"141.csv","","187.19999980926514","resources/trios/L2T4A1.jpg","38","restless",0.2,0.6,0.2,0.285084658894315,"true"
"image-keyboard-response",108,120915,"0.0-3.32-1.32","j254fx16vbf96l3",261,"141.csv","","null","resources/maskTrios/BT4B.jpg","null","",NA,NA,NA,NA,""
"image-keyboard-response",109,122136,"0.0-3.32-2.32","j254fx16vbf96l3",261,"141.csv","","null","resources/images/coin2.png","null","",NA,NA,NA,NA,""
"image-keyboard-response",110,122510,"0.0-3.33-0.33","j254fx16vbf96l3",261,"141.csv","","370.30000019073486","resources/trios/L1T2A1.jpg","38","restless",0.2,0.6,0.2,0.106923877314057,"true"
"image-keyboard-response",111,122931,"0.0-3.33-1.33","j254fx16vbf96l3",261,"141.csv","","null","resources/maskTrios/BT2B.jpg","null","",NA,NA,NA,NA,""
"image-keyboard-response",112,124143,"0.0-3.33-2.33","j254fx16vbf96l3",261,"141.csv","","null","resources/images/coin2.png","null","",NA,NA,NA,NA,""
"image-keyboard-response",113,124378,"0.0-3.34-0.34","j254fx16vbf96l3",261,"141.csv","","231.39999961853027","resources/trios/L1T2A1.jpg","38","restless",0.2,0.6,0.2,0.751765127898101,"false"
"image-keyboard-response",114,124803,"0.0-3.34-1.34","j254fx16vbf96l3",261,"141.csv","","null","resources/maskTrios/BT2B.jpg","null","",NA,NA,NA,NA,""
"image-keyboard-response",115,126010,"0.0-3.34-2.34","j254fx16vbf96l3",261,"141.csv","","null","resources/images/fishbone.png","null","",NA,NA,NA,NA,""
"image-keyboard-response",116,126204,"0.0-3.35-0.35","j254fx16vbf96l3",261,"141.csv","","190.30000019073486","resources/trios/L2T2A2.jpg","37","restless",0.2,0.6,0.2,0.8174418937997,"false"
"image-keyboard-response",117,126610,"0.0-3.35-1.35","j254fx16vbf96l3",261,"141.csv","","null","resources/maskTrios/L2BB.jpg","null","",NA,NA,NA,NA,""
"image-keyboard-response",118,127828,"0.0-3.35-2.35","j254fx16vbf96l3",261,"141.csv","","null","resources/images/fishbone.png","null","",NA,NA,NA,NA,""
"image-keyboard-response",119,128124,"0.0-3.36-0.36","j254fx16vbf96l3",261,"141.csv","","292.30000019073486","resources/trios/L1T4A1.jpg","39","restless",0.2,0.6,0.2,0.384337993682121,"false"
"image-keyboard-response",120,128533,"0.0-3.36-1.36","j254fx16vbf96l3",261,"141.csv","","null","resources/maskTrios/BBA1.jpg","null","",NA,NA,NA,NA,""
"image-keyboard-response",121,129753,"0.0-3.36-2.36","j254fx16vbf96l3",261,"141.csv","","null","resources/images/fishbone.png","null","",NA,NA,NA,NA,""
"image-keyboard-response",122,129887,"0.0-3.37-0.37","j254fx16vbf96l3",261,"141.csv","","130","resources/trios/L1T2A1.jpg","39","restless",0.2,0.5,0.2,0.900143353708614,"false"
"image-keyboard-response",123,130305,"0.0-3.37-1.37","j254fx16vbf96l3",261,"141.csv","","null","resources/maskTrios/BBA1.jpg","null","",NA,NA,NA,NA,""
"image-keyboard-response",124,131526,"0.0-3.37-2.37","j254fx16vbf96l3",261,"141.csv","","null","resources/images/fishbone.png","null","",NA,NA,NA,NA,""
"image-keyboard-response",125,131827,"0.0-3.38-0.38","j254fx16vbf96l3",261,"141.csv","","297.8999996185303","resources/trios/L1T4A1.jpg","39","restless",0.2,0.5,0.2,0.890531589351839,"false"
"image-keyboard-response",126,132240,"0.0-3.38-1.38","j254fx16vbf96l3",261,"141.csv","","null","resources/maskTrios/BBA1.jpg","null","",NA,NA,NA,NA,""
"image-keyboard-response",127,133454,"0.0-3.38-2.38","j254fx16vbf96l3",261,"141.csv","","null","resources/images/fishbone.png","null","",NA,NA,NA,NA,""
"image-keyboard-response",128,133939,"0.0-3.39-0.39","j254fx16vbf96l3",261,"141.csv","","480.8999996185303","resources/trios/L1T4A1.jpg","39","restless",0.2,0.6,0.2,0.0427076275125462,"true"
"image-keyboard-response",129,134352,"0.0-3.39-1.39","j254fx16vbf96l3",261,"141.csv","","null","resources/maskTrios/BBA1.jpg","null","",NA,NA,NA,NA,""
"image-keyboard-response",130,135575,"0.0-3.39-2.39","j254fx16vbf96l3",261,"141.csv","","null","resources/images/coin2.png","null","",NA,NA,NA,NA,""
"image-keyboard-response",131,135848,"0.0-3.40-0.40","j254fx16vbf96l3",261,"141.csv","","271.80000019073486","resources/trios/L1T4A1.jpg","39","restless",0.3,0.6,0.2,0.741563532807504,"false"
"image-keyboard-response",132,136262,"0.0-3.40-1.40","j254fx16vbf96l3",261,"141.csv","","null","resources/maskTrios/BBA1.jpg","null","",NA,NA,NA,NA,""
"image-keyboard-response",133,137478,"0.0-3.40-2.40","j254fx16vbf96l3",261,"141.csv","","null","resources/images/fishbone.png","null","",NA,NA,NA,NA,""
"image-keyboard-response",134,137513,"0.0-3.41-0.41","j254fx16vbf96l3",261,"141.csv","","31.09999942779541","resources/trios/L1T2A2.jpg","37","restless",0.4,0.6,0.3,0.182084147408396,"true"
"image-keyboard-response",135,137923,"0.0-3.41-1.41","j254fx16vbf96l3",261,"141.csv","","null","resources/maskTrios/L1BB.jpg","null","",NA,NA,NA,NA,""
"image-keyboard-response",136,139132,"0.0-3.41-2.41","j254fx16vbf96l3",261,"141.csv","","null","resources/images/coin2.png","null","",NA,NA,NA,NA,""
"image-keyboard-response",137,139387,"0.0-3.42-0.42","j254fx16vbf96l3",261,"141.csv","","251.5","resources/trios/L1T2A2.jpg","38","restless",0.4,0.6,0.3,0.00156941896544427,"true"
"image-keyboard-response",138,139806,"0.0-3.42-1.42","j254fx16vbf96l3",261,"141.csv","","null","resources/maskTrios/BT2B.jpg","null","",NA,NA,NA,NA,""
"image-keyboard-response",139,141018,"0.0-3.42-2.42","j254fx16vbf96l3",261,"141.csv","","null","resources/images/coin2.png","null","",NA,NA,NA,NA,""
"image-keyboard-response",140,141347,"0.0-3.43-0.43","j254fx16vbf96l3",261,"141.csv","","326.5","resources/trios/L2T2A2.jpg","38","restless",0.4,0.6,0.3,0.786181969610263,"false"
"image-keyboard-response",141,141759,"0.0-3.43-1.43","j254fx16vbf96l3",261,"141.csv","","null","resources/maskTrios/BT2B.jpg","null","",NA,NA,NA,NA,""
"image-keyboard-response",142,142980,"0.0-3.43-2.43","j254fx16vbf96l3",261,"141.csv","","null","resources/images/fishbone.png","null","",NA,NA,NA,NA,""
"image-keyboard-response",143,143134,"0.0-3.44-0.44","j254fx16vbf96l3",261,"141.csv","","149.60000038146973","resources/trios/L1T2A1.jpg","37","restless",0.4,0.6,0.3,0.371248927340252,"true"
"image-keyboard-response",144,143540,"0.0-3.44-1.44","j254fx16vbf96l3",261,"141.csv","","null","resources/maskTrios/L1BB.jpg","null","",NA,NA,NA,NA,""
"image-keyboard-response",145,144760,"0.0-3.44-2.44","j254fx16vbf96l3",261,"141.csv","","null","resources/images/coin2.png","null","",NA,NA,NA,NA,""
"image-keyboard-response",146,144987,"0.0-3.45-0.45","j254fx16vbf96l3",261,"141.csv","","222.19999980926514","resources/trios/L1T2A1.jpg","37","restless",0.4,0.6,0.3,0.167579211301486,"true"
"image-keyboard-response",147,145407,"0.0-3.45-1.45","j254fx16vbf96l3",261,"141.csv","","null","resources/maskTrios/L1BB.jpg","null","",NA,NA,NA,NA,""
"image-keyboard-response",148,146621,"0.0-3.45-2.45","j254fx16vbf96l3",261,"141.csv","","null","resources/images/coin2.png","null","",NA,NA,NA,NA,""
"image-keyboard-response",149,146762,"0.0-3.46-0.46","j254fx16vbf96l3",261,"141.csv","","137","resources/trios/L1T4A1.jpg","37","restless",0.4,0.6,0.3,0.379005927809491,"true"
"image-keyboard-response",150,147183,"0.0-3.46-1.46","j254fx16vbf96l3",261,"141.csv","","null","resources/maskTrios/L1BB.jpg","null","",NA,NA,NA,NA,""
"image-keyboard-response",151,148410,"0.0-3.46-2.46","j254fx16vbf96l3",261,"141.csv","","null","resources/images/coin2.png","null","",NA,NA,NA,NA,""
"image-keyboard-response",152,149946,"0.0-3.47-0.47","j254fx16vbf96l3",261,"141.csv","","1532.3999996185303","resources/trios/L2T2A1.jpg","37","restless",0.3,0.6,0.3,0.889051691441583,"false"
"image-keyboard-response",153,150367,"0.0-3.47-1.47","j254fx16vbf96l3",261,"141.csv","","null","resources/maskTrios/L2BB.jpg","null","",NA,NA,NA,NA,""
"image-keyboard-response",154,151576,"0.0-3.47-2.47","j254fx16vbf96l3",261,"141.csv","","null","resources/images/fishbone.png","null","",NA,NA,NA,NA,""
"image-keyboard-response",155,152022,"0.0-3.48-0.48","j254fx16vbf96l3",261,"141.csv","","442","resources/trios/L1T2A1.jpg","38","restless",0.3,0.6,0.3,0.734766534440131,"false"
"image-keyboard-response",156,152443,"0.0-3.48-1.48","j254fx16vbf96l3",261,"141.csv","","null","resources/maskTrios/BT2B.jpg","null","",NA,NA,NA,NA,""
"image-keyboard-response",157,153651,"0.0-3.48-2.48","j254fx16vbf96l3",261,"141.csv","","null","resources/images/fishbone.png","null","",NA,NA,NA,NA,""
"image-keyboard-response",158,153754,"0.0-3.49-0.49","j254fx16vbf96l3",261,"141.csv","","99.5","resources/trios/L1T4A2.jpg","39","restless",0.3,0.6,0.3,0.683808840187177,"false"
"image-keyboard-response",159,154166,"0.0-3.49-1.49","j254fx16vbf96l3",261,"141.csv","","null","resources/maskTrios/BBA2.jpg","null","",NA,NA,NA,NA,""
"image-keyboard-response",160,155391,"0.0-3.49-2.49","j254fx16vbf96l3",261,"141.csv","","null","resources/images/fishbone.png","null","",NA,NA,NA,NA,""
"image-keyboard-response",161,155624,"0.0-3.50-0.50","j254fx16vbf96l3",261,"141.csv","","228.9000005722046","resources/trios/L2T2A1.jpg","37","restless",0.3,0.6,0.3,0.941231116930878,"false"
"image-keyboard-response",162,156035,"0.0-3.50-1.50","j254fx16vbf96l3",261,"141.csv","","null","resources/maskTrios/L2BB.jpg","null","",NA,NA,NA,NA,""
"image-keyboard-response",163,157258,"0.0-3.50-2.50","j254fx16vbf96l3",261,"141.csv","","null","resources/images/fishbone.png","null","",NA,NA,NA,NA,""
"image-keyboard-response",164,157471,"0.0-3.51-0.51","j254fx16vbf96l3",261,"141.csv","","209.79999923706055","resources/trios/L1T4A1.jpg","39","restless",0.3,0.5,0.3,0.265923001418874,"true"
"image-keyboard-response",165,157888,"0.0-3.51-1.51","j254fx16vbf96l3",261,"141.csv","","null","resources/maskTrios/BBA1.jpg","null","",NA,NA,NA,NA,""
"image-keyboard-response",166,159114,"0.0-3.51-2.51","j254fx16vbf96l3",261,"141.csv","","null","resources/images/coin2.png","null","",NA,NA,NA,NA,""
"image-keyboard-response",167,159607,"0.0-3.52-0.52","j254fx16vbf96l3",261,"141.csv","","489.29999923706055","resources/trios/L1T4A2.jpg","37","restless",0.3,0.5,0.3,0.654767759861592,"false"
"image-keyboard-response",168,160029,"0.0-3.52-1.52","j254fx16vbf96l3",261,"141.csv","","null","resources/maskTrios/L1BB.jpg","null","",NA,NA,NA,NA,""
"image-keyboard-response",169,161238,"0.0-3.52-2.52","j254fx16vbf96l3",261,"141.csv","","null","resources/images/fishbone.png","null","",NA,NA,NA,NA,""
"image-keyboard-response",170,161470,"0.0-3.53-0.53","j254fx16vbf96l3",261,"141.csv","","228.69999980926514","resources/trios/L2T2A1.jpg","39","restless",0.3,0.5,0.3,0.621858666019081,"false"
"image-keyboard-response",171,161890,"0.0-3.53-1.53","j254fx16vbf96l3",261,"141.csv","","null","resources/maskTrios/BBA1.jpg","null","",NA,NA,NA,NA,""
"image-keyboard-response",172,163109,"0.0-3.53-2.53","j254fx16vbf96l3",261,"141.csv","","null","resources/images/fishbone.png","null","",NA,NA,NA,NA,""
"image-keyboard-response",173,163539,"0.0-3.54-0.54","j254fx16vbf96l3",261,"141.csv","","425.9000005722046","resources/trios/L1T2A1.jpg","38","restless",0.3,0.5,0.2,0.786025698166069,"false"
"image-keyboard-response",174,163953,"0.0-3.54-1.54","j254fx16vbf96l3",261,"141.csv","","null","resources/maskTrios/BT2B.jpg","null","",NA,NA,NA,NA,""
"image-keyboard-response",175,165161,"0.0-3.54-2.54","j254fx16vbf96l3",261,"141.csv","","null","resources/images/fishbone.png","null","",NA,NA,NA,NA,""
"image-keyboard-response",176,165308,"0.0-3.55-0.55","j254fx16vbf96l3",261,"141.csv","","143.89999961853027","resources/trios/L2T4A1.jpg","39","restless",0.3,0.5,0.2,0.000105998035295318,"true"
"image-keyboard-response",177,165716,"0.0-3.55-1.55","j254fx16vbf96l3",261,"141.csv","","null","resources/maskTrios/BBA1.jpg","null","",NA,NA,NA,NA,""
"image-keyboard-response",178,166930,"0.0-3.55-2.55","j254fx16vbf96l3",261,"141.csv","","null","resources/images/coin2.png","null","",NA,NA,NA,NA,""
"image-keyboard-response",179,167248,"0.0-3.56-0.56","j254fx16vbf96l3",261,"141.csv","","315.1000003814697","resources/trios/L2T2A2.jpg","39","restless",0.3,0.5,0.2,0.629337094927935,"false"
"image-keyboard-response",180,167671,"0.0-3.56-1.56","j254fx16vbf96l3",261,"141.csv","","null","resources/maskTrios/BBA2.jpg","null","",NA,NA,NA,NA,""
"image-keyboard-response",181,168885,"0.0-3.56-2.56","j254fx16vbf96l3",261,"141.csv","","null","resources/images/fishbone.png","null","",NA,NA,NA,NA,""
"image-keyboard-response",182,169121,"0.0-3.57-0.57","j254fx16vbf96l3",261,"141.csv","","233.19999980926514","resources/trios/L2T4A1.jpg","37","restless",0.3,0.5,0.2,0.450666336044745,"false"
"image-keyboard-response",183,169542,"0.0-3.57-1.57","j254fx16vbf96l3",261,"141.csv","","null","resources/maskTrios/L2BB.jpg","null","",NA,NA,NA,NA,""
"image-keyboard-response",184,170764,"0.0-3.57-2.57","j254fx16vbf96l3",261,"141.csv","","null","resources/images/fishbone.png","null","",NA,NA,NA,NA,""
"image-keyboard-response",185,170801,"0.0-3.58-0.58","j254fx16vbf96l3",261,"141.csv","","32.19999980926514","resources/trios/L1T4A2.jpg","37","restless",0.3,0.5,0.2,0.419824042756713,"false"
"image-keyboard-response",186,171211,"0.0-3.58-1.58","j254fx16vbf96l3",261,"141.csv","","null","resources/maskTrios/L1BB.jpg","null","",NA,NA,NA,NA,""
"image-keyboard-response",187,172429,"0.0-3.58-2.58","j254fx16vbf96l3",261,"141.csv","","null","resources/images/fishbone.png","null","",NA,NA,NA,NA,""
"image-keyboard-response",188,172598,"0.0-3.59-0.59","j254fx16vbf96l3",261,"141.csv","","165","resources/trios/L1T4A2.jpg","38","restless",0.3,0.5,0.2,0.938648322113441,"false"
"image-keyboard-response",189,173021,"0.0-3.59-1.59","j254fx16vbf96l3",261,"141.csv","","null","resources/maskTrios/BT4B.jpg","null","",NA,NA,NA,NA,""
"image-keyboard-response",190,174226,"0.0-3.59-2.59","j254fx16vbf96l3",261,"141.csv","","null","resources/images/fishbone.png","null","",NA,NA,NA,NA,""
"image-keyboard-response",191,174293,"0.0-3.60-0.60","j254fx16vbf96l3",261,"141.csv","","63","resources/trios/L1T4A1.jpg","39","restless",0.3,0.5,0.2,0.32651553866643,"false"
"image-keyboard-response",192,174705,"0.0-3.60-1.60","j254fx16vbf96l3",261,"141.csv","","null","resources/maskTrios/BBA1.jpg","null","",NA,NA,NA,NA,""
"image-keyboard-response",193,175926,"0.0-3.60-2.60","j254fx16vbf96l3",261,"141.csv","","null","resources/images/fishbone.png","null","",NA,NA,NA,NA,""
"image-keyboard-response",194,176130,"0.0-3.61-0.61","j254fx16vbf96l3",261,"141.csv","","200.39999961853027","resources/trios/L1T4A2.jpg","39","restless",0.3,0.5,0.3,0.436994728576384,"false"
"image-keyboard-response",195,176540,"0.0-3.61-1.61","j254fx16vbf96l3",261,"141.csv","","null","resources/maskTrios/BBA2.jpg","null","",NA,NA,NA,NA,""
"image-keyboard-response",196,177758,"0.0-3.61-2.61","j254fx16vbf96l3",261,"141.csv","","null","resources/images/fishbone.png","null","",NA,NA,NA,NA,""
"image-keyboard-response",197,177890,"0.0-3.62-0.62","j254fx16vbf96l3",261,"141.csv","","128.19999980926514","resources/trios/L2T2A1.jpg","37","restless",0.3,0.5,0.3,0.429728585866414,"false"
"image-keyboard-response",198,178305,"0.0-3.62-1.62","j254fx16vbf96l3",261,"141.csv","","null","resources/maskTrios/L2BB.jpg","null","",NA,NA,NA,NA,""
"image-keyboard-response",199,179523,"0.0-3.62-2.62","j254fx16vbf96l3",261,"141.csv","","null","resources/images/fishbone.png","null","",NA,NA,NA,NA,""
"image-keyboard-response",200,179562,"0.0-3.63-0.63","j254fx16vbf96l3",261,"141.csv","","34.30000019073486","resources/trios/L1T2A1.jpg","38","restless",0.3,0.5,0.3,0.0682014609734092,"true"
"image-keyboard-response",201,179971,"0.0-3.63-1.63","j254fx16vbf96l3",261,"141.csv","","null","resources/maskTrios/BT2B.jpg","null","",NA,NA,NA,NA,""
"image-keyboard-response",202,181194,"0.0-3.63-2.63","j254fx16vbf96l3",261,"141.csv","","null","resources/images/coin2.png","null","",NA,NA,NA,NA,""
"image-keyboard-response",203,181429,"0.0-3.64-0.64","j254fx16vbf96l3",261,"141.csv","","231.9000005722046","resources/trios/L2T4A2.jpg","39","restless",0.3,0.5,0.3,0.709927371741418,"false"
"image-keyboard-response",204,181844,"0.0-3.64-1.64","j254fx16vbf96l3",261,"141.csv","","null","resources/maskTrios/BBA2.jpg","null","",NA,NA,NA,NA,""
"image-keyboard-response",205,183053,"0.0-3.64-2.64","j254fx16vbf96l3",261,"141.csv","","null","resources/images/fishbone.png","null","",NA,NA,NA,NA,""
"image-keyboard-response",206,183108,"0.0-3.65-0.65","j254fx16vbf96l3",261,"141.csv","","50.5","resources/trios/L1T2A2.jpg","38","restless",0.3,0.5,0.3,0.130320502105022,"true"
"image-keyboard-response",207,183524,"0.0-3.65-1.65","j254fx16vbf96l3",261,"141.csv","","null","resources/maskTrios/BT2B.jpg","null","",NA,NA,NA,NA,""
"image-keyboard-response",208,184749,"0.0-3.65-2.65","j254fx16vbf96l3",261,"141.csv","","null","resources/images/coin2.png","null","",NA,NA,NA,NA,""
"image-keyboard-response",209,184873,"0.0-3.66-0.66","j254fx16vbf96l3",261,"141.csv","","119.59999942779541","resources/trios/L2T4A2.jpg","38","restless",0.3,0.5,0.3,0.805565732345694,"false"
"image-keyboard-response",210,185292,"0.0-3.66-1.66","j254fx16vbf96l3",261,"141.csv","","null","resources/maskTrios/BT4B.jpg","null","",NA,NA,NA,NA,""
"image-keyboard-response",211,186505,"0.0-3.66-2.66","j254fx16vbf96l3",261,"141.csv","","null","resources/images/fishbone.png","null","",NA,NA,NA,NA,""
"image-keyboard-response",212,186742,"0.0-3.67-0.67","j254fx16vbf96l3",261,"141.csv","","232.9000005722046","resources/trios/L1T4A2.jpg","37","restless",0.3,0.5,0.4,0.875993191229887,"false"
"image-keyboard-response",213,187154,"0.0-3.67-1.67","j254fx16vbf96l3",261,"141.csv","","null","resources/maskTrios/L1BB.jpg","null","",NA,NA,NA,NA,""
"image-keyboard-response",214,188374,"0.0-3.67-2.67","j254fx16vbf96l3",261,"141.csv","","null","resources/images/fishbone.png","null","",NA,NA,NA,NA,""
"image-keyboard-response",215,188681,"0.0-3.68-0.68","j254fx16vbf96l3",261,"141.csv","","303.29999923706055","resources/trios/L1T2A1.jpg","39","restless",0.3,0.5,0.4,0.223826876337717,"true"
"image-keyboard-response",216,189105,"0.0-3.68-1.68","j254fx16vbf96l3",261,"141.csv","","null","resources/maskTrios/BBA1.jpg","null","",NA,NA,NA,NA,""
"image-keyboard-response",217,190331,"0.0-3.68-2.68","j254fx16vbf96l3",261,"141.csv","","null","resources/images/coin2.png","null","",NA,NA,NA,NA,""
"image-keyboard-response",218,190600,"0.0-3.69-0.69","j254fx16vbf96l3",261,"141.csv","","265.69999980926514","resources/trios/L2T4A2.jpg","39","restless",0.2,0.6,0.4,0.568280872398009,"false"
"image-keyboard-response",219,191010,"0.0-3.69-1.69","j254fx16vbf96l3",261,"141.csv","","null","resources/maskTrios/BBA2.jpg","null","",NA,NA,NA,NA,""
"image-keyboard-response",220,192233,"0.0-3.69-2.69","j254fx16vbf96l3",261,"141.csv","","null","resources/images/fishbone.png","null","",NA,NA,NA,NA,""
"image-keyboard-response",221,192622,"0.0-3.70-0.70","j254fx16vbf96l3",261,"141.csv","","386.30000019073486","resources/trios/L2T4A2.jpg","37","restless",0.2,0.6,0.4,0.219441945288918,"false"
"image-keyboard-response",222,193040,"0.0-3.70-1.70","j254fx16vbf96l3",261,"141.csv","","null","resources/maskTrios/L2BB.jpg","null","",NA,NA,NA,NA,""
"image-keyboard-response",223,194251,"0.0-3.70-2.70","j254fx16vbf96l3",261,"141.csv","","null","resources/images/fishbone.png","null","",NA,NA,NA,NA,""
"image-keyboard-response",224,194754,"0.0-3.71-0.71","j254fx16vbf96l3",261,"141.csv","","499.20000076293945","resources/trios/L1T4A2.jpg","38","restless",0.2,0.6,0.4,0.0120079968107707,"true"
"image-keyboard-response",225,195169,"0.0-3.71-1.71","j254fx16vbf96l3",261,"141.csv","","null","resources/maskTrios/BT4B.jpg","null","",NA,NA,NA,NA,""
"image-keyboard-response",226,196397,"0.0-3.71-2.71","j254fx16vbf96l3",261,"141.csv","","null","resources/images/coin2.png","null","",NA,NA,NA,NA,""
"image-keyboard-response",227,196789,"0.0-3.72-0.72","j254fx16vbf96l3",261,"141.csv","","387.9000005722046","resources/trios/L1T4A2.jpg","38","restless",0.2,0.6,0.4,0.970704399143143,"false"
"image-keyboard-response",228,197195,"0.0-3.72-1.72","j254fx16vbf96l3",261,"141.csv","","null","resources/maskTrios/BT4B.jpg","null","",NA,NA,NA,NA,""
"image-keyboard-response",229,198415,"0.0-3.72-2.72","j254fx16vbf96l3",261,"141.csv","","null","resources/images/fishbone.png","null","",NA,NA,NA,NA,""
"image-keyboard-response",230,198478,"0.0-3.73-0.73","j254fx16vbf96l3",261,"141.csv","","59.29999923706055","resources/trios/L2T2A2.jpg","39","restless",0.2,0.6,0.4,0.520012374673783,"false"
"image-keyboard-response",231,198892,"0.0-3.73-1.73","j254fx16vbf96l3",261,"141.csv","","null","resources/maskTrios/BBA2.jpg","null","",NA,NA,NA,NA,""
"image-keyboard-response",232,200110,"0.0-3.73-2.73","j254fx16vbf96l3",261,"141.csv","","null","resources/images/fishbone.png","null","",NA,NA,NA,NA,""
"image-keyboard-response",233,200151,"0.0-3.74-0.74","j254fx16vbf96l3",261,"141.csv","","37","resources/trios/L2T2A2.jpg","37","restless",0.2,0.6,0.4,0.0680551615409897,"true"
"image-keyboard-response",234,200574,"0.0-3.74-1.74","j254fx16vbf96l3",261,"141.csv","","null","resources/maskTrios/L2BB.jpg","null","",NA,NA,NA,NA,""
"image-keyboard-response",235,201792,"0.0-3.74-2.74","j254fx16vbf96l3",261,"141.csv","","null","resources/images/coin2.png","null","",NA,NA,NA,NA,""
"image-keyboard-response",236,202128,"0.0-3.75-0.75","j254fx16vbf96l3",261,"141.csv","","332.69999980926514","resources/trios/L1T4A1.jpg","37","restless",0.2,0.6,0.5,0.886968672951623,"false"
"image-keyboard-response",237,202560,"0.0-3.75-1.75","j254fx16vbf96l3",261,"141.csv","","null","resources/maskTrios/L1BB.jpg","null","",NA,NA,NA,NA,""
"image-keyboard-response",238,203771,"0.0-3.75-2.75","j254fx16vbf96l3",261,"141.csv","","null","resources/images/fishbone.png","null","",NA,NA,NA,NA,""
"image-keyboard-response",239,203995,"0.0-3.76-0.76","j254fx16vbf96l3",261,"141.csv","","219.39999961853027","resources/trios/L1T2A2.jpg","39","restless",0.2,0.6,0.5,0.140151840425265,"true"
"image-keyboard-response",240,204425,"0.0-3.76-1.76","j254fx16vbf96l3",261,"141.csv","","null","resources/maskTrios/BBA2.jpg","null","",NA,NA,NA,NA,""
"image-keyboard-response",241,205646,"0.0-3.76-2.76","j254fx16vbf96l3",261,"141.csv","","null","resources/images/coin2.png","null","",NA,NA,NA,NA,""
"image-keyboard-response",242,205894,"0.0-3.77-0.77","j254fx16vbf96l3",261,"141.csv","","244.5","resources/trios/L1T4A2.jpg","38","restless",0.2,0.5,0.5,0.369939593349882,"true"
"image-keyboard-response",243,206305,"0.0-3.77-1.77","j254fx16vbf96l3",261,"141.csv","","null","resources/maskTrios/BT4B.jpg","null","",NA,NA,NA,NA,""
"image-keyboard-response",244,207532,"0.0-3.77-2.77","j254fx16vbf96l3",261,"141.csv","","null","resources/images/coin2.png","null","",NA,NA,NA,NA,""
"image-keyboard-response",245,208035,"0.0-3.78-0.78","j254fx16vbf96l3",261,"141.csv","","498.6000003814697","resources/trios/L2T2A1.jpg","37","restless",0.3,0.5,0.5,0.852317470596802,"false"
"image-keyboard-response",246,208443,"0.0-3.78-1.78","j254fx16vbf96l3",261,"141.csv","","null","resources/maskTrios/L2BB.jpg","null","",NA,NA,NA,NA,""
"image-keyboard-response",247,209650,"0.0-3.78-2.78","j254fx16vbf96l3",261,"141.csv","","null","resources/images/fishbone.png","null","",NA,NA,NA,NA,""
"image-keyboard-response",248,209925,"0.0-3.79-0.79","j254fx16vbf96l3",261,"141.csv","","271.30000019073486","resources/trios/L2T2A1.jpg","39","restless",0.3,0.5,0.5,0.714437699331777,"false"
"image-keyboard-response",249,210342,"0.0-3.79-1.79","j254fx16vbf96l3",261,"141.csv","","null","resources/maskTrios/BBA1.jpg","null","",NA,NA,NA,NA,""
"image-keyboard-response",250,211564,"0.0-3.79-2.79","j254fx16vbf96l3",261,"141.csv","","null","resources/images/fishbone.png","null","",NA,NA,NA,NA,""
"image-keyboard-response",251,212540,"0.0-3.80-0.80","j254fx16vbf96l3",261,"141.csv","","972.0999994277954","resources/trios/L2T2A1.jpg","38","restless",0.4,0.5,0.5,0.388535069620743,"true"
"image-keyboard-response",252,212949,"0.0-3.80-1.80","j254fx16vbf96l3",261,"141.csv","","null","resources/maskTrios/BT2B.jpg","null","",NA,NA,NA,NA,""
"image-keyboard-response",253,214156,"0.0-3.80-2.80","j254fx16vbf96l3",261,"141.csv","","null","resources/images/coin2.png","null","",NA,NA,NA,NA,""
"image-keyboard-response",254,214573,"0.0-3.81-0.81","j254fx16vbf96l3",261,"141.csv","","412.19999980926514","resources/trios/L2T2A2.jpg","39","restless",0.4,0.5,0.5,0.827167526693949,"false"
"image-keyboard-response",255,214980,"0.0-3.81-1.81","j254fx16vbf96l3",261,"141.csv","","null","resources/maskTrios/BBA2.jpg","null","",NA,NA,NA,NA,""
"image-keyboard-response",256,216196,"0.0-3.81-2.81","j254fx16vbf96l3",261,"141.csv","","null","resources/images/fishbone.png","null","",NA,NA,NA,NA,""
"image-keyboard-response",257,216675,"0.0-3.82-0.82","j254fx16vbf96l3",261,"141.csv","","475.30000019073486","resources/trios/L2T4A1.jpg","38","restless",0.4,0.5,0.6,0.866472359267245,"false"
"image-keyboard-response",258,217100,"0.0-3.82-1.82","j254fx16vbf96l3",261,"141.csv","","null","resources/maskTrios/BT4B.jpg","null","",NA,NA,NA,NA,""
"image-keyboard-response",259,218315,"0.0-3.82-2.82","j254fx16vbf96l3",261,"141.csv","","null","resources/images/fishbone.png","null","",NA,NA,NA,NA,""
"image-keyboard-response",260,218340,"0.0-3.83-0.83","j254fx16vbf96l3",261,"141.csv","","20.800000190734863","resources/trios/L2T2A1.jpg","37","restless",0.3,0.5,0.6,0.314178726482399,"false"
"image-keyboard-response",261,218747,"0.0-3.83-1.83","j254fx16vbf96l3",261,"141.csv","","null","resources/maskTrios/L2BB.jpg","null","",NA,NA,NA,NA,""
"image-keyboard-response",262,219963,"0.0-3.83-2.83","j254fx16vbf96l3",261,"141.csv","","null","resources/images/fishbone.png","null","",NA,NA,NA,NA,""
"image-keyboard-response",263,220302,"0.0-3.84-0.84","j254fx16vbf96l3",261,"141.csv","","336.5999994277954","resources/trios/L2T4A1.jpg","38","restless",0.3,0.5,0.7,0.240359807896359,"true"
"image-keyboard-response",264,220717,"0.0-3.84-1.84","j254fx16vbf96l3",261,"141.csv","","null","resources/maskTrios/BT4B.jpg","null","",NA,NA,NA,NA,""
"image-keyboard-response",265,221930,"0.0-3.84-2.84","j254fx16vbf96l3",261,"141.csv","","null","resources/images/coin2.png","null","",NA,NA,NA,NA,""
"image-keyboard-response",266,222168,"0.0-3.85-0.85","j254fx16vbf96l3",261,"141.csv","","233.9000005722046","resources/trios/L1T2A2.jpg","38","restless",0.4,0.5,0.6,0.979213090694437,"false"
"image-keyboard-response",267,222594,"0.0-3.85-1.85","j254fx16vbf96l3",261,"141.csv","","null","resources/maskTrios/BT2B.jpg","null","",NA,NA,NA,NA,""
"image-keyboard-response",268,223821,"0.0-3.85-2.85","j254fx16vbf96l3",261,"141.csv","","null","resources/images/fishbone.png","null","",NA,NA,NA,NA,""
"image-keyboard-response",269,224346,"0.0-3.86-0.86","j254fx16vbf96l3",261,"141.csv","","521","resources/trios/L1T4A2.jpg","39","restless",0.4,0.5,0.6,0.96861973594515,"false"
"image-keyboard-response",270,224765,"0.0-3.86-1.86","j254fx16vbf96l3",261,"141.csv","","null","resources/maskTrios/BBA2.jpg","null","",NA,NA,NA,NA,""
"image-keyboard-response",271,225973,"0.0-3.86-2.86","j254fx16vbf96l3",261,"141.csv","","null","resources/images/fishbone.png","null","",NA,NA,NA,NA,""
"image-keyboard-response",272,226098,"0.0-3.87-0.87","j254fx16vbf96l3",261,"141.csv","","120.59999942779541","resources/trios/L2T4A1.jpg","37","restless",0.4,0.5,0.6,0.616808246279394,"false"
"image-keyboard-response",273,226509,"0.0-3.87-1.87","j254fx16vbf96l3",261,"141.csv","","null","resources/maskTrios/L2BB.jpg","null","",NA,NA,NA,NA,""
"image-keyboard-response",274,227735,"0.0-3.87-2.87","j254fx16vbf96l3",261,"141.csv","","null","resources/images/fishbone.png","null","",NA,NA,NA,NA,""
"image-keyboard-response",275,227789,"0.0-3.88-0.88","j254fx16vbf96l3",261,"141.csv","","51.19999980926514","resources/trios/L1T2A1.jpg","38","restless",0.4,0.5,0.6,0.506377126306206,"false"
"image-keyboard-response",276,228202,"0.0-3.88-1.88","j254fx16vbf96l3",261,"141.csv","","null","resources/maskTrios/BT2B.jpg","null","",NA,NA,NA,NA,""
"image-keyboard-response",277,229418,"0.0-3.88-2.88","j254fx16vbf96l3",261,"141.csv","","null","resources/images/fishbone.png","null","",NA,NA,NA,NA,""
"image-keyboard-response",278,229766,"0.0-3.89-0.89","j254fx16vbf96l3",261,"141.csv","","344.1000003814697","resources/trios/L1T4A2.jpg","38","restless",0.4,0.5,0.6,0.695747064978454,"false"
"image-keyboard-response",279,230187,"0.0-3.89-1.89","j254fx16vbf96l3",261,"141.csv","","null","resources/maskTrios/BT4B.jpg","null","",NA,NA,NA,NA,""
"image-keyboard-response",280,231412,"0.0-3.89-2.89","j254fx16vbf96l3",261,"141.csv","","null","resources/images/fishbone.png","null","",NA,NA,NA,NA,""
"image-keyboard-response",281,231519,"0.0-3.90-0.90","j254fx16vbf96l3",261,"141.csv","","103.20000076293945","resources/trios/L2T2A2.jpg","39","restless",0.3,0.5,0.6,0.327818681605366,"true"
"image-keyboard-response",282,231931,"0.0-3.90-1.90","j254fx16vbf96l3",261,"141.csv","","null","resources/maskTrios/BBA2.jpg","null","",NA,NA,NA,NA,""
"image-keyboard-response",283,233153,"0.0-3.90-2.90","j254fx16vbf96l3",261,"141.csv","","null","resources/images/coin2.png","null","",NA,NA,NA,NA,""
"image-keyboard-response",284,233412,"0.0-3.91-0.91","j254fx16vbf96l3",261,"141.csv","","255.80000019073486","resources/trios/L2T4A2.jpg","39","restless",0.3,0.5,0.6,0.88649290752774,"false"
"image-keyboard-response",285,233828,"0.0-3.91-1.91","j254fx16vbf96l3",261,"141.csv","","null","resources/maskTrios/BBA2.jpg","null","",NA,NA,NA,NA,""
"image-keyboard-response",286,235036,"0.0-3.91-2.91","j254fx16vbf96l3",261,"141.csv","","null","resources/images/fishbone.png","null","",NA,NA,NA,NA,""
"image-keyboard-response",287,235178,"0.0-3.92-0.92","j254fx16vbf96l3",261,"141.csv","","139.5","resources/trios/L1T4A1.jpg","37","restless",0.3,0.5,0.6,0.502008202741773,"false"
"image-keyboard-response",288,235590,"0.0-3.92-1.92","j254fx16vbf96l3",261,"141.csv","","null","resources/maskTrios/L1BB.jpg","null","",NA,NA,NA,NA,""
"image-keyboard-response",289,236798,"0.0-3.92-2.92","j254fx16vbf96l3",261,"141.csv","","null","resources/images/fishbone.png","null","",NA,NA,NA,NA,""
"image-keyboard-response",290,236841,"0.0-3.93-0.93","j254fx16vbf96l3",261,"141.csv","","39.60000038146973","resources/trios/L2T2A1.jpg","38","restless",0.3,0.5,0.6,0.137479186853468,"true"
"image-keyboard-response",291,237253,"0.0-3.93-1.93","j254fx16vbf96l3",261,"141.csv","","null","resources/maskTrios/BT2B.jpg","null","",NA,NA,NA,NA,""
"image-keyboard-response",292,238461,"0.0-3.93-2.93","j254fx16vbf96l3",261,"141.csv","","null","resources/images/coin2.png","null","",NA,NA,NA,NA,""
"image-keyboard-response",293,238774,"0.0-3.94-0.94","j254fx16vbf96l3",261,"141.csv","","308.5","resources/trios/L2T2A2.jpg","38","restless",0.3,0.5,0.6,0.554842376278986,"false"
"image-keyboard-response",294,239192,"0.0-3.94-1.94","j254fx16vbf96l3",261,"141.csv","","null","resources/maskTrios/BT2B.jpg","null","",NA,NA,NA,NA,""
"image-keyboard-response",295,240417,"0.0-3.94-2.94","j254fx16vbf96l3",261,"141.csv","","null","resources/images/fishbone.png","null","",NA,NA,NA,NA,""
"image-keyboard-response",296,240564,"0.0-3.95-0.95","j254fx16vbf96l3",261,"141.csv","","143.10000038146973","resources/trios/L1T2A1.jpg","39","restless",0.3,0.5,0.6,0.803232601995668,"false"
"image-keyboard-response",297,240981,"0.0-3.95-1.95","j254fx16vbf96l3",261,"141.csv","","null","resources/maskTrios/BBA1.jpg","null","",NA,NA,NA,NA,""
"image-keyboard-response",298,242196,"0.0-3.95-2.95","j254fx16vbf96l3",261,"141.csv","","null","resources/images/fishbone.png","null","",NA,NA,NA,NA,""
"image-keyboard-response",299,242495,"0.0-3.96-0.96","j254fx16vbf96l3",261,"141.csv","","295.6000003814697","resources/trios/L1T4A2.jpg","37","restless",0.3,0.5,0.6,0.725449578824003,"false"
"image-keyboard-response",300,242909,"0.0-3.96-1.96","j254fx16vbf96l3",261,"141.csv","","null","resources/maskTrios/L1BB.jpg","null","",NA,NA,NA,NA,""
"image-keyboard-response",301,244131,"0.0-3.96-2.96","j254fx16vbf96l3",261,"141.csv","","null","resources/images/fishbone.png","null","",NA,NA,NA,NA,""
"image-keyboard-response",302,244487,"0.0-3.97-0.97","j254fx16vbf96l3",261,"141.csv","","352","resources/trios/L1T2A1.jpg","38","restless",0.3,0.5,0.6,0.269129848962542,"true"
"image-keyboard-response",303,244901,"0.0-3.97-1.97","j254fx16vbf96l3",261,"141.csv","","null","resources/maskTrios/BT2B.jpg","null","",NA,NA,NA,NA,""
"image-keyboard-response",304,246113,"0.0-3.97-2.97","j254fx16vbf96l3",261,"141.csv","","null","resources/images/coin2.png","null","",NA,NA,NA,NA,""
"image-keyboard-response",305,246330,"0.0-3.98-0.98","j254fx16vbf96l3",261,"141.csv","","213","resources/trios/L1T2A2.jpg","38","restless",0.4,0.5,0.6,0.235924532186077,"true"
"image-keyboard-response",306,246749,"0.0-3.98-1.98","j254fx16vbf96l3",261,"141.csv","","null","resources/maskTrios/BT2B.jpg","null","",NA,NA,NA,NA,""
"image-keyboard-response",307,247958,"0.0-3.98-2.98","j254fx16vbf96l3",261,"141.csv","","null","resources/images/coin2.png","null","",NA,NA,NA,NA,""
"image-keyboard-response",308,248850,"0.0-3.99-0.99","j254fx16vbf96l3",261,"141.csv","","887.5","resources/trios/L1T4A1.jpg","38","restless",0.4,0.5,0.6,0.0358756006545671,"true"
"image-keyboard-response",309,249265,"0.0-3.99-1.99","j254fx16vbf96l3",261,"141.csv","","null","resources/maskTrios/BT4B.jpg","null","",NA,NA,NA,NA,""
"image-keyboard-response",310,250479,"0.0-3.99-2.99","j254fx16vbf96l3",261,"141.csv","","null","resources/images/coin2.png","null","",NA,NA,NA,NA,""
"image-keyboard-response",311,252605,"0.0-3.100-0.100","j254fx16vbf96l3",261,"141.csv","","2122","resources/trios/L1T4A2.jpg","38","restless",0.4,0.6,0.5,0.559573396336319,"true"
"image-keyboard-response",312,253023,"0.0-3.100-1.100","j254fx16vbf96l3",261,"141.csv","","null","resources/maskTrios/BT4B.jpg","null","",NA,NA,NA,NA,""
"image-keyboard-response",313,254247,"0.0-3.100-2.100","j254fx16vbf96l3",261,"141.csv","","null","resources/images/coin2.png","null","",NA,NA,NA,NA,""
"image-keyboard-response",314,254721,"0.0-3.101-0.101","j254fx16vbf96l3",261,"141.csv","","470.80000019073486","resources/trios/L2T4A2.jpg","39","restless",0.4,0.6,0.5,0.763439360448802,"false"
"image-keyboard-response",315,255133,"0.0-3.101-1.101","j254fx16vbf96l3",261,"141.csv","","null","resources/maskTrios/BBA2.jpg","null","",NA,NA,NA,NA,""
"image-keyboard-response",316,256347,"0.0-3.101-2.101","j254fx16vbf96l3",261,"141.csv","","null","resources/images/fishbone.png","null","",NA,NA,NA,NA,""
"image-keyboard-response",317,256641,"0.0-3.102-0.102","j254fx16vbf96l3",261,"141.csv","","290.80000019073486","resources/trios/L2T4A2.jpg","37","restless",0.4,0.6,0.5,0.594268628737444,"false"
"image-keyboard-response",318,257068,"0.0-3.102-1.102","j254fx16vbf96l3",261,"141.csv","","null","resources/maskTrios/L2BB.jpg","null","",NA,NA,NA,NA,""
"image-keyboard-response",319,258278,"0.0-3.102-2.102","j254fx16vbf96l3",261,"141.csv","","null","resources/images/fishbone.png","null","",NA,NA,NA,NA,""
"image-keyboard-response",320,258516,"0.0-3.103-0.103","j254fx16vbf96l3",261,"141.csv","","234.5999994277954","resources/trios/L1T2A1.jpg","38","restless",0.4,0.6,0.5,0.213839601723012,"true"
"image-keyboard-response",321,258936,"0.0-3.103-1.103","j254fx16vbf96l3",261,"141.csv","","null","resources/maskTrios/BT2B.jpg","null","",NA,NA,NA,NA,""
"image-keyboard-response",322,260149,"0.0-3.103-2.103","j254fx16vbf96l3",261,"141.csv","","null","resources/images/coin2.png","null","",NA,NA,NA,NA,""
"image-keyboard-response",323,260427,"0.0-3.104-0.104","j254fx16vbf96l3",261,"141.csv","","274.69999980926514","resources/trios/L2T4A1.jpg","38","restless",0.4,0.7,0.5,0.590260775015444,"true"
"image-keyboard-response",324,260846,"0.0-3.104-1.104","j254fx16vbf96l3",261,"141.csv","","null","resources/maskTrios/BT4B.jpg","null","",NA,NA,NA,NA,""
"image-keyboard-response",325,262058,"0.0-3.104-2.104","j254fx16vbf96l3",261,"141.csv","","null","resources/images/coin2.png","null","",NA,NA,NA,NA,""
"image-keyboard-response",326,263524,"0.0-3.105-0.105","j254fx16vbf96l3",261,"141.csv","","1463.1000003814697","resources/trios/L2T2A2.jpg","38","restless",0.4,0.7,0.5,0.588538946340965,"true"
"image-keyboard-response",327,263944,"0.0-3.105-1.105","j254fx16vbf96l3",261,"141.csv","","null","resources/maskTrios/BT2B.jpg","null","",NA,NA,NA,NA,""
"image-keyboard-response",328,265159,"0.0-3.105-2.105","j254fx16vbf96l3",261,"141.csv","","null","resources/images/coin2.png","null","",NA,NA,NA,NA,""
"image-keyboard-response",329,266061,"0.0-3.106-0.106","j254fx16vbf96l3",261,"141.csv","","898.2999992370605","resources/trios/L1T4A1.jpg","39","restless",0.4,0.7,0.5,0.748028427719637,"false"
"image-keyboard-response",330,266468,"0.0-3.106-1.106","j254fx16vbf96l3",261,"141.csv","","null","resources/maskTrios/BBA1.jpg","null","",NA,NA,NA,NA,""
"image-keyboard-response",331,267675,"0.0-3.106-2.106","j254fx16vbf96l3",261,"141.csv","","null","resources/images/fishbone.png","null","",NA,NA,NA,NA,""
"image-keyboard-response",332,268065,"0.0-3.107-0.107","j254fx16vbf96l3",261,"141.csv","","387.20000076293945","resources/trios/L2T4A1.jpg","37","restless",0.4,0.7,0.5,0.962177237832328,"false"
"image-keyboard-response",333,268487,"0.0-3.107-1.107","j254fx16vbf96l3",261,"141.csv","","null","resources/maskTrios/L2BB.jpg","null","",NA,NA,NA,NA,""
"image-keyboard-response",334,269700,"0.0-3.107-2.107","j254fx16vbf96l3",261,"141.csv","","null","resources/images/fishbone.png","null","",NA,NA,NA,NA,""
"image-keyboard-response",335,269937,"0.0-3.108-0.108","j254fx16vbf96l3",261,"141.csv","","234.30000019073486","resources/trios/L1T4A1.jpg","38","restless",0.4,0.7,0.5,0.900130674862459,"false"
"image-keyboard-response",336,270350,"0.0-3.108-1.108","j254fx16vbf96l3",261,"141.csv","","null","resources/maskTrios/BT4B.jpg","null","",NA,NA,NA,NA,""
"image-keyboard-response",337,271566,"0.0-3.108-2.108","j254fx16vbf96l3",261,"141.csv","","null","resources/images/fishbone.png","null","",NA,NA,NA,NA,""
"image-keyboard-response",338,272450,"0.0-3.109-0.109","j254fx16vbf96l3",261,"141.csv","","880.5","resources/trios/L2T4A2.jpg","38","restless",0.4,0.7,0.5,0.890591119816373,"false"
"image-keyboard-response",339,272886,"0.0-3.109-1.109","j254fx16vbf96l3",261,"141.csv","","null","resources/maskTrios/BT4B.jpg","null","",NA,NA,NA,NA,""
"image-keyboard-response",340,274098,"0.0-3.109-2.109","j254fx16vbf96l3",261,"141.csv","","null","resources/images/fishbone.png","null","",NA,NA,NA,NA,""
"image-keyboard-response",341,274322,"0.0-3.110-0.110","j254fx16vbf96l3",261,"141.csv","","220.89999961853027","resources/trios/L1T4A2.jpg","39","restless",0.4,0.7,0.5,0.61090245485459,"false"
"image-keyboard-response",342,274737,"0.0-3.110-1.110","j254fx16vbf96l3",261,"141.csv","","null","resources/maskTrios/BBA2.jpg","null","",NA,NA,NA,NA,""
"image-keyboard-response",343,275949,"0.0-3.110-2.110","j254fx16vbf96l3",261,"141.csv","","null","resources/images/fishbone.png","null","",NA,NA,NA,NA,""
"image-keyboard-response",344,276294,"0.0-3.111-0.111","j254fx16vbf96l3",261,"141.csv","","341.19999980926514","resources/trios/L1T4A2.jpg","39","restless",0.5,0.7,0.5,0.865773093810186,"false"
"image-keyboard-response",345,276700,"0.0-3.111-1.111","j254fx16vbf96l3",261,"141.csv","","null","resources/maskTrios/BBA2.jpg","null","",NA,NA,NA,NA,""
"image-keyboard-response",346,277921,"0.0-3.111-2.111","j254fx16vbf96l3",261,"141.csv","","null","resources/images/fishbone.png","null","",NA,NA,NA,NA,""
"image-keyboard-response",347,277942,"0.0-3.112-0.112","j254fx16vbf96l3",261,"141.csv","","17.300000190734863","resources/trios/L1T4A1.jpg","38","restless",0.5,0.7,0.5,0.857725200625549,"false"
"image-keyboard-response",348,278367,"0.0-3.112-1.112","j254fx16vbf96l3",261,"141.csv","","null","resources/maskTrios/BT4B.jpg","null","",NA,NA,NA,NA,""
"image-keyboard-response",349,279586,"0.0-3.112-2.112","j254fx16vbf96l3",261,"141.csv","","null","resources/images/fishbone.png","null","",NA,NA,NA,NA,""
"image-keyboard-response",350,279804,"0.0-3.113-0.113","j254fx16vbf96l3",261,"141.csv","","214.70000076293945","resources/trios/L1T2A2.jpg","38","restless",0.5,0.7,0.5,0.904517551653397,"false"
"image-keyboard-response",351,280228,"0.0-3.113-1.113","j254fx16vbf96l3",261,"141.csv","","null","resources/maskTrios/BT2B.jpg","null","",NA,NA,NA,NA,""
"image-keyboard-response",352,281449,"0.0-3.113-2.113","j254fx16vbf96l3",261,"141.csv","","null","resources/images/fishbone.png","null","",NA,NA,NA,NA,""
"image-keyboard-response",353,281656,"0.0-3.114-0.114","j254fx16vbf96l3",261,"141.csv","","204.39999961853027","resources/trios/L2T4A2.jpg","38","restless",0.4,0.8,0.4,0.288841176455261,"true"
"image-keyboard-response",354,282072,"0.0-3.114-1.114","j254fx16vbf96l3",261,"141.csv","","null","resources/maskTrios/BT4B.jpg","null","",NA,NA,NA,NA,""
"image-keyboard-response",355,283291,"0.0-3.114-2.114","j254fx16vbf96l3",261,"141.csv","","null","resources/images/coin2.png","null","",NA,NA,NA,NA,""
"image-keyboard-response",356,283487,"0.0-3.115-0.115","j254fx16vbf96l3",261,"141.csv","","193.69999980926514","resources/trios/L2T2A1.jpg","37","restless",0.4,0.9,0.4,0.908013230880727,"false"
"image-keyboard-response",357,283910,"0.0-3.115-1.115","j254fx16vbf96l3",261,"141.csv","","null","resources/maskTrios/L2BB.jpg","null","",NA,NA,NA,NA,""
"image-keyboard-response",358,285130,"0.0-3.115-2.115","j254fx16vbf96l3",261,"141.csv","","null","resources/images/fishbone.png","null","",NA,NA,NA,NA,""
"image-keyboard-response",359,285395,"0.0-3.116-0.116","j254fx16vbf96l3",261,"141.csv","","260.79999923706055","resources/trios/L1T4A1.jpg","37","restless",0.4,0.9,0.4,0.575347443674871,"false"
"image-keyboard-response",360,285813,"0.0-3.116-1.116","j254fx16vbf96l3",261,"141.csv","","null","resources/maskTrios/L1BB.jpg","null","",NA,NA,NA,NA,""
"image-keyboard-response",361,287028,"0.0-3.116-2.116","j254fx16vbf96l3",261,"141.csv","","null","resources/images/fishbone.png","null","",NA,NA,NA,NA,""
"image-keyboard-response",362,287210,"0.0-3.117-0.117","j254fx16vbf96l3",261,"141.csv","","179.60000038146973","resources/trios/L1T2A2.jpg","38","restless",0.4,0.9,0.4,0.980198910705087,"false"
"image-keyboard-response",363,287626,"0.0-3.117-1.117","j254fx16vbf96l3",261,"141.csv","","null","resources/maskTrios/BT2B.jpg","null","",NA,NA,NA,NA,""
"image-keyboard-response",364,288845,"0.0-3.117-2.117","j254fx16vbf96l3",261,"141.csv","","null","resources/images/fishbone.png","null","",NA,NA,NA,NA,""
"image-keyboard-response",365,289054,"0.0-3.118-0.118","j254fx16vbf96l3",261,"141.csv","","205.30000019073486","resources/trios/L2T4A2.jpg","39","restless",0.5,0.9,0.4,0.419123922083791,"false"
"image-keyboard-response",366,289465,"0.0-3.118-1.118","j254fx16vbf96l3",261,"141.csv","","null","resources/maskTrios/BBA2.jpg","null","",NA,NA,NA,NA,""
"image-keyboard-response",367,290685,"0.0-3.118-2.118","j254fx16vbf96l3",261,"141.csv","","null","resources/images/fishbone.png","null","",NA,NA,NA,NA,""
"image-keyboard-response",368,290835,"0.0-3.119-0.119","j254fx16vbf96l3",261,"141.csv","","146.5","resources/trios/L1T2A2.jpg","38","restless",0.5,0.9,0.4,0.839412648804223,"true"
"image-keyboard-response",369,291248,"0.0-3.119-1.119","j254fx16vbf96l3",261,"141.csv","","null","resources/maskTrios/BT2B.jpg","null","",NA,NA,NA,NA,""
"image-keyboard-response",370,292475,"0.0-3.119-2.119","j254fx16vbf96l3",261,"141.csv","","null","resources/images/coin2.png","null","",NA,NA,NA,NA,""
"image-keyboard-response",371,292635,"0.0-3.120-0.120","j254fx16vbf96l3",261,"141.csv","","155.69999980926514","resources/trios/L1T2A2.jpg","38","restless",0.5,0.9,0.4,0.921381133171819,"false"
"image-keyboard-response",372,293053,"0.0-3.120-1.120","j254fx16vbf96l3",261,"141.csv","","null","resources/maskTrios/BT2B.jpg","null","",NA,NA,NA,NA,""
"image-keyboard-response",373,294266,"0.0-3.120-2.120","j254fx16vbf96l3",261,"141.csv","","null","resources/images/fishbone.png","null","",NA,NA,NA,NA,""
"image-keyboard-response",374,294638,"0.0-3.121-0.121","j254fx16vbf96l3",261,"141.csv","","370.69999980926514","resources/trios/L1T2A1.jpg","38","restless",0.5,0.9,0.4,0.498395517909168,"true"
"image-keyboard-response",375,295057,"0.0-3.121-1.121","j254fx16vbf96l3",261,"141.csv","","null","resources/maskTrios/BT2B.jpg","null","",NA,NA,NA,NA,""
"image-keyboard-response",376,296265,"0.0-3.121-2.121","j254fx16vbf96l3",261,"141.csv","","null","resources/images/coin2.png","null","",NA,NA,NA,NA,""
"image-keyboard-response",377,296371,"0.0-3.122-0.122","j254fx16vbf96l3",261,"141.csv","","104.60000038146973","resources/trios/L2T4A1.jpg","38","restless",0.5,0.9,0.4,0.518582468745944,"true"
"image-keyboard-response",378,296781,"0.0-3.122-1.122","j254fx16vbf96l3",261,"141.csv","","null","resources/maskTrios/BT4B.jpg","null","",NA,NA,NA,NA,""
"image-keyboard-response",379,297999,"0.0-3.122-2.122","j254fx16vbf96l3",261,"141.csv","","null","resources/images/coin2.png","null","",NA,NA,NA,NA,""
"image-keyboard-response",380,298332,"0.0-3.123-0.123","j254fx16vbf96l3",261,"141.csv","","330.30000019073486","resources/trios/L1T2A1.jpg","38","restless",0.5,0.9,0.4,0.259628768012353,"true"
"image-keyboard-response",381,298749,"0.0-3.123-1.123","j254fx16vbf96l3",261,"141.csv","","null","resources/maskTrios/BT2B.jpg","null","",NA,NA,NA,NA,""
"image-keyboard-response",382,299961,"0.0-3.123-2.123","j254fx16vbf96l3",261,"141.csv","","null","resources/images/coin2.png","null","",NA,NA,NA,NA,""
"image-keyboard-response",383,301787,"0.0-3.124-0.124","j254fx16vbf96l3",261,"141.csv","","1823","resources/trios/L1T4A2.jpg","38","restless",0.5,0.9,0.4,0.0815482168795034,"true"
"image-keyboard-response",384,302204,"0.0-3.124-1.124","j254fx16vbf96l3",261,"141.csv","","null","resources/maskTrios/BT4B.jpg","null","",NA,NA,NA,NA,""
"image-keyboard-response",385,303426,"0.0-3.124-2.124","j254fx16vbf96l3",261,"141.csv","","null","resources/images/coin2.png","null","",NA,NA,NA,NA,""
"image-keyboard-response",386,303660,"0.0-3.125-0.125","j254fx16vbf96l3",261,"141.csv","","229.69999980926514","resources/trios/L1T2A1.jpg","37","restless",0.5,0.9,0.4,0.948329423754423,"false"
"image-keyboard-response",387,304073,"0.0-3.125-1.125","j254fx16vbf96l3",261,"141.csv","","null","resources/maskTrios/L1BB.jpg","null","",NA,NA,NA,NA,""
"image-keyboard-response",388,305284,"0.0-3.125-2.125","j254fx16vbf96l3",261,"141.csv","","null","resources/images/fishbone.png","null","",NA,NA,NA,NA,""
"image-keyboard-response",389,305589,"0.0-3.126-0.126","j254fx16vbf96l3",261,"141.csv","","303.69999980926514","resources/trios/L2T2A2.jpg","38","restless",0.5,0.9,0.4,0.0678832981788495,"true"
"image-keyboard-response",390,306010,"0.0-3.126-1.126","j254fx16vbf96l3",261,"141.csv","","null","resources/maskTrios/BT2B.jpg","null","",NA,NA,NA,NA,""
"image-keyboard-response",391,307231,"0.0-3.126-2.126","j254fx16vbf96l3",261,"141.csv","","null","resources/images/coin2.png","null","",NA,NA,NA,NA,""
"image-keyboard-response",392,307538,"0.0-3.127-0.127","j254fx16vbf96l3",261,"141.csv","","304.9000005722046","resources/trios/L1T4A2.jpg","39","restless",0.5,0.9,0.4,0.780722333660102,"false"
"image-keyboard-response",393,307961,"0.0-3.127-1.127","j254fx16vbf96l3",261,"141.csv","","null","resources/maskTrios/BBA2.jpg","null","",NA,NA,NA,NA,""
"image-keyboard-response",394,309179,"0.0-3.127-2.127","j254fx16vbf96l3",261,"141.csv","","null","resources/images/fishbone.png","null","",NA,NA,NA,NA,""
"image-keyboard-response",395,309316,"0.0-3.128-0.128","j254fx16vbf96l3",261,"141.csv","","133.39999961853027","resources/trios/L1T2A2.jpg","38","restless",0.5,0.9,0.5,0.0408121107887975,"true"
"image-keyboard-response",396,309723,"0.0-3.128-1.128","j254fx16vbf96l3",261,"141.csv","","null","resources/maskTrios/BT2B.jpg","null","",NA,NA,NA,NA,""
"image-keyboard-response",397,310931,"0.0-3.128-2.128","j254fx16vbf96l3",261,"141.csv","","null","resources/images/coin2.png","null","",NA,NA,NA,NA,""
"image-keyboard-response",398,311006,"0.0-3.129-0.129","j254fx16vbf96l3",261,"141.csv","","68","resources/trios/L2T2A1.jpg","38","restless",0.5,0.9,0.5,0.735670697012118,"true"
"image-keyboard-response",399,311428,"0.0-3.129-1.129","j254fx16vbf96l3",261,"141.csv","","null","resources/maskTrios/BT2B.jpg","null","",NA,NA,NA,NA,""
"image-keyboard-response",400,312642,"0.0-3.129-2.129","j254fx16vbf96l3",261,"141.csv","","null","resources/images/coin2.png","null","",NA,NA,NA,NA,""
"image-keyboard-response",401,312860,"0.0-3.130-0.130","j254fx16vbf96l3",261,"141.csv","","214.5","resources/trios/L1T2A2.jpg","38","restless",0.5,0.8,0.5,0.976786527127692,"false"
"image-keyboard-response",402,313269,"0.0-3.130-1.130","j254fx16vbf96l3",261,"141.csv","","null","resources/maskTrios/BT2B.jpg","null","",NA,NA,NA,NA,""
"image-keyboard-response",403,314486,"0.0-3.130-2.130","j254fx16vbf96l3",261,"141.csv","","null","resources/images/fishbone.png","null","",NA,NA,NA,NA,""
"image-keyboard-response",404,314574,"0.0-3.131-0.131","j254fx16vbf96l3",261,"141.csv","","83.89999961853027","resources/trios/L1T4A2.jpg","39","restless",0.5,0.8,0.5,0.669078840923969,"false"
"image-keyboard-response",405,314991,"0.0-3.131-1.131","j254fx16vbf96l3",261,"141.csv","","null","resources/maskTrios/BBA2.jpg","null","",NA,NA,NA,NA,""
"image-keyboard-response",406,316203,"0.0-3.131-2.131","j254fx16vbf96l3",261,"141.csv","","null","resources/images/fishbone.png","null","",NA,NA,NA,NA,""
"image-keyboard-response",407,316599,"0.0-3.132-0.132","j254fx16vbf96l3",261,"141.csv","","391.5","resources/trios/L1T4A2.jpg","38","restless",0.5,0.8,0.5,0.778124471674666,"true"
"image-keyboard-response",408,317027,"0.0-3.132-1.132","j254fx16vbf96l3",261,"141.csv","","null","resources/maskTrios/BT4B.jpg","null","",NA,NA,NA,NA,""
"image-keyboard-response",409,318247,"0.0-3.132-2.132","j254fx16vbf96l3",261,"141.csv","","null","resources/images/coin2.png","null","",NA,NA,NA,NA,""
"image-keyboard-response",410,318431,"0.0-3.133-0.133","j254fx16vbf96l3",261,"141.csv","","180.69999980926514","resources/trios/L2T4A1.jpg","38","restless",0.5,0.8,0.5,0.952696538677855,"false"
"image-keyboard-response",411,318846,"0.0-3.133-1.133","j254fx16vbf96l3",261,"141.csv","","null","resources/maskTrios/BT4B.jpg","null","",NA,NA,NA,NA,""
"image-keyboard-response",412,320067,"0.0-3.133-2.133","j254fx16vbf96l3",261,"141.csv","","null","resources/images/fishbone.png","null","",NA,NA,NA,NA,""
"image-keyboard-response",413,320166,"0.0-3.134-0.134","j254fx16vbf96l3",261,"141.csv","","95.89999961853027","resources/trios/L2T4A2.jpg","38","restless",0.5,0.8,0.5,0.230605604968128,"true"
"image-keyboard-response",414,320589,"0.0-3.134-1.134","j254fx16vbf96l3",261,"141.csv","","null","resources/maskTrios/BT4B.jpg","null","",NA,NA,NA,NA,""
"image-keyboard-response",415,321805,"0.0-3.134-2.134","j254fx16vbf96l3",261,"141.csv","","null","resources/images/coin2.png","null","",NA,NA,NA,NA,""
"image-keyboard-response",416,322039,"0.0-3.135-0.135","j254fx16vbf96l3",261,"141.csv","","229.39999961853027","resources/trios/L2T4A2.jpg","38","restless",0.5,0.8,0.5,0.923174750716689,"false"
"image-keyboard-response",417,322461,"0.0-3.135-1.135","j254fx16vbf96l3",261,"141.csv","","null","resources/maskTrios/BT4B.jpg","null","",NA,NA,NA,NA,""
"image-keyboard-response",418,323671,"0.0-3.135-2.135","j254fx16vbf96l3",261,"141.csv","","null","resources/images/fishbone.png","null","",NA,NA,NA,NA,""
"image-keyboard-response",419,323758,"0.0-3.136-0.136","j254fx16vbf96l3",261,"141.csv","","83","resources/trios/L1T4A2.jpg","38","restless",0.5,0.8,0.5,0.252389897039131,"true"
"image-keyboard-response",420,324173,"0.0-3.136-1.136","j254fx16vbf96l3",261,"141.csv","","null","resources/maskTrios/BT4B.jpg","null","",NA,NA,NA,NA,""
"image-keyboard-response",421,325392,"0.0-3.136-2.136","j254fx16vbf96l3",261,"141.csv","","null","resources/images/coin2.png","null","",NA,NA,NA,NA,""
"image-keyboard-response",422,325548,"0.0-3.137-0.137","j254fx16vbf96l3",261,"141.csv","","152.30000019073486","resources/trios/L1T2A2.jpg","38","restless",0.6,0.8,0.5,0.309549582929531,"true"
"image-keyboard-response",423,325969,"0.0-3.137-1.137","j254fx16vbf96l3",261,"141.csv","","null","resources/maskTrios/BT2B.jpg","null","",NA,NA,NA,NA,""
"image-keyboard-response",424,327182,"0.0-3.137-2.137","j254fx16vbf96l3",261,"141.csv","","null","resources/images/coin2.png","null","",NA,NA,NA,NA,""
"image-keyboard-response",425,327235,"0.0-3.138-0.138","j254fx16vbf96l3",261,"141.csv","","50.5","resources/trios/L2T2A1.jpg","38","restless",0.6,0.8,0.5,0.448564708957274,"true"
"image-keyboard-response",426,327646,"0.0-3.138-1.138","j254fx16vbf96l3",261,"141.csv","","null","resources/maskTrios/BT2B.jpg","null","",NA,NA,NA,NA,""
"image-keyboard-response",427,328855,"0.0-3.138-2.138","j254fx16vbf96l3",261,"141.csv","","null","resources/images/coin2.png","null","",NA,NA,NA,NA,""
"image-keyboard-response",428,329003,"0.0-3.139-0.139","j254fx16vbf96l3",261,"141.csv","","143.89999961853027","resources/trios/L2T2A2.jpg","38","restless",0.6,0.8,0.5,0.205372185444777,"true"
"image-keyboard-response",429,329417,"0.0-3.139-1.139","j254fx16vbf96l3",261,"141.csv","","null","resources/maskTrios/BT2B.jpg","null","",NA,NA,NA,NA,""
"image-keyboard-response",430,330642,"0.0-3.139-2.139","j254fx16vbf96l3",261,"141.csv","","null","resources/images/coin2.png","null","",NA,NA,NA,NA,""
"image-keyboard-response",431,330925,"0.0-3.140-0.140","j254fx16vbf96l3",261,"141.csv","","279.80000019073486","resources/trios/L1T4A2.jpg","38","restless",0.6,0.8,0.6,0.149833832577821,"true"
"image-keyboard-response",432,331340,"0.0-3.140-1.140","j254fx16vbf96l3",261,"141.csv","","null","resources/maskTrios/BT4B.jpg","null","",NA,NA,NA,NA,""
"image-keyboard-response",433,332547,"0.0-3.140-2.140","j254fx16vbf96l3",261,"141.csv","","null","resources/images/coin2.png","null","",NA,NA,NA,NA,""
"image-keyboard-response",434,332810,"0.0-3.141-0.141","j254fx16vbf96l3",261,"141.csv","","258.8999996185303","resources/trios/L2T4A1.jpg","38","restless",0.7,0.8,0.6,0.370900220572782,"true"
"image-keyboard-response",435,333219,"0.0-3.141-1.141","j254fx16vbf96l3",261,"141.csv","","null","resources/maskTrios/BT4B.jpg","null","",NA,NA,NA,NA,""
"image-keyboard-response",436,334427,"0.0-3.141-2.141","j254fx16vbf96l3",261,"141.csv","","null","resources/images/coin2.png","null","",NA,NA,NA,NA,""
"image-keyboard-response",437,334493,"0.0-3.142-0.142","j254fx16vbf96l3",261,"141.csv","","62.40000057220459","resources/trios/L1T2A2.jpg","38","restless",0.7,0.8,0.6,0.455638668550856,"true"
"image-keyboard-response",438,334904,"0.0-3.142-1.142","j254fx16vbf96l3",261,"141.csv","","null","resources/maskTrios/BT2B.jpg","null","",NA,NA,NA,NA,""
"image-keyboard-response",439,336112,"0.0-3.142-2.142","j254fx16vbf96l3",261,"141.csv","","null","resources/images/coin2.png","null","",NA,NA,NA,NA,""
"image-keyboard-response",440,336381,"0.0-3.143-0.143","j254fx16vbf96l3",261,"141.csv","","265.30000019073486","resources/trios/L2T4A2.jpg","38","restless",0.7,0.8,0.6,0.470795129767648,"true"
"image-keyboard-response",441,336801,"0.0-3.143-1.143","j254fx16vbf96l3",261,"141.csv","","null","resources/maskTrios/BT4B.jpg","null","",NA,NA,NA,NA,""
"image-keyboard-response",442,338008,"0.0-3.143-2.143","j254fx16vbf96l3",261,"141.csv","","null","resources/images/coin2.png","null","",NA,NA,NA,NA,""
"image-keyboard-response",443,338303,"0.0-3.144-0.144","j254fx16vbf96l3",261,"141.csv","","290.69999980926514","resources/trios/L2T4A1.jpg","38","restless",0.7,0.8,0.6,0.635015152362171,"true"
"image-keyboard-response",444,338714,"0.0-3.144-1.144","j254fx16vbf96l3",261,"141.csv","","null","resources/maskTrios/BT4B.jpg","null","",NA,NA,NA,NA,""
"image-keyboard-response",445,339928,"0.0-3.144-2.144","j254fx16vbf96l3",261,"141.csv","","null","resources/images/coin2.png","null","",NA,NA,NA,NA,""
"image-keyboard-response",446,340052,"0.0-3.145-0.145","j254fx16vbf96l3",261,"141.csv","","120.80000019073486","resources/trios/L2T2A2.jpg","38","restless",0.7,0.8,0.6,0.592323264496521,"true"
"image-keyboard-response",447,340469,"0.0-3.145-1.145","j254fx16vbf96l3",261,"141.csv","","null","resources/maskTrios/BT2B.jpg","null","",NA,NA,NA,NA,""
"image-keyboard-response",448,341685,"0.0-3.145-2.145","j254fx16vbf96l3",261,"141.csv","","null","resources/images/coin2.png","null","",NA,NA,NA,NA,""
"image-keyboard-response",449,341847,"0.0-3.146-0.146","j254fx16vbf96l3",261,"141.csv","","158.70000076293945","resources/trios/L2T2A1.jpg","38","restless",0.7,0.8,0.6,0.548829753070302,"true"
"image-keyboard-response",450,342266,"0.0-3.146-1.146","j254fx16vbf96l3",261,"141.csv","","null","resources/maskTrios/BT2B.jpg","null","",NA,NA,NA,NA,""
"image-keyboard-response",451,343480,"0.0-3.146-2.146","j254fx16vbf96l3",261,"141.csv","","null","resources/images/coin2.png","null","",NA,NA,NA,NA,""
"image-keyboard-response",452,343761,"0.0-3.147-0.147","j254fx16vbf96l3",261,"141.csv","","277.80000019073486","resources/trios/L2T2A1.jpg","38","restless",0.7,0.8,0.6,0.906253797094087,"false"
"image-keyboard-response",453,344170,"0.0-3.147-1.147","j254fx16vbf96l3",261,"141.csv","","null","resources/maskTrios/BT2B.jpg","null","",NA,NA,NA,NA,""
"image-keyboard-response",454,345388,"0.0-3.147-2.147","j254fx16vbf96l3",261,"141.csv","","null","resources/images/fishbone.png","null","",NA,NA,NA,NA,""
"image-keyboard-response",455,345471,"0.0-3.148-0.148","j254fx16vbf96l3",261,"141.csv","","79.30000019073486","resources/trios/L1T2A2.jpg","38","restless",0.7,0.8,0.6,0.491168464135699,"true"
"image-keyboard-response",456,345895,"0.0-3.148-1.148","j254fx16vbf96l3",261,"141.csv","","null","resources/maskTrios/BT2B.jpg","null","",NA,NA,NA,NA,""
"image-keyboard-response",457,347109,"0.0-3.148-2.148","j254fx16vbf96l3",261,"141.csv","","null","resources/images/coin2.png","null","",NA,NA,NA,NA,""
"image-keyboard-response",458,347303,"0.0-3.149-0.149","j254fx16vbf96l3",261,"141.csv","","190","resources/trios/L2T2A2.jpg","38","restless",0.7,0.8,0.6,0.61576252998879,"true"
"image-keyboard-response",459,347725,"0.0-3.149-1.149","j254fx16vbf96l3",261,"141.csv","","null","resources/maskTrios/BT2B.jpg","null","",NA,NA,NA,NA,""
"image-keyboard-response",460,348933,"0.0-3.149-2.149","j254fx16vbf96l3",261,"141.csv","","null","resources/images/coin2.png","null","",NA,NA,NA,NA,""
"image-keyboard-response",461,348989,"0.0-3.150-0.150","j254fx16vbf96l3",261,"141.csv","","52.69999980926514","resources/trios/L2T2A2.jpg","38","restless",0.7,0.8,0.6,0.777026272371855,"true"
"image-keyboard-response",462,349395,"0.0-3.150-1.150","j254fx16vbf96l3",261,"141.csv","","null","resources/maskTrios/BT2B.jpg","null","",NA,NA,NA,NA,""
"image-keyboard-response",463,350607,"0.0-3.150-2.150","j254fx16vbf96l3",261,"141.csv","","null","resources/images/coin2.png","null","",NA,NA,NA,NA,""
"image-keyboard-response",464,350846,"0.0-3.151-0.151","j254fx16vbf96l3",261,"141.csv","","235","resources/trios/L2T4A1.jpg","38","restless",0.7,0.8,0.6,0.442783638687026,"true"
"image-keyboard-response",465,351258,"0.0-3.151-1.151","j254fx16vbf96l3",261,"141.csv","","null","resources/maskTrios/BT4B.jpg","null","",NA,NA,NA,NA,""
"image-keyboard-response",466,352476,"0.0-3.151-2.151","j254fx16vbf96l3",261,"141.csv","","null","resources/images/coin2.png","null","",NA,NA,NA,NA,""
"image-keyboard-response",467,352708,"0.0-3.152-0.152","j254fx16vbf96l3",261,"141.csv","","228.10000038146973","resources/trios/L1T2A1.jpg","38","restless",0.7,0.8,0.6,0.747420422044292,"true"
"image-keyboard-response",468,353120,"0.0-3.152-1.152","j254fx16vbf96l3",261,"141.csv","","null","resources/maskTrios/BT2B.jpg","null","",NA,NA,NA,NA,""
"image-keyboard-response",469,354333,"0.0-3.152-2.152","j254fx16vbf96l3",261,"141.csv","","null","resources/images/coin2.png","null","",NA,NA,NA,NA,""
"image-keyboard-response",470,354552,"0.0-3.153-0.153","j254fx16vbf96l3",261,"141.csv","","214.19999980926514","resources/trios/L2T2A2.jpg","38","restless",0.7,0.8,0.6,0.199503792924224,"true"
"image-keyboard-response",471,354964,"0.0-3.153-1.153","j254fx16vbf96l3",261,"141.csv","","null","resources/maskTrios/BT2B.jpg","null","",NA,NA,NA,NA,""
"image-keyboard-response",472,356175,"0.0-3.153-2.153","j254fx16vbf96l3",261,"141.csv","","null","resources/images/coin2.png","null","",NA,NA,NA,NA,""
"image-keyboard-response",473,356386,"0.0-3.154-0.154","j254fx16vbf96l3",261,"141.csv","","207.19999980926514","resources/trios/L1T4A2.jpg","38","restless",0.7,0.8,0.6,0.226072818502473,"true"
"image-keyboard-response",474,356810,"0.0-3.154-1.154","j254fx16vbf96l3",261,"141.csv","","null","resources/maskTrios/BT4B.jpg","null","",NA,NA,NA,NA,""
"image-keyboard-response",475,358015,"0.0-3.154-2.154","j254fx16vbf96l3",261,"141.csv","","null","resources/images/coin2.png","null","",NA,NA,NA,NA,""
"image-keyboard-response",476,358337,"0.0-3.155-0.155","j254fx16vbf96l3",261,"141.csv","","318.30000019073486","resources/trios/L1T2A1.jpg","38","restless",0.7,0.8,0.6,0.881937379571792,"false"
"image-keyboard-response",477,358750,"0.0-3.155-1.155","j254fx16vbf96l3",261,"141.csv","","null","resources/maskTrios/BT2B.jpg","null","",NA,NA,NA,NA,""
"image-keyboard-response",478,359969,"0.0-3.155-2.155","j254fx16vbf96l3",261,"141.csv","","null","resources/images/fishbone.png","null","",NA,NA,NA,NA,""
"image-keyboard-response",479,360228,"0.0-3.156-0.156","j254fx16vbf96l3",261,"141.csv","","255.39999961853027","resources/trios/L2T4A2.jpg","38","restless",0.7,0.8,0.6,0.637299480424146,"true"
"image-keyboard-response",480,360648,"0.0-3.156-1.156","j254fx16vbf96l3",261,"141.csv","","null","resources/maskTrios/BT4B.jpg","null","",NA,NA,NA,NA,""
"image-keyboard-response",481,361872,"0.0-3.156-2.156","j254fx16vbf96l3",261,"141.csv","","null","resources/images/coin2.png","null","",NA,NA,NA,NA,""
"image-keyboard-response",482,361927,"0.0-3.157-0.157","j254fx16vbf96l3",261,"141.csv","","51.10000038146973","resources/trios/L2T4A2.jpg","38","restless",0.8,0.8,0.5,0.792952257322165,"true"
"image-keyboard-response",483,362340,"0.0-3.157-1.157","j254fx16vbf96l3",261,"141.csv","","null","resources/maskTrios/BT4B.jpg","null","",NA,NA,NA,NA,""
"image-keyboard-response",484,363550,"0.0-3.157-2.157","j254fx16vbf96l3",261,"141.csv","","null","resources/images/coin2.png","null","",NA,NA,NA,NA,""
"image-keyboard-response",485,363613,"0.0-3.158-0.158","j254fx16vbf96l3",261,"141.csv","","59.19999980926514","resources/trios/L2T4A2.jpg","38","restless",0.8,0.8,0.5,0.264162108164985,"true"
"image-keyboard-response",486,364026,"0.0-3.158-1.158","j254fx16vbf96l3",261,"141.csv","","null","resources/maskTrios/BT4B.jpg","null","",NA,NA,NA,NA,""
"image-keyboard-response",487,365234,"0.0-3.158-2.158","j254fx16vbf96l3",261,"141.csv","","null","resources/images/coin2.png","null","",NA,NA,NA,NA,""
"image-keyboard-response",488,366190,"0.0-3.159-0.159","j254fx16vbf96l3",261,"141.csv","","952.6000003814697","resources/trios/L1T4A2.jpg","38","restless",0.8,0.8,0.5,0.685577243345153,"true"
"image-keyboard-response",489,366608,"0.0-3.159-1.159","j254fx16vbf96l3",261,"141.csv","","null","resources/maskTrios/BT4B.jpg","null","",NA,NA,NA,NA,""
"image-keyboard-response",490,367831,"0.0-3.159-2.159","j254fx16vbf96l3",261,"141.csv","","null","resources/images/coin2.png","null","",NA,NA,NA,NA,""
"image-keyboard-response",491,368257,"0.0-3.160-0.160","j254fx16vbf96l3",261,"141.csv","","421.80000019073486","resources/trios/L1T2A1.jpg","38","restless",0.8,0.8,0.5,0.69570662511449,"true"
"image-keyboard-response",492,368676,"0.0-3.160-1.160","j254fx16vbf96l3",261,"141.csv","","null","resources/maskTrios/BT2B.jpg","null","",NA,NA,NA,NA,""
"image-keyboard-response",493,369897,"0.0-3.160-2.160","j254fx16vbf96l3",261,"141.csv","","null","resources/images/coin2.png","null","",NA,NA,NA,NA,""
"image-keyboard-response",494,370474,"0.0-3.161-0.161","j254fx16vbf96l3",261,"141.csv","","573.1000003814697","resources/trios/L2T2A2.jpg","38","restless",0.8,0.8,0.6,0.0326615776903774,"true"
"image-keyboard-response",495,370892,"0.0-3.161-1.161","j254fx16vbf96l3",261,"141.csv","","null","resources/maskTrios/BT2B.jpg","null","",NA,NA,NA,NA,""
"image-keyboard-response",496,372106,"0.0-3.161-2.161","j254fx16vbf96l3",261,"141.csv","","null","resources/images/coin2.png","null","",NA,NA,NA,NA,""
"image-keyboard-response",497,372324,"0.0-3.162-0.162","j254fx16vbf96l3",261,"141.csv","","214","resources/trios/L2T2A2.jpg","38","restless",0.8,0.8,0.6,0.401088589021326,"true"
"image-keyboard-response",498,372732,"0.0-3.162-1.162","j254fx16vbf96l3",261,"141.csv","","null","resources/maskTrios/BT2B.jpg","null","",NA,NA,NA,NA,""
"image-keyboard-response",499,373950,"0.0-3.162-2.162","j254fx16vbf96l3",261,"141.csv","","null","resources/images/coin2.png","null","",NA,NA,NA,NA,""
"image-keyboard-response",500,374316,"0.0-3.163-0.163","j254fx16vbf96l3",261,"141.csv","","362.80000019073486","resources/trios/L2T4A1.jpg","38","restless",0.7,0.8,0.6,0.436226721303544,"true"
"image-keyboard-response",501,374725,"0.0-3.163-1.163","j254fx16vbf96l3",261,"141.csv","","null","resources/maskTrios/BT4B.jpg","null","",NA,NA,NA,NA,""
"image-keyboard-response",502,375945,"0.0-3.163-2.163","j254fx16vbf96l3",261,"141.csv","","null","resources/images/coin2.png","null","",NA,NA,NA,NA,""
"image-keyboard-response",503,376383,"0.0-3.164-0.164","j254fx16vbf96l3",261,"141.csv","","432.9000005722046","resources/trios/L2T4A1.jpg","38","restless",0.7,0.8,0.6,0.372042760082158,"true"
"image-keyboard-response",504,376795,"0.0-3.164-1.164","j254fx16vbf96l3",261,"141.csv","","null","resources/maskTrios/BT4B.jpg","null","",NA,NA,NA,NA,""
"image-keyboard-response",505,378014,"0.0-3.164-2.164","j254fx16vbf96l3",261,"141.csv","","null","resources/images/coin2.png","null","",NA,NA,NA,NA,""
"image-keyboard-response",506,378291,"0.0-3.165-0.165","j254fx16vbf96l3",261,"141.csv","","273.30000019073486","resources/trios/L2T4A2.jpg","38","restless",0.7,0.8,0.6,0.210249029745046,"true"
"image-keyboard-response",507,378709,"0.0-3.165-1.165","j254fx16vbf96l3",261,"141.csv","","null","resources/maskTrios/BT4B.jpg","null","",NA,NA,NA,NA,""
"image-keyboard-response",508,379914,"0.0-3.165-2.165","j254fx16vbf96l3",261,"141.csv","","null","resources/images/coin2.png","null","",NA,NA,NA,NA,""
"image-keyboard-response",509,380160,"0.0-3.166-0.166","j254fx16vbf96l3",261,"141.csv","","241.69999980926514","resources/trios/L2T2A2.jpg","38","restless",0.7,0.7,0.6,0.310684548881395,"true"
"image-keyboard-response",510,380585,"0.0-3.166-1.166","j254fx16vbf96l3",261,"141.csv","","null","resources/maskTrios/BT2B.jpg","null","",NA,NA,NA,NA,""
"image-keyboard-response",511,381805,"0.0-3.166-2.166","j254fx16vbf96l3",261,"141.csv","","null","resources/images/coin2.png","null","",NA,NA,NA,NA,""
"image-keyboard-response",512,382238,"0.0-3.167-0.167","j254fx16vbf96l3",261,"141.csv","","430.29999923706055","resources/trios/L1T4A2.jpg","38","restless",0.7,0.7,0.6,0.801828601609549,"false"
"image-keyboard-response",513,382662,"0.0-3.167-1.167","j254fx16vbf96l3",261,"141.csv","","null","resources/maskTrios/BT4B.jpg","null","",NA,NA,NA,NA,""
"image-keyboard-response",514,383873,"0.0-3.167-2.167","j254fx16vbf96l3",261,"141.csv","","null","resources/images/fishbone.png","null","",NA,NA,NA,NA,""
"image-keyboard-response",515,384118,"0.0-3.168-0.168","j254fx16vbf96l3",261,"141.csv","","242.39999961853027","resources/trios/L2T4A1.jpg","38","restless",0.7,0.7,0.6,0.538012354923166,"true"
"image-keyboard-response",516,384544,"0.0-3.168-1.168","j254fx16vbf96l3",261,"141.csv","","null","resources/maskTrios/BT4B.jpg","null","",NA,NA,NA,NA,""
"image-keyboard-response",517,385757,"0.0-3.168-2.168","j254fx16vbf96l3",261,"141.csv","","null","resources/images/coin2.png","null","",NA,NA,NA,NA,""
"image-keyboard-response",518,385954,"0.0-3.169-0.169","j254fx16vbf96l3",261,"141.csv","","193.19999980926514","resources/trios/L2T2A1.jpg","38","restless",0.7,0.7,0.6,0.0860427796881476,"true"
"image-keyboard-response",519,386367,"0.0-3.169-1.169","j254fx16vbf96l3",261,"141.csv","","null","resources/maskTrios/BT2B.jpg","null","",NA,NA,NA,NA,""
"image-keyboard-response",520,387584,"0.0-3.169-2.169","j254fx16vbf96l3",261,"141.csv","","null","resources/images/coin2.png","null","",NA,NA,NA,NA,""
"image-keyboard-response",521,387597,"0.0-3.170-0.170","j254fx16vbf96l3",261,"141.csv","","9.300000190734863","resources/trios/L2T4A1.jpg","38","restless",0.6,0.7,0.5,0.391841841994319,"true"
"image-keyboard-response",522,388010,"0.0-3.170-1.170","j254fx16vbf96l3",261,"141.csv","","null","resources/maskTrios/BT4B.jpg","null","",NA,NA,NA,NA,""
"image-keyboard-response",523,389234,"0.0-3.170-2.170","j254fx16vbf96l3",261,"141.csv","","null","resources/images/coin2.png","null","",NA,NA,NA,NA,""
"image-keyboard-response",524,389937,"0.0-3.171-0.171","j254fx16vbf96l3",261,"141.csv","","699.2999992370605","resources/trios/L1T2A1.jpg","38","restless",0.6,0.7,0.5,0.584511496465959,"true"
"image-keyboard-response",525,390355,"0.0-3.171-1.171","j254fx16vbf96l3",261,"141.csv","","null","resources/maskTrios/BT2B.jpg","null","",NA,NA,NA,NA,""
"image-keyboard-response",526,391569,"0.0-3.171-2.171","j254fx16vbf96l3",261,"141.csv","","null","resources/images/coin2.png","null","",NA,NA,NA,NA,""
"image-keyboard-response",527,391808,"0.0-3.172-0.172","j254fx16vbf96l3",261,"141.csv","","235","resources/trios/L1T2A2.jpg","38","restless",0.6,0.7,0.5,0.143065180126773,"true"
"image-keyboard-response",528,392220,"0.0-3.172-1.172","j254fx16vbf96l3",261,"141.csv","","null","resources/maskTrios/BT2B.jpg","null","",NA,NA,NA,NA,""
"image-keyboard-response",529,393433,"0.0-3.172-2.172","j254fx16vbf96l3",261,"141.csv","","null","resources/images/coin2.png","null","",NA,NA,NA,NA,""
"image-keyboard-response",530,393822,"0.0-3.173-0.173","j254fx16vbf96l3",261,"141.csv","","385.8999996185303","resources/trios/L1T2A1.jpg","38","restless",0.6,0.7,0.5,0.957907673474911,"false"
"image-keyboard-response",531,394248,"0.0-3.173-1.173","j254fx16vbf96l3",261,"141.csv","","null","resources/maskTrios/BT2B.jpg","null","",NA,NA,NA,NA,""
"image-keyboard-response",532,395469,"0.0-3.173-2.173","j254fx16vbf96l3",261,"141.csv","","null","resources/images/fishbone.png","null","",NA,NA,NA,NA,""
"image-keyboard-response",533,395715,"0.0-3.174-0.174","j254fx16vbf96l3",261,"141.csv","","242.39999961853027","resources/trios/L2T2A2.jpg","38","restless",0.6,0.7,0.5,0.980307291899696,"false"
"image-keyboard-response",534,396127,"0.0-3.174-1.174","j254fx16vbf96l3",261,"141.csv","","null","resources/maskTrios/BT2B.jpg","null","",NA,NA,NA,NA,""
"image-keyboard-response",535,397350,"0.0-3.174-2.174","j254fx16vbf96l3",261,"141.csv","","null","resources/images/fishbone.png","null","",NA,NA,NA,NA,""
"image-keyboard-response",536,397498,"0.0-3.175-0.175","j254fx16vbf96l3",261,"141.csv","","142.89999961853027","resources/trios/L1T2A1.jpg","38","restless",0.6,0.7,0.5,0.069792484865238,"true"
"image-keyboard-response",537,397921,"0.0-3.175-1.175","j254fx16vbf96l3",261,"141.csv","","null","resources/maskTrios/BT2B.jpg","null","",NA,NA,NA,NA,""
"image-keyboard-response",538,399143,"0.0-3.175-2.175","j254fx16vbf96l3",261,"141.csv","","null","resources/images/coin2.png","null","",NA,NA,NA,NA,""
"image-keyboard-response",539,399476,"0.0-3.176-0.176","j254fx16vbf96l3",261,"141.csv","","329","resources/trios/L1T4A2.jpg","38","restless",0.6,0.7,0.5,0.697161666889587,"true"
"image-keyboard-response",540,399892,"0.0-3.176-1.176","j254fx16vbf96l3",261,"141.csv","","null","resources/maskTrios/BT4B.jpg","null","",NA,NA,NA,NA,""
"image-keyboard-response",541,401113,"0.0-3.176-2.176","j254fx16vbf96l3",261,"141.csv","","null","resources/images/coin2.png","null","",NA,NA,NA,NA,""
"image-keyboard-response",542,401516,"0.0-3.177-0.177","j254fx16vbf96l3",261,"141.csv","","399","resources/trios/L2T4A1.jpg","38","restless",0.6,0.7,0.6,0.44210030721005,"true"
"image-keyboard-response",543,401931,"0.0-3.177-1.177","j254fx16vbf96l3",261,"141.csv","","null","resources/maskTrios/BT4B.jpg","null","",NA,NA,NA,NA,""
"image-keyboard-response",544,403148,"0.0-3.177-2.177","j254fx16vbf96l3",261,"141.csv","","null","resources/images/coin2.png","null","",NA,NA,NA,NA,""
"image-keyboard-response",545,403419,"0.0-3.178-0.178","j254fx16vbf96l3",261,"141.csv","","267.6000003814697","resources/trios/L1T2A2.jpg","38","restless",0.7,0.7,0.6,0.692027068895749,"true"
"image-keyboard-response",546,403829,"0.0-3.178-1.178","j254fx16vbf96l3",261,"141.csv","","null","resources/maskTrios/BT2B.jpg","null","",NA,NA,NA,NA,""
"image-keyboard-response",547,405049,"0.0-3.178-2.178","j254fx16vbf96l3",261,"141.csv","","null","resources/images/coin2.png","null","",NA,NA,NA,NA,""
"image-keyboard-response",548,405429,"0.0-3.179-0.179","j254fx16vbf96l3",261,"141.csv","","376.19999980926514","resources/trios/L1T4A2.jpg","38","restless",0.7,0.7,0.6,0.767494219944322,"false"
"image-keyboard-response",549,405836,"0.0-3.179-1.179","j254fx16vbf96l3",261,"141.csv","","null","resources/maskTrios/BT4B.jpg","null","",NA,NA,NA,NA,""
"image-keyboard-response",550,407046,"0.0-3.179-2.179","j254fx16vbf96l3",261,"141.csv","","null","resources/images/fishbone.png","null","",NA,NA,NA,NA,""
"image-keyboard-response",551,407690,"0.0-3.180-0.180","j254fx16vbf96l3",261,"141.csv","","639.6999998092651","resources/trios/L2T4A2.jpg","38","restless",0.7,0.7,0.6,0.825095553117388,"false"
"image-keyboard-response",552,408112,"0.0-3.180-1.180","j254fx16vbf96l3",261,"141.csv","","null","resources/maskTrios/BT4B.jpg","null","",NA,NA,NA,NA,""
"image-keyboard-response",553,409330,"0.0-3.180-2.180","j254fx16vbf96l3",261,"141.csv","","null","resources/images/fishbone.png","null","",NA,NA,NA,NA,""
"image-keyboard-response",554,409590,"0.0-3.181-0.181","j254fx16vbf96l3",261,"141.csv","","255.69999980926514","resources/trios/L2T4A1.jpg","38","restless",0.7,0.6,0.6,0.364191706541537,"true"
"image-keyboard-response",555,409999,"0.0-3.181-1.181","j254fx16vbf96l3",261,"141.csv","","null","resources/maskTrios/BT4B.jpg","null","",NA,NA,NA,NA,""
"image-keyboard-response",556,411216,"0.0-3.181-2.181","j254fx16vbf96l3",261,"141.csv","","null","resources/images/coin2.png","null","",NA,NA,NA,NA,""
"image-keyboard-response",557,412358,"0.0-3.182-0.182","j254fx16vbf96l3",261,"141.csv","","1138.7999992370605","resources/trios/L1T4A1.jpg","38","restless",0.7,0.6,0.6,0.0294547234126605,"true"
"image-keyboard-response",558,412780,"0.0-3.182-1.182","j254fx16vbf96l3",261,"141.csv","","null","resources/maskTrios/BT4B.jpg","null","",NA,NA,NA,NA,""
"image-keyboard-response",559,413990,"0.0-3.182-2.182","j254fx16vbf96l3",261,"141.csv","","null","resources/images/coin2.png","null","",NA,NA,NA,NA,""
"image-keyboard-response",560,414605,"0.0-3.183-0.183","j254fx16vbf96l3",261,"141.csv","","611.3999996185303","resources/trios/L1T4A1.jpg","38","restless",0.7,0.6,0.6,0.240262313879549,"true"
"image-keyboard-response",561,415025,"0.0-3.183-1.183","j254fx16vbf96l3",261,"141.csv","","null","resources/maskTrios/BT4B.jpg","null","",NA,NA,NA,NA,""
"image-keyboard-response",562,416248,"0.0-3.183-2.183","j254fx16vbf96l3",261,"141.csv","","null","resources/images/coin2.png","null","",NA,NA,NA,NA,""
"image-keyboard-response",563,416632,"0.0-3.184-0.184","j254fx16vbf96l3",261,"141.csv","","379.69999980926514","resources/trios/L1T2A2.jpg","38","restless",0.7,0.6,0.6,0.345160054635203,"true"
"image-keyboard-response",564,417043,"0.0-3.184-1.184","j254fx16vbf96l3",261,"141.csv","","null","resources/maskTrios/BT2B.jpg","null","",NA,NA,NA,NA,""
"image-keyboard-response",565,418259,"0.0-3.184-2.184","j254fx16vbf96l3",261,"141.csv","","null","resources/images/coin2.png","null","",NA,NA,NA,NA,""
"image-keyboard-response",566,418683,"0.0-3.185-0.185","j254fx16vbf96l3",261,"141.csv","","419.79999923706055","resources/trios/L1T2A2.jpg","38","restless",0.8,0.6,0.7,0.693768972957962,"false"
"image-keyboard-response",567,419093,"0.0-3.185-1.185","j254fx16vbf96l3",261,"141.csv","","null","resources/maskTrios/BT2B.jpg","null","",NA,NA,NA,NA,""
"image-keyboard-response",568,420306,"0.0-3.185-2.185","j254fx16vbf96l3",261,"141.csv","","null","resources/images/fishbone.png","null","",NA,NA,NA,NA,""
"image-keyboard-response",569,420758,"0.0-3.186-0.186","j254fx16vbf96l3",261,"141.csv","","447.4000005722046","resources/trios/L1T2A1.jpg","38","restless",0.8,0.6,0.7,0.695196296360187,"false"
"image-keyboard-response",570,421178,"0.0-3.186-1.186","j254fx16vbf96l3",261,"141.csv","","null","resources/maskTrios/BT2B.jpg","null","",NA,NA,NA,NA,""
"image-keyboard-response",571,422395,"0.0-3.186-2.186","j254fx16vbf96l3",261,"141.csv","","null","resources/images/fishbone.png","null","",NA,NA,NA,NA,""
"image-keyboard-response",572,422472,"0.0-3.187-0.187","j254fx16vbf96l3",261,"141.csv","","72.60000038146973","resources/trios/L1T2A2.jpg","38","restless",0.8,0.6,0.8,0.721300008658061,"false"
"image-keyboard-response",573,422892,"0.0-3.187-1.187","j254fx16vbf96l3",261,"141.csv","","null","resources/maskTrios/BT2B.jpg","null","",NA,NA,NA,NA,""
"image-keyboard-response",574,424103,"0.0-3.187-2.187","j254fx16vbf96l3",261,"141.csv","","null","resources/images/fishbone.png","null","",NA,NA,NA,NA,""
"image-keyboard-response",575,424106,"0.0-3.188-0.188","j254fx16vbf96l3",261,"141.csv","","0.2999992370605469","resources/trios/L1T4A2.jpg","38","restless",0.8,0.6,0.8,0.648647462830507,"false"
"image-keyboard-response",576,424517,"0.0-3.188-1.188","j254fx16vbf96l3",261,"141.csv","","null","resources/maskTrios/BT4B.jpg","null","",NA,NA,NA,NA,""
"image-keyboard-response",577,425729,"0.0-3.188-2.188","j254fx16vbf96l3",261,"141.csv","","null","resources/images/fishbone.png","null","",NA,NA,NA,NA,""
"image-keyboard-response",578,426057,"0.0-3.189-0.189","j254fx16vbf96l3",261,"141.csv","","324.30000019073486","resources/trios/L1T2A2.jpg","39","restless",0.8,0.6,0.7,0.264805548529636,"true"
"image-keyboard-response",579,426477,"0.0-3.189-1.189","j254fx16vbf96l3",261,"141.csv","","null","resources/maskTrios/BBA2.jpg","null","",NA,NA,NA,NA,""
"image-keyboard-response",580,427685,"0.0-3.189-2.189","j254fx16vbf96l3",261,"141.csv","","null","resources/images/coin2.png","null","",NA,NA,NA,NA,""
"image-keyboard-response",581,427944,"0.0-3.190-0.190","j254fx16vbf96l3",261,"141.csv","","255.0999994277954","resources/trios/L2T4A1.jpg","39","restless",0.8,0.6,0.7,0.726923712599931,"false"
"image-keyboard-response",582,428368,"0.0-3.190-1.190","j254fx16vbf96l3",261,"141.csv","","null","resources/maskTrios/BBA1.jpg","null","",NA,NA,NA,NA,""
"image-keyboard-response",583,429588,"0.0-3.190-2.190","j254fx16vbf96l3",261,"141.csv","","null","resources/images/fishbone.png","null","",NA,NA,NA,NA,""
"image-keyboard-response",584,429629,"0.0-3.191-0.191","j254fx16vbf96l3",261,"141.csv","","38.30000019073486","resources/trios/L2T4A2.jpg","39","restless",0.9,0.6,0.7,0.261555692256935,"true"
"image-keyboard-response",585,430057,"0.0-3.191-1.191","j254fx16vbf96l3",261,"141.csv","","null","resources/maskTrios/BBA2.jpg","null","",NA,NA,NA,NA,""
"image-keyboard-response",586,431264,"0.0-3.191-2.191","j254fx16vbf96l3",261,"141.csv","","null","resources/images/coin2.png","null","",NA,NA,NA,NA,""
"image-keyboard-response",587,431531,"0.0-3.192-0.192","j254fx16vbf96l3",261,"141.csv","","264.1000003814697","resources/trios/L1T4A2.jpg","39","restless",0.9,0.5,0.7,0.549056004480001,"true"
"image-keyboard-response",588,431951,"0.0-3.192-1.192","j254fx16vbf96l3",261,"141.csv","","null","resources/maskTrios/BBA2.jpg","null","",NA,NA,NA,NA,""
"image-keyboard-response",589,433163,"0.0-3.192-2.192","j254fx16vbf96l3",261,"141.csv","","null","resources/images/coin2.png","null","",NA,NA,NA,NA,""
"image-keyboard-response",590,433168,"0.0-3.193-0.193","j254fx16vbf96l3",261,"141.csv","","0.3000001907348633","resources/trios/L1T2A2.jpg","39","restless",0.9,0.5,0.7,0.233756385813621,"true"
"image-keyboard-response",591,433582,"0.0-3.193-1.193","j254fx16vbf96l3",261,"141.csv","","null","resources/maskTrios/BBA2.jpg","null","",NA,NA,NA,NA,""
"image-keyboard-response",592,434808,"0.0-3.193-2.193","j254fx16vbf96l3",261,"141.csv","","null","resources/images/coin2.png","null","",NA,NA,NA,NA,""
"image-keyboard-response",593,435158,"0.0-3.194-0.194","j254fx16vbf96l3",261,"141.csv","","345.80000019073486","resources/trios/L1T2A1.jpg","39","restless",0.9,0.5,0.7,0.5125319416114,"true"
"image-keyboard-response",594,435567,"0.0-3.194-1.194","j254fx16vbf96l3",261,"141.csv","","null","resources/maskTrios/BBA1.jpg","null","",NA,NA,NA,NA,""
"image-keyboard-response",595,436776,"0.0-3.194-2.194","j254fx16vbf96l3",261,"141.csv","","null","resources/images/coin2.png","null","",NA,NA,NA,NA,""
"image-keyboard-response",596,437047,"0.0-3.195-0.195","j254fx16vbf96l3",261,"141.csv","","266.6000003814697","resources/trios/L2T2A1.jpg","39","restless",0.9,0.5,0.6,0.0325894578941797,"true"
"image-keyboard-response",597,437473,"0.0-3.195-1.195","j254fx16vbf96l3",261,"141.csv","","null","resources/maskTrios/BBA1.jpg","null","",NA,NA,NA,NA,""
"image-keyboard-response",598,438687,"0.0-3.195-2.195","j254fx16vbf96l3",261,"141.csv","","null","resources/images/coin2.png","null","",NA,NA,NA,NA,""
"image-keyboard-response",599,438718,"0.0-3.196-0.196","j254fx16vbf96l3",261,"141.csv","","27.300000190734863","resources/trios/L2T4A1.jpg","39","restless",0.9,0.5,0.6,0.704382101550372,"false"
"image-keyboard-response",600,439130,"0.0-3.196-1.196","j254fx16vbf96l3",261,"141.csv","","null","resources/maskTrios/BBA1.jpg","null","",NA,NA,NA,NA,""
"image-keyboard-response",601,440342,"0.0-3.196-2.196","j254fx16vbf96l3",261,"141.csv","","null","resources/images/fishbone.png","null","",NA,NA,NA,NA,""
"image-keyboard-response",602,440449,"0.0-3.197-0.197","j254fx16vbf96l3",261,"141.csv","","103.29999923706055","resources/trios/L2T2A1.jpg","39","restless",0.9,0.5,0.5,0.525813532166936,"false"
"image-keyboard-response",603,440885,"0.0-3.197-1.197","j254fx16vbf96l3",261,"141.csv","","null","resources/maskTrios/BBA1.jpg","null","",NA,NA,NA,NA,""
"image-keyboard-response",604,442107,"0.0-3.197-2.197","j254fx16vbf96l3",261,"141.csv","","null","resources/images/fishbone.png","null","",NA,NA,NA,NA,""
"image-keyboard-response",605,442287,"0.0-3.198-0.198","j254fx16vbf96l3",261,"141.csv","","176.39999961853027","resources/trios/L1T4A1.jpg","39","restless",0.9,0.4,0.5,0.13642809779408,"true"
