"trial_type","trial_index","time_elapsed","internal_node_id","subject","participantCode","walkNumber","success","rt","stimulus","key_press","test_part","leftProb","midProb","rightProb","generatedNum","correct"
"pavlovia",0,946,"0.0-0.0","wbe9w0os36afhd2",876,"108.csv","","","","","",NA,NA,NA,NA,""
"fullscreen",1,12756,"0.0-1.0","wbe9w0os36afhd2",876,"108.csv","true","","","","",NA,NA,NA,NA,""
"html-keyboard-response",2,25261,"0.0-2.0-0.0","wbe9w0os36afhd2",876,"108.csv","","12501.79999999702","<p><font size='6'>Arrrgh!</p></font><p>Can you be the best pirate? Try to find lots of gold! But beware, some islands have more gold than others, and over time, the island with the most gold may change. Can YOU figure it out? </p><font size='6'>GOOD LUCK, CAPTAIN!!!</font><p>Press any key to begin</p>","75","",NA,NA,NA,NA,""
"image-keyboard-response",3,28262,"0.0-2.0-1.0","wbe9w0os36afhd2",876,"108.csv","","null","resources/image_sets/111.png","null","",NA,NA,NA,NA,""
"image-keyboard-response",4,32136,"0.0-2.0-2.0","wbe9w0os36afhd2",876,"108.csv","","3872.7999999970198","resources/image_sets/left_highlight.png","37","",NA,NA,NA,NA,""
"image-keyboard-response",5,34729,"0.0-2.0-3.0","wbe9w0os36afhd2",876,"108.csv","","2591","resources/image_sets/mid_highlight.png","38","",NA,NA,NA,NA,""
"image-keyboard-response",6,35768,"0.0-2.0-4.0","wbe9w0os36afhd2",876,"108.csv","","1038","resources/image_sets/right_highlight.png","39","",NA,NA,NA,NA,""
"image-keyboard-response",7,51096,"0.0-2.0-5.0","wbe9w0os36afhd2",876,"108.csv","","15327.20000000298","resources/image_sets/111.png","13","",NA,NA,NA,NA,""
"image-keyboard-response",8,54489,"0.0-2.0-6.0","wbe9w0os36afhd2",876,"108.csv","","3391.3000000044703","resources/images/coin2.png","13","",NA,NA,NA,NA,""
"image-keyboard-response",9,57713,"0.0-2.0-7.0","wbe9w0os36afhd2",876,"108.csv","","3223","resources/images/fishbone.png","13","",NA,NA,NA,NA,""
"html-keyboard-response",10,64114,"0.0-2.0-8.0","wbe9w0os36afhd2",876,"108.csv","","6400.30000000447","<p>Your first journey will be a long one, but you will get a well deserved break at the end</p><p>After the break you will have four more journeys, but each will be much shorter than the first, and you will have breaks in between each</p><p>Press Enter to begin</p>","13","",NA,NA,NA,NA,""
"image-keyboard-response",11,67273,"0.0-3.0-0.0","wbe9w0os36afhd2",876,"108.csv","","3157.10000000149","resources/trios/L1T4A3.jpg","38","restless",0.9,0.3,0.7,0.394862374969874,"false"
"image-keyboard-response",12,67677,"0.0-3.0-1.0","wbe9w0os36afhd2",876,"108.csv","","null","resources/maskTrios/BT4B.jpg","null","",NA,NA,NA,NA,""
"image-keyboard-response",13,68880,"0.0-3.0-2.0","wbe9w0os36afhd2",876,"108.csv","","null","resources/images/fishbone.png","null","",NA,NA,NA,NA,""
"image-keyboard-response",14,71021,"0.0-3.1-0.1","wbe9w0os36afhd2",876,"108.csv","","2137.8000000044703","resources/trios/L2T4A1.jpg","37","restless",0.9,0.3,0.7,0.740291859594576,"true"
"image-keyboard-response",15,71422,"0.0-3.1-1.1","wbe9w0os36afhd2",876,"108.csv","","null","resources/maskTrios/L2BB.jpg","null","",NA,NA,NA,NA,""
"image-keyboard-response",16,72625,"0.0-3.1-2.1","wbe9w0os36afhd2",876,"108.csv","","null","resources/images/coin2.png","null","",NA,NA,NA,NA,""
"image-keyboard-response",17,73691,"0.0-3.2-0.2","wbe9w0os36afhd2",876,"108.csv","","1063.3999999985099","resources/trios/L2T4A1.jpg","39","restless",0.9,0.3,0.7,0.58848938841938,"true"
"image-keyboard-response",18,74093,"0.0-3.2-1.2","wbe9w0os36afhd2",876,"108.csv","","null","resources/maskTrios/BBA1.jpg","null","",NA,NA,NA,NA,""
"image-keyboard-response",19,75296,"0.0-3.2-2.2","wbe9w0os36afhd2",876,"108.csv","","null","resources/images/coin2.png","null","",NA,NA,NA,NA,""
"image-keyboard-response",20,76929,"0.0-3.3-0.3","wbe9w0os36afhd2",876,"108.csv","","1631.9000000059605","resources/trios/L1T2A1.jpg","38","restless",0.9,0.3,0.7,0.585906287558547,"false"
"image-keyboard-response",21,77331,"0.0-3.3-1.3","wbe9w0os36afhd2",876,"108.csv","","null","resources/maskTrios/BT2B.jpg","null","",NA,NA,NA,NA,""
"image-keyboard-response",22,78533,"0.0-3.3-2.3","wbe9w0os36afhd2",876,"108.csv","","null","resources/images/fishbone.png","null","",NA,NA,NA,NA,""
"image-keyboard-response",23,79342,"0.0-3.4-0.4","wbe9w0os36afhd2",876,"108.csv","","807","resources/trios/L1T4A1.jpg","39","restless",0.9,0.3,0.7,0.398021169392054,"true"
"image-keyboard-response",24,79744,"0.0-3.4-1.4","wbe9w0os36afhd2",876,"108.csv","","null","resources/maskTrios/BBA1.jpg","null","",NA,NA,NA,NA,""
"image-keyboard-response",25,80947,"0.0-3.4-2.4","wbe9w0os36afhd2",876,"108.csv","","null","resources/images/coin2.png","null","",NA,NA,NA,NA,""
"image-keyboard-response",26,81670,"0.0-3.5-0.5","wbe9w0os36afhd2",876,"108.csv","","720.8999999985099","resources/trios/L1T2A1.jpg","37","restless",0.9,0.3,0.7,0.992019618061297,"false"
"image-keyboard-response",27,82072,"0.0-3.5-1.5","wbe9w0os36afhd2",876,"108.csv","","null","resources/maskTrios/L1BB.jpg","null","",NA,NA,NA,NA,""
"image-keyboard-response",28,83277,"0.0-3.5-2.5","wbe9w0os36afhd2",876,"108.csv","","null","resources/images/fishbone.png","null","",NA,NA,NA,NA,""
"image-keyboard-response",29,84840,"0.0-3.6-0.6","wbe9w0os36afhd2",876,"108.csv","","1562.5","resources/trios/L2T4A1.jpg","39","restless",0.9,0.3,0.7,0.470172451206654,"true"
"image-keyboard-response",30,85246,"0.0-3.6-1.6","wbe9w0os36afhd2",876,"108.csv","","null","resources/maskTrios/BBA1.jpg","null","",NA,NA,NA,NA,""
"image-keyboard-response",31,86449,"0.0-3.6-2.6","wbe9w0os36afhd2",876,"108.csv","","null","resources/images/coin2.png","null","",NA,NA,NA,NA,""
"image-keyboard-response",32,87538,"0.0-3.7-0.7","wbe9w0os36afhd2",876,"108.csv","","1086.5","resources/trios/L2T4A3.jpg","39","restless",0.9,0.3,0.7,0.58834113654345,"true"
"image-keyboard-response",33,87940,"0.0-3.7-1.7","wbe9w0os36afhd2",876,"108.csv","","null","resources/maskTrios/BBA3.jpg","null","",NA,NA,NA,NA,""
"image-keyboard-response",34,89144,"0.0-3.7-2.7","wbe9w0os36afhd2",876,"108.csv","","null","resources/images/coin2.png","null","",NA,NA,NA,NA,""
"image-keyboard-response",35,90260,"0.0-3.8-0.8","wbe9w0os36afhd2",876,"108.csv","","1113.8999999985099","resources/trios/L2T4A1.jpg","39","restless",0.9,0.3,0.7,0.0290834220832392,"true"
"image-keyboard-response",36,90662,"0.0-3.8-1.8","wbe9w0os36afhd2",876,"108.csv","","null","resources/maskTrios/BBA1.jpg","null","",NA,NA,NA,NA,""
"image-keyboard-response",37,91865,"0.0-3.8-2.8","wbe9w0os36afhd2",876,"108.csv","","null","resources/images/coin2.png","null","",NA,NA,NA,NA,""
"image-keyboard-response",38,92701,"0.0-3.9-0.9","wbe9w0os36afhd2",876,"108.csv","","833.2999999970198","resources/trios/L1T4A1.jpg","39","restless",0.9,0.3,0.7,0.187287241698258,"true"
"image-keyboard-response",39,93102,"0.0-3.9-1.9","wbe9w0os36afhd2",876,"108.csv","","null","resources/maskTrios/BBA1.jpg","null","",NA,NA,NA,NA,""
"image-keyboard-response",40,94308,"0.0-3.9-2.9","wbe9w0os36afhd2",876,"108.csv","","null","resources/images/coin2.png","null","",NA,NA,NA,NA,""
"image-keyboard-response",41,95071,"0.0-3.10-0.10","wbe9w0os36afhd2",876,"108.csv","","760.5","resources/trios/L2T2A1.jpg","39","restless",0.9,0.3,0.7,0.446845167881905,"true"
"image-keyboard-response",42,95473,"0.0-3.10-1.10","wbe9w0os36afhd2",876,"108.csv","","null","resources/maskTrios/BBA1.jpg","null","",NA,NA,NA,NA,""
"image-keyboard-response",43,96674,"0.0-3.10-2.10","wbe9w0os36afhd2",876,"108.csv","","null","resources/images/coin2.png","null","",NA,NA,NA,NA,""
"image-keyboard-response",44,97627,"0.0-3.11-0.11","wbe9w0os36afhd2",876,"108.csv","","949.8000000044703","resources/trios/L1T4A1.jpg","39","restless",0.9,0.3,0.7,0.484300190382814,"true"
"image-keyboard-response",45,98029,"0.0-3.11-1.11","wbe9w0os36afhd2",876,"108.csv","","null","resources/maskTrios/BBA1.jpg","null","",NA,NA,NA,NA,""
"image-keyboard-response",46,99232,"0.0-3.11-2.11","wbe9w0os36afhd2",876,"108.csv","","null","resources/images/coin2.png","null","",NA,NA,NA,NA,""
"image-keyboard-response",47,99640,"0.0-3.12-0.12","wbe9w0os36afhd2",876,"108.csv","","405.5","resources/trios/L1T4A1.jpg","39","restless",0.8,0.3,0.7,0.363319792722925,"true"
"image-keyboard-response",48,100041,"0.0-3.12-1.12","wbe9w0os36afhd2",876,"108.csv","","null","resources/maskTrios/BBA1.jpg","null","",NA,NA,NA,NA,""
"image-keyboard-response",49,101247,"0.0-3.12-2.12","wbe9w0os36afhd2",876,"108.csv","","null","resources/images/coin2.png","null","",NA,NA,NA,NA,""
"image-keyboard-response",50,101587,"0.0-3.13-0.13","wbe9w0os36afhd2",876,"108.csv","","338.8999999985099","resources/trios/L1T2A1.jpg","39","restless",0.8,0.3,0.7,0.787273372611964,"false"
"image-keyboard-response",51,101989,"0.0-3.13-1.13","wbe9w0os36afhd2",876,"108.csv","","null","resources/maskTrios/BBA1.jpg","null","",NA,NA,NA,NA,""
"image-keyboard-response",52,103195,"0.0-3.13-2.13","wbe9w0os36afhd2",876,"108.csv","","null","resources/images/fishbone.png","null","",NA,NA,NA,NA,""
"image-keyboard-response",53,104431,"0.0-3.14-0.14","wbe9w0os36afhd2",876,"108.csv","","1234.1999999955297","resources/trios/L1T2A3.jpg","37","restless",0.8,0.3,0.7,0.613323604316683,"true"
"image-keyboard-response",54,104834,"0.0-3.14-1.14","wbe9w0os36afhd2",876,"108.csv","","null","resources/maskTrios/L1BB.jpg","null","",NA,NA,NA,NA,""
"image-keyboard-response",55,106037,"0.0-3.14-2.14","wbe9w0os36afhd2",876,"108.csv","","null","resources/images/coin2.png","null","",NA,NA,NA,NA,""
"image-keyboard-response",56,106586,"0.0-3.15-0.15","wbe9w0os36afhd2",876,"108.csv","","546.2000000029802","resources/trios/L1T4A1.jpg","37","restless",0.8,0.3,0.7,0.544050390277749,"true"
"image-keyboard-response",57,106988,"0.0-3.15-1.15","wbe9w0os36afhd2",876,"108.csv","","null","resources/maskTrios/L1BB.jpg","null","",NA,NA,NA,NA,""
"image-keyboard-response",58,108191,"0.0-3.15-2.15","wbe9w0os36afhd2",876,"108.csv","","null","resources/images/coin2.png","null","",NA,NA,NA,NA,""
"image-keyboard-response",59,108525,"0.0-3.16-0.16","wbe9w0os36afhd2",876,"108.csv","","331.19999999552965","resources/trios/L1T4A3.jpg","37","restless",0.8,0.3,0.7,0.928529530210869,"false"
"image-keyboard-response",60,108926,"0.0-3.16-1.16","wbe9w0os36afhd2",876,"108.csv","","null","resources/maskTrios/L1BB.jpg","null","",NA,NA,NA,NA,""
"image-keyboard-response",61,110128,"0.0-3.16-2.16","wbe9w0os36afhd2",876,"108.csv","","null","resources/images/fishbone.png","null","",NA,NA,NA,NA,""
"image-keyboard-response",62,111485,"0.0-3.17-0.17","wbe9w0os36afhd2",876,"108.csv","","1354.3999999985099","resources/trios/L1T2A1.jpg","39","restless",0.8,0.3,0.7,0.735733563514088,"false"
"image-keyboard-response",63,111886,"0.0-3.17-1.17","wbe9w0os36afhd2",876,"108.csv","","null","resources/maskTrios/BBA1.jpg","null","",NA,NA,NA,NA,""
"image-keyboard-response",64,113089,"0.0-3.17-2.17","wbe9w0os36afhd2",876,"108.csv","","null","resources/images/fishbone.png","null","",NA,NA,NA,NA,""
"image-keyboard-response",65,113440,"0.0-3.18-0.18","wbe9w0os36afhd2",876,"108.csv","","349","resources/trios/L1T4A1.jpg","38","restless",0.8,0.3,0.8,0.940055990216852,"false"
"image-keyboard-response",66,113842,"0.0-3.18-1.18","wbe9w0os36afhd2",876,"108.csv","","null","resources/maskTrios/BT4B.jpg","null","",NA,NA,NA,NA,""
"image-keyboard-response",67,115045,"0.0-3.18-2.18","wbe9w0os36afhd2",876,"108.csv","","null","resources/images/fishbone.png","null","",NA,NA,NA,NA,""
"image-keyboard-response",68,115372,"0.0-3.19-0.19","wbe9w0os36afhd2",876,"108.csv","","325.20000000298023","resources/trios/L2T4A3.jpg","37","restless",0.8,0.3,0.8,0.285699654551682,"true"
"image-keyboard-response",69,115773,"0.0-3.19-1.19","wbe9w0os36afhd2",876,"108.csv","","null","resources/maskTrios/L2BB.jpg","null","",NA,NA,NA,NA,""
"image-keyboard-response",70,116976,"0.0-3.19-2.19","wbe9w0os36afhd2",876,"108.csv","","null","resources/images/coin2.png","null","",NA,NA,NA,NA,""
"image-keyboard-response",71,117965,"0.0-3.20-0.20","wbe9w0os36afhd2",876,"108.csv","","988.6000000014901","resources/trios/L1T2A1.jpg","37","restless",0.8,0.3,0.8,0.855937009640292,"false"
"image-keyboard-response",72,118367,"0.0-3.20-1.20","wbe9w0os36afhd2",876,"108.csv","","null","resources/maskTrios/L1BB.jpg","null","",NA,NA,NA,NA,""
"image-keyboard-response",73,119570,"0.0-3.20-2.20","wbe9w0os36afhd2",876,"108.csv","","null","resources/images/fishbone.png","null","",NA,NA,NA,NA,""
"image-keyboard-response",74,119867,"0.0-3.21-0.21","wbe9w0os36afhd2",876,"108.csv","","295.3999999985099","resources/trios/L2T2A1.jpg","39","restless",0.8,0.2,0.8,0.351821567221043,"true"
"image-keyboard-response",75,120269,"0.0-3.21-1.21","wbe9w0os36afhd2",876,"108.csv","","null","resources/maskTrios/BBA1.jpg","null","",NA,NA,NA,NA,""
"image-keyboard-response",76,121472,"0.0-3.21-2.21","wbe9w0os36afhd2",876,"108.csv","","null","resources/images/coin2.png","null","",NA,NA,NA,NA,""
"image-keyboard-response",77,122076,"0.0-3.22-0.22","wbe9w0os36afhd2",876,"108.csv","","602.6999999955297","resources/trios/L1T4A1.jpg","39","restless",0.7,0.2,0.8,0.429005786753598,"true"
"image-keyboard-response",78,122478,"0.0-3.22-1.22","wbe9w0os36afhd2",876,"108.csv","","null","resources/maskTrios/BBA1.jpg","null","",NA,NA,NA,NA,""
"image-keyboard-response",79,123681,"0.0-3.22-2.22","wbe9w0os36afhd2",876,"108.csv","","null","resources/images/coin2.png","null","",NA,NA,NA,NA,""
"image-keyboard-response",80,124843,"0.0-3.23-0.23","wbe9w0os36afhd2",876,"108.csv","","1160.9000000059605","resources/trios/L2T2A1.jpg","39","restless",0.7,0.2,0.8,0.651993562384537,"true"
"image-keyboard-response",81,125245,"0.0-3.23-1.23","wbe9w0os36afhd2",876,"108.csv","","null","resources/maskTrios/BBA1.jpg","null","",NA,NA,NA,NA,""
"image-keyboard-response",82,126448,"0.0-3.23-2.23","wbe9w0os36afhd2",876,"108.csv","","null","resources/images/coin2.png","null","",NA,NA,NA,NA,""
"image-keyboard-response",83,127488,"0.0-3.24-0.24","wbe9w0os36afhd2",876,"108.csv","","1037.6999999955297","resources/trios/L2T4A3.jpg","38","restless",0.7,0.2,0.8,0.331268574836561,"false"
"image-keyboard-response",84,127892,"0.0-3.24-1.24","wbe9w0os36afhd2",876,"108.csv","","null","resources/maskTrios/BT4B.jpg","null","",NA,NA,NA,NA,""
"image-keyboard-response",85,129096,"0.0-3.24-2.24","wbe9w0os36afhd2",876,"108.csv","","null","resources/images/fishbone.png","null","",NA,NA,NA,NA,""
"image-keyboard-response",86,129476,"0.0-3.25-0.25","wbe9w0os36afhd2",876,"108.csv","","377.29999999701977","resources/trios/L1T4A1.jpg","37","restless",0.7,0.2,0.8,0.964742157792197,"false"
"image-keyboard-response",87,129882,"0.0-3.25-1.25","wbe9w0os36afhd2",876,"108.csv","","null","resources/maskTrios/L1BB.jpg","null","",NA,NA,NA,NA,""
"image-keyboard-response",88,131085,"0.0-3.25-2.25","wbe9w0os36afhd2",876,"108.csv","","null","resources/images/fishbone.png","null","",NA,NA,NA,NA,""
"image-keyboard-response",89,131473,"0.0-3.26-0.26","wbe9w0os36afhd2",876,"108.csv","","385.30000000447035","resources/trios/L2T4A3.jpg","39","restless",0.6,0.2,0.8,0.682740642395486,"true"
"image-keyboard-response",90,131874,"0.0-3.26-1.26","wbe9w0os36afhd2",876,"108.csv","","null","resources/maskTrios/BBA3.jpg","null","",NA,NA,NA,NA,""
"image-keyboard-response",91,133075,"0.0-3.26-2.26","wbe9w0os36afhd2",876,"108.csv","","null","resources/images/coin2.png","null","",NA,NA,NA,NA,""
"image-keyboard-response",92,133647,"0.0-3.27-0.27","wbe9w0os36afhd2",876,"108.csv","","569.6999999955297","resources/trios/L2T2A1.jpg","39","restless",0.6,0.2,0.8,0.99199103710896,"false"
"image-keyboard-response",93,134050,"0.0-3.27-1.27","wbe9w0os36afhd2",876,"108.csv","","null","resources/maskTrios/BBA1.jpg","null","",NA,NA,NA,NA,""
"image-keyboard-response",94,135253,"0.0-3.27-2.27","wbe9w0os36afhd2",876,"108.csv","","null","resources/images/fishbone.png","null","",NA,NA,NA,NA,""
"image-keyboard-response",95,135878,"0.0-3.28-0.28","wbe9w0os36afhd2",876,"108.csv","","622.7999999970198","resources/trios/L1T2A1.jpg","37","restless",0.6,0.1,0.8,0.485439265784356,"true"
"image-keyboard-response",96,136282,"0.0-3.28-1.28","wbe9w0os36afhd2",876,"108.csv","","null","resources/maskTrios/L1BB.jpg","null","",NA,NA,NA,NA,""
"image-keyboard-response",97,137485,"0.0-3.28-2.28","wbe9w0os36afhd2",876,"108.csv","","null","resources/images/coin2.png","null","",NA,NA,NA,NA,""
"image-keyboard-response",98,138060,"0.0-3.29-0.29","wbe9w0os36afhd2",876,"108.csv","","572.5","resources/trios/L1T2A1.jpg","39","restless",0.5,0.1,0.8,0.255916002927823,"true"
"image-keyboard-response",99,138462,"0.0-3.29-1.29","wbe9w0os36afhd2",876,"108.csv","","null","resources/maskTrios/BBA1.jpg","null","",NA,NA,NA,NA,""
"image-keyboard-response",100,139665,"0.0-3.29-2.29","wbe9w0os36afhd2",876,"108.csv","","null","resources/images/coin2.png","null","",NA,NA,NA,NA,""
"image-keyboard-response",101,140631,"0.0-3.30-0.30","wbe9w0os36afhd2",876,"108.csv","","965.0999999940395","resources/trios/L2T2A3.jpg","37","restless",0.5,0.1,0.8,0.0096344785396234,"true"
"image-keyboard-response",102,141033,"0.0-3.30-1.30","wbe9w0os36afhd2",876,"108.csv","","null","resources/maskTrios/L2BB.jpg","null","",NA,NA,NA,NA,""
"image-keyboard-response",103,142236,"0.0-3.30-2.30","wbe9w0os36afhd2",876,"108.csv","","null","resources/images/coin2.png","null","",NA,NA,NA,NA,""
"image-keyboard-response",104,143118,"0.0-3.31-0.31","wbe9w0os36afhd2",876,"108.csv","","879.5","resources/trios/L2T2A1.jpg","39","restless",0.5,0.1,0.8,0.826219736843737,"false"
"image-keyboard-response",105,143519,"0.0-3.31-1.31","wbe9w0os36afhd2",876,"108.csv","","null","resources/maskTrios/BBA1.jpg","null","",NA,NA,NA,NA,""
"image-keyboard-response",106,144721,"0.0-3.31-2.31","wbe9w0os36afhd2",876,"108.csv","","null","resources/images/fishbone.png","null","",NA,NA,NA,NA,""
"image-keyboard-response",107,145319,"0.0-3.32-0.32","wbe9w0os36afhd2",876,"108.csv","","595.6000000014901","resources/trios/L1T2A3.jpg","37","restless",0.5,0.1,0.8,0.602901728216955,"false"
"image-keyboard-response",108,145720,"0.0-3.32-1.32","wbe9w0os36afhd2",876,"108.csv","","null","resources/maskTrios/L1BB.jpg","null","",NA,NA,NA,NA,""
"image-keyboard-response",109,146923,"0.0-3.32-2.32","wbe9w0os36afhd2",876,"108.csv","","null","resources/images/fishbone.png","null","",NA,NA,NA,NA,""
"image-keyboard-response",110,148283,"0.0-3.33-0.33","wbe9w0os36afhd2",876,"108.csv","","1357.1999999955297","resources/trios/L1T4A3.jpg","37","restless",0.5,0.1,0.8,0.535072715672117,"false"
"image-keyboard-response",111,148685,"0.0-3.33-1.33","wbe9w0os36afhd2",876,"108.csv","","null","resources/maskTrios/L1BB.jpg","null","",NA,NA,NA,NA,""
"image-keyboard-response",112,149887,"0.0-3.33-2.33","wbe9w0os36afhd2",876,"108.csv","","null","resources/images/fishbone.png","null","",NA,NA,NA,NA,""
"image-keyboard-response",113,151477,"0.0-3.34-0.34","wbe9w0os36afhd2",876,"108.csv","","1586.6000000014901","resources/trios/L1T4A1.jpg","38","restless",0.5,0.1,0.7,0.675828133625196,"false"
"image-keyboard-response",114,151878,"0.0-3.34-1.34","wbe9w0os36afhd2",876,"108.csv","","null","resources/maskTrios/BT4B.jpg","null","",NA,NA,NA,NA,""
"image-keyboard-response",115,153081,"0.0-3.34-2.34","wbe9w0os36afhd2",876,"108.csv","","null","resources/images/fishbone.png","null","",NA,NA,NA,NA,""
"image-keyboard-response",116,154042,"0.0-3.35-0.35","wbe9w0os36afhd2",876,"108.csv","","958.5","resources/trios/L1T4A3.jpg","38","restless",0.5,0.1,0.7,0.696438589465652,"false"
"image-keyboard-response",117,154443,"0.0-3.35-1.35","wbe9w0os36afhd2",876,"108.csv","","null","resources/maskTrios/BT4B.jpg","null","",NA,NA,NA,NA,""
"image-keyboard-response",118,155648,"0.0-3.35-2.35","wbe9w0os36afhd2",876,"108.csv","","null","resources/images/fishbone.png","null","",NA,NA,NA,NA,""
"image-keyboard-response",119,155934,"0.0-3.36-0.36","wbe9w0os36afhd2",876,"108.csv","","283.29999999701977","resources/trios/L2T4A3.jpg","37","restless",0.5,0.1,0.7,0.832679112293135,"false"
"image-keyboard-response",120,156336,"0.0-3.36-1.36","wbe9w0os36afhd2",876,"108.csv","","null","resources/maskTrios/L2BB.jpg","null","",NA,NA,NA,NA,""
"image-keyboard-response",121,157539,"0.0-3.36-2.36","wbe9w0os36afhd2",876,"108.csv","","null","resources/images/fishbone.png","null","",NA,NA,NA,NA,""
"image-keyboard-response",122,157792,"0.0-3.37-0.37","wbe9w0os36afhd2",876,"108.csv","","250.60000000149012","resources/trios/L1T2A1.jpg","39","restless",0.5,0.1,0.6,0.938519845948649,"false"
"image-keyboard-response",123,158195,"0.0-3.37-1.37","wbe9w0os36afhd2",876,"108.csv","","null","resources/maskTrios/BBA1.jpg","null","",NA,NA,NA,NA,""
"image-keyboard-response",124,159399,"0.0-3.37-2.37","wbe9w0os36afhd2",876,"108.csv","","null","resources/images/fishbone.png","null","",NA,NA,NA,NA,""
"image-keyboard-response",125,159645,"0.0-3.38-0.38","wbe9w0os36afhd2",876,"108.csv","","244.19999999552965","resources/trios/L1T4A1.jpg","38","restless",0.5,0.1,0.6,0.132348026931248,"false"
"image-keyboard-response",126,160047,"0.0-3.38-1.38","wbe9w0os36afhd2",876,"108.csv","","null","resources/maskTrios/BT4B.jpg","null","",NA,NA,NA,NA,""
"image-keyboard-response",127,161249,"0.0-3.38-2.38","wbe9w0os36afhd2",876,"108.csv","","null","resources/images/fishbone.png","null","",NA,NA,NA,NA,""
"image-keyboard-response",128,161423,"0.0-3.39-0.39","wbe9w0os36afhd2",876,"108.csv","","171.59999999403954","resources/trios/L2T4A1.jpg","39","restless",0.5,0.1,0.5,0.369256564058965,"true"
"image-keyboard-response",129,161825,"0.0-3.39-1.39","wbe9w0os36afhd2",876,"108.csv","","null","resources/maskTrios/BBA1.jpg","null","",NA,NA,NA,NA,""
"image-keyboard-response",130,163028,"0.0-3.39-2.39","wbe9w0os36afhd2",876,"108.csv","","null","resources/images/coin2.png","null","",NA,NA,NA,NA,""
"image-keyboard-response",131,163268,"0.0-3.40-0.40","wbe9w0os36afhd2",876,"108.csv","","236.89999999850988","resources/trios/L1T4A1.jpg","37","restless",0.5,0.1,0.5,0.203043702009094,"true"
"image-keyboard-response",132,163670,"0.0-3.40-1.40","wbe9w0os36afhd2",876,"108.csv","","null","resources/maskTrios/L1BB.jpg","null","",NA,NA,NA,NA,""
"image-keyboard-response",133,164872,"0.0-3.40-2.40","wbe9w0os36afhd2",876,"108.csv","","null","resources/images/coin2.png","null","",NA,NA,NA,NA,""
"image-keyboard-response",134,165054,"0.0-3.41-0.41","wbe9w0os36afhd2",876,"108.csv","","179.79999999701977","resources/trios/L1T4A3.jpg","38","restless",0.5,0.1,0.5,0.00956957939746639,"true"
"image-keyboard-response",135,165456,"0.0-3.41-1.41","wbe9w0os36afhd2",876,"108.csv","","null","resources/maskTrios/BT4B.jpg","null","",NA,NA,NA,NA,""
"image-keyboard-response",136,166659,"0.0-3.41-2.41","wbe9w0os36afhd2",876,"108.csv","","null","resources/images/coin2.png","null","",NA,NA,NA,NA,""
"image-keyboard-response",137,166887,"0.0-3.42-0.42","wbe9w0os36afhd2",876,"108.csv","","225.39999999850988","resources/trios/L1T2A1.jpg","37","restless",0.6,0.2,0.5,0.0514949808566334,"true"
"image-keyboard-response",138,167288,"0.0-3.42-1.42","wbe9w0os36afhd2",876,"108.csv","","null","resources/maskTrios/L1BB.jpg","null","",NA,NA,NA,NA,""
"image-keyboard-response",139,168490,"0.0-3.42-2.42","wbe9w0os36afhd2",876,"108.csv","","null","resources/images/coin2.png","null","",NA,NA,NA,NA,""
"image-keyboard-response",140,168708,"0.0-3.43-0.43","wbe9w0os36afhd2",876,"108.csv","","216.60000000149012","resources/trios/L1T2A3.jpg","38","restless",0.6,0.2,0.5,0.721557694037072,"false"
"image-keyboard-response",141,169109,"0.0-3.43-1.43","wbe9w0os36afhd2",876,"108.csv","","null","resources/maskTrios/BT2B.jpg","null","",NA,NA,NA,NA,""
"image-keyboard-response",142,170312,"0.0-3.43-2.43","wbe9w0os36afhd2",876,"108.csv","","null","resources/images/fishbone.png","null","",NA,NA,NA,NA,""
"image-keyboard-response",143,170557,"0.0-3.44-0.44","wbe9w0os36afhd2",876,"108.csv","","241.59999999403954","resources/trios/L1T4A3.jpg","37","restless",0.6,0.2,0.4,0.300458629903125,"true"
"image-keyboard-response",144,170962,"0.0-3.44-1.44","wbe9w0os36afhd2",876,"108.csv","","null","resources/maskTrios/L1BB.jpg","null","",NA,NA,NA,NA,""
"image-keyboard-response",145,172165,"0.0-3.44-2.44","wbe9w0os36afhd2",876,"108.csv","","null","resources/images/coin2.png","null","",NA,NA,NA,NA,""
"image-keyboard-response",146,172364,"0.0-3.45-0.45","wbe9w0os36afhd2",876,"108.csv","","198.30000000447035","resources/trios/L1T4A1.jpg","38","restless",0.6,0.2,0.3,0.299377010582932,"false"
"image-keyboard-response",147,172766,"0.0-3.45-1.45","wbe9w0os36afhd2",876,"108.csv","","null","resources/maskTrios/BT4B.jpg","null","",NA,NA,NA,NA,""
"image-keyboard-response",148,173971,"0.0-3.45-2.45","wbe9w0os36afhd2",876,"108.csv","","null","resources/images/fishbone.png","null","",NA,NA,NA,NA,""
"image-keyboard-response",149,173997,"0.0-3.46-0.46","wbe9w0os36afhd2",876,"108.csv","","23.5","resources/trios/L2T4A1.jpg","39","restless",0.5,0.2,0.3,0.108406745662188,"true"
"image-keyboard-response",150,174398,"0.0-3.46-1.46","wbe9w0os36afhd2",876,"108.csv","","null","resources/maskTrios/BBA1.jpg","null","",NA,NA,NA,NA,""
"image-keyboard-response",151,175601,"0.0-3.46-2.46","wbe9w0os36afhd2",876,"108.csv","","null","resources/images/coin2.png","null","",NA,NA,NA,NA,""
"image-keyboard-response",152,175874,"0.0-3.47-0.47","wbe9w0os36afhd2",876,"108.csv","","270.6000000014901","resources/trios/L1T4A3.jpg","37","restless",0.5,0.2,0.3,0.329587108700263,"true"
"image-keyboard-response",153,176276,"0.0-3.47-1.47","wbe9w0os36afhd2",876,"108.csv","","null","resources/maskTrios/L1BB.jpg","null","",NA,NA,NA,NA,""
"image-keyboard-response",154,177479,"0.0-3.47-2.47","wbe9w0os36afhd2",876,"108.csv","","null","resources/images/coin2.png","null","",NA,NA,NA,NA,""
"image-keyboard-response",155,177774,"0.0-3.48-0.48","wbe9w0os36afhd2",876,"108.csv","","293.5","resources/trios/L2T2A3.jpg","39","restless",0.5,0.2,0.3,0.962791221046187,"false"
"image-keyboard-response",156,178176,"0.0-3.48-1.48","wbe9w0os36afhd2",876,"108.csv","","null","resources/maskTrios/BBA3.jpg","null","",NA,NA,NA,NA,""
"image-keyboard-response",157,179378,"0.0-3.48-2.48","wbe9w0os36afhd2",876,"108.csv","","null","resources/images/fishbone.png","null","",NA,NA,NA,NA,""
"image-keyboard-response",158,179453,"0.0-3.49-0.49","wbe9w0os36afhd2",876,"108.csv","","72.19999999552965","resources/trios/L2T4A1.jpg","37","restless",0.5,0.2,0.3,0.31244662877571,"true"
"image-keyboard-response",159,179856,"0.0-3.49-1.49","wbe9w0os36afhd2",876,"108.csv","","null","resources/maskTrios/L2BB.jpg","null","",NA,NA,NA,NA,""
"image-keyboard-response",160,181058,"0.0-3.49-2.49","wbe9w0os36afhd2",876,"108.csv","","null","resources/images/coin2.png","null","",NA,NA,NA,NA,""
"image-keyboard-response",161,181447,"0.0-3.50-0.50","wbe9w0os36afhd2",876,"108.csv","","386.1000000014901","resources/trios/L2T4A1.jpg","37","restless",0.5,0.2,0.3,0.397906047021947,"true"
"image-keyboard-response",162,181848,"0.0-3.50-1.50","wbe9w0os36afhd2",876,"108.csv","","null","resources/maskTrios/L2BB.jpg","null","",NA,NA,NA,NA,""
"image-keyboard-response",163,183051,"0.0-3.50-2.50","wbe9w0os36afhd2",876,"108.csv","","null","resources/images/coin2.png","null","",NA,NA,NA,NA,""
"image-keyboard-response",164,183279,"0.0-3.51-0.51","wbe9w0os36afhd2",876,"108.csv","","225.10000000149012","resources/trios/L2T2A1.jpg","37","restless",0.5,0.2,0.3,0.32286197929762,"true"
"image-keyboard-response",165,183681,"0.0-3.51-1.51","wbe9w0os36afhd2",876,"108.csv","","null","resources/maskTrios/L2BB.jpg","null","",NA,NA,NA,NA,""
"image-keyboard-response",166,184883,"0.0-3.51-2.51","wbe9w0os36afhd2",876,"108.csv","","null","resources/images/coin2.png","null","",NA,NA,NA,NA,""
"image-keyboard-response",167,185114,"0.0-3.52-0.52","wbe9w0os36afhd2",876,"108.csv","","229.5","resources/trios/L2T4A1.jpg","37","restless",0.5,0.3,0.3,0.00666646411653171,"true"
"image-keyboard-response",168,185517,"0.0-3.52-1.52","wbe9w0os36afhd2",876,"108.csv","","null","resources/maskTrios/L2BB.jpg","null","",NA,NA,NA,NA,""
"image-keyboard-response",169,186719,"0.0-3.52-2.52","wbe9w0os36afhd2",876,"108.csv","","null","resources/images/coin2.png","null","",NA,NA,NA,NA,""
"image-keyboard-response",170,186929,"0.0-3.53-0.53","wbe9w0os36afhd2",876,"108.csv","","207.90000000596046","resources/trios/L2T2A1.jpg","37","restless",0.5,0.3,0.3,0.727015735400988,"false"
"image-keyboard-response",171,187331,"0.0-3.53-1.53","wbe9w0os36afhd2",876,"108.csv","","null","resources/maskTrios/L2BB.jpg","null","",NA,NA,NA,NA,""
"image-keyboard-response",172,188533,"0.0-3.53-2.53","wbe9w0os36afhd2",876,"108.csv","","null","resources/images/fishbone.png","null","",NA,NA,NA,NA,""
"image-keyboard-response",173,188920,"0.0-3.54-0.54","wbe9w0os36afhd2",876,"108.csv","","384","resources/trios/L1T4A3.jpg","38","restless",0.5,0.3,0.3,0.798728127405814,"false"
"image-keyboard-response",174,189323,"0.0-3.54-1.54","wbe9w0os36afhd2",876,"108.csv","","null","resources/maskTrios/BT4B.jpg","null","",NA,NA,NA,NA,""
"image-keyboard-response",175,190525,"0.0-3.54-2.54","wbe9w0os36afhd2",876,"108.csv","","null","resources/images/fishbone.png","null","",NA,NA,NA,NA,""
"image-keyboard-response",176,190790,"0.0-3.55-0.55","wbe9w0os36afhd2",876,"108.csv","","263","resources/trios/L2T4A3.jpg","39","restless",0.6,0.3,0.3,0.336705486515017,"false"
"image-keyboard-response",177,191192,"0.0-3.55-1.55","wbe9w0os36afhd2",876,"108.csv","","null","resources/maskTrios/BBA3.jpg","null","",NA,NA,NA,NA,""
"image-keyboard-response",178,192394,"0.0-3.55-2.55","wbe9w0os36afhd2",876,"108.csv","","null","resources/images/fishbone.png","null","",NA,NA,NA,NA,""
"image-keyboard-response",179,192640,"0.0-3.56-0.56","wbe9w0os36afhd2",876,"108.csv","","243.90000000596046","resources/trios/L1T4A3.jpg","37","restless",0.7,0.3,0.3,0.870079373702769,"false"
"image-keyboard-response",180,193042,"0.0-3.56-1.56","wbe9w0os36afhd2",876,"108.csv","","null","resources/maskTrios/L1BB.jpg","null","",NA,NA,NA,NA,""
"image-keyboard-response",181,194245,"0.0-3.56-2.56","wbe9w0os36afhd2",876,"108.csv","","null","resources/images/fishbone.png","null","",NA,NA,NA,NA,""
"image-keyboard-response",182,194500,"0.0-3.57-0.57","wbe9w0os36afhd2",876,"108.csv","","253.20000000298023","resources/trios/L1T4A3.jpg","38","restless",0.7,0.4,0.3,0.997751532811832,"false"
"image-keyboard-response",183,194902,"0.0-3.57-1.57","wbe9w0os36afhd2",876,"108.csv","","null","resources/maskTrios/BT4B.jpg","null","",NA,NA,NA,NA,""
"image-keyboard-response",184,196104,"0.0-3.57-2.57","wbe9w0os36afhd2",876,"108.csv","","null","resources/images/fishbone.png","null","",NA,NA,NA,NA,""
"image-keyboard-response",185,196168,"0.0-3.58-0.58","wbe9w0os36afhd2",876,"108.csv","","61.5","resources/trios/L1T4A1.jpg","37","restless",0.7,0.4,0.3,0.176956849480838,"true"
"image-keyboard-response",186,196570,"0.0-3.58-1.58","wbe9w0os36afhd2",876,"108.csv","","null","resources/maskTrios/L1BB.jpg","null","",NA,NA,NA,NA,""
"image-keyboard-response",187,197773,"0.0-3.58-2.58","wbe9w0os36afhd2",876,"108.csv","","null","resources/images/coin2.png","null","",NA,NA,NA,NA,""
"image-keyboard-response",188,197993,"0.0-3.59-0.59","wbe9w0os36afhd2",876,"108.csv","","218.40000000596046","resources/trios/L2T4A3.jpg","37","restless",0.7,0.4,0.3,0.956635478051119,"false"
"image-keyboard-response",189,198397,"0.0-3.59-1.59","wbe9w0os36afhd2",876,"108.csv","","null","resources/maskTrios/L2BB.jpg","null","",NA,NA,NA,NA,""
"image-keyboard-response",190,199600,"0.0-3.59-2.59","wbe9w0os36afhd2",876,"108.csv","","null","resources/images/fishbone.png","null","",NA,NA,NA,NA,""
"image-keyboard-response",191,199804,"0.0-3.60-0.60","wbe9w0os36afhd2",876,"108.csv","","201.79999999701977","resources/trios/L1T4A1.jpg","39","restless",0.7,0.4,0.3,0.929010085769126,"false"
"image-keyboard-response",192,200206,"0.0-3.60-1.60","wbe9w0os36afhd2",876,"108.csv","","null","resources/maskTrios/BBA1.jpg","null","",NA,NA,NA,NA,""
"image-keyboard-response",193,201407,"0.0-3.60-2.60","wbe9w0os36afhd2",876,"108.csv","","null","resources/images/fishbone.png","null","",NA,NA,NA,NA,""
"image-keyboard-response",194,201860,"0.0-3.61-0.61","wbe9w0os36afhd2",876,"108.csv","","451.30000000447035","resources/trios/L2T2A1.jpg","37","restless",0.7,0.4,0.3,0.357402813482109,"true"
"image-keyboard-response",195,202262,"0.0-3.61-1.61","wbe9w0os36afhd2",876,"108.csv","","null","resources/maskTrios/L2BB.jpg","null","",NA,NA,NA,NA,""
"image-keyboard-response",196,203465,"0.0-3.61-2.61","wbe9w0os36afhd2",876,"108.csv","","null","resources/images/coin2.png","null","",NA,NA,NA,NA,""
"image-keyboard-response",197,204640,"0.0-3.62-0.62","wbe9w0os36afhd2",876,"108.csv","","1172.2000000029802","resources/trios/L1T4A3.jpg","39","restless",0.7,0.4,0.3,0.119637253004742,"true"
"image-keyboard-response",198,205042,"0.0-3.62-1.62","wbe9w0os36afhd2",876,"108.csv","","null","resources/maskTrios/BBA3.jpg","null","",NA,NA,NA,NA,""
"image-keyboard-response",199,206245,"0.0-3.62-2.62","wbe9w0os36afhd2",876,"108.csv","","null","resources/images/coin2.png","null","",NA,NA,NA,NA,""
"image-keyboard-response",200,206816,"0.0-3.63-0.63","wbe9w0os36afhd2",876,"108.csv","","569.1000000014901","resources/trios/L1T4A3.jpg","37","restless",0.7,0.4,0.3,0.331672206264116,"true"
"image-keyboard-response",201,207218,"0.0-3.63-1.63","wbe9w0os36afhd2",876,"108.csv","","null","resources/maskTrios/L1BB.jpg","null","",NA,NA,NA,NA,""
"image-keyboard-response",202,208419,"0.0-3.63-2.63","wbe9w0os36afhd2",876,"108.csv","","null","resources/images/coin2.png","null","",NA,NA,NA,NA,""
"image-keyboard-response",203,208767,"0.0-3.64-0.64","wbe9w0os36afhd2",876,"108.csv","","346.79999999701977","resources/trios/L2T2A1.jpg","39","restless",0.7,0.4,0.3,0.805593269508354,"false"
"image-keyboard-response",204,209169,"0.0-3.64-1.64","wbe9w0os36afhd2",876,"108.csv","","null","resources/maskTrios/BBA1.jpg","null","",NA,NA,NA,NA,""
"image-keyboard-response",205,210371,"0.0-3.64-2.64","wbe9w0os36afhd2",876,"108.csv","","null","resources/images/fishbone.png","null","",NA,NA,NA,NA,""
"image-keyboard-response",206,210598,"0.0-3.65-0.65","wbe9w0os36afhd2",876,"108.csv","","224.90000000596046","resources/trios/L2T2A1.jpg","37","restless",0.7,0.4,0.3,0.159079703039023,"true"
"image-keyboard-response",207,210999,"0.0-3.65-1.65","wbe9w0os36afhd2",876,"108.csv","","null","resources/maskTrios/L2BB.jpg","null","",NA,NA,NA,NA,""
"image-keyboard-response",208,212202,"0.0-3.65-2.65","wbe9w0os36afhd2",876,"108.csv","","null","resources/images/coin2.png","null","",NA,NA,NA,NA,""
"image-keyboard-response",209,212473,"0.0-3.66-0.66","wbe9w0os36afhd2",876,"108.csv","","267.79999999701977","resources/trios/L1T2A1.jpg","37","restless",0.7,0.5,0.3,0.68651695690574,"true"
"image-keyboard-response",210,212874,"0.0-3.66-1.66","wbe9w0os36afhd2",876,"108.csv","","null","resources/maskTrios/L1BB.jpg","null","",NA,NA,NA,NA,""
"image-keyboard-response",211,214077,"0.0-3.66-2.66","wbe9w0os36afhd2",876,"108.csv","","null","resources/images/coin2.png","null","",NA,NA,NA,NA,""
"image-keyboard-response",212,214319,"0.0-3.67-0.67","wbe9w0os36afhd2",876,"108.csv","","239.20000000298023","resources/trios/L1T4A3.jpg","37","restless",0.7,0.5,0.3,0.0543254467178811,"true"
"image-keyboard-response",213,214720,"0.0-3.67-1.67","wbe9w0os36afhd2",876,"108.csv","","null","resources/maskTrios/L1BB.jpg","null","",NA,NA,NA,NA,""
"image-keyboard-response",214,215922,"0.0-3.67-2.67","wbe9w0os36afhd2",876,"108.csv","","null","resources/images/coin2.png","null","",NA,NA,NA,NA,""
"image-keyboard-response",215,216412,"0.0-3.68-0.68","wbe9w0os36afhd2",876,"108.csv","","489.09999999403954","resources/trios/L1T2A3.jpg","37","restless",0.7,0.5,0.3,0.353334471061826,"true"
"image-keyboard-response",216,216814,"0.0-3.68-1.68","wbe9w0os36afhd2",876,"108.csv","","null","resources/maskTrios/L1BB.jpg","null","",NA,NA,NA,NA,""
"image-keyboard-response",217,218015,"0.0-3.68-2.68","wbe9w0os36afhd2",876,"108.csv","","null","resources/images/coin2.png","null","",NA,NA,NA,NA,""
"image-keyboard-response",218,218196,"0.0-3.69-0.69","wbe9w0os36afhd2",876,"108.csv","","178.70000000298023","resources/trios/L2T2A3.jpg","37","restless",0.7,0.5,0.3,0.547709619308805,"true"
"image-keyboard-response",219,218601,"0.0-3.69-1.69","wbe9w0os36afhd2",876,"108.csv","","null","resources/maskTrios/L2BB.jpg","null","",NA,NA,NA,NA,""
"image-keyboard-response",220,219805,"0.0-3.69-2.69","wbe9w0os36afhd2",876,"108.csv","","null","resources/images/coin2.png","null","",NA,NA,NA,NA,""
"image-keyboard-response",221,220231,"0.0-3.70-0.70","wbe9w0os36afhd2",876,"108.csv","","424.19999999552965","resources/trios/L2T2A3.jpg","37","restless",0.6,0.5,0.3,0.046211725589195,"true"
"image-keyboard-response",222,220633,"0.0-3.70-1.70","wbe9w0os36afhd2",876,"108.csv","","null","resources/maskTrios/L2BB.jpg","null","",NA,NA,NA,NA,""
"image-keyboard-response",223,221835,"0.0-3.70-2.70","wbe9w0os36afhd2",876,"108.csv","","null","resources/images/coin2.png","null","",NA,NA,NA,NA,""
"image-keyboard-response",224,223386,"0.0-3.71-0.71","wbe9w0os36afhd2",876,"108.csv","","1549.1000000014901","resources/trios/L2T2A1.jpg","37","restless",0.6,0.5,0.3,0.190190267459454,"true"
"image-keyboard-response",225,223789,"0.0-3.71-1.71","wbe9w0os36afhd2",876,"108.csv","","null","resources/maskTrios/L2BB.jpg","null","",NA,NA,NA,NA,""
"image-keyboard-response",226,224991,"0.0-3.71-2.71","wbe9w0os36afhd2",876,"108.csv","","null","resources/images/coin2.png","null","",NA,NA,NA,NA,""
"image-keyboard-response",227,225388,"0.0-3.72-0.72","wbe9w0os36afhd2",876,"108.csv","","394.29999999701977","resources/trios/L1T2A3.jpg","37","restless",0.7,0.5,0.2,0.222560885002941,"true"
"image-keyboard-response",228,225790,"0.0-3.72-1.72","wbe9w0os36afhd2",876,"108.csv","","null","resources/maskTrios/L1BB.jpg","null","",NA,NA,NA,NA,""
"image-keyboard-response",229,226993,"0.0-3.72-2.72","wbe9w0os36afhd2",876,"108.csv","","null","resources/images/coin2.png","null","",NA,NA,NA,NA,""
"image-keyboard-response",230,227584,"0.0-3.73-0.73","wbe9w0os36afhd2",876,"108.csv","","588.5999999940395","resources/trios/L2T4A1.jpg","37","restless",0.7,0.5,0.3,0.333080590457858,"true"
"image-keyboard-response",231,227986,"0.0-3.73-1.73","wbe9w0os36afhd2",876,"108.csv","","null","resources/maskTrios/L2BB.jpg","null","",NA,NA,NA,NA,""
"image-keyboard-response",232,229190,"0.0-3.73-2.73","wbe9w0os36afhd2",876,"108.csv","","null","resources/images/coin2.png","null","",NA,NA,NA,NA,""
"image-keyboard-response",233,229420,"0.0-3.74-0.74","wbe9w0os36afhd2",876,"108.csv","","228","resources/trios/L1T2A3.jpg","37","restless",0.7,0.5,0.3,0.165139124780386,"true"
"image-keyboard-response",234,229823,"0.0-3.74-1.74","wbe9w0os36afhd2",876,"108.csv","","null","resources/maskTrios/L1BB.jpg","null","",NA,NA,NA,NA,""
"image-keyboard-response",235,231025,"0.0-3.74-2.74","wbe9w0os36afhd2",876,"108.csv","","null","resources/images/coin2.png","null","",NA,NA,NA,NA,""
"image-keyboard-response",236,231393,"0.0-3.75-0.75","wbe9w0os36afhd2",876,"108.csv","","366","resources/trios/L1T4A1.jpg","37","restless",0.7,0.5,0.3,0.351748109363384,"true"
"image-keyboard-response",237,231795,"0.0-3.75-1.75","wbe9w0os36afhd2",876,"108.csv","","null","resources/maskTrios/L1BB.jpg","null","",NA,NA,NA,NA,""
"image-keyboard-response",238,232998,"0.0-3.75-2.75","wbe9w0os36afhd2",876,"108.csv","","null","resources/images/coin2.png","null","",NA,NA,NA,NA,""
"image-keyboard-response",239,233310,"0.0-3.76-0.76","wbe9w0os36afhd2",876,"108.csv","","309.8999999985099","resources/trios/L2T4A1.jpg","37","restless",0.7,0.5,0.3,0.562691712224269,"true"
"image-keyboard-response",240,233711,"0.0-3.76-1.76","wbe9w0os36afhd2",876,"108.csv","","null","resources/maskTrios/L2BB.jpg","null","",NA,NA,NA,NA,""
"image-keyboard-response",241,234914,"0.0-3.76-2.76","wbe9w0os36afhd2",876,"108.csv","","null","resources/images/coin2.png","null","",NA,NA,NA,NA,""
"image-keyboard-response",242,235125,"0.0-3.77-0.77","wbe9w0os36afhd2",876,"108.csv","","208.60000000149012","resources/trios/L1T4A1.jpg","38","restless",0.6,0.5,0.3,0.639742652019146,"false"
"image-keyboard-response",243,235527,"0.0-3.77-1.77","wbe9w0os36afhd2",876,"108.csv","","null","resources/maskTrios/BT4B.jpg","null","",NA,NA,NA,NA,""
"image-keyboard-response",244,236730,"0.0-3.77-2.77","wbe9w0os36afhd2",876,"108.csv","","null","resources/images/fishbone.png","null","",NA,NA,NA,NA,""
"image-keyboard-response",245,237218,"0.0-3.78-0.78","wbe9w0os36afhd2",876,"108.csv","","487.3999999985099","resources/trios/L1T2A1.jpg","37","restless",0.6,0.5,0.3,0.936538275493578,"false"
"image-keyboard-response",246,237620,"0.0-3.78-1.78","wbe9w0os36afhd2",876,"108.csv","","null","resources/maskTrios/L1BB.jpg","null","",NA,NA,NA,NA,""
"image-keyboard-response",247,238822,"0.0-3.78-2.78","wbe9w0os36afhd2",876,"108.csv","","null","resources/images/fishbone.png","null","",NA,NA,NA,NA,""
"image-keyboard-response",248,239424,"0.0-3.79-0.79","wbe9w0os36afhd2",876,"108.csv","","599.2000000029802","resources/trios/L1T2A1.jpg","37","restless",0.6,0.5,0.3,0.955210590235909,"false"
"image-keyboard-response",249,239826,"0.0-3.79-1.79","wbe9w0os36afhd2",876,"108.csv","","null","resources/maskTrios/L1BB.jpg","null","",NA,NA,NA,NA,""
"image-keyboard-response",250,241028,"0.0-3.79-2.79","wbe9w0os36afhd2",876,"108.csv","","null","resources/images/fishbone.png","null","",NA,NA,NA,NA,""
"image-keyboard-response",251,241603,"0.0-3.80-0.80","wbe9w0os36afhd2",876,"108.csv","","573","resources/trios/L1T4A3.jpg","39","restless",0.5,0.5,0.3,0.400905712977065,"false"
"image-keyboard-response",252,242005,"0.0-3.80-1.80","wbe9w0os36afhd2",876,"108.csv","","null","resources/maskTrios/BBA3.jpg","null","",NA,NA,NA,NA,""
"image-keyboard-response",253,243207,"0.0-3.80-2.80","wbe9w0os36afhd2",876,"108.csv","","null","resources/images/fishbone.png","null","",NA,NA,NA,NA,""
"image-keyboard-response",254,243868,"0.0-3.81-0.81","wbe9w0os36afhd2",876,"108.csv","","657.8000000044703","resources/trios/L2T4A3.jpg","37","restless",0.5,0.5,0.3,0.393441774038945,"true"
"image-keyboard-response",255,244270,"0.0-3.81-1.81","wbe9w0os36afhd2",876,"108.csv","","null","resources/maskTrios/L2BB.jpg","null","",NA,NA,NA,NA,""
"image-keyboard-response",256,245472,"0.0-3.81-2.81","wbe9w0os36afhd2",876,"108.csv","","null","resources/images/coin2.png","null","",NA,NA,NA,NA,""
"image-keyboard-response",257,245989,"0.0-3.82-0.82","wbe9w0os36afhd2",876,"108.csv","","513.6999999955297","resources/trios/L1T4A1.jpg","37","restless",0.5,0.5,0.3,0.472480475776204,"true"
"image-keyboard-response",258,246391,"0.0-3.82-1.82","wbe9w0os36afhd2",876,"108.csv","","null","resources/maskTrios/L1BB.jpg","null","",NA,NA,NA,NA,""
"image-keyboard-response",259,247594,"0.0-3.82-2.82","wbe9w0os36afhd2",876,"108.csv","","null","resources/images/coin2.png","null","",NA,NA,NA,NA,""
"image-keyboard-response",260,248662,"0.0-3.83-0.83","wbe9w0os36afhd2",876,"108.csv","","1066.5","resources/trios/L1T4A1.jpg","37","restless",0.5,0.5,0.3,0.907955274484133,"false"
"image-keyboard-response",261,249063,"0.0-3.83-1.83","wbe9w0os36afhd2",876,"108.csv","","null","resources/maskTrios/L1BB.jpg","null","",NA,NA,NA,NA,""
"image-keyboard-response",262,250267,"0.0-3.83-2.83","wbe9w0os36afhd2",876,"108.csv","","null","resources/images/fishbone.png","null","",NA,NA,NA,NA,""
"image-keyboard-response",263,252402,"0.0-3.84-0.84","wbe9w0os36afhd2",876,"108.csv","","2131.7000000029802","resources/trios/L2T2A1.jpg","38","restless",0.5,0.5,0.3,0.957027184250826,"false"
"image-keyboard-response",264,252804,"0.0-3.84-1.84","wbe9w0os36afhd2",876,"108.csv","","null","resources/maskTrios/BT2B.jpg","null","",NA,NA,NA,NA,""
"image-keyboard-response",265,254005,"0.0-3.84-2.84","wbe9w0os36afhd2",876,"108.csv","","null","resources/images/fishbone.png","null","",NA,NA,NA,NA,""
"image-keyboard-response",266,256137,"0.0-3.85-0.85","wbe9w0os36afhd2",876,"108.csv","","2130.2999999970198","resources/trios/L2T4A3.jpg","39","restless",0.5,0.5,0.3,0.970380647261361,"false"
"image-keyboard-response",267,256543,"0.0-3.85-1.85","wbe9w0os36afhd2",876,"108.csv","","null","resources/maskTrios/BBA3.jpg","null","",NA,NA,NA,NA,""
"image-keyboard-response",268,257746,"0.0-3.85-2.85","wbe9w0os36afhd2",876,"108.csv","","null","resources/images/fishbone.png","null","",NA,NA,NA,NA,""
"image-keyboard-response",269,258201,"0.0-3.86-0.86","wbe9w0os36afhd2",876,"108.csv","","452.3999999985099","resources/trios/L1T2A1.jpg","39","restless",0.5,0.5,0.3,0.628023920394348,"false"
"image-keyboard-response",270,258602,"0.0-3.86-1.86","wbe9w0os36afhd2",876,"108.csv","","null","resources/maskTrios/BBA1.jpg","null","",NA,NA,NA,NA,""
"image-keyboard-response",271,259805,"0.0-3.86-2.86","wbe9w0os36afhd2",876,"108.csv","","null","resources/images/fishbone.png","null","",NA,NA,NA,NA,""
"image-keyboard-response",272,260154,"0.0-3.87-0.87","wbe9w0os36afhd2",876,"108.csv","","346.6000000014901","resources/trios/L2T4A1.jpg","38","restless",0.5,0.5,0.3,0.081061999612285,"true"
"image-keyboard-response",273,260555,"0.0-3.87-1.87","wbe9w0os36afhd2",876,"108.csv","","null","resources/maskTrios/BT4B.jpg","null","",NA,NA,NA,NA,""
"image-keyboard-response",274,261758,"0.0-3.87-2.87","wbe9w0os36afhd2",876,"108.csv","","null","resources/images/coin2.png","null","",NA,NA,NA,NA,""
"image-keyboard-response",275,262614,"0.0-3.88-0.88","wbe9w0os36afhd2",876,"108.csv","","853.3999999985099","resources/trios/L2T2A1.jpg","38","restless",0.4,0.5,0.3,0.0159058192936794,"true"
"image-keyboard-response",276,263016,"0.0-3.88-1.88","wbe9w0os36afhd2",876,"108.csv","","null","resources/maskTrios/BT2B.jpg","null","",NA,NA,NA,NA,""
"image-keyboard-response",277,264219,"0.0-3.88-2.88","wbe9w0os36afhd2",876,"108.csv","","null","resources/images/coin2.png","null","",NA,NA,NA,NA,""
"image-keyboard-response",278,264468,"0.0-3.89-0.89","wbe9w0os36afhd2",876,"108.csv","","247.20000000298023","resources/trios/L2T2A1.jpg","38","restless",0.4,0.5,0.3,0.508481639933461,"false"
"image-keyboard-response",279,264870,"0.0-3.89-1.89","wbe9w0os36afhd2",876,"108.csv","","null","resources/maskTrios/BT2B.jpg","null","",NA,NA,NA,NA,""
"image-keyboard-response",280,266074,"0.0-3.89-2.89","wbe9w0os36afhd2",876,"108.csv","","null","resources/images/fishbone.png","null","",NA,NA,NA,NA,""
"image-keyboard-response",281,266389,"0.0-3.90-0.90","wbe9w0os36afhd2",876,"108.csv","","312.6000000014901","resources/trios/L2T4A1.jpg","37","restless",0.4,0.5,0.3,0.696548443592343,"false"
"image-keyboard-response",282,266791,"0.0-3.90-1.90","wbe9w0os36afhd2",876,"108.csv","","null","resources/maskTrios/L2BB.jpg","null","",NA,NA,NA,NA,""
"image-keyboard-response",283,267997,"0.0-3.90-2.90","wbe9w0os36afhd2",876,"108.csv","","null","resources/images/fishbone.png","null","",NA,NA,NA,NA,""
"image-keyboard-response",284,268231,"0.0-3.91-0.91","wbe9w0os36afhd2",876,"108.csv","","231.20000000298023","resources/trios/L1T2A1.jpg","39","restless",0.4,0.5,0.3,0.605960021619113,"false"
"image-keyboard-response",285,268632,"0.0-3.91-1.91","wbe9w0os36afhd2",876,"108.csv","","null","resources/maskTrios/BBA1.jpg","null","",NA,NA,NA,NA,""
"image-keyboard-response",286,269834,"0.0-3.91-2.91","wbe9w0os36afhd2",876,"108.csv","","null","resources/images/fishbone.png","null","",NA,NA,NA,NA,""
"image-keyboard-response",287,269965,"0.0-3.92-0.92","wbe9w0os36afhd2",876,"108.csv","","129.29999999701977","resources/trios/L2T2A1.jpg","37","restless",0.4,0.5,0.3,0.946727376568451,"false"
"image-keyboard-response",288,270367,"0.0-3.92-1.92","wbe9w0os36afhd2",876,"108.csv","","null","resources/maskTrios/L2BB.jpg","null","",NA,NA,NA,NA,""
"image-keyboard-response",289,271570,"0.0-3.92-2.92","wbe9w0os36afhd2",876,"108.csv","","null","resources/images/fishbone.png","null","",NA,NA,NA,NA,""
"image-keyboard-response",290,272093,"0.0-3.93-0.93","wbe9w0os36afhd2",876,"108.csv","","520.5999999940395","resources/trios/L2T2A3.jpg","38","restless",0.4,0.5,0.2,0.964901754230773,"false"
"image-keyboard-response",291,272495,"0.0-3.93-1.93","wbe9w0os36afhd2",876,"108.csv","","null","resources/maskTrios/BT2B.jpg","null","",NA,NA,NA,NA,""
"image-keyboard-response",292,273698,"0.0-3.93-2.93","wbe9w0os36afhd2",876,"108.csv","","null","resources/images/fishbone.png","null","",NA,NA,NA,NA,""
"image-keyboard-response",293,273919,"0.0-3.94-0.94","wbe9w0os36afhd2",876,"108.csv","","219.39999999850988","resources/trios/L1T2A1.jpg","37","restless",0.4,0.4,0.2,0.748576451254809,"false"
"image-keyboard-response",294,274322,"0.0-3.94-1.94","wbe9w0os36afhd2",876,"108.csv","","null","resources/maskTrios/L1BB.jpg","null","",NA,NA,NA,NA,""
"image-keyboard-response",295,275524,"0.0-3.94-2.94","wbe9w0os36afhd2",876,"108.csv","","null","resources/images/fishbone.png","null","",NA,NA,NA,NA,""
"image-keyboard-response",296,276492,"0.0-3.95-0.95","wbe9w0os36afhd2",876,"108.csv","","965.6999999955297","resources/trios/L1T2A3.jpg","38","restless",0.4,0.4,0.2,0.258477446842294,"true"
"image-keyboard-response",297,276893,"0.0-3.95-1.95","wbe9w0os36afhd2",876,"108.csv","","null","resources/maskTrios/BT2B.jpg","null","",NA,NA,NA,NA,""
"image-keyboard-response",298,278095,"0.0-3.95-2.95","wbe9w0os36afhd2",876,"108.csv","","null","resources/images/coin2.png","null","",NA,NA,NA,NA,""
"image-keyboard-response",299,278611,"0.0-3.96-0.96","wbe9w0os36afhd2",876,"108.csv","","513.7999999970198","resources/trios/L1T2A3.jpg","39","restless",0.4,0.4,0.2,0.0585114110441483,"true"
"image-keyboard-response",300,279012,"0.0-3.96-1.96","wbe9w0os36afhd2",876,"108.csv","","null","resources/maskTrios/BBA3.jpg","null","",NA,NA,NA,NA,""
"image-keyboard-response",301,280215,"0.0-3.96-2.96","wbe9w0os36afhd2",876,"108.csv","","null","resources/images/coin2.png","null","",NA,NA,NA,NA,""
"image-keyboard-response",302,281424,"0.0-3.97-0.97","wbe9w0os36afhd2",876,"108.csv","","1205.7999999970198","resources/trios/L2T2A1.jpg","37","restless",0.5,0.5,0.2,0.457708686667678,"true"
"image-keyboard-response",303,281826,"0.0-3.97-1.97","wbe9w0os36afhd2",876,"108.csv","","null","resources/maskTrios/L2BB.jpg","null","",NA,NA,NA,NA,""
"image-keyboard-response",304,283029,"0.0-3.97-2.97","wbe9w0os36afhd2",876,"108.csv","","null","resources/images/coin2.png","null","",NA,NA,NA,NA,""
"image-keyboard-response",305,284684,"0.0-3.98-0.98","wbe9w0os36afhd2",876,"108.csv","","1653.1000000014901","resources/trios/L2T4A3.jpg","38","restless",0.5,0.5,0.2,0.188575693357979,"true"
"image-keyboard-response",306,285086,"0.0-3.98-1.98","wbe9w0os36afhd2",876,"108.csv","","null","resources/maskTrios/BT4B.jpg","null","",NA,NA,NA,NA,""
"image-keyboard-response",307,286290,"0.0-3.98-2.98","wbe9w0os36afhd2",876,"108.csv","","null","resources/images/coin2.png","null","",NA,NA,NA,NA,""
"image-keyboard-response",308,286616,"0.0-3.99-0.99","wbe9w0os36afhd2",876,"108.csv","","325.79999999701977","resources/trios/L2T2A1.jpg","38","restless",0.5,0.5,0.2,0.740133076189539,"false"
"image-keyboard-response",309,287017,"0.0-3.99-1.99","wbe9w0os36afhd2",876,"108.csv","","null","resources/maskTrios/BT2B.jpg","null","",NA,NA,NA,NA,""
"image-keyboard-response",310,288221,"0.0-3.99-2.99","wbe9w0os36afhd2",876,"108.csv","","null","resources/images/fishbone.png","null","",NA,NA,NA,NA,""
"image-keyboard-response",311,289594,"0.0-3.100-0.100","wbe9w0os36afhd2",876,"108.csv","","1371.6000000014901","resources/trios/L1T4A1.jpg","37","restless",0.5,0.5,0.1,0.9615473899844,"false"
"image-keyboard-response",312,289996,"0.0-3.100-1.100","wbe9w0os36afhd2",876,"108.csv","","null","resources/maskTrios/L1BB.jpg","null","",NA,NA,NA,NA,""
"image-keyboard-response",313,291199,"0.0-3.100-2.100","wbe9w0os36afhd2",876,"108.csv","","null","resources/images/fishbone.png","null","",NA,NA,NA,NA,""
"image-keyboard-response",314,291713,"0.0-3.101-0.101","wbe9w0os36afhd2",876,"108.csv","","509.29999999701977","resources/trios/L1T4A3.jpg","38","restless",0.5,0.5,0.1,0.628288159054522,"false"
"image-keyboard-response",315,292114,"0.0-3.101-1.101","wbe9w0os36afhd2",876,"108.csv","","null","resources/maskTrios/BT4B.jpg","null","",NA,NA,NA,NA,""
"image-keyboard-response",316,293316,"0.0-3.101-2.101","wbe9w0os36afhd2",876,"108.csv","","null","resources/images/fishbone.png","null","",NA,NA,NA,NA,""
"image-keyboard-response",317,293420,"0.0-3.102-0.102","wbe9w0os36afhd2",876,"108.csv","","103.29999999701977","resources/trios/L1T2A3.jpg","39","restless",0.5,0.5,0.1,0.656188260355844,"false"
"image-keyboard-response",318,293822,"0.0-3.102-1.102","wbe9w0os36afhd2",876,"108.csv","","null","resources/maskTrios/BBA3.jpg","null","",NA,NA,NA,NA,""
"image-keyboard-response",319,295026,"0.0-3.102-2.102","wbe9w0os36afhd2",876,"108.csv","","null","resources/images/fishbone.png","null","",NA,NA,NA,NA,""
"image-keyboard-response",320,295226,"0.0-3.103-0.103","wbe9w0os36afhd2",876,"108.csv","","197.19999999552965","resources/trios/L1T4A1.jpg","37","restless",0.5,0.5,0.1,0.113943317221441,"true"
"image-keyboard-response",321,295628,"0.0-3.103-1.103","wbe9w0os36afhd2",876,"108.csv","","null","resources/maskTrios/L1BB.jpg","null","",NA,NA,NA,NA,""
"image-keyboard-response",322,296834,"0.0-3.103-2.103","wbe9w0os36afhd2",876,"108.csv","","null","resources/images/coin2.png","null","",NA,NA,NA,NA,""
"image-keyboard-response",323,297314,"0.0-3.104-0.104","wbe9w0os36afhd2",876,"108.csv","","479.40000000596046","resources/trios/L2T2A1.jpg","37","restless",0.5,0.5,0.1,0.535534647508157,"false"
"image-keyboard-response",324,297716,"0.0-3.104-1.104","wbe9w0os36afhd2",876,"108.csv","","null","resources/maskTrios/L2BB.jpg","null","",NA,NA,NA,NA,""
"image-keyboard-response",325,298917,"0.0-3.104-2.104","wbe9w0os36afhd2",876,"108.csv","","null","resources/images/fishbone.png","null","",NA,NA,NA,NA,""
"image-keyboard-response",326,299308,"0.0-3.105-0.105","wbe9w0os36afhd2",876,"108.csv","","388.5","resources/trios/L1T4A1.jpg","38","restless",0.6,0.5,0.1,0.904510269946159,"false"
"image-keyboard-response",327,299709,"0.0-3.105-1.105","wbe9w0os36afhd2",876,"108.csv","","null","resources/maskTrios/BT4B.jpg","null","",NA,NA,NA,NA,""
"image-keyboard-response",328,300911,"0.0-3.105-2.105","wbe9w0os36afhd2",876,"108.csv","","null","resources/images/fishbone.png","null","",NA,NA,NA,NA,""
"image-keyboard-response",329,301319,"0.0-3.106-0.106","wbe9w0os36afhd2",876,"108.csv","","406.1000000014901","resources/trios/L2T4A1.jpg","39","restless",0.6,0.5,0.1,0.38137297839722,"false"
"image-keyboard-response",330,301721,"0.0-3.106-1.106","wbe9w0os36afhd2",876,"108.csv","","null","resources/maskTrios/BBA1.jpg","null","",NA,NA,NA,NA,""
"image-keyboard-response",331,302922,"0.0-3.106-2.106","wbe9w0os36afhd2",876,"108.csv","","null","resources/images/fishbone.png","null","",NA,NA,NA,NA,""
"image-keyboard-response",332,303174,"0.0-3.107-0.107","wbe9w0os36afhd2",876,"108.csv","","249.40000000596046","resources/trios/L2T2A1.jpg","37","restless",0.6,0.5,0.1,0.397390087133287,"true"
"image-keyboard-response",333,303576,"0.0-3.107-1.107","wbe9w0os36afhd2",876,"108.csv","","null","resources/maskTrios/L2BB.jpg","null","",NA,NA,NA,NA,""
"image-keyboard-response",334,304779,"0.0-3.107-2.107","wbe9w0os36afhd2",876,"108.csv","","null","resources/images/coin2.png","null","",NA,NA,NA,NA,""
"image-keyboard-response",335,305069,"0.0-3.108-0.108","wbe9w0os36afhd2",876,"108.csv","","287.6000000014901","resources/trios/L2T4A1.jpg","37","restless",0.6,0.4,0.1,0.706867837677553,"false"
"image-keyboard-response",336,305471,"0.0-3.108-1.108","wbe9w0os36afhd2",876,"108.csv","","null","resources/maskTrios/L2BB.jpg","null","",NA,NA,NA,NA,""
"image-keyboard-response",337,306674,"0.0-3.108-2.108","wbe9w0os36afhd2",876,"108.csv","","null","resources/images/fishbone.png","null","",NA,NA,NA,NA,""
"image-keyboard-response",338,306844,"0.0-3.109-0.109","wbe9w0os36afhd2",876,"108.csv","","165.60000000149012","resources/trios/L2T2A1.jpg","39","restless",0.6,0.4,0.1,0.560903613043563,"false"
"image-keyboard-response",339,307245,"0.0-3.109-1.109","wbe9w0os36afhd2",876,"108.csv","","null","resources/maskTrios/BBA1.jpg","null","",NA,NA,NA,NA,""
"image-keyboard-response",340,308448,"0.0-3.109-2.109","wbe9w0os36afhd2",876,"108.csv","","null","resources/images/fishbone.png","null","",NA,NA,NA,NA,""
"image-keyboard-response",341,308495,"0.0-3.110-0.110","wbe9w0os36afhd2",876,"108.csv","","45.29999999701977","resources/trios/L1T2A3.jpg","38","restless",0.5,0.4,0.1,0.445901386877295,"false"
"image-keyboard-response",342,308898,"0.0-3.110-1.110","wbe9w0os36afhd2",876,"108.csv","","null","resources/maskTrios/BT2B.jpg","null","",NA,NA,NA,NA,""
"image-keyboard-response",343,310100,"0.0-3.110-2.110","wbe9w0os36afhd2",876,"108.csv","","null","resources/images/fishbone.png","null","",NA,NA,NA,NA,""
"image-keyboard-response",344,310305,"0.0-3.111-0.111","wbe9w0os36afhd2",876,"108.csv","","202.79999999701977","resources/trios/L1T2A1.jpg","37","restless",0.5,0.4,0.1,0.865835375048863,"false"
"image-keyboard-response",345,310711,"0.0-3.111-1.111","wbe9w0os36afhd2",876,"108.csv","","null","resources/maskTrios/L1BB.jpg","null","",NA,NA,NA,NA,""
"image-keyboard-response",346,311914,"0.0-3.111-2.111","wbe9w0os36afhd2",876,"108.csv","","null","resources/images/fishbone.png","null","",NA,NA,NA,NA,""
"image-keyboard-response",347,312123,"0.0-3.112-0.112","wbe9w0os36afhd2",876,"108.csv","","206.79999999701977","resources/trios/L1T4A3.jpg","39","restless",0.5,0.4,0.1,0.347664806898284,"false"
"image-keyboard-response",348,312525,"0.0-3.112-1.112","wbe9w0os36afhd2",876,"108.csv","","null","resources/maskTrios/BBA3.jpg","null","",NA,NA,NA,NA,""
"image-keyboard-response",349,313727,"0.0-3.112-2.112","wbe9w0os36afhd2",876,"108.csv","","null","resources/images/fishbone.png","null","",NA,NA,NA,NA,""
"image-keyboard-response",350,314370,"0.0-3.113-0.113","wbe9w0os36afhd2",876,"108.csv","","642.3999999985099","resources/trios/L1T4A1.jpg","37","restless",0.5,0.4,0.1,0.567368939820774,"false"
"image-keyboard-response",351,314772,"0.0-3.113-1.113","wbe9w0os36afhd2",876,"108.csv","","null","resources/maskTrios/L1BB.jpg","null","",NA,NA,NA,NA,""
"image-keyboard-response",352,315975,"0.0-3.113-2.113","wbe9w0os36afhd2",876,"108.csv","","null","resources/images/fishbone.png","null","",NA,NA,NA,NA,""
"image-keyboard-response",353,316304,"0.0-3.114-0.114","wbe9w0os36afhd2",876,"108.csv","","326.5","resources/trios/L2T2A3.jpg","38","restless",0.5,0.4,0.1,0.740975694270827,"false"
"image-keyboard-response",354,316706,"0.0-3.114-1.114","wbe9w0os36afhd2",876,"108.csv","","null","resources/maskTrios/BT2B.jpg","null","",NA,NA,NA,NA,""
"image-keyboard-response",355,317908,"0.0-3.114-2.114","wbe9w0os36afhd2",876,"108.csv","","null","resources/images/fishbone.png","null","",NA,NA,NA,NA,""
"image-keyboard-response",356,318159,"0.0-3.115-0.115","wbe9w0os36afhd2",876,"108.csv","","247.79999999701977","resources/trios/L1T4A3.jpg","37","restless",0.5,0.4,0.1,0.657601512865333,"false"
"image-keyboard-response",357,318561,"0.0-3.115-1.115","wbe9w0os36afhd2",876,"108.csv","","null","resources/maskTrios/L1BB.jpg","null","",NA,NA,NA,NA,""
"image-keyboard-response",358,319763,"0.0-3.115-2.115","wbe9w0os36afhd2",876,"108.csv","","null","resources/images/fishbone.png","null","",NA,NA,NA,NA,""
"image-keyboard-response",359,319973,"0.0-3.116-0.116","wbe9w0os36afhd2",876,"108.csv","","207.39999999850988","resources/trios/L1T4A3.jpg","39","restless",0.5,0.4,0.1,0.573978336357346,"false"
"image-keyboard-response",360,320375,"0.0-3.116-1.116","wbe9w0os36afhd2",876,"108.csv","","null","resources/maskTrios/BBA3.jpg","null","",NA,NA,NA,NA,""
"image-keyboard-response",361,321578,"0.0-3.116-2.116","wbe9w0os36afhd2",876,"108.csv","","null","resources/images/fishbone.png","null","",NA,NA,NA,NA,""
"image-keyboard-response",362,322199,"0.0-3.117-0.117","wbe9w0os36afhd2",876,"108.csv","","620.7999999970198","resources/trios/L1T2A1.jpg","37","restless",0.5,0.4,0.1,0.207087821648994,"true"
"image-keyboard-response",363,322601,"0.0-3.117-1.117","wbe9w0os36afhd2",876,"108.csv","","null","resources/maskTrios/L1BB.jpg","null","",NA,NA,NA,NA,""
"image-keyboard-response",364,323802,"0.0-3.117-2.117","wbe9w0os36afhd2",876,"108.csv","","null","resources/images/coin2.png","null","",NA,NA,NA,NA,""
"image-keyboard-response",365,324005,"0.0-3.118-0.118","wbe9w0os36afhd2",876,"108.csv","","200.79999999701977","resources/trios/L1T4A1.jpg","37","restless",0.5,0.4,0.1,0.478669789507776,"true"
"image-keyboard-response",366,324407,"0.0-3.118-1.118","wbe9w0os36afhd2",876,"108.csv","","null","resources/maskTrios/L1BB.jpg","null","",NA,NA,NA,NA,""
"image-keyboard-response",367,325610,"0.0-3.118-2.118","wbe9w0os36afhd2",876,"108.csv","","null","resources/images/coin2.png","null","",NA,NA,NA,NA,""
"image-keyboard-response",368,325864,"0.0-3.119-0.119","wbe9w0os36afhd2",876,"108.csv","","253.10000000149012","resources/trios/L2T4A1.jpg","37","restless",0.5,0.4,0.1,0.965213230340344,"false"
"image-keyboard-response",369,326266,"0.0-3.119-1.119","wbe9w0os36afhd2",876,"108.csv","","null","resources/maskTrios/L2BB.jpg","null","",NA,NA,NA,NA,""
"image-keyboard-response",370,327469,"0.0-3.119-2.119","wbe9w0os36afhd2",876,"108.csv","","null","resources/images/fishbone.png","null","",NA,NA,NA,NA,""
"image-keyboard-response",371,327695,"0.0-3.120-0.120","wbe9w0os36afhd2",876,"108.csv","","223.30000000447035","resources/trios/L1T2A1.jpg","38","restless",0.5,0.4,0.1,0.847298749084775,"false"
"image-keyboard-response",372,328096,"0.0-3.120-1.120","wbe9w0os36afhd2",876,"108.csv","","null","resources/maskTrios/BT2B.jpg","null","",NA,NA,NA,NA,""
"image-keyboard-response",373,329299,"0.0-3.120-2.120","wbe9w0os36afhd2",876,"108.csv","","null","resources/images/fishbone.png","null","",NA,NA,NA,NA,""
"image-keyboard-response",374,329792,"0.0-3.121-0.121","wbe9w0os36afhd2",876,"108.csv","","490.70000000298023","resources/trios/L1T4A3.jpg","39","restless",0.5,0.4,0.1,0.836481853671399,"false"
"image-keyboard-response",375,330194,"0.0-3.121-1.121","wbe9w0os36afhd2",876,"108.csv","","null","resources/maskTrios/BBA3.jpg","null","",NA,NA,NA,NA,""
"image-keyboard-response",376,331396,"0.0-3.121-2.121","wbe9w0os36afhd2",876,"108.csv","","null","resources/images/fishbone.png","null","",NA,NA,NA,NA,""
"image-keyboard-response",377,331535,"0.0-3.122-0.122","wbe9w0os36afhd2",876,"108.csv","","135.80000000447035","resources/trios/L1T4A3.jpg","38","restless",0.5,0.4,0.2,0.559683801185409,"false"
"image-keyboard-response",378,331940,"0.0-3.122-1.122","wbe9w0os36afhd2",876,"108.csv","","null","resources/maskTrios/BT4B.jpg","null","",NA,NA,NA,NA,""
"image-keyboard-response",379,333143,"0.0-3.122-2.122","wbe9w0os36afhd2",876,"108.csv","","null","resources/images/fishbone.png","null","",NA,NA,NA,NA,""
"image-keyboard-response",380,333740,"0.0-3.123-0.123","wbe9w0os36afhd2",876,"108.csv","","594.2000000029802","resources/trios/L1T4A1.jpg","38","restless",0.5,0.4,0.2,0.965172058666414,"false"
"image-keyboard-response",381,334141,"0.0-3.123-1.123","wbe9w0os36afhd2",876,"108.csv","","null","resources/maskTrios/BT4B.jpg","null","",NA,NA,NA,NA,""
"image-keyboard-response",382,335344,"0.0-3.123-2.123","wbe9w0os36afhd2",876,"108.csv","","null","resources/images/fishbone.png","null","",NA,NA,NA,NA,""
"image-keyboard-response",383,335694,"0.0-3.124-0.124","wbe9w0os36afhd2",876,"108.csv","","348.20000000298023","resources/trios/L2T2A3.jpg","38","restless",0.5,0.4,0.2,0.6872774118073,"false"
"image-keyboard-response",384,336096,"0.0-3.124-1.124","wbe9w0os36afhd2",876,"108.csv","","null","resources/maskTrios/BT2B.jpg","null","",NA,NA,NA,NA,""
"image-keyboard-response",385,337298,"0.0-3.124-2.124","wbe9w0os36afhd2",876,"108.csv","","null","resources/images/fishbone.png","null","",NA,NA,NA,NA,""
"image-keyboard-response",386,338667,"0.0-3.125-0.125","wbe9w0os36afhd2",876,"108.csv","","1366.7999999970198","resources/trios/L2T4A3.jpg","38","restless",0.5,0.5,0.2,0.354447626868222,"true"
"image-keyboard-response",387,339070,"0.0-3.125-1.125","wbe9w0os36afhd2",876,"108.csv","","null","resources/maskTrios/BT4B.jpg","null","",NA,NA,NA,NA,""
"image-keyboard-response",388,340274,"0.0-3.125-2.125","wbe9w0os36afhd2",876,"108.csv","","null","resources/images/coin2.png","null","",NA,NA,NA,NA,""
"image-keyboard-response",389,340538,"0.0-3.126-0.126","wbe9w0os36afhd2",876,"108.csv","","262.6000000014901","resources/trios/L2T2A1.jpg","38","restless",0.5,0.5,0.2,0.592748213320267,"false"
"image-keyboard-response",390,340940,"0.0-3.126-1.126","wbe9w0os36afhd2",876,"108.csv","","null","resources/maskTrios/BT2B.jpg","null","",NA,NA,NA,NA,""
"image-keyboard-response",391,342144,"0.0-3.126-2.126","wbe9w0os36afhd2",876,"108.csv","","null","resources/images/fishbone.png","null","",NA,NA,NA,NA,""
"image-keyboard-response",392,344236,"0.0-3.127-0.127","wbe9w0os36afhd2",876,"108.csv","","2090","resources/trios/L2T4A3.jpg","38","restless",0.5,0.5,0.2,0.857322648102725,"false"
"image-keyboard-response",393,344638,"0.0-3.127-1.127","wbe9w0os36afhd2",876,"108.csv","","null","resources/maskTrios/BT4B.jpg","null","",NA,NA,NA,NA,""
"image-keyboard-response",394,345841,"0.0-3.127-2.127","wbe9w0os36afhd2",876,"108.csv","","null","resources/images/fishbone.png","null","",NA,NA,NA,NA,""
"image-keyboard-response",395,345924,"0.0-3.128-0.128","wbe9w0os36afhd2",876,"108.csv","","81.69999999552965","resources/trios/L2T4A3.jpg","39","restless",0.5,0.5,0.2,0.283255977288731,"false"
"image-keyboard-response",396,346327,"0.0-3.128-1.128","wbe9w0os36afhd2",876,"108.csv","","null","resources/maskTrios/BBA3.jpg","null","",NA,NA,NA,NA,""
"image-keyboard-response",397,347530,"0.0-3.128-2.128","wbe9w0os36afhd2",876,"108.csv","","null","resources/images/fishbone.png","null","",NA,NA,NA,NA,""
"image-keyboard-response",398,347848,"0.0-3.129-0.129","wbe9w0os36afhd2",876,"108.csv","","315.19999999552965","resources/trios/L2T4A3.jpg","37","restless",0.5,0.5,0.2,0.576540121040898,"false"
"image-keyboard-response",399,348250,"0.0-3.129-1.129","wbe9w0os36afhd2",876,"108.csv","","null","resources/maskTrios/L2BB.jpg","null","",NA,NA,NA,NA,""
"image-keyboard-response",400,349452,"0.0-3.129-2.129","wbe9w0os36afhd2",876,"108.csv","","null","resources/images/fishbone.png","null","",NA,NA,NA,NA,""
"image-keyboard-response",401,349711,"0.0-3.130-0.130","wbe9w0os36afhd2",876,"108.csv","","256.40000000596046","resources/trios/L2T4A3.jpg","37","restless",0.5,0.5,0.2,0.712034689763209,"false"
"image-keyboard-response",402,350112,"0.0-3.130-1.130","wbe9w0os36afhd2",876,"108.csv","","null","resources/maskTrios/L2BB.jpg","null","",NA,NA,NA,NA,""
"image-keyboard-response",403,351314,"0.0-3.130-2.130","wbe9w0os36afhd2",876,"108.csv","","null","resources/images/fishbone.png","null","",NA,NA,NA,NA,""
"image-keyboard-response",404,351341,"0.0-3.131-0.131","wbe9w0os36afhd2",876,"108.csv","","24.399999998509884","resources/trios/L2T4A3.jpg","38","restless",0.5,0.5,0.2,0.800876108701421,"false"
"image-keyboard-response",405,351743,"0.0-3.131-1.131","wbe9w0os36afhd2",876,"108.csv","","null","resources/maskTrios/BT4B.jpg","null","",NA,NA,NA,NA,""
"image-keyboard-response",406,352946,"0.0-3.131-2.131","wbe9w0os36afhd2",876,"108.csv","","null","resources/images/fishbone.png","null","",NA,NA,NA,NA,""
"image-keyboard-response",407,353163,"0.0-3.132-0.132","wbe9w0os36afhd2",876,"108.csv","","215.39999999850988","resources/trios/L1T4A1.jpg","37","restless",0.5,0.5,0.2,0.871688298661333,"false"
"image-keyboard-response",408,353566,"0.0-3.132-1.132","wbe9w0os36afhd2",876,"108.csv","","null","resources/maskTrios/L1BB.jpg","null","",NA,NA,NA,NA,""
"image-keyboard-response",409,354770,"0.0-3.132-2.132","wbe9w0os36afhd2",876,"108.csv","","null","resources/images/fishbone.png","null","",NA,NA,NA,NA,""
"image-keyboard-response",410,355270,"0.0-3.133-0.133","wbe9w0os36afhd2",876,"108.csv","","497.6000000014901","resources/trios/L2T4A1.jpg","39","restless",0.5,0.5,0.2,0.784822461632633,"false"
"image-keyboard-response",411,355671,"0.0-3.133-1.133","wbe9w0os36afhd2",876,"108.csv","","null","resources/maskTrios/BBA1.jpg","null","",NA,NA,NA,NA,""
"image-keyboard-response",412,356873,"0.0-3.133-2.133","wbe9w0os36afhd2",876,"108.csv","","null","resources/images/fishbone.png","null","",NA,NA,NA,NA,""
"image-keyboard-response",413,357245,"0.0-3.134-0.134","wbe9w0os36afhd2",876,"108.csv","","369.6000000014901","resources/trios/L2T4A3.jpg","38","restless",0.5,0.5,0.2,0.514314964018378,"false"
"image-keyboard-response",414,357647,"0.0-3.134-1.134","wbe9w0os36afhd2",876,"108.csv","","null","resources/maskTrios/BT4B.jpg","null","",NA,NA,NA,NA,""
"image-keyboard-response",415,358848,"0.0-3.134-2.134","wbe9w0os36afhd2",876,"108.csv","","null","resources/images/fishbone.png","null","",NA,NA,NA,NA,""
"image-keyboard-response",416,359249,"0.0-3.135-0.135","wbe9w0os36afhd2",876,"108.csv","","398.5","resources/trios/L1T4A1.jpg","37","restless",0.5,0.5,0.2,0.661516468491883,"false"
"image-keyboard-response",417,359651,"0.0-3.135-1.135","wbe9w0os36afhd2",876,"108.csv","","null","resources/maskTrios/L1BB.jpg","null","",NA,NA,NA,NA,""
"image-keyboard-response",418,360853,"0.0-3.135-2.135","wbe9w0os36afhd2",876,"108.csv","","null","resources/images/fishbone.png","null","",NA,NA,NA,NA,""
"image-keyboard-response",419,361134,"0.0-3.136-0.136","wbe9w0os36afhd2",876,"108.csv","","279.30000000447035","resources/trios/L1T2A1.jpg","39","restless",0.5,0.5,0.2,0.0665425804916369,"true"
"image-keyboard-response",420,361538,"0.0-3.136-1.136","wbe9w0os36afhd2",876,"108.csv","","null","resources/maskTrios/BBA1.jpg","null","",NA,NA,NA,NA,""
"image-keyboard-response",421,362741,"0.0-3.136-2.136","wbe9w0os36afhd2",876,"108.csv","","null","resources/images/coin2.png","null","",NA,NA,NA,NA,""
"image-keyboard-response",422,362984,"0.0-3.137-0.137","wbe9w0os36afhd2",876,"108.csv","","241","resources/trios/L1T2A3.jpg","39","restless",0.5,0.6,0.2,0.795518374435228,"false"
"image-keyboard-response",423,363386,"0.0-3.137-1.137","wbe9w0os36afhd2",876,"108.csv","","null","resources/maskTrios/BBA3.jpg","null","",NA,NA,NA,NA,""
"image-keyboard-response",424,364588,"0.0-3.137-2.137","wbe9w0os36afhd2",876,"108.csv","","null","resources/images/fishbone.png","null","",NA,NA,NA,NA,""
"image-keyboard-response",425,365171,"0.0-3.138-0.138","wbe9w0os36afhd2",876,"108.csv","","580.5","resources/trios/L1T2A1.jpg","37","restless",0.5,0.6,0.3,0.0961671984827663,"true"
"image-keyboard-response",426,365573,"0.0-3.138-1.138","wbe9w0os36afhd2",876,"108.csv","","null","resources/maskTrios/L1BB.jpg","null","",NA,NA,NA,NA,""
"image-keyboard-response",427,366776,"0.0-3.138-2.138","wbe9w0os36afhd2",876,"108.csv","","null","resources/images/coin2.png","null","",NA,NA,NA,NA,""
"image-keyboard-response",428,367107,"0.0-3.139-0.139","wbe9w0os36afhd2",876,"108.csv","","328.19999999552965","resources/trios/L2T2A1.jpg","37","restless",0.4,0.6,0.3,0.608799952196252,"false"
"image-keyboard-response",429,367509,"0.0-3.139-1.139","wbe9w0os36afhd2",876,"108.csv","","null","resources/maskTrios/L2BB.jpg","null","",NA,NA,NA,NA,""
"image-keyboard-response",430,368711,"0.0-3.139-2.139","wbe9w0os36afhd2",876,"108.csv","","null","resources/images/fishbone.png","null","",NA,NA,NA,NA,""
"image-keyboard-response",431,368970,"0.0-3.140-0.140","wbe9w0os36afhd2",876,"108.csv","","256","resources/trios/L2T2A3.jpg","38","restless",0.5,0.6,0.3,0.854897831484557,"false"
"image-keyboard-response",432,369372,"0.0-3.140-1.140","wbe9w0os36afhd2",876,"108.csv","","null","resources/maskTrios/BT2B.jpg","null","",NA,NA,NA,NA,""
"image-keyboard-response",433,370575,"0.0-3.140-2.140","wbe9w0os36afhd2",876,"108.csv","","null","resources/images/fishbone.png","null","",NA,NA,NA,NA,""
"image-keyboard-response",434,370808,"0.0-3.141-0.141","wbe9w0os36afhd2",876,"108.csv","","230.19999999552965","resources/trios/L1T4A1.jpg","37","restless",0.5,0.6,0.3,0.327944153214652,"true"
"image-keyboard-response",435,371210,"0.0-3.141-1.141","wbe9w0os36afhd2",876,"108.csv","","null","resources/maskTrios/L1BB.jpg","null","",NA,NA,NA,NA,""
"image-keyboard-response",436,372413,"0.0-3.141-2.141","wbe9w0os36afhd2",876,"108.csv","","null","resources/images/coin2.png","null","",NA,NA,NA,NA,""
"image-keyboard-response",437,372626,"0.0-3.142-0.142","wbe9w0os36afhd2",876,"108.csv","","210.80000000447035","resources/trios/L1T2A3.jpg","38","restless",0.5,0.7,0.4,0.732587922386085,"false"
"image-keyboard-response",438,373031,"0.0-3.142-1.142","wbe9w0os36afhd2",876,"108.csv","","null","resources/maskTrios/BT2B.jpg","null","",NA,NA,NA,NA,""
"image-keyboard-response",439,374236,"0.0-3.142-2.142","wbe9w0os36afhd2",876,"108.csv","","null","resources/images/fishbone.png","null","",NA,NA,NA,NA,""
"image-keyboard-response",440,374306,"0.0-3.143-0.143","wbe9w0os36afhd2",876,"108.csv","","66.90000000596046","resources/trios/L2T2A3.jpg","37","restless",0.5,0.7,0.4,0.310519267702277,"true"
"image-keyboard-response",441,374707,"0.0-3.143-1.143","wbe9w0os36afhd2",876,"108.csv","","null","resources/maskTrios/L2BB.jpg","null","",NA,NA,NA,NA,""
"image-keyboard-response",442,375913,"0.0-3.143-2.143","wbe9w0os36afhd2",876,"108.csv","","null","resources/images/coin2.png","null","",NA,NA,NA,NA,""
"image-keyboard-response",443,376263,"0.0-3.144-0.144","wbe9w0os36afhd2",876,"108.csv","","348.5","resources/trios/L1T4A1.jpg","37","restless",0.4,0.7,0.5,0.700019782134893,"false"
"image-keyboard-response",444,376665,"0.0-3.144-1.144","wbe9w0os36afhd2",876,"108.csv","","null","resources/maskTrios/L1BB.jpg","null","",NA,NA,NA,NA,""
"image-keyboard-response",445,377868,"0.0-3.144-2.144","wbe9w0os36afhd2",876,"108.csv","","null","resources/images/fishbone.png","null","",NA,NA,NA,NA,""
"image-keyboard-response",446,378408,"0.0-3.145-0.145","wbe9w0os36afhd2",876,"108.csv","","539.1000000014901","resources/trios/L1T4A3.jpg","39","restless",0.4,0.8,0.5,0.728173766264435,"false"
"image-keyboard-response",447,378809,"0.0-3.145-1.145","wbe9w0os36afhd2",876,"108.csv","","null","resources/maskTrios/BBA3.jpg","null","",NA,NA,NA,NA,""
"image-keyboard-response",448,380012,"0.0-3.145-2.145","wbe9w0os36afhd2",876,"108.csv","","null","resources/images/fishbone.png","null","",NA,NA,NA,NA,""
"image-keyboard-response",449,380233,"0.0-3.146-0.146","wbe9w0os36afhd2",876,"108.csv","","218.89999999850988","resources/trios/L2T2A3.jpg","38","restless",0.3,0.7,0.5,0.767449613838634,"false"
"image-keyboard-response",450,380635,"0.0-3.146-1.146","wbe9w0os36afhd2",876,"108.csv","","null","resources/maskTrios/BT2B.jpg","null","",NA,NA,NA,NA,""
"image-keyboard-response",451,381837,"0.0-3.146-2.146","wbe9w0os36afhd2",876,"108.csv","","null","resources/images/fishbone.png","null","",NA,NA,NA,NA,""
"image-keyboard-response",452,381994,"0.0-3.147-0.147","wbe9w0os36afhd2",876,"108.csv","","156.10000000149012","resources/trios/L1T2A1.jpg","39","restless",0.3,0.6,0.5,0.685577909481135,"false"
"image-keyboard-response",453,382396,"0.0-3.147-1.147","wbe9w0os36afhd2",876,"108.csv","","null","resources/maskTrios/BBA1.jpg","null","",NA,NA,NA,NA,""
"image-keyboard-response",454,383602,"0.0-3.147-2.147","wbe9w0os36afhd2",876,"108.csv","","null","resources/images/fishbone.png","null","",NA,NA,NA,NA,""
"image-keyboard-response",455,383916,"0.0-3.148-0.148","wbe9w0os36afhd2",876,"108.csv","","312","resources/trios/L2T2A1.jpg","37","restless",0.3,0.6,0.5,0.311883151721662,"false"
"image-keyboard-response",456,384317,"0.0-3.148-1.148","wbe9w0os36afhd2",876,"108.csv","","null","resources/maskTrios/L2BB.jpg","null","",NA,NA,NA,NA,""
"image-keyboard-response",457,385519,"0.0-3.148-2.148","wbe9w0os36afhd2",876,"108.csv","","null","resources/images/fishbone.png","null","",NA,NA,NA,NA,""
"image-keyboard-response",458,386072,"0.0-3.149-0.149","wbe9w0os36afhd2",876,"108.csv","","550.6000000014901","resources/trios/L2T2A1.jpg","38","restless",0.3,0.6,0.5,0.971573717562082,"false"
"image-keyboard-response",459,386474,"0.0-3.149-1.149","wbe9w0os36afhd2",876,"108.csv","","null","resources/maskTrios/BT2B.jpg","null","",NA,NA,NA,NA,""
"image-keyboard-response",460,387676,"0.0-3.149-2.149","wbe9w0os36afhd2",876,"108.csv","","null","resources/images/fishbone.png","null","",NA,NA,NA,NA,""
"image-keyboard-response",461,387944,"0.0-3.150-0.150","wbe9w0os36afhd2",876,"108.csv","","265","resources/trios/L1T2A1.jpg","37","restless",0.3,0.6,0.5,0.607667841432018,"false"
"image-keyboard-response",462,388345,"0.0-3.150-1.150","wbe9w0os36afhd2",876,"108.csv","","null","resources/maskTrios/L1BB.jpg","null","",NA,NA,NA,NA,""
"image-keyboard-response",463,389548,"0.0-3.150-2.150","wbe9w0os36afhd2",876,"108.csv","","null","resources/images/fishbone.png","null","",NA,NA,NA,NA,""
"image-keyboard-response",464,389671,"0.0-3.151-0.151","wbe9w0os36afhd2",876,"108.csv","","119.79999999701977","resources/trios/L1T4A1.jpg","39","restless",0.3,0.6,0.5,0.944127097411,"false"
"image-keyboard-response",465,390072,"0.0-3.151-1.151","wbe9w0os36afhd2",876,"108.csv","","null","resources/maskTrios/BBA1.jpg","null","",NA,NA,NA,NA,""
"image-keyboard-response",466,391274,"0.0-3.151-2.151","wbe9w0os36afhd2",876,"108.csv","","null","resources/images/fishbone.png","null","",NA,NA,NA,NA,""
"image-keyboard-response",467,391551,"0.0-3.152-0.152","wbe9w0os36afhd2",876,"108.csv","","274.69999999552965","resources/trios/L2T2A3.jpg","38","restless",0.3,0.6,0.5,0.402776374158784,"true"
"image-keyboard-response",468,391955,"0.0-3.152-1.152","wbe9w0os36afhd2",876,"108.csv","","null","resources/maskTrios/BT2B.jpg","null","",NA,NA,NA,NA,""
"image-keyboard-response",469,393157,"0.0-3.152-2.152","wbe9w0os36afhd2",876,"108.csv","","null","resources/images/coin2.png","null","",NA,NA,NA,NA,""
"image-keyboard-response",470,393622,"0.0-3.153-0.153","wbe9w0os36afhd2",876,"108.csv","","463.40000000596046","resources/trios/L1T4A1.jpg","38","restless",0.3,0.6,0.5,0.842763766318035,"false"
"image-keyboard-response",471,394024,"0.0-3.153-1.153","wbe9w0os36afhd2",876,"108.csv","","null","resources/maskTrios/BT4B.jpg","null","",NA,NA,NA,NA,""
"image-keyboard-response",472,395226,"0.0-3.153-2.153","wbe9w0os36afhd2",876,"108.csv","","null","resources/images/fishbone.png","null","",NA,NA,NA,NA,""
"image-keyboard-response",473,395912,"0.0-3.154-0.154","wbe9w0os36afhd2",876,"108.csv","","683.7999999970198","resources/trios/L1T2A1.jpg","37","restless",0.3,0.6,0.5,0.298701482677608,"true"
"image-keyboard-response",474,396313,"0.0-3.154-1.154","wbe9w0os36afhd2",876,"108.csv","","null","resources/maskTrios/L1BB.jpg","null","",NA,NA,NA,NA,""
"image-keyboard-response",475,397516,"0.0-3.154-2.154","wbe9w0os36afhd2",876,"108.csv","","null","resources/images/coin2.png","null","",NA,NA,NA,NA,""
"image-keyboard-response",476,398200,"0.0-3.155-0.155","wbe9w0os36afhd2",876,"108.csv","","681.2000000029802","resources/trios/L1T2A1.jpg","37","restless",0.3,0.6,0.5,0.968027182660193,"false"
"image-keyboard-response",477,398601,"0.0-3.155-1.155","wbe9w0os36afhd2",876,"108.csv","","null","resources/maskTrios/L1BB.jpg","null","",NA,NA,NA,NA,""
"image-keyboard-response",478,399804,"0.0-3.155-2.155","wbe9w0os36afhd2",876,"108.csv","","null","resources/images/fishbone.png","null","",NA,NA,NA,NA,""
"image-keyboard-response",479,400280,"0.0-3.156-0.156","wbe9w0os36afhd2",876,"108.csv","","473.20000000298023","resources/trios/L2T2A3.jpg","38","restless",0.3,0.6,0.5,0.956957049814896,"false"
"image-keyboard-response",480,400682,"0.0-3.156-1.156","wbe9w0os36afhd2",876,"108.csv","","null","resources/maskTrios/BT2B.jpg","null","",NA,NA,NA,NA,""
"image-keyboard-response",481,401884,"0.0-3.156-2.156","wbe9w0os36afhd2",876,"108.csv","","null","resources/images/fishbone.png","null","",NA,NA,NA,NA,""
"image-keyboard-response",482,402151,"0.0-3.157-0.157","wbe9w0os36afhd2",876,"108.csv","","266","resources/trios/L2T4A1.jpg","39","restless",0.3,0.6,0.5,0.253002437450451,"true"
"image-keyboard-response",483,402553,"0.0-3.157-1.157","wbe9w0os36afhd2",876,"108.csv","","null","resources/maskTrios/BBA1.jpg","null","",NA,NA,NA,NA,""
"image-keyboard-response",484,403756,"0.0-3.157-2.157","wbe9w0os36afhd2",876,"108.csv","","null","resources/images/coin2.png","null","",NA,NA,NA,NA,""
"image-keyboard-response",485,404095,"0.0-3.158-0.158","wbe9w0os36afhd2",876,"108.csv","","336.20000000298023","resources/trios/L2T4A3.jpg","39","restless",0.3,0.6,0.4,0.674528505453421,"false"
"image-keyboard-response",486,404497,"0.0-3.158-1.158","wbe9w0os36afhd2",876,"108.csv","","null","resources/maskTrios/BBA3.jpg","null","",NA,NA,NA,NA,""
"image-keyboard-response",487,405700,"0.0-3.158-2.158","wbe9w0os36afhd2",876,"108.csv","","null","resources/images/fishbone.png","null","",NA,NA,NA,NA,""
"image-keyboard-response",488,405837,"0.0-3.159-0.159","wbe9w0os36afhd2",876,"108.csv","","134.70000000298023","resources/trios/L2T4A1.jpg","37","restless",0.3,0.6,0.4,0.647548787272851,"false"
"image-keyboard-response",489,406241,"0.0-3.159-1.159","wbe9w0os36afhd2",876,"108.csv","","null","resources/maskTrios/L2BB.jpg","null","",NA,NA,NA,NA,""
"image-keyboard-response",490,407443,"0.0-3.159-2.159","wbe9w0os36afhd2",876,"108.csv","","null","resources/images/fishbone.png","null","",NA,NA,NA,NA,""
"image-keyboard-response",491,407553,"0.0-3.160-0.160","wbe9w0os36afhd2",876,"108.csv","","108.30000000447035","resources/trios/L1T4A1.jpg","38","restless",0.3,0.6,0.4,0.353056730038309,"true"
"image-keyboard-response",492,407956,"0.0-3.160-1.160","wbe9w0os36afhd2",876,"108.csv","","null","resources/maskTrios/BT4B.jpg","null","",NA,NA,NA,NA,""
"image-keyboard-response",493,409159,"0.0-3.160-2.160","wbe9w0os36afhd2",876,"108.csv","","null","resources/images/coin2.png","null","",NA,NA,NA,NA,""
"image-keyboard-response",494,409369,"0.0-3.161-0.161","wbe9w0os36afhd2",876,"108.csv","","207.70000000298023","resources/trios/L2T4A1.jpg","38","restless",0.3,0.6,0.5,0.594668768245974,"true"
"image-keyboard-response",495,409772,"0.0-3.161-1.161","wbe9w0os36afhd2",876,"108.csv","","null","resources/maskTrios/BT4B.jpg","null","",NA,NA,NA,NA,""
"image-keyboard-response",496,410975,"0.0-3.161-2.161","wbe9w0os36afhd2",876,"108.csv","","null","resources/images/coin2.png","null","",NA,NA,NA,NA,""
"image-keyboard-response",497,411017,"0.0-3.162-0.162","wbe9w0os36afhd2",876,"108.csv","","39.399999998509884","resources/trios/L2T2A1.jpg","38","restless",0.3,0.6,0.5,0.342159447704203,"true"
"image-keyboard-response",498,411420,"0.0-3.162-1.162","wbe9w0os36afhd2",876,"108.csv","","null","resources/maskTrios/BT2B.jpg","null","",NA,NA,NA,NA,""
"image-keyboard-response",499,412623,"0.0-3.162-2.162","wbe9w0os36afhd2",876,"108.csv","","null","resources/images/coin2.png","null","",NA,NA,NA,NA,""
"image-keyboard-response",500,412849,"0.0-3.163-0.163","wbe9w0os36afhd2",876,"108.csv","","223","resources/trios/L2T4A1.jpg","38","restless",0.3,0.6,0.5,0.52351130623266,"true"
"image-keyboard-response",501,413252,"0.0-3.163-1.163","wbe9w0os36afhd2",876,"108.csv","","null","resources/maskTrios/BT4B.jpg","null","",NA,NA,NA,NA,""
"image-keyboard-response",502,414455,"0.0-3.163-2.163","wbe9w0os36afhd2",876,"108.csv","","null","resources/images/coin2.png","null","",NA,NA,NA,NA,""
"image-keyboard-response",503,414632,"0.0-3.164-0.164","wbe9w0os36afhd2",876,"108.csv","","174.30000000447035","resources/trios/L1T4A3.jpg","38","restless",0.3,0.6,0.5,0.419368354590696,"true"
"image-keyboard-response",504,415034,"0.0-3.164-1.164","wbe9w0os36afhd2",876,"108.csv","","null","resources/maskTrios/BT4B.jpg","null","",NA,NA,NA,NA,""
"image-keyboard-response",505,416237,"0.0-3.164-2.164","wbe9w0os36afhd2",876,"108.csv","","null","resources/images/coin2.png","null","",NA,NA,NA,NA,""
"image-keyboard-response",506,416460,"0.0-3.165-0.165","wbe9w0os36afhd2",876,"108.csv","","221.20000000298023","resources/trios/L1T2A3.jpg","38","restless",0.3,0.6,0.5,0.204839862176475,"true"
"image-keyboard-response",507,416862,"0.0-3.165-1.165","wbe9w0os36afhd2",876,"108.csv","","null","resources/maskTrios/BT2B.jpg","null","",NA,NA,NA,NA,""
"image-keyboard-response",508,418065,"0.0-3.165-2.165","wbe9w0os36afhd2",876,"108.csv","","null","resources/images/coin2.png","null","",NA,NA,NA,NA,""
"image-keyboard-response",509,418326,"0.0-3.166-0.166","wbe9w0os36afhd2",876,"108.csv","","258","resources/trios/L2T2A1.jpg","38","restless",0.3,0.6,0.5,0.179425084463242,"true"
"image-keyboard-response",510,418728,"0.0-3.166-1.166","wbe9w0os36afhd2",876,"108.csv","","null","resources/maskTrios/BT2B.jpg","null","",NA,NA,NA,NA,""
"image-keyboard-response",511,419930,"0.0-3.166-2.166","wbe9w0os36afhd2",876,"108.csv","","null","resources/images/coin2.png","null","",NA,NA,NA,NA,""
"image-keyboard-response",512,419971,"0.0-3.167-0.167","wbe9w0os36afhd2",876,"108.csv","","37.79999999701977","resources/trios/L1T4A3.jpg","37","restless",0.3,0.6,0.5,0.691682190247131,"false"
"image-keyboard-response",513,420372,"0.0-3.167-1.167","wbe9w0os36afhd2",876,"108.csv","","null","resources/maskTrios/L1BB.jpg","null","",NA,NA,NA,NA,""
"image-keyboard-response",514,421577,"0.0-3.167-2.167","wbe9w0os36afhd2",876,"108.csv","","null","resources/images/fishbone.png","null","",NA,NA,NA,NA,""
"image-keyboard-response",515,421799,"0.0-3.168-0.168","wbe9w0os36afhd2",876,"108.csv","","220.60000000149012","resources/trios/L1T2A1.jpg","38","restless",0.3,0.6,0.5,0.57305241031235,"true"
"image-keyboard-response",516,422204,"0.0-3.168-1.168","wbe9w0os36afhd2",876,"108.csv","","null","resources/maskTrios/BT2B.jpg","null","",NA,NA,NA,NA,""
"image-keyboard-response",517,423407,"0.0-3.168-2.168","wbe9w0os36afhd2",876,"108.csv","","null","resources/images/coin2.png","null","",NA,NA,NA,NA,""
"image-keyboard-response",518,423628,"0.0-3.169-0.169","wbe9w0os36afhd2",876,"108.csv","","218.89999999850988","resources/trios/L1T4A1.jpg","38","restless",0.3,0.6,0.5,0.848635331238705,"false"
"image-keyboard-response",519,424030,"0.0-3.169-1.169","wbe9w0os36afhd2",876,"108.csv","","null","resources/maskTrios/BT4B.jpg","null","",NA,NA,NA,NA,""
"image-keyboard-response",520,425233,"0.0-3.169-2.169","wbe9w0os36afhd2",876,"108.csv","","null","resources/images/fishbone.png","null","",NA,NA,NA,NA,""
"image-keyboard-response",521,425446,"0.0-3.170-0.170","wbe9w0os36afhd2",876,"108.csv","","210.30000000447035","resources/trios/L2T4A3.jpg","39","restless",0.3,0.6,0.5,0.103377226144893,"true"
"image-keyboard-response",522,425848,"0.0-3.170-1.170","wbe9w0os36afhd2",876,"108.csv","","null","resources/maskTrios/BBA3.jpg","null","",NA,NA,NA,NA,""
"image-keyboard-response",523,427052,"0.0-3.170-2.170","wbe9w0os36afhd2",876,"108.csv","","null","resources/images/coin2.png","null","",NA,NA,NA,NA,""
"image-keyboard-response",524,427455,"0.0-3.171-0.171","wbe9w0os36afhd2",876,"108.csv","","400.5","resources/trios/L2T4A3.jpg","39","restless",0.3,0.6,0.5,0.249117957600717,"true"
"image-keyboard-response",525,427857,"0.0-3.171-1.171","wbe9w0os36afhd2",876,"108.csv","","null","resources/maskTrios/BBA3.jpg","null","",NA,NA,NA,NA,""
"image-keyboard-response",526,429060,"0.0-3.171-2.171","wbe9w0os36afhd2",876,"108.csv","","null","resources/images/coin2.png","null","",NA,NA,NA,NA,""
"image-keyboard-response",527,429434,"0.0-3.172-0.172","wbe9w0os36afhd2",876,"108.csv","","371.20000000298023","resources/trios/L2T4A1.jpg","39","restless",0.3,0.6,0.5,0.745315362456472,"false"
"image-keyboard-response",528,429836,"0.0-3.172-1.172","wbe9w0os36afhd2",876,"108.csv","","null","resources/maskTrios/BBA1.jpg","null","",NA,NA,NA,NA,""
"image-keyboard-response",529,431037,"0.0-3.172-2.172","wbe9w0os36afhd2",876,"108.csv","","null","resources/images/fishbone.png","null","",NA,NA,NA,NA,""
"image-keyboard-response",530,431304,"0.0-3.173-0.173","wbe9w0os36afhd2",876,"108.csv","","264.6000000014901","resources/trios/L2T2A1.jpg","37","restless",0.3,0.6,0.6,0.66490456309854,"false"
"image-keyboard-response",531,431706,"0.0-3.173-1.173","wbe9w0os36afhd2",876,"108.csv","","null","resources/maskTrios/L2BB.jpg","null","",NA,NA,NA,NA,""
"image-keyboard-response",532,432908,"0.0-3.173-2.173","wbe9w0os36afhd2",876,"108.csv","","null","resources/images/fishbone.png","null","",NA,NA,NA,NA,""
"image-keyboard-response",533,433235,"0.0-3.174-0.174","wbe9w0os36afhd2",876,"108.csv","","326.20000000298023","resources/trios/L1T4A3.jpg","38","restless",0.3,0.6,0.6,0.680783071153505,"false"
"image-keyboard-response",534,433642,"0.0-3.174-1.174","wbe9w0os36afhd2",876,"108.csv","","null","resources/maskTrios/BT4B.jpg","null","",NA,NA,NA,NA,""
"image-keyboard-response",535,434844,"0.0-3.174-2.174","wbe9w0os36afhd2",876,"108.csv","","null","resources/images/fishbone.png","null","",NA,NA,NA,NA,""
"image-keyboard-response",536,435181,"0.0-3.175-0.175","wbe9w0os36afhd2",876,"108.csv","","333.70000000298023","resources/trios/L2T2A1.jpg","37","restless",0.3,0.6,0.6,0.304204852875044,"false"
"image-keyboard-response",537,435582,"0.0-3.175-1.175","wbe9w0os36afhd2",876,"108.csv","","null","resources/maskTrios/L2BB.jpg","null","",NA,NA,NA,NA,""
"image-keyboard-response",538,436785,"0.0-3.175-2.175","wbe9w0os36afhd2",876,"108.csv","","null","resources/images/fishbone.png","null","",NA,NA,NA,NA,""
"image-keyboard-response",539,437087,"0.0-3.176-0.176","wbe9w0os36afhd2",876,"108.csv","","299.20000000298023","resources/trios/L1T2A3.jpg","37","restless",0.3,0.6,0.6,0.307064306736811,"false"
"image-keyboard-response",540,437489,"0.0-3.176-1.176","wbe9w0os36afhd2",876,"108.csv","","null","resources/maskTrios/L1BB.jpg","null","",NA,NA,NA,NA,""
"image-keyboard-response",541,438692,"0.0-3.176-2.176","wbe9w0os36afhd2",876,"108.csv","","null","resources/images/fishbone.png","null","",NA,NA,NA,NA,""
"image-keyboard-response",542,438982,"0.0-3.177-0.177","wbe9w0os36afhd2",876,"108.csv","","287.19999999552965","resources/trios/L1T4A1.jpg","39","restless",0.4,0.6,0.6,0.541739663896355,"true"
"image-keyboard-response",543,439384,"0.0-3.177-1.177","wbe9w0os36afhd2",876,"108.csv","","null","resources/maskTrios/BBA1.jpg","null","",NA,NA,NA,NA,""
"image-keyboard-response",544,440588,"0.0-3.177-2.177","wbe9w0os36afhd2",876,"108.csv","","null","resources/images/coin2.png","null","",NA,NA,NA,NA,""
"image-keyboard-response",545,440884,"0.0-3.178-0.178","wbe9w0os36afhd2",876,"108.csv","","293.90000000596046","resources/trios/L2T4A1.jpg","39","restless",0.4,0.6,0.6,0.012638496173393,"true"
"image-keyboard-response",546,441285,"0.0-3.178-1.178","wbe9w0os36afhd2",876,"108.csv","","null","resources/maskTrios/BBA1.jpg","null","",NA,NA,NA,NA,""
"image-keyboard-response",547,442487,"0.0-3.178-2.178","wbe9w0os36afhd2",876,"108.csv","","null","resources/images/coin2.png","null","",NA,NA,NA,NA,""
"image-keyboard-response",548,442935,"0.0-3.179-0.179","wbe9w0os36afhd2",876,"108.csv","","446.29999999701977","resources/trios/L2T2A1.jpg","39","restless",0.4,0.6,0.6,0.527711415060572,"true"
"image-keyboard-response",549,443337,"0.0-3.179-1.179","wbe9w0os36afhd2",876,"108.csv","","null","resources/maskTrios/BBA1.jpg","null","",NA,NA,NA,NA,""
"image-keyboard-response",550,444540,"0.0-3.179-2.179","wbe9w0os36afhd2",876,"108.csv","","null","resources/images/coin2.png","null","",NA,NA,NA,NA,""
"image-keyboard-response",551,445063,"0.0-3.180-0.180","wbe9w0os36afhd2",876,"108.csv","","520.3999999985099","resources/trios/L1T2A3.jpg","39","restless",0.4,0.6,0.6,0.49593547310159,"true"
"image-keyboard-response",552,445464,"0.0-3.180-1.180","wbe9w0os36afhd2",876,"108.csv","","null","resources/maskTrios/BBA3.jpg","null","",NA,NA,NA,NA,""
"image-keyboard-response",553,446668,"0.0-3.180-2.180","wbe9w0os36afhd2",876,"108.csv","","null","resources/images/coin2.png","null","",NA,NA,NA,NA,""
"image-keyboard-response",554,447039,"0.0-3.181-0.181","wbe9w0os36afhd2",876,"108.csv","","370.30000000447035","resources/trios/L2T2A1.jpg","39","restless",0.4,0.6,0.6,0.332425068342598,"true"
"image-keyboard-response",555,447441,"0.0-3.181-1.181","wbe9w0os36afhd2",876,"108.csv","","null","resources/maskTrios/BBA1.jpg","null","",NA,NA,NA,NA,""
"image-keyboard-response",556,448644,"0.0-3.181-2.181","wbe9w0os36afhd2",876,"108.csv","","null","resources/images/coin2.png","null","",NA,NA,NA,NA,""
"image-keyboard-response",557,449209,"0.0-3.182-0.182","wbe9w0os36afhd2",876,"108.csv","","561.6000000014901","resources/trios/L2T4A1.jpg","39","restless",0.4,0.6,0.6,0.184198558723123,"true"
"image-keyboard-response",558,449611,"0.0-3.182-1.182","wbe9w0os36afhd2",876,"108.csv","","null","resources/maskTrios/BBA1.jpg","null","",NA,NA,NA,NA,""
"image-keyboard-response",559,450814,"0.0-3.182-2.182","wbe9w0os36afhd2",876,"108.csv","","null","resources/images/coin2.png","null","",NA,NA,NA,NA,""
"image-keyboard-response",560,451177,"0.0-3.183-0.183","wbe9w0os36afhd2",876,"108.csv","","360.3999999985099","resources/trios/L2T2A1.jpg","39","restless",0.4,0.6,0.6,0.389015424938848,"true"
"image-keyboard-response",561,451578,"0.0-3.183-1.183","wbe9w0os36afhd2",876,"108.csv","","null","resources/maskTrios/BBA1.jpg","null","",NA,NA,NA,NA,""
"image-keyboard-response",562,452781,"0.0-3.183-2.183","wbe9w0os36afhd2",876,"108.csv","","null","resources/images/coin2.png","null","",NA,NA,NA,NA,""
"image-keyboard-response",563,453308,"0.0-3.184-0.184","wbe9w0os36afhd2",876,"108.csv","","525.1999999955297","resources/trios/L2T4A1.jpg","39","restless",0.4,0.6,0.6,0.833793084042208,"false"
"image-keyboard-response",564,453713,"0.0-3.184-1.184","wbe9w0os36afhd2",876,"108.csv","","null","resources/maskTrios/BBA1.jpg","null","",NA,NA,NA,NA,""
"image-keyboard-response",565,454915,"0.0-3.184-2.184","wbe9w0os36afhd2",876,"108.csv","","null","resources/images/fishbone.png","null","",NA,NA,NA,NA,""
"image-keyboard-response",566,455354,"0.0-3.185-0.185","wbe9w0os36afhd2",876,"108.csv","","435.70000000298023","resources/trios/L1T4A1.jpg","38","restless",0.4,0.6,0.6,0.539656895499051,"true"
"image-keyboard-response",567,455756,"0.0-3.185-1.185","wbe9w0os36afhd2",876,"108.csv","","null","resources/maskTrios/BT4B.jpg","null","",NA,NA,NA,NA,""
"image-keyboard-response",568,456959,"0.0-3.185-2.185","wbe9w0os36afhd2",876,"108.csv","","null","resources/images/coin2.png","null","",NA,NA,NA,NA,""
"image-keyboard-response",569,457452,"0.0-3.186-0.186","wbe9w0os36afhd2",876,"108.csv","","490.5","resources/trios/L1T4A1.jpg","38","restless",0.4,0.6,0.6,0.618807488483922,"false"
"image-keyboard-response",570,457855,"0.0-3.186-1.186","wbe9w0os36afhd2",876,"108.csv","","null","resources/maskTrios/BT4B.jpg","null","",NA,NA,NA,NA,""
"image-keyboard-response",571,459059,"0.0-3.186-2.186","wbe9w0os36afhd2",876,"108.csv","","null","resources/images/fishbone.png","null","",NA,NA,NA,NA,""
"image-keyboard-response",572,459572,"0.0-3.187-0.187","wbe9w0os36afhd2",876,"108.csv","","510.69999999552965","resources/trios/L1T4A1.jpg","37","restless",0.5,0.5,0.6,0.159548625096233,"true"
"image-keyboard-response",573,459974,"0.0-3.187-1.187","wbe9w0os36afhd2",876,"108.csv","","null","resources/maskTrios/L1BB.jpg","null","",NA,NA,NA,NA,""
"image-keyboard-response",574,461177,"0.0-3.187-2.187","wbe9w0os36afhd2",876,"108.csv","","null","resources/images/coin2.png","null","",NA,NA,NA,NA,""
"image-keyboard-response",575,461608,"0.0-3.188-0.188","wbe9w0os36afhd2",876,"108.csv","","429.5","resources/trios/L1T2A1.jpg","38","restless",0.5,0.5,0.6,0.834722741617846,"false"
"image-keyboard-response",576,462013,"0.0-3.188-1.188","wbe9w0os36afhd2",876,"108.csv","","null","resources/maskTrios/BT2B.jpg","null","",NA,NA,NA,NA,""
"image-keyboard-response",577,463216,"0.0-3.188-2.188","wbe9w0os36afhd2",876,"108.csv","","null","resources/images/fishbone.png","null","",NA,NA,NA,NA,""
"image-keyboard-response",578,463472,"0.0-3.189-0.189","wbe9w0os36afhd2",876,"108.csv","","253.20000000298023","resources/trios/L2T4A3.jpg","37","restless",0.5,0.5,0.6,0.107708340548983,"true"
"image-keyboard-response",579,463873,"0.0-3.189-1.189","wbe9w0os36afhd2",876,"108.csv","","null","resources/maskTrios/L2BB.jpg","null","",NA,NA,NA,NA,""
"image-keyboard-response",580,465076,"0.0-3.189-2.189","wbe9w0os36afhd2",876,"108.csv","","null","resources/images/coin2.png","null","",NA,NA,NA,NA,""
"image-keyboard-response",581,465653,"0.0-3.190-0.190","wbe9w0os36afhd2",876,"108.csv","","574","resources/trios/L1T4A1.jpg","37","restless",0.5,0.6,0.6,0.131351512524444,"true"
"image-keyboard-response",582,466054,"0.0-3.190-1.190","wbe9w0os36afhd2",876,"108.csv","","null","resources/maskTrios/L1BB.jpg","null","",NA,NA,NA,NA,""
"image-keyboard-response",583,467260,"0.0-3.190-2.190","wbe9w0os36afhd2",876,"108.csv","","null","resources/images/coin2.png","null","",NA,NA,NA,NA,""
"image-keyboard-response",584,467715,"0.0-3.191-0.191","wbe9w0os36afhd2",876,"108.csv","","452.20000000298023","resources/trios/L1T4A1.jpg","37","restless",0.5,0.7,0.6,0.797717044714356,"false"
"image-keyboard-response",585,468117,"0.0-3.191-1.191","wbe9w0os36afhd2",876,"108.csv","","null","resources/maskTrios/L1BB.jpg","null","",NA,NA,NA,NA,""
"image-keyboard-response",586,469319,"0.0-3.191-2.191","wbe9w0os36afhd2",876,"108.csv","","null","resources/images/fishbone.png","null","",NA,NA,NA,NA,""
"image-keyboard-response",587,469614,"0.0-3.192-0.192","wbe9w0os36afhd2",876,"108.csv","","292.5","resources/trios/L2T2A1.jpg","39","restless",0.5,0.7,0.6,0.149794970064114,"true"
"image-keyboard-response",588,470015,"0.0-3.192-1.192","wbe9w0os36afhd2",876,"108.csv","","null","resources/maskTrios/BBA1.jpg","null","",NA,NA,NA,NA,""
"image-keyboard-response",589,471218,"0.0-3.192-2.192","wbe9w0os36afhd2",876,"108.csv","","null","resources/images/coin2.png","null","",NA,NA,NA,NA,""
"image-keyboard-response",590,471745,"0.0-3.193-0.193","wbe9w0os36afhd2",876,"108.csv","","524.6000000014901","resources/trios/L2T2A1.jpg","39","restless",0.5,0.7,0.6,0.816597494463536,"false"
"image-keyboard-response",591,472148,"0.0-3.193-1.193","wbe9w0os36afhd2",876,"108.csv","","null","resources/maskTrios/BBA1.jpg","null","",NA,NA,NA,NA,""
"image-keyboard-response",592,473351,"0.0-3.193-2.193","wbe9w0os36afhd2",876,"108.csv","","null","resources/images/fishbone.png","null","",NA,NA,NA,NA,""
"image-keyboard-response",593,473634,"0.0-3.194-0.194","wbe9w0os36afhd2",876,"108.csv","","280.3999999985099","resources/trios/L1T4A1.jpg","38","restless",0.5,0.7,0.6,0.165811361421854,"true"
"image-keyboard-response",594,474036,"0.0-3.194-1.194","wbe9w0os36afhd2",876,"108.csv","","null","resources/maskTrios/BT4B.jpg","null","",NA,NA,NA,NA,""
"image-keyboard-response",595,475239,"0.0-3.194-2.194","wbe9w0os36afhd2",876,"108.csv","","null","resources/images/coin2.png","null","",NA,NA,NA,NA,""
"image-keyboard-response",596,475427,"0.0-3.195-0.195","wbe9w0os36afhd2",876,"108.csv","","185.79999999701977","resources/trios/L2T4A3.jpg","38","restless",0.5,0.7,0.6,0.0537980652345136,"true"
"image-keyboard-response",597,475828,"0.0-3.195-1.195","wbe9w0os36afhd2",876,"108.csv","","null","resources/maskTrios/BT4B.jpg","null","",NA,NA,NA,NA,""
"image-keyboard-response",598,477031,"0.0-3.195-2.195","wbe9w0os36afhd2",876,"108.csv","","null","resources/images/coin2.png","null","",NA,NA,NA,NA,""
"image-keyboard-response",599,477340,"0.0-3.196-0.196","wbe9w0os36afhd2",876,"108.csv","","308","resources/trios/L1T4A1.jpg","38","restless",0.5,0.7,0.7,0.814076984920273,"false"
"image-keyboard-response",600,477742,"0.0-3.196-1.196","wbe9w0os36afhd2",876,"108.csv","","null","resources/maskTrios/BT4B.jpg","null","",NA,NA,NA,NA,""
"image-keyboard-response",601,478947,"0.0-3.196-2.196","wbe9w0os36afhd2",876,"108.csv","","null","resources/images/fishbone.png","null","",NA,NA,NA,NA,""
"image-keyboard-response",602,479246,"0.0-3.197-0.197","wbe9w0os36afhd2",876,"108.csv","","297.69999999552965","resources/trios/L2T2A3.jpg","37","restless",0.5,0.7,0.7,0.800895397217972,"false"
"image-keyboard-response",603,479648,"0.0-3.197-1.197","wbe9w0os36afhd2",876,"108.csv","","null","resources/maskTrios/L2BB.jpg","null","",NA,NA,NA,NA,""
"image-keyboard-response",604,480850,"0.0-3.197-2.197","wbe9w0os36afhd2",876,"108.csv","","null","resources/images/fishbone.png","null","",NA,NA,NA,NA,""
"image-keyboard-response",605,481134,"0.0-3.198-0.198","wbe9w0os36afhd2",876,"108.csv","","281.5","resources/trios/L2T4A1.jpg","39","restless",0.5,0.7,0.7,0.772881854504798,"false"
