"trial_type","trial_index","time_elapsed","internal_node_id","subject","participantCode","walkNumber","success","rt","stimulus","key_press","test_part","leftProb","midProb","rightProb","generatedNum","correct"
"pavlovia",0,1151,"0.0-0.0","j28f3g5xcnvnf3f",35,"109.csv","","","","","",NA,NA,NA,NA,""
"fullscreen",1,5069,"0.0-1.0","j28f3g5xcnvnf3f",35,"109.csv","true","","","","",NA,NA,NA,NA,""
"html-keyboard-response",2,17094,"0.0-2.0-0.0","j28f3g5xcnvnf3f",35,"109.csv","","12021.099999904633","<p><font size='6'>Arrrgh!</p></font><p>Can you be the best pirate? Try to find lots of gold! But beware, some islands have more gold than others, and over time, the island with the most gold may change. Can YOU figure it out? </p><font size='6'>GOOD LUCK, CAPTAIN!!!</font><p>Press any key to begin</p>","32","",NA,NA,NA,NA,""
"image-keyboard-response",3,20106,"0.0-2.0-1.0","j28f3g5xcnvnf3f",35,"109.csv","","null","resources/image_sets/111.png","null","",NA,NA,NA,NA,""
"image-keyboard-response",4,27441,"0.0-2.0-2.0","j28f3g5xcnvnf3f",35,"109.csv","","7331.399999976158","resources/image_sets/left_highlight.png","37","",NA,NA,NA,NA,""
"image-keyboard-response",5,30199,"0.0-2.0-3.0","j28f3g5xcnvnf3f",35,"109.csv","","2755.1999999284744","resources/image_sets/mid_highlight.png","38","",NA,NA,NA,NA,""
"image-keyboard-response",6,31549,"0.0-2.0-4.0","j28f3g5xcnvnf3f",35,"109.csv","","1347.8000000715256","resources/image_sets/right_highlight.png","39","",NA,NA,NA,NA,""
"image-keyboard-response",7,35252,"0.0-2.0-5.0","j28f3g5xcnvnf3f",35,"109.csv","","3701","resources/image_sets/111.png","13","",NA,NA,NA,NA,""
"image-keyboard-response",8,37629,"0.0-2.0-6.0","j28f3g5xcnvnf3f",35,"109.csv","","2374.600000023842","resources/images/coin2.png","13","",NA,NA,NA,NA,""
"image-keyboard-response",9,41572,"0.0-2.0-7.0","j28f3g5xcnvnf3f",35,"109.csv","","3940.7000000476837","resources/images/fishbone.png","13","",NA,NA,NA,NA,""
"html-keyboard-response",10,56824,"0.0-2.0-8.0","j28f3g5xcnvnf3f",35,"109.csv","","15249.600000023842","<p>Your first journey will be a long one, but you will get a well deserved break at the end</p><p>After the break you will have four more journeys, but each will be much shorter than the first, and you will have breaks in between each</p><p>Press Enter to begin</p>","13","",NA,NA,NA,NA,""
"image-keyboard-response",11,61126,"0.0-3.0-0.0","j28f3g5xcnvnf3f",35,"109.csv","","4299.799999952316","resources/trios/L2T1A3.jpg","37","restless",0.3,0.9,0.7,0.0933921707630661,"true"
"image-keyboard-response",12,61538,"0.0-3.0-1.0","j28f3g5xcnvnf3f",35,"109.csv","","null","resources/maskTrios/L2BB.jpg","null","",NA,NA,NA,NA,""
"image-keyboard-response",13,62750,"0.0-3.0-2.0","j28f3g5xcnvnf3f",35,"109.csv","","null","resources/images/coin2.png","null","",NA,NA,NA,NA,""
"image-keyboard-response",14,63854,"0.0-3.1-0.1","j28f3g5xcnvnf3f",35,"109.csv","","1100.9000000953674","resources/trios/L4T1A1.jpg","38","restless",0.3,0.9,0.7,0.646239496461969,"true"
"image-keyboard-response",15,64257,"0.0-3.1-1.1","j28f3g5xcnvnf3f",35,"109.csv","","null","resources/maskTrios/BT1B.jpg","null","",NA,NA,NA,NA,""
"image-keyboard-response",16,65466,"0.0-3.1-2.1","j28f3g5xcnvnf3f",35,"109.csv","","null","resources/images/coin2.png","null","",NA,NA,NA,NA,""
"image-keyboard-response",17,65947,"0.0-3.2-0.2","j28f3g5xcnvnf3f",35,"109.csv","","477.7999999523163","resources/trios/L4T2A1.jpg","39","restless",0.3,0.9,0.7,0.275748829006746,"true"
"image-keyboard-response",18,66354,"0.0-3.2-1.2","j28f3g5xcnvnf3f",35,"109.csv","","null","resources/maskTrios/BBA1.jpg","null","",NA,NA,NA,NA,""
"image-keyboard-response",19,67565,"0.0-3.2-2.2","j28f3g5xcnvnf3f",35,"109.csv","","null","resources/images/coin2.png","null","",NA,NA,NA,NA,""
"image-keyboard-response",20,69449,"0.0-3.3-0.3","j28f3g5xcnvnf3f",35,"109.csv","","1881.7000000476837","resources/trios/L2T2A3.jpg","37","restless",0.2,0.9,0.7,0.647280751039121,"false"
"image-keyboard-response",21,69857,"0.0-3.3-1.3","j28f3g5xcnvnf3f",35,"109.csv","","null","resources/maskTrios/L2BB.jpg","null","",NA,NA,NA,NA,""
"image-keyboard-response",22,71067,"0.0-3.3-2.3","j28f3g5xcnvnf3f",35,"109.csv","","null","resources/images/fishbone.png","null","",NA,NA,NA,NA,""
"image-keyboard-response",23,75762,"0.0-3.4-0.4","j28f3g5xcnvnf3f",35,"109.csv","","4691.399999976158","resources/trios/L4T2A1.jpg","38","restless",0.2,0.8,0.8,0.828370489095132,"false"
"image-keyboard-response",24,76169,"0.0-3.4-1.4","j28f3g5xcnvnf3f",35,"109.csv","","null","resources/maskTrios/BT2B.jpg","null","",NA,NA,NA,NA,""
"image-keyboard-response",25,77382,"0.0-3.4-2.4","j28f3g5xcnvnf3f",35,"109.csv","","null","resources/images/fishbone.png","null","",NA,NA,NA,NA,""
"image-keyboard-response",26,77692,"0.0-3.5-0.5","j28f3g5xcnvnf3f",35,"109.csv","","306.90000009536743","resources/trios/L2T2A3.jpg","37","restless",0.3,0.8,0.8,0.497322945886385,"false"
"image-keyboard-response",27,78099,"0.0-3.5-1.5","j28f3g5xcnvnf3f",35,"109.csv","","null","resources/maskTrios/L2BB.jpg","null","",NA,NA,NA,NA,""
"image-keyboard-response",28,79307,"0.0-3.5-2.5","j28f3g5xcnvnf3f",35,"109.csv","","null","resources/images/fishbone.png","null","",NA,NA,NA,NA,""
"image-keyboard-response",29,80115,"0.0-3.6-0.6","j28f3g5xcnvnf3f",35,"109.csv","","805","resources/trios/L2T2A3.jpg","39","restless",0.3,0.7,0.8,0.406726788549707,"true"
"image-keyboard-response",30,80525,"0.0-3.6-1.6","j28f3g5xcnvnf3f",35,"109.csv","","null","resources/maskTrios/BBA3.jpg","null","",NA,NA,NA,NA,""
"image-keyboard-response",31,81730,"0.0-3.6-2.6","j28f3g5xcnvnf3f",35,"109.csv","","null","resources/images/coin2.png","null","",NA,NA,NA,NA,""
"image-keyboard-response",32,83465,"0.0-3.7-0.7","j28f3g5xcnvnf3f",35,"109.csv","","1731.3999999761581","resources/trios/L2T2A3.jpg","38","restless",0.3,0.7,0.8,0.0112785009153196,"true"
"image-keyboard-response",33,83877,"0.0-3.7-1.7","j28f3g5xcnvnf3f",35,"109.csv","","null","resources/maskTrios/BT2B.jpg","null","",NA,NA,NA,NA,""
"image-keyboard-response",34,85086,"0.0-3.7-2.7","j28f3g5xcnvnf3f",35,"109.csv","","null","resources/images/coin2.png","null","",NA,NA,NA,NA,""
"image-keyboard-response",35,85382,"0.0-3.8-0.8","j28f3g5xcnvnf3f",35,"109.csv","","293.40000009536743","resources/trios/L2T2A3.jpg","37","restless",0.3,0.7,0.8,0.362763983828043,"false"
"image-keyboard-response",36,85793,"0.0-3.8-1.8","j28f3g5xcnvnf3f",35,"109.csv","","null","resources/maskTrios/L2BB.jpg","null","",NA,NA,NA,NA,""
"image-keyboard-response",37,87003,"0.0-3.8-2.8","j28f3g5xcnvnf3f",35,"109.csv","","null","resources/images/fishbone.png","null","",NA,NA,NA,NA,""
"image-keyboard-response",38,87347,"0.0-3.9-0.9","j28f3g5xcnvnf3f",35,"109.csv","","341.60000002384186","resources/trios/L4T1A3.jpg","38","restless",0.3,0.7,0.8,0.493154932013279,"true"
"image-keyboard-response",39,87757,"0.0-3.9-1.9","j28f3g5xcnvnf3f",35,"109.csv","","null","resources/maskTrios/BT1B.jpg","null","",NA,NA,NA,NA,""
"image-keyboard-response",40,88970,"0.0-3.9-2.9","j28f3g5xcnvnf3f",35,"109.csv","","null","resources/images/coin2.png","null","",NA,NA,NA,NA,""
"image-keyboard-response",41,91844,"0.0-3.10-0.10","j28f3g5xcnvnf3f",35,"109.csv","","2870.5999999046326","resources/trios/L4T2A3.jpg","37","restless",0.3,0.8,0.7,0.436748398124797,"false"
"image-keyboard-response",42,92250,"0.0-3.10-1.10","j28f3g5xcnvnf3f",35,"109.csv","","null","resources/maskTrios/L4BB.jpg","null","",NA,NA,NA,NA,""
"image-keyboard-response",43,93457,"0.0-3.10-2.10","j28f3g5xcnvnf3f",35,"109.csv","","null","resources/images/fishbone.png","null","",NA,NA,NA,NA,""
"image-keyboard-response",44,93732,"0.0-3.11-0.11","j28f3g5xcnvnf3f",35,"109.csv","","272.7999999523163","resources/trios/L2T2A3.jpg","39","restless",0.3,0.8,0.6,0.800926709592354,"false"
"image-keyboard-response",45,94141,"0.0-3.11-1.11","j28f3g5xcnvnf3f",35,"109.csv","","null","resources/maskTrios/BBA3.jpg","null","",NA,NA,NA,NA,""
"image-keyboard-response",46,95346,"0.0-3.11-2.11","j28f3g5xcnvnf3f",35,"109.csv","","null","resources/images/fishbone.png","null","",NA,NA,NA,NA,""
"image-keyboard-response",47,95554,"0.0-3.12-0.12","j28f3g5xcnvnf3f",35,"109.csv","","205.39999997615814","resources/trios/L4T2A3.jpg","39","restless",0.3,0.8,0.6,0.378428900846869,"true"
"image-keyboard-response",48,95964,"0.0-3.12-1.12","j28f3g5xcnvnf3f",35,"109.csv","","null","resources/maskTrios/BBA3.jpg","null","",NA,NA,NA,NA,""
"image-keyboard-response",49,97170,"0.0-3.12-2.12","j28f3g5xcnvnf3f",35,"109.csv","","null","resources/images/coin2.png","null","",NA,NA,NA,NA,""
"image-keyboard-response",50,97793,"0.0-3.13-0.13","j28f3g5xcnvnf3f",35,"109.csv","","617.6000000238419","resources/trios/L2T1A3.jpg","38","restless",0.3,0.8,0.6,0.265423885359801,"true"
"image-keyboard-response",51,98206,"0.0-3.13-1.13","j28f3g5xcnvnf3f",35,"109.csv","","null","resources/maskTrios/BT1B.jpg","null","",NA,NA,NA,NA,""
"image-keyboard-response",52,99422,"0.0-3.13-2.13","j28f3g5xcnvnf3f",35,"109.csv","","null","resources/images/coin2.png","null","",NA,NA,NA,NA,""
"image-keyboard-response",53,99875,"0.0-3.14-0.14","j28f3g5xcnvnf3f",35,"109.csv","","449.59999990463257","resources/trios/L2T1A1.jpg","37","restless",0.3,0.8,0.6,0.165351696378146,"true"
"image-keyboard-response",54,100283,"0.0-3.14-1.14","j28f3g5xcnvnf3f",35,"109.csv","","null","resources/maskTrios/L2BB.jpg","null","",NA,NA,NA,NA,""
"image-keyboard-response",55,101490,"0.0-3.14-2.14","j28f3g5xcnvnf3f",35,"109.csv","","null","resources/images/coin2.png","null","",NA,NA,NA,NA,""
"image-keyboard-response",56,102158,"0.0-3.15-0.15","j28f3g5xcnvnf3f",35,"109.csv","","665","resources/trios/L2T1A1.jpg","38","restless",0.3,0.8,0.6,0.940236950665829,"false"
"image-keyboard-response",57,102561,"0.0-3.15-1.15","j28f3g5xcnvnf3f",35,"109.csv","","null","resources/maskTrios/BT1B.jpg","null","",NA,NA,NA,NA,""
"image-keyboard-response",58,103774,"0.0-3.15-2.15","j28f3g5xcnvnf3f",35,"109.csv","","null","resources/images/fishbone.png","null","",NA,NA,NA,NA,""
"image-keyboard-response",59,104009,"0.0-3.16-0.16","j28f3g5xcnvnf3f",35,"109.csv","","233.09999990463257","resources/trios/L2T2A1.jpg","38","restless",0.3,0.8,0.6,0.563191636610224,"true"
"image-keyboard-response",60,104422,"0.0-3.16-1.16","j28f3g5xcnvnf3f",35,"109.csv","","null","resources/maskTrios/BT2B.jpg","null","",NA,NA,NA,NA,""
"image-keyboard-response",61,105634,"0.0-3.16-2.16","j28f3g5xcnvnf3f",35,"109.csv","","null","resources/images/coin2.png","null","",NA,NA,NA,NA,""
"image-keyboard-response",62,105946,"0.0-3.17-0.17","j28f3g5xcnvnf3f",35,"109.csv","","308.5","resources/trios/L2T1A3.jpg","37","restless",0.3,0.8,0.6,0.888637862425496,"false"
"image-keyboard-response",63,106357,"0.0-3.17-1.17","j28f3g5xcnvnf3f",35,"109.csv","","null","resources/maskTrios/L2BB.jpg","null","",NA,NA,NA,NA,""
"image-keyboard-response",64,107566,"0.0-3.17-2.17","j28f3g5xcnvnf3f",35,"109.csv","","null","resources/images/fishbone.png","null","",NA,NA,NA,NA,""
"image-keyboard-response",65,108407,"0.0-3.18-0.18","j28f3g5xcnvnf3f",35,"109.csv","","838.1999999284744","resources/trios/L4T2A1.jpg","38","restless",0.3,0.7,0.6,0.150931233486062,"true"
"image-keyboard-response",66,108822,"0.0-3.18-1.18","j28f3g5xcnvnf3f",35,"109.csv","","null","resources/maskTrios/BT2B.jpg","null","",NA,NA,NA,NA,""
"image-keyboard-response",67,110034,"0.0-3.18-2.18","j28f3g5xcnvnf3f",35,"109.csv","","null","resources/images/coin2.png","null","",NA,NA,NA,NA,""
"image-keyboard-response",68,110802,"0.0-3.19-0.19","j28f3g5xcnvnf3f",35,"109.csv","","765.6000000238419","resources/trios/L2T1A1.jpg","39","restless",0.3,0.7,0.6,0.91847600683483,"false"
"image-keyboard-response",69,111213,"0.0-3.19-1.19","j28f3g5xcnvnf3f",35,"109.csv","","null","resources/maskTrios/BBA1.jpg","null","",NA,NA,NA,NA,""
"image-keyboard-response",70,112422,"0.0-3.19-2.19","j28f3g5xcnvnf3f",35,"109.csv","","null","resources/images/fishbone.png","null","",NA,NA,NA,NA,""
"image-keyboard-response",71,112749,"0.0-3.20-0.20","j28f3g5xcnvnf3f",35,"109.csv","","324.60000002384186","resources/trios/L2T2A3.jpg","38","restless",0.3,0.7,0.6,0.692071532385435,"true"
"image-keyboard-response",72,113157,"0.0-3.20-1.20","j28f3g5xcnvnf3f",35,"109.csv","","null","resources/maskTrios/BT2B.jpg","null","",NA,NA,NA,NA,""
"image-keyboard-response",73,114362,"0.0-3.20-2.20","j28f3g5xcnvnf3f",35,"109.csv","","null","resources/images/coin2.png","null","",NA,NA,NA,NA,""
"image-keyboard-response",74,114658,"0.0-3.21-0.21","j28f3g5xcnvnf3f",35,"109.csv","","293.59999990463257","resources/trios/L4T2A1.jpg","37","restless",0.3,0.7,0.6,0.314065910129749,"false"
"image-keyboard-response",75,115065,"0.0-3.21-1.21","j28f3g5xcnvnf3f",35,"109.csv","","null","resources/maskTrios/L4BB.jpg","null","",NA,NA,NA,NA,""
"image-keyboard-response",76,116278,"0.0-3.21-2.21","j28f3g5xcnvnf3f",35,"109.csv","","null","resources/images/fishbone.png","null","",NA,NA,NA,NA,""
"image-keyboard-response",77,116558,"0.0-3.22-0.22","j28f3g5xcnvnf3f",35,"109.csv","","275.10000002384186","resources/trios/L4T1A3.jpg","38","restless",0.3,0.7,0.6,0.492312607645924,"true"
"image-keyboard-response",78,116961,"0.0-3.22-1.22","j28f3g5xcnvnf3f",35,"109.csv","","null","resources/maskTrios/BT1B.jpg","null","",NA,NA,NA,NA,""
"image-keyboard-response",79,118171,"0.0-3.22-2.22","j28f3g5xcnvnf3f",35,"109.csv","","null","resources/images/coin2.png","null","",NA,NA,NA,NA,""
"image-keyboard-response",80,118241,"0.0-3.23-0.23","j28f3g5xcnvnf3f",35,"109.csv","","66.5","resources/trios/L4T1A3.jpg","37","restless",0.3,0.7,0.6,0.170620573288874,"true"
"image-keyboard-response",81,118649,"0.0-3.23-1.23","j28f3g5xcnvnf3f",35,"109.csv","","null","resources/maskTrios/L4BB.jpg","null","",NA,NA,NA,NA,""
"image-keyboard-response",82,119862,"0.0-3.23-2.23","j28f3g5xcnvnf3f",35,"109.csv","","null","resources/images/coin2.png","null","",NA,NA,NA,NA,""
"image-keyboard-response",83,120233,"0.0-3.24-0.24","j28f3g5xcnvnf3f",35,"109.csv","","369","resources/trios/L4T2A1.jpg","39","restless",0.3,0.7,0.5,0.989742386906217,"false"
"image-keyboard-response",84,120640,"0.0-3.24-1.24","j28f3g5xcnvnf3f",35,"109.csv","","null","resources/maskTrios/BBA1.jpg","null","",NA,NA,NA,NA,""
"image-keyboard-response",85,121850,"0.0-3.24-2.24","j28f3g5xcnvnf3f",35,"109.csv","","null","resources/images/fishbone.png","null","",NA,NA,NA,NA,""
"image-keyboard-response",86,122105,"0.0-3.25-0.25","j28f3g5xcnvnf3f",35,"109.csv","","252.19999992847443","resources/trios/L4T2A3.jpg","38","restless",0.3,0.7,0.5,0.77255298436157,"false"
"image-keyboard-response",87,122515,"0.0-3.25-1.25","j28f3g5xcnvnf3f",35,"109.csv","","null","resources/maskTrios/BT2B.jpg","null","",NA,NA,NA,NA,""
"image-keyboard-response",88,123722,"0.0-3.25-2.25","j28f3g5xcnvnf3f",35,"109.csv","","null","resources/images/fishbone.png","null","",NA,NA,NA,NA,""
"image-keyboard-response",89,123827,"0.0-3.26-0.26","j28f3g5xcnvnf3f",35,"109.csv","","103","resources/trios/L4T2A3.jpg","38","restless",0.3,0.7,0.5,0.772719634035115,"false"
"image-keyboard-response",90,124234,"0.0-3.26-1.26","j28f3g5xcnvnf3f",35,"109.csv","","null","resources/maskTrios/BT2B.jpg","null","",NA,NA,NA,NA,""
"image-keyboard-response",91,125442,"0.0-3.26-2.26","j28f3g5xcnvnf3f",35,"109.csv","","null","resources/images/fishbone.png","null","",NA,NA,NA,NA,""
"image-keyboard-response",92,126047,"0.0-3.27-0.27","j28f3g5xcnvnf3f",35,"109.csv","","602.6999999284744","resources/trios/L2T2A3.jpg","39","restless",0.3,0.7,0.5,0.461398148251295,"true"
"image-keyboard-response",93,126452,"0.0-3.27-1.27","j28f3g5xcnvnf3f",35,"109.csv","","null","resources/maskTrios/BBA3.jpg","null","",NA,NA,NA,NA,""
"image-keyboard-response",94,127659,"0.0-3.27-2.27","j28f3g5xcnvnf3f",35,"109.csv","","null","resources/images/coin2.png","null","",NA,NA,NA,NA,""
"image-keyboard-response",95,129606,"0.0-3.28-0.28","j28f3g5xcnvnf3f",35,"109.csv","","1944","resources/trios/L2T2A1.jpg","37","restless",0.3,0.7,0.5,0.450947605085219,"false"
"image-keyboard-response",96,130020,"0.0-3.28-1.28","j28f3g5xcnvnf3f",35,"109.csv","","null","resources/maskTrios/L2BB.jpg","null","",NA,NA,NA,NA,""
"image-keyboard-response",97,131226,"0.0-3.28-2.28","j28f3g5xcnvnf3f",35,"109.csv","","null","resources/images/fishbone.png","null","",NA,NA,NA,NA,""
"image-keyboard-response",98,133799,"0.0-3.29-0.29","j28f3g5xcnvnf3f",35,"109.csv","","2570.2000000476837","resources/trios/L4T2A3.jpg","39","restless",0.3,0.7,0.5,0.756224121851465,"false"
"image-keyboard-response",99,134209,"0.0-3.29-1.29","j28f3g5xcnvnf3f",35,"109.csv","","null","resources/maskTrios/BBA3.jpg","null","",NA,NA,NA,NA,""
"image-keyboard-response",100,135419,"0.0-3.29-2.29","j28f3g5xcnvnf3f",35,"109.csv","","null","resources/images/fishbone.png","null","",NA,NA,NA,NA,""
"image-keyboard-response",101,135928,"0.0-3.30-0.30","j28f3g5xcnvnf3f",35,"109.csv","","505.89999997615814","resources/trios/L4T1A3.jpg","38","restless",0.3,0.7,0.5,0.701414604363247,"false"
"image-keyboard-response",102,136341,"0.0-3.30-1.30","j28f3g5xcnvnf3f",35,"109.csv","","null","resources/maskTrios/BT1B.jpg","null","",NA,NA,NA,NA,""
"image-keyboard-response",103,137550,"0.0-3.30-2.30","j28f3g5xcnvnf3f",35,"109.csv","","null","resources/images/fishbone.png","null","",NA,NA,NA,NA,""
"image-keyboard-response",104,137785,"0.0-3.31-0.31","j28f3g5xcnvnf3f",35,"109.csv","","232.5","resources/trios/L2T2A1.jpg","39","restless",0.3,0.7,0.5,0.0625044239560335,"true"
"image-keyboard-response",105,138194,"0.0-3.31-1.31","j28f3g5xcnvnf3f",35,"109.csv","","null","resources/maskTrios/BBA1.jpg","null","",NA,NA,NA,NA,""
"image-keyboard-response",106,139405,"0.0-3.31-2.31","j28f3g5xcnvnf3f",35,"109.csv","","null","resources/images/coin2.png","null","",NA,NA,NA,NA,""
"image-keyboard-response",107,139630,"0.0-3.32-0.32","j28f3g5xcnvnf3f",35,"109.csv","","221.90000009536743","resources/trios/L4T1A3.jpg","38","restless",0.2,0.7,0.5,0.0557209672904788,"true"
"image-keyboard-response",108,140041,"0.0-3.32-1.32","j28f3g5xcnvnf3f",35,"109.csv","","null","resources/maskTrios/BT1B.jpg","null","",NA,NA,NA,NA,""
"image-keyboard-response",109,141250,"0.0-3.32-2.32","j28f3g5xcnvnf3f",35,"109.csv","","null","resources/images/coin2.png","null","",NA,NA,NA,NA,""
"image-keyboard-response",110,141521,"0.0-3.33-0.33","j28f3g5xcnvnf3f",35,"109.csv","","268.2999999523163","resources/trios/L2T2A3.jpg","37","restless",0.2,0.7,0.5,0.368479940414352,"false"
"image-keyboard-response",111,141934,"0.0-3.33-1.33","j28f3g5xcnvnf3f",35,"109.csv","","null","resources/maskTrios/L2BB.jpg","null","",NA,NA,NA,NA,""
"image-keyboard-response",112,143137,"0.0-3.33-2.33","j28f3g5xcnvnf3f",35,"109.csv","","null","resources/images/fishbone.png","null","",NA,NA,NA,NA,""
"image-keyboard-response",113,143346,"0.0-3.34-0.34","j28f3g5xcnvnf3f",35,"109.csv","","205.70000004768372","resources/trios/L4T1A1.jpg","37","restless",0.2,0.8,0.5,0.498681819015292,"false"
"image-keyboard-response",114,143758,"0.0-3.34-1.34","j28f3g5xcnvnf3f",35,"109.csv","","null","resources/maskTrios/L4BB.jpg","null","",NA,NA,NA,NA,""
"image-keyboard-response",115,144965,"0.0-3.34-2.34","j28f3g5xcnvnf3f",35,"109.csv","","null","resources/images/fishbone.png","null","",NA,NA,NA,NA,""
"image-keyboard-response",116,145189,"0.0-3.35-0.35","j28f3g5xcnvnf3f",35,"109.csv","","220.60000002384186","resources/trios/L4T2A1.jpg","37","restless",0.2,0.8,0.5,0.796652387190388,"false"
"image-keyboard-response",117,145598,"0.0-3.35-1.35","j28f3g5xcnvnf3f",35,"109.csv","","null","resources/maskTrios/L4BB.jpg","null","",NA,NA,NA,NA,""
"image-keyboard-response",118,146802,"0.0-3.35-2.35","j28f3g5xcnvnf3f",35,"109.csv","","null","resources/images/fishbone.png","null","",NA,NA,NA,NA,""
"image-keyboard-response",119,147052,"0.0-3.36-0.36","j28f3g5xcnvnf3f",35,"109.csv","","247.69999992847443","resources/trios/L4T2A1.jpg","38","restless",0.2,0.8,0.6,0.449944211714797,"true"
"image-keyboard-response",120,147459,"0.0-3.36-1.36","j28f3g5xcnvnf3f",35,"109.csv","","null","resources/maskTrios/BT2B.jpg","null","",NA,NA,NA,NA,""
"image-keyboard-response",121,148666,"0.0-3.36-2.36","j28f3g5xcnvnf3f",35,"109.csv","","null","resources/images/coin2.png","null","",NA,NA,NA,NA,""
"image-keyboard-response",122,148885,"0.0-3.37-0.37","j28f3g5xcnvnf3f",35,"109.csv","","213.39999997615814","resources/trios/L4T2A1.jpg","38","restless",0.3,0.8,0.6,0.956471409573361,"false"
"image-keyboard-response",123,149292,"0.0-3.37-1.37","j28f3g5xcnvnf3f",35,"109.csv","","null","resources/maskTrios/BT2B.jpg","null","",NA,NA,NA,NA,""
"image-keyboard-response",124,150502,"0.0-3.37-2.37","j28f3g5xcnvnf3f",35,"109.csv","","null","resources/images/fishbone.png","null","",NA,NA,NA,NA,""
"image-keyboard-response",125,150752,"0.0-3.38-0.38","j28f3g5xcnvnf3f",35,"109.csv","","247.5","resources/trios/L2T2A1.jpg","39","restless",0.3,0.7,0.6,0.499442125671061,"true"
"image-keyboard-response",126,151166,"0.0-3.38-1.38","j28f3g5xcnvnf3f",35,"109.csv","","null","resources/maskTrios/BBA1.jpg","null","",NA,NA,NA,NA,""
"image-keyboard-response",127,152381,"0.0-3.38-2.38","j28f3g5xcnvnf3f",35,"109.csv","","null","resources/images/coin2.png","null","",NA,NA,NA,NA,""
"image-keyboard-response",128,152665,"0.0-3.39-0.39","j28f3g5xcnvnf3f",35,"109.csv","","281.2000000476837","resources/trios/L2T2A3.jpg","37","restless",0.3,0.7,0.6,0.666479619689253,"false"
"image-keyboard-response",129,153076,"0.0-3.39-1.39","j28f3g5xcnvnf3f",35,"109.csv","","null","resources/maskTrios/L2BB.jpg","null","",NA,NA,NA,NA,""
"image-keyboard-response",130,154282,"0.0-3.39-2.39","j28f3g5xcnvnf3f",35,"109.csv","","null","resources/images/fishbone.png","null","",NA,NA,NA,NA,""
"image-keyboard-response",131,154571,"0.0-3.40-0.40","j28f3g5xcnvnf3f",35,"109.csv","","287.3000000715256","resources/trios/L4T1A3.jpg","37","restless",0.3,0.7,0.6,0.131314262568203,"true"
"image-keyboard-response",132,154982,"0.0-3.40-1.40","j28f3g5xcnvnf3f",35,"109.csv","","null","resources/maskTrios/L4BB.jpg","null","",NA,NA,NA,NA,""
"image-keyboard-response",133,156193,"0.0-3.40-2.40","j28f3g5xcnvnf3f",35,"109.csv","","null","resources/images/coin2.png","null","",NA,NA,NA,NA,""
"image-keyboard-response",134,156407,"0.0-3.41-0.41","j28f3g5xcnvnf3f",35,"109.csv","","211.39999997615814","resources/trios/L2T2A3.jpg","38","restless",0.3,0.8,0.6,0.140990089124159,"true"
"image-keyboard-response",135,156813,"0.0-3.41-1.41","j28f3g5xcnvnf3f",35,"109.csv","","null","resources/maskTrios/BT2B.jpg","null","",NA,NA,NA,NA,""
"image-keyboard-response",136,158017,"0.0-3.41-2.41","j28f3g5xcnvnf3f",35,"109.csv","","null","resources/images/coin2.png","null","",NA,NA,NA,NA,""
"image-keyboard-response",137,158298,"0.0-3.42-0.42","j28f3g5xcnvnf3f",35,"109.csv","","278.1999999284744","resources/trios/L2T1A3.jpg","39","restless",0.3,0.8,0.6,0.332531301116872,"true"
"image-keyboard-response",138,158708,"0.0-3.42-1.42","j28f3g5xcnvnf3f",35,"109.csv","","null","resources/maskTrios/BBA3.jpg","null","",NA,NA,NA,NA,""
"image-keyboard-response",139,159916,"0.0-3.42-2.42","j28f3g5xcnvnf3f",35,"109.csv","","null","resources/images/coin2.png","null","",NA,NA,NA,NA,""
"image-keyboard-response",140,160128,"0.0-3.43-0.43","j28f3g5xcnvnf3f",35,"109.csv","","207.39999997615814","resources/trios/L4T2A3.jpg","38","restless",0.3,0.8,0.6,0.211573895382086,"true"
"image-keyboard-response",141,160538,"0.0-3.43-1.43","j28f3g5xcnvnf3f",35,"109.csv","","null","resources/maskTrios/BT2B.jpg","null","",NA,NA,NA,NA,""
"image-keyboard-response",142,161749,"0.0-3.43-2.43","j28f3g5xcnvnf3f",35,"109.csv","","null","resources/images/coin2.png","null","",NA,NA,NA,NA,""
"image-keyboard-response",143,161865,"0.0-3.44-0.44","j28f3g5xcnvnf3f",35,"109.csv","","112.89999997615814","resources/trios/L2T1A1.jpg","37","restless",0.3,0.8,0.6,0.794275882070356,"false"
"image-keyboard-response",144,162275,"0.0-3.44-1.44","j28f3g5xcnvnf3f",35,"109.csv","","null","resources/maskTrios/L2BB.jpg","null","",NA,NA,NA,NA,""
"image-keyboard-response",145,163483,"0.0-3.44-2.44","j28f3g5xcnvnf3f",35,"109.csv","","null","resources/images/fishbone.png","null","",NA,NA,NA,NA,""
"image-keyboard-response",146,163636,"0.0-3.45-0.45","j28f3g5xcnvnf3f",35,"109.csv","","151.19999992847443","resources/trios/L2T1A1.jpg","38","restless",0.3,0.8,0.6,0.225165846357427,"true"
"image-keyboard-response",147,164041,"0.0-3.45-1.45","j28f3g5xcnvnf3f",35,"109.csv","","null","resources/maskTrios/BT1B.jpg","null","",NA,NA,NA,NA,""
"image-keyboard-response",148,165249,"0.0-3.45-2.45","j28f3g5xcnvnf3f",35,"109.csv","","null","resources/images/coin2.png","null","",NA,NA,NA,NA,""
"image-keyboard-response",149,165735,"0.0-3.46-0.46","j28f3g5xcnvnf3f",35,"109.csv","","482.89999997615814","resources/trios/L2T2A3.jpg","39","restless",0.3,0.8,0.6,0.118410308192357,"true"
"image-keyboard-response",150,166146,"0.0-3.46-1.46","j28f3g5xcnvnf3f",35,"109.csv","","null","resources/maskTrios/BBA3.jpg","null","",NA,NA,NA,NA,""
"image-keyboard-response",151,167358,"0.0-3.46-2.46","j28f3g5xcnvnf3f",35,"109.csv","","null","resources/images/coin2.png","null","",NA,NA,NA,NA,""
"image-keyboard-response",152,167638,"0.0-3.47-0.47","j28f3g5xcnvnf3f",35,"109.csv","","277.2000000476837","resources/trios/L4T2A3.jpg","38","restless",0.3,0.8,0.6,0.852528909880407,"false"
"image-keyboard-response",153,168053,"0.0-3.47-1.47","j28f3g5xcnvnf3f",35,"109.csv","","null","resources/maskTrios/BT2B.jpg","null","",NA,NA,NA,NA,""
"image-keyboard-response",154,169260,"0.0-3.47-2.47","j28f3g5xcnvnf3f",35,"109.csv","","null","resources/images/fishbone.png","null","",NA,NA,NA,NA,""
"image-keyboard-response",155,169346,"0.0-3.48-0.48","j28f3g5xcnvnf3f",35,"109.csv","","83.10000002384186","resources/trios/L4T2A1.jpg","39","restless",0.3,0.8,0.5,0.544213702501769,"false"
"image-keyboard-response",156,169754,"0.0-3.48-1.48","j28f3g5xcnvnf3f",35,"109.csv","","null","resources/maskTrios/BBA1.jpg","null","",NA,NA,NA,NA,""
"image-keyboard-response",157,170966,"0.0-3.48-2.48","j28f3g5xcnvnf3f",35,"109.csv","","null","resources/images/fishbone.png","null","",NA,NA,NA,NA,""
"image-keyboard-response",158,171189,"0.0-3.49-0.49","j28f3g5xcnvnf3f",35,"109.csv","","220.70000004768372","resources/trios/L4T2A1.jpg","37","restless",0.3,0.8,0.4,0.336836091118512,"false"
"image-keyboard-response",159,171598,"0.0-3.49-1.49","j28f3g5xcnvnf3f",35,"109.csv","","null","resources/maskTrios/L4BB.jpg","null","",NA,NA,NA,NA,""
"image-keyboard-response",160,172801,"0.0-3.49-2.49","j28f3g5xcnvnf3f",35,"109.csv","","null","resources/images/fishbone.png","null","",NA,NA,NA,NA,""
"image-keyboard-response",161,173121,"0.0-3.50-0.50","j28f3g5xcnvnf3f",35,"109.csv","","316.7000000476837","resources/trios/L4T2A1.jpg","39","restless",0.3,0.8,0.4,0.201297077764333,"true"
"image-keyboard-response",162,173533,"0.0-3.50-1.50","j28f3g5xcnvnf3f",35,"109.csv","","null","resources/maskTrios/BBA1.jpg","null","",NA,NA,NA,NA,""
"image-keyboard-response",163,174739,"0.0-3.50-2.50","j28f3g5xcnvnf3f",35,"109.csv","","null","resources/images/coin2.png","null","",NA,NA,NA,NA,""
"image-keyboard-response",164,175018,"0.0-3.51-0.51","j28f3g5xcnvnf3f",35,"109.csv","","276.1999999284744","resources/trios/L2T2A3.jpg","38","restless",0.3,0.8,0.4,0.60825445710593,"true"
"image-keyboard-response",165,175429,"0.0-3.51-1.51","j28f3g5xcnvnf3f",35,"109.csv","","null","resources/maskTrios/BT2B.jpg","null","",NA,NA,NA,NA,""
"image-keyboard-response",166,176638,"0.0-3.51-2.51","j28f3g5xcnvnf3f",35,"109.csv","","null","resources/images/coin2.png","null","",NA,NA,NA,NA,""
"image-keyboard-response",167,177247,"0.0-3.52-0.52","j28f3g5xcnvnf3f",35,"109.csv","","606.6000000238419","resources/trios/L4T2A3.jpg","37","restless",0.3,0.8,0.4,0.266507161254878,"true"
"image-keyboard-response",168,177661,"0.0-3.52-1.52","j28f3g5xcnvnf3f",35,"109.csv","","null","resources/maskTrios/L4BB.jpg","null","",NA,NA,NA,NA,""
"image-keyboard-response",169,178866,"0.0-3.52-2.52","j28f3g5xcnvnf3f",35,"109.csv","","null","resources/images/coin2.png","null","",NA,NA,NA,NA,""
"image-keyboard-response",170,179166,"0.0-3.53-0.53","j28f3g5xcnvnf3f",35,"109.csv","","293.7999999523163","resources/trios/L4T1A3.jpg","38","restless",0.3,0.8,0.4,0.601919480812293,"true"
"image-keyboard-response",171,179582,"0.0-3.53-1.53","j28f3g5xcnvnf3f",35,"109.csv","","null","resources/maskTrios/BT1B.jpg","null","",NA,NA,NA,NA,""
"image-keyboard-response",172,180795,"0.0-3.53-2.53","j28f3g5xcnvnf3f",35,"109.csv","","null","resources/images/coin2.png","null","",NA,NA,NA,NA,""
"image-keyboard-response",173,181211,"0.0-3.54-0.54","j28f3g5xcnvnf3f",35,"109.csv","","413","resources/trios/L4T2A3.jpg","37","restless",0.3,0.8,0.4,0.393890734813575,"false"
"image-keyboard-response",174,181614,"0.0-3.54-1.54","j28f3g5xcnvnf3f",35,"109.csv","","null","resources/maskTrios/L4BB.jpg","null","",NA,NA,NA,NA,""
"image-keyboard-response",175,182820,"0.0-3.54-2.54","j28f3g5xcnvnf3f",35,"109.csv","","null","resources/images/fishbone.png","null","",NA,NA,NA,NA,""
"image-keyboard-response",176,183014,"0.0-3.55-0.55","j28f3g5xcnvnf3f",35,"109.csv","","191.10000002384186","resources/trios/L4T1A1.jpg","38","restless",0.3,0.8,0.4,0.904904241116992,"false"
"image-keyboard-response",177,183417,"0.0-3.55-1.55","j28f3g5xcnvnf3f",35,"109.csv","","null","resources/maskTrios/BT1B.jpg","null","",NA,NA,NA,NA,""
"image-keyboard-response",178,184628,"0.0-3.55-2.55","j28f3g5xcnvnf3f",35,"109.csv","","null","resources/images/fishbone.png","null","",NA,NA,NA,NA,""
"image-keyboard-response",179,184811,"0.0-3.56-0.56","j28f3g5xcnvnf3f",35,"109.csv","","179.60000002384186","resources/trios/L4T2A3.jpg","38","restless",0.4,0.8,0.4,0.86565043495455,"false"
"image-keyboard-response",180,185218,"0.0-3.56-1.56","j28f3g5xcnvnf3f",35,"109.csv","","null","resources/maskTrios/BT2B.jpg","null","",NA,NA,NA,NA,""
"image-keyboard-response",181,186429,"0.0-3.56-2.56","j28f3g5xcnvnf3f",35,"109.csv","","null","resources/images/fishbone.png","null","",NA,NA,NA,NA,""
"image-keyboard-response",182,186642,"0.0-3.57-0.57","j28f3g5xcnvnf3f",35,"109.csv","","210.5","resources/trios/L2T2A1.jpg","39","restless",0.5,0.8,0.4,0.433822402914424,"false"
"image-keyboard-response",183,187053,"0.0-3.57-1.57","j28f3g5xcnvnf3f",35,"109.csv","","null","resources/maskTrios/BBA1.jpg","null","",NA,NA,NA,NA,""
"image-keyboard-response",184,188259,"0.0-3.57-2.57","j28f3g5xcnvnf3f",35,"109.csv","","null","resources/images/fishbone.png","null","",NA,NA,NA,NA,""
"image-keyboard-response",185,188450,"0.0-3.58-0.58","j28f3g5xcnvnf3f",35,"109.csv","","187.89999997615814","resources/trios/L4T1A1.jpg","37","restless",0.5,0.8,0.4,0.0226972181712588,"true"
"image-keyboard-response",186,188858,"0.0-3.58-1.58","j28f3g5xcnvnf3f",35,"109.csv","","null","resources/maskTrios/L4BB.jpg","null","",NA,NA,NA,NA,""
"image-keyboard-response",187,190070,"0.0-3.58-2.58","j28f3g5xcnvnf3f",35,"109.csv","","null","resources/images/coin2.png","null","",NA,NA,NA,NA,""
"image-keyboard-response",188,190379,"0.0-3.59-0.59","j28f3g5xcnvnf3f",35,"109.csv","","306.60000002384186","resources/trios/L2T2A1.jpg","38","restless",0.5,0.8,0.4,0.934344563265619,"false"
"image-keyboard-response",189,190787,"0.0-3.59-1.59","j28f3g5xcnvnf3f",35,"109.csv","","null","resources/maskTrios/BT2B.jpg","null","",NA,NA,NA,NA,""
"image-keyboard-response",190,191998,"0.0-3.59-2.59","j28f3g5xcnvnf3f",35,"109.csv","","null","resources/images/fishbone.png","null","",NA,NA,NA,NA,""
"image-keyboard-response",191,192190,"0.0-3.60-0.60","j28f3g5xcnvnf3f",35,"109.csv","","189.59999990463257","resources/trios/L2T2A1.jpg","37","restless",0.5,0.8,0.4,0.812433192706462,"false"
"image-keyboard-response",192,192598,"0.0-3.60-1.60","j28f3g5xcnvnf3f",35,"109.csv","","null","resources/maskTrios/L2BB.jpg","null","",NA,NA,NA,NA,""
"image-keyboard-response",193,193806,"0.0-3.60-2.60","j28f3g5xcnvnf3f",35,"109.csv","","null","resources/images/fishbone.png","null","",NA,NA,NA,NA,""
"image-keyboard-response",194,194205,"0.0-3.61-0.61","j28f3g5xcnvnf3f",35,"109.csv","","396.7000000476837","resources/trios/L4T2A3.jpg","37","restless",0.5,0.8,0.4,0.803260214443716,"false"
"image-keyboard-response",195,194614,"0.0-3.61-1.61","j28f3g5xcnvnf3f",35,"109.csv","","null","resources/maskTrios/L4BB.jpg","null","",NA,NA,NA,NA,""
"image-keyboard-response",196,195822,"0.0-3.61-2.61","j28f3g5xcnvnf3f",35,"109.csv","","null","resources/images/fishbone.png","null","",NA,NA,NA,NA,""
"image-keyboard-response",197,196148,"0.0-3.62-0.62","j28f3g5xcnvnf3f",35,"109.csv","","323.10000002384186","resources/trios/L4T1A3.jpg","39","restless",0.5,0.8,0.4,0.520741943754766,"false"
"image-keyboard-response",198,196553,"0.0-3.62-1.62","j28f3g5xcnvnf3f",35,"109.csv","","null","resources/maskTrios/BBA3.jpg","null","",NA,NA,NA,NA,""
"image-keyboard-response",199,197762,"0.0-3.62-2.62","j28f3g5xcnvnf3f",35,"109.csv","","null","resources/images/fishbone.png","null","",NA,NA,NA,NA,""
"image-keyboard-response",200,197881,"0.0-3.63-0.63","j28f3g5xcnvnf3f",35,"109.csv","","115.89999997615814","resources/trios/L4T2A3.jpg","38","restless",0.5,0.8,0.4,0.124319738813386,"true"
"image-keyboard-response",201,198292,"0.0-3.63-1.63","j28f3g5xcnvnf3f",35,"109.csv","","null","resources/maskTrios/BT2B.jpg","null","",NA,NA,NA,NA,""
"image-keyboard-response",202,199498,"0.0-3.63-2.63","j28f3g5xcnvnf3f",35,"109.csv","","null","resources/images/coin2.png","null","",NA,NA,NA,NA,""
"image-keyboard-response",203,199691,"0.0-3.64-0.64","j28f3g5xcnvnf3f",35,"109.csv","","190.29999995231628","resources/trios/L4T1A1.jpg","39","restless",0.5,0.8,0.4,0.723130796502891,"false"
"image-keyboard-response",204,200098,"0.0-3.64-1.64","j28f3g5xcnvnf3f",35,"109.csv","","null","resources/maskTrios/BBA1.jpg","null","",NA,NA,NA,NA,""
"image-keyboard-response",205,201307,"0.0-3.64-2.64","j28f3g5xcnvnf3f",35,"109.csv","","null","resources/images/fishbone.png","null","",NA,NA,NA,NA,""
"image-keyboard-response",206,201646,"0.0-3.65-0.65","j28f3g5xcnvnf3f",35,"109.csv","","336.7999999523163","resources/trios/L2T2A1.jpg","38","restless",0.5,0.8,0.4,0.97647285050499,"false"
"image-keyboard-response",207,202058,"0.0-3.65-1.65","j28f3g5xcnvnf3f",35,"109.csv","","null","resources/maskTrios/BT2B.jpg","null","",NA,NA,NA,NA,""
"image-keyboard-response",208,203268,"0.0-3.65-2.65","j28f3g5xcnvnf3f",35,"109.csv","","null","resources/images/fishbone.png","null","",NA,NA,NA,NA,""
"image-keyboard-response",209,203444,"0.0-3.66-0.66","j28f3g5xcnvnf3f",35,"109.csv","","175.10000002384186","resources/trios/L4T1A3.jpg","37","restless",0.5,0.8,0.4,0.94823459672538,"false"
"image-keyboard-response",210,203851,"0.0-3.66-1.66","j28f3g5xcnvnf3f",35,"109.csv","","null","resources/maskTrios/L4BB.jpg","null","",NA,NA,NA,NA,""
"image-keyboard-response",211,205061,"0.0-3.66-2.66","j28f3g5xcnvnf3f",35,"109.csv","","null","resources/images/fishbone.png","null","",NA,NA,NA,NA,""
"image-keyboard-response",212,205945,"0.0-3.67-0.67","j28f3g5xcnvnf3f",35,"109.csv","","880.7999999523163","resources/trios/L4T2A3.jpg","39","restless",0.5,0.8,0.4,0.318509423815312,"true"
"image-keyboard-response",213,206358,"0.0-3.67-1.67","j28f3g5xcnvnf3f",35,"109.csv","","null","resources/maskTrios/BBA3.jpg","null","",NA,NA,NA,NA,""
"image-keyboard-response",214,207574,"0.0-3.67-2.67","j28f3g5xcnvnf3f",35,"109.csv","","null","resources/images/coin2.png","null","",NA,NA,NA,NA,""
"image-keyboard-response",215,207746,"0.0-3.68-0.68","j28f3g5xcnvnf3f",35,"109.csv","","169.5","resources/trios/L2T1A3.jpg","38","restless",0.5,0.8,0.4,0.421748630447609,"true"
"image-keyboard-response",216,208156,"0.0-3.68-1.68","j28f3g5xcnvnf3f",35,"109.csv","","null","resources/maskTrios/BT1B.jpg","null","",NA,NA,NA,NA,""
"image-keyboard-response",217,209374,"0.0-3.68-2.68","j28f3g5xcnvnf3f",35,"109.csv","","null","resources/images/coin2.png","null","",NA,NA,NA,NA,""
"image-keyboard-response",218,209678,"0.0-3.69-0.69","j28f3g5xcnvnf3f",35,"109.csv","","300.89999997615814","resources/trios/L4T2A3.jpg","39","restless",0.5,0.8,0.4,0.702609520204214,"false"
"image-keyboard-response",219,210081,"0.0-3.69-1.69","j28f3g5xcnvnf3f",35,"109.csv","","null","resources/maskTrios/BBA3.jpg","null","",NA,NA,NA,NA,""
"image-keyboard-response",220,211291,"0.0-3.69-2.69","j28f3g5xcnvnf3f",35,"109.csv","","null","resources/images/fishbone.png","null","",NA,NA,NA,NA,""
"image-keyboard-response",221,211477,"0.0-3.70-0.70","j28f3g5xcnvnf3f",35,"109.csv","","185.30000007152557","resources/trios/L4T2A3.jpg","37","restless",0.5,0.7,0.4,0.137557223186873,"true"
"image-keyboard-response",222,211883,"0.0-3.70-1.70","j28f3g5xcnvnf3f",35,"109.csv","","null","resources/maskTrios/L4BB.jpg","null","",NA,NA,NA,NA,""
"image-keyboard-response",223,213090,"0.0-3.70-2.70","j28f3g5xcnvnf3f",35,"109.csv","","null","resources/images/coin2.png","null","",NA,NA,NA,NA,""
"image-keyboard-response",224,213310,"0.0-3.71-0.71","j28f3g5xcnvnf3f",35,"109.csv","","216.59999990463257","resources/trios/L2T2A1.jpg","38","restless",0.5,0.7,0.4,0.920852115630064,"false"
"image-keyboard-response",225,213716,"0.0-3.71-1.71","j28f3g5xcnvnf3f",35,"109.csv","","null","resources/maskTrios/BT2B.jpg","null","",NA,NA,NA,NA,""
"image-keyboard-response",226,214930,"0.0-3.71-2.71","j28f3g5xcnvnf3f",35,"109.csv","","null","resources/images/fishbone.png","null","",NA,NA,NA,NA,""
"image-keyboard-response",227,215411,"0.0-3.72-0.72","j28f3g5xcnvnf3f",35,"109.csv","","477.7000000476837","resources/trios/L2T2A3.jpg","37","restless",0.5,0.7,0.4,0.893533172264811,"false"
"image-keyboard-response",228,215822,"0.0-3.72-1.72","j28f3g5xcnvnf3f",35,"109.csv","","null","resources/maskTrios/L2BB.jpg","null","",NA,NA,NA,NA,""
"image-keyboard-response",229,217027,"0.0-3.72-2.72","j28f3g5xcnvnf3f",35,"109.csv","","null","resources/images/fishbone.png","null","",NA,NA,NA,NA,""
"image-keyboard-response",230,217197,"0.0-3.73-0.73","j28f3g5xcnvnf3f",35,"109.csv","","166.60000002384186","resources/trios/L2T2A3.jpg","38","restless",0.6,0.7,0.4,0.726970770398546,"false"
"image-keyboard-response",231,217606,"0.0-3.73-1.73","j28f3g5xcnvnf3f",35,"109.csv","","null","resources/maskTrios/BT2B.jpg","null","",NA,NA,NA,NA,""
"image-keyboard-response",232,218814,"0.0-3.73-2.73","j28f3g5xcnvnf3f",35,"109.csv","","null","resources/images/fishbone.png","null","",NA,NA,NA,NA,""
"image-keyboard-response",233,218913,"0.0-3.74-0.74","j28f3g5xcnvnf3f",35,"109.csv","","96.60000002384186","resources/trios/L4T2A1.jpg","39","restless",0.6,0.7,0.4,0.408139696331571,"false"
"image-keyboard-response",234,219321,"0.0-3.74-1.74","j28f3g5xcnvnf3f",35,"109.csv","","null","resources/maskTrios/BBA1.jpg","null","",NA,NA,NA,NA,""
"image-keyboard-response",235,220534,"0.0-3.74-2.74","j28f3g5xcnvnf3f",35,"109.csv","","null","resources/images/fishbone.png","null","",NA,NA,NA,NA,""
"image-keyboard-response",236,220574,"0.0-3.75-0.75","j28f3g5xcnvnf3f",35,"109.csv","","36.699999928474426","resources/trios/L2T2A1.jpg","38","restless",0.6,0.7,0.4,0.64377837834056,"true"
"image-keyboard-response",237,220982,"0.0-3.75-1.75","j28f3g5xcnvnf3f",35,"109.csv","","null","resources/maskTrios/BT2B.jpg","null","",NA,NA,NA,NA,""
"image-keyboard-response",238,222198,"0.0-3.75-2.75","j28f3g5xcnvnf3f",35,"109.csv","","null","resources/images/coin2.png","null","",NA,NA,NA,NA,""
"image-keyboard-response",239,222302,"0.0-3.76-0.76","j28f3g5xcnvnf3f",35,"109.csv","","101.80000007152557","resources/trios/L4T2A1.jpg","38","restless",0.6,0.7,0.4,0.242942897753742,"true"
"image-keyboard-response",240,222710,"0.0-3.76-1.76","j28f3g5xcnvnf3f",35,"109.csv","","null","resources/maskTrios/BT2B.jpg","null","",NA,NA,NA,NA,""
"image-keyboard-response",241,223917,"0.0-3.76-2.76","j28f3g5xcnvnf3f",35,"109.csv","","null","resources/images/coin2.png","null","",NA,NA,NA,NA,""
"image-keyboard-response",242,223964,"0.0-3.77-0.77","j28f3g5xcnvnf3f",35,"109.csv","","44.5","resources/trios/L2T1A1.jpg","38","restless",0.6,0.7,0.4,0.171615235379615,"true"
"image-keyboard-response",243,224374,"0.0-3.77-1.77","j28f3g5xcnvnf3f",35,"109.csv","","null","resources/maskTrios/BT1B.jpg","null","",NA,NA,NA,NA,""
"image-keyboard-response",244,225578,"0.0-3.77-2.77","j28f3g5xcnvnf3f",35,"109.csv","","null","resources/images/coin2.png","null","",NA,NA,NA,NA,""
"image-keyboard-response",245,225815,"0.0-3.78-0.78","j28f3g5xcnvnf3f",35,"109.csv","","234","resources/trios/L4T1A3.jpg","38","restless",0.6,0.7,0.4,0.533087130051429,"true"
"image-keyboard-response",246,226230,"0.0-3.78-1.78","j28f3g5xcnvnf3f",35,"109.csv","","null","resources/maskTrios/BT1B.jpg","null","",NA,NA,NA,NA,""
"image-keyboard-response",247,227442,"0.0-3.78-2.78","j28f3g5xcnvnf3f",35,"109.csv","","null","resources/images/coin2.png","null","",NA,NA,NA,NA,""
"image-keyboard-response",248,227631,"0.0-3.79-0.79","j28f3g5xcnvnf3f",35,"109.csv","","187.5","resources/trios/L2T2A1.jpg","38","restless",0.6,0.7,0.4,0.133182653438774,"true"
"image-keyboard-response",249,228041,"0.0-3.79-1.79","j28f3g5xcnvnf3f",35,"109.csv","","null","resources/maskTrios/BT2B.jpg","null","",NA,NA,NA,NA,""
"image-keyboard-response",250,229250,"0.0-3.79-2.79","j28f3g5xcnvnf3f",35,"109.csv","","null","resources/images/coin2.png","null","",NA,NA,NA,NA,""
"image-keyboard-response",251,229410,"0.0-3.80-0.80","j28f3g5xcnvnf3f",35,"109.csv","","157","resources/trios/L2T2A3.jpg","38","restless",0.6,0.7,0.4,0.292831293848629,"true"
"image-keyboard-response",252,229818,"0.0-3.80-1.80","j28f3g5xcnvnf3f",35,"109.csv","","null","resources/maskTrios/BT2B.jpg","null","",NA,NA,NA,NA,""
"image-keyboard-response",253,231026,"0.0-3.80-2.80","j28f3g5xcnvnf3f",35,"109.csv","","null","resources/images/coin2.png","null","",NA,NA,NA,NA,""
"image-keyboard-response",254,231258,"0.0-3.81-0.81","j28f3g5xcnvnf3f",35,"109.csv","","229.79999995231628","resources/trios/L4T2A1.jpg","38","restless",0.6,0.7,0.4,0.486774925633191,"true"
"image-keyboard-response",255,231667,"0.0-3.81-1.81","j28f3g5xcnvnf3f",35,"109.csv","","null","resources/maskTrios/BT2B.jpg","null","",NA,NA,NA,NA,""
"image-keyboard-response",256,232883,"0.0-3.81-2.81","j28f3g5xcnvnf3f",35,"109.csv","","null","resources/images/coin2.png","null","",NA,NA,NA,NA,""
"image-keyboard-response",257,233086,"0.0-3.82-0.82","j28f3g5xcnvnf3f",35,"109.csv","","200.19999992847443","resources/trios/L4T1A1.jpg","38","restless",0.6,0.7,0.4,0.366539759700856,"true"
"image-keyboard-response",258,233498,"0.0-3.82-1.82","j28f3g5xcnvnf3f",35,"109.csv","","null","resources/maskTrios/BT1B.jpg","null","",NA,NA,NA,NA,""
"image-keyboard-response",259,234707,"0.0-3.82-2.82","j28f3g5xcnvnf3f",35,"109.csv","","null","resources/images/coin2.png","null","",NA,NA,NA,NA,""
"image-keyboard-response",260,234907,"0.0-3.83-0.83","j28f3g5xcnvnf3f",35,"109.csv","","196.80000007152557","resources/trios/L2T1A3.jpg","38","restless",0.6,0.7,0.3,0.908181596754116,"false"
"image-keyboard-response",261,235316,"0.0-3.83-1.83","j28f3g5xcnvnf3f",35,"109.csv","","null","resources/maskTrios/BT1B.jpg","null","",NA,NA,NA,NA,""
"image-keyboard-response",262,236525,"0.0-3.83-2.83","j28f3g5xcnvnf3f",35,"109.csv","","null","resources/images/fishbone.png","null","",NA,NA,NA,NA,""
"image-keyboard-response",263,237790,"0.0-3.84-0.84","j28f3g5xcnvnf3f",35,"109.csv","","1262.2000000476837","resources/trios/L2T1A1.jpg","39","restless",0.6,0.7,0.3,0.767892681062009,"false"
"image-keyboard-response",264,238194,"0.0-3.84-1.84","j28f3g5xcnvnf3f",35,"109.csv","","null","resources/maskTrios/BBA1.jpg","null","",NA,NA,NA,NA,""
"image-keyboard-response",265,239406,"0.0-3.84-2.84","j28f3g5xcnvnf3f",35,"109.csv","","null","resources/images/fishbone.png","null","",NA,NA,NA,NA,""
"image-keyboard-response",266,239600,"0.0-3.85-0.85","j28f3g5xcnvnf3f",35,"109.csv","","189.89999997615814","resources/trios/L2T1A3.jpg","38","restless",0.5,0.7,0.3,0.850389212923896,"false"
"image-keyboard-response",267,240009,"0.0-3.85-1.85","j28f3g5xcnvnf3f",35,"109.csv","","null","resources/maskTrios/BT1B.jpg","null","",NA,NA,NA,NA,""
"image-keyboard-response",268,241219,"0.0-3.85-2.85","j28f3g5xcnvnf3f",35,"109.csv","","null","resources/images/fishbone.png","null","",NA,NA,NA,NA,""
"image-keyboard-response",269,241683,"0.0-3.86-0.86","j28f3g5xcnvnf3f",35,"109.csv","","462.10000002384186","resources/trios/L4T1A1.jpg","37","restless",0.5,0.7,0.3,0.68243301364199,"false"
"image-keyboard-response",270,242091,"0.0-3.86-1.86","j28f3g5xcnvnf3f",35,"109.csv","","null","resources/maskTrios/L4BB.jpg","null","",NA,NA,NA,NA,""
"image-keyboard-response",271,243298,"0.0-3.86-2.86","j28f3g5xcnvnf3f",35,"109.csv","","null","resources/images/fishbone.png","null","",NA,NA,NA,NA,""
"image-keyboard-response",272,243988,"0.0-3.87-0.87","j28f3g5xcnvnf3f",35,"109.csv","","688","resources/trios/L2T2A3.jpg","38","restless",0.5,0.7,0.3,0.329841064275326,"true"
"image-keyboard-response",273,244398,"0.0-3.87-1.87","j28f3g5xcnvnf3f",35,"109.csv","","null","resources/maskTrios/BT2B.jpg","null","",NA,NA,NA,NA,""
"image-keyboard-response",274,245611,"0.0-3.87-2.87","j28f3g5xcnvnf3f",35,"109.csv","","null","resources/images/coin2.png","null","",NA,NA,NA,NA,""
"image-keyboard-response",275,245796,"0.0-3.88-0.88","j28f3g5xcnvnf3f",35,"109.csv","","182.70000004768372","resources/trios/L2T2A3.jpg","38","restless",0.5,0.7,0.3,0.509729783106045,"true"
"image-keyboard-response",276,246202,"0.0-3.88-1.88","j28f3g5xcnvnf3f",35,"109.csv","","null","resources/maskTrios/BT2B.jpg","null","",NA,NA,NA,NA,""
"image-keyboard-response",277,247414,"0.0-3.88-2.88","j28f3g5xcnvnf3f",35,"109.csv","","null","resources/images/coin2.png","null","",NA,NA,NA,NA,""
"image-keyboard-response",278,247572,"0.0-3.89-0.89","j28f3g5xcnvnf3f",35,"109.csv","","154.40000009536743","resources/trios/L2T2A3.jpg","38","restless",0.5,0.8,0.3,0.969637025498173,"false"
"image-keyboard-response",279,247979,"0.0-3.89-1.89","j28f3g5xcnvnf3f",35,"109.csv","","null","resources/maskTrios/BT2B.jpg","null","",NA,NA,NA,NA,""
"image-keyboard-response",280,249190,"0.0-3.89-2.89","j28f3g5xcnvnf3f",35,"109.csv","","null","resources/images/fishbone.png","null","",NA,NA,NA,NA,""
"image-keyboard-response",281,249449,"0.0-3.90-0.90","j28f3g5xcnvnf3f",35,"109.csv","","256","resources/trios/L2T2A1.jpg","39","restless",0.5,0.8,0.4,0.820482320312502,"false"
"image-keyboard-response",282,249860,"0.0-3.90-1.90","j28f3g5xcnvnf3f",35,"109.csv","","null","resources/maskTrios/BBA1.jpg","null","",NA,NA,NA,NA,""
"image-keyboard-response",283,251066,"0.0-3.90-2.90","j28f3g5xcnvnf3f",35,"109.csv","","null","resources/images/fishbone.png","null","",NA,NA,NA,NA,""
"image-keyboard-response",284,251331,"0.0-3.91-0.91","j28f3g5xcnvnf3f",35,"109.csv","","262.2999999523163","resources/trios/L2T2A3.jpg","39","restless",0.5,0.8,0.4,0.766720241336171,"false"
"image-keyboard-response",285,251741,"0.0-3.91-1.91","j28f3g5xcnvnf3f",35,"109.csv","","null","resources/maskTrios/BBA3.jpg","null","",NA,NA,NA,NA,""
"image-keyboard-response",286,252950,"0.0-3.91-2.91","j28f3g5xcnvnf3f",35,"109.csv","","null","resources/images/fishbone.png","null","",NA,NA,NA,NA,""
"image-keyboard-response",287,253224,"0.0-3.92-0.92","j28f3g5xcnvnf3f",35,"109.csv","","271.90000009536743","resources/trios/L4T1A3.jpg","37","restless",0.5,0.8,0.4,0.115303467549334,"true"
"image-keyboard-response",288,253638,"0.0-3.92-1.92","j28f3g5xcnvnf3f",35,"109.csv","","null","resources/maskTrios/L4BB.jpg","null","",NA,NA,NA,NA,""
"image-keyboard-response",289,254845,"0.0-3.92-2.92","j28f3g5xcnvnf3f",35,"109.csv","","null","resources/images/coin2.png","null","",NA,NA,NA,NA,""
"image-keyboard-response",290,255192,"0.0-3.93-0.93","j28f3g5xcnvnf3f",35,"109.csv","","344.2000000476837","resources/trios/L2T2A1.jpg","37","restless",0.5,0.8,0.4,0.367871516175718,"true"
"image-keyboard-response",291,255602,"0.0-3.93-1.93","j28f3g5xcnvnf3f",35,"109.csv","","null","resources/maskTrios/L2BB.jpg","null","",NA,NA,NA,NA,""
"image-keyboard-response",292,256810,"0.0-3.93-2.93","j28f3g5xcnvnf3f",35,"109.csv","","null","resources/images/coin2.png","null","",NA,NA,NA,NA,""
"image-keyboard-response",293,256890,"0.0-3.94-0.94","j28f3g5xcnvnf3f",35,"109.csv","","77.10000002384186","resources/trios/L4T1A3.jpg","37","restless",0.5,0.8,0.4,0.578997683803953,"false"
"image-keyboard-response",294,257299,"0.0-3.94-1.94","j28f3g5xcnvnf3f",35,"109.csv","","null","resources/maskTrios/L4BB.jpg","null","",NA,NA,NA,NA,""
"image-keyboard-response",295,258508,"0.0-3.94-2.94","j28f3g5xcnvnf3f",35,"109.csv","","null","resources/images/fishbone.png","null","",NA,NA,NA,NA,""
"image-keyboard-response",296,258646,"0.0-3.95-0.95","j28f3g5xcnvnf3f",35,"109.csv","","135","resources/trios/L2T1A3.jpg","38","restless",0.5,0.8,0.4,0.500262711814941,"true"
"image-keyboard-response",297,259050,"0.0-3.95-1.95","j28f3g5xcnvnf3f",35,"109.csv","","null","resources/maskTrios/BT1B.jpg","null","",NA,NA,NA,NA,""
"image-keyboard-response",298,260254,"0.0-3.95-2.95","j28f3g5xcnvnf3f",35,"109.csv","","null","resources/images/coin2.png","null","",NA,NA,NA,NA,""
"image-keyboard-response",299,260685,"0.0-3.96-0.96","j28f3g5xcnvnf3f",35,"109.csv","","427.60000002384186","resources/trios/L4T2A1.jpg","38","restless",0.5,0.8,0.4,0.948470385540214,"false"
"image-keyboard-response",300,261092,"0.0-3.96-1.96","j28f3g5xcnvnf3f",35,"109.csv","","null","resources/maskTrios/BT2B.jpg","null","",NA,NA,NA,NA,""
"image-keyboard-response",301,262302,"0.0-3.96-2.96","j28f3g5xcnvnf3f",35,"109.csv","","null","resources/images/fishbone.png","null","",NA,NA,NA,NA,""
"image-keyboard-response",302,262436,"0.0-3.97-0.97","j28f3g5xcnvnf3f",35,"109.csv","","131.69999992847443","resources/trios/L2T2A3.jpg","39","restless",0.5,0.8,0.4,0.706789107662206,"false"
"image-keyboard-response",303,262841,"0.0-3.97-1.97","j28f3g5xcnvnf3f",35,"109.csv","","null","resources/maskTrios/BBA3.jpg","null","",NA,NA,NA,NA,""
"image-keyboard-response",304,264053,"0.0-3.97-2.97","j28f3g5xcnvnf3f",35,"109.csv","","null","resources/images/fishbone.png","null","",NA,NA,NA,NA,""
"image-keyboard-response",305,264273,"0.0-3.98-0.98","j28f3g5xcnvnf3f",35,"109.csv","","216.69999992847443","resources/trios/L2T1A1.jpg","37","restless",0.5,0.8,0.4,0.235628065273477,"true"
"image-keyboard-response",306,264683,"0.0-3.98-1.98","j28f3g5xcnvnf3f",35,"109.csv","","null","resources/maskTrios/L2BB.jpg","null","",NA,NA,NA,NA,""
"image-keyboard-response",307,265890,"0.0-3.98-2.98","j28f3g5xcnvnf3f",35,"109.csv","","null","resources/images/coin2.png","null","",NA,NA,NA,NA,""
"image-keyboard-response",308,266127,"0.0-3.99-0.99","j28f3g5xcnvnf3f",35,"109.csv","","234.5","resources/trios/L2T2A1.jpg","38","restless",0.5,0.8,0.4,0.753235253989426,"true"
"image-keyboard-response",309,266541,"0.0-3.99-1.99","j28f3g5xcnvnf3f",35,"109.csv","","null","resources/maskTrios/BT2B.jpg","null","",NA,NA,NA,NA,""
"image-keyboard-response",310,267750,"0.0-3.99-2.99","j28f3g5xcnvnf3f",35,"109.csv","","null","resources/images/coin2.png","null","",NA,NA,NA,NA,""
"image-keyboard-response",311,267985,"0.0-3.100-0.100","j28f3g5xcnvnf3f",35,"109.csv","","232.19999992847443","resources/trios/L4T2A1.jpg","38","restless",0.5,0.8,0.4,0.815149097084687,"false"
"image-keyboard-response",312,268395,"0.0-3.100-1.100","j28f3g5xcnvnf3f",35,"109.csv","","null","resources/maskTrios/BT2B.jpg","null","",NA,NA,NA,NA,""
"image-keyboard-response",313,269606,"0.0-3.100-2.100","j28f3g5xcnvnf3f",35,"109.csv","","null","resources/images/fishbone.png","null","",NA,NA,NA,NA,""
"image-keyboard-response",314,269742,"0.0-3.101-0.101","j28f3g5xcnvnf3f",35,"109.csv","","132.89999997615814","resources/trios/L4T1A1.jpg","37","restless",0.5,0.8,0.4,0.475086188312534,"true"
"image-keyboard-response",315,270150,"0.0-3.101-1.101","j28f3g5xcnvnf3f",35,"109.csv","","null","resources/maskTrios/L4BB.jpg","null","",NA,NA,NA,NA,""
"image-keyboard-response",316,271355,"0.0-3.101-2.101","j28f3g5xcnvnf3f",35,"109.csv","","null","resources/images/coin2.png","null","",NA,NA,NA,NA,""
"image-keyboard-response",317,271564,"0.0-3.102-0.102","j28f3g5xcnvnf3f",35,"109.csv","","206.30000007152557","resources/trios/L2T2A3.jpg","37","restless",0.5,0.8,0.4,0.215135667394801,"true"
"image-keyboard-response",318,271974,"0.0-3.102-1.102","j28f3g5xcnvnf3f",35,"109.csv","","null","resources/maskTrios/L2BB.jpg","null","",NA,NA,NA,NA,""
"image-keyboard-response",319,273190,"0.0-3.102-2.102","j28f3g5xcnvnf3f",35,"109.csv","","null","resources/images/coin2.png","null","",NA,NA,NA,NA,""
"image-keyboard-response",320,273404,"0.0-3.103-0.103","j28f3g5xcnvnf3f",35,"109.csv","","211.39999997615814","resources/trios/L2T2A1.jpg","37","restless",0.4,0.8,0.4,0.381142721519181,"true"
"image-keyboard-response",321,273811,"0.0-3.103-1.103","j28f3g5xcnvnf3f",35,"109.csv","","null","resources/maskTrios/L2BB.jpg","null","",NA,NA,NA,NA,""
"image-keyboard-response",322,275022,"0.0-3.103-2.103","j28f3g5xcnvnf3f",35,"109.csv","","null","resources/images/coin2.png","null","",NA,NA,NA,NA,""
"image-keyboard-response",323,275238,"0.0-3.104-0.104","j28f3g5xcnvnf3f",35,"109.csv","","213.10000002384186","resources/trios/L4T2A1.jpg","37","restless",0.4,0.8,0.4,0.279434452254304,"true"
"image-keyboard-response",324,275641,"0.0-3.104-1.104","j28f3g5xcnvnf3f",35,"109.csv","","null","resources/maskTrios/L4BB.jpg","null","",NA,NA,NA,NA,""
"image-keyboard-response",325,276850,"0.0-3.104-2.104","j28f3g5xcnvnf3f",35,"109.csv","","null","resources/images/coin2.png","null","",NA,NA,NA,NA,""
"image-keyboard-response",326,277084,"0.0-3.105-0.105","j28f3g5xcnvnf3f",35,"109.csv","","229.60000002384186","resources/trios/L2T2A1.jpg","37","restless",0.4,0.8,0.4,0.686343589155752,"false"
"image-keyboard-response",327,277490,"0.0-3.105-1.105","j28f3g5xcnvnf3f",35,"109.csv","","null","resources/maskTrios/L2BB.jpg","null","",NA,NA,NA,NA,""
"image-keyboard-response",328,278701,"0.0-3.105-2.105","j28f3g5xcnvnf3f",35,"109.csv","","null","resources/images/fishbone.png","null","",NA,NA,NA,NA,""
"image-keyboard-response",329,278934,"0.0-3.106-0.106","j28f3g5xcnvnf3f",35,"109.csv","","231.39999997615814","resources/trios/L4T1A3.jpg","39","restless",0.4,0.8,0.4,0.662466557558201,"false"
"image-keyboard-response",330,279347,"0.0-3.106-1.106","j28f3g5xcnvnf3f",35,"109.csv","","null","resources/maskTrios/BBA3.jpg","null","",NA,NA,NA,NA,""
"image-keyboard-response",331,280558,"0.0-3.106-2.106","j28f3g5xcnvnf3f",35,"109.csv","","null","resources/images/fishbone.png","null","",NA,NA,NA,NA,""
"image-keyboard-response",332,280853,"0.0-3.107-0.107","j28f3g5xcnvnf3f",35,"109.csv","","292","resources/trios/L2T1A3.jpg","38","restless",0.5,0.8,0.4,0.845113122251554,"false"
"image-keyboard-response",333,281261,"0.0-3.107-1.107","j28f3g5xcnvnf3f",35,"109.csv","","null","resources/maskTrios/BT1B.jpg","null","",NA,NA,NA,NA,""
"image-keyboard-response",334,282467,"0.0-3.107-2.107","j28f3g5xcnvnf3f",35,"109.csv","","null","resources/images/fishbone.png","null","",NA,NA,NA,NA,""
"image-keyboard-response",335,282626,"0.0-3.108-0.108","j28f3g5xcnvnf3f",35,"109.csv","","156.5","resources/trios/L4T1A1.jpg","37","restless",0.5,0.8,0.4,0.192168425391611,"true"
"image-keyboard-response",336,283034,"0.0-3.108-1.108","j28f3g5xcnvnf3f",35,"109.csv","","null","resources/maskTrios/L4BB.jpg","null","",NA,NA,NA,NA,""
"image-keyboard-response",337,284243,"0.0-3.108-2.108","j28f3g5xcnvnf3f",35,"109.csv","","null","resources/images/coin2.png","null","",NA,NA,NA,NA,""
"image-keyboard-response",338,284278,"0.0-3.109-0.109","j28f3g5xcnvnf3f",35,"109.csv","","32","resources/trios/L4T2A1.jpg","37","restless",0.5,0.8,0.4,0.108039751513018,"true"
"image-keyboard-response",339,284683,"0.0-3.109-1.109","j28f3g5xcnvnf3f",35,"109.csv","","null","resources/maskTrios/L4BB.jpg","null","",NA,NA,NA,NA,""
"image-keyboard-response",340,285890,"0.0-3.109-2.109","j28f3g5xcnvnf3f",35,"109.csv","","null","resources/images/coin2.png","null","",NA,NA,NA,NA,""
"image-keyboard-response",341,286178,"0.0-3.110-0.110","j28f3g5xcnvnf3f",35,"109.csv","","284.2999999523163","resources/trios/L4T1A3.jpg","37","restless",0.5,0.7,0.4,0.673303835958236,"false"
"image-keyboard-response",342,286586,"0.0-3.110-1.110","j28f3g5xcnvnf3f",35,"109.csv","","null","resources/maskTrios/L4BB.jpg","null","",NA,NA,NA,NA,""
"image-keyboard-response",343,287798,"0.0-3.110-2.110","j28f3g5xcnvnf3f",35,"109.csv","","null","resources/images/fishbone.png","null","",NA,NA,NA,NA,""
"image-keyboard-response",344,287845,"0.0-3.111-0.111","j28f3g5xcnvnf3f",35,"109.csv","","45","resources/trios/L2T2A3.jpg","39","restless",0.5,0.7,0.5,0.765775189956926,"false"
"image-keyboard-response",345,288254,"0.0-3.111-1.111","j28f3g5xcnvnf3f",35,"109.csv","","null","resources/maskTrios/BBA3.jpg","null","",NA,NA,NA,NA,""
"image-keyboard-response",346,289458,"0.0-3.111-2.111","j28f3g5xcnvnf3f",35,"109.csv","","null","resources/images/fishbone.png","null","",NA,NA,NA,NA,""
"image-keyboard-response",347,289573,"0.0-3.112-0.112","j28f3g5xcnvnf3f",35,"109.csv","","112.19999992847443","resources/trios/L4T1A1.jpg","38","restless",0.5,0.7,0.5,0.965366160901232,"false"
"image-keyboard-response",348,289978,"0.0-3.112-1.112","j28f3g5xcnvnf3f",35,"109.csv","","null","resources/maskTrios/BT1B.jpg","null","",NA,NA,NA,NA,""
"image-keyboard-response",349,291190,"0.0-3.112-2.112","j28f3g5xcnvnf3f",35,"109.csv","","null","resources/images/fishbone.png","null","",NA,NA,NA,NA,""
"image-keyboard-response",350,291408,"0.0-3.113-0.113","j28f3g5xcnvnf3f",35,"109.csv","","215.5","resources/trios/L2T1A3.jpg","37","restless",0.5,0.7,0.5,0.320322213025468,"true"
"image-keyboard-response",351,291821,"0.0-3.113-1.113","j28f3g5xcnvnf3f",35,"109.csv","","null","resources/maskTrios/L2BB.jpg","null","",NA,NA,NA,NA,""
"image-keyboard-response",352,293026,"0.0-3.113-2.113","j28f3g5xcnvnf3f",35,"109.csv","","null","resources/images/coin2.png","null","",NA,NA,NA,NA,""
"image-keyboard-response",353,293149,"0.0-3.114-0.114","j28f3g5xcnvnf3f",35,"109.csv","","121.30000007152557","resources/trios/L4T1A1.jpg","37","restless",0.5,0.7,0.5,0.310643004250181,"true"
"image-keyboard-response",354,293558,"0.0-3.114-1.114","j28f3g5xcnvnf3f",35,"109.csv","","null","resources/maskTrios/L4BB.jpg","null","",NA,NA,NA,NA,""
"image-keyboard-response",355,294775,"0.0-3.114-2.114","j28f3g5xcnvnf3f",35,"109.csv","","null","resources/images/coin2.png","null","",NA,NA,NA,NA,""
"image-keyboard-response",356,294988,"0.0-3.115-0.115","j28f3g5xcnvnf3f",35,"109.csv","","210.59999990463257","resources/trios/L2T1A3.jpg","37","restless",0.5,0.7,0.5,0.26042244406713,"true"
"image-keyboard-response",357,295394,"0.0-3.115-1.115","j28f3g5xcnvnf3f",35,"109.csv","","null","resources/maskTrios/L2BB.jpg","null","",NA,NA,NA,NA,""
"image-keyboard-response",358,296606,"0.0-3.115-2.115","j28f3g5xcnvnf3f",35,"109.csv","","null","resources/images/coin2.png","null","",NA,NA,NA,NA,""
"image-keyboard-response",359,296942,"0.0-3.116-0.116","j28f3g5xcnvnf3f",35,"109.csv","","332.2999999523163","resources/trios/L2T2A1.jpg","38","restless",0.5,0.7,0.5,0.239595732620413,"true"
"image-keyboard-response",360,297348,"0.0-3.116-1.116","j28f3g5xcnvnf3f",35,"109.csv","","null","resources/maskTrios/BT2B.jpg","null","",NA,NA,NA,NA,""
"image-keyboard-response",361,298558,"0.0-3.116-2.116","j28f3g5xcnvnf3f",35,"109.csv","","null","resources/images/coin2.png","null","",NA,NA,NA,NA,""
"image-keyboard-response",362,298817,"0.0-3.117-0.117","j28f3g5xcnvnf3f",35,"109.csv","","255.89999997615814","resources/trios/L2T2A1.jpg","37","restless",0.5,0.6,0.5,0.598821052527843,"false"
"image-keyboard-response",363,299226,"0.0-3.117-1.117","j28f3g5xcnvnf3f",35,"109.csv","","null","resources/maskTrios/L2BB.jpg","null","",NA,NA,NA,NA,""
"image-keyboard-response",364,300435,"0.0-3.117-2.117","j28f3g5xcnvnf3f",35,"109.csv","","null","resources/images/fishbone.png","null","",NA,NA,NA,NA,""
"image-keyboard-response",365,300585,"0.0-3.118-0.118","j28f3g5xcnvnf3f",35,"109.csv","","146.89999997615814","resources/trios/L4T1A3.jpg","38","restless",0.5,0.6,0.5,0.524308725931554,"true"
"image-keyboard-response",366,301000,"0.0-3.118-1.118","j28f3g5xcnvnf3f",35,"109.csv","","null","resources/maskTrios/BT1B.jpg","null","",NA,NA,NA,NA,""
"image-keyboard-response",367,302211,"0.0-3.118-2.118","j28f3g5xcnvnf3f",35,"109.csv","","null","resources/images/coin2.png","null","",NA,NA,NA,NA,""
"image-keyboard-response",368,302332,"0.0-3.119-0.119","j28f3g5xcnvnf3f",35,"109.csv","","119.60000002384186","resources/trios/L2T1A1.jpg","38","restless",0.5,0.6,0.5,0.313447025322418,"true"
"image-keyboard-response",369,302742,"0.0-3.119-1.119","j28f3g5xcnvnf3f",35,"109.csv","","null","resources/maskTrios/BT1B.jpg","null","",NA,NA,NA,NA,""
"image-keyboard-response",370,303950,"0.0-3.119-2.119","j28f3g5xcnvnf3f",35,"109.csv","","null","resources/images/coin2.png","null","",NA,NA,NA,NA,""
"image-keyboard-response",371,304144,"0.0-3.120-0.120","j28f3g5xcnvnf3f",35,"109.csv","","191.5","resources/trios/L2T2A1.jpg","38","restless",0.5,0.6,0.5,0.614264777366972,"false"
"image-keyboard-response",372,304558,"0.0-3.120-1.120","j28f3g5xcnvnf3f",35,"109.csv","","null","resources/maskTrios/BT2B.jpg","null","",NA,NA,NA,NA,""
"image-keyboard-response",373,305766,"0.0-3.120-2.120","j28f3g5xcnvnf3f",35,"109.csv","","null","resources/images/fishbone.png","null","",NA,NA,NA,NA,""
"image-keyboard-response",374,305862,"0.0-3.121-0.121","j28f3g5xcnvnf3f",35,"109.csv","","93.89999997615814","resources/trios/L4T1A3.jpg","37","restless",0.5,0.6,0.5,0.13128793015682,"true"
"image-keyboard-response",375,306267,"0.0-3.121-1.121","j28f3g5xcnvnf3f",35,"109.csv","","null","resources/maskTrios/L4BB.jpg","null","",NA,NA,NA,NA,""
"image-keyboard-response",376,307475,"0.0-3.121-2.121","j28f3g5xcnvnf3f",35,"109.csv","","null","resources/images/coin2.png","null","",NA,NA,NA,NA,""
"image-keyboard-response",377,307595,"0.0-3.122-0.122","j28f3g5xcnvnf3f",35,"109.csv","","116.39999997615814","resources/trios/L4T1A3.jpg","37","restless",0.5,0.6,0.5,0.5447950324252,"false"
"image-keyboard-response",378,308004,"0.0-3.122-1.122","j28f3g5xcnvnf3f",35,"109.csv","","null","resources/maskTrios/L4BB.jpg","null","",NA,NA,NA,NA,""
"image-keyboard-response",379,309211,"0.0-3.122-2.122","j28f3g5xcnvnf3f",35,"109.csv","","null","resources/images/fishbone.png","null","",NA,NA,NA,NA,""
"image-keyboard-response",380,309331,"0.0-3.123-0.123","j28f3g5xcnvnf3f",35,"109.csv","","118.59999990463257","resources/trios/L2T2A1.jpg","39","restless",0.5,0.6,0.5,0.288806734579331,"true"
"image-keyboard-response",381,309742,"0.0-3.123-1.123","j28f3g5xcnvnf3f",35,"109.csv","","null","resources/maskTrios/BBA1.jpg","null","",NA,NA,NA,NA,""
"image-keyboard-response",382,310947,"0.0-3.123-2.123","j28f3g5xcnvnf3f",35,"109.csv","","null","resources/images/coin2.png","null","",NA,NA,NA,NA,""
"image-keyboard-response",383,311022,"0.0-3.124-0.124","j28f3g5xcnvnf3f",35,"109.csv","","73","resources/trios/L4T1A3.jpg","39","restless",0.5,0.6,0.5,0.964588392310779,"false"
"image-keyboard-response",384,311430,"0.0-3.124-1.124","j28f3g5xcnvnf3f",35,"109.csv","","null","resources/maskTrios/BBA3.jpg","null","",NA,NA,NA,NA,""
"image-keyboard-response",385,312638,"0.0-3.124-2.124","j28f3g5xcnvnf3f",35,"109.csv","","null","resources/images/fishbone.png","null","",NA,NA,NA,NA,""
"image-keyboard-response",386,312661,"0.0-3.125-0.125","j28f3g5xcnvnf3f",35,"109.csv","","20.799999952316284","resources/trios/L2T2A3.jpg","38","restless",0.5,0.6,0.5,0.301207084316582,"true"
"image-keyboard-response",387,313070,"0.0-3.125-1.125","j28f3g5xcnvnf3f",35,"109.csv","","null","resources/maskTrios/BT2B.jpg","null","",NA,NA,NA,NA,""
"image-keyboard-response",388,314275,"0.0-3.125-2.125","j28f3g5xcnvnf3f",35,"109.csv","","null","resources/images/coin2.png","null","",NA,NA,NA,NA,""
"image-keyboard-response",389,314295,"0.0-3.126-0.126","j28f3g5xcnvnf3f",35,"109.csv","","17.899999976158142","resources/trios/L2T1A1.jpg","38","restless",0.5,0.6,0.5,0.044214085050247,"true"
"image-keyboard-response",390,314698,"0.0-3.126-1.126","j28f3g5xcnvnf3f",35,"109.csv","","null","resources/maskTrios/BT1B.jpg","null","",NA,NA,NA,NA,""
"image-keyboard-response",391,315908,"0.0-3.126-2.126","j28f3g5xcnvnf3f",35,"109.csv","","null","resources/images/coin2.png","null","",NA,NA,NA,NA,""
"image-keyboard-response",392,316179,"0.0-3.127-0.127","j28f3g5xcnvnf3f",35,"109.csv","","267.6999999284744","resources/trios/L4T1A3.jpg","38","restless",0.5,0.6,0.5,0.247429786143319,"true"
"image-keyboard-response",393,316587,"0.0-3.127-1.127","j28f3g5xcnvnf3f",35,"109.csv","","null","resources/maskTrios/BT1B.jpg","null","",NA,NA,NA,NA,""
"image-keyboard-response",394,317794,"0.0-3.127-2.127","j28f3g5xcnvnf3f",35,"109.csv","","null","resources/images/coin2.png","null","",NA,NA,NA,NA,""
"image-keyboard-response",395,318056,"0.0-3.128-0.128","j28f3g5xcnvnf3f",35,"109.csv","","259.39999997615814","resources/trios/L2T2A1.jpg","38","restless",0.5,0.5,0.4,0.359117728206652,"true"
"image-keyboard-response",396,318470,"0.0-3.128-1.128","j28f3g5xcnvnf3f",35,"109.csv","","null","resources/maskTrios/BT2B.jpg","null","",NA,NA,NA,NA,""
"image-keyboard-response",397,319677,"0.0-3.128-2.128","j28f3g5xcnvnf3f",35,"109.csv","","null","resources/images/coin2.png","null","",NA,NA,NA,NA,""
"image-keyboard-response",398,319803,"0.0-3.129-0.129","j28f3g5xcnvnf3f",35,"109.csv","","123.39999997615814","resources/trios/L4T1A1.jpg","38","restless",0.5,0.5,0.4,0.38228431818041,"true"
"image-keyboard-response",399,320210,"0.0-3.129-1.129","j28f3g5xcnvnf3f",35,"109.csv","","null","resources/maskTrios/BT1B.jpg","null","",NA,NA,NA,NA,""
"image-keyboard-response",400,321419,"0.0-3.129-2.129","j28f3g5xcnvnf3f",35,"109.csv","","null","resources/images/coin2.png","null","",NA,NA,NA,NA,""
"image-keyboard-response",401,321540,"0.0-3.130-0.130","j28f3g5xcnvnf3f",35,"109.csv","","118","resources/trios/L4T1A3.jpg","38","restless",0.5,0.5,0.4,0.742042015162633,"false"
"image-keyboard-response",402,321950,"0.0-3.130-1.130","j28f3g5xcnvnf3f",35,"109.csv","","null","resources/maskTrios/BT1B.jpg","null","",NA,NA,NA,NA,""
"image-keyboard-response",403,323156,"0.0-3.130-2.130","j28f3g5xcnvnf3f",35,"109.csv","","null","resources/images/fishbone.png","null","",NA,NA,NA,NA,""
"image-keyboard-response",404,323528,"0.0-3.131-0.131","j28f3g5xcnvnf3f",35,"109.csv","","368.8000000715256","resources/trios/L4T1A1.jpg","37","restless",0.5,0.5,0.4,0.0317486366122732,"true"
"image-keyboard-response",405,323941,"0.0-3.131-1.131","j28f3g5xcnvnf3f",35,"109.csv","","null","resources/maskTrios/L4BB.jpg","null","",NA,NA,NA,NA,""
"image-keyboard-response",406,325148,"0.0-3.131-2.131","j28f3g5xcnvnf3f",35,"109.csv","","null","resources/images/coin2.png","null","",NA,NA,NA,NA,""
"image-keyboard-response",407,325641,"0.0-3.132-0.132","j28f3g5xcnvnf3f",35,"109.csv","","489.3000000715256","resources/trios/L2T1A3.jpg","37","restless",0.5,0.5,0.4,0.0178640795185763,"true"
"image-keyboard-response",408,326055,"0.0-3.132-1.132","j28f3g5xcnvnf3f",35,"109.csv","","null","resources/maskTrios/L2BB.jpg","null","",NA,NA,NA,NA,""
"image-keyboard-response",409,327267,"0.0-3.132-2.132","j28f3g5xcnvnf3f",35,"109.csv","","null","resources/images/coin2.png","null","",NA,NA,NA,NA,""
"image-keyboard-response",410,327465,"0.0-3.133-0.133","j28f3g5xcnvnf3f",35,"109.csv","","195.5","resources/trios/L4T1A1.jpg","37","restless",0.5,0.5,0.4,0.778022366031027,"false"
"image-keyboard-response",411,327878,"0.0-3.133-1.133","j28f3g5xcnvnf3f",35,"109.csv","","null","resources/maskTrios/L4BB.jpg","null","",NA,NA,NA,NA,""
"image-keyboard-response",412,329086,"0.0-3.133-2.133","j28f3g5xcnvnf3f",35,"109.csv","","null","resources/images/fishbone.png","null","",NA,NA,NA,NA,""
"image-keyboard-response",413,329112,"0.0-3.134-0.134","j28f3g5xcnvnf3f",35,"109.csv","","23.100000023841858","resources/trios/L4T1A1.jpg","38","restless",0.5,0.5,0.4,0.918077154282585,"false"
"image-keyboard-response",414,329518,"0.0-3.134-1.134","j28f3g5xcnvnf3f",35,"109.csv","","null","resources/maskTrios/BT1B.jpg","null","",NA,NA,NA,NA,""
"image-keyboard-response",415,330726,"0.0-3.134-2.134","j28f3g5xcnvnf3f",35,"109.csv","","null","resources/images/fishbone.png","null","",NA,NA,NA,NA,""
"image-keyboard-response",416,330748,"0.0-3.135-0.135","j28f3g5xcnvnf3f",35,"109.csv","","19.299999952316284","resources/trios/L4T2A3.jpg","37","restless",0.6,0.5,0.4,0.301167692962407,"true"
"image-keyboard-response",417,331157,"0.0-3.135-1.135","j28f3g5xcnvnf3f",35,"109.csv","","null","resources/maskTrios/L4BB.jpg","null","",NA,NA,NA,NA,""
"image-keyboard-response",418,332366,"0.0-3.135-2.135","j28f3g5xcnvnf3f",35,"109.csv","","null","resources/images/coin2.png","null","",NA,NA,NA,NA,""
"image-keyboard-response",419,332697,"0.0-3.136-0.136","j28f3g5xcnvnf3f",35,"109.csv","","329.39999997615814","resources/trios/L4T2A1.jpg","38","restless",0.6,0.5,0.4,0.672818995190106,"false"
"image-keyboard-response",420,333109,"0.0-3.136-1.136","j28f3g5xcnvnf3f",35,"109.csv","","null","resources/maskTrios/BT2B.jpg","null","",NA,NA,NA,NA,""
"image-keyboard-response",421,334318,"0.0-3.136-2.136","j28f3g5xcnvnf3f",35,"109.csv","","null","resources/images/fishbone.png","null","",NA,NA,NA,NA,""
"image-keyboard-response",422,334456,"0.0-3.137-0.137","j28f3g5xcnvnf3f",35,"109.csv","","136.10000002384186","resources/trios/L2T2A3.jpg","37","restless",0.6,0.5,0.4,0.878501149735205,"false"
"image-keyboard-response",423,334871,"0.0-3.137-1.137","j28f3g5xcnvnf3f",35,"109.csv","","null","resources/maskTrios/L2BB.jpg","null","",NA,NA,NA,NA,""
"image-keyboard-response",424,336076,"0.0-3.137-2.137","j28f3g5xcnvnf3f",35,"109.csv","","null","resources/images/fishbone.png","null","",NA,NA,NA,NA,""
"image-keyboard-response",425,336133,"0.0-3.138-0.138","j28f3g5xcnvnf3f",35,"109.csv","","55.799999952316284","resources/trios/L4T2A3.jpg","39","restless",0.6,0.4,0.4,0.825449016192641,"false"
"image-keyboard-response",426,336539,"0.0-3.138-1.138","j28f3g5xcnvnf3f",35,"109.csv","","null","resources/maskTrios/BBA3.jpg","null","",NA,NA,NA,NA,""
"image-keyboard-response",427,337748,"0.0-3.138-2.138","j28f3g5xcnvnf3f",35,"109.csv","","null","resources/images/fishbone.png","null","",NA,NA,NA,NA,""
"image-keyboard-response",428,337816,"0.0-3.139-0.139","j28f3g5xcnvnf3f",35,"109.csv","","65.89999997615814","resources/trios/L2T1A1.jpg","38","restless",0.6,0.4,0.4,0.529335815910179,"false"
"image-keyboard-response",429,338230,"0.0-3.139-1.139","j28f3g5xcnvnf3f",35,"109.csv","","null","resources/maskTrios/BT1B.jpg","null","",NA,NA,NA,NA,""
"image-keyboard-response",430,339437,"0.0-3.139-2.139","j28f3g5xcnvnf3f",35,"109.csv","","null","resources/images/fishbone.png","null","",NA,NA,NA,NA,""
"image-keyboard-response",431,339651,"0.0-3.140-0.140","j28f3g5xcnvnf3f",35,"109.csv","","211.79999995231628","resources/trios/L2T2A1.jpg","38","restless",0.6,0.4,0.4,0.648718545338418,"false"
"image-keyboard-response",432,340061,"0.0-3.140-1.140","j28f3g5xcnvnf3f",35,"109.csv","","null","resources/maskTrios/BT2B.jpg","null","",NA,NA,NA,NA,""
"image-keyboard-response",433,341267,"0.0-3.140-2.140","j28f3g5xcnvnf3f",35,"109.csv","","null","resources/images/fishbone.png","null","",NA,NA,NA,NA,""
"image-keyboard-response",434,341519,"0.0-3.141-0.141","j28f3g5xcnvnf3f",35,"109.csv","","249.29999995231628","resources/trios/L4T2A3.jpg","37","restless",0.6,0.4,0.4,0.651639467266437,"false"
"image-keyboard-response",435,341933,"0.0-3.141-1.141","j28f3g5xcnvnf3f",35,"109.csv","","null","resources/maskTrios/L4BB.jpg","null","",NA,NA,NA,NA,""
"image-keyboard-response",436,343139,"0.0-3.141-2.141","j28f3g5xcnvnf3f",35,"109.csv","","null","resources/images/fishbone.png","null","",NA,NA,NA,NA,""
"image-keyboard-response",437,343165,"0.0-3.142-0.142","j28f3g5xcnvnf3f",35,"109.csv","","23.699999928474426","resources/trios/L4T1A1.jpg","39","restless",0.6,0.3,0.4,0.0446437370588204,"true"
"image-keyboard-response",438,343571,"0.0-3.142-1.142","j28f3g5xcnvnf3f",35,"109.csv","","null","resources/maskTrios/BBA1.jpg","null","",NA,NA,NA,NA,""
"image-keyboard-response",439,344781,"0.0-3.142-2.142","j28f3g5xcnvnf3f",35,"109.csv","","null","resources/images/coin2.png","null","",NA,NA,NA,NA,""
"image-keyboard-response",440,345000,"0.0-3.143-0.143","j28f3g5xcnvnf3f",35,"109.csv","","216.39999997615814","resources/trios/L2T2A1.jpg","39","restless",0.6,0.2,0.4,0.12743670232871,"true"
"image-keyboard-response",441,345402,"0.0-3.143-1.143","j28f3g5xcnvnf3f",35,"109.csv","","null","resources/maskTrios/BBA1.jpg","null","",NA,NA,NA,NA,""
"image-keyboard-response",442,346615,"0.0-3.143-2.143","j28f3g5xcnvnf3f",35,"109.csv","","null","resources/images/coin2.png","null","",NA,NA,NA,NA,""
"image-keyboard-response",443,346827,"0.0-3.144-0.144","j28f3g5xcnvnf3f",35,"109.csv","","209.89999997615814","resources/trios/L4T2A1.jpg","39","restless",0.7,0.2,0.4,0.822857598156766,"false"
"image-keyboard-response",444,347239,"0.0-3.144-1.144","j28f3g5xcnvnf3f",35,"109.csv","","null","resources/maskTrios/BBA1.jpg","null","",NA,NA,NA,NA,""
"image-keyboard-response",445,348445,"0.0-3.144-2.144","j28f3g5xcnvnf3f",35,"109.csv","","null","resources/images/fishbone.png","null","",NA,NA,NA,NA,""
"image-keyboard-response",446,348589,"0.0-3.145-0.145","j28f3g5xcnvnf3f",35,"109.csv","","141.5","resources/trios/L2T2A3.jpg","38","restless",0.7,0.1,0.4,0.570541126285054,"false"
"image-keyboard-response",447,348998,"0.0-3.145-1.145","j28f3g5xcnvnf3f",35,"109.csv","","null","resources/maskTrios/BT2B.jpg","null","",NA,NA,NA,NA,""
"image-keyboard-response",448,350202,"0.0-3.145-2.145","j28f3g5xcnvnf3f",35,"109.csv","","null","resources/images/fishbone.png","null","",NA,NA,NA,NA,""
"image-keyboard-response",449,350297,"0.0-3.146-0.146","j28f3g5xcnvnf3f",35,"109.csv","","93","resources/trios/L2T1A3.jpg","37","restless",0.7,0.1,0.4,0.597306938454881,"true"
"image-keyboard-response",450,350707,"0.0-3.146-1.146","j28f3g5xcnvnf3f",35,"109.csv","","null","resources/maskTrios/L2BB.jpg","null","",NA,NA,NA,NA,""
"image-keyboard-response",451,351917,"0.0-3.146-2.146","j28f3g5xcnvnf3f",35,"109.csv","","null","resources/images/coin2.png","null","",NA,NA,NA,NA,""
"image-keyboard-response",452,351998,"0.0-3.147-0.147","j28f3g5xcnvnf3f",35,"109.csv","","74.89999997615814","resources/trios/L2T1A3.jpg","37","restless",0.7,0.1,0.4,0.542690019635798,"true"
"image-keyboard-response",453,352406,"0.0-3.147-1.147","j28f3g5xcnvnf3f",35,"109.csv","","null","resources/maskTrios/L2BB.jpg","null","",NA,NA,NA,NA,""
"image-keyboard-response",454,353613,"0.0-3.147-2.147","j28f3g5xcnvnf3f",35,"109.csv","","null","resources/images/coin2.png","null","",NA,NA,NA,NA,""
"image-keyboard-response",455,353700,"0.0-3.148-0.148","j28f3g5xcnvnf3f",35,"109.csv","","84.5","resources/trios/L2T2A3.jpg","37","restless",0.7,0.1,0.4,0.310211229363298,"true"
"image-keyboard-response",456,354108,"0.0-3.148-1.148","j28f3g5xcnvnf3f",35,"109.csv","","null","resources/maskTrios/L2BB.jpg","null","",NA,NA,NA,NA,""
"image-keyboard-response",457,355318,"0.0-3.148-2.148","j28f3g5xcnvnf3f",35,"109.csv","","null","resources/images/coin2.png","null","",NA,NA,NA,NA,""
"image-keyboard-response",458,355440,"0.0-3.149-0.149","j28f3g5xcnvnf3f",35,"109.csv","","118.59999990463257","resources/trios/L4T1A1.jpg","37","restless",0.8,0.1,0.4,0.428727063852636,"true"
"image-keyboard-response",459,355852,"0.0-3.149-1.149","j28f3g5xcnvnf3f",35,"109.csv","","null","resources/maskTrios/L4BB.jpg","null","",NA,NA,NA,NA,""
"image-keyboard-response",460,357058,"0.0-3.149-2.149","j28f3g5xcnvnf3f",35,"109.csv","","null","resources/images/coin2.png","null","",NA,NA,NA,NA,""
"image-keyboard-response",461,357132,"0.0-3.150-0.150","j28f3g5xcnvnf3f",35,"109.csv","","71.10000002384186","resources/trios/L4T1A1.jpg","37","restless",0.8,0.1,0.4,0.540531103047975,"true"
"image-keyboard-response",462,357538,"0.0-3.150-1.150","j28f3g5xcnvnf3f",35,"109.csv","","null","resources/maskTrios/L4BB.jpg","null","",NA,NA,NA,NA,""
"image-keyboard-response",463,358751,"0.0-3.150-2.150","j28f3g5xcnvnf3f",35,"109.csv","","null","resources/images/coin2.png","null","",NA,NA,NA,NA,""
"image-keyboard-response",464,358871,"0.0-3.151-0.151","j28f3g5xcnvnf3f",35,"109.csv","","118","resources/trios/L2T1A1.jpg","37","restless",0.8,0.1,0.3,0.984023751017394,"false"
"image-keyboard-response",465,359282,"0.0-3.151-1.151","j28f3g5xcnvnf3f",35,"109.csv","","null","resources/maskTrios/L2BB.jpg","null","",NA,NA,NA,NA,""
"image-keyboard-response",466,360484,"0.0-3.151-2.151","j28f3g5xcnvnf3f",35,"109.csv","","null","resources/images/fishbone.png","null","",NA,NA,NA,NA,""
"image-keyboard-response",467,360754,"0.0-3.152-0.152","j28f3g5xcnvnf3f",35,"109.csv","","267.2999999523163","resources/trios/L2T1A3.jpg","38","restless",0.8,0.1,0.4,0.784821025453655,"false"
"image-keyboard-response",468,361164,"0.0-3.152-1.152","j28f3g5xcnvnf3f",35,"109.csv","","null","resources/maskTrios/BT1B.jpg","null","",NA,NA,NA,NA,""
"image-keyboard-response",469,362371,"0.0-3.152-2.152","j28f3g5xcnvnf3f",35,"109.csv","","null","resources/images/fishbone.png","null","",NA,NA,NA,NA,""
"image-keyboard-response",470,362471,"0.0-3.153-0.153","j28f3g5xcnvnf3f",35,"109.csv","","97.60000002384186","resources/trios/L4T2A1.jpg","37","restless",0.7,0.1,0.4,0.76824059802116,"false"
"image-keyboard-response",471,362875,"0.0-3.153-1.153","j28f3g5xcnvnf3f",35,"109.csv","","null","resources/maskTrios/L4BB.jpg","null","",NA,NA,NA,NA,""
"image-keyboard-response",472,364082,"0.0-3.153-2.153","j28f3g5xcnvnf3f",35,"109.csv","","null","resources/images/fishbone.png","null","",NA,NA,NA,NA,""
"image-keyboard-response",473,364189,"0.0-3.154-0.154","j28f3g5xcnvnf3f",35,"109.csv","","103.80000007152557","resources/trios/L2T2A3.jpg","39","restless",0.7,0.1,0.4,0.403819581920439,"false"
"image-keyboard-response",474,364598,"0.0-3.154-1.154","j28f3g5xcnvnf3f",35,"109.csv","","null","resources/maskTrios/BBA3.jpg","null","",NA,NA,NA,NA,""
"image-keyboard-response",475,365803,"0.0-3.154-2.154","j28f3g5xcnvnf3f",35,"109.csv","","null","resources/images/fishbone.png","null","",NA,NA,NA,NA,""
"image-keyboard-response",476,365893,"0.0-3.155-0.155","j28f3g5xcnvnf3f",35,"109.csv","","86.79999995231628","resources/trios/L4T2A3.jpg","37","restless",0.7,0.1,0.4,0.990322894394527,"false"
"image-keyboard-response",477,366300,"0.0-3.155-1.155","j28f3g5xcnvnf3f",35,"109.csv","","null","resources/maskTrios/L4BB.jpg","null","",NA,NA,NA,NA,""
"image-keyboard-response",478,367509,"0.0-3.155-2.155","j28f3g5xcnvnf3f",35,"109.csv","","null","resources/images/fishbone.png","null","",NA,NA,NA,NA,""
"image-keyboard-response",479,367667,"0.0-3.156-0.156","j28f3g5xcnvnf3f",35,"109.csv","","154.90000009536743","resources/trios/L4T1A1.jpg","39","restless",0.7,0.2,0.4,0.0341978675482717,"true"
"image-keyboard-response",480,368074,"0.0-3.156-1.156","j28f3g5xcnvnf3f",35,"109.csv","","null","resources/maskTrios/BBA1.jpg","null","",NA,NA,NA,NA,""
"image-keyboard-response",481,369284,"0.0-3.156-2.156","j28f3g5xcnvnf3f",35,"109.csv","","null","resources/images/coin2.png","null","",NA,NA,NA,NA,""
"image-keyboard-response",482,369387,"0.0-3.157-0.157","j28f3g5xcnvnf3f",35,"109.csv","","100.29999995231628","resources/trios/L2T2A1.jpg","39","restless",0.7,0.2,0.4,0.988190684462607,"false"
"image-keyboard-response",483,369796,"0.0-3.157-1.157","j28f3g5xcnvnf3f",35,"109.csv","","null","resources/maskTrios/BBA1.jpg","null","",NA,NA,NA,NA,""
"image-keyboard-response",484,371003,"0.0-3.157-2.157","j28f3g5xcnvnf3f",35,"109.csv","","null","resources/images/fishbone.png","null","",NA,NA,NA,NA,""
"image-keyboard-response",485,371124,"0.0-3.158-0.158","j28f3g5xcnvnf3f",35,"109.csv","","117.80000007152557","resources/trios/L4T2A1.jpg","38","restless",0.7,0.2,0.5,0.922370929912408,"false"
"image-keyboard-response",486,371534,"0.0-3.158-1.158","j28f3g5xcnvnf3f",35,"109.csv","","null","resources/maskTrios/BT2B.jpg","null","",NA,NA,NA,NA,""
"image-keyboard-response",487,372739,"0.0-3.158-2.158","j28f3g5xcnvnf3f",35,"109.csv","","null","resources/images/fishbone.png","null","",NA,NA,NA,NA,""
"image-keyboard-response",488,372797,"0.0-3.159-0.159","j28f3g5xcnvnf3f",35,"109.csv","","56.200000047683716","resources/trios/L2T2A1.jpg","38","restless",0.7,0.2,0.5,0.745182389616532,"false"
"image-keyboard-response",489,373206,"0.0-3.159-1.159","j28f3g5xcnvnf3f",35,"109.csv","","null","resources/maskTrios/BT2B.jpg","null","",NA,NA,NA,NA,""
"image-keyboard-response",490,374414,"0.0-3.159-2.159","j28f3g5xcnvnf3f",35,"109.csv","","null","resources/images/fishbone.png","null","",NA,NA,NA,NA,""
"image-keyboard-response",491,374565,"0.0-3.160-0.160","j28f3g5xcnvnf3f",35,"109.csv","","147.10000002384186","resources/trios/L4T2A3.jpg","37","restless",0.7,0.2,0.5,0.0223476515781325,"true"
"image-keyboard-response",492,374971,"0.0-3.160-1.160","j28f3g5xcnvnf3f",35,"109.csv","","null","resources/maskTrios/L4BB.jpg","null","",NA,NA,NA,NA,""
"image-keyboard-response",493,376179,"0.0-3.160-2.160","j28f3g5xcnvnf3f",35,"109.csv","","null","resources/images/coin2.png","null","",NA,NA,NA,NA,""
"image-keyboard-response",494,376218,"0.0-3.161-0.161","j28f3g5xcnvnf3f",35,"109.csv","","33.799999952316284","resources/trios/L4T1A1.jpg","37","restless",0.7,0.2,0.5,0.833216510463628,"false"
"image-keyboard-response",495,376628,"0.0-3.161-1.161","j28f3g5xcnvnf3f",35,"109.csv","","null","resources/maskTrios/L4BB.jpg","null","",NA,NA,NA,NA,""
"image-keyboard-response",496,377834,"0.0-3.161-2.161","j28f3g5xcnvnf3f",35,"109.csv","","null","resources/images/fishbone.png","null","",NA,NA,NA,NA,""
"image-keyboard-response",497,378009,"0.0-3.162-0.162","j28f3g5xcnvnf3f",35,"109.csv","","170.89999997615814","resources/trios/L4T1A3.jpg","38","restless",0.7,0.2,0.5,0.536818994603397,"false"
"image-keyboard-response",498,378422,"0.0-3.162-1.162","j28f3g5xcnvnf3f",35,"109.csv","","null","resources/maskTrios/BT1B.jpg","null","",NA,NA,NA,NA,""
"image-keyboard-response",499,379627,"0.0-3.162-2.162","j28f3g5xcnvnf3f",35,"109.csv","","null","resources/images/fishbone.png","null","",NA,NA,NA,NA,""
"image-keyboard-response",500,379896,"0.0-3.163-0.163","j28f3g5xcnvnf3f",35,"109.csv","","267.09999990463257","resources/trios/L2T1A3.jpg","37","restless",0.8,0.2,0.5,0.181114009319112,"true"
"image-keyboard-response",501,380306,"0.0-3.163-1.163","j28f3g5xcnvnf3f",35,"109.csv","","null","resources/maskTrios/L2BB.jpg","null","",NA,NA,NA,NA,""
"image-keyboard-response",502,381516,"0.0-3.163-2.163","j28f3g5xcnvnf3f",35,"109.csv","","null","resources/images/coin2.png","null","",NA,NA,NA,NA,""
"image-keyboard-response",503,381579,"0.0-3.164-0.164","j28f3g5xcnvnf3f",35,"109.csv","","60.200000047683716","resources/trios/L2T2A3.jpg","37","restless",0.8,0.2,0.5,0.0330389330292991,"true"
"image-keyboard-response",504,381991,"0.0-3.164-1.164","j28f3g5xcnvnf3f",35,"109.csv","","null","resources/maskTrios/L2BB.jpg","null","",NA,NA,NA,NA,""
"image-keyboard-response",505,383195,"0.0-3.164-2.164","j28f3g5xcnvnf3f",35,"109.csv","","null","resources/images/coin2.png","null","",NA,NA,NA,NA,""
"image-keyboard-response",506,383309,"0.0-3.165-0.165","j28f3g5xcnvnf3f",35,"109.csv","","111.70000004768372","resources/trios/L4T1A1.jpg","37","restless",0.8,0.3,0.5,0.702261310768822,"true"
"image-keyboard-response",507,383717,"0.0-3.165-1.165","j28f3g5xcnvnf3f",35,"109.csv","","null","resources/maskTrios/L4BB.jpg","null","",NA,NA,NA,NA,""
"image-keyboard-response",508,384931,"0.0-3.165-2.165","j28f3g5xcnvnf3f",35,"109.csv","","null","resources/images/coin2.png","null","",NA,NA,NA,NA,""
"image-keyboard-response",509,385157,"0.0-3.166-0.166","j28f3g5xcnvnf3f",35,"109.csv","","223.5","resources/trios/L4T2A1.jpg","37","restless",0.8,0.3,0.5,0.823073779550461,"false"
"image-keyboard-response",510,385566,"0.0-3.166-1.166","j28f3g5xcnvnf3f",35,"109.csv","","null","resources/maskTrios/L4BB.jpg","null","",NA,NA,NA,NA,""
"image-keyboard-response",511,386771,"0.0-3.166-2.166","j28f3g5xcnvnf3f",35,"109.csv","","null","resources/images/fishbone.png","null","",NA,NA,NA,NA,""
"image-keyboard-response",512,386924,"0.0-3.167-0.167","j28f3g5xcnvnf3f",35,"109.csv","","150.40000009536743","resources/trios/L2T2A3.jpg","39","restless",0.8,0.3,0.5,0.0780105948391803,"true"
"image-keyboard-response",513,387331,"0.0-3.167-1.167","j28f3g5xcnvnf3f",35,"109.csv","","null","resources/maskTrios/BBA3.jpg","null","",NA,NA,NA,NA,""
"image-keyboard-response",514,388541,"0.0-3.167-2.167","j28f3g5xcnvnf3f",35,"109.csv","","null","resources/images/coin2.png","null","",NA,NA,NA,NA,""
"image-keyboard-response",515,388764,"0.0-3.168-0.168","j28f3g5xcnvnf3f",35,"109.csv","","219.80000007152557","resources/trios/L4T1A3.jpg","39","restless",0.9,0.3,0.5,0.955547658093418,"false"
"image-keyboard-response",516,389172,"0.0-3.168-1.168","j28f3g5xcnvnf3f",35,"109.csv","","null","resources/maskTrios/BBA3.jpg","null","",NA,NA,NA,NA,""
"image-keyboard-response",517,390382,"0.0-3.168-2.168","j28f3g5xcnvnf3f",35,"109.csv","","null","resources/images/fishbone.png","null","",NA,NA,NA,NA,""
"image-keyboard-response",518,390604,"0.0-3.169-0.169","j28f3g5xcnvnf3f",35,"109.csv","","218.89999997615814","resources/trios/L4T1A3.jpg","38","restless",0.9,0.3,0.5,0.697401768289476,"false"
"image-keyboard-response",519,391015,"0.0-3.169-1.169","j28f3g5xcnvnf3f",35,"109.csv","","null","resources/maskTrios/BT1B.jpg","null","",NA,NA,NA,NA,""
"image-keyboard-response",520,392218,"0.0-3.169-2.169","j28f3g5xcnvnf3f",35,"109.csv","","null","resources/images/fishbone.png","null","",NA,NA,NA,NA,""
"image-keyboard-response",521,392761,"0.0-3.170-0.170","j28f3g5xcnvnf3f",35,"109.csv","","541.5","resources/trios/L2T2A1.jpg","39","restless",0.9,0.3,0.5,0.712757427356073,"false"
"image-keyboard-response",522,393177,"0.0-3.170-1.170","j28f3g5xcnvnf3f",35,"109.csv","","null","resources/maskTrios/BBA1.jpg","null","",NA,NA,NA,NA,""
"image-keyboard-response",523,394391,"0.0-3.170-2.170","j28f3g5xcnvnf3f",35,"109.csv","","null","resources/images/fishbone.png","null","",NA,NA,NA,NA,""
"image-keyboard-response",524,394530,"0.0-3.171-0.171","j28f3g5xcnvnf3f",35,"109.csv","","136.10000002384186","resources/trios/L4T2A3.jpg","37","restless",0.8,0.3,0.5,0.627703076030918,"true"
"image-keyboard-response",525,394939,"0.0-3.171-1.171","j28f3g5xcnvnf3f",35,"109.csv","","null","resources/maskTrios/L4BB.jpg","null","",NA,NA,NA,NA,""
"image-keyboard-response",526,396146,"0.0-3.171-2.171","j28f3g5xcnvnf3f",35,"109.csv","","null","resources/images/coin2.png","null","",NA,NA,NA,NA,""
"image-keyboard-response",527,396242,"0.0-3.172-0.172","j28f3g5xcnvnf3f",35,"109.csv","","92.89999997615814","resources/trios/L2T1A3.jpg","37","restless",0.8,0.3,0.5,0.450609458487737,"true"
"image-keyboard-response",528,396654,"0.0-3.172-1.172","j28f3g5xcnvnf3f",35,"109.csv","","null","resources/maskTrios/L2BB.jpg","null","",NA,NA,NA,NA,""
"image-keyboard-response",529,397861,"0.0-3.172-2.172","j28f3g5xcnvnf3f",35,"109.csv","","null","resources/images/coin2.png","null","",NA,NA,NA,NA,""
"image-keyboard-response",530,398051,"0.0-3.173-0.173","j28f3g5xcnvnf3f",35,"109.csv","","187.19999992847443","resources/trios/L2T1A3.jpg","37","restless",0.8,0.3,0.6,0.897191089317901,"false"
"image-keyboard-response",531,398461,"0.0-3.173-1.173","j28f3g5xcnvnf3f",35,"109.csv","","null","resources/maskTrios/L2BB.jpg","null","",NA,NA,NA,NA,""
"image-keyboard-response",532,399671,"0.0-3.173-2.173","j28f3g5xcnvnf3f",35,"109.csv","","null","resources/images/fishbone.png","null","",NA,NA,NA,NA,""
"image-keyboard-response",533,399933,"0.0-3.174-0.174","j28f3g5xcnvnf3f",35,"109.csv","","259.09999990463257","resources/trios/L2T2A1.jpg","38","restless",0.7,0.3,0.6,0.743719575569236,"false"
"image-keyboard-response",534,400339,"0.0-3.174-1.174","j28f3g5xcnvnf3f",35,"109.csv","","null","resources/maskTrios/BT2B.jpg","null","",NA,NA,NA,NA,""
"image-keyboard-response",535,401550,"0.0-3.174-2.174","j28f3g5xcnvnf3f",35,"109.csv","","null","resources/images/fishbone.png","null","",NA,NA,NA,NA,""
"image-keyboard-response",536,401680,"0.0-3.175-0.175","j28f3g5xcnvnf3f",35,"109.csv","","126.60000002384186","resources/trios/L4T2A1.jpg","38","restless",0.7,0.3,0.6,0.147759642235214,"true"
"image-keyboard-response",537,402095,"0.0-3.175-1.175","j28f3g5xcnvnf3f",35,"109.csv","","null","resources/maskTrios/BT2B.jpg","null","",NA,NA,NA,NA,""
"image-keyboard-response",538,403311,"0.0-3.175-2.175","j28f3g5xcnvnf3f",35,"109.csv","","null","resources/images/coin2.png","null","",NA,NA,NA,NA,""
"image-keyboard-response",539,403583,"0.0-3.176-0.176","j28f3g5xcnvnf3f",35,"109.csv","","269.39999997615814","resources/trios/L4T1A1.jpg","38","restless",0.7,0.3,0.6,0.0663748111423794,"true"
"image-keyboard-response",540,403998,"0.0-3.176-1.176","j28f3g5xcnvnf3f",35,"109.csv","","null","resources/maskTrios/BT1B.jpg","null","",NA,NA,NA,NA,""
"image-keyboard-response",541,405207,"0.0-3.176-2.176","j28f3g5xcnvnf3f",35,"109.csv","","null","resources/images/coin2.png","null","",NA,NA,NA,NA,""
"image-keyboard-response",542,405406,"0.0-3.177-0.177","j28f3g5xcnvnf3f",35,"109.csv","","197","resources/trios/L2T2A3.jpg","38","restless",0.7,0.3,0.5,0.71993126705137,"false"
"image-keyboard-response",543,405811,"0.0-3.177-1.177","j28f3g5xcnvnf3f",35,"109.csv","","null","resources/maskTrios/BT2B.jpg","null","",NA,NA,NA,NA,""
"image-keyboard-response",544,407019,"0.0-3.177-2.177","j28f3g5xcnvnf3f",35,"109.csv","","null","resources/images/fishbone.png","null","",NA,NA,NA,NA,""
"image-keyboard-response",545,407317,"0.0-3.178-0.178","j28f3g5xcnvnf3f",35,"109.csv","","294.1999999284744","resources/trios/L2T1A3.jpg","37","restless",0.7,0.3,0.5,0.875682780025242,"false"
"image-keyboard-response",546,407722,"0.0-3.178-1.178","j28f3g5xcnvnf3f",35,"109.csv","","null","resources/maskTrios/L2BB.jpg","null","",NA,NA,NA,NA,""
"image-keyboard-response",547,408932,"0.0-3.178-2.178","j28f3g5xcnvnf3f",35,"109.csv","","null","resources/images/fishbone.png","null","",NA,NA,NA,NA,""
"image-keyboard-response",548,409454,"0.0-3.179-0.179","j28f3g5xcnvnf3f",35,"109.csv","","518.7000000476837","resources/trios/L4T2A3.jpg","39","restless",0.7,0.3,0.5,0.222624638249397,"true"
"image-keyboard-response",549,409859,"0.0-3.179-1.179","j28f3g5xcnvnf3f",35,"109.csv","","null","resources/maskTrios/BBA3.jpg","null","",NA,NA,NA,NA,""
"image-keyboard-response",550,411069,"0.0-3.179-2.179","j28f3g5xcnvnf3f",35,"109.csv","","null","resources/images/coin2.png","null","",NA,NA,NA,NA,""
"image-keyboard-response",551,411230,"0.0-3.180-0.180","j28f3g5xcnvnf3f",35,"109.csv","","158.20000004768372","resources/trios/L2T2A1.jpg","39","restless",0.7,0.3,0.5,0.143301897292073,"true"
"image-keyboard-response",552,411635,"0.0-3.180-1.180","j28f3g5xcnvnf3f",35,"109.csv","","null","resources/maskTrios/BBA1.jpg","null","",NA,NA,NA,NA,""
"image-keyboard-response",553,412843,"0.0-3.180-2.180","j28f3g5xcnvnf3f",35,"109.csv","","null","resources/images/coin2.png","null","",NA,NA,NA,NA,""
"image-keyboard-response",554,412918,"0.0-3.181-0.181","j28f3g5xcnvnf3f",35,"109.csv","","71.89999997615814","resources/trios/L2T2A1.jpg","39","restless",0.7,0.4,0.5,0.57317769821511,"false"
"image-keyboard-response",555,413327,"0.0-3.181-1.181","j28f3g5xcnvnf3f",35,"109.csv","","null","resources/maskTrios/BBA1.jpg","null","",NA,NA,NA,NA,""
"image-keyboard-response",556,414532,"0.0-3.181-2.181","j28f3g5xcnvnf3f",35,"109.csv","","null","resources/images/fishbone.png","null","",NA,NA,NA,NA,""
"image-keyboard-response",557,414777,"0.0-3.182-0.182","j28f3g5xcnvnf3f",35,"109.csv","","241.39999997615814","resources/trios/L2T2A3.jpg","38","restless",0.7,0.4,0.5,0.524783916324501,"false"
"image-keyboard-response",558,415189,"0.0-3.182-1.182","j28f3g5xcnvnf3f",35,"109.csv","","null","resources/maskTrios/BT2B.jpg","null","",NA,NA,NA,NA,""
"image-keyboard-response",559,416399,"0.0-3.182-2.182","j28f3g5xcnvnf3f",35,"109.csv","","null","resources/images/fishbone.png","null","",NA,NA,NA,NA,""
"image-keyboard-response",560,416861,"0.0-3.183-0.183","j28f3g5xcnvnf3f",35,"109.csv","","458.60000002384186","resources/trios/L4T1A1.jpg","37","restless",0.7,0.4,0.5,0.855811134873256,"false"
"image-keyboard-response",561,417267,"0.0-3.183-1.183","j28f3g5xcnvnf3f",35,"109.csv","","null","resources/maskTrios/L4BB.jpg","null","",NA,NA,NA,NA,""
"image-keyboard-response",562,418479,"0.0-3.183-2.183","j28f3g5xcnvnf3f",35,"109.csv","","null","resources/images/fishbone.png","null","",NA,NA,NA,NA,""
"image-keyboard-response",563,418785,"0.0-3.184-0.184","j28f3g5xcnvnf3f",35,"109.csv","","302.7999999523163","resources/trios/L2T2A3.jpg","38","restless",0.7,0.4,0.5,0.219275526506345,"true"
"image-keyboard-response",564,419196,"0.0-3.184-1.184","j28f3g5xcnvnf3f",35,"109.csv","","null","resources/maskTrios/BT2B.jpg","null","",NA,NA,NA,NA,""
"image-keyboard-response",565,420404,"0.0-3.184-2.184","j28f3g5xcnvnf3f",35,"109.csv","","null","resources/images/coin2.png","null","",NA,NA,NA,NA,""
"image-keyboard-response",566,420617,"0.0-3.185-0.185","j28f3g5xcnvnf3f",35,"109.csv","","209.20000004768372","resources/trios/L4T2A3.jpg","37","restless",0.6,0.4,0.5,0.900093288455938,"false"
"image-keyboard-response",567,421027,"0.0-3.185-1.185","j28f3g5xcnvnf3f",35,"109.csv","","null","resources/maskTrios/L4BB.jpg","null","",NA,NA,NA,NA,""
"image-keyboard-response",568,422234,"0.0-3.185-2.185","j28f3g5xcnvnf3f",35,"109.csv","","null","resources/images/fishbone.png","null","",NA,NA,NA,NA,""
"image-keyboard-response",569,422430,"0.0-3.186-0.186","j28f3g5xcnvnf3f",35,"109.csv","","192.69999992847443","resources/trios/L4T1A1.jpg","38","restless",0.6,0.4,0.5,0.830682677316085,"false"
"image-keyboard-response",570,422839,"0.0-3.186-1.186","j28f3g5xcnvnf3f",35,"109.csv","","null","resources/maskTrios/BT1B.jpg","null","",NA,NA,NA,NA,""
"image-keyboard-response",571,424042,"0.0-3.186-2.186","j28f3g5xcnvnf3f",35,"109.csv","","null","resources/images/fishbone.png","null","",NA,NA,NA,NA,""
"image-keyboard-response",572,424226,"0.0-3.187-0.187","j28f3g5xcnvnf3f",35,"109.csv","","180.40000009536743","resources/trios/L4T1A1.jpg","39","restless",0.6,0.4,0.5,0.511759305604832,"false"
"image-keyboard-response",573,424636,"0.0-3.187-1.187","j28f3g5xcnvnf3f",35,"109.csv","","null","resources/maskTrios/BBA1.jpg","null","",NA,NA,NA,NA,""
"image-keyboard-response",574,425845,"0.0-3.187-2.187","j28f3g5xcnvnf3f",35,"109.csv","","null","resources/images/fishbone.png","null","",NA,NA,NA,NA,""
"image-keyboard-response",575,425994,"0.0-3.188-0.188","j28f3g5xcnvnf3f",35,"109.csv","","147.5","resources/trios/L2T2A1.jpg","38","restless",0.6,0.4,0.5,0.221553451092192,"true"
"image-keyboard-response",576,426403,"0.0-3.188-1.188","j28f3g5xcnvnf3f",35,"109.csv","","null","resources/maskTrios/BT2B.jpg","null","",NA,NA,NA,NA,""
"image-keyboard-response",577,427613,"0.0-3.188-2.188","j28f3g5xcnvnf3f",35,"109.csv","","null","resources/images/coin2.png","null","",NA,NA,NA,NA,""
"image-keyboard-response",578,427865,"0.0-3.189-0.189","j28f3g5xcnvnf3f",35,"109.csv","","250.20000004768372","resources/trios/L4T1A3.jpg","38","restless",0.6,0.4,0.5,0.845288352998772,"false"
"image-keyboard-response",579,428275,"0.0-3.189-1.189","j28f3g5xcnvnf3f",35,"109.csv","","null","resources/maskTrios/BT1B.jpg","null","",NA,NA,NA,NA,""
"image-keyboard-response",580,429480,"0.0-3.189-2.189","j28f3g5xcnvnf3f",35,"109.csv","","null","resources/images/fishbone.png","null","",NA,NA,NA,NA,""
"image-keyboard-response",581,429749,"0.0-3.190-0.190","j28f3g5xcnvnf3f",35,"109.csv","","266.2000000476837","resources/trios/L4T2A1.jpg","37","restless",0.6,0.4,0.5,0.0562103873481532,"true"
"image-keyboard-response",582,430159,"0.0-3.190-1.190","j28f3g5xcnvnf3f",35,"109.csv","","null","resources/maskTrios/L4BB.jpg","null","",NA,NA,NA,NA,""
"image-keyboard-response",583,431373,"0.0-3.190-2.190","j28f3g5xcnvnf3f",35,"109.csv","","null","resources/images/coin2.png","null","",NA,NA,NA,NA,""
"image-keyboard-response",584,431754,"0.0-3.191-0.191","j28f3g5xcnvnf3f",35,"109.csv","","378.2999999523163","resources/trios/L4T1A1.jpg","37","restless",0.6,0.3,0.5,0.121558715164785,"true"
"image-keyboard-response",585,432167,"0.0-3.191-1.191","j28f3g5xcnvnf3f",35,"109.csv","","null","resources/maskTrios/L4BB.jpg","null","",NA,NA,NA,NA,""
"image-keyboard-response",586,433371,"0.0-3.191-2.191","j28f3g5xcnvnf3f",35,"109.csv","","null","resources/images/coin2.png","null","",NA,NA,NA,NA,""
"image-keyboard-response",587,433629,"0.0-3.192-0.192","j28f3g5xcnvnf3f",35,"109.csv","","254.10000002384186","resources/trios/L2T2A1.jpg","37","restless",0.6,0.3,0.5,0.58487405518826,"true"
"image-keyboard-response",588,434037,"0.0-3.192-1.192","j28f3g5xcnvnf3f",35,"109.csv","","null","resources/maskTrios/L2BB.jpg","null","",NA,NA,NA,NA,""
"image-keyboard-response",589,435243,"0.0-3.192-2.192","j28f3g5xcnvnf3f",35,"109.csv","","null","resources/images/coin2.png","null","",NA,NA,NA,NA,""
"image-keyboard-response",590,435692,"0.0-3.193-0.193","j28f3g5xcnvnf3f",35,"109.csv","","445.7000000476837","resources/trios/L4T1A1.jpg","37","restless",0.6,0.3,0.5,0.262595617242064,"true"
"image-keyboard-response",591,436099,"0.0-3.193-1.193","j28f3g5xcnvnf3f",35,"109.csv","","null","resources/maskTrios/L4BB.jpg","null","",NA,NA,NA,NA,""
"image-keyboard-response",592,437309,"0.0-3.193-2.193","j28f3g5xcnvnf3f",35,"109.csv","","null","resources/images/coin2.png","null","",NA,NA,NA,NA,""
"image-keyboard-response",593,437777,"0.0-3.194-0.194","j28f3g5xcnvnf3f",35,"109.csv","","464.39999997615814","resources/trios/L4T1A1.jpg","38","restless",0.6,0.2,0.6,0.130897766681727,"true"
"image-keyboard-response",594,438191,"0.0-3.194-1.194","j28f3g5xcnvnf3f",35,"109.csv","","null","resources/maskTrios/BT1B.jpg","null","",NA,NA,NA,NA,""
"image-keyboard-response",595,439396,"0.0-3.194-2.194","j28f3g5xcnvnf3f",35,"109.csv","","null","resources/images/coin2.png","null","",NA,NA,NA,NA,""
"image-keyboard-response",596,439669,"0.0-3.195-0.195","j28f3g5xcnvnf3f",35,"109.csv","","269.60000002384186","resources/trios/L2T2A1.jpg","38","restless",0.6,0.2,0.6,0.528292662229424,"false"
"image-keyboard-response",597,440079,"0.0-3.195-1.195","j28f3g5xcnvnf3f",35,"109.csv","","null","resources/maskTrios/BT2B.jpg","null","",NA,NA,NA,NA,""
"image-keyboard-response",598,441286,"0.0-3.195-2.195","j28f3g5xcnvnf3f",35,"109.csv","","null","resources/images/fishbone.png","null","",NA,NA,NA,NA,""
"image-keyboard-response",599,441515,"0.0-3.196-0.196","j28f3g5xcnvnf3f",35,"109.csv","","226.5","resources/trios/L4T1A1.jpg","37","restless",0.7,0.2,0.6,0.416375826963908,"true"
"image-keyboard-response",600,441927,"0.0-3.196-1.196","j28f3g5xcnvnf3f",35,"109.csv","","null","resources/maskTrios/L4BB.jpg","null","",NA,NA,NA,NA,""
"image-keyboard-response",601,443139,"0.0-3.196-2.196","j28f3g5xcnvnf3f",35,"109.csv","","null","resources/images/coin2.png","null","",NA,NA,NA,NA,""
"image-keyboard-response",602,443395,"0.0-3.197-0.197","j28f3g5xcnvnf3f",35,"109.csv","","251.60000002384186","resources/trios/L2T2A3.jpg","37","restless",0.7,0.2,0.6,0.229503616118915,"true"
"image-keyboard-response",603,443807,"0.0-3.197-1.197","j28f3g5xcnvnf3f",35,"109.csv","","null","resources/maskTrios/L2BB.jpg","null","",NA,NA,NA,NA,""
"image-keyboard-response",604,445022,"0.0-3.197-2.197","j28f3g5xcnvnf3f",35,"109.csv","","null","resources/images/coin2.png","null","",NA,NA,NA,NA,""
"image-keyboard-response",605,445300,"0.0-3.198-0.198","j28f3g5xcnvnf3f",35,"109.csv","","274","resources/trios/L4T1A1.jpg","37","restless",0.7,0.2,0.6,0.887670958146439,"false"
"image-keyboard-response",606,445710,"0.0-3.198-1.198","j28f3g5xcnvnf3f",35,"109.csv","","null","resources/maskTrios/L4BB.jpg","null","",NA,NA,NA,NA,""
"image-keyboard-response",607,446917,"0.0-3.198-2.198","j28f3g5xcnvnf3f",35,"109.csv","","null","resources/images/fishbone.png","null","",NA,NA,NA,NA,""
"image-keyboard-response",608,447146,"0.0-3.199-0.199","j28f3g5xcnvnf3f",35,"109.csv","","226.29999995231628","resources/trios/L4T1A1.jpg","39","restless",0.7,0.2,0.6,0.0668615733481113,"true"
"image-keyboard-response",609,447559,"0.0-3.199-1.199","j28f3g5xcnvnf3f",35,"109.csv","","null","resources/maskTrios/BBA1.jpg","null","",NA,NA,NA,NA,""
