"trial_type","trial_index","time_elapsed","internal_node_id","subject","participantCode","walkNumber","success","rt","stimulus","key_press","test_part","leftProb","midProb","rightProb","generatedNum","correct"
"pavlovia",0,1034,"0.0-0.0","wm2zd2cvp08rvd6",958,"141.csv","","","","","",NA,NA,NA,NA,""
"fullscreen",1,17435,"0.0-1.0","wm2zd2cvp08rvd6",958,"141.csv","true","","","","",NA,NA,NA,NA,""
"html-keyboard-response",2,32482,"0.0-2.0-0.0","wm2zd2cvp08rvd6",958,"141.csv","","15045.90000000596","<p><font size='6'>Arrrgh!</p></font><p>Can you be the best pirate? Try to find lots of gold! But beware, some islands have more gold than others, and over time, the island with the most gold may change. Can YOU figure it out? </p><font size='6'>GOOD LUCK, CAPTAIN!!!</font><p>Press any key to begin</p>","13","",NA,NA,NA,NA,""
"image-keyboard-response",3,35485,"0.0-2.0-1.0","wm2zd2cvp08rvd6",958,"141.csv","","null","resources/image_sets/111.png","null","",NA,NA,NA,NA,""
"image-keyboard-response",4,44781,"0.0-2.0-2.0","wm2zd2cvp08rvd6",958,"141.csv","","9294.299999982119","resources/image_sets/left_highlight.png","37","",NA,NA,NA,NA,""
"image-keyboard-response",5,46522,"0.0-2.0-3.0","wm2zd2cvp08rvd6",958,"141.csv","","1738.699999988079","resources/image_sets/mid_highlight.png","38","",NA,NA,NA,NA,""
"image-keyboard-response",6,49909,"0.0-2.0-4.0","wm2zd2cvp08rvd6",958,"141.csv","","3386.4000000059605","resources/image_sets/right_highlight.png","39","",NA,NA,NA,NA,""
"image-keyboard-response",7,55554,"0.0-2.0-5.0","wm2zd2cvp08rvd6",958,"141.csv","","5644.5","resources/image_sets/111.png","13","",NA,NA,NA,NA,""
"image-keyboard-response",8,57296,"0.0-2.0-6.0","wm2zd2cvp08rvd6",958,"141.csv","","1740.3999999761581","resources/images/coin2.png","13","",NA,NA,NA,NA,""
"image-keyboard-response",9,60345,"0.0-2.0-7.0","wm2zd2cvp08rvd6",958,"141.csv","","3047.5999999940395","resources/images/fishbone.png","13","",NA,NA,NA,NA,""
"html-keyboard-response",10,65050,"0.0-2.0-8.0","wm2zd2cvp08rvd6",958,"141.csv","","4703.5999999940395","<p>Your first journey will be a long one, but you will get a well deserved break at the end</p><p>After the break you will have four more journeys, but each will be much shorter than the first, and you will have breaks in between each</p><p>Press Enter to begin</p>","13","",NA,NA,NA,NA,""
"image-keyboard-response",11,67337,"0.0-3.0-0.0","wm2zd2cvp08rvd6",958,"141.csv","","2284.2000000178814","resources/trios/L1T4A1.jpg","38","restless",0.3,0.7,0.9,0.743319557959598,"false"
"image-keyboard-response",12,67742,"0.0-3.0-1.0","wm2zd2cvp08rvd6",958,"141.csv","","null","resources/maskTrios/BT4B.jpg","null","",NA,NA,NA,NA,""
"image-keyboard-response",13,68947,"0.0-3.0-2.0","wm2zd2cvp08rvd6",958,"141.csv","","null","resources/images/fishbone.png","null","",NA,NA,NA,NA,""
"image-keyboard-response",14,72321,"0.0-3.1-0.1","wm2zd2cvp08rvd6",958,"141.csv","","3370.699999988079","resources/trios/L1T4A1.jpg","37","restless",0.3,0.7,0.9,0.875763671497906,"false"
"image-keyboard-response",15,72728,"0.0-3.1-1.1","wm2zd2cvp08rvd6",958,"141.csv","","null","resources/maskTrios/L1BB.jpg","null","",NA,NA,NA,NA,""
"image-keyboard-response",16,73935,"0.0-3.1-2.1","wm2zd2cvp08rvd6",958,"141.csv","","null","resources/images/fishbone.png","null","",NA,NA,NA,NA,""
"image-keyboard-response",17,79988,"0.0-3.2-0.2","wm2zd2cvp08rvd6",958,"141.csv","","6049.9000000059605","resources/trios/L4T2A1.jpg","37","restless",0.4,0.7,0.9,0.437252064464307,"false"
"image-keyboard-response",18,80393,"0.0-3.2-1.2","wm2zd2cvp08rvd6",958,"141.csv","","null","resources/maskTrios/L4BB.jpg","null","",NA,NA,NA,NA,""
"image-keyboard-response",19,81600,"0.0-3.2-2.2","wm2zd2cvp08rvd6",958,"141.csv","","null","resources/images/fishbone.png","null","",NA,NA,NA,NA,""
"image-keyboard-response",20,84636,"0.0-3.3-0.3","wm2zd2cvp08rvd6",958,"141.csv","","3033.2000000178814","resources/trios/L4T4A2.jpg","39","restless",0.4,0.6,0.8,0.957269103687147,"false"
"image-keyboard-response",21,85044,"0.0-3.3-1.3","wm2zd2cvp08rvd6",958,"141.csv","","null","resources/maskTrios/BBA2.jpg","null","",NA,NA,NA,NA,""
"image-keyboard-response",22,86251,"0.0-3.3-2.3","wm2zd2cvp08rvd6",958,"141.csv","","null","resources/images/fishbone.png","null","",NA,NA,NA,NA,""
"image-keyboard-response",23,87932,"0.0-3.4-0.4","wm2zd2cvp08rvd6",958,"141.csv","","1679","resources/trios/L1T4A2.jpg","38","restless",0.4,0.6,0.8,0.36287914784954,"true"
"image-keyboard-response",24,88336,"0.0-3.4-1.4","wm2zd2cvp08rvd6",958,"141.csv","","null","resources/maskTrios/BT4B.jpg","null","",NA,NA,NA,NA,""
"image-keyboard-response",25,89543,"0.0-3.4-2.4","wm2zd2cvp08rvd6",958,"141.csv","","null","resources/images/coin2.png","null","",NA,NA,NA,NA,""
"image-keyboard-response",26,90765,"0.0-3.5-0.5","wm2zd2cvp08rvd6",958,"141.csv","","1219.9000000059605","resources/trios/L1T4A1.jpg","38","restless",0.4,0.6,0.8,0.4929052938116,"true"
"image-keyboard-response",27,91170,"0.0-3.5-1.5","wm2zd2cvp08rvd6",958,"141.csv","","null","resources/maskTrios/BT4B.jpg","null","",NA,NA,NA,NA,""
"image-keyboard-response",28,92376,"0.0-3.5-2.5","wm2zd2cvp08rvd6",958,"141.csv","","null","resources/images/coin2.png","null","",NA,NA,NA,NA,""
"image-keyboard-response",29,95138,"0.0-3.6-0.6","wm2zd2cvp08rvd6",958,"141.csv","","2759.300000011921","resources/trios/L4T2A2.jpg","39","restless",0.4,0.6,0.8,0.576301154589063,"true"
"image-keyboard-response",30,95544,"0.0-3.6-1.6","wm2zd2cvp08rvd6",958,"141.csv","","null","resources/maskTrios/BBA2.jpg","null","",NA,NA,NA,NA,""
"image-keyboard-response",31,96748,"0.0-3.6-2.6","wm2zd2cvp08rvd6",958,"141.csv","","null","resources/images/coin2.png","null","",NA,NA,NA,NA,""
"image-keyboard-response",32,100169,"0.0-3.7-0.7","wm2zd2cvp08rvd6",958,"141.csv","","3419.5999999940395","resources/trios/L4T4A2.jpg","38","restless",0.4,0.6,0.8,0.288655295127047,"true"
"image-keyboard-response",33,100573,"0.0-3.7-1.7","wm2zd2cvp08rvd6",958,"141.csv","","null","resources/maskTrios/BT4B.jpg","null","",NA,NA,NA,NA,""
"image-keyboard-response",34,101775,"0.0-3.7-2.7","wm2zd2cvp08rvd6",958,"141.csv","","null","resources/images/coin2.png","null","",NA,NA,NA,NA,""
"image-keyboard-response",35,104069,"0.0-3.8-0.8","wm2zd2cvp08rvd6",958,"141.csv","","2292","resources/trios/L1T2A2.jpg","38","restless",0.4,0.6,0.8,0.619071699394311,"false"
"image-keyboard-response",36,104476,"0.0-3.8-1.8","wm2zd2cvp08rvd6",958,"141.csv","","null","resources/maskTrios/BT2B.jpg","null","",NA,NA,NA,NA,""
"image-keyboard-response",37,105683,"0.0-3.8-2.8","wm2zd2cvp08rvd6",958,"141.csv","","null","resources/images/fishbone.png","null","",NA,NA,NA,NA,""
"image-keyboard-response",38,108705,"0.0-3.9-0.9","wm2zd2cvp08rvd6",958,"141.csv","","3020.5999999940395","resources/trios/L4T4A1.jpg","38","restless",0.5,0.6,0.8,0.220606363742638,"true"
"image-keyboard-response",39,109111,"0.0-3.9-1.9","wm2zd2cvp08rvd6",958,"141.csv","","null","resources/maskTrios/BT4B.jpg","null","",NA,NA,NA,NA,""
"image-keyboard-response",40,110315,"0.0-3.9-2.9","wm2zd2cvp08rvd6",958,"141.csv","","null","resources/images/coin2.png","null","",NA,NA,NA,NA,""
"image-keyboard-response",41,111597,"0.0-3.10-0.10","wm2zd2cvp08rvd6",958,"141.csv","","1280.0999999940395","resources/trios/L1T4A2.jpg","38","restless",0.5,0.6,0.8,0.264400617443536,"true"
"image-keyboard-response",42,112005,"0.0-3.10-1.10","wm2zd2cvp08rvd6",958,"141.csv","","null","resources/maskTrios/BT4B.jpg","null","",NA,NA,NA,NA,""
"image-keyboard-response",43,113209,"0.0-3.10-2.10","wm2zd2cvp08rvd6",958,"141.csv","","null","resources/images/coin2.png","null","",NA,NA,NA,NA,""
"image-keyboard-response",44,113954,"0.0-3.11-0.11","wm2zd2cvp08rvd6",958,"141.csv","","743.1999999880791","resources/trios/L4T4A1.jpg","38","restless",0.5,0.6,0.8,0.859243327608705,"false"
"image-keyboard-response",45,114360,"0.0-3.11-1.11","wm2zd2cvp08rvd6",958,"141.csv","","null","resources/maskTrios/BT4B.jpg","null","",NA,NA,NA,NA,""
"image-keyboard-response",46,115564,"0.0-3.11-2.11","wm2zd2cvp08rvd6",958,"141.csv","","null","resources/images/fishbone.png","null","",NA,NA,NA,NA,""
"image-keyboard-response",47,118289,"0.0-3.12-0.12","wm2zd2cvp08rvd6",958,"141.csv","","2722.9000000059605","resources/trios/L4T2A2.jpg","37","restless",0.4,0.6,0.8,0.74858832280825,"false"
"image-keyboard-response",48,118694,"0.0-3.12-1.12","wm2zd2cvp08rvd6",958,"141.csv","","null","resources/maskTrios/L4BB.jpg","null","",NA,NA,NA,NA,""
"image-keyboard-response",49,119898,"0.0-3.12-2.12","wm2zd2cvp08rvd6",958,"141.csv","","null","resources/images/fishbone.png","null","",NA,NA,NA,NA,""
"image-keyboard-response",50,121666,"0.0-3.13-0.13","wm2zd2cvp08rvd6",958,"141.csv","","1764.9000000059605","resources/trios/L1T4A2.jpg","38","restless",0.4,0.6,0.8,0.107283946755117,"true"
"image-keyboard-response",51,122069,"0.0-3.13-1.13","wm2zd2cvp08rvd6",958,"141.csv","","null","resources/maskTrios/BT4B.jpg","null","",NA,NA,NA,NA,""
"image-keyboard-response",52,123272,"0.0-3.13-2.13","wm2zd2cvp08rvd6",958,"141.csv","","null","resources/images/coin2.png","null","",NA,NA,NA,NA,""
"image-keyboard-response",53,126487,"0.0-3.14-0.14","wm2zd2cvp08rvd6",958,"141.csv","","3213","resources/trios/L4T2A1.jpg","38","restless",0.4,0.6,0.8,0.59153487087311,"true"
"image-keyboard-response",54,126892,"0.0-3.14-1.14","wm2zd2cvp08rvd6",958,"141.csv","","null","resources/maskTrios/BT2B.jpg","null","",NA,NA,NA,NA,""
"image-keyboard-response",55,128099,"0.0-3.14-2.14","wm2zd2cvp08rvd6",958,"141.csv","","null","resources/images/coin2.png","null","",NA,NA,NA,NA,""
"image-keyboard-response",56,130447,"0.0-3.15-0.15","wm2zd2cvp08rvd6",958,"141.csv","","2345.9000000059605","resources/trios/L4T2A2.jpg","39","restless",0.4,0.6,0.8,0.509565898801161,"true"
"image-keyboard-response",57,130853,"0.0-3.15-1.15","wm2zd2cvp08rvd6",958,"141.csv","","null","resources/maskTrios/BBA2.jpg","null","",NA,NA,NA,NA,""
"image-keyboard-response",58,132060,"0.0-3.15-2.15","wm2zd2cvp08rvd6",958,"141.csv","","null","resources/images/coin2.png","null","",NA,NA,NA,NA,""
"image-keyboard-response",59,134385,"0.0-3.16-0.16","wm2zd2cvp08rvd6",958,"141.csv","","2322.5","resources/trios/L1T2A1.jpg","38","restless",0.4,0.6,0.7,0.825897148127626,"false"
"image-keyboard-response",60,134787,"0.0-3.16-1.16","wm2zd2cvp08rvd6",958,"141.csv","","null","resources/maskTrios/BT2B.jpg","null","",NA,NA,NA,NA,""
"image-keyboard-response",61,136000,"0.0-3.16-2.16","wm2zd2cvp08rvd6",958,"141.csv","","null","resources/images/fishbone.png","null","",NA,NA,NA,NA,""
"image-keyboard-response",62,138027,"0.0-3.17-0.17","wm2zd2cvp08rvd6",958,"141.csv","","2025.7999999821186","resources/trios/L4T2A1.jpg","38","restless",0.4,0.6,0.7,0.805729350380193,"false"
"image-keyboard-response",63,138431,"0.0-3.17-1.17","wm2zd2cvp08rvd6",958,"141.csv","","null","resources/maskTrios/BT2B.jpg","null","",NA,NA,NA,NA,""
"image-keyboard-response",64,139634,"0.0-3.17-2.17","wm2zd2cvp08rvd6",958,"141.csv","","null","resources/images/fishbone.png","null","",NA,NA,NA,NA,""
"image-keyboard-response",65,141976,"0.0-3.18-0.18","wm2zd2cvp08rvd6",958,"141.csv","","2340.5","resources/trios/L4T2A1.jpg","37","restless",0.4,0.6,0.7,0.321499729182251,"true"
"image-keyboard-response",66,142381,"0.0-3.18-1.18","wm2zd2cvp08rvd6",958,"141.csv","","null","resources/maskTrios/L4BB.jpg","null","",NA,NA,NA,NA,""
"image-keyboard-response",67,143586,"0.0-3.18-2.18","wm2zd2cvp08rvd6",958,"141.csv","","null","resources/images/coin2.png","null","",NA,NA,NA,NA,""
"image-keyboard-response",68,145710,"0.0-3.19-0.19","wm2zd2cvp08rvd6",958,"141.csv","","2121.9000000059605","resources/trios/L1T4A2.jpg","38","restless",0.4,0.6,0.7,0.993779656453378,"false"
"image-keyboard-response",69,146118,"0.0-3.19-1.19","wm2zd2cvp08rvd6",958,"141.csv","","null","resources/maskTrios/BT4B.jpg","null","",NA,NA,NA,NA,""
"image-keyboard-response",70,147324,"0.0-3.19-2.19","wm2zd2cvp08rvd6",958,"141.csv","","null","resources/images/fishbone.png","null","",NA,NA,NA,NA,""
"image-keyboard-response",71,150034,"0.0-3.20-0.20","wm2zd2cvp08rvd6",958,"141.csv","","2708.5","resources/trios/L1T4A2.jpg","38","restless",0.4,0.6,0.6,0.401850131399926,"true"
"image-keyboard-response",72,150440,"0.0-3.20-1.20","wm2zd2cvp08rvd6",958,"141.csv","","null","resources/maskTrios/BT4B.jpg","null","",NA,NA,NA,NA,""
"image-keyboard-response",73,151644,"0.0-3.20-2.20","wm2zd2cvp08rvd6",958,"141.csv","","null","resources/images/coin2.png","null","",NA,NA,NA,NA,""
"image-keyboard-response",74,154814,"0.0-3.21-0.21","wm2zd2cvp08rvd6",958,"141.csv","","3168.4000000059605","resources/trios/L1T4A2.jpg","37","restless",0.4,0.6,0.6,0.192167411030029,"true"
"image-keyboard-response",75,155217,"0.0-3.21-1.21","wm2zd2cvp08rvd6",958,"141.csv","","null","resources/maskTrios/L1BB.jpg","null","",NA,NA,NA,NA,""
"image-keyboard-response",76,156425,"0.0-3.21-2.21","wm2zd2cvp08rvd6",958,"141.csv","","null","resources/images/coin2.png","null","",NA,NA,NA,NA,""
"image-keyboard-response",77,157965,"0.0-3.22-0.22","wm2zd2cvp08rvd6",958,"141.csv","","1538.300000011921","resources/trios/L1T2A2.jpg","39","restless",0.4,0.6,0.5,0.811760063906714,"false"
"image-keyboard-response",78,158372,"0.0-3.22-1.22","wm2zd2cvp08rvd6",958,"141.csv","","null","resources/maskTrios/BBA2.jpg","null","",NA,NA,NA,NA,""
"image-keyboard-response",79,159577,"0.0-3.22-2.22","wm2zd2cvp08rvd6",958,"141.csv","","null","resources/images/fishbone.png","null","",NA,NA,NA,NA,""
"image-keyboard-response",80,162767,"0.0-3.23-0.23","wm2zd2cvp08rvd6",958,"141.csv","","3188.5999999940395","resources/trios/L4T4A2.jpg","38","restless",0.4,0.6,0.5,0.553848569799823,"true"
"image-keyboard-response",81,163172,"0.0-3.23-1.23","wm2zd2cvp08rvd6",958,"141.csv","","null","resources/maskTrios/BT4B.jpg","null","",NA,NA,NA,NA,""
"image-keyboard-response",82,164377,"0.0-3.23-2.23","wm2zd2cvp08rvd6",958,"141.csv","","null","resources/images/coin2.png","null","",NA,NA,NA,NA,""
"image-keyboard-response",83,166565,"0.0-3.24-0.24","wm2zd2cvp08rvd6",958,"141.csv","","2185.600000023842","resources/trios/L1T2A1.jpg","39","restless",0.4,0.6,0.4,0.713207013464179,"false"
"image-keyboard-response",84,166970,"0.0-3.24-1.24","wm2zd2cvp08rvd6",958,"141.csv","","null","resources/maskTrios/BBA1.jpg","null","",NA,NA,NA,NA,""
"image-keyboard-response",85,168172,"0.0-3.24-2.24","wm2zd2cvp08rvd6",958,"141.csv","","null","resources/images/fishbone.png","null","",NA,NA,NA,NA,""
"image-keyboard-response",86,170381,"0.0-3.25-0.25","wm2zd2cvp08rvd6",958,"141.csv","","2206.4000000059605","resources/trios/L4T4A2.jpg","38","restless",0.4,0.6,0.4,0.531988500007892,"true"
"image-keyboard-response",87,170785,"0.0-3.25-1.25","wm2zd2cvp08rvd6",958,"141.csv","","null","resources/maskTrios/BT4B.jpg","null","",NA,NA,NA,NA,""
"image-keyboard-response",88,171992,"0.0-3.25-2.25","wm2zd2cvp08rvd6",958,"141.csv","","null","resources/images/coin2.png","null","",NA,NA,NA,NA,""
"image-keyboard-response",89,172629,"0.0-3.26-0.26","wm2zd2cvp08rvd6",958,"141.csv","","634.5999999940395","resources/trios/L1T2A1.jpg","38","restless",0.3,0.6,0.4,0.0899958166429224,"true"
"image-keyboard-response",90,173031,"0.0-3.26-1.26","wm2zd2cvp08rvd6",958,"141.csv","","null","resources/maskTrios/BT2B.jpg","null","",NA,NA,NA,NA,""
"image-keyboard-response",91,174238,"0.0-3.26-2.26","wm2zd2cvp08rvd6",958,"141.csv","","null","resources/images/coin2.png","null","",NA,NA,NA,NA,""
"image-keyboard-response",92,174595,"0.0-3.27-0.27","wm2zd2cvp08rvd6",958,"141.csv","","354.59999999403954","resources/trios/L4T4A2.jpg","39","restless",0.3,0.6,0.4,0.648612427836327,"false"
"image-keyboard-response",93,174999,"0.0-3.27-1.27","wm2zd2cvp08rvd6",958,"141.csv","","null","resources/maskTrios/BBA2.jpg","null","",NA,NA,NA,NA,""
"image-keyboard-response",94,176204,"0.0-3.27-2.27","wm2zd2cvp08rvd6",958,"141.csv","","null","resources/images/fishbone.png","null","",NA,NA,NA,NA,""
"image-keyboard-response",95,177404,"0.0-3.28-0.28","wm2zd2cvp08rvd6",958,"141.csv","","1198.4000000059605","resources/trios/L4T2A2.jpg","39","restless",0.3,0.5,0.4,0.00240077432278518,"true"
"image-keyboard-response",96,177811,"0.0-3.28-1.28","wm2zd2cvp08rvd6",958,"141.csv","","null","resources/maskTrios/BBA2.jpg","null","",NA,NA,NA,NA,""
"image-keyboard-response",97,179018,"0.0-3.28-2.28","wm2zd2cvp08rvd6",958,"141.csv","","null","resources/images/coin2.png","null","",NA,NA,NA,NA,""
"image-keyboard-response",98,179662,"0.0-3.29-0.29","wm2zd2cvp08rvd6",958,"141.csv","","642.3000000119209","resources/trios/L4T4A2.jpg","39","restless",0.2,0.5,0.4,0.434239109797929,"false"
"image-keyboard-response",99,180067,"0.0-3.29-1.29","wm2zd2cvp08rvd6",958,"141.csv","","null","resources/maskTrios/BBA2.jpg","null","",NA,NA,NA,NA,""
"image-keyboard-response",100,181274,"0.0-3.29-2.29","wm2zd2cvp08rvd6",958,"141.csv","","null","resources/images/fishbone.png","null","",NA,NA,NA,NA,""
"image-keyboard-response",101,182387,"0.0-3.30-0.30","wm2zd2cvp08rvd6",958,"141.csv","","1112.300000011921","resources/trios/L4T4A2.jpg","38","restless",0.2,0.5,0.4,0.88001135757919,"false"
"image-keyboard-response",102,182794,"0.0-3.30-1.30","wm2zd2cvp08rvd6",958,"141.csv","","null","resources/maskTrios/BT4B.jpg","null","",NA,NA,NA,NA,""
"image-keyboard-response",103,183998,"0.0-3.30-2.30","wm2zd2cvp08rvd6",958,"141.csv","","null","resources/images/fishbone.png","null","",NA,NA,NA,NA,""
"image-keyboard-response",104,185143,"0.0-3.31-0.31","wm2zd2cvp08rvd6",958,"141.csv","","1142.699999988079","resources/trios/L1T2A1.jpg","38","restless",0.2,0.6,0.3,0.569917604225176,"true"
"image-keyboard-response",105,185549,"0.0-3.31-1.31","wm2zd2cvp08rvd6",958,"141.csv","","null","resources/maskTrios/BT2B.jpg","null","",NA,NA,NA,NA,""
"image-keyboard-response",106,186755,"0.0-3.31-2.31","wm2zd2cvp08rvd6",958,"141.csv","","null","resources/images/coin2.png","null","",NA,NA,NA,NA,""
"image-keyboard-response",107,187618,"0.0-3.32-0.32","wm2zd2cvp08rvd6",958,"141.csv","","861.4000000059605","resources/trios/L1T4A2.jpg","37","restless",0.2,0.6,0.2,0.231003748984277,"false"
"image-keyboard-response",108,188024,"0.0-3.32-1.32","wm2zd2cvp08rvd6",958,"141.csv","","null","resources/maskTrios/L1BB.jpg","null","",NA,NA,NA,NA,""
"image-keyboard-response",109,189226,"0.0-3.32-2.32","wm2zd2cvp08rvd6",958,"141.csv","","null","resources/images/fishbone.png","null","",NA,NA,NA,NA,""
"image-keyboard-response",110,189881,"0.0-3.33-0.33","wm2zd2cvp08rvd6",958,"141.csv","","652.1000000238419","resources/trios/L4T4A1.jpg","38","restless",0.2,0.6,0.2,0.326914728093701,"true"
"image-keyboard-response",111,190289,"0.0-3.33-1.33","wm2zd2cvp08rvd6",958,"141.csv","","null","resources/maskTrios/BT4B.jpg","null","",NA,NA,NA,NA,""
"image-keyboard-response",112,191491,"0.0-3.33-2.33","wm2zd2cvp08rvd6",958,"141.csv","","null","resources/images/coin2.png","null","",NA,NA,NA,NA,""
"image-keyboard-response",113,192032,"0.0-3.34-0.34","wm2zd2cvp08rvd6",958,"141.csv","","540.2000000178814","resources/trios/L1T4A1.jpg","38","restless",0.2,0.6,0.2,0.818690884899224,"false"
"image-keyboard-response",114,192440,"0.0-3.34-1.34","wm2zd2cvp08rvd6",958,"141.csv","","null","resources/maskTrios/BT4B.jpg","null","",NA,NA,NA,NA,""
"image-keyboard-response",115,193645,"0.0-3.34-2.34","wm2zd2cvp08rvd6",958,"141.csv","","null","resources/images/fishbone.png","null","",NA,NA,NA,NA,""
"image-keyboard-response",116,194161,"0.0-3.35-0.35","wm2zd2cvp08rvd6",958,"141.csv","","513.2999999821186","resources/trios/L4T2A2.jpg","38","restless",0.2,0.6,0.2,0.252419711253571,"true"
"image-keyboard-response",117,194568,"0.0-3.35-1.35","wm2zd2cvp08rvd6",958,"141.csv","","null","resources/maskTrios/BT2B.jpg","null","",NA,NA,NA,NA,""
"image-keyboard-response",118,195772,"0.0-3.35-2.35","wm2zd2cvp08rvd6",958,"141.csv","","null","resources/images/coin2.png","null","",NA,NA,NA,NA,""
"image-keyboard-response",119,196694,"0.0-3.36-0.36","wm2zd2cvp08rvd6",958,"141.csv","","920.0999999940395","resources/trios/L4T2A1.jpg","39","restless",0.2,0.6,0.2,0.0707210278049875,"true"
"image-keyboard-response",120,197101,"0.0-3.36-1.36","wm2zd2cvp08rvd6",958,"141.csv","","null","resources/maskTrios/BBA1.jpg","null","",NA,NA,NA,NA,""
"image-keyboard-response",121,198308,"0.0-3.36-2.36","wm2zd2cvp08rvd6",958,"141.csv","","null","resources/images/coin2.png","null","",NA,NA,NA,NA,""
"image-keyboard-response",122,198900,"0.0-3.37-0.37","wm2zd2cvp08rvd6",958,"141.csv","","590","resources/trios/L4T2A1.jpg","39","restless",0.2,0.5,0.2,0.722456219623357,"false"
"image-keyboard-response",123,199305,"0.0-3.37-1.37","wm2zd2cvp08rvd6",958,"141.csv","","null","resources/maskTrios/BBA1.jpg","null","",NA,NA,NA,NA,""
"image-keyboard-response",124,200508,"0.0-3.37-2.37","wm2zd2cvp08rvd6",958,"141.csv","","null","resources/images/fishbone.png","null","",NA,NA,NA,NA,""
"image-keyboard-response",125,201086,"0.0-3.38-0.38","wm2zd2cvp08rvd6",958,"141.csv","","575.5","resources/trios/L4T4A2.jpg","38","restless",0.2,0.5,0.2,0.342544935268972,"true"
"image-keyboard-response",126,201491,"0.0-3.38-1.38","wm2zd2cvp08rvd6",958,"141.csv","","null","resources/maskTrios/BT4B.jpg","null","",NA,NA,NA,NA,""
"image-keyboard-response",127,202698,"0.0-3.38-2.38","wm2zd2cvp08rvd6",958,"141.csv","","null","resources/images/coin2.png","null","",NA,NA,NA,NA,""
"image-keyboard-response",128,203454,"0.0-3.39-0.39","wm2zd2cvp08rvd6",958,"141.csv","","754.0999999940395","resources/trios/L4T2A2.jpg","38","restless",0.2,0.6,0.2,0.894125485305304,"false"
"image-keyboard-response",129,203861,"0.0-3.39-1.39","wm2zd2cvp08rvd6",958,"141.csv","","null","resources/maskTrios/BT2B.jpg","null","",NA,NA,NA,NA,""
"image-keyboard-response",130,205063,"0.0-3.39-2.39","wm2zd2cvp08rvd6",958,"141.csv","","null","resources/images/fishbone.png","null","",NA,NA,NA,NA,""
"image-keyboard-response",131,206328,"0.0-3.40-0.40","wm2zd2cvp08rvd6",958,"141.csv","","1262.2999999821186","resources/trios/L1T4A2.jpg","39","restless",0.3,0.6,0.2,0.753310018191374,"false"
"image-keyboard-response",132,206735,"0.0-3.40-1.40","wm2zd2cvp08rvd6",958,"141.csv","","null","resources/maskTrios/BBA2.jpg","null","",NA,NA,NA,NA,""
"image-keyboard-response",133,207941,"0.0-3.40-2.40","wm2zd2cvp08rvd6",958,"141.csv","","null","resources/images/fishbone.png","null","",NA,NA,NA,NA,""
"image-keyboard-response",134,208567,"0.0-3.41-0.41","wm2zd2cvp08rvd6",958,"141.csv","","623.6999999880791","resources/trios/L1T2A1.jpg","38","restless",0.4,0.6,0.3,0.524856139235028,"true"
"image-keyboard-response",135,208971,"0.0-3.41-1.41","wm2zd2cvp08rvd6",958,"141.csv","","null","resources/maskTrios/BT2B.jpg","null","",NA,NA,NA,NA,""
"image-keyboard-response",136,210177,"0.0-3.41-2.41","wm2zd2cvp08rvd6",958,"141.csv","","null","resources/images/coin2.png","null","",NA,NA,NA,NA,""
"image-keyboard-response",137,211357,"0.0-3.42-0.42","wm2zd2cvp08rvd6",958,"141.csv","","1177.6000000238419","resources/trios/L4T4A1.jpg","38","restless",0.4,0.6,0.3,0.503731600534908,"true"
"image-keyboard-response",138,211760,"0.0-3.42-1.42","wm2zd2cvp08rvd6",958,"141.csv","","null","resources/maskTrios/BT4B.jpg","null","",NA,NA,NA,NA,""
"image-keyboard-response",139,212964,"0.0-3.42-2.42","wm2zd2cvp08rvd6",958,"141.csv","","null","resources/images/coin2.png","null","",NA,NA,NA,NA,""
"image-keyboard-response",140,214474,"0.0-3.43-0.43","wm2zd2cvp08rvd6",958,"141.csv","","1507.2999999821186","resources/trios/L4T2A2.jpg","39","restless",0.4,0.6,0.3,0.883236994747954,"false"
"image-keyboard-response",141,214879,"0.0-3.43-1.43","wm2zd2cvp08rvd6",958,"141.csv","","null","resources/maskTrios/BBA2.jpg","null","",NA,NA,NA,NA,""
"image-keyboard-response",142,216085,"0.0-3.43-2.43","wm2zd2cvp08rvd6",958,"141.csv","","null","resources/images/fishbone.png","null","",NA,NA,NA,NA,""
"image-keyboard-response",143,216822,"0.0-3.44-0.44","wm2zd2cvp08rvd6",958,"141.csv","","735.3000000119209","resources/trios/L4T4A1.jpg","38","restless",0.4,0.6,0.3,0.414503263232268,"true"
"image-keyboard-response",144,217229,"0.0-3.44-1.44","wm2zd2cvp08rvd6",958,"141.csv","","null","resources/maskTrios/BT4B.jpg","null","",NA,NA,NA,NA,""
"image-keyboard-response",145,218436,"0.0-3.44-2.44","wm2zd2cvp08rvd6",958,"141.csv","","null","resources/images/coin2.png","null","",NA,NA,NA,NA,""
"image-keyboard-response",146,219140,"0.0-3.45-0.45","wm2zd2cvp08rvd6",958,"141.csv","","702","resources/trios/L1T4A1.jpg","38","restless",0.4,0.6,0.3,0.165410428938528,"true"
"image-keyboard-response",147,219547,"0.0-3.45-1.45","wm2zd2cvp08rvd6",958,"141.csv","","null","resources/maskTrios/BT4B.jpg","null","",NA,NA,NA,NA,""
"image-keyboard-response",148,220750,"0.0-3.45-2.45","wm2zd2cvp08rvd6",958,"141.csv","","null","resources/images/coin2.png","null","",NA,NA,NA,NA,""
"image-keyboard-response",149,222002,"0.0-3.46-0.46","wm2zd2cvp08rvd6",958,"141.csv","","1249.4000000059605","resources/trios/L1T4A1.jpg","38","restless",0.4,0.6,0.3,0.390388395123401,"true"
"image-keyboard-response",150,222403,"0.0-3.46-1.46","wm2zd2cvp08rvd6",958,"141.csv","","null","resources/maskTrios/BT4B.jpg","null","",NA,NA,NA,NA,""
"image-keyboard-response",151,223607,"0.0-3.46-2.46","wm2zd2cvp08rvd6",958,"141.csv","","null","resources/images/coin2.png","null","",NA,NA,NA,NA,""
"image-keyboard-response",152,224871,"0.0-3.47-0.47","wm2zd2cvp08rvd6",958,"141.csv","","1262.4000000059605","resources/trios/L4T4A1.jpg","38","restless",0.3,0.6,0.3,0.878556417403807,"false"
"image-keyboard-response",153,225278,"0.0-3.47-1.47","wm2zd2cvp08rvd6",958,"141.csv","","null","resources/maskTrios/BT4B.jpg","null","",NA,NA,NA,NA,""
"image-keyboard-response",154,226483,"0.0-3.47-2.47","wm2zd2cvp08rvd6",958,"141.csv","","null","resources/images/fishbone.png","null","",NA,NA,NA,NA,""
"image-keyboard-response",155,227685,"0.0-3.48-0.48","wm2zd2cvp08rvd6",958,"141.csv","","1199.300000011921","resources/trios/L1T4A1.jpg","38","restless",0.3,0.6,0.3,0.749694246966013,"false"
"image-keyboard-response",156,228090,"0.0-3.48-1.48","wm2zd2cvp08rvd6",958,"141.csv","","null","resources/maskTrios/BT4B.jpg","null","",NA,NA,NA,NA,""
"image-keyboard-response",157,229296,"0.0-3.48-2.48","wm2zd2cvp08rvd6",958,"141.csv","","null","resources/images/fishbone.png","null","",NA,NA,NA,NA,""
"image-keyboard-response",158,229824,"0.0-3.49-0.49","wm2zd2cvp08rvd6",958,"141.csv","","526","resources/trios/L4T4A1.jpg","39","restless",0.3,0.6,0.3,0.791026892835638,"false"
"image-keyboard-response",159,230230,"0.0-3.49-1.49","wm2zd2cvp08rvd6",958,"141.csv","","null","resources/maskTrios/BBA1.jpg","null","",NA,NA,NA,NA,""
"image-keyboard-response",160,231433,"0.0-3.49-2.49","wm2zd2cvp08rvd6",958,"141.csv","","null","resources/images/fishbone.png","null","",NA,NA,NA,NA,""
"image-keyboard-response",161,232976,"0.0-3.50-0.50","wm2zd2cvp08rvd6",958,"141.csv","","1541.699999988079","resources/trios/L4T2A1.jpg","39","restless",0.3,0.6,0.3,0.914339732646911,"false"
"image-keyboard-response",162,233383,"0.0-3.50-1.50","wm2zd2cvp08rvd6",958,"141.csv","","null","resources/maskTrios/BBA1.jpg","null","",NA,NA,NA,NA,""
"image-keyboard-response",163,234589,"0.0-3.50-2.50","wm2zd2cvp08rvd6",958,"141.csv","","null","resources/images/fishbone.png","null","",NA,NA,NA,NA,""
"image-keyboard-response",164,235637,"0.0-3.51-0.51","wm2zd2cvp08rvd6",958,"141.csv","","1046","resources/trios/L1T2A1.jpg","38","restless",0.3,0.5,0.3,0.675103710809315,"false"
"image-keyboard-response",165,236044,"0.0-3.51-1.51","wm2zd2cvp08rvd6",958,"141.csv","","null","resources/maskTrios/BT2B.jpg","null","",NA,NA,NA,NA,""
"image-keyboard-response",166,237251,"0.0-3.51-2.51","wm2zd2cvp08rvd6",958,"141.csv","","null","resources/images/fishbone.png","null","",NA,NA,NA,NA,""
"image-keyboard-response",167,238064,"0.0-3.52-0.52","wm2zd2cvp08rvd6",958,"141.csv","","812.2000000178814","resources/trios/L4T2A1.jpg","38","restless",0.3,0.5,0.3,0.0389961178537537,"true"
"image-keyboard-response",168,238468,"0.0-3.52-1.52","wm2zd2cvp08rvd6",958,"141.csv","","null","resources/maskTrios/BT2B.jpg","null","",NA,NA,NA,NA,""
"image-keyboard-response",169,239675,"0.0-3.52-2.52","wm2zd2cvp08rvd6",958,"141.csv","","null","resources/images/coin2.png","null","",NA,NA,NA,NA,""
"image-keyboard-response",170,240142,"0.0-3.53-0.53","wm2zd2cvp08rvd6",958,"141.csv","","464.60000002384186","resources/trios/L4T2A2.jpg","38","restless",0.3,0.5,0.3,0.807614001767707,"false"
"image-keyboard-response",171,240546,"0.0-3.53-1.53","wm2zd2cvp08rvd6",958,"141.csv","","null","resources/maskTrios/BT2B.jpg","null","",NA,NA,NA,NA,""
"image-keyboard-response",172,241753,"0.0-3.53-2.53","wm2zd2cvp08rvd6",958,"141.csv","","null","resources/images/fishbone.png","null","",NA,NA,NA,NA,""
"image-keyboard-response",173,242806,"0.0-3.54-0.54","wm2zd2cvp08rvd6",958,"141.csv","","1050.7999999821186","resources/trios/L4T2A1.jpg","38","restless",0.3,0.5,0.2,0.794310409351271,"false"
"image-keyboard-response",174,243213,"0.0-3.54-1.54","wm2zd2cvp08rvd6",958,"141.csv","","null","resources/maskTrios/BT2B.jpg","null","",NA,NA,NA,NA,""
"image-keyboard-response",175,244419,"0.0-3.54-2.54","wm2zd2cvp08rvd6",958,"141.csv","","null","resources/images/fishbone.png","null","",NA,NA,NA,NA,""
"image-keyboard-response",176,245317,"0.0-3.55-0.55","wm2zd2cvp08rvd6",958,"141.csv","","895.4000000059605","resources/trios/L4T2A2.jpg","39","restless",0.3,0.5,0.2,0.772426434304499,"false"
"image-keyboard-response",177,245722,"0.0-3.55-1.55","wm2zd2cvp08rvd6",958,"141.csv","","null","resources/maskTrios/BBA2.jpg","null","",NA,NA,NA,NA,""
"image-keyboard-response",178,246929,"0.0-3.55-2.55","wm2zd2cvp08rvd6",958,"141.csv","","null","resources/images/fishbone.png","null","",NA,NA,NA,NA,""
"image-keyboard-response",179,248250,"0.0-3.56-0.56","wm2zd2cvp08rvd6",958,"141.csv","","1318.9000000059605","resources/trios/L4T4A1.jpg","38","restless",0.3,0.5,0.2,0.674178422020373,"false"
"image-keyboard-response",180,248657,"0.0-3.56-1.56","wm2zd2cvp08rvd6",958,"141.csv","","null","resources/maskTrios/BT4B.jpg","null","",NA,NA,NA,NA,""
"image-keyboard-response",181,249861,"0.0-3.56-2.56","wm2zd2cvp08rvd6",958,"141.csv","","null","resources/images/fishbone.png","null","",NA,NA,NA,NA,""
"image-keyboard-response",182,250737,"0.0-3.57-0.57","wm2zd2cvp08rvd6",958,"141.csv","","874.7000000178814","resources/trios/L1T2A2.jpg","38","restless",0.3,0.5,0.2,0.104226553155904,"true"
"image-keyboard-response",183,251141,"0.0-3.57-1.57","wm2zd2cvp08rvd6",958,"141.csv","","null","resources/maskTrios/BT2B.jpg","null","",NA,NA,NA,NA,""
"image-keyboard-response",184,252348,"0.0-3.57-2.57","wm2zd2cvp08rvd6",958,"141.csv","","null","resources/images/coin2.png","null","",NA,NA,NA,NA,""
"image-keyboard-response",185,253895,"0.0-3.58-0.58","wm2zd2cvp08rvd6",958,"141.csv","","1545.199999988079","resources/trios/L1T4A2.jpg","38","restless",0.3,0.5,0.2,0.376487154358119,"true"
"image-keyboard-response",186,254302,"0.0-3.58-1.58","wm2zd2cvp08rvd6",958,"141.csv","","null","resources/maskTrios/BT4B.jpg","null","",NA,NA,NA,NA,""
"image-keyboard-response",187,255506,"0.0-3.58-2.58","wm2zd2cvp08rvd6",958,"141.csv","","null","resources/images/coin2.png","null","",NA,NA,NA,NA,""
"image-keyboard-response",188,257399,"0.0-3.59-0.59","wm2zd2cvp08rvd6",958,"141.csv","","1891.300000011921","resources/trios/L1T2A2.jpg","38","restless",0.3,0.5,0.2,0.560768239336568,"false"
"image-keyboard-response",189,257804,"0.0-3.59-1.59","wm2zd2cvp08rvd6",958,"141.csv","","null","resources/maskTrios/BT2B.jpg","null","",NA,NA,NA,NA,""
"image-keyboard-response",190,259011,"0.0-3.59-2.59","wm2zd2cvp08rvd6",958,"141.csv","","null","resources/images/fishbone.png","null","",NA,NA,NA,NA,""
"image-keyboard-response",191,260335,"0.0-3.60-0.60","wm2zd2cvp08rvd6",958,"141.csv","","1321.699999988079","resources/trios/L1T2A1.jpg","39","restless",0.3,0.5,0.2,0.732279073986558,"false"
"image-keyboard-response",192,260741,"0.0-3.60-1.60","wm2zd2cvp08rvd6",958,"141.csv","","null","resources/maskTrios/BBA1.jpg","null","",NA,NA,NA,NA,""
"image-keyboard-response",193,261943,"0.0-3.60-2.60","wm2zd2cvp08rvd6",958,"141.csv","","null","resources/images/fishbone.png","null","",NA,NA,NA,NA,""
"image-keyboard-response",194,263049,"0.0-3.61-0.61","wm2zd2cvp08rvd6",958,"141.csv","","1104.300000011921","resources/trios/L4T4A1.jpg","38","restless",0.3,0.5,0.3,0.926149923161992,"false"
"image-keyboard-response",195,263453,"0.0-3.61-1.61","wm2zd2cvp08rvd6",958,"141.csv","","null","resources/maskTrios/BT4B.jpg","null","",NA,NA,NA,NA,""
"image-keyboard-response",196,264659,"0.0-3.61-2.61","wm2zd2cvp08rvd6",958,"141.csv","","null","resources/images/fishbone.png","null","",NA,NA,NA,NA,""
"image-keyboard-response",197,265491,"0.0-3.62-0.62","wm2zd2cvp08rvd6",958,"141.csv","","830","resources/trios/L1T2A1.jpg","38","restless",0.3,0.5,0.3,0.458565085031922,"true"
"image-keyboard-response",198,265899,"0.0-3.62-1.62","wm2zd2cvp08rvd6",958,"141.csv","","null","resources/maskTrios/BT2B.jpg","null","",NA,NA,NA,NA,""
"image-keyboard-response",199,267106,"0.0-3.62-2.62","wm2zd2cvp08rvd6",958,"141.csv","","null","resources/images/coin2.png","null","",NA,NA,NA,NA,""
"image-keyboard-response",200,268290,"0.0-3.63-0.63","wm2zd2cvp08rvd6",958,"141.csv","","1183.0999999940395","resources/trios/L1T2A2.jpg","38","restless",0.3,0.5,0.3,0.201626092591105,"true"
"image-keyboard-response",201,268694,"0.0-3.63-1.63","wm2zd2cvp08rvd6",958,"141.csv","","null","resources/maskTrios/BT2B.jpg","null","",NA,NA,NA,NA,""
"image-keyboard-response",202,269899,"0.0-3.63-2.63","wm2zd2cvp08rvd6",958,"141.csv","","null","resources/images/coin2.png","null","",NA,NA,NA,NA,""
"image-keyboard-response",203,272027,"0.0-3.64-0.64","wm2zd2cvp08rvd6",958,"141.csv","","2125.199999988079","resources/trios/L1T4A2.jpg","39","restless",0.3,0.5,0.3,0.604553454743708,"false"
"image-keyboard-response",204,272434,"0.0-3.64-1.64","wm2zd2cvp08rvd6",958,"141.csv","","null","resources/maskTrios/BBA2.jpg","null","",NA,NA,NA,NA,""
"image-keyboard-response",205,273639,"0.0-3.64-2.64","wm2zd2cvp08rvd6",958,"141.csv","","null","resources/images/fishbone.png","null","",NA,NA,NA,NA,""
"image-keyboard-response",206,274273,"0.0-3.65-0.65","wm2zd2cvp08rvd6",958,"141.csv","","631.9000000059605","resources/trios/L4T2A1.jpg","38","restless",0.3,0.5,0.3,0.450063739879319,"true"
"image-keyboard-response",207,274677,"0.0-3.65-1.65","wm2zd2cvp08rvd6",958,"141.csv","","null","resources/maskTrios/BT2B.jpg","null","",NA,NA,NA,NA,""
"image-keyboard-response",208,275881,"0.0-3.65-2.65","wm2zd2cvp08rvd6",958,"141.csv","","null","resources/images/coin2.png","null","",NA,NA,NA,NA,""
"image-keyboard-response",209,276590,"0.0-3.66-0.66","wm2zd2cvp08rvd6",958,"141.csv","","708.0999999940395","resources/trios/L1T2A1.jpg","38","restless",0.3,0.5,0.3,0.275866163186699,"true"
"image-keyboard-response",210,276994,"0.0-3.66-1.66","wm2zd2cvp08rvd6",958,"141.csv","","null","resources/maskTrios/BT2B.jpg","null","",NA,NA,NA,NA,""
"image-keyboard-response",211,278199,"0.0-3.66-2.66","wm2zd2cvp08rvd6",958,"141.csv","","null","resources/images/coin2.png","null","",NA,NA,NA,NA,""
"image-keyboard-response",212,279638,"0.0-3.67-0.67","wm2zd2cvp08rvd6",958,"141.csv","","1436.4000000059605","resources/trios/L4T2A1.jpg","38","restless",0.3,0.5,0.4,0.240854949644729,"true"
"image-keyboard-response",213,280044,"0.0-3.67-1.67","wm2zd2cvp08rvd6",958,"141.csv","","null","resources/maskTrios/BT2B.jpg","null","",NA,NA,NA,NA,""
"image-keyboard-response",214,281251,"0.0-3.67-2.67","wm2zd2cvp08rvd6",958,"141.csv","","null","resources/images/coin2.png","null","",NA,NA,NA,NA,""
"image-keyboard-response",215,282107,"0.0-3.68-0.68","wm2zd2cvp08rvd6",958,"141.csv","","854.8000000119209","resources/trios/L1T4A1.jpg","39","restless",0.3,0.5,0.4,0.742268440197893,"false"
"image-keyboard-response",216,282513,"0.0-3.68-1.68","wm2zd2cvp08rvd6",958,"141.csv","","null","resources/maskTrios/BBA1.jpg","null","",NA,NA,NA,NA,""
"image-keyboard-response",217,283718,"0.0-3.68-2.68","wm2zd2cvp08rvd6",958,"141.csv","","null","resources/images/fishbone.png","null","",NA,NA,NA,NA,""
"image-keyboard-response",218,285334,"0.0-3.69-0.69","wm2zd2cvp08rvd6",958,"141.csv","","1614","resources/trios/L1T4A2.jpg","39","restless",0.2,0.6,0.4,0.821790962462625,"false"
"image-keyboard-response",219,285738,"0.0-3.69-1.69","wm2zd2cvp08rvd6",958,"141.csv","","null","resources/maskTrios/BBA2.jpg","null","",NA,NA,NA,NA,""
"image-keyboard-response",220,286944,"0.0-3.69-2.69","wm2zd2cvp08rvd6",958,"141.csv","","null","resources/images/fishbone.png","null","",NA,NA,NA,NA,""
"image-keyboard-response",221,287628,"0.0-3.70-0.70","wm2zd2cvp08rvd6",958,"141.csv","","681.7999999821186","resources/trios/L1T2A2.jpg","38","restless",0.2,0.6,0.4,0.870501162534254,"false"
"image-keyboard-response",222,288032,"0.0-3.70-1.70","wm2zd2cvp08rvd6",958,"141.csv","","null","resources/maskTrios/BT2B.jpg","null","",NA,NA,NA,NA,""
"image-keyboard-response",223,289238,"0.0-3.70-2.70","wm2zd2cvp08rvd6",958,"141.csv","","null","resources/images/fishbone.png","null","",NA,NA,NA,NA,""
"image-keyboard-response",224,290489,"0.0-3.71-0.71","wm2zd2cvp08rvd6",958,"141.csv","","1248.6000000238419","resources/trios/L1T2A1.jpg","38","restless",0.2,0.6,0.4,0.444359843028595,"true"
"image-keyboard-response",225,290896,"0.0-3.71-1.71","wm2zd2cvp08rvd6",958,"141.csv","","null","resources/maskTrios/BT2B.jpg","null","",NA,NA,NA,NA,""
"image-keyboard-response",226,292103,"0.0-3.71-2.71","wm2zd2cvp08rvd6",958,"141.csv","","null","resources/images/coin2.png","null","",NA,NA,NA,NA,""
"image-keyboard-response",227,293391,"0.0-3.72-0.72","wm2zd2cvp08rvd6",958,"141.csv","","1285.300000011921","resources/trios/L4T2A2.jpg","38","restless",0.2,0.6,0.4,0.402470301243422,"true"
"image-keyboard-response",228,293792,"0.0-3.72-1.72","wm2zd2cvp08rvd6",958,"141.csv","","null","resources/maskTrios/BT2B.jpg","null","",NA,NA,NA,NA,""
"image-keyboard-response",229,294999,"0.0-3.72-2.72","wm2zd2cvp08rvd6",958,"141.csv","","null","resources/images/coin2.png","null","",NA,NA,NA,NA,""
"image-keyboard-response",230,295725,"0.0-3.73-0.73","wm2zd2cvp08rvd6",958,"141.csv","","723.9000000059605","resources/trios/L4T4A2.jpg","39","restless",0.2,0.6,0.4,0.0462704527575801,"true"
"image-keyboard-response",231,296129,"0.0-3.73-1.73","wm2zd2cvp08rvd6",958,"141.csv","","null","resources/maskTrios/BBA2.jpg","null","",NA,NA,NA,NA,""
"image-keyboard-response",232,297333,"0.0-3.73-2.73","wm2zd2cvp08rvd6",958,"141.csv","","null","resources/images/coin2.png","null","",NA,NA,NA,NA,""
"image-keyboard-response",233,298955,"0.0-3.74-0.74","wm2zd2cvp08rvd6",958,"141.csv","","1620","resources/trios/L1T2A2.jpg","39","restless",0.2,0.6,0.4,0.236827641549718,"true"
"image-keyboard-response",234,299362,"0.0-3.74-1.74","wm2zd2cvp08rvd6",958,"141.csv","","null","resources/maskTrios/BBA2.jpg","null","",NA,NA,NA,NA,""
"image-keyboard-response",235,300565,"0.0-3.74-2.74","wm2zd2cvp08rvd6",958,"141.csv","","null","resources/images/coin2.png","null","",NA,NA,NA,NA,""
"image-keyboard-response",236,301937,"0.0-3.75-0.75","wm2zd2cvp08rvd6",958,"141.csv","","1370.800000011921","resources/trios/L4T2A2.jpg","37","restless",0.2,0.6,0.5,0.570218106041273,"false"
"image-keyboard-response",237,302344,"0.0-3.75-1.75","wm2zd2cvp08rvd6",958,"141.csv","","null","resources/maskTrios/L4BB.jpg","null","",NA,NA,NA,NA,""
"image-keyboard-response",238,303550,"0.0-3.75-2.75","wm2zd2cvp08rvd6",958,"141.csv","","null","resources/images/fishbone.png","null","",NA,NA,NA,NA,""
"image-keyboard-response",239,304666,"0.0-3.76-0.76","wm2zd2cvp08rvd6",958,"141.csv","","1113.4000000059605","resources/trios/L4T2A1.jpg","38","restless",0.2,0.6,0.5,0.942780955433538,"false"
"image-keyboard-response",240,305072,"0.0-3.76-1.76","wm2zd2cvp08rvd6",958,"141.csv","","null","resources/maskTrios/BT2B.jpg","null","",NA,NA,NA,NA,""
"image-keyboard-response",241,306278,"0.0-3.76-2.76","wm2zd2cvp08rvd6",958,"141.csv","","null","resources/images/fishbone.png","null","",NA,NA,NA,NA,""
"image-keyboard-response",242,306707,"0.0-3.77-0.77","wm2zd2cvp08rvd6",958,"141.csv","","427.69999998807907","resources/trios/L1T2A1.jpg","38","restless",0.2,0.5,0.5,0.942932862575278,"false"
"image-keyboard-response",243,307113,"0.0-3.77-1.77","wm2zd2cvp08rvd6",958,"141.csv","","null","resources/maskTrios/BT2B.jpg","null","",NA,NA,NA,NA,""
"image-keyboard-response",244,308316,"0.0-3.77-2.77","wm2zd2cvp08rvd6",958,"141.csv","","null","resources/images/fishbone.png","null","",NA,NA,NA,NA,""
"image-keyboard-response",245,308846,"0.0-3.78-0.78","wm2zd2cvp08rvd6",958,"141.csv","","527.5","resources/trios/L1T4A2.jpg","38","restless",0.3,0.5,0.5,0.609955458026513,"false"
"image-keyboard-response",246,309252,"0.0-3.78-1.78","wm2zd2cvp08rvd6",958,"141.csv","","null","resources/maskTrios/BT4B.jpg","null","",NA,NA,NA,NA,""
"image-keyboard-response",247,310456,"0.0-3.78-2.78","wm2zd2cvp08rvd6",958,"141.csv","","null","resources/images/fishbone.png","null","",NA,NA,NA,NA,""
"image-keyboard-response",248,310882,"0.0-3.79-0.79","wm2zd2cvp08rvd6",958,"141.csv","","423.80000001192093","resources/trios/L4T4A2.jpg","39","restless",0.3,0.5,0.5,0.235262088420509,"true"
"image-keyboard-response",249,311288,"0.0-3.79-1.79","wm2zd2cvp08rvd6",958,"141.csv","","null","resources/maskTrios/BBA2.jpg","null","",NA,NA,NA,NA,""
"image-keyboard-response",250,312493,"0.0-3.79-2.79","wm2zd2cvp08rvd6",958,"141.csv","","null","resources/images/coin2.png","null","",NA,NA,NA,NA,""
"image-keyboard-response",251,313198,"0.0-3.80-0.80","wm2zd2cvp08rvd6",958,"141.csv","","702.5","resources/trios/L4T4A2.jpg","39","restless",0.4,0.5,0.5,0.276811555944209,"true"
"image-keyboard-response",252,313602,"0.0-3.80-1.80","wm2zd2cvp08rvd6",958,"141.csv","","null","resources/maskTrios/BBA2.jpg","null","",NA,NA,NA,NA,""
"image-keyboard-response",253,314808,"0.0-3.80-2.80","wm2zd2cvp08rvd6",958,"141.csv","","null","resources/images/coin2.png","null","",NA,NA,NA,NA,""
"image-keyboard-response",254,315390,"0.0-3.81-0.81","wm2zd2cvp08rvd6",958,"141.csv","","580","resources/trios/L4T2A1.jpg","39","restless",0.4,0.5,0.5,0.457791153378484,"true"
"image-keyboard-response",255,315797,"0.0-3.81-1.81","wm2zd2cvp08rvd6",958,"141.csv","","null","resources/maskTrios/BBA1.jpg","null","",NA,NA,NA,NA,""
"image-keyboard-response",256,317003,"0.0-3.81-2.81","wm2zd2cvp08rvd6",958,"141.csv","","null","resources/images/coin2.png","null","",NA,NA,NA,NA,""
"image-keyboard-response",257,317636,"0.0-3.82-0.82","wm2zd2cvp08rvd6",958,"141.csv","","630.8000000119209","resources/trios/L1T2A1.jpg","38","restless",0.4,0.5,0.6,0.274827010793345,"true"
"image-keyboard-response",258,318040,"0.0-3.82-1.82","wm2zd2cvp08rvd6",958,"141.csv","","null","resources/maskTrios/BT2B.jpg","null","",NA,NA,NA,NA,""
"image-keyboard-response",259,319247,"0.0-3.82-2.82","wm2zd2cvp08rvd6",958,"141.csv","","null","resources/images/coin2.png","null","",NA,NA,NA,NA,""
"image-keyboard-response",260,320480,"0.0-3.83-0.83","wm2zd2cvp08rvd6",958,"141.csv","","1232","resources/trios/L4T4A2.jpg","37","restless",0.3,0.5,0.6,0.0253909305924311,"true"
"image-keyboard-response",261,320887,"0.0-3.83-1.83","wm2zd2cvp08rvd6",958,"141.csv","","null","resources/maskTrios/L4BB.jpg","null","",NA,NA,NA,NA,""
"image-keyboard-response",262,322094,"0.0-3.83-2.83","wm2zd2cvp08rvd6",958,"141.csv","","null","resources/images/coin2.png","null","",NA,NA,NA,NA,""
"image-keyboard-response",263,323183,"0.0-3.84-0.84","wm2zd2cvp08rvd6",958,"141.csv","","1086.5999999940395","resources/trios/L4T2A1.jpg","39","restless",0.3,0.5,0.7,0.773942178058764,"false"
"image-keyboard-response",264,323590,"0.0-3.84-1.84","wm2zd2cvp08rvd6",958,"141.csv","","null","resources/maskTrios/BBA1.jpg","null","",NA,NA,NA,NA,""
"image-keyboard-response",265,324796,"0.0-3.84-2.84","wm2zd2cvp08rvd6",958,"141.csv","","null","resources/images/fishbone.png","null","",NA,NA,NA,NA,""
"image-keyboard-response",266,325620,"0.0-3.85-0.85","wm2zd2cvp08rvd6",958,"141.csv","","822.0999999940395","resources/trios/L4T2A1.jpg","39","restless",0.4,0.5,0.6,0.764515721975627,"false"
"image-keyboard-response",267,326026,"0.0-3.85-1.85","wm2zd2cvp08rvd6",958,"141.csv","","null","resources/maskTrios/BBA1.jpg","null","",NA,NA,NA,NA,""
"image-keyboard-response",268,327228,"0.0-3.85-2.85","wm2zd2cvp08rvd6",958,"141.csv","","null","resources/images/fishbone.png","null","",NA,NA,NA,NA,""
"image-keyboard-response",269,327847,"0.0-3.86-0.86","wm2zd2cvp08rvd6",958,"141.csv","","617.5999999940395","resources/trios/L1T4A2.jpg","38","restless",0.4,0.5,0.6,0.358761047020069,"true"
"image-keyboard-response",270,328254,"0.0-3.86-1.86","wm2zd2cvp08rvd6",958,"141.csv","","null","resources/maskTrios/BT4B.jpg","null","",NA,NA,NA,NA,""
"image-keyboard-response",271,329457,"0.0-3.86-2.86","wm2zd2cvp08rvd6",958,"141.csv","","null","resources/images/coin2.png","null","",NA,NA,NA,NA,""
"image-keyboard-response",272,330023,"0.0-3.87-0.87","wm2zd2cvp08rvd6",958,"141.csv","","562.9000000059605","resources/trios/L1T4A2.jpg","38","restless",0.4,0.5,0.6,0.217319151839852,"true"
"image-keyboard-response",273,330430,"0.0-3.87-1.87","wm2zd2cvp08rvd6",958,"141.csv","","null","resources/maskTrios/BT4B.jpg","null","",NA,NA,NA,NA,""
"image-keyboard-response",274,331637,"0.0-3.87-2.87","wm2zd2cvp08rvd6",958,"141.csv","","null","resources/images/coin2.png","null","",NA,NA,NA,NA,""
"image-keyboard-response",275,332187,"0.0-3.88-0.88","wm2zd2cvp08rvd6",958,"141.csv","","548.5","resources/trios/L4T4A1.jpg","38","restless",0.4,0.5,0.6,0.213770140053127,"true"
"image-keyboard-response",276,332594,"0.0-3.88-1.88","wm2zd2cvp08rvd6",958,"141.csv","","null","resources/maskTrios/BT4B.jpg","null","",NA,NA,NA,NA,""
"image-keyboard-response",277,333799,"0.0-3.88-2.88","wm2zd2cvp08rvd6",958,"141.csv","","null","resources/images/coin2.png","null","",NA,NA,NA,NA,""
"image-keyboard-response",278,334503,"0.0-3.89-0.89","wm2zd2cvp08rvd6",958,"141.csv","","701.5999999940395","resources/trios/L4T2A1.jpg","39","restless",0.4,0.5,0.6,0.0143703923083134,"true"
"image-keyboard-response",279,334910,"0.0-3.89-1.89","wm2zd2cvp08rvd6",958,"141.csv","","null","resources/maskTrios/BBA1.jpg","null","",NA,NA,NA,NA,""
"image-keyboard-response",280,336115,"0.0-3.89-2.89","wm2zd2cvp08rvd6",958,"141.csv","","null","resources/images/coin2.png","null","",NA,NA,NA,NA,""
"image-keyboard-response",281,336923,"0.0-3.90-0.90","wm2zd2cvp08rvd6",958,"141.csv","","805.5999999940395","resources/trios/L1T4A2.jpg","37","restless",0.3,0.5,0.6,0.403183008429705,"false"
"image-keyboard-response",282,337328,"0.0-3.90-1.90","wm2zd2cvp08rvd6",958,"141.csv","","null","resources/maskTrios/L1BB.jpg","null","",NA,NA,NA,NA,""
"image-keyboard-response",283,338533,"0.0-3.90-2.90","wm2zd2cvp08rvd6",958,"141.csv","","null","resources/images/fishbone.png","null","",NA,NA,NA,NA,""
"image-keyboard-response",284,339517,"0.0-3.91-0.91","wm2zd2cvp08rvd6",958,"141.csv","","982.6000000238419","resources/trios/L1T4A2.jpg","38","restless",0.3,0.5,0.6,0.136387710169837,"true"
"image-keyboard-response",285,339924,"0.0-3.91-1.91","wm2zd2cvp08rvd6",958,"141.csv","","null","resources/maskTrios/BT4B.jpg","null","",NA,NA,NA,NA,""
"image-keyboard-response",286,341130,"0.0-3.91-2.91","wm2zd2cvp08rvd6",958,"141.csv","","null","resources/images/coin2.png","null","",NA,NA,NA,NA,""
"image-keyboard-response",287,341569,"0.0-3.92-0.92","wm2zd2cvp08rvd6",958,"141.csv","","437.5","resources/trios/L1T4A1.jpg","38","restless",0.3,0.5,0.6,0.794233859518269,"false"
"image-keyboard-response",288,341972,"0.0-3.92-1.92","wm2zd2cvp08rvd6",958,"141.csv","","null","resources/maskTrios/BT4B.jpg","null","",NA,NA,NA,NA,""
"image-keyboard-response",289,343179,"0.0-3.92-2.92","wm2zd2cvp08rvd6",958,"141.csv","","null","resources/images/fishbone.png","null","",NA,NA,NA,NA,""
"image-keyboard-response",290,343792,"0.0-3.93-0.93","wm2zd2cvp08rvd6",958,"141.csv","","611.1999999880791","resources/trios/L4T2A1.jpg","38","restless",0.3,0.5,0.6,0.757138804305145,"false"
"image-keyboard-response",291,344196,"0.0-3.93-1.93","wm2zd2cvp08rvd6",958,"141.csv","","null","resources/maskTrios/BT2B.jpg","null","",NA,NA,NA,NA,""
"image-keyboard-response",292,345400,"0.0-3.93-2.93","wm2zd2cvp08rvd6",958,"141.csv","","null","resources/images/fishbone.png","null","",NA,NA,NA,NA,""
"image-keyboard-response",293,345773,"0.0-3.94-0.94","wm2zd2cvp08rvd6",958,"141.csv","","371.5","resources/trios/L4T4A1.jpg","38","restless",0.3,0.5,0.6,0.320969160699431,"true"
"image-keyboard-response",294,346180,"0.0-3.94-1.94","wm2zd2cvp08rvd6",958,"141.csv","","null","resources/maskTrios/BT4B.jpg","null","",NA,NA,NA,NA,""
"image-keyboard-response",295,347384,"0.0-3.94-2.94","wm2zd2cvp08rvd6",958,"141.csv","","null","resources/images/coin2.png","null","",NA,NA,NA,NA,""
"image-keyboard-response",296,347973,"0.0-3.95-0.95","wm2zd2cvp08rvd6",958,"141.csv","","586.9000000059605","resources/trios/L4T4A2.jpg","38","restless",0.3,0.5,0.6,0.597836496449833,"false"
"image-keyboard-response",297,348376,"0.0-3.95-1.95","wm2zd2cvp08rvd6",958,"141.csv","","null","resources/maskTrios/BT4B.jpg","null","",NA,NA,NA,NA,""
"image-keyboard-response",298,349583,"0.0-3.95-2.95","wm2zd2cvp08rvd6",958,"141.csv","","null","resources/images/fishbone.png","null","",NA,NA,NA,NA,""
"image-keyboard-response",299,350037,"0.0-3.96-0.96","wm2zd2cvp08rvd6",958,"141.csv","","451.90000000596046","resources/trios/L1T2A2.jpg","38","restless",0.3,0.5,0.6,0.515286936529396,"false"
"image-keyboard-response",300,350444,"0.0-3.96-1.96","wm2zd2cvp08rvd6",958,"141.csv","","null","resources/maskTrios/BT2B.jpg","null","",NA,NA,NA,NA,""
"image-keyboard-response",301,351647,"0.0-3.96-2.96","wm2zd2cvp08rvd6",958,"141.csv","","null","resources/images/fishbone.png","null","",NA,NA,NA,NA,""
"image-keyboard-response",302,351996,"0.0-3.97-0.97","wm2zd2cvp08rvd6",958,"141.csv","","346.09999999403954","resources/trios/L1T2A2.jpg","38","restless",0.3,0.5,0.6,0.0878935521050839,"true"
"image-keyboard-response",303,352399,"0.0-3.97-1.97","wm2zd2cvp08rvd6",958,"141.csv","","null","resources/maskTrios/BT2B.jpg","null","",NA,NA,NA,NA,""
"image-keyboard-response",304,353605,"0.0-3.97-2.97","wm2zd2cvp08rvd6",958,"141.csv","","null","resources/images/coin2.png","null","",NA,NA,NA,NA,""
"image-keyboard-response",305,353990,"0.0-3.98-0.98","wm2zd2cvp08rvd6",958,"141.csv","","382.40000000596046","resources/trios/L1T4A1.jpg","38","restless",0.4,0.5,0.6,0.241070668001991,"true"
"image-keyboard-response",306,354395,"0.0-3.98-1.98","wm2zd2cvp08rvd6",958,"141.csv","","null","resources/maskTrios/BT4B.jpg","null","",NA,NA,NA,NA,""
"image-keyboard-response",307,355604,"0.0-3.98-2.98","wm2zd2cvp08rvd6",958,"141.csv","","null","resources/images/coin2.png","null","",NA,NA,NA,NA,""
"image-keyboard-response",308,356092,"0.0-3.99-0.99","wm2zd2cvp08rvd6",958,"141.csv","","485.2999999821186","resources/trios/L1T2A2.jpg","38","restless",0.4,0.5,0.6,0.606113997394004,"false"
"image-keyboard-response",309,356499,"0.0-3.99-1.99","wm2zd2cvp08rvd6",958,"141.csv","","null","resources/maskTrios/BT2B.jpg","null","",NA,NA,NA,NA,""
"image-keyboard-response",310,357707,"0.0-3.99-2.99","wm2zd2cvp08rvd6",958,"141.csv","","null","resources/images/fishbone.png","null","",NA,NA,NA,NA,""
"image-keyboard-response",311,358254,"0.0-3.100-0.100","wm2zd2cvp08rvd6",958,"141.csv","","545.6000000238419","resources/trios/L1T2A1.jpg","39","restless",0.4,0.6,0.5,0.591645385896157,"false"
"image-keyboard-response",312,358659,"0.0-3.100-1.100","wm2zd2cvp08rvd6",958,"141.csv","","null","resources/maskTrios/BBA1.jpg","null","",NA,NA,NA,NA,""
"image-keyboard-response",313,359864,"0.0-3.100-2.100","wm2zd2cvp08rvd6",958,"141.csv","","null","resources/images/fishbone.png","null","",NA,NA,NA,NA,""
"image-keyboard-response",314,360326,"0.0-3.101-0.101","wm2zd2cvp08rvd6",958,"141.csv","","459.09999999403954","resources/trios/L1T4A1.jpg","38","restless",0.4,0.6,0.5,0.630532294906797,"false"
"image-keyboard-response",315,360731,"0.0-3.101-1.101","wm2zd2cvp08rvd6",958,"141.csv","","null","resources/maskTrios/BT4B.jpg","null","",NA,NA,NA,NA,""
"image-keyboard-response",316,361936,"0.0-3.101-2.101","wm2zd2cvp08rvd6",958,"141.csv","","null","resources/images/fishbone.png","null","",NA,NA,NA,NA,""
"image-keyboard-response",317,362422,"0.0-3.102-0.102","wm2zd2cvp08rvd6",958,"141.csv","","484","resources/trios/L1T4A2.jpg","38","restless",0.4,0.6,0.5,0.734782616263243,"false"
"image-keyboard-response",318,362825,"0.0-3.102-1.102","wm2zd2cvp08rvd6",958,"141.csv","","null","resources/maskTrios/BT4B.jpg","null","",NA,NA,NA,NA,""
"image-keyboard-response",319,364032,"0.0-3.102-2.102","wm2zd2cvp08rvd6",958,"141.csv","","null","resources/images/fishbone.png","null","",NA,NA,NA,NA,""
"image-keyboard-response",320,364501,"0.0-3.103-0.103","wm2zd2cvp08rvd6",958,"141.csv","","466.59999999403954","resources/trios/L4T2A1.jpg","38","restless",0.4,0.6,0.5,0.687341051127015,"false"
"image-keyboard-response",321,364906,"0.0-3.103-1.103","wm2zd2cvp08rvd6",958,"141.csv","","null","resources/maskTrios/BT2B.jpg","null","",NA,NA,NA,NA,""
"image-keyboard-response",322,366112,"0.0-3.103-2.103","wm2zd2cvp08rvd6",958,"141.csv","","null","resources/images/fishbone.png","null","",NA,NA,NA,NA,""
"image-keyboard-response",323,366533,"0.0-3.104-0.104","wm2zd2cvp08rvd6",958,"141.csv","","418.09999999403954","resources/trios/L1T2A2.jpg","39","restless",0.4,0.7,0.5,0.660882961799695,"false"
"image-keyboard-response",324,366940,"0.0-3.104-1.104","wm2zd2cvp08rvd6",958,"141.csv","","null","resources/maskTrios/BBA2.jpg","null","",NA,NA,NA,NA,""
"image-keyboard-response",325,368144,"0.0-3.104-2.104","wm2zd2cvp08rvd6",958,"141.csv","","null","resources/images/fishbone.png","null","",NA,NA,NA,NA,""
"image-keyboard-response",326,368656,"0.0-3.105-0.105","wm2zd2cvp08rvd6",958,"141.csv","","509.5","resources/trios/L4T2A1.jpg","38","restless",0.4,0.7,0.5,0.388359952161424,"true"
"image-keyboard-response",327,369060,"0.0-3.105-1.105","wm2zd2cvp08rvd6",958,"141.csv","","null","resources/maskTrios/BT2B.jpg","null","",NA,NA,NA,NA,""
"image-keyboard-response",328,370264,"0.0-3.105-2.105","wm2zd2cvp08rvd6",958,"141.csv","","null","resources/images/coin2.png","null","",NA,NA,NA,NA,""
"image-keyboard-response",329,370813,"0.0-3.106-0.106","wm2zd2cvp08rvd6",958,"141.csv","","547.5999999940395","resources/trios/L1T2A1.jpg","38","restless",0.4,0.7,0.5,0.0566146818946822,"true"
"image-keyboard-response",330,371219,"0.0-3.106-1.106","wm2zd2cvp08rvd6",958,"141.csv","","null","resources/maskTrios/BT2B.jpg","null","",NA,NA,NA,NA,""
"image-keyboard-response",331,372424,"0.0-3.106-2.106","wm2zd2cvp08rvd6",958,"141.csv","","null","resources/images/coin2.png","null","",NA,NA,NA,NA,""
"image-keyboard-response",332,375036,"0.0-3.107-0.107","wm2zd2cvp08rvd6",958,"141.csv","","2609.5","resources/trios/L1T4A1.jpg","39","restless",0.4,0.7,0.5,0.8947066702091,"false"
"image-keyboard-response",333,375439,"0.0-3.107-1.107","wm2zd2cvp08rvd6",958,"141.csv","","null","resources/maskTrios/BBA1.jpg","null","",NA,NA,NA,NA,""
"image-keyboard-response",334,376642,"0.0-3.107-2.107","wm2zd2cvp08rvd6",958,"141.csv","","null","resources/images/fishbone.png","null","",NA,NA,NA,NA,""
"image-keyboard-response",335,377874,"0.0-3.108-0.108","wm2zd2cvp08rvd6",958,"141.csv","","1229","resources/trios/L1T4A1.jpg","38","restless",0.4,0.7,0.5,0.318072888103606,"true"
"image-keyboard-response",336,378277,"0.0-3.108-1.108","wm2zd2cvp08rvd6",958,"141.csv","","null","resources/maskTrios/BT4B.jpg","null","",NA,NA,NA,NA,""
"image-keyboard-response",337,379484,"0.0-3.108-2.108","wm2zd2cvp08rvd6",958,"141.csv","","null","resources/images/coin2.png","null","",NA,NA,NA,NA,""
"image-keyboard-response",338,380094,"0.0-3.109-0.109","wm2zd2cvp08rvd6",958,"141.csv","","608","resources/trios/L1T2A2.jpg","38","restless",0.4,0.7,0.5,0.508895137898682,"true"
"image-keyboard-response",339,380499,"0.0-3.109-1.109","wm2zd2cvp08rvd6",958,"141.csv","","null","resources/maskTrios/BT2B.jpg","null","",NA,NA,NA,NA,""
"image-keyboard-response",340,381702,"0.0-3.109-2.109","wm2zd2cvp08rvd6",958,"141.csv","","null","resources/images/coin2.png","null","",NA,NA,NA,NA,""
"image-keyboard-response",341,382754,"0.0-3.110-0.110","wm2zd2cvp08rvd6",958,"141.csv","","1050.5999999940395","resources/trios/L1T4A2.jpg","38","restless",0.4,0.7,0.5,0.516952308964219,"true"
"image-keyboard-response",342,383159,"0.0-3.110-1.110","wm2zd2cvp08rvd6",958,"141.csv","","null","resources/maskTrios/BT4B.jpg","null","",NA,NA,NA,NA,""
"image-keyboard-response",343,384364,"0.0-3.110-2.110","wm2zd2cvp08rvd6",958,"141.csv","","null","resources/images/coin2.png","null","",NA,NA,NA,NA,""
"image-keyboard-response",344,384959,"0.0-3.111-0.111","wm2zd2cvp08rvd6",958,"141.csv","","592.5","resources/trios/L1T2A2.jpg","38","restless",0.5,0.7,0.5,0.390620105660727,"true"
"image-keyboard-response",345,385364,"0.0-3.111-1.111","wm2zd2cvp08rvd6",958,"141.csv","","null","resources/maskTrios/BT2B.jpg","null","",NA,NA,NA,NA,""
"image-keyboard-response",346,386571,"0.0-3.111-2.111","wm2zd2cvp08rvd6",958,"141.csv","","null","resources/images/coin2.png","null","",NA,NA,NA,NA,""
"image-keyboard-response",347,387053,"0.0-3.112-0.112","wm2zd2cvp08rvd6",958,"141.csv","","480.30000001192093","resources/trios/L1T2A2.jpg","38","restless",0.5,0.7,0.5,0.640308243456589,"true"
"image-keyboard-response",348,387456,"0.0-3.112-1.112","wm2zd2cvp08rvd6",958,"141.csv","","null","resources/maskTrios/BT2B.jpg","null","",NA,NA,NA,NA,""
"image-keyboard-response",349,388663,"0.0-3.112-2.112","wm2zd2cvp08rvd6",958,"141.csv","","null","resources/images/coin2.png","null","",NA,NA,NA,NA,""
"image-keyboard-response",350,389061,"0.0-3.113-0.113","wm2zd2cvp08rvd6",958,"141.csv","","395.80000001192093","resources/trios/L1T2A1.jpg","38","restless",0.5,0.7,0.5,0.208814470023716,"true"
"image-keyboard-response",351,389465,"0.0-3.113-1.113","wm2zd2cvp08rvd6",958,"141.csv","","null","resources/maskTrios/BT2B.jpg","null","",NA,NA,NA,NA,""
"image-keyboard-response",352,390670,"0.0-3.113-2.113","wm2zd2cvp08rvd6",958,"141.csv","","null","resources/images/coin2.png","null","",NA,NA,NA,NA,""
"image-keyboard-response",353,390980,"0.0-3.114-0.114","wm2zd2cvp08rvd6",958,"141.csv","","309.30000001192093","resources/trios/L1T4A2.jpg","38","restless",0.4,0.8,0.4,0.485553742352075,"true"
"image-keyboard-response",354,391385,"0.0-3.114-1.114","wm2zd2cvp08rvd6",958,"141.csv","","null","resources/maskTrios/BT4B.jpg","null","",NA,NA,NA,NA,""
"image-keyboard-response",355,392588,"0.0-3.114-2.114","wm2zd2cvp08rvd6",958,"141.csv","","null","resources/images/coin2.png","null","",NA,NA,NA,NA,""
"image-keyboard-response",356,392861,"0.0-3.115-0.115","wm2zd2cvp08rvd6",958,"141.csv","","271.2000000178814","resources/trios/L4T2A2.jpg","38","restless",0.4,0.9,0.4,0.567585275808812,"true"
"image-keyboard-response",357,393264,"0.0-3.115-1.115","wm2zd2cvp08rvd6",958,"141.csv","","null","resources/maskTrios/BT2B.jpg","null","",NA,NA,NA,NA,""
"image-keyboard-response",358,394471,"0.0-3.115-2.115","wm2zd2cvp08rvd6",958,"141.csv","","null","resources/images/coin2.png","null","",NA,NA,NA,NA,""
"image-keyboard-response",359,394841,"0.0-3.116-0.116","wm2zd2cvp08rvd6",958,"141.csv","","367.7000000178814","resources/trios/L1T2A2.jpg","38","restless",0.4,0.9,0.4,0.529281916301571,"true"
"image-keyboard-response",360,395244,"0.0-3.116-1.116","wm2zd2cvp08rvd6",958,"141.csv","","null","resources/maskTrios/BT2B.jpg","null","",NA,NA,NA,NA,""
"image-keyboard-response",361,396447,"0.0-3.116-2.116","wm2zd2cvp08rvd6",958,"141.csv","","null","resources/images/coin2.png","null","",NA,NA,NA,NA,""
"image-keyboard-response",362,396758,"0.0-3.117-0.117","wm2zd2cvp08rvd6",958,"141.csv","","308.69999998807907","resources/trios/L1T2A1.jpg","38","restless",0.4,0.9,0.4,0.207253756033423,"true"
"image-keyboard-response",363,397163,"0.0-3.117-1.117","wm2zd2cvp08rvd6",958,"141.csv","","null","resources/maskTrios/BT2B.jpg","null","",NA,NA,NA,NA,""
"image-keyboard-response",364,398369,"0.0-3.117-2.117","wm2zd2cvp08rvd6",958,"141.csv","","null","resources/images/coin2.png","null","",NA,NA,NA,NA,""
"image-keyboard-response",365,398737,"0.0-3.118-0.118","wm2zd2cvp08rvd6",958,"141.csv","","366.60000002384186","resources/trios/L4T4A2.jpg","38","restless",0.5,0.9,0.4,0.547710588178459,"true"
"image-keyboard-response",366,399141,"0.0-3.118-1.118","wm2zd2cvp08rvd6",958,"141.csv","","null","resources/maskTrios/BT4B.jpg","null","",NA,NA,NA,NA,""
"image-keyboard-response",367,400348,"0.0-3.118-2.118","wm2zd2cvp08rvd6",958,"141.csv","","null","resources/images/coin2.png","null","",NA,NA,NA,NA,""
"image-keyboard-response",368,400700,"0.0-3.119-0.119","wm2zd2cvp08rvd6",958,"141.csv","","349.5","resources/trios/L4T2A1.jpg","38","restless",0.5,0.9,0.4,0.101649070762013,"true"
"image-keyboard-response",369,401107,"0.0-3.119-1.119","wm2zd2cvp08rvd6",958,"141.csv","","null","resources/maskTrios/BT2B.jpg","null","",NA,NA,NA,NA,""
"image-keyboard-response",370,402314,"0.0-3.119-2.119","wm2zd2cvp08rvd6",958,"141.csv","","null","resources/images/coin2.png","null","",NA,NA,NA,NA,""
"image-keyboard-response",371,402622,"0.0-3.120-0.120","wm2zd2cvp08rvd6",958,"141.csv","","305.5","resources/trios/L1T4A2.jpg","38","restless",0.5,0.9,0.4,0.52671608818983,"true"
"image-keyboard-response",372,403026,"0.0-3.120-1.120","wm2zd2cvp08rvd6",958,"141.csv","","null","resources/maskTrios/BT4B.jpg","null","",NA,NA,NA,NA,""
"image-keyboard-response",373,404232,"0.0-3.120-2.120","wm2zd2cvp08rvd6",958,"141.csv","","null","resources/images/coin2.png","null","",NA,NA,NA,NA,""
"image-keyboard-response",374,404532,"0.0-3.121-0.121","wm2zd2cvp08rvd6",958,"141.csv","","298.2999999821186","resources/trios/L1T2A2.jpg","38","restless",0.5,0.9,0.4,0.188328470569493,"true"
"image-keyboard-response",375,404938,"0.0-3.121-1.121","wm2zd2cvp08rvd6",958,"141.csv","","null","resources/maskTrios/BT2B.jpg","null","",NA,NA,NA,NA,""
"image-keyboard-response",376,406160,"0.0-3.121-2.121","wm2zd2cvp08rvd6",958,"141.csv","","null","resources/images/coin2.png","null","",NA,NA,NA,NA,""
"image-keyboard-response",377,406226,"0.0-3.122-0.122","wm2zd2cvp08rvd6",958,"141.csv","","65.30000001192093","resources/trios/L1T4A2.jpg","38","restless",0.5,0.9,0.4,0.960408628336311,"false"
"image-keyboard-response",378,406632,"0.0-3.122-1.122","wm2zd2cvp08rvd6",958,"141.csv","","null","resources/maskTrios/BT4B.jpg","null","",NA,NA,NA,NA,""
"image-keyboard-response",379,407834,"0.0-3.122-2.122","wm2zd2cvp08rvd6",958,"141.csv","","null","resources/images/fishbone.png","null","",NA,NA,NA,NA,""
"image-keyboard-response",380,408568,"0.0-3.123-0.123","wm2zd2cvp08rvd6",958,"141.csv","","733","resources/trios/L4T2A1.jpg","38","restless",0.5,0.9,0.4,0.0335643613447403,"true"
"image-keyboard-response",381,408972,"0.0-3.123-1.123","wm2zd2cvp08rvd6",958,"141.csv","","null","resources/maskTrios/BT2B.jpg","null","",NA,NA,NA,NA,""
"image-keyboard-response",382,410179,"0.0-3.123-2.123","wm2zd2cvp08rvd6",958,"141.csv","","null","resources/images/coin2.png","null","",NA,NA,NA,NA,""
"image-keyboard-response",383,410213,"0.0-3.124-0.124","wm2zd2cvp08rvd6",958,"141.csv","","31.69999998807907","resources/trios/L4T4A2.jpg","38","restless",0.5,0.9,0.4,0.34555369666583,"true"
"image-keyboard-response",384,410620,"0.0-3.124-1.124","wm2zd2cvp08rvd6",958,"141.csv","","null","resources/maskTrios/BT4B.jpg","null","",NA,NA,NA,NA,""
"image-keyboard-response",385,411824,"0.0-3.124-2.124","wm2zd2cvp08rvd6",958,"141.csv","","null","resources/images/coin2.png","null","",NA,NA,NA,NA,""
"image-keyboard-response",386,412088,"0.0-3.125-0.125","wm2zd2cvp08rvd6",958,"141.csv","","262","resources/trios/L4T2A2.jpg","38","restless",0.5,0.9,0.4,0.0797564832511406,"true"
"image-keyboard-response",387,412495,"0.0-3.125-1.125","wm2zd2cvp08rvd6",958,"141.csv","","null","resources/maskTrios/BT2B.jpg","null","",NA,NA,NA,NA,""
"image-keyboard-response",388,413697,"0.0-3.125-2.125","wm2zd2cvp08rvd6",958,"141.csv","","null","resources/images/coin2.png","null","",NA,NA,NA,NA,""
"image-keyboard-response",389,413804,"0.0-3.126-0.126","wm2zd2cvp08rvd6",958,"141.csv","","104.2999999821186","resources/trios/L1T2A1.jpg","38","restless",0.5,0.9,0.4,0.595478741333482,"true"
"image-keyboard-response",390,414211,"0.0-3.126-1.126","wm2zd2cvp08rvd6",958,"141.csv","","null","resources/maskTrios/BT2B.jpg","null","",NA,NA,NA,NA,""
"image-keyboard-response",391,415419,"0.0-3.126-2.126","wm2zd2cvp08rvd6",958,"141.csv","","null","resources/images/coin2.png","null","",NA,NA,NA,NA,""
"image-keyboard-response",392,415544,"0.0-3.127-0.127","wm2zd2cvp08rvd6",958,"141.csv","","122.5","resources/trios/L1T2A1.jpg","38","restless",0.5,0.9,0.4,0.150004579862393,"true"
"image-keyboard-response",393,415947,"0.0-3.127-1.127","wm2zd2cvp08rvd6",958,"141.csv","","null","resources/maskTrios/BT2B.jpg","null","",NA,NA,NA,NA,""
"image-keyboard-response",394,417154,"0.0-3.127-2.127","wm2zd2cvp08rvd6",958,"141.csv","","null","resources/images/coin2.png","null","",NA,NA,NA,NA,""
"image-keyboard-response",395,417974,"0.0-3.128-0.128","wm2zd2cvp08rvd6",958,"141.csv","","818.5999999940395","resources/trios/L1T2A1.jpg","38","restless",0.5,0.9,0.5,0.550911964008733,"true"
"image-keyboard-response",396,418381,"0.0-3.128-1.128","wm2zd2cvp08rvd6",958,"141.csv","","null","resources/maskTrios/BT2B.jpg","null","",NA,NA,NA,NA,""
"image-keyboard-response",397,419585,"0.0-3.128-2.128","wm2zd2cvp08rvd6",958,"141.csv","","null","resources/images/coin2.png","null","",NA,NA,NA,NA,""
"image-keyboard-response",398,420252,"0.0-3.129-0.129","wm2zd2cvp08rvd6",958,"141.csv","","664.4000000059605","resources/trios/L1T2A1.jpg","38","restless",0.5,0.9,0.5,0.237124751852753,"true"
"image-keyboard-response",399,420656,"0.0-3.129-1.129","wm2zd2cvp08rvd6",958,"141.csv","","null","resources/maskTrios/BT2B.jpg","null","",NA,NA,NA,NA,""
"image-keyboard-response",400,421857,"0.0-3.129-2.129","wm2zd2cvp08rvd6",958,"141.csv","","null","resources/images/coin2.png","null","",NA,NA,NA,NA,""
"image-keyboard-response",401,422726,"0.0-3.130-0.130","wm2zd2cvp08rvd6",958,"141.csv","","867.3000000119209","resources/trios/L4T2A1.jpg","38","restless",0.5,0.8,0.5,0.559384354322355,"true"
"image-keyboard-response",402,423134,"0.0-3.130-1.130","wm2zd2cvp08rvd6",958,"141.csv","","null","resources/maskTrios/BT2B.jpg","null","",NA,NA,NA,NA,""
"image-keyboard-response",403,424337,"0.0-3.130-2.130","wm2zd2cvp08rvd6",958,"141.csv","","null","resources/images/coin2.png","null","",NA,NA,NA,NA,""
"image-keyboard-response",404,424697,"0.0-3.131-0.131","wm2zd2cvp08rvd6",958,"141.csv","","358","resources/trios/L4T2A2.jpg","38","restless",0.5,0.8,0.5,0.285388621284878,"true"
"image-keyboard-response",405,425105,"0.0-3.131-1.131","wm2zd2cvp08rvd6",958,"141.csv","","null","resources/maskTrios/BT2B.jpg","null","",NA,NA,NA,NA,""
"image-keyboard-response",406,426312,"0.0-3.131-2.131","wm2zd2cvp08rvd6",958,"141.csv","","null","resources/images/coin2.png","null","",NA,NA,NA,NA,""
"image-keyboard-response",407,426448,"0.0-3.132-0.132","wm2zd2cvp08rvd6",958,"141.csv","","133.80000001192093","resources/trios/L4T2A2.jpg","38","restless",0.5,0.8,0.5,0.945622828391832,"false"
"image-keyboard-response",408,426856,"0.0-3.132-1.132","wm2zd2cvp08rvd6",958,"141.csv","","null","resources/maskTrios/BT2B.jpg","null","",NA,NA,NA,NA,""
"image-keyboard-response",409,428060,"0.0-3.132-2.132","wm2zd2cvp08rvd6",958,"141.csv","","null","resources/images/fishbone.png","null","",NA,NA,NA,NA,""
"image-keyboard-response",410,428521,"0.0-3.133-0.133","wm2zd2cvp08rvd6",958,"141.csv","","459.19999998807907","resources/trios/L4T4A2.jpg","38","restless",0.5,0.8,0.5,0.840545049134244,"false"
"image-keyboard-response",411,428925,"0.0-3.133-1.133","wm2zd2cvp08rvd6",958,"141.csv","","null","resources/maskTrios/BT4B.jpg","null","",NA,NA,NA,NA,""
"image-keyboard-response",412,430127,"0.0-3.133-2.133","wm2zd2cvp08rvd6",958,"141.csv","","null","resources/images/fishbone.png","null","",NA,NA,NA,NA,""
"image-keyboard-response",413,430542,"0.0-3.134-0.134","wm2zd2cvp08rvd6",958,"141.csv","","413.2000000178814","resources/trios/L4T2A2.jpg","38","restless",0.5,0.8,0.5,0.861201120917027,"false"
"image-keyboard-response",414,430945,"0.0-3.134-1.134","wm2zd2cvp08rvd6",958,"141.csv","","null","resources/maskTrios/BT2B.jpg","null","",NA,NA,NA,NA,""
"image-keyboard-response",415,432152,"0.0-3.134-2.134","wm2zd2cvp08rvd6",958,"141.csv","","null","resources/images/fishbone.png","null","",NA,NA,NA,NA,""
"image-keyboard-response",416,432428,"0.0-3.135-0.135","wm2zd2cvp08rvd6",958,"141.csv","","274.2000000178814","resources/trios/L1T4A1.jpg","37","restless",0.5,0.8,0.5,0.737287167902219,"false"
"image-keyboard-response",417,432834,"0.0-3.135-1.135","wm2zd2cvp08rvd6",958,"141.csv","","null","resources/maskTrios/L1BB.jpg","null","",NA,NA,NA,NA,""
"image-keyboard-response",418,434036,"0.0-3.135-2.135","wm2zd2cvp08rvd6",958,"141.csv","","null","resources/images/fishbone.png","null","",NA,NA,NA,NA,""
"image-keyboard-response",419,434313,"0.0-3.136-0.136","wm2zd2cvp08rvd6",958,"141.csv","","274.90000000596046","resources/trios/L1T4A1.jpg","39","restless",0.5,0.8,0.5,0.432486372401819,"true"
"image-keyboard-response",420,434716,"0.0-3.136-1.136","wm2zd2cvp08rvd6",958,"141.csv","","null","resources/maskTrios/BBA1.jpg","null","",NA,NA,NA,NA,""
"image-keyboard-response",421,435929,"0.0-3.136-2.136","wm2zd2cvp08rvd6",958,"141.csv","","null","resources/images/coin2.png","null","",NA,NA,NA,NA,""
"image-keyboard-response",422,436351,"0.0-3.137-0.137","wm2zd2cvp08rvd6",958,"141.csv","","421.7000000178814","resources/trios/L4T2A1.jpg","39","restless",0.6,0.8,0.5,0.353363335166535,"true"
"image-keyboard-response",423,436756,"0.0-3.137-1.137","wm2zd2cvp08rvd6",958,"141.csv","","null","resources/maskTrios/BBA1.jpg","null","",NA,NA,NA,NA,""
"image-keyboard-response",424,437959,"0.0-3.137-2.137","wm2zd2cvp08rvd6",958,"141.csv","","null","resources/images/coin2.png","null","",NA,NA,NA,NA,""
"image-keyboard-response",425,438237,"0.0-3.138-0.138","wm2zd2cvp08rvd6",958,"141.csv","","275.09999999403954","resources/trios/L1T2A1.jpg","39","restless",0.6,0.8,0.5,0.619653572703949,"false"
"image-keyboard-response",426,438641,"0.0-3.138-1.138","wm2zd2cvp08rvd6",958,"141.csv","","null","resources/maskTrios/BBA1.jpg","null","",NA,NA,NA,NA,""
"image-keyboard-response",427,439848,"0.0-3.138-2.138","wm2zd2cvp08rvd6",958,"141.csv","","null","resources/images/fishbone.png","null","",NA,NA,NA,NA,""
"image-keyboard-response",428,440328,"0.0-3.139-0.139","wm2zd2cvp08rvd6",958,"141.csv","","477.7000000178814","resources/trios/L1T4A1.jpg","39","restless",0.6,0.8,0.5,0.896996507316341,"false"
"image-keyboard-response",429,440735,"0.0-3.139-1.139","wm2zd2cvp08rvd6",958,"141.csv","","null","resources/maskTrios/BBA1.jpg","null","",NA,NA,NA,NA,""
"image-keyboard-response",430,441939,"0.0-3.139-2.139","wm2zd2cvp08rvd6",958,"141.csv","","null","resources/images/fishbone.png","null","",NA,NA,NA,NA,""
"image-keyboard-response",431,442169,"0.0-3.140-0.140","wm2zd2cvp08rvd6",958,"141.csv","","228.09999999403954","resources/trios/L4T4A2.jpg","38","restless",0.6,0.8,0.6,0.45869485487781,"true"
"image-keyboard-response",432,442576,"0.0-3.140-1.140","wm2zd2cvp08rvd6",958,"141.csv","","null","resources/maskTrios/BT4B.jpg","null","",NA,NA,NA,NA,""
"image-keyboard-response",433,443779,"0.0-3.140-2.140","wm2zd2cvp08rvd6",958,"141.csv","","null","resources/images/coin2.png","null","",NA,NA,NA,NA,""
"image-keyboard-response",434,443997,"0.0-3.141-0.141","wm2zd2cvp08rvd6",958,"141.csv","","216.09999999403954","resources/trios/L4T2A1.jpg","38","restless",0.7,0.8,0.6,0.661918098095634,"true"
"image-keyboard-response",435,444405,"0.0-3.141-1.141","wm2zd2cvp08rvd6",958,"141.csv","","null","resources/maskTrios/BT2B.jpg","null","",NA,NA,NA,NA,""
"image-keyboard-response",436,445612,"0.0-3.141-2.141","wm2zd2cvp08rvd6",958,"141.csv","","null","resources/images/coin2.png","null","",NA,NA,NA,NA,""
"image-keyboard-response",437,454777,"0.0-3.142-0.142","wm2zd2cvp08rvd6",958,"141.csv","","9163.199999988079","resources/trios/L1T2A1.jpg","38","restless",0.7,0.8,0.6,0.111048760488665,"true"
"image-keyboard-response",438,455183,"0.0-3.142-1.142","wm2zd2cvp08rvd6",958,"141.csv","","null","resources/maskTrios/BT2B.jpg","null","",NA,NA,NA,NA,""
"image-keyboard-response",439,456385,"0.0-3.142-2.142","wm2zd2cvp08rvd6",958,"141.csv","","null","resources/images/coin2.png","null","",NA,NA,NA,NA,""
"image-keyboard-response",440,458119,"0.0-3.143-0.143","wm2zd2cvp08rvd6",958,"141.csv","","1732.300000011921","resources/trios/L4T2A1.jpg","38","restless",0.7,0.8,0.6,0.845618178345048,"false"
"image-keyboard-response",441,458527,"0.0-3.143-1.143","wm2zd2cvp08rvd6",958,"141.csv","","null","resources/maskTrios/BT2B.jpg","null","",NA,NA,NA,NA,""
"image-keyboard-response",442,459732,"0.0-3.143-2.143","wm2zd2cvp08rvd6",958,"141.csv","","null","resources/images/fishbone.png","null","",NA,NA,NA,NA,""
"image-keyboard-response",443,460632,"0.0-3.144-0.144","wm2zd2cvp08rvd6",958,"141.csv","","897.5","resources/trios/L1T2A2.jpg","38","restless",0.7,0.8,0.6,0.937205450097898,"false"
"image-keyboard-response",444,461038,"0.0-3.144-1.144","wm2zd2cvp08rvd6",958,"141.csv","","null","resources/maskTrios/BT2B.jpg","null","",NA,NA,NA,NA,""
"image-keyboard-response",445,462240,"0.0-3.144-2.144","wm2zd2cvp08rvd6",958,"141.csv","","null","resources/images/fishbone.png","null","",NA,NA,NA,NA,""
"image-keyboard-response",446,462931,"0.0-3.145-0.145","wm2zd2cvp08rvd6",958,"141.csv","","688.5","resources/trios/L4T2A2.jpg","38","restless",0.7,0.8,0.6,0.927951997388739,"false"
"image-keyboard-response",447,463338,"0.0-3.145-1.145","wm2zd2cvp08rvd6",958,"141.csv","","null","resources/maskTrios/BT2B.jpg","null","",NA,NA,NA,NA,""
"image-keyboard-response",448,464543,"0.0-3.145-2.145","wm2zd2cvp08rvd6",958,"141.csv","","null","resources/images/fishbone.png","null","",NA,NA,NA,NA,""
"image-keyboard-response",449,465048,"0.0-3.146-0.146","wm2zd2cvp08rvd6",958,"141.csv","","502.5","resources/trios/L4T2A1.jpg","38","restless",0.7,0.8,0.6,0.0308456785561542,"true"
"image-keyboard-response",450,465455,"0.0-3.146-1.146","wm2zd2cvp08rvd6",958,"141.csv","","null","resources/maskTrios/BT2B.jpg","null","",NA,NA,NA,NA,""
"image-keyboard-response",451,466657,"0.0-3.146-2.146","wm2zd2cvp08rvd6",958,"141.csv","","null","resources/images/coin2.png","null","",NA,NA,NA,NA,""
"image-keyboard-response",452,467127,"0.0-3.147-0.147","wm2zd2cvp08rvd6",958,"141.csv","","469.19999998807907","resources/trios/L1T2A1.jpg","38","restless",0.7,0.8,0.6,0.878460028512728,"false"
"image-keyboard-response",453,467533,"0.0-3.147-1.147","wm2zd2cvp08rvd6",958,"141.csv","","null","resources/maskTrios/BT2B.jpg","null","",NA,NA,NA,NA,""
"image-keyboard-response",454,468739,"0.0-3.147-2.147","wm2zd2cvp08rvd6",958,"141.csv","","null","resources/images/fishbone.png","null","",NA,NA,NA,NA,""
"image-keyboard-response",455,468878,"0.0-3.148-0.148","wm2zd2cvp08rvd6",958,"141.csv","","137","resources/trios/L4T4A1.jpg","38","restless",0.7,0.8,0.6,0.584389675699484,"true"
"image-keyboard-response",456,469284,"0.0-3.148-1.148","wm2zd2cvp08rvd6",958,"141.csv","","null","resources/maskTrios/BT4B.jpg","null","",NA,NA,NA,NA,""
"image-keyboard-response",457,470489,"0.0-3.148-2.148","wm2zd2cvp08rvd6",958,"141.csv","","null","resources/images/coin2.png","null","",NA,NA,NA,NA,""
"image-keyboard-response",458,470567,"0.0-3.149-0.149","wm2zd2cvp08rvd6",958,"141.csv","","75.89999997615814","resources/trios/L1T2A1.jpg","38","restless",0.7,0.8,0.6,0.5526405844841,"true"
"image-keyboard-response",459,470973,"0.0-3.149-1.149","wm2zd2cvp08rvd6",958,"141.csv","","null","resources/maskTrios/BT2B.jpg","null","",NA,NA,NA,NA,""
"image-keyboard-response",460,472176,"0.0-3.149-2.149","wm2zd2cvp08rvd6",958,"141.csv","","null","resources/images/coin2.png","null","",NA,NA,NA,NA,""
"image-keyboard-response",461,472386,"0.0-3.150-0.150","wm2zd2cvp08rvd6",958,"141.csv","","208.59999999403954","resources/trios/L4T4A1.jpg","38","restless",0.7,0.8,0.6,0.207362085792815,"true"
"image-keyboard-response",462,472793,"0.0-3.150-1.150","wm2zd2cvp08rvd6",958,"141.csv","","null","resources/maskTrios/BT4B.jpg","null","",NA,NA,NA,NA,""
"image-keyboard-response",463,473995,"0.0-3.150-2.150","wm2zd2cvp08rvd6",958,"141.csv","","null","resources/images/coin2.png","null","",NA,NA,NA,NA,""
"image-keyboard-response",464,474054,"0.0-3.151-0.151","wm2zd2cvp08rvd6",958,"141.csv","","56.39999997615814","resources/trios/L1T4A2.jpg","38","restless",0.7,0.8,0.6,0.701668948627695,"true"
"image-keyboard-response",465,474457,"0.0-3.151-1.151","wm2zd2cvp08rvd6",958,"141.csv","","null","resources/maskTrios/BT4B.jpg","null","",NA,NA,NA,NA,""
"image-keyboard-response",466,475661,"0.0-3.151-2.151","wm2zd2cvp08rvd6",958,"141.csv","","null","resources/images/coin2.png","null","",NA,NA,NA,NA,""
"image-keyboard-response",467,475814,"0.0-3.152-0.152","wm2zd2cvp08rvd6",958,"141.csv","","150.69999998807907","resources/trios/L1T2A2.jpg","38","restless",0.7,0.8,0.6,0.942213090165726,"false"
"image-keyboard-response",468,476219,"0.0-3.152-1.152","wm2zd2cvp08rvd6",958,"141.csv","","null","resources/maskTrios/BT2B.jpg","null","",NA,NA,NA,NA,""
"image-keyboard-response",469,477421,"0.0-3.152-2.152","wm2zd2cvp08rvd6",958,"141.csv","","null","resources/images/fishbone.png","null","",NA,NA,NA,NA,""
"image-keyboard-response",470,477636,"0.0-3.153-0.153","wm2zd2cvp08rvd6",958,"141.csv","","213.59999999403954","resources/trios/L4T4A1.jpg","38","restless",0.7,0.8,0.6,0.694288098371161,"true"
"image-keyboard-response",471,478042,"0.0-3.153-1.153","wm2zd2cvp08rvd6",958,"141.csv","","null","resources/maskTrios/BT4B.jpg","null","",NA,NA,NA,NA,""
"image-keyboard-response",472,479248,"0.0-3.153-2.153","wm2zd2cvp08rvd6",958,"141.csv","","null","resources/images/coin2.png","null","",NA,NA,NA,NA,""
"image-keyboard-response",473,479252,"0.0-3.154-0.154","wm2zd2cvp08rvd6",958,"141.csv","","1.5999999940395355","resources/trios/L4T2A1.jpg","38","restless",0.7,0.8,0.6,0.23088827125317,"true"
"image-keyboard-response",474,479655,"0.0-3.154-1.154","wm2zd2cvp08rvd6",958,"141.csv","","null","resources/maskTrios/BT2B.jpg","null","",NA,NA,NA,NA,""
"image-keyboard-response",475,480857,"0.0-3.154-2.154","wm2zd2cvp08rvd6",958,"141.csv","","null","resources/images/coin2.png","null","",NA,NA,NA,NA,""
"image-keyboard-response",476,481071,"0.0-3.155-0.155","wm2zd2cvp08rvd6",958,"141.csv","","212.19999998807907","resources/trios/L4T4A1.jpg","38","restless",0.7,0.8,0.6,0.587868734515002,"true"
"image-keyboard-response",477,481478,"0.0-3.155-1.155","wm2zd2cvp08rvd6",958,"141.csv","","null","resources/maskTrios/BT4B.jpg","null","",NA,NA,NA,NA,""
"image-keyboard-response",478,482682,"0.0-3.155-2.155","wm2zd2cvp08rvd6",958,"141.csv","","null","resources/images/coin2.png","null","",NA,NA,NA,NA,""
"image-keyboard-response",479,483277,"0.0-3.156-0.156","wm2zd2cvp08rvd6",958,"141.csv","","592.8000000119209","resources/trios/L1T4A2.jpg","38","restless",0.7,0.8,0.6,0.058432205713338,"true"
"image-keyboard-response",480,483682,"0.0-3.156-1.156","wm2zd2cvp08rvd6",958,"141.csv","","null","resources/maskTrios/BT4B.jpg","null","",NA,NA,NA,NA,""
"image-keyboard-response",481,484887,"0.0-3.156-2.156","wm2zd2cvp08rvd6",958,"141.csv","","null","resources/images/coin2.png","null","",NA,NA,NA,NA,""
"image-keyboard-response",482,484921,"0.0-3.157-0.157","wm2zd2cvp08rvd6",958,"141.csv","","32.400000005960464","resources/trios/L4T2A2.jpg","38","restless",0.8,0.8,0.5,0.979523945243131,"false"
"image-keyboard-response",483,485327,"0.0-3.157-1.157","wm2zd2cvp08rvd6",958,"141.csv","","null","resources/maskTrios/BT2B.jpg","null","",NA,NA,NA,NA,""
"image-keyboard-response",484,486534,"0.0-3.157-2.157","wm2zd2cvp08rvd6",958,"141.csv","","null","resources/images/fishbone.png","null","",NA,NA,NA,NA,""
"image-keyboard-response",485,486554,"0.0-3.158-0.158","wm2zd2cvp08rvd6",958,"141.csv","","18.400000005960464","resources/trios/L4T4A1.jpg","38","restless",0.8,0.8,0.5,0.237591407410213,"true"
"image-keyboard-response",486,486959,"0.0-3.158-1.158","wm2zd2cvp08rvd6",958,"141.csv","","null","resources/maskTrios/BT4B.jpg","null","",NA,NA,NA,NA,""
"image-keyboard-response",487,488167,"0.0-3.158-2.158","wm2zd2cvp08rvd6",958,"141.csv","","null","resources/images/coin2.png","null","",NA,NA,NA,NA,""
"image-keyboard-response",488,488562,"0.0-3.159-0.159","wm2zd2cvp08rvd6",958,"141.csv","","393.30000001192093","resources/trios/L4T4A1.jpg","38","restless",0.8,0.8,0.5,0.227985613437259,"true"
"image-keyboard-response",489,488970,"0.0-3.159-1.159","wm2zd2cvp08rvd6",958,"141.csv","","null","resources/maskTrios/BT4B.jpg","null","",NA,NA,NA,NA,""
"image-keyboard-response",490,490174,"0.0-3.159-2.159","wm2zd2cvp08rvd6",958,"141.csv","","null","resources/images/coin2.png","null","",NA,NA,NA,NA,""
"image-keyboard-response",491,490553,"0.0-3.160-0.160","wm2zd2cvp08rvd6",958,"141.csv","","376.69999998807907","resources/trios/L4T4A1.jpg","38","restless",0.8,0.8,0.5,0.924561407659638,"false"
"image-keyboard-response",492,490959,"0.0-3.160-1.160","wm2zd2cvp08rvd6",958,"141.csv","","null","resources/maskTrios/BT4B.jpg","null","",NA,NA,NA,NA,""
"image-keyboard-response",493,492165,"0.0-3.160-2.160","wm2zd2cvp08rvd6",958,"141.csv","","null","resources/images/fishbone.png","null","",NA,NA,NA,NA,""
"image-keyboard-response",494,492346,"0.0-3.161-0.161","wm2zd2cvp08rvd6",958,"141.csv","","179.40000000596046","resources/trios/L1T2A2.jpg","38","restless",0.8,0.8,0.6,0.667825493288694,"true"
"image-keyboard-response",495,492748,"0.0-3.161-1.161","wm2zd2cvp08rvd6",958,"141.csv","","null","resources/maskTrios/BT2B.jpg","null","",NA,NA,NA,NA,""
"image-keyboard-response",496,493950,"0.0-3.161-2.161","wm2zd2cvp08rvd6",958,"141.csv","","null","resources/images/coin2.png","null","",NA,NA,NA,NA,""
"image-keyboard-response",497,494292,"0.0-3.162-0.162","wm2zd2cvp08rvd6",958,"141.csv","","341.09999999403954","resources/trios/L4T4A1.jpg","38","restless",0.8,0.8,0.6,0.168300568869388,"true"
"image-keyboard-response",498,494700,"0.0-3.162-1.162","wm2zd2cvp08rvd6",958,"141.csv","","null","resources/maskTrios/BT4B.jpg","null","",NA,NA,NA,NA,""
"image-keyboard-response",499,495905,"0.0-3.162-2.162","wm2zd2cvp08rvd6",958,"141.csv","","null","resources/images/coin2.png","null","",NA,NA,NA,NA,""
"image-keyboard-response",500,496012,"0.0-3.163-0.163","wm2zd2cvp08rvd6",958,"141.csv","","105.2999999821186","resources/trios/L4T4A2.jpg","38","restless",0.7,0.8,0.6,0.894544967434914,"false"
"image-keyboard-response",501,496418,"0.0-3.163-1.163","wm2zd2cvp08rvd6",958,"141.csv","","null","resources/maskTrios/BT4B.jpg","null","",NA,NA,NA,NA,""
"image-keyboard-response",502,497621,"0.0-3.163-2.163","wm2zd2cvp08rvd6",958,"141.csv","","null","resources/images/fishbone.png","null","",NA,NA,NA,NA,""
"image-keyboard-response",503,498407,"0.0-3.164-0.164","wm2zd2cvp08rvd6",958,"141.csv","","784.5999999940395","resources/trios/L1T2A2.jpg","38","restless",0.7,0.8,0.6,0.381930059276995,"true"
"image-keyboard-response",504,498814,"0.0-3.164-1.164","wm2zd2cvp08rvd6",958,"141.csv","","null","resources/maskTrios/BT2B.jpg","null","",NA,NA,NA,NA,""
"image-keyboard-response",505,500019,"0.0-3.164-2.164","wm2zd2cvp08rvd6",958,"141.csv","","null","resources/images/coin2.png","null","",NA,NA,NA,NA,""
"image-keyboard-response",506,500867,"0.0-3.165-0.165","wm2zd2cvp08rvd6",958,"141.csv","","844.9000000059605","resources/trios/L1T4A2.jpg","38","restless",0.7,0.8,0.6,0.741002861630566,"true"
"image-keyboard-response",507,501271,"0.0-3.165-1.165","wm2zd2cvp08rvd6",958,"141.csv","","null","resources/maskTrios/BT4B.jpg","null","",NA,NA,NA,NA,""
"image-keyboard-response",508,502477,"0.0-3.165-2.165","wm2zd2cvp08rvd6",958,"141.csv","","null","resources/images/coin2.png","null","",NA,NA,NA,NA,""
"image-keyboard-response",509,502568,"0.0-3.166-0.166","wm2zd2cvp08rvd6",958,"141.csv","","89","resources/trios/L1T2A1.jpg","38","restless",0.7,0.7,0.6,0.345618588050173,"true"
"image-keyboard-response",510,502971,"0.0-3.166-1.166","wm2zd2cvp08rvd6",958,"141.csv","","null","resources/maskTrios/BT2B.jpg","null","",NA,NA,NA,NA,""
"image-keyboard-response",511,504178,"0.0-3.166-2.166","wm2zd2cvp08rvd6",958,"141.csv","","null","resources/images/coin2.png","null","",NA,NA,NA,NA,""
"image-keyboard-response",512,510336,"0.0-3.167-0.167","wm2zd2cvp08rvd6",958,"141.csv","","6155.799999982119","resources/trios/L4T2A1.jpg","38","restless",0.7,0.7,0.6,0.175135357416393,"true"
"image-keyboard-response",513,510738,"0.0-3.167-1.167","wm2zd2cvp08rvd6",958,"141.csv","","null","resources/maskTrios/BT2B.jpg","null","",NA,NA,NA,NA,""
"image-keyboard-response",514,511940,"0.0-3.167-2.167","wm2zd2cvp08rvd6",958,"141.csv","","null","resources/images/coin2.png","null","",NA,NA,NA,NA,""
"image-keyboard-response",515,512735,"0.0-3.168-0.168","wm2zd2cvp08rvd6",958,"141.csv","","792.0999999940395","resources/trios/L1T2A1.jpg","38","restless",0.7,0.7,0.6,0.354272287822536,"true"
"image-keyboard-response",516,513141,"0.0-3.168-1.168","wm2zd2cvp08rvd6",958,"141.csv","","null","resources/maskTrios/BT2B.jpg","null","",NA,NA,NA,NA,""
"image-keyboard-response",517,514348,"0.0-3.168-2.168","wm2zd2cvp08rvd6",958,"141.csv","","null","resources/images/coin2.png","null","",NA,NA,NA,NA,""
"image-keyboard-response",518,514841,"0.0-3.169-0.169","wm2zd2cvp08rvd6",958,"141.csv","","491.19999998807907","resources/trios/L1T4A1.jpg","38","restless",0.7,0.7,0.6,0.344224498962498,"true"
"image-keyboard-response",519,515248,"0.0-3.169-1.169","wm2zd2cvp08rvd6",958,"141.csv","","null","resources/maskTrios/BT4B.jpg","null","",NA,NA,NA,NA,""
"image-keyboard-response",520,516453,"0.0-3.169-2.169","wm2zd2cvp08rvd6",958,"141.csv","","null","resources/images/coin2.png","null","",NA,NA,NA,NA,""
"image-keyboard-response",521,516861,"0.0-3.170-0.170","wm2zd2cvp08rvd6",958,"141.csv","","406","resources/trios/L4T4A1.jpg","38","restless",0.6,0.7,0.5,0.556381968800082,"true"
"image-keyboard-response",522,517269,"0.0-3.170-1.170","wm2zd2cvp08rvd6",958,"141.csv","","null","resources/maskTrios/BT4B.jpg","null","",NA,NA,NA,NA,""
"image-keyboard-response",523,518473,"0.0-3.170-2.170","wm2zd2cvp08rvd6",958,"141.csv","","null","resources/images/coin2.png","null","",NA,NA,NA,NA,""
"image-keyboard-response",524,518675,"0.0-3.171-0.171","wm2zd2cvp08rvd6",958,"141.csv","","200.69999998807907","resources/trios/L1T4A2.jpg","38","restless",0.6,0.7,0.5,0.50999859710241,"true"
"image-keyboard-response",525,519081,"0.0-3.171-1.171","wm2zd2cvp08rvd6",958,"141.csv","","null","resources/maskTrios/BT4B.jpg","null","",NA,NA,NA,NA,""
"image-keyboard-response",526,520287,"0.0-3.171-2.171","wm2zd2cvp08rvd6",958,"141.csv","","null","resources/images/coin2.png","null","",NA,NA,NA,NA,""
"image-keyboard-response",527,520687,"0.0-3.172-0.172","wm2zd2cvp08rvd6",958,"141.csv","","397.59999999403954","resources/trios/L4T4A1.jpg","38","restless",0.6,0.7,0.5,0.375278837366819,"true"
"image-keyboard-response",528,521091,"0.0-3.172-1.172","wm2zd2cvp08rvd6",958,"141.csv","","null","resources/maskTrios/BT4B.jpg","null","",NA,NA,NA,NA,""
"image-keyboard-response",529,522296,"0.0-3.172-2.172","wm2zd2cvp08rvd6",958,"141.csv","","null","resources/images/coin2.png","null","",NA,NA,NA,NA,""
"image-keyboard-response",530,522599,"0.0-3.173-0.173","wm2zd2cvp08rvd6",958,"141.csv","","300.40000000596046","resources/trios/L4T4A1.jpg","38","restless",0.6,0.7,0.5,0.590802920464755,"true"
"image-keyboard-response",531,523007,"0.0-3.173-1.173","wm2zd2cvp08rvd6",958,"141.csv","","null","resources/maskTrios/BT4B.jpg","null","",NA,NA,NA,NA,""
"image-keyboard-response",532,524218,"0.0-3.173-2.173","wm2zd2cvp08rvd6",958,"141.csv","","null","resources/images/coin2.png","null","",NA,NA,NA,NA,""
"image-keyboard-response",533,524458,"0.0-3.174-0.174","wm2zd2cvp08rvd6",958,"141.csv","","237.80000001192093","resources/trios/L1T4A2.jpg","38","restless",0.6,0.7,0.5,0.0427025302035289,"true"
"image-keyboard-response",534,524864,"0.0-3.174-1.174","wm2zd2cvp08rvd6",958,"141.csv","","null","resources/maskTrios/BT4B.jpg","null","",NA,NA,NA,NA,""
"image-keyboard-response",535,526091,"0.0-3.174-2.174","wm2zd2cvp08rvd6",958,"141.csv","","null","resources/images/coin2.png","null","",NA,NA,NA,NA,""
"image-keyboard-response",536,526288,"0.0-3.175-0.175","wm2zd2cvp08rvd6",958,"141.csv","","196.7000000178814","resources/trios/L1T2A2.jpg","38","restless",0.6,0.7,0.5,0.0768294367107052,"true"
"image-keyboard-response",537,526690,"0.0-3.175-1.175","wm2zd2cvp08rvd6",958,"141.csv","","null","resources/maskTrios/BT2B.jpg","null","",NA,NA,NA,NA,""
"image-keyboard-response",538,527895,"0.0-3.175-2.175","wm2zd2cvp08rvd6",958,"141.csv","","null","resources/images/coin2.png","null","",NA,NA,NA,NA,""
"image-keyboard-response",539,528515,"0.0-3.176-0.176","wm2zd2cvp08rvd6",958,"141.csv","","617.5999999940395","resources/trios/L4T4A2.jpg","38","restless",0.6,0.7,0.5,0.79962576871488,"false"
"image-keyboard-response",540,528918,"0.0-3.176-1.176","wm2zd2cvp08rvd6",958,"141.csv","","null","resources/maskTrios/BT4B.jpg","null","",NA,NA,NA,NA,""
"image-keyboard-response",541,530121,"0.0-3.176-2.176","wm2zd2cvp08rvd6",958,"141.csv","","null","resources/images/fishbone.png","null","",NA,NA,NA,NA,""
"image-keyboard-response",542,530740,"0.0-3.177-0.177","wm2zd2cvp08rvd6",958,"141.csv","","616.5999999940395","resources/trios/L1T4A1.jpg","38","restless",0.6,0.7,0.6,0.40884528174112,"true"
"image-keyboard-response",543,531146,"0.0-3.177-1.177","wm2zd2cvp08rvd6",958,"141.csv","","null","resources/maskTrios/BT4B.jpg","null","",NA,NA,NA,NA,""
"image-keyboard-response",544,532352,"0.0-3.177-2.177","wm2zd2cvp08rvd6",958,"141.csv","","null","resources/images/coin2.png","null","",NA,NA,NA,NA,""
"image-keyboard-response",545,532367,"0.0-3.178-0.178","wm2zd2cvp08rvd6",958,"141.csv","","12.700000017881393","resources/trios/L1T4A1.jpg","38","restless",0.7,0.7,0.6,0.278073593903597,"true"
"image-keyboard-response",546,532772,"0.0-3.178-1.178","wm2zd2cvp08rvd6",958,"141.csv","","null","resources/maskTrios/BT4B.jpg","null","",NA,NA,NA,NA,""
"image-keyboard-response",547,533975,"0.0-3.178-2.178","wm2zd2cvp08rvd6",958,"141.csv","","null","resources/images/coin2.png","null","",NA,NA,NA,NA,""
"image-keyboard-response",548,534384,"0.0-3.179-0.179","wm2zd2cvp08rvd6",958,"141.csv","","407","resources/trios/L1T4A1.jpg","38","restless",0.7,0.7,0.6,0.0114616369189224,"true"
"image-keyboard-response",549,534790,"0.0-3.179-1.179","wm2zd2cvp08rvd6",958,"141.csv","","null","resources/maskTrios/BT4B.jpg","null","",NA,NA,NA,NA,""
"image-keyboard-response",550,535995,"0.0-3.179-2.179","wm2zd2cvp08rvd6",958,"141.csv","","null","resources/images/coin2.png","null","",NA,NA,NA,NA,""
"image-keyboard-response",551,536209,"0.0-3.180-0.180","wm2zd2cvp08rvd6",958,"141.csv","","211.7000000178814","resources/trios/L1T4A2.jpg","38","restless",0.7,0.7,0.6,0.237495886154579,"true"
"image-keyboard-response",552,536616,"0.0-3.180-1.180","wm2zd2cvp08rvd6",958,"141.csv","","null","resources/maskTrios/BT4B.jpg","null","",NA,NA,NA,NA,""
"image-keyboard-response",553,537822,"0.0-3.180-2.180","wm2zd2cvp08rvd6",958,"141.csv","","null","resources/images/coin2.png","null","",NA,NA,NA,NA,""
"image-keyboard-response",554,539173,"0.0-3.181-0.181","wm2zd2cvp08rvd6",958,"141.csv","","1350.5","resources/trios/L1T2A2.jpg","38","restless",0.7,0.6,0.6,0.711648053674708,"false"
"image-keyboard-response",555,539576,"0.0-3.181-1.181","wm2zd2cvp08rvd6",958,"141.csv","","null","resources/maskTrios/BT2B.jpg","null","",NA,NA,NA,NA,""
"image-keyboard-response",556,540779,"0.0-3.181-2.181","wm2zd2cvp08rvd6",958,"141.csv","","null","resources/images/fishbone.png","null","",NA,NA,NA,NA,""
"image-keyboard-response",557,544528,"0.0-3.182-0.182","wm2zd2cvp08rvd6",958,"141.csv","","3746.300000011921","resources/trios/L4T2A1.jpg","38","restless",0.7,0.6,0.6,0.140832928043441,"true"
"image-keyboard-response",558,544930,"0.0-3.182-1.182","wm2zd2cvp08rvd6",958,"141.csv","","null","resources/maskTrios/BT2B.jpg","null","",NA,NA,NA,NA,""
"image-keyboard-response",559,546137,"0.0-3.182-2.182","wm2zd2cvp08rvd6",958,"141.csv","","null","resources/images/coin2.png","null","",NA,NA,NA,NA,""
"image-keyboard-response",560,548295,"0.0-3.183-0.183","wm2zd2cvp08rvd6",958,"141.csv","","2155.5999999940395","resources/trios/L1T2A2.jpg","38","restless",0.7,0.6,0.6,0.813668841174923,"false"
"image-keyboard-response",561,548698,"0.0-3.183-1.183","wm2zd2cvp08rvd6",958,"141.csv","","null","resources/maskTrios/BT2B.jpg","null","",NA,NA,NA,NA,""
"image-keyboard-response",562,549904,"0.0-3.183-2.183","wm2zd2cvp08rvd6",958,"141.csv","","null","resources/images/fishbone.png","null","",NA,NA,NA,NA,""
"image-keyboard-response",563,550217,"0.0-3.184-0.184","wm2zd2cvp08rvd6",958,"141.csv","","311.30000001192093","resources/trios/L1T4A1.jpg","38","restless",0.7,0.6,0.6,0.00514242006016818,"true"
"image-keyboard-response",564,550625,"0.0-3.184-1.184","wm2zd2cvp08rvd6",958,"141.csv","","null","resources/maskTrios/BT4B.jpg","null","",NA,NA,NA,NA,""
"image-keyboard-response",565,551830,"0.0-3.184-2.184","wm2zd2cvp08rvd6",958,"141.csv","","null","resources/images/coin2.png","null","",NA,NA,NA,NA,""
"image-keyboard-response",566,551897,"0.0-3.185-0.185","wm2zd2cvp08rvd6",958,"141.csv","","64.5","resources/trios/L1T4A1.jpg","38","restless",0.8,0.6,0.7,0.787260014988665,"false"
"image-keyboard-response",567,552301,"0.0-3.185-1.185","wm2zd2cvp08rvd6",958,"141.csv","","null","resources/maskTrios/BT4B.jpg","null","",NA,NA,NA,NA,""
"image-keyboard-response",568,553508,"0.0-3.185-2.185","wm2zd2cvp08rvd6",958,"141.csv","","null","resources/images/fishbone.png","null","",NA,NA,NA,NA,""
"image-keyboard-response",569,553668,"0.0-3.186-0.186","wm2zd2cvp08rvd6",958,"141.csv","","158.30000001192093","resources/trios/L1T2A1.jpg","39","restless",0.8,0.6,0.7,0.0103838405245047,"true"
"image-keyboard-response",570,554073,"0.0-3.186-1.186","wm2zd2cvp08rvd6",958,"141.csv","","null","resources/maskTrios/BBA1.jpg","null","",NA,NA,NA,NA,""
"image-keyboard-response",571,555276,"0.0-3.186-2.186","wm2zd2cvp08rvd6",958,"141.csv","","null","resources/images/coin2.png","null","",NA,NA,NA,NA,""
"image-keyboard-response",572,555516,"0.0-3.187-0.187","wm2zd2cvp08rvd6",958,"141.csv","","237.5","resources/trios/L4T2A1.jpg","39","restless",0.8,0.6,0.8,0.00819094787271957,"true"
"image-keyboard-response",573,555928,"0.0-3.187-1.187","wm2zd2cvp08rvd6",958,"141.csv","","null","resources/maskTrios/BBA1.jpg","null","",NA,NA,NA,NA,""
"image-keyboard-response",574,557132,"0.0-3.187-2.187","wm2zd2cvp08rvd6",958,"141.csv","","null","resources/images/coin2.png","null","",NA,NA,NA,NA,""
"image-keyboard-response",575,557478,"0.0-3.188-0.188","wm2zd2cvp08rvd6",958,"141.csv","","344.5","resources/trios/L1T2A2.jpg","39","restless",0.8,0.6,0.8,0.755370240126014,"true"
"image-keyboard-response",576,557885,"0.0-3.188-1.188","wm2zd2cvp08rvd6",958,"141.csv","","null","resources/maskTrios/BBA2.jpg","null","",NA,NA,NA,NA,""
"image-keyboard-response",577,559089,"0.0-3.188-2.188","wm2zd2cvp08rvd6",958,"141.csv","","null","resources/images/coin2.png","null","",NA,NA,NA,NA,""
"image-keyboard-response",578,559664,"0.0-3.189-0.189","wm2zd2cvp08rvd6",958,"141.csv","","572.9000000059605","resources/trios/L4T4A2.jpg","39","restless",0.8,0.6,0.7,0.147417089775132,"true"
"image-keyboard-response",579,560071,"0.0-3.189-1.189","wm2zd2cvp08rvd6",958,"141.csv","","null","resources/maskTrios/BBA2.jpg","null","",NA,NA,NA,NA,""
"image-keyboard-response",580,561278,"0.0-3.189-2.189","wm2zd2cvp08rvd6",958,"141.csv","","null","resources/images/coin2.png","null","",NA,NA,NA,NA,""
"image-keyboard-response",581,563190,"0.0-3.190-0.190","wm2zd2cvp08rvd6",958,"141.csv","","1907.5","resources/trios/L1T2A1.jpg","39","restless",0.8,0.6,0.7,0.0542869681846772,"true"
"image-keyboard-response",582,563595,"0.0-3.190-1.190","wm2zd2cvp08rvd6",958,"141.csv","","null","resources/maskTrios/BBA1.jpg","null","",NA,NA,NA,NA,""
"image-keyboard-response",583,564802,"0.0-3.190-2.190","wm2zd2cvp08rvd6",958,"141.csv","","null","resources/images/coin2.png","null","",NA,NA,NA,NA,""
"image-keyboard-response",584,565443,"0.0-3.191-0.191","wm2zd2cvp08rvd6",958,"141.csv","","638.9000000059605","resources/trios/L4T4A2.jpg","39","restless",0.9,0.6,0.7,0.811496986424803,"false"
"image-keyboard-response",585,565848,"0.0-3.191-1.191","wm2zd2cvp08rvd6",958,"141.csv","","null","resources/maskTrios/BBA2.jpg","null","",NA,NA,NA,NA,""
"image-keyboard-response",586,567055,"0.0-3.191-2.191","wm2zd2cvp08rvd6",958,"141.csv","","null","resources/images/fishbone.png","null","",NA,NA,NA,NA,""
"image-keyboard-response",587,567394,"0.0-3.192-0.192","wm2zd2cvp08rvd6",958,"141.csv","","335.59999999403954","resources/trios/L4T2A1.jpg","39","restless",0.9,0.5,0.7,0.0151156779476043,"true"
"image-keyboard-response",588,567801,"0.0-3.192-1.192","wm2zd2cvp08rvd6",958,"141.csv","","null","resources/maskTrios/BBA1.jpg","null","",NA,NA,NA,NA,""
"image-keyboard-response",589,569003,"0.0-3.192-2.192","wm2zd2cvp08rvd6",958,"141.csv","","null","resources/images/coin2.png","null","",NA,NA,NA,NA,""
"image-keyboard-response",590,570146,"0.0-3.193-0.193","wm2zd2cvp08rvd6",958,"141.csv","","1140.4000000059605","resources/trios/L1T4A1.jpg","39","restless",0.9,0.5,0.7,0.18949441187805,"true"
"image-keyboard-response",591,570550,"0.0-3.193-1.193","wm2zd2cvp08rvd6",958,"141.csv","","null","resources/maskTrios/BBA1.jpg","null","",NA,NA,NA,NA,""
"image-keyboard-response",592,571756,"0.0-3.193-2.193","wm2zd2cvp08rvd6",958,"141.csv","","null","resources/images/coin2.png","null","",NA,NA,NA,NA,""
"image-keyboard-response",593,574740,"0.0-3.194-0.194","wm2zd2cvp08rvd6",958,"141.csv","","2982.199999988079","resources/trios/L1T4A2.jpg","39","restless",0.9,0.5,0.7,0.262478373107047,"true"
"image-keyboard-response",594,575147,"0.0-3.194-1.194","wm2zd2cvp08rvd6",958,"141.csv","","null","resources/maskTrios/BBA2.jpg","null","",NA,NA,NA,NA,""
"image-keyboard-response",595,576354,"0.0-3.194-2.194","wm2zd2cvp08rvd6",958,"141.csv","","null","resources/images/coin2.png","null","",NA,NA,NA,NA,""
"image-keyboard-response",596,576741,"0.0-3.195-0.195","wm2zd2cvp08rvd6",958,"141.csv","","384.09999999403954","resources/trios/L1T4A2.jpg","39","restless",0.9,0.5,0.6,0.785411454346576,"false"
"image-keyboard-response",597,577148,"0.0-3.195-1.195","wm2zd2cvp08rvd6",958,"141.csv","","null","resources/maskTrios/BBA2.jpg","null","",NA,NA,NA,NA,""
"image-keyboard-response",598,578355,"0.0-3.195-2.195","wm2zd2cvp08rvd6",958,"141.csv","","null","resources/images/fishbone.png","null","",NA,NA,NA,NA,""
"image-keyboard-response",599,579711,"0.0-3.196-0.196","wm2zd2cvp08rvd6",958,"141.csv","","1355.0999999940395","resources/trios/L4T2A2.jpg","39","restless",0.9,0.5,0.6,0.846828882885828,"false"
"image-keyboard-response",600,580116,"0.0-3.196-1.196","wm2zd2cvp08rvd6",958,"141.csv","","null","resources/maskTrios/BBA2.jpg","null","",NA,NA,NA,NA,""
"image-keyboard-response",601,581323,"0.0-3.196-2.196","wm2zd2cvp08rvd6",958,"141.csv","","null","resources/images/fishbone.png","null","",NA,NA,NA,NA,""
"image-keyboard-response",602,581815,"0.0-3.197-0.197","wm2zd2cvp08rvd6",958,"141.csv","","489.7000000178814","resources/trios/L4T4A2.jpg","38","restless",0.9,0.5,0.5,0.882535453492868,"false"
"image-keyboard-response",603,582223,"0.0-3.197-1.197","wm2zd2cvp08rvd6",958,"141.csv","","null","resources/maskTrios/BT4B.jpg","null","",NA,NA,NA,NA,""
"image-keyboard-response",604,583429,"0.0-3.197-2.197","wm2zd2cvp08rvd6",958,"141.csv","","null","resources/images/fishbone.png","null","",NA,NA,NA,NA,""
"image-keyboard-response",605,583645,"0.0-3.198-0.198","wm2zd2cvp08rvd6",958,"141.csv","","214.80000001192093","resources/trios/L1T2A1.jpg","39","restless",0.9,0.4,0.5,0.364760222221634,"true"
"image-keyboard-response",606,584048,"0.0-3.198-1.198","wm2zd2cvp08rvd6",958,"141.csv","","null","resources/maskTrios/BBA1.jpg","null","",NA,NA,NA,NA,""
