"trial_type","trial_index","time_elapsed","internal_node_id","subject","participantCode","walkNumber","success","rt","stimulus","key_press","test_part","leftProb","midProb","rightProb","generatedNum","correct"
"pavlovia",0,1136,"0.0-0.0","k6ogbxgazwux52s",304,"169.csv","","","","","",NA,NA,NA,NA,""
"fullscreen",1,8844,"0.0-1.0","k6ogbxgazwux52s",304,"169.csv","true","","","","",NA,NA,NA,NA,""
"html-keyboard-response",2,56450,"0.0-2.0-0.0","k6ogbxgazwux52s",304,"169.csv","","47603","<p><font size='6'>Arrrgh!</p></font><p>Can you be the best pirate? Try to find lots of gold! But beware, some islands have more gold than others, and over time, the island with the most gold may change. Can YOU figure it out? </p><font size='6'>GOOD LUCK, CAPTAIN!!!</font><p>Press any key to begin</p>","32","",NA,NA,NA,NA,""
"image-keyboard-response",3,59453,"0.0-2.0-1.0","k6ogbxgazwux52s",304,"169.csv","","null","resources/image_sets/111.png","null","",NA,NA,NA,NA,""
"image-keyboard-response",4,84471,"0.0-2.0-2.0","k6ogbxgazwux52s",304,"169.csv","","25017","resources/image_sets/left_highlight.png","37","",NA,NA,NA,NA,""
"image-keyboard-response",5,94528,"0.0-2.0-3.0","k6ogbxgazwux52s",304,"169.csv","","10056","resources/image_sets/mid_highlight.png","38","",NA,NA,NA,NA,""
"image-keyboard-response",6,97288,"0.0-2.0-4.0","k6ogbxgazwux52s",304,"169.csv","","2759","resources/image_sets/right_highlight.png","39","",NA,NA,NA,NA,""
"image-keyboard-response",7,101305,"0.0-2.0-5.0","k6ogbxgazwux52s",304,"169.csv","","4016","resources/image_sets/111.png","13","",NA,NA,NA,NA,""
"image-keyboard-response",8,109145,"0.0-2.0-6.0","k6ogbxgazwux52s",304,"169.csv","","7839","resources/images/coin2.png","13","",NA,NA,NA,NA,""
"image-keyboard-response",9,113306,"0.0-2.0-7.0","k6ogbxgazwux52s",304,"169.csv","","4160","resources/images/fishbone.png","13","",NA,NA,NA,NA,""
"html-keyboard-response",10,168659,"0.0-2.0-8.0","k6ogbxgazwux52s",304,"169.csv","","55352.00000000003","<p>Your first journey will be a long one, but you will get a well deserved break at the end</p><p>After the break you will have four more journeys, but each will be much shorter than the first, and you will have breaks in between each</p><p>Press Enter to begin</p>","13","",NA,NA,NA,NA,""
"image-keyboard-response",11,180410,"0.0-3.0-0.0","k6ogbxgazwux52s",304,"169.csv","","11749","resources/trios/L2T2A2.jpg","38","restless",0.9,0.7,0.3,0.983869944740041,"false"
"image-keyboard-response",12,180814,"0.0-3.0-1.0","k6ogbxgazwux52s",304,"169.csv","","null","resources/maskTrios/BT2B.jpg","null","",NA,NA,NA,NA,""
"image-keyboard-response",13,182017,"0.0-3.0-2.0","k6ogbxgazwux52s",304,"169.csv","","null","resources/images/fishbone.png","null","",NA,NA,NA,NA,""
"image-keyboard-response",14,182644,"0.0-3.1-0.1","k6ogbxgazwux52s",304,"169.csv","","624","resources/trios/L2T2A2.jpg","37","restless",0.9,0.7,0.3,0.369416980433871,"true"
"image-keyboard-response",15,183046,"0.0-3.1-1.1","k6ogbxgazwux52s",304,"169.csv","","null","resources/maskTrios/L2BB.jpg","null","",NA,NA,NA,NA,""
"image-keyboard-response",16,184249,"0.0-3.1-2.1","k6ogbxgazwux52s",304,"169.csv","","null","resources/images/coin2.png","null","",NA,NA,NA,NA,""
"image-keyboard-response",17,185823,"0.0-3.2-0.2","k6ogbxgazwux52s",304,"169.csv","","1572","resources/trios/L1T2A3.jpg","39","restless",0.9,0.7,0.3,0.326962801472515,"false"
"image-keyboard-response",18,186225,"0.0-3.2-1.2","k6ogbxgazwux52s",304,"169.csv","","null","resources/maskTrios/BBA3.jpg","null","",NA,NA,NA,NA,""
"image-keyboard-response",19,187427,"0.0-3.2-2.2","k6ogbxgazwux52s",304,"169.csv","","null","resources/images/fishbone.png","null","",NA,NA,NA,NA,""
"image-keyboard-response",20,188133,"0.0-3.3-0.3","k6ogbxgazwux52s",304,"169.csv","","705","resources/trios/L2T2A2.jpg","38","restless",0.9,0.7,0.3,0.573819991944494,"true"
"image-keyboard-response",21,188536,"0.0-3.3-1.3","k6ogbxgazwux52s",304,"169.csv","","null","resources/maskTrios/BT2B.jpg","null","",NA,NA,NA,NA,""
"image-keyboard-response",22,189738,"0.0-3.3-2.3","k6ogbxgazwux52s",304,"169.csv","","null","resources/images/coin2.png","null","",NA,NA,NA,NA,""
"image-keyboard-response",23,190850,"0.0-3.4-0.4","k6ogbxgazwux52s",304,"169.csv","","1110.000000000029","resources/trios/L2T1A2.jpg","39","restless",0.9,0.7,0.3,0.27070495650771,"true"
"image-keyboard-response",24,191252,"0.0-3.4-1.4","k6ogbxgazwux52s",304,"169.csv","","null","resources/maskTrios/BBA2.jpg","null","",NA,NA,NA,NA,""
"image-keyboard-response",25,192455,"0.0-3.4-2.4","k6ogbxgazwux52s",304,"169.csv","","null","resources/images/coin2.png","null","",NA,NA,NA,NA,""
"image-keyboard-response",26,194922,"0.0-3.5-0.5","k6ogbxgazwux52s",304,"169.csv","","2464.999999999971","resources/trios/L2T1A3.jpg","38","restless",0.9,0.8,0.3,0.367574938200182,"true"
"image-keyboard-response",27,195325,"0.0-3.5-1.5","k6ogbxgazwux52s",304,"169.csv","","null","resources/maskTrios/BT1B.jpg","null","",NA,NA,NA,NA,""
"image-keyboard-response",28,196527,"0.0-3.5-2.5","k6ogbxgazwux52s",304,"169.csv","","null","resources/images/coin2.png","null","",NA,NA,NA,NA,""
"image-keyboard-response",29,197105,"0.0-3.6-0.6","k6ogbxgazwux52s",304,"169.csv","","576","resources/trios/L1T2A2.jpg","37","restless",0.9,0.8,0.3,0.767042381307347,"true"
"image-keyboard-response",30,197507,"0.0-3.6-1.6","k6ogbxgazwux52s",304,"169.csv","","null","resources/maskTrios/L1BB.jpg","null","",NA,NA,NA,NA,""
"image-keyboard-response",31,198710,"0.0-3.6-2.6","k6ogbxgazwux52s",304,"169.csv","","null","resources/images/coin2.png","null","",NA,NA,NA,NA,""
"image-keyboard-response",32,200715,"0.0-3.7-0.7","k6ogbxgazwux52s",304,"169.csv","","2003","resources/trios/L2T1A2.jpg","39","restless",0.9,0.8,0.3,0.53513693187745,"false"
"image-keyboard-response",33,201117,"0.0-3.7-1.7","k6ogbxgazwux52s",304,"169.csv","","null","resources/maskTrios/BBA2.jpg","null","",NA,NA,NA,NA,""
"image-keyboard-response",34,202320,"0.0-3.7-2.7","k6ogbxgazwux52s",304,"169.csv","","null","resources/images/fishbone.png","null","",NA,NA,NA,NA,""
"image-keyboard-response",35,202644,"0.0-3.8-0.8","k6ogbxgazwux52s",304,"169.csv","","323","resources/trios/L2T1A3.jpg","38","restless",0.9,0.8,0.3,0.15199937764612,"true"
"image-keyboard-response",36,203047,"0.0-3.8-1.8","k6ogbxgazwux52s",304,"169.csv","","null","resources/maskTrios/BT1B.jpg","null","",NA,NA,NA,NA,""
"image-keyboard-response",37,204250,"0.0-3.8-2.8","k6ogbxgazwux52s",304,"169.csv","","null","resources/images/coin2.png","null","",NA,NA,NA,NA,""
"image-keyboard-response",38,204754,"0.0-3.9-0.9","k6ogbxgazwux52s",304,"169.csv","","503","resources/trios/L2T1A3.jpg","39","restless",0.8,0.8,0.3,0.854937596991773,"false"
"image-keyboard-response",39,205157,"0.0-3.9-1.9","k6ogbxgazwux52s",304,"169.csv","","null","resources/maskTrios/BBA3.jpg","null","",NA,NA,NA,NA,""
"image-keyboard-response",40,206359,"0.0-3.9-2.9","k6ogbxgazwux52s",304,"169.csv","","null","resources/images/fishbone.png","null","",NA,NA,NA,NA,""
"image-keyboard-response",41,206793,"0.0-3.10-0.10","k6ogbxgazwux52s",304,"169.csv","","432","resources/trios/L2T1A3.jpg","37","restless",0.8,0.8,0.3,0.193546884552856,"true"
"image-keyboard-response",42,207195,"0.0-3.10-1.10","k6ogbxgazwux52s",304,"169.csv","","null","resources/maskTrios/L2BB.jpg","null","",NA,NA,NA,NA,""
"image-keyboard-response",43,208397,"0.0-3.10-2.10","k6ogbxgazwux52s",304,"169.csv","","null","resources/images/coin2.png","null","",NA,NA,NA,NA,""
"image-keyboard-response",44,215430,"0.0-3.11-0.11","k6ogbxgazwux52s",304,"169.csv","","7032","resources/trios/L2T2A2.jpg","38","restless",0.8,0.8,0.3,0.370546687895684,"true"
"image-keyboard-response",45,215833,"0.0-3.11-1.11","k6ogbxgazwux52s",304,"169.csv","","null","resources/maskTrios/BT2B.jpg","null","",NA,NA,NA,NA,""
"image-keyboard-response",46,217035,"0.0-3.11-2.11","k6ogbxgazwux52s",304,"169.csv","","null","resources/images/coin2.png","null","",NA,NA,NA,NA,""
"image-keyboard-response",47,217533,"0.0-3.12-0.12","k6ogbxgazwux52s",304,"169.csv","","496","resources/trios/L1T1A3.jpg","39","restless",0.8,0.8,0.3,0.883650368300935,"false"
"image-keyboard-response",48,217935,"0.0-3.12-1.12","k6ogbxgazwux52s",304,"169.csv","","null","resources/maskTrios/BBA3.jpg","null","",NA,NA,NA,NA,""
"image-keyboard-response",49,219138,"0.0-3.12-2.12","k6ogbxgazwux52s",304,"169.csv","","null","resources/images/fishbone.png","null","",NA,NA,NA,NA,""
"image-keyboard-response",50,220739,"0.0-3.13-0.13","k6ogbxgazwux52s",304,"169.csv","","1601","resources/trios/L2T2A2.jpg","37","restless",0.8,0.8,0.2,0.431476073840001,"true"
"image-keyboard-response",51,221141,"0.0-3.13-1.13","k6ogbxgazwux52s",304,"169.csv","","null","resources/maskTrios/L2BB.jpg","null","",NA,NA,NA,NA,""
"image-keyboard-response",52,222343,"0.0-3.13-2.13","k6ogbxgazwux52s",304,"169.csv","","null","resources/images/coin2.png","null","",NA,NA,NA,NA,""
"image-keyboard-response",53,222843,"0.0-3.14-0.14","k6ogbxgazwux52s",304,"169.csv","","500","resources/trios/L2T2A3.jpg","38","restless",0.8,0.8,0.2,0.702622477710206,"true"
"image-keyboard-response",54,223245,"0.0-3.14-1.14","k6ogbxgazwux52s",304,"169.csv","","null","resources/maskTrios/BT2B.jpg","null","",NA,NA,NA,NA,""
"image-keyboard-response",55,224446,"0.0-3.14-2.14","k6ogbxgazwux52s",304,"169.csv","","null","resources/images/coin2.png","null","",NA,NA,NA,NA,""
"image-keyboard-response",56,225311,"0.0-3.15-0.15","k6ogbxgazwux52s",304,"169.csv","","864.9999999999709","resources/trios/L1T1A3.jpg","37","restless",0.8,0.8,0.2,0.522946703758081,"true"
"image-keyboard-response",57,225713,"0.0-3.15-1.15","k6ogbxgazwux52s",304,"169.csv","","null","resources/maskTrios/L1BB.jpg","null","",NA,NA,NA,NA,""
"image-keyboard-response",58,226913,"0.0-3.15-2.15","k6ogbxgazwux52s",304,"169.csv","","null","resources/images/coin2.png","null","",NA,NA,NA,NA,""
"image-keyboard-response",59,227390,"0.0-3.16-0.16","k6ogbxgazwux52s",304,"169.csv","","476.9999999999709","resources/trios/L2T1A3.jpg","38","restless",0.8,0.8,0.2,0.231650767365152,"true"
"image-keyboard-response",60,227793,"0.0-3.16-1.16","k6ogbxgazwux52s",304,"169.csv","","null","resources/maskTrios/BT1B.jpg","null","",NA,NA,NA,NA,""
"image-keyboard-response",61,228994,"0.0-3.16-2.16","k6ogbxgazwux52s",304,"169.csv","","null","resources/images/coin2.png","null","",NA,NA,NA,NA,""
"image-keyboard-response",62,229482,"0.0-3.17-0.17","k6ogbxgazwux52s",304,"169.csv","","486.9999999999709","resources/trios/L2T1A2.jpg","37","restless",0.8,0.8,0.2,0.240340919648536,"true"
"image-keyboard-response",63,229884,"0.0-3.17-1.17","k6ogbxgazwux52s",304,"169.csv","","null","resources/maskTrios/L2BB.jpg","null","",NA,NA,NA,NA,""
"image-keyboard-response",64,231085,"0.0-3.17-2.17","k6ogbxgazwux52s",304,"169.csv","","null","resources/images/coin2.png","null","",NA,NA,NA,NA,""
"image-keyboard-response",65,231490,"0.0-3.18-0.18","k6ogbxgazwux52s",304,"169.csv","","404","resources/trios/L2T2A3.jpg","38","restless",0.8,0.8,0.2,0.586161329019253,"true"
"image-keyboard-response",66,231892,"0.0-3.18-1.18","k6ogbxgazwux52s",304,"169.csv","","null","resources/maskTrios/BT2B.jpg","null","",NA,NA,NA,NA,""
"image-keyboard-response",67,233094,"0.0-3.18-2.18","k6ogbxgazwux52s",304,"169.csv","","null","resources/images/coin2.png","null","",NA,NA,NA,NA,""
"image-keyboard-response",68,233726,"0.0-3.19-0.19","k6ogbxgazwux52s",304,"169.csv","","632","resources/trios/L2T1A3.jpg","37","restless",0.8,0.7,0.2,0.887889974599474,"false"
"image-keyboard-response",69,234127,"0.0-3.19-1.19","k6ogbxgazwux52s",304,"169.csv","","null","resources/maskTrios/L2BB.jpg","null","",NA,NA,NA,NA,""
"image-keyboard-response",70,235329,"0.0-3.19-2.19","k6ogbxgazwux52s",304,"169.csv","","null","resources/images/fishbone.png","null","",NA,NA,NA,NA,""
"image-keyboard-response",71,235788,"0.0-3.20-0.20","k6ogbxgazwux52s",304,"169.csv","","458","resources/trios/L2T1A3.jpg","39","restless",0.8,0.7,0.2,0.643813944834709,"false"
"image-keyboard-response",72,236190,"0.0-3.20-1.20","k6ogbxgazwux52s",304,"169.csv","","null","resources/maskTrios/BBA3.jpg","null","",NA,NA,NA,NA,""
"image-keyboard-response",73,237391,"0.0-3.20-2.20","k6ogbxgazwux52s",304,"169.csv","","null","resources/images/fishbone.png","null","",NA,NA,NA,NA,""
"image-keyboard-response",74,237744,"0.0-3.21-0.21","k6ogbxgazwux52s",304,"169.csv","","352","resources/trios/L2T2A2.jpg","38","restless",0.8,0.7,0.2,0.00427142503863698,"true"
"image-keyboard-response",75,238147,"0.0-3.21-1.21","k6ogbxgazwux52s",304,"169.csv","","null","resources/maskTrios/BT2B.jpg","null","",NA,NA,NA,NA,""
"image-keyboard-response",76,239348,"0.0-3.21-2.21","k6ogbxgazwux52s",304,"169.csv","","null","resources/images/coin2.png","null","",NA,NA,NA,NA,""
"image-keyboard-response",77,239910,"0.0-3.22-0.22","k6ogbxgazwux52s",304,"169.csv","","562","resources/trios/L1T1A3.jpg","39","restless",0.8,0.7,0.2,0.948372547013933,"false"
"image-keyboard-response",78,240312,"0.0-3.22-1.22","k6ogbxgazwux52s",304,"169.csv","","null","resources/maskTrios/BBA3.jpg","null","",NA,NA,NA,NA,""
"image-keyboard-response",79,241514,"0.0-3.22-2.22","k6ogbxgazwux52s",304,"169.csv","","null","resources/images/fishbone.png","null","",NA,NA,NA,NA,""
"image-keyboard-response",80,242115,"0.0-3.23-0.23","k6ogbxgazwux52s",304,"169.csv","","599.9999999999709","resources/trios/L1T1A2.jpg","38","restless",0.8,0.8,0.2,0.938974322047345,"false"
"image-keyboard-response",81,242518,"0.0-3.23-1.23","k6ogbxgazwux52s",304,"169.csv","","null","resources/maskTrios/BT1B.jpg","null","",NA,NA,NA,NA,""
"image-keyboard-response",82,243720,"0.0-3.23-2.23","k6ogbxgazwux52s",304,"169.csv","","null","resources/images/fishbone.png","null","",NA,NA,NA,NA,""
"image-keyboard-response",83,244091,"0.0-3.24-0.24","k6ogbxgazwux52s",304,"169.csv","","370","resources/trios/L1T1A3.jpg","37","restless",0.8,0.9,0.2,0.143746542955509,"true"
"image-keyboard-response",84,244493,"0.0-3.24-1.24","k6ogbxgazwux52s",304,"169.csv","","null","resources/maskTrios/L1BB.jpg","null","",NA,NA,NA,NA,""
"image-keyboard-response",85,245695,"0.0-3.24-2.24","k6ogbxgazwux52s",304,"169.csv","","null","resources/images/coin2.png","null","",NA,NA,NA,NA,""
"image-keyboard-response",86,247171,"0.0-3.25-0.25","k6ogbxgazwux52s",304,"169.csv","","1475","resources/trios/L2T1A3.jpg","38","restless",0.7,0.9,0.2,0.944855046317666,"false"
"image-keyboard-response",87,247573,"0.0-3.25-1.25","k6ogbxgazwux52s",304,"169.csv","","null","resources/maskTrios/BT1B.jpg","null","",NA,NA,NA,NA,""
"image-keyboard-response",88,248775,"0.0-3.25-2.25","k6ogbxgazwux52s",304,"169.csv","","null","resources/images/fishbone.png","null","",NA,NA,NA,NA,""
"image-keyboard-response",89,249088,"0.0-3.26-0.26","k6ogbxgazwux52s",304,"169.csv","","312","resources/trios/L1T1A2.jpg","37","restless",0.7,0.9,0.2,0.550746954597325,"true"
"image-keyboard-response",90,249490,"0.0-3.26-1.26","k6ogbxgazwux52s",304,"169.csv","","null","resources/maskTrios/L1BB.jpg","null","",NA,NA,NA,NA,""
"image-keyboard-response",91,250692,"0.0-3.26-2.26","k6ogbxgazwux52s",304,"169.csv","","null","resources/images/coin2.png","null","",NA,NA,NA,NA,""
"image-keyboard-response",92,251266,"0.0-3.27-0.27","k6ogbxgazwux52s",304,"169.csv","","573","resources/trios/L2T2A2.jpg","37","restless",0.7,0.8,0.2,0.524713777802056,"true"
"image-keyboard-response",93,251668,"0.0-3.27-1.27","k6ogbxgazwux52s",304,"169.csv","","null","resources/maskTrios/L2BB.jpg","null","",NA,NA,NA,NA,""
"image-keyboard-response",94,252871,"0.0-3.27-2.27","k6ogbxgazwux52s",304,"169.csv","","null","resources/images/coin2.png","null","",NA,NA,NA,NA,""
"image-keyboard-response",95,254881,"0.0-3.28-0.28","k6ogbxgazwux52s",304,"169.csv","","2009.000000000029","resources/trios/L1T1A3.jpg","37","restless",0.7,0.7,0.3,0.884720294839791,"false"
"image-keyboard-response",96,255283,"0.0-3.28-1.28","k6ogbxgazwux52s",304,"169.csv","","null","resources/maskTrios/L1BB.jpg","null","",NA,NA,NA,NA,""
"image-keyboard-response",97,256485,"0.0-3.28-2.28","k6ogbxgazwux52s",304,"169.csv","","null","resources/images/fishbone.png","null","",NA,NA,NA,NA,""
"image-keyboard-response",98,256981,"0.0-3.29-0.29","k6ogbxgazwux52s",304,"169.csv","","495","resources/trios/L1T1A2.jpg","38","restless",0.6,0.7,0.3,0.153186494719365,"true"
"image-keyboard-response",99,257383,"0.0-3.29-1.29","k6ogbxgazwux52s",304,"169.csv","","null","resources/maskTrios/BT1B.jpg","null","",NA,NA,NA,NA,""
"image-keyboard-response",100,258585,"0.0-3.29-2.29","k6ogbxgazwux52s",304,"169.csv","","null","resources/images/coin2.png","null","",NA,NA,NA,NA,""
"image-keyboard-response",101,259034,"0.0-3.30-0.30","k6ogbxgazwux52s",304,"169.csv","","447.9999999999709","resources/trios/L2T2A2.jpg","38","restless",0.7,0.6,0.3,0.192128380951255,"true"
"image-keyboard-response",102,259436,"0.0-3.30-1.30","k6ogbxgazwux52s",304,"169.csv","","null","resources/maskTrios/BT2B.jpg","null","",NA,NA,NA,NA,""
"image-keyboard-response",103,260642,"0.0-3.30-2.30","k6ogbxgazwux52s",304,"169.csv","","null","resources/images/coin2.png","null","",NA,NA,NA,NA,""
"image-keyboard-response",104,261077,"0.0-3.31-0.31","k6ogbxgazwux52s",304,"169.csv","","431","resources/trios/L1T1A3.jpg","38","restless",0.7,0.6,0.3,0.0406635535837652,"true"
"image-keyboard-response",105,261480,"0.0-3.31-1.31","k6ogbxgazwux52s",304,"169.csv","","null","resources/maskTrios/BT1B.jpg","null","",NA,NA,NA,NA,""
"image-keyboard-response",106,262682,"0.0-3.31-2.31","k6ogbxgazwux52s",304,"169.csv","","null","resources/images/coin2.png","null","",NA,NA,NA,NA,""
"image-keyboard-response",107,263042,"0.0-3.32-0.32","k6ogbxgazwux52s",304,"169.csv","","358","resources/trios/L2T1A2.jpg","38","restless",0.7,0.5,0.3,0.298188269292934,"true"
"image-keyboard-response",108,263445,"0.0-3.32-1.32","k6ogbxgazwux52s",304,"169.csv","","null","resources/maskTrios/BT1B.jpg","null","",NA,NA,NA,NA,""
"image-keyboard-response",109,264647,"0.0-3.32-2.32","k6ogbxgazwux52s",304,"169.csv","","null","resources/images/coin2.png","null","",NA,NA,NA,NA,""
"image-keyboard-response",110,265104,"0.0-3.33-0.33","k6ogbxgazwux52s",304,"169.csv","","456","resources/trios/L2T2A2.jpg","39","restless",0.7,0.5,0.3,0.902540394905296,"false"
"image-keyboard-response",111,265506,"0.0-3.33-1.33","k6ogbxgazwux52s",304,"169.csv","","null","resources/maskTrios/BBA2.jpg","null","",NA,NA,NA,NA,""
"image-keyboard-response",112,266708,"0.0-3.33-2.33","k6ogbxgazwux52s",304,"169.csv","","null","resources/images/fishbone.png","null","",NA,NA,NA,NA,""
"image-keyboard-response",113,267001,"0.0-3.34-0.34","k6ogbxgazwux52s",304,"169.csv","","290.9999999999418","resources/trios/L2T1A2.jpg","38","restless",0.7,0.4,0.4,0.816261582342966,"false"
"image-keyboard-response",114,267403,"0.0-3.34-1.34","k6ogbxgazwux52s",304,"169.csv","","null","resources/maskTrios/BT1B.jpg","null","",NA,NA,NA,NA,""
"image-keyboard-response",115,268606,"0.0-3.34-2.34","k6ogbxgazwux52s",304,"169.csv","","null","resources/images/fishbone.png","null","",NA,NA,NA,NA,""
"image-keyboard-response",116,268906,"0.0-3.35-0.35","k6ogbxgazwux52s",304,"169.csv","","298","resources/trios/L1T1A2.jpg","37","restless",0.7,0.4,0.4,0.256549305131029,"true"
"image-keyboard-response",117,269309,"0.0-3.35-1.35","k6ogbxgazwux52s",304,"169.csv","","null","resources/maskTrios/L1BB.jpg","null","",NA,NA,NA,NA,""
"image-keyboard-response",118,270511,"0.0-3.35-2.35","k6ogbxgazwux52s",304,"169.csv","","null","resources/images/coin2.png","null","",NA,NA,NA,NA,""
"image-keyboard-response",119,270836,"0.0-3.36-0.36","k6ogbxgazwux52s",304,"169.csv","","323.9999999999418","resources/trios/L1T1A2.jpg","37","restless",0.7,0.4,0.4,0.734878770599132,"false"
"image-keyboard-response",120,271238,"0.0-3.36-1.36","k6ogbxgazwux52s",304,"169.csv","","null","resources/maskTrios/L1BB.jpg","null","",NA,NA,NA,NA,""
"image-keyboard-response",121,272440,"0.0-3.36-2.36","k6ogbxgazwux52s",304,"169.csv","","null","resources/images/fishbone.png","null","",NA,NA,NA,NA,""
"image-keyboard-response",122,272907,"0.0-3.37-0.37","k6ogbxgazwux52s",304,"169.csv","","466","resources/trios/L2T2A3.jpg","38","restless",0.7,0.4,0.5,0.667734175980655,"false"
"image-keyboard-response",123,273309,"0.0-3.37-1.37","k6ogbxgazwux52s",304,"169.csv","","null","resources/maskTrios/BT2B.jpg","null","",NA,NA,NA,NA,""
"image-keyboard-response",124,274511,"0.0-3.37-2.37","k6ogbxgazwux52s",304,"169.csv","","null","resources/images/fishbone.png","null","",NA,NA,NA,NA,""
"image-keyboard-response",125,274903,"0.0-3.38-0.38","k6ogbxgazwux52s",304,"169.csv","","390.9999999999418","resources/trios/L2T2A3.jpg","39","restless",0.7,0.4,0.5,0.378819294028763,"true"
"image-keyboard-response",126,275306,"0.0-3.38-1.38","k6ogbxgazwux52s",304,"169.csv","","null","resources/maskTrios/BBA3.jpg","null","",NA,NA,NA,NA,""
"image-keyboard-response",127,276507,"0.0-3.38-2.38","k6ogbxgazwux52s",304,"169.csv","","null","resources/images/coin2.png","null","",NA,NA,NA,NA,""
"image-keyboard-response",128,277009,"0.0-3.39-0.39","k6ogbxgazwux52s",304,"169.csv","","501","resources/trios/L2T2A2.jpg","39","restless",0.7,0.4,0.5,0.437068002956145,"true"
"image-keyboard-response",129,277412,"0.0-3.39-1.39","k6ogbxgazwux52s",304,"169.csv","","null","resources/maskTrios/BBA2.jpg","null","",NA,NA,NA,NA,""
"image-keyboard-response",130,278614,"0.0-3.39-2.39","k6ogbxgazwux52s",304,"169.csv","","null","resources/images/coin2.png","null","",NA,NA,NA,NA,""
"image-keyboard-response",131,278959,"0.0-3.40-0.40","k6ogbxgazwux52s",304,"169.csv","","343.0000000000582","resources/trios/L1T1A3.jpg","39","restless",0.7,0.4,0.5,0.234184418687939,"true"
"image-keyboard-response",132,279362,"0.0-3.40-1.40","k6ogbxgazwux52s",304,"169.csv","","null","resources/maskTrios/BBA3.jpg","null","",NA,NA,NA,NA,""
"image-keyboard-response",133,280567,"0.0-3.40-2.40","k6ogbxgazwux52s",304,"169.csv","","null","resources/images/coin2.png","null","",NA,NA,NA,NA,""
"image-keyboard-response",134,281090,"0.0-3.41-0.41","k6ogbxgazwux52s",304,"169.csv","","521","resources/trios/L2T1A3.jpg","39","restless",0.7,0.4,0.5,0.0743509840994686,"true"
"image-keyboard-response",135,281492,"0.0-3.41-1.41","k6ogbxgazwux52s",304,"169.csv","","null","resources/maskTrios/BBA3.jpg","null","",NA,NA,NA,NA,""
"image-keyboard-response",136,282694,"0.0-3.41-2.41","k6ogbxgazwux52s",304,"169.csv","","null","resources/images/coin2.png","null","",NA,NA,NA,NA,""
"image-keyboard-response",137,283271,"0.0-3.42-0.42","k6ogbxgazwux52s",304,"169.csv","","576","resources/trios/L2T2A2.jpg","39","restless",0.7,0.4,0.5,0.355688043271612,"true"
"image-keyboard-response",138,283674,"0.0-3.42-1.42","k6ogbxgazwux52s",304,"169.csv","","null","resources/maskTrios/BBA2.jpg","null","",NA,NA,NA,NA,""
"image-keyboard-response",139,284876,"0.0-3.42-2.42","k6ogbxgazwux52s",304,"169.csv","","null","resources/images/coin2.png","null","",NA,NA,NA,NA,""
"image-keyboard-response",140,285872,"0.0-3.43-0.43","k6ogbxgazwux52s",304,"169.csv","","994","resources/trios/L2T1A3.jpg","39","restless",0.7,0.4,0.5,0.449463824826112,"true"
"image-keyboard-response",141,286274,"0.0-3.43-1.43","k6ogbxgazwux52s",304,"169.csv","","null","resources/maskTrios/BBA3.jpg","null","",NA,NA,NA,NA,""
"image-keyboard-response",142,287476,"0.0-3.43-2.43","k6ogbxgazwux52s",304,"169.csv","","null","resources/images/coin2.png","null","",NA,NA,NA,NA,""
"image-keyboard-response",143,287856,"0.0-3.44-0.44","k6ogbxgazwux52s",304,"169.csv","","378","resources/trios/L2T1A3.jpg","39","restless",0.7,0.4,0.5,0.973649824107929,"false"
"image-keyboard-response",144,288258,"0.0-3.44-1.44","k6ogbxgazwux52s",304,"169.csv","","null","resources/maskTrios/BBA3.jpg","null","",NA,NA,NA,NA,""
"image-keyboard-response",145,289460,"0.0-3.44-2.44","k6ogbxgazwux52s",304,"169.csv","","null","resources/images/fishbone.png","null","",NA,NA,NA,NA,""
"image-keyboard-response",146,290408,"0.0-3.45-0.45","k6ogbxgazwux52s",304,"169.csv","","946","resources/trios/L1T2A3.jpg","38","restless",0.7,0.4,0.5,0.526714403634843,"false"
"image-keyboard-response",147,290810,"0.0-3.45-1.45","k6ogbxgazwux52s",304,"169.csv","","null","resources/maskTrios/BT2B.jpg","null","",NA,NA,NA,NA,""
"image-keyboard-response",148,292012,"0.0-3.45-2.45","k6ogbxgazwux52s",304,"169.csv","","null","resources/images/fishbone.png","null","",NA,NA,NA,NA,""
"image-keyboard-response",149,292474,"0.0-3.46-0.46","k6ogbxgazwux52s",304,"169.csv","","460","resources/trios/L2T2A2.jpg","37","restless",0.7,0.4,0.5,0.362931625886889,"true"
"image-keyboard-response",150,292877,"0.0-3.46-1.46","k6ogbxgazwux52s",304,"169.csv","","null","resources/maskTrios/L2BB.jpg","null","",NA,NA,NA,NA,""
"image-keyboard-response",151,294079,"0.0-3.46-2.46","k6ogbxgazwux52s",304,"169.csv","","null","resources/images/coin2.png","null","",NA,NA,NA,NA,""
"image-keyboard-response",152,294738,"0.0-3.47-0.47","k6ogbxgazwux52s",304,"169.csv","","657","resources/trios/L2T1A3.jpg","37","restless",0.7,0.3,0.5,0.0462922443152943,"true"
"image-keyboard-response",153,295140,"0.0-3.47-1.47","k6ogbxgazwux52s",304,"169.csv","","null","resources/maskTrios/L2BB.jpg","null","",NA,NA,NA,NA,""
"image-keyboard-response",154,296343,"0.0-3.47-2.47","k6ogbxgazwux52s",304,"169.csv","","null","resources/images/coin2.png","null","",NA,NA,NA,NA,""
"image-keyboard-response",155,296480,"0.0-3.48-0.48","k6ogbxgazwux52s",304,"169.csv","","135","resources/trios/L1T2A3.jpg","37","restless",0.7,0.3,0.5,0.437862160118164,"true"
"image-keyboard-response",156,296881,"0.0-3.48-1.48","k6ogbxgazwux52s",304,"169.csv","","null","resources/maskTrios/L1BB.jpg","null","",NA,NA,NA,NA,""
"image-keyboard-response",157,298084,"0.0-3.48-2.48","k6ogbxgazwux52s",304,"169.csv","","null","resources/images/coin2.png","null","",NA,NA,NA,NA,""
"image-keyboard-response",158,298662,"0.0-3.49-0.49","k6ogbxgazwux52s",304,"169.csv","","576","resources/trios/L2T2A2.jpg","37","restless",0.7,0.3,0.5,0.28037035510834,"true"
"image-keyboard-response",159,299064,"0.0-3.49-1.49","k6ogbxgazwux52s",304,"169.csv","","null","resources/maskTrios/L2BB.jpg","null","",NA,NA,NA,NA,""
"image-keyboard-response",160,300267,"0.0-3.49-2.49","k6ogbxgazwux52s",304,"169.csv","","null","resources/images/coin2.png","null","",NA,NA,NA,NA,""
"image-keyboard-response",161,300991,"0.0-3.50-0.50","k6ogbxgazwux52s",304,"169.csv","","721.9999999999418","resources/trios/L1T1A2.jpg","37","restless",0.7,0.3,0.5,0.0970083382284037,"true"
"image-keyboard-response",162,301395,"0.0-3.50-1.50","k6ogbxgazwux52s",304,"169.csv","","null","resources/maskTrios/L1BB.jpg","null","",NA,NA,NA,NA,""
"image-keyboard-response",163,302597,"0.0-3.50-2.50","k6ogbxgazwux52s",304,"169.csv","","null","resources/images/coin2.png","null","",NA,NA,NA,NA,""
"image-keyboard-response",164,303351,"0.0-3.51-0.51","k6ogbxgazwux52s",304,"169.csv","","753","resources/trios/L1T2A3.jpg","38","restless",0.8,0.3,0.5,0.102949610001217,"true"
"image-keyboard-response",165,303753,"0.0-3.51-1.51","k6ogbxgazwux52s",304,"169.csv","","null","resources/maskTrios/BT2B.jpg","null","",NA,NA,NA,NA,""
"image-keyboard-response",166,304957,"0.0-3.51-2.51","k6ogbxgazwux52s",304,"169.csv","","null","resources/images/coin2.png","null","",NA,NA,NA,NA,""
"image-keyboard-response",167,305335,"0.0-3.52-0.52","k6ogbxgazwux52s",304,"169.csv","","375","resources/trios/L1T2A2.jpg","38","restless",0.8,0.3,0.5,0.638294147151062,"false"
"image-keyboard-response",168,305736,"0.0-3.52-1.52","k6ogbxgazwux52s",304,"169.csv","","null","resources/maskTrios/BT2B.jpg","null","",NA,NA,NA,NA,""
"image-keyboard-response",169,306938,"0.0-3.52-2.52","k6ogbxgazwux52s",304,"169.csv","","null","resources/images/fishbone.png","null","",NA,NA,NA,NA,""
"image-keyboard-response",170,307369,"0.0-3.53-0.53","k6ogbxgazwux52s",304,"169.csv","","428","resources/trios/L2T2A3.jpg","39","restless",0.8,0.3,0.5,0.315138684735666,"true"
"image-keyboard-response",171,307771,"0.0-3.53-1.53","k6ogbxgazwux52s",304,"169.csv","","null","resources/maskTrios/BBA3.jpg","null","",NA,NA,NA,NA,""
"image-keyboard-response",172,308974,"0.0-3.53-2.53","k6ogbxgazwux52s",304,"169.csv","","null","resources/images/coin2.png","null","",NA,NA,NA,NA,""
"image-keyboard-response",173,309666,"0.0-3.54-0.54","k6ogbxgazwux52s",304,"169.csv","","690","resources/trios/L2T2A3.jpg","39","restless",0.8,0.3,0.5,0.570637769380723,"false"
"image-keyboard-response",174,310068,"0.0-3.54-1.54","k6ogbxgazwux52s",304,"169.csv","","null","resources/maskTrios/BBA3.jpg","null","",NA,NA,NA,NA,""
"image-keyboard-response",175,311270,"0.0-3.54-2.54","k6ogbxgazwux52s",304,"169.csv","","null","resources/images/fishbone.png","null","",NA,NA,NA,NA,""
"image-keyboard-response",176,311690,"0.0-3.55-0.55","k6ogbxgazwux52s",304,"169.csv","","418","resources/trios/L1T2A3.jpg","37","restless",0.8,0.3,0.5,0.644525685026931,"true"
"image-keyboard-response",177,312092,"0.0-3.55-1.55","k6ogbxgazwux52s",304,"169.csv","","null","resources/maskTrios/L1BB.jpg","null","",NA,NA,NA,NA,""
"image-keyboard-response",178,313295,"0.0-3.55-2.55","k6ogbxgazwux52s",304,"169.csv","","null","resources/images/coin2.png","null","",NA,NA,NA,NA,""
"image-keyboard-response",179,314104,"0.0-3.56-0.56","k6ogbxgazwux52s",304,"169.csv","","807","resources/trios/L2T1A3.jpg","37","restless",0.8,0.3,0.5,0.109743872112364,"true"
"image-keyboard-response",180,314506,"0.0-3.56-1.56","k6ogbxgazwux52s",304,"169.csv","","null","resources/maskTrios/L2BB.jpg","null","",NA,NA,NA,NA,""
"image-keyboard-response",181,315708,"0.0-3.56-2.56","k6ogbxgazwux52s",304,"169.csv","","null","resources/images/coin2.png","null","",NA,NA,NA,NA,""
"image-keyboard-response",182,316029,"0.0-3.57-0.57","k6ogbxgazwux52s",304,"169.csv","","319","resources/trios/L1T2A3.jpg","37","restless",0.8,0.3,0.5,0.647514095508527,"true"
"image-keyboard-response",183,316431,"0.0-3.57-1.57","k6ogbxgazwux52s",304,"169.csv","","null","resources/maskTrios/L1BB.jpg","null","",NA,NA,NA,NA,""
"image-keyboard-response",184,317633,"0.0-3.57-2.57","k6ogbxgazwux52s",304,"169.csv","","null","resources/images/coin2.png","null","",NA,NA,NA,NA,""
"image-keyboard-response",185,318261,"0.0-3.58-0.58","k6ogbxgazwux52s",304,"169.csv","","627.0000000000582","resources/trios/L1T1A2.jpg","37","restless",0.8,0.3,0.5,0.888088205775765,"false"
"image-keyboard-response",186,318663,"0.0-3.58-1.58","k6ogbxgazwux52s",304,"169.csv","","null","resources/maskTrios/L1BB.jpg","null","",NA,NA,NA,NA,""
"image-keyboard-response",187,319865,"0.0-3.58-2.58","k6ogbxgazwux52s",304,"169.csv","","null","resources/images/fishbone.png","null","",NA,NA,NA,NA,""
"image-keyboard-response",188,320169,"0.0-3.59-0.59","k6ogbxgazwux52s",304,"169.csv","","304","resources/trios/L2T2A3.jpg","38","restless",0.8,0.3,0.5,0.932040360954492,"false"
"image-keyboard-response",189,320570,"0.0-3.59-1.59","k6ogbxgazwux52s",304,"169.csv","","null","resources/maskTrios/BT2B.jpg","null","",NA,NA,NA,NA,""
"image-keyboard-response",190,321772,"0.0-3.59-2.59","k6ogbxgazwux52s",304,"169.csv","","null","resources/images/fishbone.png","null","",NA,NA,NA,NA,""
"image-keyboard-response",191,322109,"0.0-3.60-0.60","k6ogbxgazwux52s",304,"169.csv","","335.9999999999418","resources/trios/L1T2A3.jpg","39","restless",0.8,0.3,0.5,0.840652697447871,"false"
"image-keyboard-response",192,322512,"0.0-3.60-1.60","k6ogbxgazwux52s",304,"169.csv","","null","resources/maskTrios/BBA3.jpg","null","",NA,NA,NA,NA,""
"image-keyboard-response",193,323716,"0.0-3.60-2.60","k6ogbxgazwux52s",304,"169.csv","","null","resources/images/fishbone.png","null","",NA,NA,NA,NA,""
"image-keyboard-response",194,323982,"0.0-3.61-0.61","k6ogbxgazwux52s",304,"169.csv","","263","resources/trios/L2T2A3.jpg","37","restless",0.8,0.3,0.5,0.978468868033123,"false"
"image-keyboard-response",195,324384,"0.0-3.61-1.61","k6ogbxgazwux52s",304,"169.csv","","null","resources/maskTrios/L2BB.jpg","null","",NA,NA,NA,NA,""
"image-keyboard-response",196,325586,"0.0-3.61-2.61","k6ogbxgazwux52s",304,"169.csv","","null","resources/images/fishbone.png","null","",NA,NA,NA,NA,""
"image-keyboard-response",197,326546,"0.0-3.62-0.62","k6ogbxgazwux52s",304,"169.csv","","959","resources/trios/L2T2A3.jpg","39","restless",0.8,0.3,0.5,0.232140686619152,"true"
"image-keyboard-response",198,326948,"0.0-3.62-1.62","k6ogbxgazwux52s",304,"169.csv","","null","resources/maskTrios/BBA3.jpg","null","",NA,NA,NA,NA,""
"image-keyboard-response",199,328151,"0.0-3.62-2.62","k6ogbxgazwux52s",304,"169.csv","","null","resources/images/coin2.png","null","",NA,NA,NA,NA,""
"image-keyboard-response",200,328778,"0.0-3.63-0.63","k6ogbxgazwux52s",304,"169.csv","","626","resources/trios/L1T2A2.jpg","38","restless",0.8,0.3,0.5,0.421241419687582,"false"
"image-keyboard-response",201,329181,"0.0-3.63-1.63","k6ogbxgazwux52s",304,"169.csv","","null","resources/maskTrios/BT2B.jpg","null","",NA,NA,NA,NA,""
"image-keyboard-response",202,330382,"0.0-3.63-2.63","k6ogbxgazwux52s",304,"169.csv","","null","resources/images/fishbone.png","null","",NA,NA,NA,NA,""
"image-keyboard-response",203,330773,"0.0-3.64-0.64","k6ogbxgazwux52s",304,"169.csv","","390.0000000000582","resources/trios/L1T2A3.jpg","37","restless",0.8,0.3,0.5,0.726916450888569,"true"
"image-keyboard-response",204,331175,"0.0-3.64-1.64","k6ogbxgazwux52s",304,"169.csv","","null","resources/maskTrios/L1BB.jpg","null","",NA,NA,NA,NA,""
"image-keyboard-response",205,332378,"0.0-3.64-2.64","k6ogbxgazwux52s",304,"169.csv","","null","resources/images/coin2.png","null","",NA,NA,NA,NA,""
"image-keyboard-response",206,333826,"0.0-3.65-0.65","k6ogbxgazwux52s",304,"169.csv","","1446","resources/trios/L1T1A3.jpg","38","restless",0.8,0.3,0.5,0.781150732975482,"false"
"image-keyboard-response",207,334228,"0.0-3.65-1.65","k6ogbxgazwux52s",304,"169.csv","","null","resources/maskTrios/BT1B.jpg","null","",NA,NA,NA,NA,""
"image-keyboard-response",208,335430,"0.0-3.65-2.65","k6ogbxgazwux52s",304,"169.csv","","null","resources/images/fishbone.png","null","",NA,NA,NA,NA,""
"image-keyboard-response",209,335885,"0.0-3.66-0.66","k6ogbxgazwux52s",304,"169.csv","","453","resources/trios/L1T1A3.jpg","37","restless",0.8,0.3,0.5,0.788418634531628,"true"
"image-keyboard-response",210,336287,"0.0-3.66-1.66","k6ogbxgazwux52s",304,"169.csv","","null","resources/maskTrios/L1BB.jpg","null","",NA,NA,NA,NA,""
"image-keyboard-response",211,337490,"0.0-3.66-2.66","k6ogbxgazwux52s",304,"169.csv","","null","resources/images/coin2.png","null","",NA,NA,NA,NA,""
"image-keyboard-response",212,338446,"0.0-3.67-0.67","k6ogbxgazwux52s",304,"169.csv","","955.0000000000582","resources/trios/L2T1A2.jpg","37","restless",0.8,0.3,0.5,0.081496242363855,"true"
"image-keyboard-response",213,338848,"0.0-3.67-1.67","k6ogbxgazwux52s",304,"169.csv","","null","resources/maskTrios/L2BB.jpg","null","",NA,NA,NA,NA,""
"image-keyboard-response",214,340051,"0.0-3.67-2.67","k6ogbxgazwux52s",304,"169.csv","","null","resources/images/coin2.png","null","",NA,NA,NA,NA,""
"image-keyboard-response",215,340490,"0.0-3.68-0.68","k6ogbxgazwux52s",304,"169.csv","","438","resources/trios/L1T1A2.jpg","37","restless",0.8,0.3,0.5,0.191955592180316,"true"
"image-keyboard-response",216,340892,"0.0-3.68-1.68","k6ogbxgazwux52s",304,"169.csv","","null","resources/maskTrios/L1BB.jpg","null","",NA,NA,NA,NA,""
"image-keyboard-response",217,342094,"0.0-3.68-2.68","k6ogbxgazwux52s",304,"169.csv","","null","resources/images/coin2.png","null","",NA,NA,NA,NA,""
"image-keyboard-response",218,342464,"0.0-3.69-0.69","k6ogbxgazwux52s",304,"169.csv","","368.9999999999418","resources/trios/L2T2A3.jpg","37","restless",0.8,0.3,0.5,0.689445786192663,"true"
"image-keyboard-response",219,342866,"0.0-3.69-1.69","k6ogbxgazwux52s",304,"169.csv","","null","resources/maskTrios/L2BB.jpg","null","",NA,NA,NA,NA,""
"image-keyboard-response",220,344069,"0.0-3.69-2.69","k6ogbxgazwux52s",304,"169.csv","","null","resources/images/coin2.png","null","",NA,NA,NA,NA,""
"image-keyboard-response",221,344443,"0.0-3.70-0.70","k6ogbxgazwux52s",304,"169.csv","","372","resources/trios/L2T2A2.jpg","37","restless",0.8,0.3,0.5,0.344498732653916,"true"
"image-keyboard-response",222,344845,"0.0-3.70-1.70","k6ogbxgazwux52s",304,"169.csv","","null","resources/maskTrios/L2BB.jpg","null","",NA,NA,NA,NA,""
"image-keyboard-response",223,346047,"0.0-3.70-2.70","k6ogbxgazwux52s",304,"169.csv","","null","resources/images/coin2.png","null","",NA,NA,NA,NA,""
"image-keyboard-response",224,346783,"0.0-3.71-0.71","k6ogbxgazwux52s",304,"169.csv","","732","resources/trios/L2T2A2.jpg","37","restless",0.8,0.3,0.5,0.194031619019417,"true"
"image-keyboard-response",225,347185,"0.0-3.71-1.71","k6ogbxgazwux52s",304,"169.csv","","null","resources/maskTrios/L2BB.jpg","null","",NA,NA,NA,NA,""
"image-keyboard-response",226,348388,"0.0-3.71-2.71","k6ogbxgazwux52s",304,"169.csv","","null","resources/images/coin2.png","null","",NA,NA,NA,NA,""
"image-keyboard-response",227,348987,"0.0-3.72-0.72","k6ogbxgazwux52s",304,"169.csv","","597","resources/trios/L2T2A3.jpg","37","restless",0.8,0.3,0.5,0.299749256229114,"true"
"image-keyboard-response",228,349389,"0.0-3.72-1.72","k6ogbxgazwux52s",304,"169.csv","","null","resources/maskTrios/L2BB.jpg","null","",NA,NA,NA,NA,""
"image-keyboard-response",229,350591,"0.0-3.72-2.72","k6ogbxgazwux52s",304,"169.csv","","null","resources/images/coin2.png","null","",NA,NA,NA,NA,""
"image-keyboard-response",230,354497,"0.0-3.73-0.73","k6ogbxgazwux52s",304,"169.csv","","3904","resources/trios/L1T2A2.jpg","37","restless",0.7,0.3,0.5,0.869708351537462,"false"
"image-keyboard-response",231,354900,"0.0-3.73-1.73","k6ogbxgazwux52s",304,"169.csv","","null","resources/maskTrios/L1BB.jpg","null","",NA,NA,NA,NA,""
"image-keyboard-response",232,356101,"0.0-3.73-2.73","k6ogbxgazwux52s",304,"169.csv","","null","resources/images/fishbone.png","null","",NA,NA,NA,NA,""
"image-keyboard-response",233,357344,"0.0-3.74-0.74","k6ogbxgazwux52s",304,"169.csv","","1242","resources/trios/L2T2A3.jpg","39","restless",0.7,0.3,0.5,0.300257814149189,"true"
"image-keyboard-response",234,357746,"0.0-3.74-1.74","k6ogbxgazwux52s",304,"169.csv","","null","resources/maskTrios/BBA3.jpg","null","",NA,NA,NA,NA,""
"image-keyboard-response",235,358949,"0.0-3.74-2.74","k6ogbxgazwux52s",304,"169.csv","","null","resources/images/coin2.png","null","",NA,NA,NA,NA,""
"image-keyboard-response",236,359283,"0.0-3.75-0.75","k6ogbxgazwux52s",304,"169.csv","","333","resources/trios/L2T1A2.jpg","39","restless",0.7,0.3,0.6,0.231897209333883,"true"
"image-keyboard-response",237,359685,"0.0-3.75-1.75","k6ogbxgazwux52s",304,"169.csv","","null","resources/maskTrios/BBA2.jpg","null","",NA,NA,NA,NA,""
"image-keyboard-response",238,360888,"0.0-3.75-2.75","k6ogbxgazwux52s",304,"169.csv","","null","resources/images/coin2.png","null","",NA,NA,NA,NA,""
"image-keyboard-response",239,361327,"0.0-3.76-0.76","k6ogbxgazwux52s",304,"169.csv","","438","resources/trios/L1T2A2.jpg","39","restless",0.7,0.3,0.6,0.679693635188764,"false"
"image-keyboard-response",240,361729,"0.0-3.76-1.76","k6ogbxgazwux52s",304,"169.csv","","null","resources/maskTrios/BBA2.jpg","null","",NA,NA,NA,NA,""
"image-keyboard-response",241,362931,"0.0-3.76-2.76","k6ogbxgazwux52s",304,"169.csv","","null","resources/images/fishbone.png","null","",NA,NA,NA,NA,""
"image-keyboard-response",242,363321,"0.0-3.77-0.77","k6ogbxgazwux52s",304,"169.csv","","390.0000000000582","resources/trios/L2T1A2.jpg","38","restless",0.7,0.3,0.6,0.718821140886969,"false"
"image-keyboard-response",243,363724,"0.0-3.77-1.77","k6ogbxgazwux52s",304,"169.csv","","null","resources/maskTrios/BT1B.jpg","null","",NA,NA,NA,NA,""
"image-keyboard-response",244,364926,"0.0-3.77-2.77","k6ogbxgazwux52s",304,"169.csv","","null","resources/images/fishbone.png","null","",NA,NA,NA,NA,""
"image-keyboard-response",245,365243,"0.0-3.78-0.78","k6ogbxgazwux52s",304,"169.csv","","316","resources/trios/L2T2A2.jpg","37","restless",0.7,0.3,0.6,0.320341120144192,"true"
"image-keyboard-response",246,365645,"0.0-3.78-1.78","k6ogbxgazwux52s",304,"169.csv","","null","resources/maskTrios/L2BB.jpg","null","",NA,NA,NA,NA,""
"image-keyboard-response",247,366848,"0.0-3.78-2.78","k6ogbxgazwux52s",304,"169.csv","","null","resources/images/coin2.png","null","",NA,NA,NA,NA,""
"image-keyboard-response",248,367482,"0.0-3.79-0.79","k6ogbxgazwux52s",304,"169.csv","","630.0000000000582","resources/trios/L2T2A3.jpg","37","restless",0.7,0.3,0.6,0.853313376280111,"false"
"image-keyboard-response",249,367885,"0.0-3.79-1.79","k6ogbxgazwux52s",304,"169.csv","","null","resources/maskTrios/L2BB.jpg","null","",NA,NA,NA,NA,""
"image-keyboard-response",250,369087,"0.0-3.79-2.79","k6ogbxgazwux52s",304,"169.csv","","null","resources/images/fishbone.png","null","",NA,NA,NA,NA,""
"image-keyboard-response",251,369560,"0.0-3.80-0.80","k6ogbxgazwux52s",304,"169.csv","","471","resources/trios/L2T1A2.jpg","38","restless",0.7,0.3,0.6,0.772930172237459,"false"
"image-keyboard-response",252,369962,"0.0-3.80-1.80","k6ogbxgazwux52s",304,"169.csv","","null","resources/maskTrios/BT1B.jpg","null","",NA,NA,NA,NA,""
"image-keyboard-response",253,371166,"0.0-3.80-2.80","k6ogbxgazwux52s",304,"169.csv","","null","resources/images/fishbone.png","null","",NA,NA,NA,NA,""
"image-keyboard-response",254,371948,"0.0-3.81-0.81","k6ogbxgazwux52s",304,"169.csv","","780","resources/trios/L1T1A3.jpg","39","restless",0.7,0.3,0.6,0.906847290481213,"false"
"image-keyboard-response",255,372351,"0.0-3.81-1.81","k6ogbxgazwux52s",304,"169.csv","","null","resources/maskTrios/BBA3.jpg","null","",NA,NA,NA,NA,""
"image-keyboard-response",256,373553,"0.0-3.81-2.81","k6ogbxgazwux52s",304,"169.csv","","null","resources/images/fishbone.png","null","",NA,NA,NA,NA,""
"image-keyboard-response",257,373913,"0.0-3.82-0.82","k6ogbxgazwux52s",304,"169.csv","","358","resources/trios/L2T1A3.jpg","37","restless",0.7,0.3,0.6,0.497797091168518,"true"
"image-keyboard-response",258,374315,"0.0-3.82-1.82","k6ogbxgazwux52s",304,"169.csv","","null","resources/maskTrios/L2BB.jpg","null","",NA,NA,NA,NA,""
"image-keyboard-response",259,375518,"0.0-3.82-2.82","k6ogbxgazwux52s",304,"169.csv","","null","resources/images/coin2.png","null","",NA,NA,NA,NA,""
"image-keyboard-response",260,375879,"0.0-3.83-0.83","k6ogbxgazwux52s",304,"169.csv","","360","resources/trios/L1T2A3.jpg","37","restless",0.7,0.3,0.5,0.0128642117905476,"true"
"image-keyboard-response",261,376282,"0.0-3.83-1.83","k6ogbxgazwux52s",304,"169.csv","","null","resources/maskTrios/L1BB.jpg","null","",NA,NA,NA,NA,""
"image-keyboard-response",262,377484,"0.0-3.83-2.83","k6ogbxgazwux52s",304,"169.csv","","null","resources/images/coin2.png","null","",NA,NA,NA,NA,""
"image-keyboard-response",263,377802,"0.0-3.84-0.84","k6ogbxgazwux52s",304,"169.csv","","317","resources/trios/L2T2A2.jpg","37","restless",0.7,0.4,0.5,0.483734666636659,"true"
"image-keyboard-response",264,378205,"0.0-3.84-1.84","k6ogbxgazwux52s",304,"169.csv","","null","resources/maskTrios/L2BB.jpg","null","",NA,NA,NA,NA,""
"image-keyboard-response",265,379407,"0.0-3.84-2.84","k6ogbxgazwux52s",304,"169.csv","","null","resources/images/coin2.png","null","",NA,NA,NA,NA,""
"image-keyboard-response",266,379784,"0.0-3.85-0.85","k6ogbxgazwux52s",304,"169.csv","","373.9999999999418","resources/trios/L1T1A3.jpg","37","restless",0.7,0.4,0.5,0.359000325088348,"true"
"image-keyboard-response",267,380186,"0.0-3.85-1.85","k6ogbxgazwux52s",304,"169.csv","","null","resources/maskTrios/L1BB.jpg","null","",NA,NA,NA,NA,""
"image-keyboard-response",268,381388,"0.0-3.85-2.85","k6ogbxgazwux52s",304,"169.csv","","null","resources/images/coin2.png","null","",NA,NA,NA,NA,""
"image-keyboard-response",269,381758,"0.0-3.86-0.86","k6ogbxgazwux52s",304,"169.csv","","369","resources/trios/L2T1A2.jpg","37","restless",0.7,0.4,0.5,0.545085466008963,"true"
"image-keyboard-response",270,382160,"0.0-3.86-1.86","k6ogbxgazwux52s",304,"169.csv","","null","resources/maskTrios/L2BB.jpg","null","",NA,NA,NA,NA,""
"image-keyboard-response",271,383363,"0.0-3.86-2.86","k6ogbxgazwux52s",304,"169.csv","","null","resources/images/coin2.png","null","",NA,NA,NA,NA,""
"image-keyboard-response",272,383743,"0.0-3.87-0.87","k6ogbxgazwux52s",304,"169.csv","","379","resources/trios/L2T2A3.jpg","37","restless",0.7,0.4,0.5,0.103389983251381,"true"
"image-keyboard-response",273,384145,"0.0-3.87-1.87","k6ogbxgazwux52s",304,"169.csv","","null","resources/maskTrios/L2BB.jpg","null","",NA,NA,NA,NA,""
"image-keyboard-response",274,385347,"0.0-3.87-2.87","k6ogbxgazwux52s",304,"169.csv","","null","resources/images/coin2.png","null","",NA,NA,NA,NA,""
"image-keyboard-response",275,386615,"0.0-3.88-0.88","k6ogbxgazwux52s",304,"169.csv","","1265","resources/trios/L1T2A3.jpg","37","restless",0.7,0.4,0.5,0.291924843757118,"true"
"image-keyboard-response",276,387018,"0.0-3.88-1.88","k6ogbxgazwux52s",304,"169.csv","","null","resources/maskTrios/L1BB.jpg","null","",NA,NA,NA,NA,""
"image-keyboard-response",277,388221,"0.0-3.88-2.88","k6ogbxgazwux52s",304,"169.csv","","null","resources/images/coin2.png","null","",NA,NA,NA,NA,""
"image-keyboard-response",278,390912,"0.0-3.89-0.89","k6ogbxgazwux52s",304,"169.csv","","2690","resources/trios/L2T2A3.jpg","37","restless",0.7,0.4,0.5,0.491231924393793,"true"
"image-keyboard-response",279,391314,"0.0-3.89-1.89","k6ogbxgazwux52s",304,"169.csv","","null","resources/maskTrios/L2BB.jpg","null","",NA,NA,NA,NA,""
"image-keyboard-response",280,392517,"0.0-3.89-2.89","k6ogbxgazwux52s",304,"169.csv","","null","resources/images/coin2.png","null","",NA,NA,NA,NA,""
"image-keyboard-response",281,394225,"0.0-3.90-0.90","k6ogbxgazwux52s",304,"169.csv","","1705","resources/trios/L1T1A3.jpg","37","restless",0.7,0.4,0.5,0.300369954446426,"true"
"image-keyboard-response",282,394628,"0.0-3.90-1.90","k6ogbxgazwux52s",304,"169.csv","","null","resources/maskTrios/L1BB.jpg","null","",NA,NA,NA,NA,""
"image-keyboard-response",283,395830,"0.0-3.90-2.90","k6ogbxgazwux52s",304,"169.csv","","null","resources/images/coin2.png","null","",NA,NA,NA,NA,""
"image-keyboard-response",284,396711,"0.0-3.91-0.91","k6ogbxgazwux52s",304,"169.csv","","879","resources/trios/L2T1A3.jpg","37","restless",0.7,0.4,0.5,0.0232008463569713,"true"
"image-keyboard-response",285,397113,"0.0-3.91-1.91","k6ogbxgazwux52s",304,"169.csv","","null","resources/maskTrios/L2BB.jpg","null","",NA,NA,NA,NA,""
"image-keyboard-response",286,398316,"0.0-3.91-2.91","k6ogbxgazwux52s",304,"169.csv","","null","resources/images/coin2.png","null","",NA,NA,NA,NA,""
"image-keyboard-response",287,399370,"0.0-3.92-0.92","k6ogbxgazwux52s",304,"169.csv","","1052.0000000000582","resources/trios/L1T1A3.jpg","37","restless",0.7,0.4,0.6,0.16802056074277,"true"
"image-keyboard-response",288,399774,"0.0-3.92-1.92","k6ogbxgazwux52s",304,"169.csv","","null","resources/maskTrios/L1BB.jpg","null","",NA,NA,NA,NA,""
"image-keyboard-response",289,400976,"0.0-3.92-2.92","k6ogbxgazwux52s",304,"169.csv","","null","resources/images/coin2.png","null","",NA,NA,NA,NA,""
"image-keyboard-response",290,401672,"0.0-3.93-0.93","k6ogbxgazwux52s",304,"169.csv","","694.0000000000582","resources/trios/L1T2A3.jpg","37","restless",0.7,0.4,0.6,0.369954602295195,"true"
"image-keyboard-response",291,402074,"0.0-3.93-1.93","k6ogbxgazwux52s",304,"169.csv","","null","resources/maskTrios/L1BB.jpg","null","",NA,NA,NA,NA,""
"image-keyboard-response",292,403276,"0.0-3.93-2.93","k6ogbxgazwux52s",304,"169.csv","","null","resources/images/coin2.png","null","",NA,NA,NA,NA,""
"image-keyboard-response",293,405004,"0.0-3.94-0.94","k6ogbxgazwux52s",304,"169.csv","","1727","resources/trios/L1T2A2.jpg","37","restless",0.7,0.4,0.6,0.0128395576365888,"true"
"image-keyboard-response",294,405406,"0.0-3.94-1.94","k6ogbxgazwux52s",304,"169.csv","","null","resources/maskTrios/L1BB.jpg","null","",NA,NA,NA,NA,""
"image-keyboard-response",295,406609,"0.0-3.94-2.94","k6ogbxgazwux52s",304,"169.csv","","null","resources/images/coin2.png","null","",NA,NA,NA,NA,""
"image-keyboard-response",296,407777,"0.0-3.95-0.95","k6ogbxgazwux52s",304,"169.csv","","1167","resources/trios/L1T2A2.jpg","37","restless",0.7,0.4,0.6,0.860171443581739,"false"
"image-keyboard-response",297,408179,"0.0-3.95-1.95","k6ogbxgazwux52s",304,"169.csv","","null","resources/maskTrios/L1BB.jpg","null","",NA,NA,NA,NA,""
"image-keyboard-response",298,409382,"0.0-3.95-2.95","k6ogbxgazwux52s",304,"169.csv","","null","resources/images/fishbone.png","null","",NA,NA,NA,NA,""
"image-keyboard-response",299,410480,"0.0-3.96-0.96","k6ogbxgazwux52s",304,"169.csv","","1097","resources/trios/L1T1A3.jpg","38","restless",0.7,0.4,0.6,0.341260307280909,"true"
"image-keyboard-response",300,410882,"0.0-3.96-1.96","k6ogbxgazwux52s",304,"169.csv","","null","resources/maskTrios/BT1B.jpg","null","",NA,NA,NA,NA,""
"image-keyboard-response",301,412084,"0.0-3.96-2.96","k6ogbxgazwux52s",304,"169.csv","","null","resources/images/coin2.png","null","",NA,NA,NA,NA,""
"image-keyboard-response",302,413290,"0.0-3.97-0.97","k6ogbxgazwux52s",304,"169.csv","","1205","resources/trios/L2T2A3.jpg","37","restless",0.7,0.4,0.6,0.029658592569348,"true"
"image-keyboard-response",303,413693,"0.0-3.97-1.97","k6ogbxgazwux52s",304,"169.csv","","null","resources/maskTrios/L2BB.jpg","null","",NA,NA,NA,NA,""
"image-keyboard-response",304,414895,"0.0-3.97-2.97","k6ogbxgazwux52s",304,"169.csv","","null","resources/images/coin2.png","null","",NA,NA,NA,NA,""
"image-keyboard-response",305,417928,"0.0-3.98-0.98","k6ogbxgazwux52s",304,"169.csv","","3031","resources/trios/L2T1A3.jpg","37","restless",0.7,0.4,0.5,0.54194055043201,"true"
"image-keyboard-response",306,418332,"0.0-3.98-1.98","k6ogbxgazwux52s",304,"169.csv","","null","resources/maskTrios/L2BB.jpg","null","",NA,NA,NA,NA,""
"image-keyboard-response",307,419534,"0.0-3.98-2.98","k6ogbxgazwux52s",304,"169.csv","","null","resources/images/coin2.png","null","",NA,NA,NA,NA,""
"image-keyboard-response",308,420582,"0.0-3.99-0.99","k6ogbxgazwux52s",304,"169.csv","","1043","resources/trios/L1T1A2.jpg","37","restless",0.7,0.4,0.5,0.333604393160026,"true"
"image-keyboard-response",309,420985,"0.0-3.99-1.99","k6ogbxgazwux52s",304,"169.csv","","null","resources/maskTrios/L1BB.jpg","null","",NA,NA,NA,NA,""
"image-keyboard-response",310,422187,"0.0-3.99-2.99","k6ogbxgazwux52s",304,"169.csv","","null","resources/images/coin2.png","null","",NA,NA,NA,NA,""
"image-keyboard-response",311,423153,"0.0-3.100-0.100","k6ogbxgazwux52s",304,"169.csv","","964","resources/trios/L1T2A3.jpg","37","restless",0.7,0.4,0.5,0.198171427978886,"true"
"image-keyboard-response",312,423555,"0.0-3.100-1.100","k6ogbxgazwux52s",304,"169.csv","","null","resources/maskTrios/L1BB.jpg","null","",NA,NA,NA,NA,""
"image-keyboard-response",313,424758,"0.0-3.100-2.100","k6ogbxgazwux52s",304,"169.csv","","null","resources/images/coin2.png","null","",NA,NA,NA,NA,""
"image-keyboard-response",314,425509,"0.0-3.101-0.101","k6ogbxgazwux52s",304,"169.csv","","750","resources/trios/L2T2A2.jpg","37","restless",0.7,0.4,0.5,0.646985254612609,"true"
"image-keyboard-response",315,425911,"0.0-3.101-1.101","k6ogbxgazwux52s",304,"169.csv","","null","resources/maskTrios/L2BB.jpg","null","",NA,NA,NA,NA,""
"image-keyboard-response",316,427113,"0.0-3.101-2.101","k6ogbxgazwux52s",304,"169.csv","","null","resources/images/coin2.png","null","",NA,NA,NA,NA,""
"image-keyboard-response",317,427784,"0.0-3.102-0.102","k6ogbxgazwux52s",304,"169.csv","","669","resources/trios/L2T2A2.jpg","37","restless",0.7,0.4,0.5,0.492776058249298,"true"
"image-keyboard-response",318,428188,"0.0-3.102-1.102","k6ogbxgazwux52s",304,"169.csv","","null","resources/maskTrios/L2BB.jpg","null","",NA,NA,NA,NA,""
"image-keyboard-response",319,429391,"0.0-3.102-2.102","k6ogbxgazwux52s",304,"169.csv","","null","resources/images/coin2.png","null","",NA,NA,NA,NA,""
"image-keyboard-response",320,431500,"0.0-3.103-0.103","k6ogbxgazwux52s",304,"169.csv","","2107","resources/trios/L1T2A2.jpg","37","restless",0.7,0.4,0.5,0.543631116451398,"true"
"image-keyboard-response",321,431903,"0.0-3.103-1.103","k6ogbxgazwux52s",304,"169.csv","","null","resources/maskTrios/L1BB.jpg","null","",NA,NA,NA,NA,""
"image-keyboard-response",322,433105,"0.0-3.103-2.103","k6ogbxgazwux52s",304,"169.csv","","null","resources/images/coin2.png","null","",NA,NA,NA,NA,""
"image-keyboard-response",323,434639,"0.0-3.104-0.104","k6ogbxgazwux52s",304,"169.csv","","1532","resources/trios/L1T1A2.jpg","37","restless",0.7,0.5,0.5,0.051572702683213,"true"
"image-keyboard-response",324,435041,"0.0-3.104-1.104","k6ogbxgazwux52s",304,"169.csv","","null","resources/maskTrios/L1BB.jpg","null","",NA,NA,NA,NA,""
"image-keyboard-response",325,436244,"0.0-3.104-2.104","k6ogbxgazwux52s",304,"169.csv","","null","resources/images/coin2.png","null","",NA,NA,NA,NA,""
"image-keyboard-response",326,437198,"0.0-3.105-0.105","k6ogbxgazwux52s",304,"169.csv","","953","resources/trios/L1T1A3.jpg","37","restless",0.7,0.5,0.5,0.799193628085033,"false"
"image-keyboard-response",327,437600,"0.0-3.105-1.105","k6ogbxgazwux52s",304,"169.csv","","null","resources/maskTrios/L1BB.jpg","null","",NA,NA,NA,NA,""
"image-keyboard-response",328,438802,"0.0-3.105-2.105","k6ogbxgazwux52s",304,"169.csv","","null","resources/images/fishbone.png","null","",NA,NA,NA,NA,""
"image-keyboard-response",329,440085,"0.0-3.106-0.106","k6ogbxgazwux52s",304,"169.csv","","1280.9999999999418","resources/trios/L2T1A2.jpg","37","restless",0.7,0.5,0.5,0.13537507201666,"true"
"image-keyboard-response",330,440487,"0.0-3.106-1.106","k6ogbxgazwux52s",304,"169.csv","","null","resources/maskTrios/L2BB.jpg","null","",NA,NA,NA,NA,""
"image-keyboard-response",331,441690,"0.0-3.106-2.106","k6ogbxgazwux52s",304,"169.csv","","null","resources/images/coin2.png","null","",NA,NA,NA,NA,""
"image-keyboard-response",332,442750,"0.0-3.107-0.107","k6ogbxgazwux52s",304,"169.csv","","1058.9999999999418","resources/trios/L1T1A3.jpg","37","restless",0.7,0.5,0.5,0.679880313015671,"true"
"image-keyboard-response",333,443153,"0.0-3.107-1.107","k6ogbxgazwux52s",304,"169.csv","","null","resources/maskTrios/L1BB.jpg","null","",NA,NA,NA,NA,""
"image-keyboard-response",334,444356,"0.0-3.107-2.107","k6ogbxgazwux52s",304,"169.csv","","null","resources/images/coin2.png","null","",NA,NA,NA,NA,""
"image-keyboard-response",335,445518,"0.0-3.108-0.108","k6ogbxgazwux52s",304,"169.csv","","1161","resources/trios/L2T1A2.jpg","37","restless",0.7,0.5,0.5,0.68946876778921,"true"
"image-keyboard-response",336,445920,"0.0-3.108-1.108","k6ogbxgazwux52s",304,"169.csv","","null","resources/maskTrios/L2BB.jpg","null","",NA,NA,NA,NA,""
"image-keyboard-response",337,447122,"0.0-3.108-2.108","k6ogbxgazwux52s",304,"169.csv","","null","resources/images/coin2.png","null","",NA,NA,NA,NA,""
"image-keyboard-response",338,448222,"0.0-3.109-0.109","k6ogbxgazwux52s",304,"169.csv","","1097","resources/trios/L2T1A3.jpg","37","restless",0.7,0.5,0.5,0.926343722765466,"false"
"image-keyboard-response",339,448625,"0.0-3.109-1.109","k6ogbxgazwux52s",304,"169.csv","","null","resources/maskTrios/L2BB.jpg","null","",NA,NA,NA,NA,""
"image-keyboard-response",340,449828,"0.0-3.109-2.109","k6ogbxgazwux52s",304,"169.csv","","null","resources/images/fishbone.png","null","",NA,NA,NA,NA,""
"image-keyboard-response",341,451393,"0.0-3.110-0.110","k6ogbxgazwux52s",304,"169.csv","","1563.0000000000582","resources/trios/L1T2A2.jpg","37","restless",0.7,0.5,0.5,0.88407460343838,"false"
"image-keyboard-response",342,451796,"0.0-3.110-1.110","k6ogbxgazwux52s",304,"169.csv","","null","resources/maskTrios/L1BB.jpg","null","",NA,NA,NA,NA,""
"image-keyboard-response",343,452998,"0.0-3.110-2.110","k6ogbxgazwux52s",304,"169.csv","","null","resources/images/fishbone.png","null","",NA,NA,NA,NA,""
"image-keyboard-response",344,454064,"0.0-3.111-0.111","k6ogbxgazwux52s",304,"169.csv","","1064","resources/trios/L2T2A2.jpg","38","restless",0.7,0.6,0.5,0.997271984253229,"false"
"image-keyboard-response",345,454466,"0.0-3.111-1.111","k6ogbxgazwux52s",304,"169.csv","","null","resources/maskTrios/BT2B.jpg","null","",NA,NA,NA,NA,""
"image-keyboard-response",346,455669,"0.0-3.111-2.111","k6ogbxgazwux52s",304,"169.csv","","null","resources/images/fishbone.png","null","",NA,NA,NA,NA,""
"image-keyboard-response",347,456613,"0.0-3.112-0.112","k6ogbxgazwux52s",304,"169.csv","","940.9999999999418","resources/trios/L2T2A2.jpg","37","restless",0.7,0.6,0.5,0.385048157781129,"true"
"image-keyboard-response",348,457015,"0.0-3.112-1.112","k6ogbxgazwux52s",304,"169.csv","","null","resources/maskTrios/L2BB.jpg","null","",NA,NA,NA,NA,""
"image-keyboard-response",349,458218,"0.0-3.112-2.112","k6ogbxgazwux52s",304,"169.csv","","null","resources/images/coin2.png","null","",NA,NA,NA,NA,""
"image-keyboard-response",350,459057,"0.0-3.113-0.113","k6ogbxgazwux52s",304,"169.csv","","838","resources/trios/L2T1A3.jpg","37","restless",0.7,0.6,0.5,0.328990174538849,"true"
"image-keyboard-response",351,459460,"0.0-3.113-1.113","k6ogbxgazwux52s",304,"169.csv","","null","resources/maskTrios/L2BB.jpg","null","",NA,NA,NA,NA,""
"image-keyboard-response",352,460662,"0.0-3.113-2.113","k6ogbxgazwux52s",304,"169.csv","","null","resources/images/coin2.png","null","",NA,NA,NA,NA,""
"image-keyboard-response",353,462969,"0.0-3.114-0.114","k6ogbxgazwux52s",304,"169.csv","","2305","resources/trios/L1T1A2.jpg","38","restless",0.7,0.6,0.5,0.75392950750783,"false"
"image-keyboard-response",354,463372,"0.0-3.114-1.114","k6ogbxgazwux52s",304,"169.csv","","null","resources/maskTrios/BT1B.jpg","null","",NA,NA,NA,NA,""
"image-keyboard-response",355,464574,"0.0-3.114-2.114","k6ogbxgazwux52s",304,"169.csv","","null","resources/images/fishbone.png","null","",NA,NA,NA,NA,""
"image-keyboard-response",356,465225,"0.0-3.115-0.115","k6ogbxgazwux52s",304,"169.csv","","650","resources/trios/L2T1A3.jpg","37","restless",0.7,0.6,0.5,0.671796087927025,"true"
"image-keyboard-response",357,465627,"0.0-3.115-1.115","k6ogbxgazwux52s",304,"169.csv","","null","resources/maskTrios/L2BB.jpg","null","",NA,NA,NA,NA,""
"image-keyboard-response",358,466829,"0.0-3.115-2.115","k6ogbxgazwux52s",304,"169.csv","","null","resources/images/coin2.png","null","",NA,NA,NA,NA,""
"image-keyboard-response",359,467474,"0.0-3.116-0.116","k6ogbxgazwux52s",304,"169.csv","","642","resources/trios/L1T2A2.jpg","37","restless",0.7,0.6,0.5,0.362912359220302,"true"
"image-keyboard-response",360,467877,"0.0-3.116-1.116","k6ogbxgazwux52s",304,"169.csv","","null","resources/maskTrios/L1BB.jpg","null","",NA,NA,NA,NA,""
"image-keyboard-response",361,469079,"0.0-3.116-2.116","k6ogbxgazwux52s",304,"169.csv","","null","resources/images/coin2.png","null","",NA,NA,NA,NA,""
"image-keyboard-response",362,469979,"0.0-3.117-0.117","k6ogbxgazwux52s",304,"169.csv","","897","resources/trios/L2T1A3.jpg","37","restless",0.7,0.5,0.5,0.907643316352021,"false"
"image-keyboard-response",363,470380,"0.0-3.117-1.117","k6ogbxgazwux52s",304,"169.csv","","null","resources/maskTrios/L2BB.jpg","null","",NA,NA,NA,NA,""
"image-keyboard-response",364,471582,"0.0-3.117-2.117","k6ogbxgazwux52s",304,"169.csv","","null","resources/images/fishbone.png","null","",NA,NA,NA,NA,""
"image-keyboard-response",365,473067,"0.0-3.118-0.118","k6ogbxgazwux52s",304,"169.csv","","1483","resources/trios/L2T2A3.jpg","37","restless",0.6,0.5,0.5,0.632253834696575,"false"
"image-keyboard-response",366,473469,"0.0-3.118-1.118","k6ogbxgazwux52s",304,"169.csv","","null","resources/maskTrios/L2BB.jpg","null","",NA,NA,NA,NA,""
"image-keyboard-response",367,474671,"0.0-3.118-2.118","k6ogbxgazwux52s",304,"169.csv","","null","resources/images/fishbone.png","null","",NA,NA,NA,NA,""
"image-keyboard-response",368,475712,"0.0-3.119-0.119","k6ogbxgazwux52s",304,"169.csv","","1039.9999999999418","resources/trios/L2T2A2.jpg","38","restless",0.6,0.5,0.5,0.47981801855004,"true"
"image-keyboard-response",369,476115,"0.0-3.119-1.119","k6ogbxgazwux52s",304,"169.csv","","null","resources/maskTrios/BT2B.jpg","null","",NA,NA,NA,NA,""
"image-keyboard-response",370,477317,"0.0-3.119-2.119","k6ogbxgazwux52s",304,"169.csv","","null","resources/images/coin2.png","null","",NA,NA,NA,NA,""
"image-keyboard-response",371,478038,"0.0-3.120-0.120","k6ogbxgazwux52s",304,"169.csv","","719","resources/trios/L2T1A3.jpg","39","restless",0.5,0.5,0.5,0.141282482060167,"true"
"image-keyboard-response",372,478441,"0.0-3.120-1.120","k6ogbxgazwux52s",304,"169.csv","","null","resources/maskTrios/BBA3.jpg","null","",NA,NA,NA,NA,""
"image-keyboard-response",373,479643,"0.0-3.120-2.120","k6ogbxgazwux52s",304,"169.csv","","null","resources/images/coin2.png","null","",NA,NA,NA,NA,""
"image-keyboard-response",374,480717,"0.0-3.121-0.121","k6ogbxgazwux52s",304,"169.csv","","1072","resources/trios/L2T2A3.jpg","38","restless",0.5,0.5,0.5,0.792662312843134,"false"
"image-keyboard-response",375,481119,"0.0-3.121-1.121","k6ogbxgazwux52s",304,"169.csv","","null","resources/maskTrios/BT2B.jpg","null","",NA,NA,NA,NA,""
"image-keyboard-response",376,482322,"0.0-3.121-2.121","k6ogbxgazwux52s",304,"169.csv","","null","resources/images/fishbone.png","null","",NA,NA,NA,NA,""
"image-keyboard-response",377,483270,"0.0-3.122-0.122","k6ogbxgazwux52s",304,"169.csv","","947","resources/trios/L1T1A2.jpg","38","restless",0.5,0.5,0.5,0.370355360527525,"true"
"image-keyboard-response",378,483674,"0.0-3.122-1.122","k6ogbxgazwux52s",304,"169.csv","","null","resources/maskTrios/BT1B.jpg","null","",NA,NA,NA,NA,""
"image-keyboard-response",379,484877,"0.0-3.122-2.122","k6ogbxgazwux52s",304,"169.csv","","null","resources/images/coin2.png","null","",NA,NA,NA,NA,""
"image-keyboard-response",380,486175,"0.0-3.123-0.123","k6ogbxgazwux52s",304,"169.csv","","1296","resources/trios/L2T2A3.jpg","37","restless",0.5,0.5,0.6,0.199614652003945,"true"
"image-keyboard-response",381,486577,"0.0-3.123-1.123","k6ogbxgazwux52s",304,"169.csv","","null","resources/maskTrios/L2BB.jpg","null","",NA,NA,NA,NA,""
"image-keyboard-response",382,487779,"0.0-3.123-2.123","k6ogbxgazwux52s",304,"169.csv","","null","resources/images/coin2.png","null","",NA,NA,NA,NA,""
"image-keyboard-response",383,489612,"0.0-3.124-0.124","k6ogbxgazwux52s",304,"169.csv","","1831.9999999999418","resources/trios/L2T1A3.jpg","37","restless",0.5,0.5,0.6,0.715626962086358,"false"
"image-keyboard-response",384,490013,"0.0-3.124-1.124","k6ogbxgazwux52s",304,"169.csv","","null","resources/maskTrios/L2BB.jpg","null","",NA,NA,NA,NA,""
"image-keyboard-response",385,491216,"0.0-3.124-2.124","k6ogbxgazwux52s",304,"169.csv","","null","resources/images/fishbone.png","null","",NA,NA,NA,NA,""
"image-keyboard-response",386,492232,"0.0-3.125-0.125","k6ogbxgazwux52s",304,"169.csv","","1015.0000000000582","resources/trios/L2T2A2.jpg","37","restless",0.5,0.5,0.6,0.934959856286939,"false"
"image-keyboard-response",387,492634,"0.0-3.125-1.125","k6ogbxgazwux52s",304,"169.csv","","null","resources/maskTrios/L2BB.jpg","null","",NA,NA,NA,NA,""
"image-keyboard-response",388,493836,"0.0-3.125-2.125","k6ogbxgazwux52s",304,"169.csv","","null","resources/images/fishbone.png","null","",NA,NA,NA,NA,""
"image-keyboard-response",389,494895,"0.0-3.126-0.126","k6ogbxgazwux52s",304,"169.csv","","1056","resources/trios/L1T1A3.jpg","38","restless",0.5,0.5,0.6,0.229594166380034,"true"
"image-keyboard-response",390,495298,"0.0-3.126-1.126","k6ogbxgazwux52s",304,"169.csv","","null","resources/maskTrios/BT1B.jpg","null","",NA,NA,NA,NA,""
"image-keyboard-response",391,496500,"0.0-3.126-2.126","k6ogbxgazwux52s",304,"169.csv","","null","resources/images/coin2.png","null","",NA,NA,NA,NA,""
"image-keyboard-response",392,497207,"0.0-3.127-0.127","k6ogbxgazwux52s",304,"169.csv","","705.9999999999418","resources/trios/L1T2A2.jpg","38","restless",0.5,0.5,0.6,0.300568121359988,"true"
"image-keyboard-response",393,497609,"0.0-3.127-1.127","k6ogbxgazwux52s",304,"169.csv","","null","resources/maskTrios/BT2B.jpg","null","",NA,NA,NA,NA,""
"image-keyboard-response",394,498811,"0.0-3.127-2.127","k6ogbxgazwux52s",304,"169.csv","","null","resources/images/coin2.png","null","",NA,NA,NA,NA,""
"image-keyboard-response",395,501090,"0.0-3.128-0.128","k6ogbxgazwux52s",304,"169.csv","","2275","resources/trios/L1T2A2.jpg","38","restless",0.5,0.5,0.6,0.852421821632505,"false"
"image-keyboard-response",396,501491,"0.0-3.128-1.128","k6ogbxgazwux52s",304,"169.csv","","null","resources/maskTrios/BT2B.jpg","null","",NA,NA,NA,NA,""
"image-keyboard-response",397,502694,"0.0-3.128-2.128","k6ogbxgazwux52s",304,"169.csv","","null","resources/images/fishbone.png","null","",NA,NA,NA,NA,""
"image-keyboard-response",398,503786,"0.0-3.129-0.129","k6ogbxgazwux52s",304,"169.csv","","1089","resources/trios/L2T2A2.jpg","37","restless",0.5,0.5,0.6,0.384053102269357,"true"
"image-keyboard-response",399,504188,"0.0-3.129-1.129","k6ogbxgazwux52s",304,"169.csv","","null","resources/maskTrios/L2BB.jpg","null","",NA,NA,NA,NA,""
"image-keyboard-response",400,505391,"0.0-3.129-2.129","k6ogbxgazwux52s",304,"169.csv","","null","resources/images/coin2.png","null","",NA,NA,NA,NA,""
"image-keyboard-response",401,506371,"0.0-3.130-0.130","k6ogbxgazwux52s",304,"169.csv","","979","resources/trios/L2T1A2.jpg","37","restless",0.5,0.5,0.6,0.814238846515671,"false"
"image-keyboard-response",402,506773,"0.0-3.130-1.130","k6ogbxgazwux52s",304,"169.csv","","null","resources/maskTrios/L2BB.jpg","null","",NA,NA,NA,NA,""
"image-keyboard-response",403,507976,"0.0-3.130-2.130","k6ogbxgazwux52s",304,"169.csv","","null","resources/images/fishbone.png","null","",NA,NA,NA,NA,""
"image-keyboard-response",404,509800,"0.0-3.131-0.131","k6ogbxgazwux52s",304,"169.csv","","1820.9999999999418","resources/trios/L2T2A3.jpg","38","restless",0.5,0.5,0.6,0.813915562610204,"false"
"image-keyboard-response",405,510203,"0.0-3.131-1.131","k6ogbxgazwux52s",304,"169.csv","","null","resources/maskTrios/BT2B.jpg","null","",NA,NA,NA,NA,""
"image-keyboard-response",406,511405,"0.0-3.131-2.131","k6ogbxgazwux52s",304,"169.csv","","null","resources/images/fishbone.png","null","",NA,NA,NA,NA,""
"image-keyboard-response",407,512412,"0.0-3.132-0.132","k6ogbxgazwux52s",304,"169.csv","","1006.0000000001164","resources/trios/L2T1A2.jpg","38","restless",0.5,0.5,0.6,0.872538851025547,"false"
"image-keyboard-response",408,512814,"0.0-3.132-1.132","k6ogbxgazwux52s",304,"169.csv","","null","resources/maskTrios/BT1B.jpg","null","",NA,NA,NA,NA,""
"image-keyboard-response",409,514017,"0.0-3.132-2.132","k6ogbxgazwux52s",304,"169.csv","","null","resources/images/fishbone.png","null","",NA,NA,NA,NA,""
"image-keyboard-response",410,515044,"0.0-3.133-0.133","k6ogbxgazwux52s",304,"169.csv","","1025.9999999999418","resources/trios/L2T1A3.jpg","37","restless",0.5,0.6,0.7,0.898138461261856,"false"
"image-keyboard-response",411,515446,"0.0-3.133-1.133","k6ogbxgazwux52s",304,"169.csv","","null","resources/maskTrios/L2BB.jpg","null","",NA,NA,NA,NA,""
"image-keyboard-response",412,516649,"0.0-3.133-2.133","k6ogbxgazwux52s",304,"169.csv","","null","resources/images/fishbone.png","null","",NA,NA,NA,NA,""
"image-keyboard-response",413,517943,"0.0-3.134-0.134","k6ogbxgazwux52s",304,"169.csv","","1293","resources/trios/L1T2A3.jpg","37","restless",0.5,0.6,0.7,0.873420099825778,"false"
"image-keyboard-response",414,518346,"0.0-3.134-1.134","k6ogbxgazwux52s",304,"169.csv","","null","resources/maskTrios/L1BB.jpg","null","",NA,NA,NA,NA,""
"image-keyboard-response",415,519548,"0.0-3.134-2.134","k6ogbxgazwux52s",304,"169.csv","","null","resources/images/fishbone.png","null","",NA,NA,NA,NA,""
"image-keyboard-response",416,520233,"0.0-3.135-0.135","k6ogbxgazwux52s",304,"169.csv","","680.0000000000582","resources/trios/L1T1A2.jpg","38","restless",0.5,0.6,0.6,0.075689742340859,"true"
"image-keyboard-response",417,520635,"0.0-3.135-1.135","k6ogbxgazwux52s",304,"169.csv","","null","resources/maskTrios/BT1B.jpg","null","",NA,NA,NA,NA,""
"image-keyboard-response",418,521838,"0.0-3.135-2.135","k6ogbxgazwux52s",304,"169.csv","","null","resources/images/coin2.png","null","",NA,NA,NA,NA,""
"image-keyboard-response",419,522708,"0.0-3.136-0.136","k6ogbxgazwux52s",304,"169.csv","","868","resources/trios/L1T1A2.jpg","38","restless",0.5,0.6,0.6,0.470829047545155,"true"
"image-keyboard-response",420,523110,"0.0-3.136-1.136","k6ogbxgazwux52s",304,"169.csv","","null","resources/maskTrios/BT1B.jpg","null","",NA,NA,NA,NA,""
"image-keyboard-response",421,524313,"0.0-3.136-2.136","k6ogbxgazwux52s",304,"169.csv","","null","resources/images/coin2.png","null","",NA,NA,NA,NA,""
"image-keyboard-response",422,524781,"0.0-3.137-0.137","k6ogbxgazwux52s",304,"169.csv","","465.9999999998836","resources/trios/L1T1A2.jpg","38","restless",0.5,0.5,0.6,0.169749331653464,"true"
"image-keyboard-response",423,525183,"0.0-3.137-1.137","k6ogbxgazwux52s",304,"169.csv","","null","resources/maskTrios/BT1B.jpg","null","",NA,NA,NA,NA,""
"image-keyboard-response",424,526386,"0.0-3.137-2.137","k6ogbxgazwux52s",304,"169.csv","","null","resources/images/coin2.png","null","",NA,NA,NA,NA,""
"image-keyboard-response",425,526836,"0.0-3.138-0.138","k6ogbxgazwux52s",304,"169.csv","","448.9999999998836","resources/trios/L2T1A3.jpg","38","restless",0.5,0.5,0.6,0.671335918529846,"false"
"image-keyboard-response",426,527238,"0.0-3.138-1.138","k6ogbxgazwux52s",304,"169.csv","","null","resources/maskTrios/BT1B.jpg","null","",NA,NA,NA,NA,""
"image-keyboard-response",427,528439,"0.0-3.138-2.138","k6ogbxgazwux52s",304,"169.csv","","null","resources/images/fishbone.png","null","",NA,NA,NA,NA,""
"image-keyboard-response",428,529254,"0.0-3.139-0.139","k6ogbxgazwux52s",304,"169.csv","","813.9999999998836","resources/trios/L2T1A2.jpg","37","restless",0.5,0.5,0.7,0.917246580177746,"false"
"image-keyboard-response",429,529656,"0.0-3.139-1.139","k6ogbxgazwux52s",304,"169.csv","","null","resources/maskTrios/L2BB.jpg","null","",NA,NA,NA,NA,""
"image-keyboard-response",430,530858,"0.0-3.139-2.139","k6ogbxgazwux52s",304,"169.csv","","null","resources/images/fishbone.png","null","",NA,NA,NA,NA,""
"image-keyboard-response",431,532140,"0.0-3.140-0.140","k6ogbxgazwux52s",304,"169.csv","","1281","resources/trios/L2T1A3.jpg","39","restless",0.5,0.5,0.7,0.0542013573311658,"true"
"image-keyboard-response",432,532543,"0.0-3.140-1.140","k6ogbxgazwux52s",304,"169.csv","","null","resources/maskTrios/BBA3.jpg","null","",NA,NA,NA,NA,""
"image-keyboard-response",433,533746,"0.0-3.140-2.140","k6ogbxgazwux52s",304,"169.csv","","null","resources/images/coin2.png","null","",NA,NA,NA,NA,""
"image-keyboard-response",434,536072,"0.0-3.141-0.141","k6ogbxgazwux52s",304,"169.csv","","2324","resources/trios/L1T1A2.jpg","38","restless",0.5,0.5,0.7,0.590083806557901,"false"
"image-keyboard-response",435,536474,"0.0-3.141-1.141","k6ogbxgazwux52s",304,"169.csv","","null","resources/maskTrios/BT1B.jpg","null","",NA,NA,NA,NA,""
"image-keyboard-response",436,537676,"0.0-3.141-2.141","k6ogbxgazwux52s",304,"169.csv","","null","resources/images/fishbone.png","null","",NA,NA,NA,NA,""
"image-keyboard-response",437,538761,"0.0-3.142-0.142","k6ogbxgazwux52s",304,"169.csv","","1084","resources/trios/L2T2A3.jpg","39","restless",0.6,0.5,0.7,0.533350248584726,"true"
"image-keyboard-response",438,539163,"0.0-3.142-1.142","k6ogbxgazwux52s",304,"169.csv","","null","resources/maskTrios/BBA3.jpg","null","",NA,NA,NA,NA,""
"image-keyboard-response",439,540366,"0.0-3.142-2.142","k6ogbxgazwux52s",304,"169.csv","","null","resources/images/coin2.png","null","",NA,NA,NA,NA,""
"image-keyboard-response",440,541221,"0.0-3.143-0.143","k6ogbxgazwux52s",304,"169.csv","","854","resources/trios/L2T1A3.jpg","39","restless",0.6,0.5,0.7,0.423300215438519,"true"
"image-keyboard-response",441,541624,"0.0-3.143-1.143","k6ogbxgazwux52s",304,"169.csv","","null","resources/maskTrios/BBA3.jpg","null","",NA,NA,NA,NA,""
"image-keyboard-response",442,542826,"0.0-3.143-2.143","k6ogbxgazwux52s",304,"169.csv","","null","resources/images/coin2.png","null","",NA,NA,NA,NA,""
"image-keyboard-response",443,543480,"0.0-3.144-0.144","k6ogbxgazwux52s",304,"169.csv","","652","resources/trios/L1T2A2.jpg","38","restless",0.5,0.4,0.7,0.603181710052111,"false"
"image-keyboard-response",444,543883,"0.0-3.144-1.144","k6ogbxgazwux52s",304,"169.csv","","null","resources/maskTrios/BT2B.jpg","null","",NA,NA,NA,NA,""
"image-keyboard-response",445,545085,"0.0-3.144-2.144","k6ogbxgazwux52s",304,"169.csv","","null","resources/images/fishbone.png","null","",NA,NA,NA,NA,""
"image-keyboard-response",446,546125,"0.0-3.145-0.145","k6ogbxgazwux52s",304,"169.csv","","1038","resources/trios/L2T2A2.jpg","37","restless",0.5,0.4,0.6,0.569326093896751,"false"
"image-keyboard-response",447,546527,"0.0-3.145-1.145","k6ogbxgazwux52s",304,"169.csv","","null","resources/maskTrios/L2BB.jpg","null","",NA,NA,NA,NA,""
"image-keyboard-response",448,547730,"0.0-3.145-2.145","k6ogbxgazwux52s",304,"169.csv","","null","resources/images/fishbone.png","null","",NA,NA,NA,NA,""
"image-keyboard-response",449,548545,"0.0-3.146-0.146","k6ogbxgazwux52s",304,"169.csv","","813","resources/trios/L1T1A3.jpg","39","restless",0.5,0.4,0.6,0.481495165102418,"true"
"image-keyboard-response",450,548948,"0.0-3.146-1.146","k6ogbxgazwux52s",304,"169.csv","","null","resources/maskTrios/BBA3.jpg","null","",NA,NA,NA,NA,""
"image-keyboard-response",451,550151,"0.0-3.146-2.146","k6ogbxgazwux52s",304,"169.csv","","null","resources/images/coin2.png","null","",NA,NA,NA,NA,""
"image-keyboard-response",452,550742,"0.0-3.147-0.147","k6ogbxgazwux52s",304,"169.csv","","590","resources/trios/L1T1A3.jpg","39","restless",0.5,0.4,0.6,0.815032512481471,"false"
"image-keyboard-response",453,551145,"0.0-3.147-1.147","k6ogbxgazwux52s",304,"169.csv","","null","resources/maskTrios/BBA3.jpg","null","",NA,NA,NA,NA,""
"image-keyboard-response",454,552347,"0.0-3.147-2.147","k6ogbxgazwux52s",304,"169.csv","","null","resources/images/fishbone.png","null","",NA,NA,NA,NA,""
"image-keyboard-response",455,553552,"0.0-3.148-0.148","k6ogbxgazwux52s",304,"169.csv","","1204","resources/trios/L2T2A3.jpg","37","restless",0.5,0.4,0.6,0.912865104143394,"false"
"image-keyboard-response",456,553954,"0.0-3.148-1.148","k6ogbxgazwux52s",304,"169.csv","","null","resources/maskTrios/L2BB.jpg","null","",NA,NA,NA,NA,""
"image-keyboard-response",457,555157,"0.0-3.148-2.148","k6ogbxgazwux52s",304,"169.csv","","null","resources/images/fishbone.png","null","",NA,NA,NA,NA,""
"image-keyboard-response",458,556090,"0.0-3.149-0.149","k6ogbxgazwux52s",304,"169.csv","","932","resources/trios/L1T2A3.jpg","38","restless",0.5,0.4,0.6,0.561992977242358,"false"
"image-keyboard-response",459,556492,"0.0-3.149-1.149","k6ogbxgazwux52s",304,"169.csv","","null","resources/maskTrios/BT2B.jpg","null","",NA,NA,NA,NA,""
"image-keyboard-response",460,557695,"0.0-3.149-2.149","k6ogbxgazwux52s",304,"169.csv","","null","resources/images/fishbone.png","null","",NA,NA,NA,NA,""
"image-keyboard-response",461,558414,"0.0-3.150-0.150","k6ogbxgazwux52s",304,"169.csv","","718","resources/trios/L2T2A2.jpg","37","restless",0.5,0.4,0.6,0.555274550036801,"false"
"image-keyboard-response",462,558816,"0.0-3.150-1.150","k6ogbxgazwux52s",304,"169.csv","","null","resources/maskTrios/L2BB.jpg","null","",NA,NA,NA,NA,""
"image-keyboard-response",463,560019,"0.0-3.150-2.150","k6ogbxgazwux52s",304,"169.csv","","null","resources/images/fishbone.png","null","",NA,NA,NA,NA,""
"image-keyboard-response",464,560861,"0.0-3.151-0.151","k6ogbxgazwux52s",304,"169.csv","","841","resources/trios/L2T1A2.jpg","38","restless",0.5,0.3,0.6,0.937740153567587,"false"
"image-keyboard-response",465,561263,"0.0-3.151-1.151","k6ogbxgazwux52s",304,"169.csv","","null","resources/maskTrios/BT1B.jpg","null","",NA,NA,NA,NA,""
"image-keyboard-response",466,562465,"0.0-3.151-2.151","k6ogbxgazwux52s",304,"169.csv","","null","resources/images/fishbone.png","null","",NA,NA,NA,NA,""
"image-keyboard-response",467,563679,"0.0-3.152-0.152","k6ogbxgazwux52s",304,"169.csv","","1212","resources/trios/L1T1A2.jpg","37","restless",0.5,0.3,0.6,0.91071333559558,"false"
"image-keyboard-response",468,564081,"0.0-3.152-1.152","k6ogbxgazwux52s",304,"169.csv","","null","resources/maskTrios/L1BB.jpg","null","",NA,NA,NA,NA,""
"image-keyboard-response",469,565285,"0.0-3.152-2.152","k6ogbxgazwux52s",304,"169.csv","","null","resources/images/fishbone.png","null","",NA,NA,NA,NA,""
"image-keyboard-response",470,566451,"0.0-3.153-0.153","k6ogbxgazwux52s",304,"169.csv","","1164","resources/trios/L2T2A3.jpg","37","restless",0.5,0.3,0.6,0.53407807678456,"false"
"image-keyboard-response",471,566854,"0.0-3.153-1.153","k6ogbxgazwux52s",304,"169.csv","","null","resources/maskTrios/L2BB.jpg","null","",NA,NA,NA,NA,""
"image-keyboard-response",472,568056,"0.0-3.153-2.153","k6ogbxgazwux52s",304,"169.csv","","null","resources/images/fishbone.png","null","",NA,NA,NA,NA,""
"image-keyboard-response",473,568814,"0.0-3.154-0.154","k6ogbxgazwux52s",304,"169.csv","","756","resources/trios/L2T1A2.jpg","38","restless",0.5,0.2,0.6,0.835374787805653,"false"
"image-keyboard-response",474,569216,"0.0-3.154-1.154","k6ogbxgazwux52s",304,"169.csv","","null","resources/maskTrios/BT1B.jpg","null","",NA,NA,NA,NA,""
"image-keyboard-response",475,570419,"0.0-3.154-2.154","k6ogbxgazwux52s",304,"169.csv","","null","resources/images/fishbone.png","null","",NA,NA,NA,NA,""
"image-keyboard-response",476,570970,"0.0-3.155-0.155","k6ogbxgazwux52s",304,"169.csv","","550","resources/trios/L1T1A2.jpg","37","restless",0.5,0.2,0.6,0.26712297372258,"true"
"image-keyboard-response",477,571372,"0.0-3.155-1.155","k6ogbxgazwux52s",304,"169.csv","","null","resources/maskTrios/L1BB.jpg","null","",NA,NA,NA,NA,""
"image-keyboard-response",478,572574,"0.0-3.155-2.155","k6ogbxgazwux52s",304,"169.csv","","null","resources/images/coin2.png","null","",NA,NA,NA,NA,""
"image-keyboard-response",479,573596,"0.0-3.156-0.156","k6ogbxgazwux52s",304,"169.csv","","1020","resources/trios/L1T1A2.jpg","37","restless",0.5,0.2,0.6,0.80941979220855,"false"
"image-keyboard-response",480,573998,"0.0-3.156-1.156","k6ogbxgazwux52s",304,"169.csv","","null","resources/maskTrios/L1BB.jpg","null","",NA,NA,NA,NA,""
"image-keyboard-response",481,575200,"0.0-3.156-2.156","k6ogbxgazwux52s",304,"169.csv","","null","resources/images/fishbone.png","null","",NA,NA,NA,NA,""
"image-keyboard-response",482,575811,"0.0-3.157-0.157","k6ogbxgazwux52s",304,"169.csv","","609","resources/trios/L1T1A2.jpg","38","restless",0.5,0.2,0.6,0.976131894948805,"false"
"image-keyboard-response",483,576214,"0.0-3.157-1.157","k6ogbxgazwux52s",304,"169.csv","","null","resources/maskTrios/BT1B.jpg","null","",NA,NA,NA,NA,""
"image-keyboard-response",484,577416,"0.0-3.157-2.157","k6ogbxgazwux52s",304,"169.csv","","null","resources/images/fishbone.png","null","",NA,NA,NA,NA,""
"image-keyboard-response",485,578010,"0.0-3.158-0.158","k6ogbxgazwux52s",304,"169.csv","","593","resources/trios/L2T2A2.jpg","37","restless",0.5,0.2,0.6,0.59238773382069,"false"
"image-keyboard-response",486,578412,"0.0-3.158-1.158","k6ogbxgazwux52s",304,"169.csv","","null","resources/maskTrios/L2BB.jpg","null","",NA,NA,NA,NA,""
"image-keyboard-response",487,579615,"0.0-3.158-2.158","k6ogbxgazwux52s",304,"169.csv","","null","resources/images/fishbone.png","null","",NA,NA,NA,NA,""
"image-keyboard-response",488,580484,"0.0-3.159-0.159","k6ogbxgazwux52s",304,"169.csv","","867.0000000001164","resources/trios/L1T2A2.jpg","38","restless",0.5,0.2,0.6,0.0757356039038856,"true"
"image-keyboard-response",489,580885,"0.0-3.159-1.159","k6ogbxgazwux52s",304,"169.csv","","null","resources/maskTrios/BT2B.jpg","null","",NA,NA,NA,NA,""
"image-keyboard-response",490,582088,"0.0-3.159-2.159","k6ogbxgazwux52s",304,"169.csv","","null","resources/images/coin2.png","null","",NA,NA,NA,NA,""
"image-keyboard-response",491,583188,"0.0-3.160-0.160","k6ogbxgazwux52s",304,"169.csv","","1098.9999999998836","resources/trios/L1T2A3.jpg","37","restless",0.5,0.2,0.6,0.213707176349937,"true"
"image-keyboard-response",492,583591,"0.0-3.160-1.160","k6ogbxgazwux52s",304,"169.csv","","null","resources/maskTrios/L1BB.jpg","null","",NA,NA,NA,NA,""
"image-keyboard-response",493,584793,"0.0-3.160-2.160","k6ogbxgazwux52s",304,"169.csv","","null","resources/images/coin2.png","null","",NA,NA,NA,NA,""
"image-keyboard-response",494,585981,"0.0-3.161-0.161","k6ogbxgazwux52s",304,"169.csv","","1186","resources/trios/L2T2A3.jpg","37","restless",0.4,0.2,0.6,0.114515054470632,"true"
"image-keyboard-response",495,586384,"0.0-3.161-1.161","k6ogbxgazwux52s",304,"169.csv","","null","resources/maskTrios/L2BB.jpg","null","",NA,NA,NA,NA,""
"image-keyboard-response",496,587587,"0.0-3.161-2.161","k6ogbxgazwux52s",304,"169.csv","","null","resources/images/coin2.png","null","",NA,NA,NA,NA,""
"image-keyboard-response",497,589903,"0.0-3.162-0.162","k6ogbxgazwux52s",304,"169.csv","","2315","resources/trios/L2T1A2.jpg","37","restless",0.4,0.2,0.6,0.0619486996813843,"true"
"image-keyboard-response",498,590305,"0.0-3.162-1.162","k6ogbxgazwux52s",304,"169.csv","","null","resources/maskTrios/L2BB.jpg","null","",NA,NA,NA,NA,""
"image-keyboard-response",499,591507,"0.0-3.162-2.162","k6ogbxgazwux52s",304,"169.csv","","null","resources/images/coin2.png","null","",NA,NA,NA,NA,""
"image-keyboard-response",500,592154,"0.0-3.163-0.163","k6ogbxgazwux52s",304,"169.csv","","645","resources/trios/L2T2A2.jpg","37","restless",0.4,0.2,0.6,0.731170647790624,"false"
"image-keyboard-response",501,592556,"0.0-3.163-1.163","k6ogbxgazwux52s",304,"169.csv","","null","resources/maskTrios/L2BB.jpg","null","",NA,NA,NA,NA,""
"image-keyboard-response",502,593759,"0.0-3.163-2.163","k6ogbxgazwux52s",304,"169.csv","","null","resources/images/fishbone.png","null","",NA,NA,NA,NA,""
"image-keyboard-response",503,594974,"0.0-3.164-0.164","k6ogbxgazwux52s",304,"169.csv","","1214","resources/trios/L1T2A3.jpg","37","restless",0.4,0.2,0.6,0.71474068068103,"false"
"image-keyboard-response",504,595376,"0.0-3.164-1.164","k6ogbxgazwux52s",304,"169.csv","","null","resources/maskTrios/L1BB.jpg","null","",NA,NA,NA,NA,""
"image-keyboard-response",505,596578,"0.0-3.164-2.164","k6ogbxgazwux52s",304,"169.csv","","null","resources/images/fishbone.png","null","",NA,NA,NA,NA,""
"image-keyboard-response",506,597126,"0.0-3.165-0.165","k6ogbxgazwux52s",304,"169.csv","","547","resources/trios/L1T1A3.jpg","38","restless",0.4,0.2,0.6,0.700548861691294,"false"
"image-keyboard-response",507,597529,"0.0-3.165-1.165","k6ogbxgazwux52s",304,"169.csv","","null","resources/maskTrios/BT1B.jpg","null","",NA,NA,NA,NA,""
"image-keyboard-response",508,598732,"0.0-3.165-2.165","k6ogbxgazwux52s",304,"169.csv","","null","resources/images/fishbone.png","null","",NA,NA,NA,NA,""
"image-keyboard-response",509,599320,"0.0-3.166-0.166","k6ogbxgazwux52s",304,"169.csv","","586.9999999998836","resources/trios/L1T2A2.jpg","37","restless",0.4,0.2,0.6,0.327866756120407,"true"
"image-keyboard-response",510,599722,"0.0-3.166-1.166","k6ogbxgazwux52s",304,"169.csv","","null","resources/maskTrios/L1BB.jpg","null","",NA,NA,NA,NA,""
"image-keyboard-response",511,600925,"0.0-3.166-2.166","k6ogbxgazwux52s",304,"169.csv","","null","resources/images/coin2.png","null","",NA,NA,NA,NA,""
"image-keyboard-response",512,601814,"0.0-3.167-0.167","k6ogbxgazwux52s",304,"169.csv","","888","resources/trios/L2T2A2.jpg","37","restless",0.4,0.2,0.6,0.776692920713225,"false"
"image-keyboard-response",513,602216,"0.0-3.167-1.167","k6ogbxgazwux52s",304,"169.csv","","null","resources/maskTrios/L2BB.jpg","null","",NA,NA,NA,NA,""
"image-keyboard-response",514,603418,"0.0-3.167-2.167","k6ogbxgazwux52s",304,"169.csv","","null","resources/images/fishbone.png","null","",NA,NA,NA,NA,""
"image-keyboard-response",515,604009,"0.0-3.168-0.168","k6ogbxgazwux52s",304,"169.csv","","589","resources/trios/L1T1A2.jpg","38","restless",0.3,0.2,0.6,0.283651621247581,"false"
"image-keyboard-response",516,604411,"0.0-3.168-1.168","k6ogbxgazwux52s",304,"169.csv","","null","resources/maskTrios/BT1B.jpg","null","",NA,NA,NA,NA,""
"image-keyboard-response",517,605613,"0.0-3.168-2.168","k6ogbxgazwux52s",304,"169.csv","","null","resources/images/fishbone.png","null","",NA,NA,NA,NA,""
"image-keyboard-response",518,606455,"0.0-3.169-0.169","k6ogbxgazwux52s",304,"169.csv","","841","resources/trios/L2T2A2.jpg","38","restless",0.3,0.2,0.6,0.150695264145515,"true"
"image-keyboard-response",519,606858,"0.0-3.169-1.169","k6ogbxgazwux52s",304,"169.csv","","null","resources/maskTrios/BT2B.jpg","null","",NA,NA,NA,NA,""
"image-keyboard-response",520,608060,"0.0-3.169-2.169","k6ogbxgazwux52s",304,"169.csv","","null","resources/images/coin2.png","null","",NA,NA,NA,NA,""
"image-keyboard-response",521,610688,"0.0-3.170-0.170","k6ogbxgazwux52s",304,"169.csv","","2626","resources/trios/L2T1A2.jpg","38","restless",0.3,0.1,0.6,0.468462850501233,"false"
"image-keyboard-response",522,611090,"0.0-3.170-1.170","k6ogbxgazwux52s",304,"169.csv","","null","resources/maskTrios/BT1B.jpg","null","",NA,NA,NA,NA,""
"image-keyboard-response",523,612292,"0.0-3.170-2.170","k6ogbxgazwux52s",304,"169.csv","","null","resources/images/fishbone.png","null","",NA,NA,NA,NA,""
"image-keyboard-response",524,613792,"0.0-3.171-0.171","k6ogbxgazwux52s",304,"169.csv","","1497.0000000001164","resources/trios/L1T1A3.jpg","37","restless",0.3,0.1,0.6,0.579264391372408,"false"
"image-keyboard-response",525,614194,"0.0-3.171-1.171","k6ogbxgazwux52s",304,"169.csv","","null","resources/maskTrios/L1BB.jpg","null","",NA,NA,NA,NA,""
"image-keyboard-response",526,615396,"0.0-3.171-2.171","k6ogbxgazwux52s",304,"169.csv","","null","resources/images/fishbone.png","null","",NA,NA,NA,NA,""
"image-keyboard-response",527,616383,"0.0-3.172-0.172","k6ogbxgazwux52s",304,"169.csv","","985","resources/trios/L1T2A3.jpg","37","restless",0.3,0.1,0.6,0.254445400300108,"true"
"image-keyboard-response",528,616788,"0.0-3.172-1.172","k6ogbxgazwux52s",304,"169.csv","","null","resources/maskTrios/L1BB.jpg","null","",NA,NA,NA,NA,""
"image-keyboard-response",529,617991,"0.0-3.172-2.172","k6ogbxgazwux52s",304,"169.csv","","null","resources/images/coin2.png","null","",NA,NA,NA,NA,""
"image-keyboard-response",530,621434,"0.0-3.173-0.173","k6ogbxgazwux52s",304,"169.csv","","3441","resources/trios/L1T1A3.jpg","38","restless",0.2,0.1,0.6,0.674054922127764,"false"
"image-keyboard-response",531,621836,"0.0-3.173-1.173","k6ogbxgazwux52s",304,"169.csv","","null","resources/maskTrios/BT1B.jpg","null","",NA,NA,NA,NA,""
"image-keyboard-response",532,623039,"0.0-3.173-2.173","k6ogbxgazwux52s",304,"169.csv","","null","resources/images/fishbone.png","null","",NA,NA,NA,NA,""
"image-keyboard-response",533,624292,"0.0-3.174-0.174","k6ogbxgazwux52s",304,"169.csv","","1251.0000000001164","resources/trios/L1T2A2.jpg","38","restless",0.2,0.1,0.6,0.66037863088721,"false"
"image-keyboard-response",534,624693,"0.0-3.174-1.174","k6ogbxgazwux52s",304,"169.csv","","null","resources/maskTrios/BT2B.jpg","null","",NA,NA,NA,NA,""
"image-keyboard-response",535,625895,"0.0-3.174-2.174","k6ogbxgazwux52s",304,"169.csv","","null","resources/images/fishbone.png","null","",NA,NA,NA,NA,""
"image-keyboard-response",536,626758,"0.0-3.175-0.175","k6ogbxgazwux52s",304,"169.csv","","861","resources/trios/L2T2A3.jpg","37","restless",0.2,0.2,0.5,0.0101729062631386,"true"
"image-keyboard-response",537,627160,"0.0-3.175-1.175","k6ogbxgazwux52s",304,"169.csv","","null","resources/maskTrios/L2BB.jpg","null","",NA,NA,NA,NA,""
"image-keyboard-response",538,628363,"0.0-3.175-2.175","k6ogbxgazwux52s",304,"169.csv","","null","resources/images/coin2.png","null","",NA,NA,NA,NA,""
"image-keyboard-response",539,629055,"0.0-3.176-0.176","k6ogbxgazwux52s",304,"169.csv","","690","resources/trios/L1T1A2.jpg","37","restless",0.2,0.2,0.5,0.10436996788181,"true"
"image-keyboard-response",540,629456,"0.0-3.176-1.176","k6ogbxgazwux52s",304,"169.csv","","null","resources/maskTrios/L1BB.jpg","null","",NA,NA,NA,NA,""
"image-keyboard-response",541,630659,"0.0-3.176-2.176","k6ogbxgazwux52s",304,"169.csv","","null","resources/images/coin2.png","null","",NA,NA,NA,NA,""
"image-keyboard-response",542,631369,"0.0-3.177-0.177","k6ogbxgazwux52s",304,"169.csv","","709","resources/trios/L2T1A3.jpg","37","restless",0.2,0.2,0.5,0.467390099924062,"false"
"image-keyboard-response",543,631771,"0.0-3.177-1.177","k6ogbxgazwux52s",304,"169.csv","","null","resources/maskTrios/L2BB.jpg","null","",NA,NA,NA,NA,""
"image-keyboard-response",544,632974,"0.0-3.177-2.177","k6ogbxgazwux52s",304,"169.csv","","null","resources/images/fishbone.png","null","",NA,NA,NA,NA,""
"image-keyboard-response",545,633676,"0.0-3.178-0.178","k6ogbxgazwux52s",304,"169.csv","","700","resources/trios/L1T2A2.jpg","38","restless",0.1,0.2,0.5,0.124145957186453,"true"
"image-keyboard-response",546,634078,"0.0-3.178-1.178","k6ogbxgazwux52s",304,"169.csv","","null","resources/maskTrios/BT2B.jpg","null","",NA,NA,NA,NA,""
"image-keyboard-response",547,635281,"0.0-3.178-2.178","k6ogbxgazwux52s",304,"169.csv","","null","resources/images/coin2.png","null","",NA,NA,NA,NA,""
"image-keyboard-response",548,636430,"0.0-3.179-0.179","k6ogbxgazwux52s",304,"169.csv","","1148.0000000001164","resources/trios/L1T2A3.jpg","37","restless",0.1,0.2,0.5,0.600747499139261,"false"
"image-keyboard-response",549,636832,"0.0-3.179-1.179","k6ogbxgazwux52s",304,"169.csv","","null","resources/maskTrios/L1BB.jpg","null","",NA,NA,NA,NA,""
"image-keyboard-response",550,638035,"0.0-3.179-2.179","k6ogbxgazwux52s",304,"169.csv","","null","resources/images/fishbone.png","null","",NA,NA,NA,NA,""
"image-keyboard-response",551,641504,"0.0-3.180-0.180","k6ogbxgazwux52s",304,"169.csv","","3467.9999999998836","resources/trios/L2T1A3.jpg","38","restless",0.1,0.2,0.5,0.964036363581,"false"
"image-keyboard-response",552,641906,"0.0-3.180-1.180","k6ogbxgazwux52s",304,"169.csv","","null","resources/maskTrios/BT1B.jpg","null","",NA,NA,NA,NA,""
"image-keyboard-response",553,643109,"0.0-3.180-2.180","k6ogbxgazwux52s",304,"169.csv","","null","resources/images/fishbone.png","null","",NA,NA,NA,NA,""
"image-keyboard-response",554,643543,"0.0-3.181-0.181","k6ogbxgazwux52s",304,"169.csv","","432","resources/trios/L2T1A2.jpg","37","restless",0.1,0.2,0.5,0.0926091279176982,"true"
"image-keyboard-response",555,643945,"0.0-3.181-1.181","k6ogbxgazwux52s",304,"169.csv","","null","resources/maskTrios/L2BB.jpg","null","",NA,NA,NA,NA,""
"image-keyboard-response",556,645150,"0.0-3.181-2.181","k6ogbxgazwux52s",304,"169.csv","","null","resources/images/coin2.png","null","",NA,NA,NA,NA,""
"image-keyboard-response",557,646432,"0.0-3.182-0.182","k6ogbxgazwux52s",304,"169.csv","","1280","resources/trios/L1T2A3.jpg","37","restless",0.1,0.2,0.5,0.0719413053695614,"true"
"image-keyboard-response",558,646834,"0.0-3.182-1.182","k6ogbxgazwux52s",304,"169.csv","","null","resources/maskTrios/L1BB.jpg","null","",NA,NA,NA,NA,""
"image-keyboard-response",559,648037,"0.0-3.182-2.182","k6ogbxgazwux52s",304,"169.csv","","null","resources/images/coin2.png","null","",NA,NA,NA,NA,""
"image-keyboard-response",560,649052,"0.0-3.183-0.183","k6ogbxgazwux52s",304,"169.csv","","1014","resources/trios/L1T2A2.jpg","38","restless",0.1,0.1,0.5,0.26624397119509,"false"
"image-keyboard-response",561,649454,"0.0-3.183-1.183","k6ogbxgazwux52s",304,"169.csv","","null","resources/maskTrios/BT2B.jpg","null","",NA,NA,NA,NA,""
"image-keyboard-response",562,650657,"0.0-3.183-2.183","k6ogbxgazwux52s",304,"169.csv","","null","resources/images/fishbone.png","null","",NA,NA,NA,NA,""
"image-keyboard-response",563,651883,"0.0-3.184-0.184","k6ogbxgazwux52s",304,"169.csv","","1221.9999999998836","resources/trios/L1T1A3.jpg","37","restless",0.1,0.1,0.5,0.767101904142173,"false"
"image-keyboard-response",564,652285,"0.0-3.184-1.184","k6ogbxgazwux52s",304,"169.csv","","null","resources/maskTrios/L1BB.jpg","null","",NA,NA,NA,NA,""
"image-keyboard-response",565,653487,"0.0-3.184-2.184","k6ogbxgazwux52s",304,"169.csv","","null","resources/images/fishbone.png","null","",NA,NA,NA,NA,""
"image-keyboard-response",566,654182,"0.0-3.185-0.185","k6ogbxgazwux52s",304,"169.csv","","693","resources/trios/L1T1A3.jpg","38","restless",0.1,0.1,0.5,0.407794921432544,"false"
"image-keyboard-response",567,654584,"0.0-3.185-1.185","k6ogbxgazwux52s",304,"169.csv","","null","resources/maskTrios/BT1B.jpg","null","",NA,NA,NA,NA,""
"image-keyboard-response",568,655786,"0.0-3.185-2.185","k6ogbxgazwux52s",304,"169.csv","","null","resources/images/fishbone.png","null","",NA,NA,NA,NA,""
"image-keyboard-response",569,656440,"0.0-3.186-0.186","k6ogbxgazwux52s",304,"169.csv","","651","resources/trios/L1T1A3.jpg","37","restless",0.1,0.1,0.5,0.722558992475096,"false"
"image-keyboard-response",570,656842,"0.0-3.186-1.186","k6ogbxgazwux52s",304,"169.csv","","null","resources/maskTrios/L1BB.jpg","null","",NA,NA,NA,NA,""
"image-keyboard-response",571,658045,"0.0-3.186-2.186","k6ogbxgazwux52s",304,"169.csv","","null","resources/images/fishbone.png","null","",NA,NA,NA,NA,""
"image-keyboard-response",572,662954,"0.0-3.187-0.187","k6ogbxgazwux52s",304,"169.csv","","4907","resources/trios/L1T1A3.jpg","38","restless",0.1,0.1,0.5,0.533558347798703,"false"
"image-keyboard-response",573,663355,"0.0-3.187-1.187","k6ogbxgazwux52s",304,"169.csv","","null","resources/maskTrios/BT1B.jpg","null","",NA,NA,NA,NA,""
"image-keyboard-response",574,664558,"0.0-3.187-2.187","k6ogbxgazwux52s",304,"169.csv","","null","resources/images/fishbone.png","null","",NA,NA,NA,NA,""
"image-keyboard-response",575,665938,"0.0-3.188-0.188","k6ogbxgazwux52s",304,"169.csv","","1379","resources/trios/L1T2A3.jpg","37","restless",0.1,0.1,0.5,0.877556749254878,"false"
"image-keyboard-response",576,666341,"0.0-3.188-1.188","k6ogbxgazwux52s",304,"169.csv","","null","resources/maskTrios/L1BB.jpg","null","",NA,NA,NA,NA,""
"image-keyboard-response",577,667543,"0.0-3.188-2.188","k6ogbxgazwux52s",304,"169.csv","","null","resources/images/fishbone.png","null","",NA,NA,NA,NA,""
"image-keyboard-response",578,669975,"0.0-3.189-0.189","k6ogbxgazwux52s",304,"169.csv","","2430","resources/trios/L2T1A3.jpg","39","restless",0.1,0.1,0.5,0.287833361316138,"true"
"image-keyboard-response",579,670378,"0.0-3.189-1.189","k6ogbxgazwux52s",304,"169.csv","","null","resources/maskTrios/BBA3.jpg","null","",NA,NA,NA,NA,""
"image-keyboard-response",580,671580,"0.0-3.189-2.189","k6ogbxgazwux52s",304,"169.csv","","null","resources/images/coin2.png","null","",NA,NA,NA,NA,""
"image-keyboard-response",581,672633,"0.0-3.190-0.190","k6ogbxgazwux52s",304,"169.csv","","1051","resources/trios/L1T2A3.jpg","39","restless",0.1,0.1,0.5,0.646358638604507,"false"
"image-keyboard-response",582,673036,"0.0-3.190-1.190","k6ogbxgazwux52s",304,"169.csv","","null","resources/maskTrios/BBA3.jpg","null","",NA,NA,NA,NA,""
"image-keyboard-response",583,674239,"0.0-3.190-2.190","k6ogbxgazwux52s",304,"169.csv","","null","resources/images/fishbone.png","null","",NA,NA,NA,NA,""
"image-keyboard-response",584,679622,"0.0-3.191-0.191","k6ogbxgazwux52s",304,"169.csv","","5381","resources/trios/L1T1A2.jpg","37","restless",0.1,0.1,0.5,0.547582445318937,"false"
"image-keyboard-response",585,680025,"0.0-3.191-1.191","k6ogbxgazwux52s",304,"169.csv","","null","resources/maskTrios/L1BB.jpg","null","",NA,NA,NA,NA,""
"image-keyboard-response",586,681227,"0.0-3.191-2.191","k6ogbxgazwux52s",304,"169.csv","","null","resources/images/fishbone.png","null","",NA,NA,NA,NA,""
"image-keyboard-response",587,681944,"0.0-3.192-0.192","k6ogbxgazwux52s",304,"169.csv","","715","resources/trios/L1T1A2.jpg","38","restless",0.1,0.1,0.5,0.192994512834507,"false"
"image-keyboard-response",588,682347,"0.0-3.192-1.192","k6ogbxgazwux52s",304,"169.csv","","null","resources/maskTrios/BT1B.jpg","null","",NA,NA,NA,NA,""
"image-keyboard-response",589,683549,"0.0-3.192-2.192","k6ogbxgazwux52s",304,"169.csv","","null","resources/images/fishbone.png","null","",NA,NA,NA,NA,""
"image-keyboard-response",590,683981,"0.0-3.193-0.193","k6ogbxgazwux52s",304,"169.csv","","429","resources/trios/L1T2A2.jpg","39","restless",0.1,0.1,0.5,0.082693366117,"true"
"image-keyboard-response",591,684383,"0.0-3.193-1.193","k6ogbxgazwux52s",304,"169.csv","","null","resources/maskTrios/BBA2.jpg","null","",NA,NA,NA,NA,""
"image-keyboard-response",592,685586,"0.0-3.193-2.193","k6ogbxgazwux52s",304,"169.csv","","null","resources/images/coin2.png","null","",NA,NA,NA,NA,""
"image-keyboard-response",593,687449,"0.0-3.194-0.194","k6ogbxgazwux52s",304,"169.csv","","1861","resources/trios/L2T1A3.jpg","39","restless",0.1,0.2,0.5,0.132270538733673,"true"
"image-keyboard-response",594,687852,"0.0-3.194-1.194","k6ogbxgazwux52s",304,"169.csv","","null","resources/maskTrios/BBA3.jpg","null","",NA,NA,NA,NA,""
"image-keyboard-response",595,689054,"0.0-3.194-2.194","k6ogbxgazwux52s",304,"169.csv","","null","resources/images/coin2.png","null","",NA,NA,NA,NA,""
"image-keyboard-response",596,690612,"0.0-3.195-0.195","k6ogbxgazwux52s",304,"169.csv","","1556","resources/trios/L2T1A3.jpg","39","restless",0.1,0.2,0.6,0.9984760344948,"false"
"image-keyboard-response",597,691013,"0.0-3.195-1.195","k6ogbxgazwux52s",304,"169.csv","","null","resources/maskTrios/BBA3.jpg","null","",NA,NA,NA,NA,""
"image-keyboard-response",598,692216,"0.0-3.195-2.195","k6ogbxgazwux52s",304,"169.csv","","null","resources/images/fishbone.png","null","",NA,NA,NA,NA,""
"image-keyboard-response",599,705925,"0.0-3.196-0.196","k6ogbxgazwux52s",304,"169.csv","","13708","resources/trios/L1T1A2.jpg","38","restless",0.1,0.2,0.6,0.606050800010605,"false"
"image-keyboard-response",600,706329,"0.0-3.196-1.196","k6ogbxgazwux52s",304,"169.csv","","null","resources/maskTrios/BT1B.jpg","null","",NA,NA,NA,NA,""
"image-keyboard-response",601,707532,"0.0-3.196-2.196","k6ogbxgazwux52s",304,"169.csv","","null","resources/images/fishbone.png","null","",NA,NA,NA,NA,""
"image-keyboard-response",602,708226,"0.0-3.197-0.197","k6ogbxgazwux52s",304,"169.csv","","692","resources/trios/L2T2A2.jpg","37","restless",0.1,0.3,0.6,0.620918016584013,"false"
"image-keyboard-response",603,708629,"0.0-3.197-1.197","k6ogbxgazwux52s",304,"169.csv","","null","resources/maskTrios/L2BB.jpg","null","",NA,NA,NA,NA,""
"image-keyboard-response",604,709831,"0.0-3.197-2.197","k6ogbxgazwux52s",304,"169.csv","","null","resources/images/fishbone.png","null","",NA,NA,NA,NA,""
"image-keyboard-response",605,711308,"0.0-3.198-0.198","k6ogbxgazwux52s",304,"169.csv","","1475","resources/trios/L1T2A2.jpg","37","restless",0.1,0.3,0.6,0.839629211074376,"false"
"image-keyboard-response",606,711713,"0.0-3.198-1.198","k6ogbxgazwux52s",304,"169.csv","","null","resources/maskTrios/L1BB.jpg","null","",NA,NA,NA,NA,""
"image-keyboard-response",607,712915,"0.0-3.198-2.198","k6ogbxgazwux52s",304,"169.csv","","null","resources/images/fishbone.png","null","",NA,NA,NA,NA,""
"image-keyboard-response",608,722899,"0.0-3.199-0.199","k6ogbxgazwux52s",304,"169.csv","","9981","resources/trios/L2T1A2.jpg","37","restless",0.1,0.3,0.6,0.101163038556828,"false"
"image-keyboard-response",609,723302,"0.0-3.199-1.199","k6ogbxgazwux52s",304,"169.csv","","null","resources/maskTrios/L2BB.jpg","null","",NA,NA,NA,NA,""
"image-keyboard-response",610,724505,"0.0-3.199-2.199","k6ogbxgazwux52s",304,"169.csv","","null","resources/images/fishbone.png","null","",NA,NA,NA,NA,""
"image-keyboard-response",611,724549,"0.0-3.200-0.200","k6ogbxgazwux52s",304,"169.csv","","43","resources/trios/L1T2A3.jpg","38","restless",0.1,0.3,0.6,0.334496471260441,"false"
"image-keyboard-response",612,724951,"0.0-3.200-1.200","k6ogbxgazwux52s",304,"169.csv","","null","resources/maskTrios/BT2B.jpg","null","",NA,NA,NA,NA,""
"image-keyboard-response",613,726154,"0.0-3.200-2.200","k6ogbxgazwux52s",304,"169.csv","","null","resources/images/fishbone.png","null","",NA,NA,NA,NA,""
"image-keyboard-response",614,727143,"0.0-3.201-0.201","k6ogbxgazwux52s",304,"169.csv","","988","resources/trios/L2T2A3.jpg","37","restless",0.1,0.3,0.6,0.207732710497219,"false"
"image-keyboard-response",615,727545,"0.0-3.201-1.201","k6ogbxgazwux52s",304,"169.csv","","null","resources/maskTrios/L2BB.jpg","null","",NA,NA,NA,NA,""
"image-keyboard-response",616,728747,"0.0-3.201-2.201","k6ogbxgazwux52s",304,"169.csv","","null","resources/images/fishbone.png","null","",NA,NA,NA,NA,""
