"trial_type","trial_index","time_elapsed","internal_node_id","subject","participantCode","walkNumber","success","rt","stimulus","key_press","test_part","leftProb","midProb","rightProb","generatedNum","correct"
"pavlovia",0,1151,"0.0-0.0","hgvrs6y69n1ppsq",220,"167.csv","","","","","",NA,NA,NA,NA,""
"fullscreen",1,5521,"0.0-1.0","hgvrs6y69n1ppsq",220,"167.csv","true","","","","",NA,NA,NA,NA,""
"html-keyboard-response",2,40450,"0.0-2.0-0.0","hgvrs6y69n1ppsq",220,"167.csv","","34925.7000002861","<p><font size='6'>Arrrgh!</p></font><p>Can you be the best pirate? Try to find lots of gold! But beware, some islands have more gold than others, and over time, the island with the most gold may change. Can YOU figure it out? </p><font size='6'>GOOD LUCK, CAPTAIN!!!</font><p>Press any key to begin</p>","74","",NA,NA,NA,NA,""
"image-keyboard-response",3,43453,"0.0-2.0-1.0","hgvrs6y69n1ppsq",220,"167.csv","","null","resources/image_sets/111.png","null","",NA,NA,NA,NA,""
"image-keyboard-response",4,52031,"0.0-2.0-2.0","hgvrs6y69n1ppsq",220,"167.csv","","8575.599999904633","resources/image_sets/left_highlight.png","37","",NA,NA,NA,NA,""
"image-keyboard-response",5,54475,"0.0-2.0-3.0","hgvrs6y69n1ppsq",220,"167.csv","","2441.5999999046326","resources/image_sets/mid_highlight.png","38","",NA,NA,NA,NA,""
"image-keyboard-response",6,56630,"0.0-2.0-4.0","hgvrs6y69n1ppsq",220,"167.csv","","2152.5","resources/image_sets/right_highlight.png","39","",NA,NA,NA,NA,""
"image-keyboard-response",7,64782,"0.0-2.0-5.0","hgvrs6y69n1ppsq",220,"167.csv","","8150.5","resources/image_sets/111.png","13","",NA,NA,NA,NA,""
"image-keyboard-response",8,67817,"0.0-2.0-6.0","hgvrs6y69n1ppsq",220,"167.csv","","3031.9000000953674","resources/images/coin2.png","13","",NA,NA,NA,NA,""
"image-keyboard-response",9,69722,"0.0-2.0-7.0","hgvrs6y69n1ppsq",220,"167.csv","","1903","resources/images/fishbone.png","13","",NA,NA,NA,NA,""
"html-keyboard-response",10,77374,"0.0-2.0-8.0","hgvrs6y69n1ppsq",220,"167.csv","","7650.10000038147","<p>Your first journey will be a long one, but you will get a well deserved break at the end</p><p>After the break you will have four more journeys, but each will be much shorter than the first, and you will have breaks in between each</p><p>Press Enter to begin</p>","13","",NA,NA,NA,NA,""
"image-keyboard-response",11,84020,"0.0-3.0-0.0","hgvrs6y69n1ppsq",220,"167.csv","","6643.5","resources/trios/L4T4A2.jpg","39","restless",0.9,0.3,0.7,0.579573880359182,"true"
"image-keyboard-response",12,84429,"0.0-3.0-1.0","hgvrs6y69n1ppsq",220,"167.csv","","null","resources/maskTrios/BBA2.jpg","null","",NA,NA,NA,NA,""
"image-keyboard-response",13,85637,"0.0-3.0-2.0","hgvrs6y69n1ppsq",220,"167.csv","","null","resources/images/coin2.png","null","",NA,NA,NA,NA,""
"image-keyboard-response",14,90317,"0.0-3.1-0.1","hgvrs6y69n1ppsq",220,"167.csv","","4677.700000286102","resources/trios/L2T4A1.jpg","37","restless",0.9,0.3,0.8,0.597809419327912,"true"
"image-keyboard-response",15,90723,"0.0-3.1-1.1","hgvrs6y69n1ppsq",220,"167.csv","","null","resources/maskTrios/L2BB.jpg","null","",NA,NA,NA,NA,""
"image-keyboard-response",16,91928,"0.0-3.1-2.1","hgvrs6y69n1ppsq",220,"167.csv","","null","resources/images/coin2.png","null","",NA,NA,NA,NA,""
"image-keyboard-response",17,98068,"0.0-3.2-0.2","hgvrs6y69n1ppsq",220,"167.csv","","6137.400000095367","resources/trios/L4T4A2.jpg","37","restless",0.9,0.3,0.8,0.157157897804848,"true"
"image-keyboard-response",18,98475,"0.0-3.2-1.2","hgvrs6y69n1ppsq",220,"167.csv","","null","resources/maskTrios/L4BB.jpg","null","",NA,NA,NA,NA,""
"image-keyboard-response",19,99678,"0.0-3.2-2.2","hgvrs6y69n1ppsq",220,"167.csv","","null","resources/images/coin2.png","null","",NA,NA,NA,NA,""
"image-keyboard-response",20,103369,"0.0-3.3-0.3","hgvrs6y69n1ppsq",220,"167.csv","","3688.5999999046326","resources/trios/L4T4A1.jpg","39","restless",0.9,0.3,0.8,0.62181649103292,"true"
"image-keyboard-response",21,103776,"0.0-3.3-1.3","hgvrs6y69n1ppsq",220,"167.csv","","null","resources/maskTrios/BBA1.jpg","null","",NA,NA,NA,NA,""
"image-keyboard-response",22,104983,"0.0-3.3-2.3","hgvrs6y69n1ppsq",220,"167.csv","","null","resources/images/coin2.png","null","",NA,NA,NA,NA,""
"image-keyboard-response",23,109207,"0.0-3.4-0.4","hgvrs6y69n1ppsq",220,"167.csv","","4221.199999809265","resources/trios/L2T2A2.jpg","37","restless",0.8,0.3,0.8,0.429072316142467,"true"
"image-keyboard-response",24,109614,"0.0-3.4-1.4","hgvrs6y69n1ppsq",220,"167.csv","","null","resources/maskTrios/L2BB.jpg","null","",NA,NA,NA,NA,""
"image-keyboard-response",25,110821,"0.0-3.4-2.4","hgvrs6y69n1ppsq",220,"167.csv","","null","resources/images/coin2.png","null","",NA,NA,NA,NA,""
"image-keyboard-response",26,112844,"0.0-3.5-0.5","hgvrs6y69n1ppsq",220,"167.csv","","2020.3999996185303","resources/trios/L4T4A1.jpg","37","restless",0.8,0.4,0.8,0.073404198891629,"true"
"image-keyboard-response",27,113251,"0.0-3.5-1.5","hgvrs6y69n1ppsq",220,"167.csv","","null","resources/maskTrios/L4BB.jpg","null","",NA,NA,NA,NA,""
"image-keyboard-response",28,114453,"0.0-3.5-2.5","hgvrs6y69n1ppsq",220,"167.csv","","null","resources/images/coin2.png","null","",NA,NA,NA,NA,""
"image-keyboard-response",29,115004,"0.0-3.6-0.6","hgvrs6y69n1ppsq",220,"167.csv","","548.1999998092651","resources/trios/L2T2A2.jpg","39","restless",0.8,0.4,0.8,0.32659623997803,"true"
"image-keyboard-response",30,115409,"0.0-3.6-1.6","hgvrs6y69n1ppsq",220,"167.csv","","null","resources/maskTrios/BBA2.jpg","null","",NA,NA,NA,NA,""
"image-keyboard-response",31,116616,"0.0-3.6-2.6","hgvrs6y69n1ppsq",220,"167.csv","","null","resources/images/coin2.png","null","",NA,NA,NA,NA,""
"image-keyboard-response",32,117058,"0.0-3.7-0.7","hgvrs6y69n1ppsq",220,"167.csv","","440","resources/trios/L2T4A1.jpg","37","restless",0.7,0.4,0.8,0.816284821644048,"false"
"image-keyboard-response",33,117464,"0.0-3.7-1.7","hgvrs6y69n1ppsq",220,"167.csv","","null","resources/maskTrios/L2BB.jpg","null","",NA,NA,NA,NA,""
"image-keyboard-response",34,118671,"0.0-3.7-2.7","hgvrs6y69n1ppsq",220,"167.csv","","null","resources/images/fishbone.png","null","",NA,NA,NA,NA,""
"image-keyboard-response",35,119865,"0.0-3.8-0.8","hgvrs6y69n1ppsq",220,"167.csv","","1192.4000000953674","resources/trios/L4T2A2.jpg","37","restless",0.7,0.3,0.8,0.0924407018243101,"true"
"image-keyboard-response",36,120271,"0.0-3.8-1.8","hgvrs6y69n1ppsq",220,"167.csv","","null","resources/maskTrios/L4BB.jpg","null","",NA,NA,NA,NA,""
"image-keyboard-response",37,121476,"0.0-3.8-2.8","hgvrs6y69n1ppsq",220,"167.csv","","null","resources/images/coin2.png","null","",NA,NA,NA,NA,""
"image-keyboard-response",38,122388,"0.0-3.9-0.9","hgvrs6y69n1ppsq",220,"167.csv","","909.5999999046326","resources/trios/L4T2A2.jpg","39","restless",0.6,0.3,0.8,0.010144838779691,"true"
"image-keyboard-response",39,122791,"0.0-3.9-1.9","hgvrs6y69n1ppsq",220,"167.csv","","null","resources/maskTrios/BBA2.jpg","null","",NA,NA,NA,NA,""
"image-keyboard-response",40,123999,"0.0-3.9-2.9","hgvrs6y69n1ppsq",220,"167.csv","","null","resources/images/coin2.png","null","",NA,NA,NA,NA,""
"image-keyboard-response",41,124618,"0.0-3.10-0.10","hgvrs6y69n1ppsq",220,"167.csv","","616.5999999046326","resources/trios/L4T4A1.jpg","37","restless",0.6,0.3,0.8,0.520711298062192,"true"
"image-keyboard-response",42,125024,"0.0-3.10-1.10","hgvrs6y69n1ppsq",220,"167.csv","","null","resources/maskTrios/L4BB.jpg","null","",NA,NA,NA,NA,""
"image-keyboard-response",43,126231,"0.0-3.10-2.10","hgvrs6y69n1ppsq",220,"167.csv","","null","resources/images/coin2.png","null","",NA,NA,NA,NA,""
"image-keyboard-response",44,126994,"0.0-3.11-0.11","hgvrs6y69n1ppsq",220,"167.csv","","761.5","resources/trios/L2T4A2.jpg","37","restless",0.6,0.3,0.8,0.658936379067468,"false"
"image-keyboard-response",45,127401,"0.0-3.11-1.11","hgvrs6y69n1ppsq",220,"167.csv","","null","resources/maskTrios/L2BB.jpg","null","",NA,NA,NA,NA,""
"image-keyboard-response",46,128608,"0.0-3.11-2.11","hgvrs6y69n1ppsq",220,"167.csv","","null","resources/images/fishbone.png","null","",NA,NA,NA,NA,""
"image-keyboard-response",47,129373,"0.0-3.12-0.12","hgvrs6y69n1ppsq",220,"167.csv","","762.2999997138977","resources/trios/L2T2A2.jpg","39","restless",0.6,0.3,0.8,0.362192321043579,"true"
"image-keyboard-response",48,129780,"0.0-3.12-1.12","hgvrs6y69n1ppsq",220,"167.csv","","null","resources/maskTrios/BBA2.jpg","null","",NA,NA,NA,NA,""
"image-keyboard-response",49,130987,"0.0-3.12-2.12","hgvrs6y69n1ppsq",220,"167.csv","","null","resources/images/coin2.png","null","",NA,NA,NA,NA,""
"image-keyboard-response",50,134270,"0.0-3.13-0.13","hgvrs6y69n1ppsq",220,"167.csv","","3280.699999809265","resources/trios/L4T2A1.jpg","37","restless",0.6,0.3,0.8,0.520590892339598,"true"
"image-keyboard-response",51,134672,"0.0-3.13-1.13","hgvrs6y69n1ppsq",220,"167.csv","","null","resources/maskTrios/L4BB.jpg","null","",NA,NA,NA,NA,""
"image-keyboard-response",52,135875,"0.0-3.13-2.13","hgvrs6y69n1ppsq",220,"167.csv","","null","resources/images/coin2.png","null","",NA,NA,NA,NA,""
"image-keyboard-response",53,139989,"0.0-3.14-0.14","hgvrs6y69n1ppsq",220,"167.csv","","4112.099999904633","resources/trios/L2T2A2.jpg","39","restless",0.6,0.3,0.8,0.197028902896615,"true"
"image-keyboard-response",54,140397,"0.0-3.14-1.14","hgvrs6y69n1ppsq",220,"167.csv","","null","resources/maskTrios/BBA2.jpg","null","",NA,NA,NA,NA,""
"image-keyboard-response",55,141604,"0.0-3.14-2.14","hgvrs6y69n1ppsq",220,"167.csv","","null","resources/images/coin2.png","null","",NA,NA,NA,NA,""
"image-keyboard-response",56,144869,"0.0-3.15-0.15","hgvrs6y69n1ppsq",220,"167.csv","","3263.199999809265","resources/trios/L4T2A2.jpg","37","restless",0.6,0.3,0.8,0.933314063937037,"false"
"image-keyboard-response",57,145277,"0.0-3.15-1.15","hgvrs6y69n1ppsq",220,"167.csv","","null","resources/maskTrios/L4BB.jpg","null","",NA,NA,NA,NA,""
"image-keyboard-response",58,146484,"0.0-3.15-2.15","hgvrs6y69n1ppsq",220,"167.csv","","null","resources/images/fishbone.png","null","",NA,NA,NA,NA,""
"image-keyboard-response",59,147087,"0.0-3.16-0.16","hgvrs6y69n1ppsq",220,"167.csv","","600.9000000953674","resources/trios/L2T2A1.jpg","37","restless",0.6,0.3,0.8,0.48159994295834,"true"
"image-keyboard-response",60,147490,"0.0-3.16-1.16","hgvrs6y69n1ppsq",220,"167.csv","","null","resources/maskTrios/L2BB.jpg","null","",NA,NA,NA,NA,""
"image-keyboard-response",61,148697,"0.0-3.16-2.16","hgvrs6y69n1ppsq",220,"167.csv","","null","resources/images/coin2.png","null","",NA,NA,NA,NA,""
"image-keyboard-response",62,149787,"0.0-3.17-0.17","hgvrs6y69n1ppsq",220,"167.csv","","1087.0999999046326","resources/trios/L4T2A2.jpg","39","restless",0.6,0.3,0.8,0.842650140162143,"false"
"image-keyboard-response",63,150194,"0.0-3.17-1.17","hgvrs6y69n1ppsq",220,"167.csv","","null","resources/maskTrios/BBA2.jpg","null","",NA,NA,NA,NA,""
"image-keyboard-response",64,151401,"0.0-3.17-2.17","hgvrs6y69n1ppsq",220,"167.csv","","null","resources/images/fishbone.png","null","",NA,NA,NA,NA,""
"image-keyboard-response",65,153688,"0.0-3.18-0.18","hgvrs6y69n1ppsq",220,"167.csv","","2285.699999809265","resources/trios/L4T4A2.jpg","37","restless",0.5,0.3,0.8,0.375314591384185,"true"
"image-keyboard-response",66,154096,"0.0-3.18-1.18","hgvrs6y69n1ppsq",220,"167.csv","","null","resources/maskTrios/L4BB.jpg","null","",NA,NA,NA,NA,""
"image-keyboard-response",67,155303,"0.0-3.18-2.18","hgvrs6y69n1ppsq",220,"167.csv","","null","resources/images/coin2.png","null","",NA,NA,NA,NA,""
"image-keyboard-response",68,156647,"0.0-3.19-0.19","hgvrs6y69n1ppsq",220,"167.csv","","1342.1999998092651","resources/trios/L4T4A1.jpg","37","restless",0.5,0.3,0.8,0.184198994626447,"true"
"image-keyboard-response",69,157054,"0.0-3.19-1.19","hgvrs6y69n1ppsq",220,"167.csv","","null","resources/maskTrios/L4BB.jpg","null","",NA,NA,NA,NA,""
"image-keyboard-response",70,158260,"0.0-3.19-2.19","hgvrs6y69n1ppsq",220,"167.csv","","null","resources/images/coin2.png","null","",NA,NA,NA,NA,""
"image-keyboard-response",71,161189,"0.0-3.20-0.20","hgvrs6y69n1ppsq",220,"167.csv","","2926.2999997138977","resources/trios/L2T2A2.jpg","37","restless",0.5,0.3,0.8,0.352603200218182,"true"
"image-keyboard-response",72,161596,"0.0-3.20-1.20","hgvrs6y69n1ppsq",220,"167.csv","","null","resources/maskTrios/L2BB.jpg","null","",NA,NA,NA,NA,""
"image-keyboard-response",73,162803,"0.0-3.20-2.20","hgvrs6y69n1ppsq",220,"167.csv","","null","resources/images/coin2.png","null","",NA,NA,NA,NA,""
"image-keyboard-response",74,164132,"0.0-3.21-0.21","hgvrs6y69n1ppsq",220,"167.csv","","1326.9000000953674","resources/trios/L4T2A1.jpg","39","restless",0.5,0.2,0.7,0.494567288120057,"true"
"image-keyboard-response",75,164539,"0.0-3.21-1.21","hgvrs6y69n1ppsq",220,"167.csv","","null","resources/maskTrios/BBA1.jpg","null","",NA,NA,NA,NA,""
"image-keyboard-response",76,165746,"0.0-3.21-2.21","hgvrs6y69n1ppsq",220,"167.csv","","null","resources/images/coin2.png","null","",NA,NA,NA,NA,""
"image-keyboard-response",77,167046,"0.0-3.22-0.22","hgvrs6y69n1ppsq",220,"167.csv","","1298.7000002861023","resources/trios/L2T4A2.jpg","37","restless",0.4,0.3,0.7,0.683182721524175,"false"
"image-keyboard-response",78,167453,"0.0-3.22-1.22","hgvrs6y69n1ppsq",220,"167.csv","","null","resources/maskTrios/L2BB.jpg","null","",NA,NA,NA,NA,""
"image-keyboard-response",79,168659,"0.0-3.22-2.22","hgvrs6y69n1ppsq",220,"167.csv","","null","resources/images/fishbone.png","null","",NA,NA,NA,NA,""
"image-keyboard-response",80,170410,"0.0-3.23-0.23","hgvrs6y69n1ppsq",220,"167.csv","","1749.2999997138977","resources/trios/L2T4A2.jpg","37","restless",0.4,0.3,0.7,0.114221145789559,"true"
"image-keyboard-response",81,170817,"0.0-3.23-1.23","hgvrs6y69n1ppsq",220,"167.csv","","null","resources/maskTrios/L2BB.jpg","null","",NA,NA,NA,NA,""
"image-keyboard-response",82,172024,"0.0-3.23-2.23","hgvrs6y69n1ppsq",220,"167.csv","","null","resources/images/coin2.png","null","",NA,NA,NA,NA,""
"image-keyboard-response",83,173155,"0.0-3.24-0.24","hgvrs6y69n1ppsq",220,"167.csv","","1128.6000003814697","resources/trios/L2T2A1.jpg","39","restless",0.4,0.2,0.7,0.838753990490859,"false"
"image-keyboard-response",84,173557,"0.0-3.24-1.24","hgvrs6y69n1ppsq",220,"167.csv","","null","resources/maskTrios/BBA1.jpg","null","",NA,NA,NA,NA,""
"image-keyboard-response",85,174764,"0.0-3.24-2.24","hgvrs6y69n1ppsq",220,"167.csv","","null","resources/images/fishbone.png","null","",NA,NA,NA,NA,""
"image-keyboard-response",86,176157,"0.0-3.25-0.25","hgvrs6y69n1ppsq",220,"167.csv","","1391.3000001907349","resources/trios/L2T4A1.jpg","37","restless",0.4,0.2,0.7,0.558016977138969,"false"
"image-keyboard-response",87,176559,"0.0-3.25-1.25","hgvrs6y69n1ppsq",220,"167.csv","","null","resources/maskTrios/L2BB.jpg","null","",NA,NA,NA,NA,""
"image-keyboard-response",88,177765,"0.0-3.25-2.25","hgvrs6y69n1ppsq",220,"167.csv","","null","resources/images/fishbone.png","null","",NA,NA,NA,NA,""
"image-keyboard-response",89,178964,"0.0-3.26-0.26","hgvrs6y69n1ppsq",220,"167.csv","","1196.7000002861023","resources/trios/L4T2A1.jpg","39","restless",0.4,0.2,0.7,0.0293646668703325,"true"
"image-keyboard-response",90,179370,"0.0-3.26-1.26","hgvrs6y69n1ppsq",220,"167.csv","","null","resources/maskTrios/BBA1.jpg","null","",NA,NA,NA,NA,""
"image-keyboard-response",91,180576,"0.0-3.26-2.26","hgvrs6y69n1ppsq",220,"167.csv","","null","resources/images/coin2.png","null","",NA,NA,NA,NA,""
"image-keyboard-response",92,181822,"0.0-3.27-0.27","hgvrs6y69n1ppsq",220,"167.csv","","1244.2999997138977","resources/trios/L2T2A2.jpg","37","restless",0.4,0.2,0.7,0.370933035659226,"true"
"image-keyboard-response",93,182229,"0.0-3.27-1.27","hgvrs6y69n1ppsq",220,"167.csv","","null","resources/maskTrios/L2BB.jpg","null","",NA,NA,NA,NA,""
"image-keyboard-response",94,183436,"0.0-3.27-2.27","hgvrs6y69n1ppsq",220,"167.csv","","null","resources/images/coin2.png","null","",NA,NA,NA,NA,""
"image-keyboard-response",95,184780,"0.0-3.28-0.28","hgvrs6y69n1ppsq",220,"167.csv","","1342","resources/trios/L2T2A1.jpg","39","restless",0.5,0.2,0.7,0.388352931023884,"true"
"image-keyboard-response",96,185187,"0.0-3.28-1.28","hgvrs6y69n1ppsq",220,"167.csv","","null","resources/maskTrios/BBA1.jpg","null","",NA,NA,NA,NA,""
"image-keyboard-response",97,186394,"0.0-3.28-2.28","hgvrs6y69n1ppsq",220,"167.csv","","null","resources/images/coin2.png","null","",NA,NA,NA,NA,""
"image-keyboard-response",98,187266,"0.0-3.29-0.29","hgvrs6y69n1ppsq",220,"167.csv","","870.3999996185303","resources/trios/L2T2A1.jpg","37","restless",0.4,0.2,0.7,0.673092060458043,"false"
"image-keyboard-response",99,187673,"0.0-3.29-1.29","hgvrs6y69n1ppsq",220,"167.csv","","null","resources/maskTrios/L2BB.jpg","null","",NA,NA,NA,NA,""
"image-keyboard-response",100,188876,"0.0-3.29-2.29","hgvrs6y69n1ppsq",220,"167.csv","","null","resources/images/fishbone.png","null","",NA,NA,NA,NA,""
"image-keyboard-response",101,189226,"0.0-3.30-0.30","hgvrs6y69n1ppsq",220,"167.csv","","348.6000003814697","resources/trios/L4T2A2.jpg","39","restless",0.4,0.2,0.8,0.0692506724974322,"true"
"image-keyboard-response",102,189633,"0.0-3.30-1.30","hgvrs6y69n1ppsq",220,"167.csv","","null","resources/maskTrios/BBA2.jpg","null","",NA,NA,NA,NA,""
"image-keyboard-response",103,190840,"0.0-3.30-2.30","hgvrs6y69n1ppsq",220,"167.csv","","null","resources/images/coin2.png","null","",NA,NA,NA,NA,""
"image-keyboard-response",104,191202,"0.0-3.31-0.31","hgvrs6y69n1ppsq",220,"167.csv","","360.7999997138977","resources/trios/L4T4A2.jpg","39","restless",0.4,0.2,0.8,0.282694949801814,"true"
"image-keyboard-response",105,191609,"0.0-3.31-1.31","hgvrs6y69n1ppsq",220,"167.csv","","null","resources/maskTrios/BBA2.jpg","null","",NA,NA,NA,NA,""
"image-keyboard-response",106,192816,"0.0-3.31-2.31","hgvrs6y69n1ppsq",220,"167.csv","","null","resources/images/coin2.png","null","",NA,NA,NA,NA,""
"image-keyboard-response",107,193388,"0.0-3.32-0.32","hgvrs6y69n1ppsq",220,"167.csv","","570.3000001907349","resources/trios/L2T2A1.jpg","37","restless",0.3,0.2,0.8,0.537759472420018,"false"
"image-keyboard-response",108,193795,"0.0-3.32-1.32","hgvrs6y69n1ppsq",220,"167.csv","","null","resources/maskTrios/L2BB.jpg","null","",NA,NA,NA,NA,""
"image-keyboard-response",109,195001,"0.0-3.32-2.32","hgvrs6y69n1ppsq",220,"167.csv","","null","resources/images/fishbone.png","null","",NA,NA,NA,NA,""
"image-keyboard-response",110,195470,"0.0-3.33-0.33","hgvrs6y69n1ppsq",220,"167.csv","","466.80000019073486","resources/trios/L2T2A2.jpg","39","restless",0.3,0.2,0.7,0.118419054447764,"true"
"image-keyboard-response",111,195877,"0.0-3.33-1.33","hgvrs6y69n1ppsq",220,"167.csv","","null","resources/maskTrios/BBA2.jpg","null","",NA,NA,NA,NA,""
"image-keyboard-response",112,197084,"0.0-3.33-2.33","hgvrs6y69n1ppsq",220,"167.csv","","null","resources/images/coin2.png","null","",NA,NA,NA,NA,""
"image-keyboard-response",113,197500,"0.0-3.34-0.34","hgvrs6y69n1ppsq",220,"167.csv","","414.1000003814697","resources/trios/L4T2A1.jpg","39","restless",0.2,0.2,0.7,0.891500563266661,"false"
"image-keyboard-response",114,197907,"0.0-3.34-1.34","hgvrs6y69n1ppsq",220,"167.csv","","null","resources/maskTrios/BBA1.jpg","null","",NA,NA,NA,NA,""
"image-keyboard-response",115,199112,"0.0-3.34-2.34","hgvrs6y69n1ppsq",220,"167.csv","","null","resources/images/fishbone.png","null","",NA,NA,NA,NA,""
"image-keyboard-response",116,200082,"0.0-3.35-0.35","hgvrs6y69n1ppsq",220,"167.csv","","968.4000000953674","resources/trios/L4T2A1.jpg","37","restless",0.2,0.2,0.7,0.463443830724816,"false"
"image-keyboard-response",117,200489,"0.0-3.35-1.35","hgvrs6y69n1ppsq",220,"167.csv","","null","resources/maskTrios/L4BB.jpg","null","",NA,NA,NA,NA,""
"image-keyboard-response",118,201695,"0.0-3.35-2.35","hgvrs6y69n1ppsq",220,"167.csv","","null","resources/images/fishbone.png","null","",NA,NA,NA,NA,""
"image-keyboard-response",119,202472,"0.0-3.36-0.36","hgvrs6y69n1ppsq",220,"167.csv","","775","resources/trios/L2T4A2.jpg","37","restless",0.2,0.2,0.7,0.697416309415112,"false"
"image-keyboard-response",120,202876,"0.0-3.36-1.36","hgvrs6y69n1ppsq",220,"167.csv","","null","resources/maskTrios/L2BB.jpg","null","",NA,NA,NA,NA,""
"image-keyboard-response",121,204081,"0.0-3.36-2.36","hgvrs6y69n1ppsq",220,"167.csv","","null","resources/images/fishbone.png","null","",NA,NA,NA,NA,""
"image-keyboard-response",122,205203,"0.0-3.37-0.37","hgvrs6y69n1ppsq",220,"167.csv","","1119.9000000953674","resources/trios/L2T4A2.jpg","37","restless",0.2,0.2,0.7,0.597005600008139,"false"
"image-keyboard-response",123,205610,"0.0-3.37-1.37","hgvrs6y69n1ppsq",220,"167.csv","","null","resources/maskTrios/L2BB.jpg","null","",NA,NA,NA,NA,""
"image-keyboard-response",124,206816,"0.0-3.37-2.37","hgvrs6y69n1ppsq",220,"167.csv","","null","resources/images/fishbone.png","null","",NA,NA,NA,NA,""
"image-keyboard-response",125,207615,"0.0-3.38-0.38","hgvrs6y69n1ppsq",220,"167.csv","","796.7000002861023","resources/trios/L4T2A2.jpg","37","restless",0.2,0.2,0.7,0.258473969946083,"false"
"image-keyboard-response",126,208020,"0.0-3.38-1.38","hgvrs6y69n1ppsq",220,"167.csv","","null","resources/maskTrios/L4BB.jpg","null","",NA,NA,NA,NA,""
"image-keyboard-response",127,209223,"0.0-3.38-2.38","hgvrs6y69n1ppsq",220,"167.csv","","null","resources/images/fishbone.png","null","",NA,NA,NA,NA,""
"image-keyboard-response",128,209614,"0.0-3.39-0.39","hgvrs6y69n1ppsq",220,"167.csv","","388.80000019073486","resources/trios/L4T2A1.jpg","37","restless",0.3,0.2,0.7,0.206065219818621,"true"
"image-keyboard-response",129,210021,"0.0-3.39-1.39","hgvrs6y69n1ppsq",220,"167.csv","","null","resources/maskTrios/L4BB.jpg","null","",NA,NA,NA,NA,""
"image-keyboard-response",130,211228,"0.0-3.39-2.39","hgvrs6y69n1ppsq",220,"167.csv","","null","resources/images/coin2.png","null","",NA,NA,NA,NA,""
"image-keyboard-response",131,212471,"0.0-3.40-0.40","hgvrs6y69n1ppsq",220,"167.csv","","1241.2000002861023","resources/trios/L2T2A2.jpg","37","restless",0.3,0.2,0.7,0.983300372346915,"false"
"image-keyboard-response",132,212876,"0.0-3.40-1.40","hgvrs6y69n1ppsq",220,"167.csv","","null","resources/maskTrios/L2BB.jpg","null","",NA,NA,NA,NA,""
"image-keyboard-response",133,214082,"0.0-3.40-2.40","hgvrs6y69n1ppsq",220,"167.csv","","null","resources/images/fishbone.png","null","",NA,NA,NA,NA,""
"image-keyboard-response",134,214407,"0.0-3.41-0.41","hgvrs6y69n1ppsq",220,"167.csv","","323.09999990463257","resources/trios/L2T2A2.jpg","39","restless",0.3,0.1,0.7,0.984074424760596,"false"
"image-keyboard-response",135,214811,"0.0-3.41-1.41","hgvrs6y69n1ppsq",220,"167.csv","","null","resources/maskTrios/BBA2.jpg","null","",NA,NA,NA,NA,""
"image-keyboard-response",136,216017,"0.0-3.41-2.41","hgvrs6y69n1ppsq",220,"167.csv","","null","resources/images/fishbone.png","null","",NA,NA,NA,NA,""
"image-keyboard-response",137,216521,"0.0-3.42-0.42","hgvrs6y69n1ppsq",220,"167.csv","","502.2000002861023","resources/trios/L2T4A1.jpg","38","restless",0.3,0.1,0.8,0.387148670484172,"false"
"image-keyboard-response",138,216928,"0.0-3.42-1.42","hgvrs6y69n1ppsq",220,"167.csv","","null","resources/maskTrios/BT4B.jpg","null","",NA,NA,NA,NA,""
"image-keyboard-response",139,218134,"0.0-3.42-2.42","hgvrs6y69n1ppsq",220,"167.csv","","null","resources/images/fishbone.png","null","",NA,NA,NA,NA,""
"image-keyboard-response",140,218434,"0.0-3.43-0.43","hgvrs6y69n1ppsq",220,"167.csv","","297.5","resources/trios/L2T2A1.jpg","39","restless",0.4,0.1,0.8,0.727771331451362,"true"
"image-keyboard-response",141,218836,"0.0-3.43-1.43","hgvrs6y69n1ppsq",220,"167.csv","","null","resources/maskTrios/BBA1.jpg","null","",NA,NA,NA,NA,""
"image-keyboard-response",142,220043,"0.0-3.43-2.43","hgvrs6y69n1ppsq",220,"167.csv","","null","resources/images/coin2.png","null","",NA,NA,NA,NA,""
"image-keyboard-response",143,220974,"0.0-3.44-0.44","hgvrs6y69n1ppsq",220,"167.csv","","928.8999996185303","resources/trios/L4T4A2.jpg","39","restless",0.4,0.1,0.8,0.817083261082186,"false"
"image-keyboard-response",144,221381,"0.0-3.44-1.44","hgvrs6y69n1ppsq",220,"167.csv","","null","resources/maskTrios/BBA2.jpg","null","",NA,NA,NA,NA,""
"image-keyboard-response",145,222587,"0.0-3.44-2.44","hgvrs6y69n1ppsq",220,"167.csv","","null","resources/images/fishbone.png","null","",NA,NA,NA,NA,""
"image-keyboard-response",146,223013,"0.0-3.45-0.45","hgvrs6y69n1ppsq",220,"167.csv","","423.5","resources/trios/L2T4A2.jpg","37","restless",0.4,0.1,0.7,0.61743099185257,"false"
"image-keyboard-response",147,223420,"0.0-3.45-1.45","hgvrs6y69n1ppsq",220,"167.csv","","null","resources/maskTrios/L2BB.jpg","null","",NA,NA,NA,NA,""
"image-keyboard-response",148,224621,"0.0-3.45-2.45","hgvrs6y69n1ppsq",220,"167.csv","","null","resources/images/fishbone.png","null","",NA,NA,NA,NA,""
"image-keyboard-response",149,225968,"0.0-3.46-0.46","hgvrs6y69n1ppsq",220,"167.csv","","1344.3000001907349","resources/trios/L4T4A1.jpg","39","restless",0.4,0.1,0.7,0.916614428110591,"false"
"image-keyboard-response",150,226370,"0.0-3.46-1.46","hgvrs6y69n1ppsq",220,"167.csv","","null","resources/maskTrios/BBA1.jpg","null","",NA,NA,NA,NA,""
"image-keyboard-response",151,227576,"0.0-3.46-2.46","hgvrs6y69n1ppsq",220,"167.csv","","null","resources/images/fishbone.png","null","",NA,NA,NA,NA,""
"image-keyboard-response",152,228007,"0.0-3.47-0.47","hgvrs6y69n1ppsq",220,"167.csv","","429","resources/trios/L2T2A2.jpg","39","restless",0.4,0.1,0.7,0.195641908356564,"true"
"image-keyboard-response",153,228414,"0.0-3.47-1.47","hgvrs6y69n1ppsq",220,"167.csv","","null","resources/maskTrios/BBA2.jpg","null","",NA,NA,NA,NA,""
"image-keyboard-response",154,229621,"0.0-3.47-2.47","hgvrs6y69n1ppsq",220,"167.csv","","null","resources/images/coin2.png","null","",NA,NA,NA,NA,""
"image-keyboard-response",155,229726,"0.0-3.48-0.48","hgvrs6y69n1ppsq",220,"167.csv","","102.80000019073486","resources/trios/L2T4A1.jpg","39","restless",0.4,0.1,0.7,0.408953984617514,"true"
"image-keyboard-response",156,230131,"0.0-3.48-1.48","hgvrs6y69n1ppsq",220,"167.csv","","null","resources/maskTrios/BBA1.jpg","null","",NA,NA,NA,NA,""
"image-keyboard-response",157,231336,"0.0-3.48-2.48","hgvrs6y69n1ppsq",220,"167.csv","","null","resources/images/coin2.png","null","",NA,NA,NA,NA,""
"image-keyboard-response",158,231668,"0.0-3.49-0.49","hgvrs6y69n1ppsq",220,"167.csv","","330.1000003814697","resources/trios/L2T2A2.jpg","39","restless",0.4,0.1,0.7,0.849543835446773,"false"
"image-keyboard-response",159,232074,"0.0-3.49-1.49","hgvrs6y69n1ppsq",220,"167.csv","","null","resources/maskTrios/BBA2.jpg","null","",NA,NA,NA,NA,""
"image-keyboard-response",160,233280,"0.0-3.49-2.49","hgvrs6y69n1ppsq",220,"167.csv","","null","resources/images/fishbone.png","null","",NA,NA,NA,NA,""
"image-keyboard-response",161,233533,"0.0-3.50-0.50","hgvrs6y69n1ppsq",220,"167.csv","","250.90000009536743","resources/trios/L2T2A2.jpg","37","restless",0.4,0.1,0.7,0.521090122109959,"false"
"image-keyboard-response",162,233938,"0.0-3.50-1.50","hgvrs6y69n1ppsq",220,"167.csv","","null","resources/maskTrios/L2BB.jpg","null","",NA,NA,NA,NA,""
"image-keyboard-response",163,235145,"0.0-3.50-2.50","hgvrs6y69n1ppsq",220,"167.csv","","null","resources/images/fishbone.png","null","",NA,NA,NA,NA,""
"image-keyboard-response",164,235669,"0.0-3.51-0.51","hgvrs6y69n1ppsq",220,"167.csv","","522.7999997138977","resources/trios/L4T2A2.jpg","37","restless",0.4,0.1,0.7,0.569626820282355,"false"
"image-keyboard-response",165,236076,"0.0-3.51-1.51","hgvrs6y69n1ppsq",220,"167.csv","","null","resources/maskTrios/L4BB.jpg","null","",NA,NA,NA,NA,""
"image-keyboard-response",166,237280,"0.0-3.51-2.51","hgvrs6y69n1ppsq",220,"167.csv","","null","resources/images/fishbone.png","null","",NA,NA,NA,NA,""
"image-keyboard-response",167,237772,"0.0-3.52-0.52","hgvrs6y69n1ppsq",220,"167.csv","","489.09999990463257","resources/trios/L4T4A1.jpg","39","restless",0.4,0.1,0.8,0.284087622448674,"true"
"image-keyboard-response",168,238177,"0.0-3.52-1.52","hgvrs6y69n1ppsq",220,"167.csv","","null","resources/maskTrios/BBA1.jpg","null","",NA,NA,NA,NA,""
"image-keyboard-response",169,239381,"0.0-3.52-2.52","hgvrs6y69n1ppsq",220,"167.csv","","null","resources/images/coin2.png","null","",NA,NA,NA,NA,""
"image-keyboard-response",170,239704,"0.0-3.53-0.53","hgvrs6y69n1ppsq",220,"167.csv","","319.40000009536743","resources/trios/L4T2A2.jpg","39","restless",0.4,0.1,0.8,0.571748117363539,"true"
"image-keyboard-response",171,240111,"0.0-3.53-1.53","hgvrs6y69n1ppsq",220,"167.csv","","null","resources/maskTrios/BBA2.jpg","null","",NA,NA,NA,NA,""
"image-keyboard-response",172,241315,"0.0-3.53-2.53","hgvrs6y69n1ppsq",220,"167.csv","","null","resources/images/coin2.png","null","",NA,NA,NA,NA,""
"image-keyboard-response",173,241787,"0.0-3.54-0.54","hgvrs6y69n1ppsq",220,"167.csv","","469.59999990463257","resources/trios/L4T2A2.jpg","39","restless",0.4,0.1,0.8,0.564969422340402,"true"
"image-keyboard-response",174,242194,"0.0-3.54-1.54","hgvrs6y69n1ppsq",220,"167.csv","","null","resources/maskTrios/BBA2.jpg","null","",NA,NA,NA,NA,""
"image-keyboard-response",175,243399,"0.0-3.54-2.54","hgvrs6y69n1ppsq",220,"167.csv","","null","resources/images/coin2.png","null","",NA,NA,NA,NA,""
"image-keyboard-response",176,243699,"0.0-3.55-0.55","hgvrs6y69n1ppsq",220,"167.csv","","298.59999990463257","resources/trios/L2T2A1.jpg","37","restless",0.4,0.1,0.8,0.178225048501361,"true"
"image-keyboard-response",177,244106,"0.0-3.55-1.55","hgvrs6y69n1ppsq",220,"167.csv","","null","resources/maskTrios/L2BB.jpg","null","",NA,NA,NA,NA,""
"image-keyboard-response",178,245314,"0.0-3.55-2.55","hgvrs6y69n1ppsq",220,"167.csv","","null","resources/images/coin2.png","null","",NA,NA,NA,NA,""
"image-keyboard-response",179,246391,"0.0-3.56-0.56","hgvrs6y69n1ppsq",220,"167.csv","","1075.7000002861023","resources/trios/L2T4A1.jpg","39","restless",0.4,0.1,0.8,0.592063940716969,"true"
"image-keyboard-response",180,246799,"0.0-3.56-1.56","hgvrs6y69n1ppsq",220,"167.csv","","null","resources/maskTrios/BBA1.jpg","null","",NA,NA,NA,NA,""
"image-keyboard-response",181,248003,"0.0-3.56-2.56","hgvrs6y69n1ppsq",220,"167.csv","","null","resources/images/coin2.png","null","",NA,NA,NA,NA,""
"image-keyboard-response",182,248257,"0.0-3.57-0.57","hgvrs6y69n1ppsq",220,"167.csv","","252.39999961853027","resources/trios/L2T2A1.jpg","37","restless",0.4,0.2,0.8,0.811831820000635,"false"
"image-keyboard-response",183,248659,"0.0-3.57-1.57","hgvrs6y69n1ppsq",220,"167.csv","","null","resources/maskTrios/L2BB.jpg","null","",NA,NA,NA,NA,""
"image-keyboard-response",184,249866,"0.0-3.57-2.57","hgvrs6y69n1ppsq",220,"167.csv","","null","resources/images/fishbone.png","null","",NA,NA,NA,NA,""
"image-keyboard-response",185,250222,"0.0-3.58-0.58","hgvrs6y69n1ppsq",220,"167.csv","","354.09999990463257","resources/trios/L2T4A1.jpg","39","restless",0.4,0.2,0.8,0.795897954947059,"true"
"image-keyboard-response",186,250628,"0.0-3.58-1.58","hgvrs6y69n1ppsq",220,"167.csv","","null","resources/maskTrios/BBA1.jpg","null","",NA,NA,NA,NA,""
"image-keyboard-response",187,251835,"0.0-3.58-2.58","hgvrs6y69n1ppsq",220,"167.csv","","null","resources/images/coin2.png","null","",NA,NA,NA,NA,""
"image-keyboard-response",188,251900,"0.0-3.59-0.59","hgvrs6y69n1ppsq",220,"167.csv","","62.90000009536743","resources/trios/L2T2A2.jpg","39","restless",0.4,0.2,0.8,0.150927118206113,"true"
"image-keyboard-response",189,252307,"0.0-3.59-1.59","hgvrs6y69n1ppsq",220,"167.csv","","null","resources/maskTrios/BBA2.jpg","null","",NA,NA,NA,NA,""
"image-keyboard-response",190,253510,"0.0-3.59-2.59","hgvrs6y69n1ppsq",220,"167.csv","","null","resources/images/coin2.png","null","",NA,NA,NA,NA,""
"image-keyboard-response",191,254211,"0.0-3.60-0.60","hgvrs6y69n1ppsq",220,"167.csv","","699.3000001907349","resources/trios/L2T4A1.jpg","37","restless",0.3,0.2,0.8,0.0917725353084435,"true"
"image-keyboard-response",192,254614,"0.0-3.60-1.60","hgvrs6y69n1ppsq",220,"167.csv","","null","resources/maskTrios/L2BB.jpg","null","",NA,NA,NA,NA,""
"image-keyboard-response",193,255821,"0.0-3.60-2.60","hgvrs6y69n1ppsq",220,"167.csv","","null","resources/images/coin2.png","null","",NA,NA,NA,NA,""
"image-keyboard-response",194,255993,"0.0-3.61-0.61","hgvrs6y69n1ppsq",220,"167.csv","","169.7999997138977","resources/trios/L4T4A1.jpg","37","restless",0.3,0.2,0.8,0.286246081619165,"true"
"image-keyboard-response",195,256401,"0.0-3.61-1.61","hgvrs6y69n1ppsq",220,"167.csv","","null","resources/maskTrios/L4BB.jpg","null","",NA,NA,NA,NA,""
"image-keyboard-response",196,257608,"0.0-3.61-2.61","hgvrs6y69n1ppsq",220,"167.csv","","null","resources/images/coin2.png","null","",NA,NA,NA,NA,""
"image-keyboard-response",197,257881,"0.0-3.62-0.62","hgvrs6y69n1ppsq",220,"167.csv","","270.80000019073486","resources/trios/L2T4A2.jpg","37","restless",0.3,0.2,0.8,0.0885633854215153,"true"
"image-keyboard-response",198,258287,"0.0-3.62-1.62","hgvrs6y69n1ppsq",220,"167.csv","","null","resources/maskTrios/L2BB.jpg","null","",NA,NA,NA,NA,""
"image-keyboard-response",199,259494,"0.0-3.62-2.62","hgvrs6y69n1ppsq",220,"167.csv","","null","resources/images/coin2.png","null","",NA,NA,NA,NA,""
"image-keyboard-response",200,260018,"0.0-3.63-0.63","hgvrs6y69n1ppsq",220,"167.csv","","522.8000001907349","resources/trios/L4T2A2.jpg","37","restless",0.3,0.2,0.8,0.60607654887594,"false"
"image-keyboard-response",201,260423,"0.0-3.63-1.63","hgvrs6y69n1ppsq",220,"167.csv","","null","resources/maskTrios/L4BB.jpg","null","",NA,NA,NA,NA,""
"image-keyboard-response",202,261626,"0.0-3.63-2.63","hgvrs6y69n1ppsq",220,"167.csv","","null","resources/images/fishbone.png","null","",NA,NA,NA,NA,""
"image-keyboard-response",203,262130,"0.0-3.64-0.64","hgvrs6y69n1ppsq",220,"167.csv","","502.2000002861023","resources/trios/L2T2A1.jpg","39","restless",0.3,0.2,0.9,0.423633725188161,"true"
"image-keyboard-response",204,262536,"0.0-3.64-1.64","hgvrs6y69n1ppsq",220,"167.csv","","null","resources/maskTrios/BBA1.jpg","null","",NA,NA,NA,NA,""
"image-keyboard-response",205,263743,"0.0-3.64-2.64","hgvrs6y69n1ppsq",220,"167.csv","","null","resources/images/coin2.png","null","",NA,NA,NA,NA,""
"image-keyboard-response",206,264006,"0.0-3.65-0.65","hgvrs6y69n1ppsq",220,"167.csv","","261.2999997138977","resources/trios/L4T4A2.jpg","39","restless",0.3,0.2,0.9,0.110995189723429,"true"
"image-keyboard-response",207,264413,"0.0-3.65-1.65","hgvrs6y69n1ppsq",220,"167.csv","","null","resources/maskTrios/BBA2.jpg","null","",NA,NA,NA,NA,""
"image-keyboard-response",208,265620,"0.0-3.65-2.65","hgvrs6y69n1ppsq",220,"167.csv","","null","resources/images/coin2.png","null","",NA,NA,NA,NA,""
"image-keyboard-response",209,265925,"0.0-3.66-0.66","hgvrs6y69n1ppsq",220,"167.csv","","303.19999980926514","resources/trios/L2T4A2.jpg","37","restless",0.3,0.2,0.9,0.68320601713917,"false"
"image-keyboard-response",210,266332,"0.0-3.66-1.66","hgvrs6y69n1ppsq",220,"167.csv","","null","resources/maskTrios/L2BB.jpg","null","",NA,NA,NA,NA,""
"image-keyboard-response",211,267539,"0.0-3.66-2.66","hgvrs6y69n1ppsq",220,"167.csv","","null","resources/images/fishbone.png","null","",NA,NA,NA,NA,""
"image-keyboard-response",212,267834,"0.0-3.67-0.67","hgvrs6y69n1ppsq",220,"167.csv","","293.30000019073486","resources/trios/L2T2A2.jpg","37","restless",0.3,0.3,0.9,0.0349940239582778,"true"
"image-keyboard-response",213,268242,"0.0-3.67-1.67","hgvrs6y69n1ppsq",220,"167.csv","","null","resources/maskTrios/L2BB.jpg","null","",NA,NA,NA,NA,""
"image-keyboard-response",214,269448,"0.0-3.67-2.67","hgvrs6y69n1ppsq",220,"167.csv","","null","resources/images/coin2.png","null","",NA,NA,NA,NA,""
"image-keyboard-response",215,269788,"0.0-3.68-0.68","hgvrs6y69n1ppsq",220,"167.csv","","337.59999990463257","resources/trios/L2T2A2.jpg","37","restless",0.3,0.3,0.9,0.38045834587859,"false"
"image-keyboard-response",216,270194,"0.0-3.68-1.68","hgvrs6y69n1ppsq",220,"167.csv","","null","resources/maskTrios/L2BB.jpg","null","",NA,NA,NA,NA,""
"image-keyboard-response",217,271400,"0.0-3.68-2.68","hgvrs6y69n1ppsq",220,"167.csv","","null","resources/images/fishbone.png","null","",NA,NA,NA,NA,""
"image-keyboard-response",218,272013,"0.0-3.69-0.69","hgvrs6y69n1ppsq",220,"167.csv","","610.5","resources/trios/L4T4A1.jpg","37","restless",0.3,0.3,0.9,0.907297369181856,"false"
"image-keyboard-response",219,272419,"0.0-3.69-1.69","hgvrs6y69n1ppsq",220,"167.csv","","null","resources/maskTrios/L4BB.jpg","null","",NA,NA,NA,NA,""
"image-keyboard-response",220,273626,"0.0-3.69-2.69","hgvrs6y69n1ppsq",220,"167.csv","","null","resources/images/fishbone.png","null","",NA,NA,NA,NA,""
"image-keyboard-response",221,274954,"0.0-3.70-0.70","hgvrs6y69n1ppsq",220,"167.csv","","1326.9000000953674","resources/trios/L4T2A1.jpg","39","restless",0.3,0.3,0.9,0.410924992396016,"true"
"image-keyboard-response",222,275361,"0.0-3.70-1.70","hgvrs6y69n1ppsq",220,"167.csv","","null","resources/maskTrios/BBA1.jpg","null","",NA,NA,NA,NA,""
"image-keyboard-response",223,276564,"0.0-3.70-2.70","hgvrs6y69n1ppsq",220,"167.csv","","null","resources/images/coin2.png","null","",NA,NA,NA,NA,""
"image-keyboard-response",224,276949,"0.0-3.71-0.71","hgvrs6y69n1ppsq",220,"167.csv","","383.5","resources/trios/L2T4A1.jpg","39","restless",0.3,0.3,0.9,0.900900537269305,"false"
"image-keyboard-response",225,277356,"0.0-3.71-1.71","hgvrs6y69n1ppsq",220,"167.csv","","null","resources/maskTrios/BBA1.jpg","null","",NA,NA,NA,NA,""
"image-keyboard-response",226,278557,"0.0-3.71-2.71","hgvrs6y69n1ppsq",220,"167.csv","","null","resources/images/fishbone.png","null","",NA,NA,NA,NA,""
"image-keyboard-response",227,278865,"0.0-3.72-0.72","hgvrs6y69n1ppsq",220,"167.csv","","306.19999980926514","resources/trios/L2T2A2.jpg","39","restless",0.4,0.3,0.9,0.399704937204963,"true"
"image-keyboard-response",228,279272,"0.0-3.72-1.72","hgvrs6y69n1ppsq",220,"167.csv","","null","resources/maskTrios/BBA2.jpg","null","",NA,NA,NA,NA,""
"image-keyboard-response",229,280478,"0.0-3.72-2.72","hgvrs6y69n1ppsq",220,"167.csv","","null","resources/images/coin2.png","null","",NA,NA,NA,NA,""
"image-keyboard-response",230,280967,"0.0-3.73-0.73","hgvrs6y69n1ppsq",220,"167.csv","","486.5","resources/trios/L4T2A1.jpg","39","restless",0.4,0.3,0.9,0.341938506029971,"true"
"image-keyboard-response",231,281373,"0.0-3.73-1.73","hgvrs6y69n1ppsq",220,"167.csv","","null","resources/maskTrios/BBA1.jpg","null","",NA,NA,NA,NA,""
"image-keyboard-response",232,282580,"0.0-3.73-2.73","hgvrs6y69n1ppsq",220,"167.csv","","null","resources/images/coin2.png","null","",NA,NA,NA,NA,""
"image-keyboard-response",233,282951,"0.0-3.74-0.74","hgvrs6y69n1ppsq",220,"167.csv","","370.19999980926514","resources/trios/L4T2A2.jpg","39","restless",0.4,0.3,0.8,0.783865048183253,"true"
"image-keyboard-response",234,283358,"0.0-3.74-1.74","hgvrs6y69n1ppsq",220,"167.csv","","null","resources/maskTrios/BBA2.jpg","null","",NA,NA,NA,NA,""
"image-keyboard-response",235,284559,"0.0-3.74-2.74","hgvrs6y69n1ppsq",220,"167.csv","","null","resources/images/coin2.png","null","",NA,NA,NA,NA,""
"image-keyboard-response",236,284874,"0.0-3.75-0.75","hgvrs6y69n1ppsq",220,"167.csv","","312.59999990463257","resources/trios/L2T4A2.jpg","37","restless",0.4,0.3,0.7,0.609471986905211,"false"
"image-keyboard-response",237,285280,"0.0-3.75-1.75","hgvrs6y69n1ppsq",220,"167.csv","","null","resources/maskTrios/L2BB.jpg","null","",NA,NA,NA,NA,""
"image-keyboard-response",238,286487,"0.0-3.75-2.75","hgvrs6y69n1ppsq",220,"167.csv","","null","resources/images/fishbone.png","null","",NA,NA,NA,NA,""
"image-keyboard-response",239,286866,"0.0-3.76-0.76","hgvrs6y69n1ppsq",220,"167.csv","","377.5","resources/trios/L4T4A1.jpg","37","restless",0.4,0.3,0.7,0.0571831402670473,"true"
"image-keyboard-response",240,287273,"0.0-3.76-1.76","hgvrs6y69n1ppsq",220,"167.csv","","null","resources/maskTrios/L4BB.jpg","null","",NA,NA,NA,NA,""
"image-keyboard-response",241,288480,"0.0-3.76-2.76","hgvrs6y69n1ppsq",220,"167.csv","","null","resources/images/coin2.png","null","",NA,NA,NA,NA,""
"image-keyboard-response",242,288702,"0.0-3.77-0.77","hgvrs6y69n1ppsq",220,"167.csv","","220.09999990463257","resources/trios/L4T2A1.jpg","37","restless",0.4,0.3,0.7,0.566530906326365,"false"
"image-keyboard-response",243,289108,"0.0-3.77-1.77","hgvrs6y69n1ppsq",220,"167.csv","","null","resources/maskTrios/L4BB.jpg","null","",NA,NA,NA,NA,""
"image-keyboard-response",244,290315,"0.0-3.77-2.77","hgvrs6y69n1ppsq",220,"167.csv","","null","resources/images/fishbone.png","null","",NA,NA,NA,NA,""
"image-keyboard-response",245,291195,"0.0-3.78-0.78","hgvrs6y69n1ppsq",220,"167.csv","","878.5","resources/trios/L4T2A2.jpg","37","restless",0.4,0.3,0.7,0.825472156701608,"false"
"image-keyboard-response",246,291602,"0.0-3.78-1.78","hgvrs6y69n1ppsq",220,"167.csv","","null","resources/maskTrios/L4BB.jpg","null","",NA,NA,NA,NA,""
"image-keyboard-response",247,292807,"0.0-3.78-2.78","hgvrs6y69n1ppsq",220,"167.csv","","null","resources/images/fishbone.png","null","",NA,NA,NA,NA,""
"image-keyboard-response",248,293177,"0.0-3.79-0.79","hgvrs6y69n1ppsq",220,"167.csv","","368.5","resources/trios/L4T2A1.jpg","39","restless",0.4,0.4,0.7,0.824057952267118,"false"
"image-keyboard-response",249,293584,"0.0-3.79-1.79","hgvrs6y69n1ppsq",220,"167.csv","","null","resources/maskTrios/BBA1.jpg","null","",NA,NA,NA,NA,""
"image-keyboard-response",250,294791,"0.0-3.79-2.79","hgvrs6y69n1ppsq",220,"167.csv","","null","resources/images/fishbone.png","null","",NA,NA,NA,NA,""
"image-keyboard-response",251,295171,"0.0-3.80-0.80","hgvrs6y69n1ppsq",220,"167.csv","","378.7000002861023","resources/trios/L2T2A2.jpg","37","restless",0.4,0.4,0.7,0.21807080201996,"true"
"image-keyboard-response",252,295578,"0.0-3.80-1.80","hgvrs6y69n1ppsq",220,"167.csv","","null","resources/maskTrios/L2BB.jpg","null","",NA,NA,NA,NA,""
"image-keyboard-response",253,296785,"0.0-3.80-2.80","hgvrs6y69n1ppsq",220,"167.csv","","null","resources/images/coin2.png","null","",NA,NA,NA,NA,""
"image-keyboard-response",254,297108,"0.0-3.81-0.81","hgvrs6y69n1ppsq",220,"167.csv","","321.30000019073486","resources/trios/L4T2A2.jpg","39","restless",0.4,0.4,0.6,0.184180743728147,"true"
"image-keyboard-response",255,297515,"0.0-3.81-1.81","hgvrs6y69n1ppsq",220,"167.csv","","null","resources/maskTrios/BBA2.jpg","null","",NA,NA,NA,NA,""
"image-keyboard-response",256,298721,"0.0-3.81-2.81","hgvrs6y69n1ppsq",220,"167.csv","","null","resources/images/coin2.png","null","",NA,NA,NA,NA,""
"image-keyboard-response",257,299106,"0.0-3.82-0.82","hgvrs6y69n1ppsq",220,"167.csv","","382.40000009536743","resources/trios/L2T4A2.jpg","39","restless",0.4,0.4,0.6,0.291622957851526,"true"
"image-keyboard-response",258,299513,"0.0-3.82-1.82","hgvrs6y69n1ppsq",220,"167.csv","","null","resources/maskTrios/BBA2.jpg","null","",NA,NA,NA,NA,""
"image-keyboard-response",259,300719,"0.0-3.82-2.82","hgvrs6y69n1ppsq",220,"167.csv","","null","resources/images/coin2.png","null","",NA,NA,NA,NA,""
"image-keyboard-response",260,300942,"0.0-3.83-0.83","hgvrs6y69n1ppsq",220,"167.csv","","221.90000009536743","resources/trios/L2T4A2.jpg","39","restless",0.4,0.4,0.6,0.854884422638913,"false"
"image-keyboard-response",261,301349,"0.0-3.83-1.83","hgvrs6y69n1ppsq",220,"167.csv","","null","resources/maskTrios/BBA2.jpg","null","",NA,NA,NA,NA,""
"image-keyboard-response",262,302551,"0.0-3.83-2.83","hgvrs6y69n1ppsq",220,"167.csv","","null","resources/images/fishbone.png","null","",NA,NA,NA,NA,""
"image-keyboard-response",263,302950,"0.0-3.84-0.84","hgvrs6y69n1ppsq",220,"167.csv","","397.40000009536743","resources/trios/L4T2A2.jpg","37","restless",0.4,0.4,0.6,0.722296099539219,"false"
"image-keyboard-response",264,303357,"0.0-3.84-1.84","hgvrs6y69n1ppsq",220,"167.csv","","null","resources/maskTrios/L4BB.jpg","null","",NA,NA,NA,NA,""
"image-keyboard-response",265,304559,"0.0-3.84-2.84","hgvrs6y69n1ppsq",220,"167.csv","","null","resources/images/fishbone.png","null","",NA,NA,NA,NA,""
"image-keyboard-response",266,305025,"0.0-3.85-0.85","hgvrs6y69n1ppsq",220,"167.csv","","464.19999980926514","resources/trios/L4T2A2.jpg","39","restless",0.5,0.4,0.6,0.537304544868748,"true"
"image-keyboard-response",267,305432,"0.0-3.85-1.85","hgvrs6y69n1ppsq",220,"167.csv","","null","resources/maskTrios/BBA2.jpg","null","",NA,NA,NA,NA,""
"image-keyboard-response",268,306639,"0.0-3.85-2.85","hgvrs6y69n1ppsq",220,"167.csv","","null","resources/images/coin2.png","null","",NA,NA,NA,NA,""
"image-keyboard-response",269,306968,"0.0-3.86-0.86","hgvrs6y69n1ppsq",220,"167.csv","","327.6000003814697","resources/trios/L4T4A1.jpg","39","restless",0.5,0.4,0.6,0.0715148404476071,"true"
"image-keyboard-response",270,307372,"0.0-3.86-1.86","hgvrs6y69n1ppsq",220,"167.csv","","null","resources/maskTrios/BBA1.jpg","null","",NA,NA,NA,NA,""
"image-keyboard-response",271,308577,"0.0-3.86-2.86","hgvrs6y69n1ppsq",220,"167.csv","","null","resources/images/coin2.png","null","",NA,NA,NA,NA,""
"image-keyboard-response",272,308752,"0.0-3.87-0.87","hgvrs6y69n1ppsq",220,"167.csv","","171.2000002861023","resources/trios/L2T4A1.jpg","39","restless",0.5,0.4,0.6,0.0166975122556776,"true"
"image-keyboard-response",273,309154,"0.0-3.87-1.87","hgvrs6y69n1ppsq",220,"167.csv","","null","resources/maskTrios/BBA1.jpg","null","",NA,NA,NA,NA,""
"image-keyboard-response",274,310361,"0.0-3.87-2.87","hgvrs6y69n1ppsq",220,"167.csv","","null","resources/images/coin2.png","null","",NA,NA,NA,NA,""
"image-keyboard-response",275,310660,"0.0-3.88-0.88","hgvrs6y69n1ppsq",220,"167.csv","","296.8999996185303","resources/trios/L4T4A2.jpg","39","restless",0.5,0.4,0.6,0.606123065491015,"false"
"image-keyboard-response",276,311067,"0.0-3.88-1.88","hgvrs6y69n1ppsq",220,"167.csv","","null","resources/maskTrios/BBA2.jpg","null","",NA,NA,NA,NA,""
"image-keyboard-response",277,312272,"0.0-3.88-2.88","hgvrs6y69n1ppsq",220,"167.csv","","null","resources/images/fishbone.png","null","",NA,NA,NA,NA,""
"image-keyboard-response",278,312570,"0.0-3.89-0.89","hgvrs6y69n1ppsq",220,"167.csv","","295.40000009536743","resources/trios/L4T4A2.jpg","37","restless",0.5,0.4,0.6,0.0821757033943422,"true"
"image-keyboard-response",279,312977,"0.0-3.89-1.89","hgvrs6y69n1ppsq",220,"167.csv","","null","resources/maskTrios/L4BB.jpg","null","",NA,NA,NA,NA,""
"image-keyboard-response",280,314184,"0.0-3.89-2.89","hgvrs6y69n1ppsq",220,"167.csv","","null","resources/images/coin2.png","null","",NA,NA,NA,NA,""
"image-keyboard-response",281,314252,"0.0-3.90-0.90","hgvrs6y69n1ppsq",220,"167.csv","","66.5","resources/trios/L2T4A2.jpg","37","restless",0.5,0.4,0.6,0.873058080802987,"false"
"image-keyboard-response",282,314658,"0.0-3.90-1.90","hgvrs6y69n1ppsq",220,"167.csv","","null","resources/maskTrios/L2BB.jpg","null","",NA,NA,NA,NA,""
"image-keyboard-response",283,315865,"0.0-3.90-2.90","hgvrs6y69n1ppsq",220,"167.csv","","null","resources/images/fishbone.png","null","",NA,NA,NA,NA,""
"image-keyboard-response",284,316360,"0.0-3.91-0.91","hgvrs6y69n1ppsq",220,"167.csv","","492.80000019073486","resources/trios/L2T4A2.jpg","39","restless",0.5,0.5,0.6,0.788342332036204,"false"
"image-keyboard-response",285,316764,"0.0-3.91-1.91","hgvrs6y69n1ppsq",220,"167.csv","","null","resources/maskTrios/BBA2.jpg","null","",NA,NA,NA,NA,""
"image-keyboard-response",286,317970,"0.0-3.91-2.91","hgvrs6y69n1ppsq",220,"167.csv","","null","resources/images/fishbone.png","null","",NA,NA,NA,NA,""
"image-keyboard-response",287,318435,"0.0-3.92-0.92","hgvrs6y69n1ppsq",220,"167.csv","","462.6000003814697","resources/trios/L2T4A1.jpg","37","restless",0.5,0.5,0.6,0.0315543584720244,"true"
"image-keyboard-response",288,318837,"0.0-3.92-1.92","hgvrs6y69n1ppsq",220,"167.csv","","null","resources/maskTrios/L2BB.jpg","null","",NA,NA,NA,NA,""
"image-keyboard-response",289,320044,"0.0-3.92-2.92","hgvrs6y69n1ppsq",220,"167.csv","","null","resources/images/coin2.png","null","",NA,NA,NA,NA,""
"image-keyboard-response",290,320408,"0.0-3.93-0.93","hgvrs6y69n1ppsq",220,"167.csv","","361.7000002861023","resources/trios/L2T4A2.jpg","37","restless",0.5,0.5,0.6,0.328298521587161,"true"
"image-keyboard-response",291,320811,"0.0-3.93-1.93","hgvrs6y69n1ppsq",220,"167.csv","","null","resources/maskTrios/L2BB.jpg","null","",NA,NA,NA,NA,""
"image-keyboard-response",292,322015,"0.0-3.93-2.93","hgvrs6y69n1ppsq",220,"167.csv","","null","resources/images/coin2.png","null","",NA,NA,NA,NA,""
"image-keyboard-response",293,322335,"0.0-3.94-0.94","hgvrs6y69n1ppsq",220,"167.csv","","317.90000009536743","resources/trios/L4T4A1.jpg","37","restless",0.5,0.5,0.6,0.493011270295141,"true"
"image-keyboard-response",294,322742,"0.0-3.94-1.94","hgvrs6y69n1ppsq",220,"167.csv","","null","resources/maskTrios/L4BB.jpg","null","",NA,NA,NA,NA,""
"image-keyboard-response",295,323949,"0.0-3.94-2.94","hgvrs6y69n1ppsq",220,"167.csv","","null","resources/images/coin2.png","null","",NA,NA,NA,NA,""
"image-keyboard-response",296,324273,"0.0-3.95-0.95","hgvrs6y69n1ppsq",220,"167.csv","","322","resources/trios/L2T2A2.jpg","37","restless",0.5,0.5,0.6,0.491484471215962,"true"
"image-keyboard-response",297,324680,"0.0-3.95-1.95","hgvrs6y69n1ppsq",220,"167.csv","","null","resources/maskTrios/L2BB.jpg","null","",NA,NA,NA,NA,""
"image-keyboard-response",298,325887,"0.0-3.95-2.95","hgvrs6y69n1ppsq",220,"167.csv","","null","resources/images/coin2.png","null","",NA,NA,NA,NA,""
"image-keyboard-response",299,326275,"0.0-3.96-0.96","hgvrs6y69n1ppsq",220,"167.csv","","386.40000009536743","resources/trios/L4T2A2.jpg","37","restless",0.5,0.5,0.6,0.537395118957213,"false"
"image-keyboard-response",300,326682,"0.0-3.96-1.96","hgvrs6y69n1ppsq",220,"167.csv","","null","resources/maskTrios/L4BB.jpg","null","",NA,NA,NA,NA,""
"image-keyboard-response",301,327888,"0.0-3.96-2.96","hgvrs6y69n1ppsq",220,"167.csv","","null","resources/images/fishbone.png","null","",NA,NA,NA,NA,""
"image-keyboard-response",302,328166,"0.0-3.97-0.97","hgvrs6y69n1ppsq",220,"167.csv","","275.90000009536743","resources/trios/L2T2A1.jpg","39","restless",0.5,0.5,0.6,0.881235692952946,"false"
"image-keyboard-response",303,328571,"0.0-3.97-1.97","hgvrs6y69n1ppsq",220,"167.csv","","null","resources/maskTrios/BBA1.jpg","null","",NA,NA,NA,NA,""
"image-keyboard-response",304,329778,"0.0-3.97-2.97","hgvrs6y69n1ppsq",220,"167.csv","","null","resources/images/fishbone.png","null","",NA,NA,NA,NA,""
"image-keyboard-response",305,330188,"0.0-3.98-0.98","hgvrs6y69n1ppsq",220,"167.csv","","407.90000009536743","resources/trios/L4T4A2.jpg","39","restless",0.5,0.4,0.6,0.728708513138009,"false"
"image-keyboard-response",306,330592,"0.0-3.98-1.98","hgvrs6y69n1ppsq",220,"167.csv","","null","resources/maskTrios/BBA2.jpg","null","",NA,NA,NA,NA,""
"image-keyboard-response",307,331799,"0.0-3.98-2.98","hgvrs6y69n1ppsq",220,"167.csv","","null","resources/images/fishbone.png","null","",NA,NA,NA,NA,""
"image-keyboard-response",308,332107,"0.0-3.99-0.99","hgvrs6y69n1ppsq",220,"167.csv","","305.90000009536743","resources/trios/L4T2A1.jpg","39","restless",0.5,0.4,0.6,0.335323437614757,"true"
"image-keyboard-response",309,332511,"0.0-3.99-1.99","hgvrs6y69n1ppsq",220,"167.csv","","null","resources/maskTrios/BBA1.jpg","null","",NA,NA,NA,NA,""
"image-keyboard-response",310,333718,"0.0-3.99-2.99","hgvrs6y69n1ppsq",220,"167.csv","","null","resources/images/coin2.png","null","",NA,NA,NA,NA,""
"image-keyboard-response",311,334605,"0.0-3.100-0.100","hgvrs6y69n1ppsq",220,"167.csv","","885.4000000953674","resources/trios/L2T4A2.jpg","39","restless",0.5,0.4,0.6,0.9063289657957,"false"
"image-keyboard-response",312,335010,"0.0-3.100-1.100","hgvrs6y69n1ppsq",220,"167.csv","","null","resources/maskTrios/BBA2.jpg","null","",NA,NA,NA,NA,""
"image-keyboard-response",313,336215,"0.0-3.100-2.100","hgvrs6y69n1ppsq",220,"167.csv","","null","resources/images/fishbone.png","null","",NA,NA,NA,NA,""
"image-keyboard-response",314,337587,"0.0-3.101-0.101","hgvrs6y69n1ppsq",220,"167.csv","","1369.8000001907349","resources/trios/L2T2A1.jpg","39","restless",0.5,0.4,0.6,0.720531099218097,"false"
"image-keyboard-response",315,337993,"0.0-3.101-1.101","hgvrs6y69n1ppsq",220,"167.csv","","null","resources/maskTrios/BBA1.jpg","null","",NA,NA,NA,NA,""
"image-keyboard-response",316,339200,"0.0-3.101-2.101","hgvrs6y69n1ppsq",220,"167.csv","","null","resources/images/fishbone.png","null","",NA,NA,NA,NA,""
"image-keyboard-response",317,339597,"0.0-3.102-0.102","hgvrs6y69n1ppsq",220,"167.csv","","395.3999996185303","resources/trios/L4T2A2.jpg","39","restless",0.5,0.4,0.6,0.826275040331454,"false"
"image-keyboard-response",318,340004,"0.0-3.102-1.102","hgvrs6y69n1ppsq",220,"167.csv","","null","resources/maskTrios/BBA2.jpg","null","",NA,NA,NA,NA,""
"image-keyboard-response",319,341210,"0.0-3.102-2.102","hgvrs6y69n1ppsq",220,"167.csv","","null","resources/images/fishbone.png","null","",NA,NA,NA,NA,""
"image-keyboard-response",320,341979,"0.0-3.103-0.103","hgvrs6y69n1ppsq",220,"167.csv","","767","resources/trios/L4T4A1.jpg","37","restless",0.5,0.3,0.6,0.874706195322838,"false"
"image-keyboard-response",321,342385,"0.0-3.103-1.103","hgvrs6y69n1ppsq",220,"167.csv","","null","resources/maskTrios/L4BB.jpg","null","",NA,NA,NA,NA,""
"image-keyboard-response",322,343592,"0.0-3.103-2.103","hgvrs6y69n1ppsq",220,"167.csv","","null","resources/images/fishbone.png","null","",NA,NA,NA,NA,""
"image-keyboard-response",323,343931,"0.0-3.104-0.104","hgvrs6y69n1ppsq",220,"167.csv","","337.5","resources/trios/L4T4A2.jpg","37","restless",0.5,0.3,0.6,0.187109559531664,"true"
"image-keyboard-response",324,344335,"0.0-3.104-1.104","hgvrs6y69n1ppsq",220,"167.csv","","null","resources/maskTrios/L4BB.jpg","null","",NA,NA,NA,NA,""
"image-keyboard-response",325,345542,"0.0-3.104-2.104","hgvrs6y69n1ppsq",220,"167.csv","","null","resources/images/coin2.png","null","",NA,NA,NA,NA,""
"image-keyboard-response",326,346136,"0.0-3.105-0.105","hgvrs6y69n1ppsq",220,"167.csv","","590.7999997138977","resources/trios/L2T2A1.jpg","37","restless",0.5,0.3,0.6,0.253190378262941,"true"
"image-keyboard-response",327,346543,"0.0-3.105-1.105","hgvrs6y69n1ppsq",220,"167.csv","","null","resources/maskTrios/L2BB.jpg","null","",NA,NA,NA,NA,""
"image-keyboard-response",328,347746,"0.0-3.105-2.105","hgvrs6y69n1ppsq",220,"167.csv","","null","resources/images/coin2.png","null","",NA,NA,NA,NA,""
"image-keyboard-response",329,348336,"0.0-3.106-0.106","hgvrs6y69n1ppsq",220,"167.csv","","588.3999996185303","resources/trios/L2T2A2.jpg","37","restless",0.5,0.3,0.6,0.433199850094783,"true"
"image-keyboard-response",330,348743,"0.0-3.106-1.106","hgvrs6y69n1ppsq",220,"167.csv","","null","resources/maskTrios/L2BB.jpg","null","",NA,NA,NA,NA,""
"image-keyboard-response",331,349945,"0.0-3.106-2.106","hgvrs6y69n1ppsq",220,"167.csv","","null","resources/images/coin2.png","null","",NA,NA,NA,NA,""
"image-keyboard-response",332,350049,"0.0-3.107-0.107","hgvrs6y69n1ppsq",220,"167.csv","","102.59999990463257","resources/trios/L2T2A2.jpg","37","restless",0.5,0.3,0.6,0.553534326470547,"false"
"image-keyboard-response",333,350455,"0.0-3.107-1.107","hgvrs6y69n1ppsq",220,"167.csv","","null","resources/maskTrios/L2BB.jpg","null","",NA,NA,NA,NA,""
"image-keyboard-response",334,351658,"0.0-3.107-2.107","hgvrs6y69n1ppsq",220,"167.csv","","null","resources/images/fishbone.png","null","",NA,NA,NA,NA,""
"image-keyboard-response",335,352138,"0.0-3.108-0.108","hgvrs6y69n1ppsq",220,"167.csv","","478","resources/trios/L2T4A1.jpg","39","restless",0.5,0.3,0.5,0.503094777723482,"false"
"image-keyboard-response",336,352544,"0.0-3.108-1.108","hgvrs6y69n1ppsq",220,"167.csv","","null","resources/maskTrios/BBA1.jpg","null","",NA,NA,NA,NA,""
"image-keyboard-response",337,353751,"0.0-3.108-2.108","hgvrs6y69n1ppsq",220,"167.csv","","null","resources/images/fishbone.png","null","",NA,NA,NA,NA,""
"image-keyboard-response",338,354508,"0.0-3.109-0.109","hgvrs6y69n1ppsq",220,"167.csv","","755.8000001907349","resources/trios/L4T4A2.jpg","39","restless",0.5,0.3,0.5,0.240420569083475,"true"
"image-keyboard-response",339,354910,"0.0-3.109-1.109","hgvrs6y69n1ppsq",220,"167.csv","","null","resources/maskTrios/BBA2.jpg","null","",NA,NA,NA,NA,""
"image-keyboard-response",340,356117,"0.0-3.109-2.109","hgvrs6y69n1ppsq",220,"167.csv","","null","resources/images/coin2.png","null","",NA,NA,NA,NA,""
"image-keyboard-response",341,356589,"0.0-3.110-0.110","hgvrs6y69n1ppsq",220,"167.csv","","471","resources/trios/L4T2A1.jpg","39","restless",0.5,0.3,0.5,0.446952639150912,"true"
"image-keyboard-response",342,356996,"0.0-3.110-1.110","hgvrs6y69n1ppsq",220,"167.csv","","null","resources/maskTrios/BBA1.jpg","null","",NA,NA,NA,NA,""
"image-keyboard-response",343,358203,"0.0-3.110-2.110","hgvrs6y69n1ppsq",220,"167.csv","","null","resources/images/coin2.png","null","",NA,NA,NA,NA,""
"image-keyboard-response",344,358573,"0.0-3.111-0.111","hgvrs6y69n1ppsq",220,"167.csv","","368.19999980926514","resources/trios/L2T2A1.jpg","39","restless",0.5,0.3,0.5,0.753772630639318,"false"
"image-keyboard-response",345,358980,"0.0-3.111-1.111","hgvrs6y69n1ppsq",220,"167.csv","","null","resources/maskTrios/BBA1.jpg","null","",NA,NA,NA,NA,""
"image-keyboard-response",346,360186,"0.0-3.111-2.111","hgvrs6y69n1ppsq",220,"167.csv","","null","resources/images/fishbone.png","null","",NA,NA,NA,NA,""
"image-keyboard-response",347,360570,"0.0-3.112-0.112","hgvrs6y69n1ppsq",220,"167.csv","","382.5","resources/trios/L4T2A1.jpg","37","restless",0.5,0.3,0.5,0.0617783040515041,"true"
"image-keyboard-response",348,360977,"0.0-3.112-1.112","hgvrs6y69n1ppsq",220,"167.csv","","null","resources/maskTrios/L4BB.jpg","null","",NA,NA,NA,NA,""
"image-keyboard-response",349,362184,"0.0-3.112-2.112","hgvrs6y69n1ppsq",220,"167.csv","","null","resources/images/coin2.png","null","",NA,NA,NA,NA,""
"image-keyboard-response",350,362677,"0.0-3.113-0.113","hgvrs6y69n1ppsq",220,"167.csv","","491.90000009536743","resources/trios/L2T2A1.jpg","37","restless",0.5,0.4,0.5,0.013736925381914,"true"
"image-keyboard-response",351,363084,"0.0-3.113-1.113","hgvrs6y69n1ppsq",220,"167.csv","","null","resources/maskTrios/L2BB.jpg","null","",NA,NA,NA,NA,""
"image-keyboard-response",352,364290,"0.0-3.113-2.113","hgvrs6y69n1ppsq",220,"167.csv","","null","resources/images/coin2.png","null","",NA,NA,NA,NA,""
"image-keyboard-response",353,364948,"0.0-3.114-0.114","hgvrs6y69n1ppsq",220,"167.csv","","656.4000000953674","resources/trios/L4T4A2.jpg","37","restless",0.5,0.3,0.5,0.5027289160236,"false"
"image-keyboard-response",354,365355,"0.0-3.114-1.114","hgvrs6y69n1ppsq",220,"167.csv","","null","resources/maskTrios/L4BB.jpg","null","",NA,NA,NA,NA,""
"image-keyboard-response",355,366557,"0.0-3.114-2.114","hgvrs6y69n1ppsq",220,"167.csv","","null","resources/images/fishbone.png","null","",NA,NA,NA,NA,""
"image-keyboard-response",356,366726,"0.0-3.115-0.115","hgvrs6y69n1ppsq",220,"167.csv","","167","resources/trios/L4T2A2.jpg","39","restless",0.5,0.3,0.5,0.564411650439603,"false"
"image-keyboard-response",357,367133,"0.0-3.115-1.115","hgvrs6y69n1ppsq",220,"167.csv","","null","resources/maskTrios/BBA2.jpg","null","",NA,NA,NA,NA,""
"image-keyboard-response",358,368339,"0.0-3.115-2.115","hgvrs6y69n1ppsq",220,"167.csv","","null","resources/images/fishbone.png","null","",NA,NA,NA,NA,""
"image-keyboard-response",359,369370,"0.0-3.116-0.116","hgvrs6y69n1ppsq",220,"167.csv","","1029.0999999046326","resources/trios/L2T4A1.jpg","39","restless",0.5,0.3,0.5,0.148507519267656,"true"
"image-keyboard-response",360,369777,"0.0-3.116-1.116","hgvrs6y69n1ppsq",220,"167.csv","","null","resources/maskTrios/BBA1.jpg","null","",NA,NA,NA,NA,""
"image-keyboard-response",361,370983,"0.0-3.116-2.116","hgvrs6y69n1ppsq",220,"167.csv","","null","resources/images/coin2.png","null","",NA,NA,NA,NA,""
"image-keyboard-response",362,373218,"0.0-3.117-0.117","hgvrs6y69n1ppsq",220,"167.csv","","2233.1000003814697","resources/trios/L4T2A2.jpg","39","restless",0.5,0.3,0.5,0.310259988719937,"true"
"image-keyboard-response",363,373624,"0.0-3.117-1.117","hgvrs6y69n1ppsq",220,"167.csv","","null","resources/maskTrios/BBA2.jpg","null","",NA,NA,NA,NA,""
"image-keyboard-response",364,374831,"0.0-3.117-2.117","hgvrs6y69n1ppsq",220,"167.csv","","null","resources/images/coin2.png","null","",NA,NA,NA,NA,""
"image-keyboard-response",365,375086,"0.0-3.118-0.118","hgvrs6y69n1ppsq",220,"167.csv","","254.2000002861023","resources/trios/L4T4A1.jpg","39","restless",0.5,0.3,0.5,0.262708480789817,"true"
"image-keyboard-response",366,375489,"0.0-3.118-1.118","hgvrs6y69n1ppsq",220,"167.csv","","null","resources/maskTrios/BBA1.jpg","null","",NA,NA,NA,NA,""
"image-keyboard-response",367,376696,"0.0-3.118-2.118","hgvrs6y69n1ppsq",220,"167.csv","","null","resources/images/coin2.png","null","",NA,NA,NA,NA,""
"image-keyboard-response",368,377282,"0.0-3.119-0.119","hgvrs6y69n1ppsq",220,"167.csv","","584.6999998092651","resources/trios/L4T2A1.jpg","39","restless",0.5,0.3,0.5,0.640983793278267,"false"
"image-keyboard-response",369,377689,"0.0-3.119-1.119","hgvrs6y69n1ppsq",220,"167.csv","","null","resources/maskTrios/BBA1.jpg","null","",NA,NA,NA,NA,""
"image-keyboard-response",370,378894,"0.0-3.119-2.119","hgvrs6y69n1ppsq",220,"167.csv","","null","resources/images/fishbone.png","null","",NA,NA,NA,NA,""
"image-keyboard-response",371,380358,"0.0-3.120-0.120","hgvrs6y69n1ppsq",220,"167.csv","","1462.5","resources/trios/L2T2A2.jpg","37","restless",0.5,0.3,0.5,0.77210795026804,"false"
"image-keyboard-response",372,380765,"0.0-3.120-1.120","hgvrs6y69n1ppsq",220,"167.csv","","null","resources/maskTrios/L2BB.jpg","null","",NA,NA,NA,NA,""
"image-keyboard-response",373,381972,"0.0-3.120-2.120","hgvrs6y69n1ppsq",220,"167.csv","","null","resources/images/fishbone.png","null","",NA,NA,NA,NA,""
"image-keyboard-response",374,382390,"0.0-3.121-0.121","hgvrs6y69n1ppsq",220,"167.csv","","415.3999996185303","resources/trios/L2T4A2.jpg","37","restless",0.5,0.4,0.5,0.27631287140697,"true"
"image-keyboard-response",375,382797,"0.0-3.121-1.121","hgvrs6y69n1ppsq",220,"167.csv","","null","resources/maskTrios/L2BB.jpg","null","",NA,NA,NA,NA,""
"image-keyboard-response",376,384000,"0.0-3.121-2.121","hgvrs6y69n1ppsq",220,"167.csv","","null","resources/images/coin2.png","null","",NA,NA,NA,NA,""
"image-keyboard-response",377,384992,"0.0-3.122-0.122","hgvrs6y69n1ppsq",220,"167.csv","","990.5","resources/trios/L2T4A1.jpg","39","restless",0.5,0.4,0.4,0.808928542949105,"false"
"image-keyboard-response",378,385398,"0.0-3.122-1.122","hgvrs6y69n1ppsq",220,"167.csv","","null","resources/maskTrios/BBA1.jpg","null","",NA,NA,NA,NA,""
"image-keyboard-response",379,386602,"0.0-3.122-2.122","hgvrs6y69n1ppsq",220,"167.csv","","null","resources/images/fishbone.png","null","",NA,NA,NA,NA,""
"image-keyboard-response",380,388195,"0.0-3.123-0.123","hgvrs6y69n1ppsq",220,"167.csv","","1591.4000000953674","resources/trios/L4T4A2.jpg","39","restless",0.5,0.4,0.4,0.856508052064051,"false"
"image-keyboard-response",381,388602,"0.0-3.123-1.123","hgvrs6y69n1ppsq",220,"167.csv","","null","resources/maskTrios/BBA2.jpg","null","",NA,NA,NA,NA,""
"image-keyboard-response",382,389808,"0.0-3.123-2.123","hgvrs6y69n1ppsq",220,"167.csv","","null","resources/images/fishbone.png","null","",NA,NA,NA,NA,""
"image-keyboard-response",383,390161,"0.0-3.124-0.124","hgvrs6y69n1ppsq",220,"167.csv","","351.2000002861023","resources/trios/L2T4A2.jpg","39","restless",0.5,0.4,0.4,0.20542778409627,"true"
"image-keyboard-response",384,390565,"0.0-3.124-1.124","hgvrs6y69n1ppsq",220,"167.csv","","null","resources/maskTrios/BBA2.jpg","null","",NA,NA,NA,NA,""
"image-keyboard-response",385,391772,"0.0-3.124-2.124","hgvrs6y69n1ppsq",220,"167.csv","","null","resources/images/coin2.png","null","",NA,NA,NA,NA,""
"image-keyboard-response",386,392107,"0.0-3.125-0.125","hgvrs6y69n1ppsq",220,"167.csv","","333.40000009536743","resources/trios/L2T2A2.jpg","39","restless",0.5,0.4,0.5,0.619606869184099,"false"
"image-keyboard-response",387,392514,"0.0-3.125-1.125","hgvrs6y69n1ppsq",220,"167.csv","","null","resources/maskTrios/BBA2.jpg","null","",NA,NA,NA,NA,""
"image-keyboard-response",388,393721,"0.0-3.125-2.125","hgvrs6y69n1ppsq",220,"167.csv","","null","resources/images/fishbone.png","null","",NA,NA,NA,NA,""
"image-keyboard-response",389,394428,"0.0-3.126-0.126","hgvrs6y69n1ppsq",220,"167.csv","","704.6999998092651","resources/trios/L4T4A1.jpg","39","restless",0.5,0.5,0.5,0.603219209579401,"false"
"image-keyboard-response",390,394833,"0.0-3.126-1.126","hgvrs6y69n1ppsq",220,"167.csv","","null","resources/maskTrios/BBA1.jpg","null","",NA,NA,NA,NA,""
"image-keyboard-response",391,396039,"0.0-3.126-2.126","hgvrs6y69n1ppsq",220,"167.csv","","null","resources/images/fishbone.png","null","",NA,NA,NA,NA,""
"image-keyboard-response",392,396279,"0.0-3.127-0.127","hgvrs6y69n1ppsq",220,"167.csv","","238","resources/trios/L4T4A2.jpg","39","restless",0.5,0.5,0.6,0.843747033559158,"false"
"image-keyboard-response",393,396686,"0.0-3.127-1.127","hgvrs6y69n1ppsq",220,"167.csv","","null","resources/maskTrios/BBA2.jpg","null","",NA,NA,NA,NA,""
"image-keyboard-response",394,397892,"0.0-3.127-2.127","hgvrs6y69n1ppsq",220,"167.csv","","null","resources/images/fishbone.png","null","",NA,NA,NA,NA,""
"image-keyboard-response",395,398208,"0.0-3.128-0.128","hgvrs6y69n1ppsq",220,"167.csv","","313.3999996185303","resources/trios/L4T2A2.jpg","39","restless",0.5,0.5,0.6,0.330256649970748,"true"
"image-keyboard-response",396,398615,"0.0-3.128-1.128","hgvrs6y69n1ppsq",220,"167.csv","","null","resources/maskTrios/BBA2.jpg","null","",NA,NA,NA,NA,""
"image-keyboard-response",397,399822,"0.0-3.128-2.128","hgvrs6y69n1ppsq",220,"167.csv","","null","resources/images/coin2.png","null","",NA,NA,NA,NA,""
"image-keyboard-response",398,399847,"0.0-3.129-0.129","hgvrs6y69n1ppsq",220,"167.csv","","22.799999713897705","resources/trios/L4T4A2.jpg","37","restless",0.5,0.5,0.6,0.760179491047158,"false"
"image-keyboard-response",399,400253,"0.0-3.129-1.129","hgvrs6y69n1ppsq",220,"167.csv","","null","resources/maskTrios/L4BB.jpg","null","",NA,NA,NA,NA,""
"image-keyboard-response",400,401456,"0.0-3.129-2.129","hgvrs6y69n1ppsq",220,"167.csv","","null","resources/images/fishbone.png","null","",NA,NA,NA,NA,""
"image-keyboard-response",401,401873,"0.0-3.130-0.130","hgvrs6y69n1ppsq",220,"167.csv","","415.5","resources/trios/L4T4A2.jpg","37","restless",0.5,0.5,0.6,0.366010529941515,"true"
"image-keyboard-response",402,402280,"0.0-3.130-1.130","hgvrs6y69n1ppsq",220,"167.csv","","null","resources/maskTrios/L4BB.jpg","null","",NA,NA,NA,NA,""
"image-keyboard-response",403,403485,"0.0-3.130-2.130","hgvrs6y69n1ppsq",220,"167.csv","","null","resources/images/coin2.png","null","",NA,NA,NA,NA,""
"image-keyboard-response",404,404003,"0.0-3.131-0.131","hgvrs6y69n1ppsq",220,"167.csv","","515.7999997138977","resources/trios/L2T4A1.jpg","37","restless",0.5,0.5,0.6,0.966264166368896,"false"
"image-keyboard-response",405,404410,"0.0-3.131-1.131","hgvrs6y69n1ppsq",220,"167.csv","","null","resources/maskTrios/L2BB.jpg","null","",NA,NA,NA,NA,""
"image-keyboard-response",406,405612,"0.0-3.131-2.131","hgvrs6y69n1ppsq",220,"167.csv","","null","resources/images/fishbone.png","null","",NA,NA,NA,NA,""
"image-keyboard-response",407,405942,"0.0-3.132-0.132","hgvrs6y69n1ppsq",220,"167.csv","","328.5","resources/trios/L4T2A2.jpg","37","restless",0.5,0.5,0.6,0.449271622050481,"true"
"image-keyboard-response",408,406349,"0.0-3.132-1.132","hgvrs6y69n1ppsq",220,"167.csv","","null","resources/maskTrios/L4BB.jpg","null","",NA,NA,NA,NA,""
"image-keyboard-response",409,407556,"0.0-3.132-2.132","hgvrs6y69n1ppsq",220,"167.csv","","null","resources/images/coin2.png","null","",NA,NA,NA,NA,""
"image-keyboard-response",410,407665,"0.0-3.133-0.133","hgvrs6y69n1ppsq",220,"167.csv","","106.7999997138977","resources/trios/L4T4A1.jpg","37","restless",0.5,0.5,0.6,0.750847439709758,"false"
"image-keyboard-response",411,408072,"0.0-3.133-1.133","hgvrs6y69n1ppsq",220,"167.csv","","null","resources/maskTrios/L4BB.jpg","null","",NA,NA,NA,NA,""
"image-keyboard-response",412,409278,"0.0-3.133-2.133","hgvrs6y69n1ppsq",220,"167.csv","","null","resources/images/fishbone.png","null","",NA,NA,NA,NA,""
"image-keyboard-response",413,409539,"0.0-3.134-0.134","hgvrs6y69n1ppsq",220,"167.csv","","259.30000019073486","resources/trios/L2T2A1.jpg","37","restless",0.5,0.5,0.6,0.943186466504464,"false"
"image-keyboard-response",414,409946,"0.0-3.134-1.134","hgvrs6y69n1ppsq",220,"167.csv","","null","resources/maskTrios/L2BB.jpg","null","",NA,NA,NA,NA,""
"image-keyboard-response",415,411153,"0.0-3.134-2.134","hgvrs6y69n1ppsq",220,"167.csv","","null","resources/images/fishbone.png","null","",NA,NA,NA,NA,""
"image-keyboard-response",416,411170,"0.0-3.135-0.135","hgvrs6y69n1ppsq",220,"167.csv","","14.899999618530273","resources/trios/L4T4A2.jpg","37","restless",0.5,0.5,0.6,0.100877365662997,"true"
"image-keyboard-response",417,411575,"0.0-3.135-1.135","hgvrs6y69n1ppsq",220,"167.csv","","null","resources/maskTrios/L4BB.jpg","null","",NA,NA,NA,NA,""
"image-keyboard-response",418,412779,"0.0-3.135-2.135","hgvrs6y69n1ppsq",220,"167.csv","","null","resources/images/coin2.png","null","",NA,NA,NA,NA,""
"image-keyboard-response",419,413006,"0.0-3.136-0.136","hgvrs6y69n1ppsq",220,"167.csv","","225.80000019073486","resources/trios/L4T2A1.jpg","37","restless",0.5,0.5,0.6,0.66881103245911,"false"
"image-keyboard-response",420,413413,"0.0-3.136-1.136","hgvrs6y69n1ppsq",220,"167.csv","","null","resources/maskTrios/L4BB.jpg","null","",NA,NA,NA,NA,""
"image-keyboard-response",421,414620,"0.0-3.136-2.136","hgvrs6y69n1ppsq",220,"167.csv","","null","resources/images/fishbone.png","null","",NA,NA,NA,NA,""
"image-keyboard-response",422,414681,"0.0-3.137-0.137","hgvrs6y69n1ppsq",220,"167.csv","","59","resources/trios/L4T4A2.jpg","37","restless",0.6,0.5,0.6,0.221947643918735,"true"
"image-keyboard-response",423,415088,"0.0-3.137-1.137","hgvrs6y69n1ppsq",220,"167.csv","","null","resources/maskTrios/L4BB.jpg","null","",NA,NA,NA,NA,""
"image-keyboard-response",424,416293,"0.0-3.137-2.137","hgvrs6y69n1ppsq",220,"167.csv","","null","resources/images/coin2.png","null","",NA,NA,NA,NA,""
"image-keyboard-response",425,416589,"0.0-3.138-0.138","hgvrs6y69n1ppsq",220,"167.csv","","294.09999990463257","resources/trios/L2T4A1.jpg","37","restless",0.6,0.6,0.6,0.14099215871699,"true"
"image-keyboard-response",426,416996,"0.0-3.138-1.138","hgvrs6y69n1ppsq",220,"167.csv","","null","resources/maskTrios/L2BB.jpg","null","",NA,NA,NA,NA,""
"image-keyboard-response",427,418203,"0.0-3.138-2.138","hgvrs6y69n1ppsq",220,"167.csv","","null","resources/images/coin2.png","null","",NA,NA,NA,NA,""
"image-keyboard-response",428,418538,"0.0-3.139-0.139","hgvrs6y69n1ppsq",220,"167.csv","","332.7999997138977","resources/trios/L4T2A1.jpg","37","restless",0.6,0.6,0.6,0.818131662889007,"false"
"image-keyboard-response",429,418945,"0.0-3.139-1.139","hgvrs6y69n1ppsq",220,"167.csv","","null","resources/maskTrios/L4BB.jpg","null","",NA,NA,NA,NA,""
"image-keyboard-response",430,420152,"0.0-3.139-2.139","hgvrs6y69n1ppsq",220,"167.csv","","null","resources/images/fishbone.png","null","",NA,NA,NA,NA,""
"image-keyboard-response",431,420429,"0.0-3.140-0.140","hgvrs6y69n1ppsq",220,"167.csv","","275.7000002861023","resources/trios/L2T4A2.jpg","37","restless",0.6,0.6,0.6,0.371889981299803,"true"
"image-keyboard-response",432,420836,"0.0-3.140-1.140","hgvrs6y69n1ppsq",220,"167.csv","","null","resources/maskTrios/L2BB.jpg","null","",NA,NA,NA,NA,""
"image-keyboard-response",433,422040,"0.0-3.140-2.140","hgvrs6y69n1ppsq",220,"167.csv","","null","resources/images/coin2.png","null","",NA,NA,NA,NA,""
"image-keyboard-response",434,422768,"0.0-3.141-0.141","hgvrs6y69n1ppsq",220,"167.csv","","726","resources/trios/L4T4A1.jpg","37","restless",0.6,0.6,0.6,0.680539084816825,"false"
"image-keyboard-response",435,423175,"0.0-3.141-1.141","hgvrs6y69n1ppsq",220,"167.csv","","null","resources/maskTrios/L4BB.jpg","null","",NA,NA,NA,NA,""
"image-keyboard-response",436,424377,"0.0-3.141-2.141","hgvrs6y69n1ppsq",220,"167.csv","","null","resources/images/fishbone.png","null","",NA,NA,NA,NA,""
"image-keyboard-response",437,425389,"0.0-3.142-0.142","hgvrs6y69n1ppsq",220,"167.csv","","1009.2999997138977","resources/trios/L4T4A2.jpg","37","restless",0.6,0.6,0.6,0.71341494827928,"false"
"image-keyboard-response",438,425795,"0.0-3.142-1.142","hgvrs6y69n1ppsq",220,"167.csv","","null","resources/maskTrios/L4BB.jpg","null","",NA,NA,NA,NA,""
"image-keyboard-response",439,427001,"0.0-3.142-2.142","hgvrs6y69n1ppsq",220,"167.csv","","null","resources/images/fishbone.png","null","",NA,NA,NA,NA,""
"image-keyboard-response",440,427242,"0.0-3.143-0.143","hgvrs6y69n1ppsq",220,"167.csv","","238.39999961853027","resources/trios/L4T2A1.jpg","37","restless",0.6,0.6,0.6,0.949712925904145,"false"
"image-keyboard-response",441,427649,"0.0-3.143-1.143","hgvrs6y69n1ppsq",220,"167.csv","","null","resources/maskTrios/L4BB.jpg","null","",NA,NA,NA,NA,""
"image-keyboard-response",442,428853,"0.0-3.143-2.143","hgvrs6y69n1ppsq",220,"167.csv","","null","resources/images/fishbone.png","null","",NA,NA,NA,NA,""
"image-keyboard-response",443,429262,"0.0-3.144-0.144","hgvrs6y69n1ppsq",220,"167.csv","","407.2000002861023","resources/trios/L2T4A2.jpg","37","restless",0.6,0.6,0.6,0.38639716049375,"true"
"image-keyboard-response",444,429670,"0.0-3.144-1.144","hgvrs6y69n1ppsq",220,"167.csv","","null","resources/maskTrios/L2BB.jpg","null","",NA,NA,NA,NA,""
"image-keyboard-response",445,430875,"0.0-3.144-2.144","hgvrs6y69n1ppsq",220,"167.csv","","null","resources/images/coin2.png","null","",NA,NA,NA,NA,""
"image-keyboard-response",446,431254,"0.0-3.145-0.145","hgvrs6y69n1ppsq",220,"167.csv","","376.5","resources/trios/L4T2A2.jpg","37","restless",0.6,0.6,0.7,0.227687635040006,"true"
"image-keyboard-response",447,431658,"0.0-3.145-1.145","hgvrs6y69n1ppsq",220,"167.csv","","null","resources/maskTrios/L4BB.jpg","null","",NA,NA,NA,NA,""
"image-keyboard-response",448,432865,"0.0-3.145-2.145","hgvrs6y69n1ppsq",220,"167.csv","","null","resources/images/coin2.png","null","",NA,NA,NA,NA,""
"image-keyboard-response",449,434105,"0.0-3.146-0.146","hgvrs6y69n1ppsq",220,"167.csv","","1237","resources/trios/L2T2A1.jpg","37","restless",0.6,0.6,0.7,0.573904521835664,"true"
"image-keyboard-response",450,434512,"0.0-3.146-1.146","hgvrs6y69n1ppsq",220,"167.csv","","null","resources/maskTrios/L2BB.jpg","null","",NA,NA,NA,NA,""
"image-keyboard-response",451,435719,"0.0-3.146-2.146","hgvrs6y69n1ppsq",220,"167.csv","","null","resources/images/coin2.png","null","",NA,NA,NA,NA,""
"image-keyboard-response",452,437018,"0.0-3.147-0.147","hgvrs6y69n1ppsq",220,"167.csv","","1297.3999996185303","resources/trios/L2T4A1.jpg","37","restless",0.6,0.6,0.7,0.460941436349288,"true"
"image-keyboard-response",453,437420,"0.0-3.147-1.147","hgvrs6y69n1ppsq",220,"167.csv","","null","resources/maskTrios/L2BB.jpg","null","",NA,NA,NA,NA,""
"image-keyboard-response",454,438624,"0.0-3.147-2.147","hgvrs6y69n1ppsq",220,"167.csv","","null","resources/images/coin2.png","null","",NA,NA,NA,NA,""
"image-keyboard-response",455,439454,"0.0-3.148-0.148","hgvrs6y69n1ppsq",220,"167.csv","","828.4000000953674","resources/trios/L4T2A1.jpg","37","restless",0.6,0.6,0.7,0.900824890286215,"false"
"image-keyboard-response",456,439862,"0.0-3.148-1.148","hgvrs6y69n1ppsq",220,"167.csv","","null","resources/maskTrios/L4BB.jpg","null","",NA,NA,NA,NA,""
"image-keyboard-response",457,441067,"0.0-3.148-2.148","hgvrs6y69n1ppsq",220,"167.csv","","null","resources/images/fishbone.png","null","",NA,NA,NA,NA,""
"image-keyboard-response",458,441410,"0.0-3.149-0.149","hgvrs6y69n1ppsq",220,"167.csv","","340.59999990463257","resources/trios/L4T4A2.jpg","39","restless",0.6,0.6,0.7,0.73478807061059,"false"
"image-keyboard-response",459,441817,"0.0-3.149-1.149","hgvrs6y69n1ppsq",220,"167.csv","","null","resources/maskTrios/BBA2.jpg","null","",NA,NA,NA,NA,""
"image-keyboard-response",460,443024,"0.0-3.149-2.149","hgvrs6y69n1ppsq",220,"167.csv","","null","resources/images/fishbone.png","null","",NA,NA,NA,NA,""
"image-keyboard-response",461,443431,"0.0-3.150-0.150","hgvrs6y69n1ppsq",220,"167.csv","","404.5","resources/trios/L2T4A2.jpg","37","restless",0.6,0.6,0.7,0.954218806584568,"false"
"image-keyboard-response",462,443838,"0.0-3.150-1.150","hgvrs6y69n1ppsq",220,"167.csv","","null","resources/maskTrios/L2BB.jpg","null","",NA,NA,NA,NA,""
"image-keyboard-response",463,445040,"0.0-3.150-2.150","hgvrs6y69n1ppsq",220,"167.csv","","null","resources/images/fishbone.png","null","",NA,NA,NA,NA,""
"image-keyboard-response",464,445891,"0.0-3.151-0.151","hgvrs6y69n1ppsq",220,"167.csv","","848.4000000953674","resources/trios/L4T4A1.jpg","39","restless",0.6,0.5,0.7,0.745901245097015,"false"
"image-keyboard-response",465,446296,"0.0-3.151-1.151","hgvrs6y69n1ppsq",220,"167.csv","","null","resources/maskTrios/BBA1.jpg","null","",NA,NA,NA,NA,""
"image-keyboard-response",466,447503,"0.0-3.151-2.151","hgvrs6y69n1ppsq",220,"167.csv","","null","resources/images/fishbone.png","null","",NA,NA,NA,NA,""
"image-keyboard-response",467,447749,"0.0-3.152-0.152","hgvrs6y69n1ppsq",220,"167.csv","","243.7999997138977","resources/trios/L2T4A1.jpg","37","restless",0.6,0.5,0.7,0.298334360989095,"true"
"image-keyboard-response",468,448155,"0.0-3.152-1.152","hgvrs6y69n1ppsq",220,"167.csv","","null","resources/maskTrios/L2BB.jpg","null","",NA,NA,NA,NA,""
"image-keyboard-response",469,449362,"0.0-3.152-2.152","hgvrs6y69n1ppsq",220,"167.csv","","null","resources/images/coin2.png","null","",NA,NA,NA,NA,""
"image-keyboard-response",470,449697,"0.0-3.153-0.153","hgvrs6y69n1ppsq",220,"167.csv","","332.6000003814697","resources/trios/L4T2A2.jpg","37","restless",0.6,0.5,0.8,0.0853596043997018,"true"
"image-keyboard-response",471,450102,"0.0-3.153-1.153","hgvrs6y69n1ppsq",220,"167.csv","","null","resources/maskTrios/L4BB.jpg","null","",NA,NA,NA,NA,""
"image-keyboard-response",472,451309,"0.0-3.153-2.153","hgvrs6y69n1ppsq",220,"167.csv","","null","resources/images/coin2.png","null","",NA,NA,NA,NA,""
"image-keyboard-response",473,451423,"0.0-3.154-0.154","hgvrs6y69n1ppsq",220,"167.csv","","112.19999980926514","resources/trios/L2T2A2.jpg","37","restless",0.6,0.5,0.8,0.961456224373666,"false"
"image-keyboard-response",474,451830,"0.0-3.154-1.154","hgvrs6y69n1ppsq",220,"167.csv","","null","resources/maskTrios/L2BB.jpg","null","",NA,NA,NA,NA,""
"image-keyboard-response",475,453037,"0.0-3.154-2.154","hgvrs6y69n1ppsq",220,"167.csv","","null","resources/images/fishbone.png","null","",NA,NA,NA,NA,""
"image-keyboard-response",476,454084,"0.0-3.155-0.155","hgvrs6y69n1ppsq",220,"167.csv","","1044.5999999046326","resources/trios/L4T4A1.jpg","37","restless",0.6,0.5,0.9,0.523056280164542,"true"
"image-keyboard-response",477,454491,"0.0-3.155-1.155","hgvrs6y69n1ppsq",220,"167.csv","","null","resources/maskTrios/L4BB.jpg","null","",NA,NA,NA,NA,""
"image-keyboard-response",478,455698,"0.0-3.155-2.155","hgvrs6y69n1ppsq",220,"167.csv","","null","resources/images/coin2.png","null","",NA,NA,NA,NA,""
"image-keyboard-response",479,456210,"0.0-3.156-0.156","hgvrs6y69n1ppsq",220,"167.csv","","509.59999990463257","resources/trios/L4T2A1.jpg","37","restless",0.6,0.5,0.8,0.941190396481875,"false"
"image-keyboard-response",480,456617,"0.0-3.156-1.156","hgvrs6y69n1ppsq",220,"167.csv","","null","resources/maskTrios/L4BB.jpg","null","",NA,NA,NA,NA,""
"image-keyboard-response",481,457824,"0.0-3.156-2.156","hgvrs6y69n1ppsq",220,"167.csv","","null","resources/images/fishbone.png","null","",NA,NA,NA,NA,""
"image-keyboard-response",482,458180,"0.0-3.157-0.157","hgvrs6y69n1ppsq",220,"167.csv","","353.80000019073486","resources/trios/L2T4A2.jpg","37","restless",0.6,0.5,0.8,0.180449380089961,"true"
"image-keyboard-response",483,458587,"0.0-3.157-1.157","hgvrs6y69n1ppsq",220,"167.csv","","null","resources/maskTrios/L2BB.jpg","null","",NA,NA,NA,NA,""
"image-keyboard-response",484,459794,"0.0-3.157-2.157","hgvrs6y69n1ppsq",220,"167.csv","","null","resources/images/coin2.png","null","",NA,NA,NA,NA,""
"image-keyboard-response",485,460727,"0.0-3.158-0.158","hgvrs6y69n1ppsq",220,"167.csv","","931.1000003814697","resources/trios/L4T2A1.jpg","37","restless",0.6,0.5,0.8,0.659914934710551,"false"
"image-keyboard-response",486,461134,"0.0-3.158-1.158","hgvrs6y69n1ppsq",220,"167.csv","","null","resources/maskTrios/L4BB.jpg","null","",NA,NA,NA,NA,""
"image-keyboard-response",487,462341,"0.0-3.158-2.158","hgvrs6y69n1ppsq",220,"167.csv","","null","resources/images/fishbone.png","null","",NA,NA,NA,NA,""
"image-keyboard-response",488,463737,"0.0-3.159-0.159","hgvrs6y69n1ppsq",220,"167.csv","","1393.5","resources/trios/L4T2A1.jpg","37","restless",0.6,0.5,0.8,0.198816495125471,"true"
"image-keyboard-response",489,464143,"0.0-3.159-1.159","hgvrs6y69n1ppsq",220,"167.csv","","null","resources/maskTrios/L4BB.jpg","null","",NA,NA,NA,NA,""
"image-keyboard-response",490,465350,"0.0-3.159-2.159","hgvrs6y69n1ppsq",220,"167.csv","","null","resources/images/coin2.png","null","",NA,NA,NA,NA,""
"image-keyboard-response",491,465896,"0.0-3.160-0.160","hgvrs6y69n1ppsq",220,"167.csv","","544.6999998092651","resources/trios/L4T2A2.jpg","37","restless",0.6,0.5,0.8,0.139810930372391,"true"
"image-keyboard-response",492,466304,"0.0-3.160-1.160","hgvrs6y69n1ppsq",220,"167.csv","","null","resources/maskTrios/L4BB.jpg","null","",NA,NA,NA,NA,""
"image-keyboard-response",493,467511,"0.0-3.160-2.160","hgvrs6y69n1ppsq",220,"167.csv","","null","resources/images/coin2.png","null","",NA,NA,NA,NA,""
"image-keyboard-response",494,467964,"0.0-3.161-0.161","hgvrs6y69n1ppsq",220,"167.csv","","451","resources/trios/L4T2A1.jpg","37","restless",0.6,0.5,0.8,0.719704586848725,"false"
"image-keyboard-response",495,468371,"0.0-3.161-1.161","hgvrs6y69n1ppsq",220,"167.csv","","null","resources/maskTrios/L4BB.jpg","null","",NA,NA,NA,NA,""
"image-keyboard-response",496,469578,"0.0-3.161-2.161","hgvrs6y69n1ppsq",220,"167.csv","","null","resources/images/fishbone.png","null","",NA,NA,NA,NA,""
"image-keyboard-response",497,470504,"0.0-3.162-0.162","hgvrs6y69n1ppsq",220,"167.csv","","923.2999997138977","resources/trios/L4T4A2.jpg","37","restless",0.6,0.5,0.8,0.0718623311585327,"true"
"image-keyboard-response",498,470911,"0.0-3.162-1.162","hgvrs6y69n1ppsq",220,"167.csv","","null","resources/maskTrios/L4BB.jpg","null","",NA,NA,NA,NA,""
"image-keyboard-response",499,472118,"0.0-3.162-2.162","hgvrs6y69n1ppsq",220,"167.csv","","null","resources/images/coin2.png","null","",NA,NA,NA,NA,""
"image-keyboard-response",500,472427,"0.0-3.163-0.163","hgvrs6y69n1ppsq",220,"167.csv","","305.69999980926514","resources/trios/L2T4A1.jpg","37","restless",0.6,0.5,0.8,0.258255809381262,"true"
"image-keyboard-response",501,472834,"0.0-3.163-1.163","hgvrs6y69n1ppsq",220,"167.csv","","null","resources/maskTrios/L2BB.jpg","null","",NA,NA,NA,NA,""
"image-keyboard-response",502,474041,"0.0-3.163-2.163","hgvrs6y69n1ppsq",220,"167.csv","","null","resources/images/coin2.png","null","",NA,NA,NA,NA,""
"image-keyboard-response",503,474290,"0.0-3.164-0.164","hgvrs6y69n1ppsq",220,"167.csv","","247.2999997138977","resources/trios/L4T2A2.jpg","37","restless",0.6,0.5,0.8,0.366590751102799,"true"
"image-keyboard-response",504,474698,"0.0-3.164-1.164","hgvrs6y69n1ppsq",220,"167.csv","","null","resources/maskTrios/L4BB.jpg","null","",NA,NA,NA,NA,""
"image-keyboard-response",505,475905,"0.0-3.164-2.164","hgvrs6y69n1ppsq",220,"167.csv","","null","resources/images/coin2.png","null","",NA,NA,NA,NA,""
"image-keyboard-response",506,476220,"0.0-3.165-0.165","hgvrs6y69n1ppsq",220,"167.csv","","313.2000002861023","resources/trios/L4T2A1.jpg","37","restless",0.6,0.5,0.8,0.348332787707255,"true"
"image-keyboard-response",507,476628,"0.0-3.165-1.165","hgvrs6y69n1ppsq",220,"167.csv","","null","resources/maskTrios/L4BB.jpg","null","",NA,NA,NA,NA,""
"image-keyboard-response",508,477835,"0.0-3.165-2.165","hgvrs6y69n1ppsq",220,"167.csv","","null","resources/images/coin2.png","null","",NA,NA,NA,NA,""
"image-keyboard-response",509,478132,"0.0-3.166-0.166","hgvrs6y69n1ppsq",220,"167.csv","","295.5","resources/trios/L4T2A2.jpg","37","restless",0.6,0.5,0.8,0.64911460093998,"false"
"image-keyboard-response",510,478540,"0.0-3.166-1.166","hgvrs6y69n1ppsq",220,"167.csv","","null","resources/maskTrios/L4BB.jpg","null","",NA,NA,NA,NA,""
"image-keyboard-response",511,479745,"0.0-3.166-2.166","hgvrs6y69n1ppsq",220,"167.csv","","null","resources/images/fishbone.png","null","",NA,NA,NA,NA,""
"image-keyboard-response",512,481197,"0.0-3.167-0.167","hgvrs6y69n1ppsq",220,"167.csv","","1449","resources/trios/L2T2A2.jpg","39","restless",0.6,0.6,0.8,0.943332168906516,"false"
"image-keyboard-response",513,481604,"0.0-3.167-1.167","hgvrs6y69n1ppsq",220,"167.csv","","null","resources/maskTrios/BBA2.jpg","null","",NA,NA,NA,NA,""
"image-keyboard-response",514,482811,"0.0-3.167-2.167","hgvrs6y69n1ppsq",220,"167.csv","","null","resources/images/fishbone.png","null","",NA,NA,NA,NA,""
"image-keyboard-response",515,483640,"0.0-3.168-0.168","hgvrs6y69n1ppsq",220,"167.csv","","826.9000000953674","resources/trios/L2T2A1.jpg","39","restless",0.6,0.6,0.8,0.322810656724642,"true"
"image-keyboard-response",516,484047,"0.0-3.168-1.168","hgvrs6y69n1ppsq",220,"167.csv","","null","resources/maskTrios/BBA1.jpg","null","",NA,NA,NA,NA,""
"image-keyboard-response",517,485254,"0.0-3.168-2.168","hgvrs6y69n1ppsq",220,"167.csv","","null","resources/images/coin2.png","null","",NA,NA,NA,NA,""
"image-keyboard-response",518,485799,"0.0-3.169-0.169","hgvrs6y69n1ppsq",220,"167.csv","","542.5","resources/trios/L2T2A2.jpg","39","restless",0.6,0.6,0.8,0.743058977757891,"true"
"image-keyboard-response",519,486202,"0.0-3.169-1.169","hgvrs6y69n1ppsq",220,"167.csv","","null","resources/maskTrios/BBA2.jpg","null","",NA,NA,NA,NA,""
"image-keyboard-response",520,487409,"0.0-3.169-2.169","hgvrs6y69n1ppsq",220,"167.csv","","null","resources/images/coin2.png","null","",NA,NA,NA,NA,""
"image-keyboard-response",521,487820,"0.0-3.170-0.170","hgvrs6y69n1ppsq",220,"167.csv","","408.90000009536743","resources/trios/L4T4A2.jpg","39","restless",0.5,0.6,0.7,0.58602314152963,"true"
"image-keyboard-response",522,488227,"0.0-3.170-1.170","hgvrs6y69n1ppsq",220,"167.csv","","null","resources/maskTrios/BBA2.jpg","null","",NA,NA,NA,NA,""
"image-keyboard-response",523,489431,"0.0-3.170-2.170","hgvrs6y69n1ppsq",220,"167.csv","","null","resources/images/coin2.png","null","",NA,NA,NA,NA,""
"image-keyboard-response",524,489819,"0.0-3.171-0.171","hgvrs6y69n1ppsq",220,"167.csv","","385.7999997138977","resources/trios/L2T2A1.jpg","39","restless",0.5,0.7,0.7,0.73920220941215,"false"
"image-keyboard-response",525,490227,"0.0-3.171-1.171","hgvrs6y69n1ppsq",220,"167.csv","","null","resources/maskTrios/BBA1.jpg","null","",NA,NA,NA,NA,""
"image-keyboard-response",526,491433,"0.0-3.171-2.171","hgvrs6y69n1ppsq",220,"167.csv","","null","resources/images/fishbone.png","null","",NA,NA,NA,NA,""
"image-keyboard-response",527,492628,"0.0-3.172-0.172","hgvrs6y69n1ppsq",220,"167.csv","","1192.8000001907349","resources/trios/L4T4A1.jpg","39","restless",0.5,0.8,0.6,0.25910980686974,"true"
"image-keyboard-response",528,493034,"0.0-3.172-1.172","hgvrs6y69n1ppsq",220,"167.csv","","null","resources/maskTrios/BBA1.jpg","null","",NA,NA,NA,NA,""
"image-keyboard-response",529,494241,"0.0-3.172-2.172","hgvrs6y69n1ppsq",220,"167.csv","","null","resources/images/coin2.png","null","",NA,NA,NA,NA,""
"image-keyboard-response",530,494285,"0.0-3.173-0.173","hgvrs6y69n1ppsq",220,"167.csv","","41.80000019073486","resources/trios/L4T2A2.jpg","39","restless",0.5,0.8,0.6,0.740581381677173,"false"
"image-keyboard-response",531,494691,"0.0-3.173-1.173","hgvrs6y69n1ppsq",220,"167.csv","","null","resources/maskTrios/BBA2.jpg","null","",NA,NA,NA,NA,""
"image-keyboard-response",532,495893,"0.0-3.173-2.173","hgvrs6y69n1ppsq",220,"167.csv","","null","resources/images/fishbone.png","null","",NA,NA,NA,NA,""
"image-keyboard-response",533,496209,"0.0-3.174-0.174","hgvrs6y69n1ppsq",220,"167.csv","","314.59999990463257","resources/trios/L4T2A1.jpg","39","restless",0.5,0.8,0.6,0.793056647586743,"false"
"image-keyboard-response",534,496616,"0.0-3.174-1.174","hgvrs6y69n1ppsq",220,"167.csv","","null","resources/maskTrios/BBA1.jpg","null","",NA,NA,NA,NA,""
"image-keyboard-response",535,497819,"0.0-3.174-2.174","hgvrs6y69n1ppsq",220,"167.csv","","null","resources/images/fishbone.png","null","",NA,NA,NA,NA,""
"image-keyboard-response",536,498150,"0.0-3.175-0.175","hgvrs6y69n1ppsq",220,"167.csv","","329.2999997138977","resources/trios/L4T4A2.jpg","39","restless",0.5,0.8,0.6,0.0255124095504911,"true"
"image-keyboard-response",537,498556,"0.0-3.175-1.175","hgvrs6y69n1ppsq",220,"167.csv","","null","resources/maskTrios/BBA2.jpg","null","",NA,NA,NA,NA,""
"image-keyboard-response",538,499763,"0.0-3.175-2.175","hgvrs6y69n1ppsq",220,"167.csv","","null","resources/images/coin2.png","null","",NA,NA,NA,NA,""
"image-keyboard-response",539,499979,"0.0-3.176-0.176","hgvrs6y69n1ppsq",220,"167.csv","","214.19999980926514","resources/trios/L2T4A1.jpg","39","restless",0.5,0.8,0.6,0.837611822725403,"false"
"image-keyboard-response",540,500386,"0.0-3.176-1.176","hgvrs6y69n1ppsq",220,"167.csv","","null","resources/maskTrios/BBA1.jpg","null","",NA,NA,NA,NA,""
"image-keyboard-response",541,501593,"0.0-3.176-2.176","hgvrs6y69n1ppsq",220,"167.csv","","null","resources/images/fishbone.png","null","",NA,NA,NA,NA,""
"image-keyboard-response",542,503325,"0.0-3.177-0.177","hgvrs6y69n1ppsq",220,"167.csv","","1730.7999997138977","resources/trios/L2T2A2.jpg","39","restless",0.5,0.7,0.5,0.388205430168443,"true"
"image-keyboard-response",543,503732,"0.0-3.177-1.177","hgvrs6y69n1ppsq",220,"167.csv","","null","resources/maskTrios/BBA2.jpg","null","",NA,NA,NA,NA,""
"image-keyboard-response",544,504939,"0.0-3.177-2.177","hgvrs6y69n1ppsq",220,"167.csv","","null","resources/images/coin2.png","null","",NA,NA,NA,NA,""
"image-keyboard-response",545,505336,"0.0-3.178-0.178","hgvrs6y69n1ppsq",220,"167.csv","","395.09999990463257","resources/trios/L4T4A2.jpg","39","restless",0.5,0.7,0.5,0.28391867384196,"true"
"image-keyboard-response",546,505739,"0.0-3.178-1.178","hgvrs6y69n1ppsq",220,"167.csv","","null","resources/maskTrios/BBA2.jpg","null","",NA,NA,NA,NA,""
"image-keyboard-response",547,506942,"0.0-3.178-2.178","hgvrs6y69n1ppsq",220,"167.csv","","null","resources/images/coin2.png","null","",NA,NA,NA,NA,""
"image-keyboard-response",548,507896,"0.0-3.179-0.179","hgvrs6y69n1ppsq",220,"167.csv","","951.8999996185303","resources/trios/L2T4A1.jpg","39","restless",0.5,0.6,0.5,0.529617333671491,"false"
"image-keyboard-response",549,508304,"0.0-3.179-1.179","hgvrs6y69n1ppsq",220,"167.csv","","null","resources/maskTrios/BBA1.jpg","null","",NA,NA,NA,NA,""
"image-keyboard-response",550,509507,"0.0-3.179-2.179","hgvrs6y69n1ppsq",220,"167.csv","","null","resources/images/fishbone.png","null","",NA,NA,NA,NA,""
"image-keyboard-response",551,509895,"0.0-3.180-0.180","hgvrs6y69n1ppsq",220,"167.csv","","386.30000019073486","resources/trios/L4T4A2.jpg","39","restless",0.5,0.6,0.5,0.659637635155675,"false"
"image-keyboard-response",552,510302,"0.0-3.180-1.180","hgvrs6y69n1ppsq",220,"167.csv","","null","resources/maskTrios/BBA2.jpg","null","",NA,NA,NA,NA,""
"image-keyboard-response",553,511509,"0.0-3.180-2.180","hgvrs6y69n1ppsq",220,"167.csv","","null","resources/images/fishbone.png","null","",NA,NA,NA,NA,""
"image-keyboard-response",554,511973,"0.0-3.181-0.181","hgvrs6y69n1ppsq",220,"167.csv","","461.5","resources/trios/L4T2A1.jpg","39","restless",0.5,0.6,0.5,0.279621336169636,"true"
"image-keyboard-response",555,512380,"0.0-3.181-1.181","hgvrs6y69n1ppsq",220,"167.csv","","null","resources/maskTrios/BBA1.jpg","null","",NA,NA,NA,NA,""
"image-keyboard-response",556,513587,"0.0-3.181-2.181","hgvrs6y69n1ppsq",220,"167.csv","","null","resources/images/coin2.png","null","",NA,NA,NA,NA,""
"image-keyboard-response",557,513987,"0.0-3.182-0.182","hgvrs6y69n1ppsq",220,"167.csv","","398.40000009536743","resources/trios/L2T2A1.jpg","39","restless",0.5,0.6,0.5,0.691304367641509,"false"
"image-keyboard-response",558,514394,"0.0-3.182-1.182","hgvrs6y69n1ppsq",220,"167.csv","","null","resources/maskTrios/BBA1.jpg","null","",NA,NA,NA,NA,""
"image-keyboard-response",559,515597,"0.0-3.182-2.182","hgvrs6y69n1ppsq",220,"167.csv","","null","resources/images/fishbone.png","null","",NA,NA,NA,NA,""
"image-keyboard-response",560,516259,"0.0-3.183-0.183","hgvrs6y69n1ppsq",220,"167.csv","","659.2999997138977","resources/trios/L4T2A1.jpg","37","restless",0.5,0.6,0.5,0.159975366144129,"true"
"image-keyboard-response",561,516666,"0.0-3.183-1.183","hgvrs6y69n1ppsq",220,"167.csv","","null","resources/maskTrios/L4BB.jpg","null","",NA,NA,NA,NA,""
"image-keyboard-response",562,517873,"0.0-3.183-2.183","hgvrs6y69n1ppsq",220,"167.csv","","null","resources/images/coin2.png","null","",NA,NA,NA,NA,""
"image-keyboard-response",563,518770,"0.0-3.184-0.184","hgvrs6y69n1ppsq",220,"167.csv","","894.6999998092651","resources/trios/L4T4A1.jpg","37","restless",0.6,0.6,0.5,0.570896127633478,"true"
"image-keyboard-response",564,519177,"0.0-3.184-1.184","hgvrs6y69n1ppsq",220,"167.csv","","null","resources/maskTrios/L4BB.jpg","null","",NA,NA,NA,NA,""
"image-keyboard-response",565,520384,"0.0-3.184-2.184","hgvrs6y69n1ppsq",220,"167.csv","","null","resources/images/coin2.png","null","",NA,NA,NA,NA,""
"image-keyboard-response",566,521226,"0.0-3.185-0.185","hgvrs6y69n1ppsq",220,"167.csv","","840.1999998092651","resources/trios/L4T4A2.jpg","37","restless",0.6,0.6,0.5,0.869549522407238,"false"
"image-keyboard-response",567,521629,"0.0-3.185-1.185","hgvrs6y69n1ppsq",220,"167.csv","","null","resources/maskTrios/L4BB.jpg","null","",NA,NA,NA,NA,""
"image-keyboard-response",568,522835,"0.0-3.185-2.185","hgvrs6y69n1ppsq",220,"167.csv","","null","resources/images/fishbone.png","null","",NA,NA,NA,NA,""
"image-keyboard-response",569,522865,"0.0-3.186-0.186","hgvrs6y69n1ppsq",220,"167.csv","","28.200000286102295","resources/trios/L2T4A1.jpg","37","restless",0.6,0.6,0.5,0.940369939086798,"false"
"image-keyboard-response",570,523271,"0.0-3.186-1.186","hgvrs6y69n1ppsq",220,"167.csv","","null","resources/maskTrios/L2BB.jpg","null","",NA,NA,NA,NA,""
"image-keyboard-response",571,524478,"0.0-3.186-2.186","hgvrs6y69n1ppsq",220,"167.csv","","null","resources/images/fishbone.png","null","",NA,NA,NA,NA,""
"image-keyboard-response",572,524984,"0.0-3.187-0.187","hgvrs6y69n1ppsq",220,"167.csv","","503.8999996185303","resources/trios/L2T2A2.jpg","39","restless",0.6,0.6,0.5,0.684496970969836,"false"
"image-keyboard-response",573,525389,"0.0-3.187-1.187","hgvrs6y69n1ppsq",220,"167.csv","","null","resources/maskTrios/BBA2.jpg","null","",NA,NA,NA,NA,""
"image-keyboard-response",574,526596,"0.0-3.187-2.187","hgvrs6y69n1ppsq",220,"167.csv","","null","resources/images/fishbone.png","null","",NA,NA,NA,NA,""
"image-keyboard-response",575,527611,"0.0-3.188-0.188","hgvrs6y69n1ppsq",220,"167.csv","","1012.7000002861023","resources/trios/L4T4A2.jpg","37","restless",0.6,0.6,0.5,0.50704031954742,"true"
"image-keyboard-response",576,528018,"0.0-3.188-1.188","hgvrs6y69n1ppsq",220,"167.csv","","null","resources/maskTrios/L4BB.jpg","null","",NA,NA,NA,NA,""
"image-keyboard-response",577,529226,"0.0-3.188-2.188","hgvrs6y69n1ppsq",220,"167.csv","","null","resources/images/coin2.png","null","",NA,NA,NA,NA,""
"image-keyboard-response",578,530801,"0.0-3.189-0.189","hgvrs6y69n1ppsq",220,"167.csv","","1573.3000001907349","resources/trios/L4T4A1.jpg","37","restless",0.6,0.6,0.5,0.763828534793406,"false"
"image-keyboard-response",579,531208,"0.0-3.189-1.189","hgvrs6y69n1ppsq",220,"167.csv","","null","resources/maskTrios/L4BB.jpg","null","",NA,NA,NA,NA,""
"image-keyboard-response",580,532413,"0.0-3.189-2.189","hgvrs6y69n1ppsq",220,"167.csv","","null","resources/images/fishbone.png","null","",NA,NA,NA,NA,""
"image-keyboard-response",581,533167,"0.0-3.190-0.190","hgvrs6y69n1ppsq",220,"167.csv","","751.5","resources/trios/L4T4A1.jpg","37","restless",0.6,0.6,0.5,0.649508607017272,"false"
"image-keyboard-response",582,533570,"0.0-3.190-1.190","hgvrs6y69n1ppsq",220,"167.csv","","null","resources/maskTrios/L4BB.jpg","null","",NA,NA,NA,NA,""
"image-keyboard-response",583,534777,"0.0-3.190-2.190","hgvrs6y69n1ppsq",220,"167.csv","","null","resources/images/fishbone.png","null","",NA,NA,NA,NA,""
"image-keyboard-response",584,535666,"0.0-3.191-0.191","hgvrs6y69n1ppsq",220,"167.csv","","887","resources/trios/L2T4A1.jpg","37","restless",0.6,0.6,0.5,0.833377670075197,"false"
"image-keyboard-response",585,536068,"0.0-3.191-1.191","hgvrs6y69n1ppsq",220,"167.csv","","null","resources/maskTrios/L2BB.jpg","null","",NA,NA,NA,NA,""
"image-keyboard-response",586,537273,"0.0-3.191-2.191","hgvrs6y69n1ppsq",220,"167.csv","","null","resources/images/fishbone.png","null","",NA,NA,NA,NA,""
"image-keyboard-response",587,537609,"0.0-3.192-0.192","hgvrs6y69n1ppsq",220,"167.csv","","334.59999990463257","resources/trios/L4T4A2.jpg","37","restless",0.6,0.6,0.5,0.546821479780938,"true"
"image-keyboard-response",588,538016,"0.0-3.192-1.192","hgvrs6y69n1ppsq",220,"167.csv","","null","resources/maskTrios/L4BB.jpg","null","",NA,NA,NA,NA,""
"image-keyboard-response",589,539222,"0.0-3.192-2.192","hgvrs6y69n1ppsq",220,"167.csv","","null","resources/images/coin2.png","null","",NA,NA,NA,NA,""
"image-keyboard-response",590,539387,"0.0-3.193-0.193","hgvrs6y69n1ppsq",220,"167.csv","","162.90000009536743","resources/trios/L2T4A1.jpg","39","restless",0.5,0.6,0.4,0.54982542738792,"false"
"image-keyboard-response",591,539794,"0.0-3.193-1.193","hgvrs6y69n1ppsq",220,"167.csv","","null","resources/maskTrios/BBA1.jpg","null","",NA,NA,NA,NA,""
"image-keyboard-response",592,541001,"0.0-3.193-2.193","hgvrs6y69n1ppsq",220,"167.csv","","null","resources/images/fishbone.png","null","",NA,NA,NA,NA,""
"image-keyboard-response",593,541101,"0.0-3.194-0.194","hgvrs6y69n1ppsq",220,"167.csv","","98.39999961853027","resources/trios/L4T2A1.jpg","37","restless",0.5,0.6,0.4,0.602990417874148,"false"
"image-keyboard-response",594,541508,"0.0-3.194-1.194","hgvrs6y69n1ppsq",220,"167.csv","","null","resources/maskTrios/L4BB.jpg","null","",NA,NA,NA,NA,""
"image-keyboard-response",595,542710,"0.0-3.194-2.194","hgvrs6y69n1ppsq",220,"167.csv","","null","resources/images/fishbone.png","null","",NA,NA,NA,NA,""
"image-keyboard-response",596,542856,"0.0-3.195-0.195","hgvrs6y69n1ppsq",220,"167.csv","","143.5","resources/trios/L2T4A2.jpg","39","restless",0.5,0.6,0.4,0.307009821679984,"true"
"image-keyboard-response",597,543263,"0.0-3.195-1.195","hgvrs6y69n1ppsq",220,"167.csv","","null","resources/maskTrios/BBA2.jpg","null","",NA,NA,NA,NA,""
"image-keyboard-response",598,544471,"0.0-3.195-2.195","hgvrs6y69n1ppsq",220,"167.csv","","null","resources/images/coin2.png","null","",NA,NA,NA,NA,""
"image-keyboard-response",599,544781,"0.0-3.196-0.196","hgvrs6y69n1ppsq",220,"167.csv","","308.5","resources/trios/L4T4A1.jpg","39","restless",0.5,0.6,0.3,0.943141194911121,"false"
"image-keyboard-response",600,545188,"0.0-3.196-1.196","hgvrs6y69n1ppsq",220,"167.csv","","null","resources/maskTrios/BBA1.jpg","null","",NA,NA,NA,NA,""
"image-keyboard-response",601,546392,"0.0-3.196-2.196","hgvrs6y69n1ppsq",220,"167.csv","","null","resources/images/fishbone.png","null","",NA,NA,NA,NA,""
"image-keyboard-response",602,546521,"0.0-3.197-0.197","hgvrs6y69n1ppsq",220,"167.csv","","126.90000009536743","resources/trios/L4T2A2.jpg","39","restless",0.5,0.7,0.3,0.107255213205879,"true"
"image-keyboard-response",603,546928,"0.0-3.197-1.197","hgvrs6y69n1ppsq",220,"167.csv","","null","resources/maskTrios/BBA2.jpg","null","",NA,NA,NA,NA,""
"image-keyboard-response",604,548131,"0.0-3.197-2.197","hgvrs6y69n1ppsq",220,"167.csv","","null","resources/images/coin2.png","null","",NA,NA,NA,NA,""
"image-keyboard-response",605,548225,"0.0-3.198-0.198","hgvrs6y69n1ppsq",220,"167.csv","","92.69999980926514","resources/trios/L2T4A2.jpg","37","restless",0.5,0.8,0.3,0.816507226592649,"false"
