"trial_type","trial_index","time_elapsed","internal_node_id","subject","participantCode","walkNumber","success","rt","stimulus","key_press","test_part","leftProb","midProb","rightProb","generatedNum","correct"
"pavlovia",0,947,"0.0-0.0","b36wwdhonfca4sc",489,"67.csv","","","","","",NA,NA,NA,NA,""
"fullscreen",1,23423,"0.0-1.0","b36wwdhonfca4sc",489,"67.csv","true","","","","",NA,NA,NA,NA,""
"html-keyboard-response",2,32666,"0.0-2.0-0.0","b36wwdhonfca4sc",489,"67.csv","","9241.800000190735","<p><font size='6'>Arrrgh!</p></font><p>Can you be the best pirate? Try to find lots of gold! But beware, some islands have more gold than others, and over time, the island with the most gold may change. Can YOU figure it out? </p><font size='6'>GOOD LUCK, CAPTAIN!!!</font><p>Press any key to begin</p>","37","",NA,NA,NA,NA,""
"image-keyboard-response",3,35673,"0.0-2.0-1.0","b36wwdhonfca4sc",489,"67.csv","","null","resources/image_sets/111.png","null","",NA,NA,NA,NA,""
"image-keyboard-response",4,37986,"0.0-2.0-2.0","b36wwdhonfca4sc",489,"67.csv","","2311.199999809265","resources/image_sets/left_highlight.png","37","",NA,NA,NA,NA,""
"image-keyboard-response",5,39148,"0.0-2.0-3.0","b36wwdhonfca4sc",489,"67.csv","","1160.5","resources/image_sets/mid_highlight.png","38","",NA,NA,NA,NA,""
"image-keyboard-response",6,39860,"0.0-2.0-4.0","b36wwdhonfca4sc",489,"67.csv","","710.3999998569489","resources/image_sets/right_highlight.png","39","",NA,NA,NA,NA,""
"image-keyboard-response",7,45843,"0.0-2.0-5.0","b36wwdhonfca4sc",489,"67.csv","","5980.599999904633","resources/image_sets/111.png","13","",NA,NA,NA,NA,""
"image-keyboard-response",8,49794,"0.0-2.0-6.0","b36wwdhonfca4sc",489,"67.csv","","3950.2000000476837","resources/images/coin2.png","13","",NA,NA,NA,NA,""
"image-keyboard-response",9,51747,"0.0-2.0-7.0","b36wwdhonfca4sc",489,"67.csv","","1951.2000000476837","resources/images/fishbone.png","13","",NA,NA,NA,NA,""
"html-keyboard-response",10,53970,"0.0-2.0-8.0","b36wwdhonfca4sc",489,"67.csv","","2221.5","<p>Your first journey will be a long one, but you will get a well deserved break at the end</p><p>After the break you will have four more journeys, but each will be much shorter than the first, and you will have breaks in between each</p><p>Press Enter to begin</p>","13","",NA,NA,NA,NA,""
"image-keyboard-response",11,54759,"0.0-3.0-0.0","b36wwdhonfca4sc",489,"67.csv","","786.1000001430511","resources/trios/L2T2A2.jpg","38","restless",0.9,0.7,0.3,0.354131287450353,"true"
"image-keyboard-response",12,55168,"0.0-3.0-1.0","b36wwdhonfca4sc",489,"67.csv","","null","resources/maskTrios/BT2B.jpg","null","",NA,NA,NA,NA,""
"image-keyboard-response",13,56374,"0.0-3.0-2.0","b36wwdhonfca4sc",489,"67.csv","","null","resources/images/coin2.png","null","",NA,NA,NA,NA,""
"image-keyboard-response",14,57023,"0.0-3.1-0.1","b36wwdhonfca4sc",489,"67.csv","","646.5999999046326","resources/trios/L4T4A2.jpg","37","restless",0.9,0.7,0.3,0.683856091781987,"true"
"image-keyboard-response",15,57429,"0.0-3.1-1.1","b36wwdhonfca4sc",489,"67.csv","","null","resources/maskTrios/L4BB.jpg","null","",NA,NA,NA,NA,""
"image-keyboard-response",16,58636,"0.0-3.1-2.1","b36wwdhonfca4sc",489,"67.csv","","null","resources/images/coin2.png","null","",NA,NA,NA,NA,""
"image-keyboard-response",17,59094,"0.0-3.2-0.2","b36wwdhonfca4sc",489,"67.csv","","455.10000014305115","resources/trios/L2T4A2.jpg","39","restless",0.9,0.7,0.3,0.332314387115913,"false"
"image-keyboard-response",18,59500,"0.0-3.2-1.2","b36wwdhonfca4sc",489,"67.csv","","null","resources/maskTrios/BBA2.jpg","null","",NA,NA,NA,NA,""
"image-keyboard-response",19,60703,"0.0-3.2-2.2","b36wwdhonfca4sc",489,"67.csv","","null","resources/images/fishbone.png","null","",NA,NA,NA,NA,""
"image-keyboard-response",20,61216,"0.0-3.3-0.3","b36wwdhonfca4sc",489,"67.csv","","510.60000014305115","resources/trios/L4T4A2.jpg","37","restless",0.9,0.7,0.3,0.746567806855649,"true"
"image-keyboard-response",21,61621,"0.0-3.3-1.3","b36wwdhonfca4sc",489,"67.csv","","null","resources/maskTrios/L4BB.jpg","null","",NA,NA,NA,NA,""
"image-keyboard-response",22,62828,"0.0-3.3-2.3","b36wwdhonfca4sc",489,"67.csv","","null","resources/images/coin2.png","null","",NA,NA,NA,NA,""
"image-keyboard-response",23,63168,"0.0-3.4-0.4","b36wwdhonfca4sc",489,"67.csv","","338.10000014305115","resources/trios/L4T4A2.jpg","39","restless",0.9,0.7,0.3,0.19171795961103,"true"
"image-keyboard-response",24,63575,"0.0-3.4-1.4","b36wwdhonfca4sc",489,"67.csv","","null","resources/maskTrios/BBA2.jpg","null","",NA,NA,NA,NA,""
"image-keyboard-response",25,64782,"0.0-3.4-2.4","b36wwdhonfca4sc",489,"67.csv","","null","resources/images/coin2.png","null","",NA,NA,NA,NA,""
"image-keyboard-response",26,65126,"0.0-3.5-0.5","b36wwdhonfca4sc",489,"67.csv","","341.89999985694885","resources/trios/L4T2A2.jpg","38","restless",0.9,0.7,0.3,0.582131947439604,"true"
"image-keyboard-response",27,65534,"0.0-3.5-1.5","b36wwdhonfca4sc",489,"67.csv","","null","resources/maskTrios/BT2B.jpg","null","",NA,NA,NA,NA,""
"image-keyboard-response",28,66741,"0.0-3.5-2.5","b36wwdhonfca4sc",489,"67.csv","","null","resources/images/coin2.png","null","",NA,NA,NA,NA,""
"image-keyboard-response",29,67030,"0.0-3.6-0.6","b36wwdhonfca4sc",489,"67.csv","","286.7000000476837","resources/trios/L2T2A2.jpg","37","restless",0.9,0.7,0.3,0.545007409934313,"true"
"image-keyboard-response",30,67437,"0.0-3.6-1.6","b36wwdhonfca4sc",489,"67.csv","","null","resources/maskTrios/L2BB.jpg","null","",NA,NA,NA,NA,""
"image-keyboard-response",31,68641,"0.0-3.6-2.6","b36wwdhonfca4sc",489,"67.csv","","null","resources/images/coin2.png","null","",NA,NA,NA,NA,""
"image-keyboard-response",32,69905,"0.0-3.7-0.7","b36wwdhonfca4sc",489,"67.csv","","1262.7000000476837","resources/trios/L4T2A2.jpg","37","restless",0.9,0.7,0.3,0.994825419240276,"false"
"image-keyboard-response",33,70313,"0.0-3.7-1.7","b36wwdhonfca4sc",489,"67.csv","","null","resources/maskTrios/L4BB.jpg","null","",NA,NA,NA,NA,""
"image-keyboard-response",34,71517,"0.0-3.7-2.7","b36wwdhonfca4sc",489,"67.csv","","null","resources/images/fishbone.png","null","",NA,NA,NA,NA,""
"image-keyboard-response",35,71790,"0.0-3.8-0.8","b36wwdhonfca4sc",489,"67.csv","","270.60000014305115","resources/trios/L2T2A1.jpg","38","restless",0.9,0.7,0.3,0.416504759229373,"true"
"image-keyboard-response",36,72197,"0.0-3.8-1.8","b36wwdhonfca4sc",489,"67.csv","","null","resources/maskTrios/BT2B.jpg","null","",NA,NA,NA,NA,""
"image-keyboard-response",37,73404,"0.0-3.8-2.8","b36wwdhonfca4sc",489,"67.csv","","null","resources/images/coin2.png","null","",NA,NA,NA,NA,""
"image-keyboard-response",38,73668,"0.0-3.9-0.9","b36wwdhonfca4sc",489,"67.csv","","261.39999985694885","resources/trios/L2T4A2.jpg","39","restless",0.9,0.7,0.3,0.333485350230057,"false"
"image-keyboard-response",39,74075,"0.0-3.9-1.9","b36wwdhonfca4sc",489,"67.csv","","null","resources/maskTrios/BBA2.jpg","null","",NA,NA,NA,NA,""
"image-keyboard-response",40,75282,"0.0-3.9-2.9","b36wwdhonfca4sc",489,"67.csv","","null","resources/images/fishbone.png","null","",NA,NA,NA,NA,""
"image-keyboard-response",41,75664,"0.0-3.10-0.10","b36wwdhonfca4sc",489,"67.csv","","380.10000014305115","resources/trios/L2T2A1.jpg","38","restless",0.9,0.6,0.3,0.843128108586905,"false"
"image-keyboard-response",42,76071,"0.0-3.10-1.10","b36wwdhonfca4sc",489,"67.csv","","null","resources/maskTrios/BT2B.jpg","null","",NA,NA,NA,NA,""
"image-keyboard-response",43,77275,"0.0-3.10-2.10","b36wwdhonfca4sc",489,"67.csv","","null","resources/images/fishbone.png","null","",NA,NA,NA,NA,""
"image-keyboard-response",44,77722,"0.0-3.11-0.11","b36wwdhonfca4sc",489,"67.csv","","444.69999980926514","resources/trios/L4T2A1.jpg","37","restless",0.8,0.6,0.3,0.831002260620991,"false"
"image-keyboard-response",45,78129,"0.0-3.11-1.11","b36wwdhonfca4sc",489,"67.csv","","null","resources/maskTrios/L4BB.jpg","null","",NA,NA,NA,NA,""
"image-keyboard-response",46,79334,"0.0-3.11-2.11","b36wwdhonfca4sc",489,"67.csv","","null","resources/images/fishbone.png","null","",NA,NA,NA,NA,""
"image-keyboard-response",47,79639,"0.0-3.12-0.12","b36wwdhonfca4sc",489,"67.csv","","303.10000014305115","resources/trios/L4T4A1.jpg","38","restless",0.8,0.6,0.2,0.527460714509596,"true"
"image-keyboard-response",48,80044,"0.0-3.12-1.12","b36wwdhonfca4sc",489,"67.csv","","null","resources/maskTrios/BT4B.jpg","null","",NA,NA,NA,NA,""
"image-keyboard-response",49,81251,"0.0-3.12-2.12","b36wwdhonfca4sc",489,"67.csv","","null","resources/images/coin2.png","null","",NA,NA,NA,NA,""
"image-keyboard-response",50,81565,"0.0-3.13-0.13","b36wwdhonfca4sc",489,"67.csv","","312.7000000476837","resources/trios/L2T2A2.jpg","37","restless",0.7,0.6,0.2,0.0262732599214233,"true"
"image-keyboard-response",51,81972,"0.0-3.13-1.13","b36wwdhonfca4sc",489,"67.csv","","null","resources/maskTrios/L2BB.jpg","null","",NA,NA,NA,NA,""
"image-keyboard-response",52,83179,"0.0-3.13-2.13","b36wwdhonfca4sc",489,"67.csv","","null","resources/images/coin2.png","null","",NA,NA,NA,NA,""
"image-keyboard-response",53,83445,"0.0-3.14-0.14","b36wwdhonfca4sc",489,"67.csv","","264.59999990463257","resources/trios/L4T4A2.jpg","38","restless",0.7,0.6,0.2,0.396948718188793,"true"
"image-keyboard-response",54,83851,"0.0-3.14-1.14","b36wwdhonfca4sc",489,"67.csv","","null","resources/maskTrios/BT4B.jpg","null","",NA,NA,NA,NA,""
"image-keyboard-response",55,85055,"0.0-3.14-2.14","b36wwdhonfca4sc",489,"67.csv","","null","resources/images/coin2.png","null","",NA,NA,NA,NA,""
"image-keyboard-response",56,85395,"0.0-3.15-0.15","b36wwdhonfca4sc",489,"67.csv","","338.2000000476837","resources/trios/L2T2A1.jpg","39","restless",0.7,0.6,0.2,0.490754446154361,"false"
"image-keyboard-response",57,85797,"0.0-3.15-1.15","b36wwdhonfca4sc",489,"67.csv","","null","resources/maskTrios/BBA1.jpg","null","",NA,NA,NA,NA,""
"image-keyboard-response",58,87003,"0.0-3.15-2.15","b36wwdhonfca4sc",489,"67.csv","","null","resources/images/fishbone.png","null","",NA,NA,NA,NA,""
"image-keyboard-response",59,87292,"0.0-3.16-0.16","b36wwdhonfca4sc",489,"67.csv","","286.7999999523163","resources/trios/L4T2A2.jpg","37","restless",0.7,0.6,0.2,0.750318373672717,"false"
"image-keyboard-response",60,87699,"0.0-3.16-1.16","b36wwdhonfca4sc",489,"67.csv","","null","resources/maskTrios/L4BB.jpg","null","",NA,NA,NA,NA,""
"image-keyboard-response",61,88905,"0.0-3.16-2.16","b36wwdhonfca4sc",489,"67.csv","","null","resources/images/fishbone.png","null","",NA,NA,NA,NA,""
"image-keyboard-response",62,89154,"0.0-3.17-0.17","b36wwdhonfca4sc",489,"67.csv","","247.5","resources/trios/L4T4A1.jpg","38","restless",0.6,0.6,0.2,0.267529839209532,"true"
"image-keyboard-response",63,89562,"0.0-3.17-1.17","b36wwdhonfca4sc",489,"67.csv","","null","resources/maskTrios/BT4B.jpg","null","",NA,NA,NA,NA,""
"image-keyboard-response",64,90766,"0.0-3.17-2.17","b36wwdhonfca4sc",489,"67.csv","","null","resources/images/coin2.png","null","",NA,NA,NA,NA,""
"image-keyboard-response",65,91127,"0.0-3.18-0.18","b36wwdhonfca4sc",489,"67.csv","","358.7000000476837","resources/trios/L2T2A1.jpg","37","restless",0.6,0.6,0.2,0.698220885373829,"false"
"image-keyboard-response",66,91533,"0.0-3.18-1.18","b36wwdhonfca4sc",489,"67.csv","","null","resources/maskTrios/L2BB.jpg","null","",NA,NA,NA,NA,""
"image-keyboard-response",67,92739,"0.0-3.18-2.18","b36wwdhonfca4sc",489,"67.csv","","null","resources/images/fishbone.png","null","",NA,NA,NA,NA,""
"image-keyboard-response",68,92994,"0.0-3.19-0.19","b36wwdhonfca4sc",489,"67.csv","","253.40000009536743","resources/trios/L4T4A2.jpg","38","restless",0.6,0.6,0.2,0.809909252197247,"false"
"image-keyboard-response",69,93402,"0.0-3.19-1.19","b36wwdhonfca4sc",489,"67.csv","","null","resources/maskTrios/BT4B.jpg","null","",NA,NA,NA,NA,""
"image-keyboard-response",70,94608,"0.0-3.19-2.19","b36wwdhonfca4sc",489,"67.csv","","null","resources/images/fishbone.png","null","",NA,NA,NA,NA,""
"image-keyboard-response",71,94885,"0.0-3.20-0.20","b36wwdhonfca4sc",489,"67.csv","","274.5","resources/trios/L2T4A2.jpg","38","restless",0.6,0.7,0.2,0.768155485964388,"false"
"image-keyboard-response",72,95292,"0.0-3.20-1.20","b36wwdhonfca4sc",489,"67.csv","","null","resources/maskTrios/BT4B.jpg","null","",NA,NA,NA,NA,""
"image-keyboard-response",73,96499,"0.0-3.20-2.20","b36wwdhonfca4sc",489,"67.csv","","null","resources/images/fishbone.png","null","",NA,NA,NA,NA,""
"image-keyboard-response",74,96763,"0.0-3.21-0.21","b36wwdhonfca4sc",489,"67.csv","","262.2999999523163","resources/trios/L4T4A1.jpg","38","restless",0.6,0.7,0.2,0.85750286986522,"false"
"image-keyboard-response",75,97170,"0.0-3.21-1.21","b36wwdhonfca4sc",489,"67.csv","","null","resources/maskTrios/BT4B.jpg","null","",NA,NA,NA,NA,""
"image-keyboard-response",76,98377,"0.0-3.21-2.21","b36wwdhonfca4sc",489,"67.csv","","null","resources/images/fishbone.png","null","",NA,NA,NA,NA,""
"image-keyboard-response",77,98611,"0.0-3.22-0.22","b36wwdhonfca4sc",489,"67.csv","","231.79999995231628","resources/trios/L2T2A1.jpg","37","restless",0.6,0.7,0.2,0.323075431074537,"true"
"image-keyboard-response",78,99018,"0.0-3.22-1.22","b36wwdhonfca4sc",489,"67.csv","","null","resources/maskTrios/L2BB.jpg","null","",NA,NA,NA,NA,""
"image-keyboard-response",79,100225,"0.0-3.22-2.22","b36wwdhonfca4sc",489,"67.csv","","null","resources/images/coin2.png","null","",NA,NA,NA,NA,""
"image-keyboard-response",80,100621,"0.0-3.23-0.23","b36wwdhonfca4sc",489,"67.csv","","393.7000000476837","resources/trios/L2T2A1.jpg","39","restless",0.6,0.6,0.2,0.498009741440813,"false"
"image-keyboard-response",81,101027,"0.0-3.23-1.23","b36wwdhonfca4sc",489,"67.csv","","null","resources/maskTrios/BBA1.jpg","null","",NA,NA,NA,NA,""
"image-keyboard-response",82,102233,"0.0-3.23-2.23","b36wwdhonfca4sc",489,"67.csv","","null","resources/images/fishbone.png","null","",NA,NA,NA,NA,""
"image-keyboard-response",83,102530,"0.0-3.24-0.24","b36wwdhonfca4sc",489,"67.csv","","296.2000000476837","resources/trios/L2T2A1.jpg","38","restless",0.6,0.6,0.2,0.612984099077349,"false"
"image-keyboard-response",84,102937,"0.0-3.24-1.24","b36wwdhonfca4sc",489,"67.csv","","null","resources/maskTrios/BT2B.jpg","null","",NA,NA,NA,NA,""
"image-keyboard-response",85,104140,"0.0-3.24-2.24","b36wwdhonfca4sc",489,"67.csv","","null","resources/images/fishbone.png","null","",NA,NA,NA,NA,""
"image-keyboard-response",86,104463,"0.0-3.25-0.25","b36wwdhonfca4sc",489,"67.csv","","321.7000000476837","resources/trios/L4T4A2.jpg","37","restless",0.6,0.6,0.2,0.755038151130601,"false"
"image-keyboard-response",87,104871,"0.0-3.25-1.25","b36wwdhonfca4sc",489,"67.csv","","null","resources/maskTrios/L4BB.jpg","null","",NA,NA,NA,NA,""
"image-keyboard-response",88,106077,"0.0-3.25-2.25","b36wwdhonfca4sc",489,"67.csv","","null","resources/images/fishbone.png","null","",NA,NA,NA,NA,""
"image-keyboard-response",89,106447,"0.0-3.26-0.26","b36wwdhonfca4sc",489,"67.csv","","368.10000014305115","resources/trios/L4T2A2.jpg","38","restless",0.6,0.6,0.2,0.482415751139765,"true"
"image-keyboard-response",90,106850,"0.0-3.26-1.26","b36wwdhonfca4sc",489,"67.csv","","null","resources/maskTrios/BT2B.jpg","null","",NA,NA,NA,NA,""
"image-keyboard-response",91,108057,"0.0-3.26-2.26","b36wwdhonfca4sc",489,"67.csv","","null","resources/images/coin2.png","null","",NA,NA,NA,NA,""
"image-keyboard-response",92,109055,"0.0-3.27-0.27","b36wwdhonfca4sc",489,"67.csv","","996.1000001430511","resources/trios/L2T2A1.jpg","38","restless",0.6,0.6,0.3,0.373234696479215,"true"
"image-keyboard-response",93,109460,"0.0-3.27-1.27","b36wwdhonfca4sc",489,"67.csv","","null","resources/maskTrios/BT2B.jpg","null","",NA,NA,NA,NA,""
"image-keyboard-response",94,110667,"0.0-3.27-2.27","b36wwdhonfca4sc",489,"67.csv","","null","resources/images/coin2.png","null","",NA,NA,NA,NA,""
"image-keyboard-response",95,111621,"0.0-3.28-0.28","b36wwdhonfca4sc",489,"67.csv","","952.0999999046326","resources/trios/L2T2A1.jpg","38","restless",0.6,0.6,0.3,0.482415740242302,"true"
"image-keyboard-response",96,112028,"0.0-3.28-1.28","b36wwdhonfca4sc",489,"67.csv","","null","resources/maskTrios/BT2B.jpg","null","",NA,NA,NA,NA,""
"image-keyboard-response",97,113231,"0.0-3.28-2.28","b36wwdhonfca4sc",489,"67.csv","","null","resources/images/coin2.png","null","",NA,NA,NA,NA,""
"image-keyboard-response",98,113920,"0.0-3.29-0.29","b36wwdhonfca4sc",489,"67.csv","","687","resources/trios/L2T2A2.jpg","37","restless",0.6,0.6,0.3,0.895202644333744,"false"
"image-keyboard-response",99,114327,"0.0-3.29-1.29","b36wwdhonfca4sc",489,"67.csv","","null","resources/maskTrios/L2BB.jpg","null","",NA,NA,NA,NA,""
"image-keyboard-response",100,115534,"0.0-3.29-2.29","b36wwdhonfca4sc",489,"67.csv","","null","resources/images/fishbone.png","null","",NA,NA,NA,NA,""
"image-keyboard-response",101,115808,"0.0-3.30-0.30","b36wwdhonfca4sc",489,"67.csv","","271.7000000476837","resources/trios/L4T2A2.jpg","38","restless",0.5,0.6,0.3,0.435634561911323,"true"
"image-keyboard-response",102,116215,"0.0-3.30-1.30","b36wwdhonfca4sc",489,"67.csv","","null","resources/maskTrios/BT2B.jpg","null","",NA,NA,NA,NA,""
"image-keyboard-response",103,117418,"0.0-3.30-2.30","b36wwdhonfca4sc",489,"67.csv","","null","resources/images/coin2.png","null","",NA,NA,NA,NA,""
"image-keyboard-response",104,117819,"0.0-3.31-0.31","b36wwdhonfca4sc",489,"67.csv","","398.7999999523163","resources/trios/L4T4A2.jpg","38","restless",0.5,0.6,0.3,0.920030096641149,"false"
"image-keyboard-response",105,118222,"0.0-3.31-1.31","b36wwdhonfca4sc",489,"67.csv","","null","resources/maskTrios/BT4B.jpg","null","",NA,NA,NA,NA,""
"image-keyboard-response",106,119426,"0.0-3.31-2.31","b36wwdhonfca4sc",489,"67.csv","","null","resources/images/fishbone.png","null","",NA,NA,NA,NA,""
"image-keyboard-response",107,119669,"0.0-3.32-0.32","b36wwdhonfca4sc",489,"67.csv","","240.5","resources/trios/L2T4A2.jpg","39","restless",0.5,0.6,0.3,0.286945630204253,"true"
"image-keyboard-response",108,120076,"0.0-3.32-1.32","b36wwdhonfca4sc",489,"67.csv","","null","resources/maskTrios/BBA2.jpg","null","",NA,NA,NA,NA,""
"image-keyboard-response",109,121283,"0.0-3.32-2.32","b36wwdhonfca4sc",489,"67.csv","","null","resources/images/coin2.png","null","",NA,NA,NA,NA,""
"image-keyboard-response",110,121491,"0.0-3.33-0.33","b36wwdhonfca4sc",489,"67.csv","","206.59999990463257","resources/trios/L4T2A2.jpg","39","restless",0.5,0.6,0.3,0.847354361357326,"false"
"image-keyboard-response",111,121898,"0.0-3.33-1.33","b36wwdhonfca4sc",489,"67.csv","","null","resources/maskTrios/BBA2.jpg","null","",NA,NA,NA,NA,""
"image-keyboard-response",112,123105,"0.0-3.33-2.33","b36wwdhonfca4sc",489,"67.csv","","null","resources/images/fishbone.png","null","",NA,NA,NA,NA,""
"image-keyboard-response",113,123348,"0.0-3.34-0.34","b36wwdhonfca4sc",489,"67.csv","","240.70000004768372","resources/trios/L2T4A1.jpg","38","restless",0.5,0.6,0.3,0.0502056111990745,"true"
"image-keyboard-response",114,123753,"0.0-3.34-1.34","b36wwdhonfca4sc",489,"67.csv","","null","resources/maskTrios/BT4B.jpg","null","",NA,NA,NA,NA,""
"image-keyboard-response",115,124960,"0.0-3.34-2.34","b36wwdhonfca4sc",489,"67.csv","","null","resources/images/coin2.png","null","",NA,NA,NA,NA,""
"image-keyboard-response",116,125219,"0.0-3.35-0.35","b36wwdhonfca4sc",489,"67.csv","","256.5","resources/trios/L2T4A1.jpg","39","restless",0.6,0.5,0.3,0.293965066000585,"true"
"image-keyboard-response",117,125626,"0.0-3.35-1.35","b36wwdhonfca4sc",489,"67.csv","","null","resources/maskTrios/BBA1.jpg","null","",NA,NA,NA,NA,""
"image-keyboard-response",118,126833,"0.0-3.35-2.35","b36wwdhonfca4sc",489,"67.csv","","null","resources/images/coin2.png","null","",NA,NA,NA,NA,""
"image-keyboard-response",119,127776,"0.0-3.36-0.36","b36wwdhonfca4sc",489,"67.csv","","941.3999998569489","resources/trios/L2T4A2.jpg","39","restless",0.6,0.5,0.3,0.558307659223079,"false"
"image-keyboard-response",120,128179,"0.0-3.36-1.36","b36wwdhonfca4sc",489,"67.csv","","null","resources/maskTrios/BBA2.jpg","null","",NA,NA,NA,NA,""
"image-keyboard-response",121,129386,"0.0-3.36-2.36","b36wwdhonfca4sc",489,"67.csv","","null","resources/images/fishbone.png","null","",NA,NA,NA,NA,""
"image-keyboard-response",122,129670,"0.0-3.37-0.37","b36wwdhonfca4sc",489,"67.csv","","281.40000009536743","resources/trios/L2T2A2.jpg","37","restless",0.6,0.5,0.3,0.499214705963327,"true"
"image-keyboard-response",123,130076,"0.0-3.37-1.37","b36wwdhonfca4sc",489,"67.csv","","null","resources/maskTrios/L2BB.jpg","null","",NA,NA,NA,NA,""
"image-keyboard-response",124,131281,"0.0-3.37-2.37","b36wwdhonfca4sc",489,"67.csv","","null","resources/images/coin2.png","null","",NA,NA,NA,NA,""
"image-keyboard-response",125,131609,"0.0-3.38-0.38","b36wwdhonfca4sc",489,"67.csv","","325.2999999523163","resources/trios/L2T2A1.jpg","38","restless",0.6,0.5,0.3,0.270018520383639,"true"
"image-keyboard-response",126,132016,"0.0-3.38-1.38","b36wwdhonfca4sc",489,"67.csv","","null","resources/maskTrios/BT2B.jpg","null","",NA,NA,NA,NA,""
"image-keyboard-response",127,133221,"0.0-3.38-2.38","b36wwdhonfca4sc",489,"67.csv","","null","resources/images/coin2.png","null","",NA,NA,NA,NA,""
"image-keyboard-response",128,134244,"0.0-3.39-0.39","b36wwdhonfca4sc",489,"67.csv","","1021","resources/trios/L2T2A2.jpg","37","restless",0.6,0.5,0.3,0.999405409746542,"false"
"image-keyboard-response",129,134651,"0.0-3.39-1.39","b36wwdhonfca4sc",489,"67.csv","","null","resources/maskTrios/L2BB.jpg","null","",NA,NA,NA,NA,""
"image-keyboard-response",130,135858,"0.0-3.39-2.39","b36wwdhonfca4sc",489,"67.csv","","null","resources/images/fishbone.png","null","",NA,NA,NA,NA,""
"image-keyboard-response",131,136122,"0.0-3.40-0.40","b36wwdhonfca4sc",489,"67.csv","","262.2000000476837","resources/trios/L2T2A1.jpg","38","restless",0.6,0.5,0.4,0.384187356483482,"true"
"image-keyboard-response",132,136529,"0.0-3.40-1.40","b36wwdhonfca4sc",489,"67.csv","","null","resources/maskTrios/BT2B.jpg","null","",NA,NA,NA,NA,""
"image-keyboard-response",133,137736,"0.0-3.40-2.40","b36wwdhonfca4sc",489,"67.csv","","null","resources/images/coin2.png","null","",NA,NA,NA,NA,""
"image-keyboard-response",134,139463,"0.0-3.41-0.41","b36wwdhonfca4sc",489,"67.csv","","1724.2999999523163","resources/trios/L4T4A2.jpg","39","restless",0.6,0.5,0.4,0.653658816668339,"false"
"image-keyboard-response",135,139870,"0.0-3.41-1.41","b36wwdhonfca4sc",489,"67.csv","","null","resources/maskTrios/BBA2.jpg","null","",NA,NA,NA,NA,""
"image-keyboard-response",136,141076,"0.0-3.41-2.41","b36wwdhonfca4sc",489,"67.csv","","null","resources/images/fishbone.png","null","",NA,NA,NA,NA,""
"image-keyboard-response",137,142385,"0.0-3.42-0.42","b36wwdhonfca4sc",489,"67.csv","","1306.5","resources/trios/L4T4A1.jpg","38","restless",0.6,0.5,0.4,0.614121955543542,"false"
"image-keyboard-response",138,142788,"0.0-3.42-1.42","b36wwdhonfca4sc",489,"67.csv","","null","resources/maskTrios/BT4B.jpg","null","",NA,NA,NA,NA,""
"image-keyboard-response",139,143995,"0.0-3.42-2.42","b36wwdhonfca4sc",489,"67.csv","","null","resources/images/fishbone.png","null","",NA,NA,NA,NA,""
"image-keyboard-response",140,144227,"0.0-3.43-0.43","b36wwdhonfca4sc",489,"67.csv","","230.09999990463257","resources/trios/L4T4A1.jpg","37","restless",0.6,0.5,0.4,0.334978656526996,"true"
"image-keyboard-response",141,144631,"0.0-3.43-1.43","b36wwdhonfca4sc",489,"67.csv","","null","resources/maskTrios/L4BB.jpg","null","",NA,NA,NA,NA,""
"image-keyboard-response",142,145838,"0.0-3.43-2.43","b36wwdhonfca4sc",489,"67.csv","","null","resources/images/coin2.png","null","",NA,NA,NA,NA,""
"image-keyboard-response",143,146131,"0.0-3.44-0.44","b36wwdhonfca4sc",489,"67.csv","","291.09999990463257","resources/trios/L4T4A2.jpg","39","restless",0.6,0.5,0.4,0.777889588902962,"false"
"image-keyboard-response",144,146538,"0.0-3.44-1.44","b36wwdhonfca4sc",489,"67.csv","","null","resources/maskTrios/BBA2.jpg","null","",NA,NA,NA,NA,""
"image-keyboard-response",145,147745,"0.0-3.44-2.44","b36wwdhonfca4sc",489,"67.csv","","null","resources/images/fishbone.png","null","",NA,NA,NA,NA,""
"image-keyboard-response",146,147957,"0.0-3.45-0.45","b36wwdhonfca4sc",489,"67.csv","","210.20000004768372","resources/trios/L2T4A1.jpg","38","restless",0.6,0.5,0.4,0.824380629877709,"false"
"image-keyboard-response",147,148363,"0.0-3.45-1.45","b36wwdhonfca4sc",489,"67.csv","","null","resources/maskTrios/BT4B.jpg","null","",NA,NA,NA,NA,""
"image-keyboard-response",148,149569,"0.0-3.45-2.45","b36wwdhonfca4sc",489,"67.csv","","null","resources/images/fishbone.png","null","",NA,NA,NA,NA,""
"image-keyboard-response",149,149650,"0.0-3.46-0.46","b36wwdhonfca4sc",489,"67.csv","","78.70000004768372","resources/trios/L4T2A2.jpg","37","restless",0.6,0.5,0.4,0.0831036374026266,"true"
"image-keyboard-response",150,150057,"0.0-3.46-1.46","b36wwdhonfca4sc",489,"67.csv","","null","resources/maskTrios/L4BB.jpg","null","",NA,NA,NA,NA,""
"image-keyboard-response",151,151263,"0.0-3.46-2.46","b36wwdhonfca4sc",489,"67.csv","","null","resources/images/coin2.png","null","",NA,NA,NA,NA,""
"image-keyboard-response",152,151825,"0.0-3.47-0.47","b36wwdhonfca4sc",489,"67.csv","","560","resources/trios/L2T2A1.jpg","37","restless",0.6,0.5,0.4,0.976808350595812,"false"
"image-keyboard-response",153,152230,"0.0-3.47-1.47","b36wwdhonfca4sc",489,"67.csv","","null","resources/maskTrios/L2BB.jpg","null","",NA,NA,NA,NA,""
"image-keyboard-response",154,153434,"0.0-3.47-2.47","b36wwdhonfca4sc",489,"67.csv","","null","resources/images/fishbone.png","null","",NA,NA,NA,NA,""
"image-keyboard-response",155,153988,"0.0-3.48-0.48","b36wwdhonfca4sc",489,"67.csv","","552.2999999523163","resources/trios/L2T2A2.jpg","39","restless",0.6,0.5,0.4,0.304042603848284,"true"
"image-keyboard-response",156,154395,"0.0-3.48-1.48","b36wwdhonfca4sc",489,"67.csv","","null","resources/maskTrios/BBA2.jpg","null","",NA,NA,NA,NA,""
"image-keyboard-response",157,155601,"0.0-3.48-2.48","b36wwdhonfca4sc",489,"67.csv","","null","resources/images/coin2.png","null","",NA,NA,NA,NA,""
"image-keyboard-response",158,156217,"0.0-3.49-0.49","b36wwdhonfca4sc",489,"67.csv","","613.8999998569489","resources/trios/L2T4A1.jpg","39","restless",0.6,0.5,0.4,0.573364997574766,"false"
"image-keyboard-response",159,156621,"0.0-3.49-1.49","b36wwdhonfca4sc",489,"67.csv","","null","resources/maskTrios/BBA1.jpg","null","",NA,NA,NA,NA,""
"image-keyboard-response",160,157828,"0.0-3.49-2.49","b36wwdhonfca4sc",489,"67.csv","","null","resources/images/fishbone.png","null","",NA,NA,NA,NA,""
"image-keyboard-response",161,158792,"0.0-3.50-0.50","b36wwdhonfca4sc",489,"67.csv","","962.3999998569489","resources/trios/L2T2A2.jpg","38","restless",0.6,0.5,0.4,0.251783401705922,"true"
"image-keyboard-response",162,159199,"0.0-3.50-1.50","b36wwdhonfca4sc",489,"67.csv","","null","resources/maskTrios/BT2B.jpg","null","",NA,NA,NA,NA,""
"image-keyboard-response",163,160402,"0.0-3.50-2.50","b36wwdhonfca4sc",489,"67.csv","","null","resources/images/coin2.png","null","",NA,NA,NA,NA,""
"image-keyboard-response",164,160683,"0.0-3.51-0.51","b36wwdhonfca4sc",489,"67.csv","","278.60000014305115","resources/trios/L2T2A2.jpg","37","restless",0.7,0.5,0.4,0.633383923379789,"true"
"image-keyboard-response",165,161085,"0.0-3.51-1.51","b36wwdhonfca4sc",489,"67.csv","","null","resources/maskTrios/L2BB.jpg","null","",NA,NA,NA,NA,""
"image-keyboard-response",166,162287,"0.0-3.51-2.51","b36wwdhonfca4sc",489,"67.csv","","null","resources/images/coin2.png","null","",NA,NA,NA,NA,""
"image-keyboard-response",167,163603,"0.0-3.52-0.52","b36wwdhonfca4sc",489,"67.csv","","1314.1000001430511","resources/trios/L2T4A2.jpg","38","restless",0.7,0.5,0.5,0.0446201342455272,"true"
"image-keyboard-response",168,164010,"0.0-3.52-1.52","b36wwdhonfca4sc",489,"67.csv","","null","resources/maskTrios/BT4B.jpg","null","",NA,NA,NA,NA,""
"image-keyboard-response",169,165213,"0.0-3.52-2.52","b36wwdhonfca4sc",489,"67.csv","","null","resources/images/coin2.png","null","",NA,NA,NA,NA,""
"image-keyboard-response",170,165670,"0.0-3.53-0.53","b36wwdhonfca4sc",489,"67.csv","","455.5","resources/trios/L2T4A1.jpg","39","restless",0.7,0.5,0.5,0.0806232638649798,"true"
"image-keyboard-response",171,166078,"0.0-3.53-1.53","b36wwdhonfca4sc",489,"67.csv","","null","resources/maskTrios/BBA1.jpg","null","",NA,NA,NA,NA,""
"image-keyboard-response",172,167285,"0.0-3.53-2.53","b36wwdhonfca4sc",489,"67.csv","","null","resources/images/coin2.png","null","",NA,NA,NA,NA,""
"image-keyboard-response",173,167915,"0.0-3.54-0.54","b36wwdhonfca4sc",489,"67.csv","","628.8999998569489","resources/trios/L2T2A1.jpg","37","restless",0.7,0.5,0.5,0.544826761949321,"true"
"image-keyboard-response",174,168323,"0.0-3.54-1.54","b36wwdhonfca4sc",489,"67.csv","","null","resources/maskTrios/L2BB.jpg","null","",NA,NA,NA,NA,""
"image-keyboard-response",175,169530,"0.0-3.54-2.54","b36wwdhonfca4sc",489,"67.csv","","null","resources/images/coin2.png","null","",NA,NA,NA,NA,""
"image-keyboard-response",176,169996,"0.0-3.55-0.55","b36wwdhonfca4sc",489,"67.csv","","464.90000009536743","resources/trios/L4T2A2.jpg","38","restless",0.6,0.6,0.5,0.503323449382597,"true"
"image-keyboard-response",177,170401,"0.0-3.55-1.55","b36wwdhonfca4sc",489,"67.csv","","null","resources/maskTrios/BT2B.jpg","null","",NA,NA,NA,NA,""
"image-keyboard-response",178,171608,"0.0-3.55-2.55","b36wwdhonfca4sc",489,"67.csv","","null","resources/images/coin2.png","null","",NA,NA,NA,NA,""
"image-keyboard-response",179,172511,"0.0-3.56-0.56","b36wwdhonfca4sc",489,"67.csv","","901.3999998569489","resources/trios/L2T4A2.jpg","39","restless",0.6,0.6,0.5,0.0682077838659649,"true"
"image-keyboard-response",180,172919,"0.0-3.56-1.56","b36wwdhonfca4sc",489,"67.csv","","null","resources/maskTrios/BBA2.jpg","null","",NA,NA,NA,NA,""
"image-keyboard-response",181,174126,"0.0-3.56-2.56","b36wwdhonfca4sc",489,"67.csv","","null","resources/images/coin2.png","null","",NA,NA,NA,NA,""
"image-keyboard-response",182,175391,"0.0-3.57-0.57","b36wwdhonfca4sc",489,"67.csv","","1263.7999999523163","resources/trios/L2T4A1.jpg","37","restless",0.6,0.7,0.5,0.0765093554551446,"true"
"image-keyboard-response",183,175797,"0.0-3.57-1.57","b36wwdhonfca4sc",489,"67.csv","","null","resources/maskTrios/L2BB.jpg","null","",NA,NA,NA,NA,""
"image-keyboard-response",184,177004,"0.0-3.57-2.57","b36wwdhonfca4sc",489,"67.csv","","null","resources/images/coin2.png","null","",NA,NA,NA,NA,""
"image-keyboard-response",185,177317,"0.0-3.58-0.58","b36wwdhonfca4sc",489,"67.csv","","311.5","resources/trios/L2T2A2.jpg","38","restless",0.6,0.7,0.5,0.741334216612588,"false"
"image-keyboard-response",186,177724,"0.0-3.58-1.58","b36wwdhonfca4sc",489,"67.csv","","null","resources/maskTrios/BT2B.jpg","null","",NA,NA,NA,NA,""
"image-keyboard-response",187,178930,"0.0-3.58-2.58","b36wwdhonfca4sc",489,"67.csv","","null","resources/images/fishbone.png","null","",NA,NA,NA,NA,""
"image-keyboard-response",188,179237,"0.0-3.59-0.59","b36wwdhonfca4sc",489,"67.csv","","304.69999980926514","resources/trios/L2T2A1.jpg","39","restless",0.7,0.8,0.5,0.181381004531863,"true"
"image-keyboard-response",189,179644,"0.0-3.59-1.59","b36wwdhonfca4sc",489,"67.csv","","null","resources/maskTrios/BBA1.jpg","null","",NA,NA,NA,NA,""
"image-keyboard-response",190,180849,"0.0-3.59-2.59","b36wwdhonfca4sc",489,"67.csv","","null","resources/images/coin2.png","null","",NA,NA,NA,NA,""
"image-keyboard-response",191,181107,"0.0-3.60-0.60","b36wwdhonfca4sc",489,"67.csv","","256.2000000476837","resources/trios/L2T4A1.jpg","37","restless",0.7,0.8,0.5,0.717849308531388,"false"
"image-keyboard-response",192,181514,"0.0-3.60-1.60","b36wwdhonfca4sc",489,"67.csv","","null","resources/maskTrios/L2BB.jpg","null","",NA,NA,NA,NA,""
"image-keyboard-response",193,182717,"0.0-3.60-2.60","b36wwdhonfca4sc",489,"67.csv","","null","resources/images/fishbone.png","null","",NA,NA,NA,NA,""
"image-keyboard-response",194,182980,"0.0-3.61-0.61","b36wwdhonfca4sc",489,"67.csv","","260.2000000476837","resources/trios/L2T2A1.jpg","38","restless",0.7,0.9,0.5,0.900901423932365,"false"
"image-keyboard-response",195,183387,"0.0-3.61-1.61","b36wwdhonfca4sc",489,"67.csv","","null","resources/maskTrios/BT2B.jpg","null","",NA,NA,NA,NA,""
"image-keyboard-response",196,184593,"0.0-3.61-2.61","b36wwdhonfca4sc",489,"67.csv","","null","resources/images/fishbone.png","null","",NA,NA,NA,NA,""
"image-keyboard-response",197,184874,"0.0-3.62-0.62","b36wwdhonfca4sc",489,"67.csv","","278.69999980926514","resources/trios/L2T2A2.jpg","39","restless",0.7,0.9,0.5,0.722124309811562,"false"
"image-keyboard-response",198,185281,"0.0-3.62-1.62","b36wwdhonfca4sc",489,"67.csv","","null","resources/maskTrios/BBA2.jpg","null","",NA,NA,NA,NA,""
"image-keyboard-response",199,186487,"0.0-3.62-2.62","b36wwdhonfca4sc",489,"67.csv","","null","resources/images/fishbone.png","null","",NA,NA,NA,NA,""
"image-keyboard-response",200,186744,"0.0-3.63-0.63","b36wwdhonfca4sc",489,"67.csv","","255.40000009536743","resources/trios/L2T2A1.jpg","38","restless",0.7,0.9,0.5,0.727373092880111,"true"
"image-keyboard-response",201,187150,"0.0-3.63-1.63","b36wwdhonfca4sc",489,"67.csv","","null","resources/maskTrios/BT2B.jpg","null","",NA,NA,NA,NA,""
"image-keyboard-response",202,188357,"0.0-3.63-2.63","b36wwdhonfca4sc",489,"67.csv","","null","resources/images/coin2.png","null","",NA,NA,NA,NA,""
"image-keyboard-response",203,188701,"0.0-3.64-0.64","b36wwdhonfca4sc",489,"67.csv","","341.60000014305115","resources/trios/L2T4A1.jpg","37","restless",0.7,0.9,0.5,0.666604509102067,"true"
"image-keyboard-response",204,189106,"0.0-3.64-1.64","b36wwdhonfca4sc",489,"67.csv","","null","resources/maskTrios/L2BB.jpg","null","",NA,NA,NA,NA,""
"image-keyboard-response",205,190313,"0.0-3.64-2.64","b36wwdhonfca4sc",489,"67.csv","","null","resources/images/coin2.png","null","",NA,NA,NA,NA,""
"image-keyboard-response",206,190941,"0.0-3.65-0.65","b36wwdhonfca4sc",489,"67.csv","","626.2000000476837","resources/trios/L2T4A1.jpg","39","restless",0.7,0.9,0.5,0.514229516172637,"false"
"image-keyboard-response",207,191348,"0.0-3.65-1.65","b36wwdhonfca4sc",489,"67.csv","","null","resources/maskTrios/BBA1.jpg","null","",NA,NA,NA,NA,""
"image-keyboard-response",208,192555,"0.0-3.65-2.65","b36wwdhonfca4sc",489,"67.csv","","null","resources/images/fishbone.png","null","",NA,NA,NA,NA,""
"image-keyboard-response",209,192846,"0.0-3.66-0.66","b36wwdhonfca4sc",489,"67.csv","","289.09999990463257","resources/trios/L4T2A1.jpg","38","restless",0.7,0.9,0.4,0.281846520581153,"true"
"image-keyboard-response",210,193253,"0.0-3.66-1.66","b36wwdhonfca4sc",489,"67.csv","","null","resources/maskTrios/BT2B.jpg","null","",NA,NA,NA,NA,""
"image-keyboard-response",211,194459,"0.0-3.66-2.66","b36wwdhonfca4sc",489,"67.csv","","null","resources/images/coin2.png","null","",NA,NA,NA,NA,""
"image-keyboard-response",212,194746,"0.0-3.67-0.67","b36wwdhonfca4sc",489,"67.csv","","284.90000009536743","resources/trios/L2T4A1.jpg","37","restless",0.7,0.8,0.4,0.114871230296099,"true"
"image-keyboard-response",213,195153,"0.0-3.67-1.67","b36wwdhonfca4sc",489,"67.csv","","null","resources/maskTrios/L2BB.jpg","null","",NA,NA,NA,NA,""
"image-keyboard-response",214,196359,"0.0-3.67-2.67","b36wwdhonfca4sc",489,"67.csv","","null","resources/images/coin2.png","null","",NA,NA,NA,NA,""
"image-keyboard-response",215,196581,"0.0-3.68-0.68","b36wwdhonfca4sc",489,"67.csv","","219.60000014305115","resources/trios/L4T4A1.jpg","39","restless",0.7,0.8,0.4,0.549707289804885,"false"
"image-keyboard-response",216,196986,"0.0-3.68-1.68","b36wwdhonfca4sc",489,"67.csv","","null","resources/maskTrios/BBA1.jpg","null","",NA,NA,NA,NA,""
"image-keyboard-response",217,198193,"0.0-3.68-2.68","b36wwdhonfca4sc",489,"67.csv","","null","resources/images/fishbone.png","null","",NA,NA,NA,NA,""
"image-keyboard-response",218,198627,"0.0-3.69-0.69","b36wwdhonfca4sc",489,"67.csv","","431.7000000476837","resources/trios/L4T4A1.jpg","38","restless",0.7,0.8,0.4,0.193519336407923,"true"
"image-keyboard-response",219,199034,"0.0-3.69-1.69","b36wwdhonfca4sc",489,"67.csv","","null","resources/maskTrios/BT4B.jpg","null","",NA,NA,NA,NA,""
"image-keyboard-response",220,200241,"0.0-3.69-2.69","b36wwdhonfca4sc",489,"67.csv","","null","resources/images/coin2.png","null","",NA,NA,NA,NA,""
"image-keyboard-response",221,200820,"0.0-3.70-0.70","b36wwdhonfca4sc",489,"67.csv","","577.0999999046326","resources/trios/L2T4A2.jpg","37","restless",0.7,0.8,0.4,0.256044587990316,"true"
"image-keyboard-response",222,201227,"0.0-3.70-1.70","b36wwdhonfca4sc",489,"67.csv","","null","resources/maskTrios/L2BB.jpg","null","",NA,NA,NA,NA,""
"image-keyboard-response",223,202431,"0.0-3.70-2.70","b36wwdhonfca4sc",489,"67.csv","","null","resources/images/coin2.png","null","",NA,NA,NA,NA,""
"image-keyboard-response",224,203459,"0.0-3.71-0.71","b36wwdhonfca4sc",489,"67.csv","","1025.9000000953674","resources/trios/L2T4A1.jpg","38","restless",0.7,0.8,0.4,0.186986752209897,"true"
"image-keyboard-response",225,203861,"0.0-3.71-1.71","b36wwdhonfca4sc",489,"67.csv","","null","resources/maskTrios/BT4B.jpg","null","",NA,NA,NA,NA,""
"image-keyboard-response",226,205068,"0.0-3.71-2.71","b36wwdhonfca4sc",489,"67.csv","","null","resources/images/coin2.png","null","",NA,NA,NA,NA,""
"image-keyboard-response",227,205376,"0.0-3.72-0.72","b36wwdhonfca4sc",489,"67.csv","","306.2999999523163","resources/trios/L4T4A1.jpg","37","restless",0.6,0.8,0.4,0.827199882378096,"false"
"image-keyboard-response",228,205783,"0.0-3.72-1.72","b36wwdhonfca4sc",489,"67.csv","","null","resources/maskTrios/L4BB.jpg","null","",NA,NA,NA,NA,""
"image-keyboard-response",229,206989,"0.0-3.72-2.72","b36wwdhonfca4sc",489,"67.csv","","null","resources/images/fishbone.png","null","",NA,NA,NA,NA,""
"image-keyboard-response",230,207325,"0.0-3.73-0.73","b36wwdhonfca4sc",489,"67.csv","","333.7000000476837","resources/trios/L4T4A1.jpg","39","restless",0.6,0.8,0.4,0.995768232325967,"false"
"image-keyboard-response",231,207728,"0.0-3.73-1.73","b36wwdhonfca4sc",489,"67.csv","","null","resources/maskTrios/BBA1.jpg","null","",NA,NA,NA,NA,""
"image-keyboard-response",232,208935,"0.0-3.73-2.73","b36wwdhonfca4sc",489,"67.csv","","null","resources/images/fishbone.png","null","",NA,NA,NA,NA,""
"image-keyboard-response",233,209396,"0.0-3.74-0.74","b36wwdhonfca4sc",489,"67.csv","","459.90000009536743","resources/trios/L4T4A1.jpg","38","restless",0.6,0.8,0.4,0.977967795843387,"false"
"image-keyboard-response",234,209799,"0.0-3.74-1.74","b36wwdhonfca4sc",489,"67.csv","","null","resources/maskTrios/BT4B.jpg","null","",NA,NA,NA,NA,""
"image-keyboard-response",235,211002,"0.0-3.74-2.74","b36wwdhonfca4sc",489,"67.csv","","null","resources/images/fishbone.png","null","",NA,NA,NA,NA,""
"image-keyboard-response",236,211464,"0.0-3.75-0.75","b36wwdhonfca4sc",489,"67.csv","","459.59999990463257","resources/trios/L2T4A2.jpg","37","restless",0.6,0.8,0.4,0.710603544280079,"false"
"image-keyboard-response",237,211871,"0.0-3.75-1.75","b36wwdhonfca4sc",489,"67.csv","","null","resources/maskTrios/L2BB.jpg","null","",NA,NA,NA,NA,""
"image-keyboard-response",238,213078,"0.0-3.75-2.75","b36wwdhonfca4sc",489,"67.csv","","null","resources/images/fishbone.png","null","",NA,NA,NA,NA,""
"image-keyboard-response",239,213663,"0.0-3.76-0.76","b36wwdhonfca4sc",489,"67.csv","","583.4000000953674","resources/trios/L2T2A1.jpg","39","restless",0.6,0.8,0.4,0.662354547053115,"false"
"image-keyboard-response",240,214070,"0.0-3.76-1.76","b36wwdhonfca4sc",489,"67.csv","","null","resources/maskTrios/BBA1.jpg","null","",NA,NA,NA,NA,""
"image-keyboard-response",241,215277,"0.0-3.76-2.76","b36wwdhonfca4sc",489,"67.csv","","null","resources/images/fishbone.png","null","",NA,NA,NA,NA,""
"image-keyboard-response",242,215521,"0.0-3.77-0.77","b36wwdhonfca4sc",489,"67.csv","","242.5","resources/trios/L2T4A1.jpg","38","restless",0.6,0.8,0.4,0.402252331472437,"true"
"image-keyboard-response",243,215923,"0.0-3.77-1.77","b36wwdhonfca4sc",489,"67.csv","","null","resources/maskTrios/BT4B.jpg","null","",NA,NA,NA,NA,""
"image-keyboard-response",244,217129,"0.0-3.77-2.77","b36wwdhonfca4sc",489,"67.csv","","null","resources/images/coin2.png","null","",NA,NA,NA,NA,""
"image-keyboard-response",245,217388,"0.0-3.78-0.78","b36wwdhonfca4sc",489,"67.csv","","257.7000000476837","resources/trios/L2T4A1.jpg","37","restless",0.6,0.8,0.5,0.0144476428498599,"true"
"image-keyboard-response",246,217795,"0.0-3.78-1.78","b36wwdhonfca4sc",489,"67.csv","","null","resources/maskTrios/L2BB.jpg","null","",NA,NA,NA,NA,""
"image-keyboard-response",247,219002,"0.0-3.78-2.78","b36wwdhonfca4sc",489,"67.csv","","null","resources/images/coin2.png","null","",NA,NA,NA,NA,""
"image-keyboard-response",248,219252,"0.0-3.79-0.79","b36wwdhonfca4sc",489,"67.csv","","248.09999990463257","resources/trios/L2T4A1.jpg","38","restless",0.6,0.8,0.5,0.966412070692237,"false"
"image-keyboard-response",249,219659,"0.0-3.79-1.79","b36wwdhonfca4sc",489,"67.csv","","null","resources/maskTrios/BT4B.jpg","null","",NA,NA,NA,NA,""
"image-keyboard-response",250,220866,"0.0-3.79-2.79","b36wwdhonfca4sc",489,"67.csv","","null","resources/images/fishbone.png","null","",NA,NA,NA,NA,""
"image-keyboard-response",251,221165,"0.0-3.80-0.80","b36wwdhonfca4sc",489,"67.csv","","296.89999985694885","resources/trios/L2T4A2.jpg","37","restless",0.6,0.8,0.5,0.694948496091694,"false"
"image-keyboard-response",252,221572,"0.0-3.80-1.80","b36wwdhonfca4sc",489,"67.csv","","null","resources/maskTrios/L2BB.jpg","null","",NA,NA,NA,NA,""
"image-keyboard-response",253,222779,"0.0-3.80-2.80","b36wwdhonfca4sc",489,"67.csv","","null","resources/images/fishbone.png","null","",NA,NA,NA,NA,""
"image-keyboard-response",254,222882,"0.0-3.81-0.81","b36wwdhonfca4sc",489,"67.csv","","101.29999995231628","resources/trios/L2T4A1.jpg","39","restless",0.6,0.7,0.5,0.576565957225972,"false"
"image-keyboard-response",255,223288,"0.0-3.81-1.81","b36wwdhonfca4sc",489,"67.csv","","null","resources/maskTrios/BBA1.jpg","null","",NA,NA,NA,NA,""
"image-keyboard-response",256,224494,"0.0-3.81-2.81","b36wwdhonfca4sc",489,"67.csv","","null","resources/images/fishbone.png","null","",NA,NA,NA,NA,""
"image-keyboard-response",257,224605,"0.0-3.82-0.82","b36wwdhonfca4sc",489,"67.csv","","108.09999990463257","resources/trios/L4T2A1.jpg","38","restless",0.6,0.7,0.5,0.781741073820127,"false"
"image-keyboard-response",258,225011,"0.0-3.82-1.82","b36wwdhonfca4sc",489,"67.csv","","null","resources/maskTrios/BT2B.jpg","null","",NA,NA,NA,NA,""
"image-keyboard-response",259,226218,"0.0-3.82-2.82","b36wwdhonfca4sc",489,"67.csv","","null","resources/images/fishbone.png","null","",NA,NA,NA,NA,""
"image-keyboard-response",260,226506,"0.0-3.83-0.83","b36wwdhonfca4sc",489,"67.csv","","285.39999985694885","resources/trios/L2T4A1.jpg","37","restless",0.6,0.7,0.5,0.347897705676528,"true"
"image-keyboard-response",261,226913,"0.0-3.83-1.83","b36wwdhonfca4sc",489,"67.csv","","null","resources/maskTrios/L2BB.jpg","null","",NA,NA,NA,NA,""
"image-keyboard-response",262,228120,"0.0-3.83-2.83","b36wwdhonfca4sc",489,"67.csv","","null","resources/images/coin2.png","null","",NA,NA,NA,NA,""
"image-keyboard-response",263,228417,"0.0-3.84-0.84","b36wwdhonfca4sc",489,"67.csv","","294.89999985694885","resources/trios/L4T2A2.jpg","39","restless",0.5,0.7,0.5,0.753156650736981,"false"
"image-keyboard-response",264,228824,"0.0-3.84-1.84","b36wwdhonfca4sc",489,"67.csv","","null","resources/maskTrios/BBA2.jpg","null","",NA,NA,NA,NA,""
"image-keyboard-response",265,230030,"0.0-3.84-2.84","b36wwdhonfca4sc",489,"67.csv","","null","resources/images/fishbone.png","null","",NA,NA,NA,NA,""
"image-keyboard-response",266,230316,"0.0-3.85-0.85","b36wwdhonfca4sc",489,"67.csv","","283.90000009536743","resources/trios/L4T4A2.jpg","37","restless",0.5,0.7,0.5,0.0890483306190242,"true"
"image-keyboard-response",267,230724,"0.0-3.85-1.85","b36wwdhonfca4sc",489,"67.csv","","null","resources/maskTrios/L4BB.jpg","null","",NA,NA,NA,NA,""
"image-keyboard-response",268,231931,"0.0-3.85-2.85","b36wwdhonfca4sc",489,"67.csv","","null","resources/images/coin2.png","null","",NA,NA,NA,NA,""
"image-keyboard-response",269,232415,"0.0-3.86-0.86","b36wwdhonfca4sc",489,"67.csv","","481.7999999523163","resources/trios/L4T2A1.jpg","37","restless",0.4,0.7,0.5,0.034859195811874,"true"
"image-keyboard-response",270,232820,"0.0-3.86-1.86","b36wwdhonfca4sc",489,"67.csv","","null","resources/maskTrios/L4BB.jpg","null","",NA,NA,NA,NA,""
"image-keyboard-response",271,234027,"0.0-3.86-2.86","b36wwdhonfca4sc",489,"67.csv","","null","resources/images/coin2.png","null","",NA,NA,NA,NA,""
"image-keyboard-response",272,234409,"0.0-3.87-0.87","b36wwdhonfca4sc",489,"67.csv","","380.19999980926514","resources/trios/L4T4A1.jpg","37","restless",0.4,0.7,0.5,0.708991625127093,"false"
"image-keyboard-response",273,234815,"0.0-3.87-1.87","b36wwdhonfca4sc",489,"67.csv","","null","resources/maskTrios/L4BB.jpg","null","",NA,NA,NA,NA,""
"image-keyboard-response",274,236021,"0.0-3.87-2.87","b36wwdhonfca4sc",489,"67.csv","","null","resources/images/fishbone.png","null","",NA,NA,NA,NA,""
"image-keyboard-response",275,236271,"0.0-3.88-0.88","b36wwdhonfca4sc",489,"67.csv","","247.90000009536743","resources/trios/L4T4A1.jpg","38","restless",0.4,0.7,0.5,0.052924613200098,"true"
"image-keyboard-response",276,236678,"0.0-3.88-1.88","b36wwdhonfca4sc",489,"67.csv","","null","resources/maskTrios/BT4B.jpg","null","",NA,NA,NA,NA,""
"image-keyboard-response",277,237881,"0.0-3.88-2.88","b36wwdhonfca4sc",489,"67.csv","","null","resources/images/coin2.png","null","",NA,NA,NA,NA,""
"image-keyboard-response",278,238573,"0.0-3.89-0.89","b36wwdhonfca4sc",489,"67.csv","","690.0999999046326","resources/trios/L4T4A2.jpg","39","restless",0.4,0.7,0.5,0.127734827461835,"true"
"image-keyboard-response",279,238980,"0.0-3.89-1.89","b36wwdhonfca4sc",489,"67.csv","","null","resources/maskTrios/BBA2.jpg","null","",NA,NA,NA,NA,""
"image-keyboard-response",280,240185,"0.0-3.89-2.89","b36wwdhonfca4sc",489,"67.csv","","null","resources/images/coin2.png","null","",NA,NA,NA,NA,""
"image-keyboard-response",281,240475,"0.0-3.90-0.90","b36wwdhonfca4sc",489,"67.csv","","288.2999999523163","resources/trios/L2T2A2.jpg","38","restless",0.4,0.7,0.5,0.421377396799726,"true"
"image-keyboard-response",282,240879,"0.0-3.90-1.90","b36wwdhonfca4sc",489,"67.csv","","null","resources/maskTrios/BT2B.jpg","null","",NA,NA,NA,NA,""
"image-keyboard-response",283,242082,"0.0-3.90-2.90","b36wwdhonfca4sc",489,"67.csv","","null","resources/images/coin2.png","null","",NA,NA,NA,NA,""
"image-keyboard-response",284,242403,"0.0-3.91-0.91","b36wwdhonfca4sc",489,"67.csv","","318.39999985694885","resources/trios/L4T4A2.jpg","39","restless",0.4,0.7,0.5,0.606696805980953,"false"
"image-keyboard-response",285,242810,"0.0-3.91-1.91","b36wwdhonfca4sc",489,"67.csv","","null","resources/maskTrios/BBA2.jpg","null","",NA,NA,NA,NA,""
"image-keyboard-response",286,244014,"0.0-3.91-2.91","b36wwdhonfca4sc",489,"67.csv","","null","resources/images/fishbone.png","null","",NA,NA,NA,NA,""
"image-keyboard-response",287,244311,"0.0-3.92-0.92","b36wwdhonfca4sc",489,"67.csv","","295.5","resources/trios/L4T2A1.jpg","38","restless",0.4,0.7,0.5,0.314569583280169,"true"
"image-keyboard-response",288,244719,"0.0-3.92-1.92","b36wwdhonfca4sc",489,"67.csv","","null","resources/maskTrios/BT2B.jpg","null","",NA,NA,NA,NA,""
"image-keyboard-response",289,245923,"0.0-3.92-2.92","b36wwdhonfca4sc",489,"67.csv","","null","resources/images/coin2.png","null","",NA,NA,NA,NA,""
"image-keyboard-response",290,246321,"0.0-3.93-0.93","b36wwdhonfca4sc",489,"67.csv","","396","resources/trios/L2T2A1.jpg","37","restless",0.4,0.7,0.5,0.476598084397283,"false"
"image-keyboard-response",291,246728,"0.0-3.93-1.93","b36wwdhonfca4sc",489,"67.csv","","null","resources/maskTrios/L2BB.jpg","null","",NA,NA,NA,NA,""
"image-keyboard-response",292,247934,"0.0-3.93-2.93","b36wwdhonfca4sc",489,"67.csv","","null","resources/images/fishbone.png","null","",NA,NA,NA,NA,""
"image-keyboard-response",293,248235,"0.0-3.94-0.94","b36wwdhonfca4sc",489,"67.csv","","299.09999990463257","resources/trios/L2T2A2.jpg","38","restless",0.4,0.7,0.5,0.269571624508641,"true"
"image-keyboard-response",294,248642,"0.0-3.94-1.94","b36wwdhonfca4sc",489,"67.csv","","null","resources/maskTrios/BT2B.jpg","null","",NA,NA,NA,NA,""
"image-keyboard-response",295,249849,"0.0-3.94-2.94","b36wwdhonfca4sc",489,"67.csv","","null","resources/images/coin2.png","null","",NA,NA,NA,NA,""
"image-keyboard-response",296,250406,"0.0-3.95-0.95","b36wwdhonfca4sc",489,"67.csv","","554.5","resources/trios/L2T2A2.jpg","39","restless",0.4,0.7,0.5,0.59678308144063,"false"
"image-keyboard-response",297,250813,"0.0-3.95-1.95","b36wwdhonfca4sc",489,"67.csv","","null","resources/maskTrios/BBA2.jpg","null","",NA,NA,NA,NA,""
"image-keyboard-response",298,252020,"0.0-3.95-2.95","b36wwdhonfca4sc",489,"67.csv","","null","resources/images/fishbone.png","null","",NA,NA,NA,NA,""
"image-keyboard-response",299,252412,"0.0-3.96-0.96","b36wwdhonfca4sc",489,"67.csv","","390.2000000476837","resources/trios/L4T2A1.jpg","38","restless",0.4,0.7,0.5,0.290555228574796,"true"
"image-keyboard-response",300,252819,"0.0-3.96-1.96","b36wwdhonfca4sc",489,"67.csv","","null","resources/maskTrios/BT2B.jpg","null","",NA,NA,NA,NA,""
"image-keyboard-response",301,254026,"0.0-3.96-2.96","b36wwdhonfca4sc",489,"67.csv","","null","resources/images/coin2.png","null","",NA,NA,NA,NA,""
"image-keyboard-response",302,254418,"0.0-3.97-0.97","b36wwdhonfca4sc",489,"67.csv","","389.5","resources/trios/L4T4A2.jpg","37","restless",0.4,0.7,0.5,0.338518892813959,"true"
"image-keyboard-response",303,254825,"0.0-3.97-1.97","b36wwdhonfca4sc",489,"67.csv","","null","resources/maskTrios/L4BB.jpg","null","",NA,NA,NA,NA,""
"image-keyboard-response",304,256029,"0.0-3.97-2.97","b36wwdhonfca4sc",489,"67.csv","","null","resources/images/coin2.png","null","",NA,NA,NA,NA,""
"image-keyboard-response",305,256445,"0.0-3.98-0.98","b36wwdhonfca4sc",489,"67.csv","","413.5","resources/trios/L2T4A2.jpg","38","restless",0.4,0.7,0.5,0.698282625311789,"true"
"image-keyboard-response",306,256852,"0.0-3.98-1.98","b36wwdhonfca4sc",489,"67.csv","","null","resources/maskTrios/BT4B.jpg","null","",NA,NA,NA,NA,""
"image-keyboard-response",307,258059,"0.0-3.98-2.98","b36wwdhonfca4sc",489,"67.csv","","null","resources/images/coin2.png","null","",NA,NA,NA,NA,""
"image-keyboard-response",308,258907,"0.0-3.99-0.99","b36wwdhonfca4sc",489,"67.csv","","845.7999999523163","resources/trios/L4T4A2.jpg","37","restless",0.3,0.7,0.5,0.196441750971768,"true"
"image-keyboard-response",309,259314,"0.0-3.99-1.99","b36wwdhonfca4sc",489,"67.csv","","null","resources/maskTrios/L4BB.jpg","null","",NA,NA,NA,NA,""
"image-keyboard-response",310,260517,"0.0-3.99-2.99","b36wwdhonfca4sc",489,"67.csv","","null","resources/images/coin2.png","null","",NA,NA,NA,NA,""
"image-keyboard-response",311,260872,"0.0-3.100-0.100","b36wwdhonfca4sc",489,"67.csv","","352.69999980926514","resources/trios/L2T4A2.jpg","39","restless",0.3,0.7,0.6,0.908465396497883,"false"
"image-keyboard-response",312,261279,"0.0-3.100-1.100","b36wwdhonfca4sc",489,"67.csv","","null","resources/maskTrios/BBA2.jpg","null","",NA,NA,NA,NA,""
"image-keyboard-response",313,262484,"0.0-3.100-2.100","b36wwdhonfca4sc",489,"67.csv","","null","resources/images/fishbone.png","null","",NA,NA,NA,NA,""
"image-keyboard-response",314,262856,"0.0-3.101-0.101","b36wwdhonfca4sc",489,"67.csv","","369.7999999523163","resources/trios/L4T4A2.jpg","38","restless",0.3,0.7,0.6,0.315333715591916,"true"
"image-keyboard-response",315,263263,"0.0-3.101-1.101","b36wwdhonfca4sc",489,"67.csv","","null","resources/maskTrios/BT4B.jpg","null","",NA,NA,NA,NA,""
"image-keyboard-response",316,264470,"0.0-3.101-2.101","b36wwdhonfca4sc",489,"67.csv","","null","resources/images/coin2.png","null","",NA,NA,NA,NA,""
"image-keyboard-response",317,264697,"0.0-3.102-0.102","b36wwdhonfca4sc",489,"67.csv","","225.09999990463257","resources/trios/L4T4A2.jpg","37","restless",0.3,0.7,0.6,0.750265809841706,"false"
"image-keyboard-response",318,265104,"0.0-3.102-1.102","b36wwdhonfca4sc",489,"67.csv","","null","resources/maskTrios/L4BB.jpg","null","",NA,NA,NA,NA,""
"image-keyboard-response",319,266308,"0.0-3.102-2.102","b36wwdhonfca4sc",489,"67.csv","","null","resources/images/fishbone.png","null","",NA,NA,NA,NA,""
"image-keyboard-response",320,266611,"0.0-3.103-0.103","b36wwdhonfca4sc",489,"67.csv","","301.30000019073486","resources/trios/L4T2A2.jpg","38","restless",0.3,0.7,0.6,0.168985365391937,"true"
"image-keyboard-response",321,267017,"0.0-3.103-1.103","b36wwdhonfca4sc",489,"67.csv","","null","resources/maskTrios/BT2B.jpg","null","",NA,NA,NA,NA,""
"image-keyboard-response",322,268224,"0.0-3.103-2.103","b36wwdhonfca4sc",489,"67.csv","","null","resources/images/coin2.png","null","",NA,NA,NA,NA,""
"image-keyboard-response",323,268733,"0.0-3.104-0.104","b36wwdhonfca4sc",489,"67.csv","","506.2000000476837","resources/trios/L2T2A1.jpg","39","restless",0.3,0.7,0.6,0.126218399763995,"true"
"image-keyboard-response",324,269140,"0.0-3.104-1.104","b36wwdhonfca4sc",489,"67.csv","","null","resources/maskTrios/BBA1.jpg","null","",NA,NA,NA,NA,""
"image-keyboard-response",325,270347,"0.0-3.104-2.104","b36wwdhonfca4sc",489,"67.csv","","null","resources/images/coin2.png","null","",NA,NA,NA,NA,""
"image-keyboard-response",326,270618,"0.0-3.105-0.105","b36wwdhonfca4sc",489,"67.csv","","269.59999990463257","resources/trios/L4T2A1.jpg","38","restless",0.3,0.7,0.6,0.0988195023383882,"true"
"image-keyboard-response",327,271025,"0.0-3.105-1.105","b36wwdhonfca4sc",489,"67.csv","","null","resources/maskTrios/BT2B.jpg","null","",NA,NA,NA,NA,""
"image-keyboard-response",328,272232,"0.0-3.105-2.105","b36wwdhonfca4sc",489,"67.csv","","null","resources/images/coin2.png","null","",NA,NA,NA,NA,""
"image-keyboard-response",329,272678,"0.0-3.106-0.106","b36wwdhonfca4sc",489,"67.csv","","444.10000014305115","resources/trios/L2T4A1.jpg","39","restless",0.3,0.7,0.6,0.93999995054438,"false"
"image-keyboard-response",330,273085,"0.0-3.106-1.106","b36wwdhonfca4sc",489,"67.csv","","null","resources/maskTrios/BBA1.jpg","null","",NA,NA,NA,NA,""
"image-keyboard-response",331,274292,"0.0-3.106-2.106","b36wwdhonfca4sc",489,"67.csv","","null","resources/images/fishbone.png","null","",NA,NA,NA,NA,""
"image-keyboard-response",332,274620,"0.0-3.107-0.107","b36wwdhonfca4sc",489,"67.csv","","326.09999990463257","resources/trios/L2T4A1.jpg","38","restless",0.3,0.7,0.6,0.35948160349406,"true"
"image-keyboard-response",333,275028,"0.0-3.107-1.107","b36wwdhonfca4sc",489,"67.csv","","null","resources/maskTrios/BT4B.jpg","null","",NA,NA,NA,NA,""
"image-keyboard-response",334,276235,"0.0-3.107-2.107","b36wwdhonfca4sc",489,"67.csv","","null","resources/images/coin2.png","null","",NA,NA,NA,NA,""
"image-keyboard-response",335,276709,"0.0-3.108-0.108","b36wwdhonfca4sc",489,"67.csv","","472.7000000476837","resources/trios/L2T2A1.jpg","38","restless",0.2,0.7,0.6,0.0637671816025758,"true"
"image-keyboard-response",336,277116,"0.0-3.108-1.108","b36wwdhonfca4sc",489,"67.csv","","null","resources/maskTrios/BT2B.jpg","null","",NA,NA,NA,NA,""
"image-keyboard-response",337,278323,"0.0-3.108-2.108","b36wwdhonfca4sc",489,"67.csv","","null","resources/images/coin2.png","null","",NA,NA,NA,NA,""
"image-keyboard-response",338,278641,"0.0-3.109-0.109","b36wwdhonfca4sc",489,"67.csv","","316.2999999523163","resources/trios/L4T4A2.jpg","38","restless",0.2,0.7,0.6,0.927384455528093,"false"
"image-keyboard-response",339,279047,"0.0-3.109-1.109","b36wwdhonfca4sc",489,"67.csv","","null","resources/maskTrios/BT4B.jpg","null","",NA,NA,NA,NA,""
"image-keyboard-response",340,280254,"0.0-3.109-2.109","b36wwdhonfca4sc",489,"67.csv","","null","resources/images/fishbone.png","null","",NA,NA,NA,NA,""
"image-keyboard-response",341,280502,"0.0-3.110-0.110","b36wwdhonfca4sc",489,"67.csv","","246.10000014305115","resources/trios/L4T4A1.jpg","37","restless",0.2,0.7,0.6,0.878054188392906,"false"
"image-keyboard-response",342,280906,"0.0-3.110-1.110","b36wwdhonfca4sc",489,"67.csv","","null","resources/maskTrios/L4BB.jpg","null","",NA,NA,NA,NA,""
"image-keyboard-response",343,282112,"0.0-3.110-2.110","b36wwdhonfca4sc",489,"67.csv","","null","resources/images/fishbone.png","null","",NA,NA,NA,NA,""
"image-keyboard-response",344,282367,"0.0-3.111-0.111","b36wwdhonfca4sc",489,"67.csv","","252.70000004768372","resources/trios/L2T2A1.jpg","37","restless",0.2,0.6,0.6,0.314464575773954,"false"
"image-keyboard-response",345,282771,"0.0-3.111-1.111","b36wwdhonfca4sc",489,"67.csv","","null","resources/maskTrios/L2BB.jpg","null","",NA,NA,NA,NA,""
"image-keyboard-response",346,283976,"0.0-3.111-2.111","b36wwdhonfca4sc",489,"67.csv","","null","resources/images/fishbone.png","null","",NA,NA,NA,NA,""
"image-keyboard-response",347,284851,"0.0-3.112-0.112","b36wwdhonfca4sc",489,"67.csv","","873.2999999523163","resources/trios/L2T2A2.jpg","38","restless",0.3,0.6,0.6,0.930214783569055,"false"
"image-keyboard-response",348,285258,"0.0-3.112-1.112","b36wwdhonfca4sc",489,"67.csv","","null","resources/maskTrios/BT2B.jpg","null","",NA,NA,NA,NA,""
"image-keyboard-response",349,286463,"0.0-3.112-2.112","b36wwdhonfca4sc",489,"67.csv","","null","resources/images/fishbone.png","null","",NA,NA,NA,NA,""
"image-keyboard-response",350,286748,"0.0-3.113-0.113","b36wwdhonfca4sc",489,"67.csv","","283.39999985694885","resources/trios/L2T4A2.jpg","39","restless",0.3,0.6,0.6,0.398286026522029,"true"
"image-keyboard-response",351,287152,"0.0-3.113-1.113","b36wwdhonfca4sc",489,"67.csv","","null","resources/maskTrios/BBA2.jpg","null","",NA,NA,NA,NA,""
"image-keyboard-response",352,288358,"0.0-3.113-2.113","b36wwdhonfca4sc",489,"67.csv","","null","resources/images/coin2.png","null","",NA,NA,NA,NA,""
"image-keyboard-response",353,288834,"0.0-3.114-0.114","b36wwdhonfca4sc",489,"67.csv","","474.2000000476837","resources/trios/L2T2A1.jpg","39","restless",0.3,0.7,0.6,0.38984342536202,"true"
"image-keyboard-response",354,289237,"0.0-3.114-1.114","b36wwdhonfca4sc",489,"67.csv","","null","resources/maskTrios/BBA1.jpg","null","",NA,NA,NA,NA,""
"image-keyboard-response",355,290441,"0.0-3.114-2.114","b36wwdhonfca4sc",489,"67.csv","","null","resources/images/coin2.png","null","",NA,NA,NA,NA,""
"image-keyboard-response",356,290720,"0.0-3.115-0.115","b36wwdhonfca4sc",489,"67.csv","","277.2000000476837","resources/trios/L2T2A2.jpg","39","restless",0.3,0.6,0.6,0.0462409116333411,"true"
"image-keyboard-response",357,291127,"0.0-3.115-1.115","b36wwdhonfca4sc",489,"67.csv","","null","resources/maskTrios/BBA2.jpg","null","",NA,NA,NA,NA,""
"image-keyboard-response",358,292334,"0.0-3.115-2.115","b36wwdhonfca4sc",489,"67.csv","","null","resources/images/coin2.png","null","",NA,NA,NA,NA,""
"image-keyboard-response",359,292615,"0.0-3.116-0.116","b36wwdhonfca4sc",489,"67.csv","","279.2999999523163","resources/trios/L2T2A2.jpg","39","restless",0.3,0.5,0.6,0.971853834142521,"false"
"image-keyboard-response",360,293022,"0.0-3.116-1.116","b36wwdhonfca4sc",489,"67.csv","","null","resources/maskTrios/BBA2.jpg","null","",NA,NA,NA,NA,""
"image-keyboard-response",361,294229,"0.0-3.116-2.116","b36wwdhonfca4sc",489,"67.csv","","null","resources/images/fishbone.png","null","",NA,NA,NA,NA,""
"image-keyboard-response",362,294458,"0.0-3.117-0.117","b36wwdhonfca4sc",489,"67.csv","","227.20000004768372","resources/trios/L2T4A1.jpg","37","restless",0.3,0.5,0.6,0.517230578670999,"false"
"image-keyboard-response",363,294860,"0.0-3.117-1.117","b36wwdhonfca4sc",489,"67.csv","","null","resources/maskTrios/L2BB.jpg","null","",NA,NA,NA,NA,""
"image-keyboard-response",364,296067,"0.0-3.117-2.117","b36wwdhonfca4sc",489,"67.csv","","null","resources/images/fishbone.png","null","",NA,NA,NA,NA,""
"image-keyboard-response",365,296364,"0.0-3.118-0.118","b36wwdhonfca4sc",489,"67.csv","","294.7999999523163","resources/trios/L4T2A1.jpg","38","restless",0.3,0.5,0.6,0.919589086740471,"false"
"image-keyboard-response",366,296766,"0.0-3.118-1.118","b36wwdhonfca4sc",489,"67.csv","","null","resources/maskTrios/BT2B.jpg","null","",NA,NA,NA,NA,""
"image-keyboard-response",367,297973,"0.0-3.118-2.118","b36wwdhonfca4sc",489,"67.csv","","null","resources/images/fishbone.png","null","",NA,NA,NA,NA,""
"image-keyboard-response",368,298281,"0.0-3.119-0.119","b36wwdhonfca4sc",489,"67.csv","","306.09999990463257","resources/trios/L2T2A1.jpg","37","restless",0.3,0.5,0.6,0.571946124478544,"false"
"image-keyboard-response",369,298683,"0.0-3.119-1.119","b36wwdhonfca4sc",489,"67.csv","","null","resources/maskTrios/L2BB.jpg","null","",NA,NA,NA,NA,""
"image-keyboard-response",370,299890,"0.0-3.119-2.119","b36wwdhonfca4sc",489,"67.csv","","null","resources/images/fishbone.png","null","",NA,NA,NA,NA,""
"image-keyboard-response",371,300229,"0.0-3.120-0.120","b36wwdhonfca4sc",489,"67.csv","","337.7999999523163","resources/trios/L4T4A1.jpg","39","restless",0.3,0.5,0.6,0.0426819284939361,"true"
"image-keyboard-response",372,300636,"0.0-3.120-1.120","b36wwdhonfca4sc",489,"67.csv","","null","resources/maskTrios/BBA1.jpg","null","",NA,NA,NA,NA,""
"image-keyboard-response",373,301843,"0.0-3.120-2.120","b36wwdhonfca4sc",489,"67.csv","","null","resources/images/coin2.png","null","",NA,NA,NA,NA,""
"image-keyboard-response",374,302382,"0.0-3.121-0.121","b36wwdhonfca4sc",489,"67.csv","","537.0999999046326","resources/trios/L2T2A2.jpg","39","restless",0.3,0.5,0.6,0.738783851840227,"false"
"image-keyboard-response",375,302789,"0.0-3.121-1.121","b36wwdhonfca4sc",489,"67.csv","","null","resources/maskTrios/BBA2.jpg","null","",NA,NA,NA,NA,""
"image-keyboard-response",376,303995,"0.0-3.121-2.121","b36wwdhonfca4sc",489,"67.csv","","null","resources/images/fishbone.png","null","",NA,NA,NA,NA,""
"image-keyboard-response",377,304285,"0.0-3.122-0.122","b36wwdhonfca4sc",489,"67.csv","","287.69999980926514","resources/trios/L4T2A2.jpg","38","restless",0.3,0.5,0.6,0.733806377167568,"false"
"image-keyboard-response",378,304692,"0.0-3.122-1.122","b36wwdhonfca4sc",489,"67.csv","","null","resources/maskTrios/BT2B.jpg","null","",NA,NA,NA,NA,""
"image-keyboard-response",379,305898,"0.0-3.122-2.122","b36wwdhonfca4sc",489,"67.csv","","null","resources/images/fishbone.png","null","",NA,NA,NA,NA,""
"image-keyboard-response",380,306187,"0.0-3.123-0.123","b36wwdhonfca4sc",489,"67.csv","","286.90000009536743","resources/trios/L4T4A2.jpg","38","restless",0.3,0.5,0.6,0.0387026070129446,"true"
"image-keyboard-response",381,306594,"0.0-3.123-1.123","b36wwdhonfca4sc",489,"67.csv","","null","resources/maskTrios/BT4B.jpg","null","",NA,NA,NA,NA,""
"image-keyboard-response",382,307801,"0.0-3.123-2.123","b36wwdhonfca4sc",489,"67.csv","","null","resources/images/coin2.png","null","",NA,NA,NA,NA,""
"image-keyboard-response",383,308126,"0.0-3.124-0.124","b36wwdhonfca4sc",489,"67.csv","","323","resources/trios/L2T4A1.jpg","38","restless",0.3,0.5,0.6,0.39535600503293,"true"
"image-keyboard-response",384,308533,"0.0-3.124-1.124","b36wwdhonfca4sc",489,"67.csv","","null","resources/maskTrios/BT4B.jpg","null","",NA,NA,NA,NA,""
"image-keyboard-response",385,309740,"0.0-3.124-2.124","b36wwdhonfca4sc",489,"67.csv","","null","resources/images/coin2.png","null","",NA,NA,NA,NA,""
"image-keyboard-response",386,311279,"0.0-3.125-0.125","b36wwdhonfca4sc",489,"67.csv","","1537","resources/trios/L2T2A2.jpg","38","restless",0.3,0.6,0.6,0.572077679936679,"true"
"image-keyboard-response",387,311684,"0.0-3.125-1.125","b36wwdhonfca4sc",489,"67.csv","","null","resources/maskTrios/BT2B.jpg","null","",NA,NA,NA,NA,""
"image-keyboard-response",388,312891,"0.0-3.125-2.125","b36wwdhonfca4sc",489,"67.csv","","null","resources/images/coin2.png","null","",NA,NA,NA,NA,""
"image-keyboard-response",389,313115,"0.0-3.126-0.126","b36wwdhonfca4sc",489,"67.csv","","222.20000004768372","resources/trios/L4T4A1.jpg","37","restless",0.3,0.6,0.6,0.375384523657076,"false"
"image-keyboard-response",390,313522,"0.0-3.126-1.126","b36wwdhonfca4sc",489,"67.csv","","null","resources/maskTrios/L4BB.jpg","null","",NA,NA,NA,NA,""
"image-keyboard-response",391,314729,"0.0-3.126-2.126","b36wwdhonfca4sc",489,"67.csv","","null","resources/images/fishbone.png","null","",NA,NA,NA,NA,""
"image-keyboard-response",392,315002,"0.0-3.127-0.127","b36wwdhonfca4sc",489,"67.csv","","271.39999985694885","resources/trios/L4T2A1.jpg","38","restless",0.2,0.5,0.6,0.901694139427183,"false"
"image-keyboard-response",393,315409,"0.0-3.127-1.127","b36wwdhonfca4sc",489,"67.csv","","null","resources/maskTrios/BT2B.jpg","null","",NA,NA,NA,NA,""
"image-keyboard-response",394,316616,"0.0-3.127-2.127","b36wwdhonfca4sc",489,"67.csv","","null","resources/images/fishbone.png","null","",NA,NA,NA,NA,""
"image-keyboard-response",395,316887,"0.0-3.128-0.128","b36wwdhonfca4sc",489,"67.csv","","269.39999985694885","resources/trios/L4T4A2.jpg","38","restless",0.1,0.5,0.6,0.817774951234397,"false"
"image-keyboard-response",396,317295,"0.0-3.128-1.128","b36wwdhonfca4sc",489,"67.csv","","null","resources/maskTrios/BT4B.jpg","null","",NA,NA,NA,NA,""
"image-keyboard-response",397,318499,"0.0-3.128-2.128","b36wwdhonfca4sc",489,"67.csv","","null","resources/images/fishbone.png","null","",NA,NA,NA,NA,""
"image-keyboard-response",398,318750,"0.0-3.129-0.129","b36wwdhonfca4sc",489,"67.csv","","248.70000004768372","resources/trios/L2T2A2.jpg","38","restless",0.1,0.5,0.6,0.562231753902056,"false"
"image-keyboard-response",399,319156,"0.0-3.129-1.129","b36wwdhonfca4sc",489,"67.csv","","null","resources/maskTrios/BT2B.jpg","null","",NA,NA,NA,NA,""
"image-keyboard-response",400,320363,"0.0-3.129-2.129","b36wwdhonfca4sc",489,"67.csv","","null","resources/images/fishbone.png","null","",NA,NA,NA,NA,""
"image-keyboard-response",401,320905,"0.0-3.130-0.130","b36wwdhonfca4sc",489,"67.csv","","540.0999999046326","resources/trios/L2T2A2.jpg","38","restless",0.1,0.4,0.6,0.536068508690301,"false"
"image-keyboard-response",402,321312,"0.0-3.130-1.130","b36wwdhonfca4sc",489,"67.csv","","null","resources/maskTrios/BT2B.jpg","null","",NA,NA,NA,NA,""
"image-keyboard-response",403,322518,"0.0-3.130-2.130","b36wwdhonfca4sc",489,"67.csv","","null","resources/images/fishbone.png","null","",NA,NA,NA,NA,""
"image-keyboard-response",404,322803,"0.0-3.131-0.131","b36wwdhonfca4sc",489,"67.csv","","282.80000019073486","resources/trios/L4T4A2.jpg","37","restless",0.1,0.4,0.6,0.986695189613308,"false"
"image-keyboard-response",405,323210,"0.0-3.131-1.131","b36wwdhonfca4sc",489,"67.csv","","null","resources/maskTrios/L4BB.jpg","null","",NA,NA,NA,NA,""
"image-keyboard-response",406,324413,"0.0-3.131-2.131","b36wwdhonfca4sc",489,"67.csv","","null","resources/images/fishbone.png","null","",NA,NA,NA,NA,""
"image-keyboard-response",407,324513,"0.0-3.132-0.132","b36wwdhonfca4sc",489,"67.csv","","98.29999995231628","resources/trios/L2T4A2.jpg","38","restless",0.1,0.4,0.6,0.71725148620754,"false"
"image-keyboard-response",408,324915,"0.0-3.132-1.132","b36wwdhonfca4sc",489,"67.csv","","null","resources/maskTrios/BT4B.jpg","null","",NA,NA,NA,NA,""
"image-keyboard-response",409,326122,"0.0-3.132-2.132","b36wwdhonfca4sc",489,"67.csv","","null","resources/images/fishbone.png","null","",NA,NA,NA,NA,""
"image-keyboard-response",410,326354,"0.0-3.133-0.133","b36wwdhonfca4sc",489,"67.csv","","230.20000004768372","resources/trios/L2T4A1.jpg","39","restless",0.1,0.4,0.6,0.190175704392382,"true"
"image-keyboard-response",411,326761,"0.0-3.133-1.133","b36wwdhonfca4sc",489,"67.csv","","null","resources/maskTrios/BBA1.jpg","null","",NA,NA,NA,NA,""
"image-keyboard-response",412,327964,"0.0-3.133-2.133","b36wwdhonfca4sc",489,"67.csv","","null","resources/images/coin2.png","null","",NA,NA,NA,NA,""
"image-keyboard-response",413,328245,"0.0-3.134-0.134","b36wwdhonfca4sc",489,"67.csv","","278.90000009536743","resources/trios/L4T2A2.jpg","39","restless",0.1,0.4,0.6,0.186202657855986,"true"
"image-keyboard-response",414,328652,"0.0-3.134-1.134","b36wwdhonfca4sc",489,"67.csv","","null","resources/maskTrios/BBA2.jpg","null","",NA,NA,NA,NA,""
"image-keyboard-response",415,329857,"0.0-3.134-2.134","b36wwdhonfca4sc",489,"67.csv","","null","resources/images/coin2.png","null","",NA,NA,NA,NA,""
"image-keyboard-response",416,330148,"0.0-3.135-0.135","b36wwdhonfca4sc",489,"67.csv","","288.59999990463257","resources/trios/L4T2A2.jpg","39","restless",0.1,0.4,0.5,0.511324131590982,"false"
"image-keyboard-response",417,330554,"0.0-3.135-1.135","b36wwdhonfca4sc",489,"67.csv","","null","resources/maskTrios/BBA2.jpg","null","",NA,NA,NA,NA,""
"image-keyboard-response",418,331756,"0.0-3.135-2.135","b36wwdhonfca4sc",489,"67.csv","","null","resources/images/fishbone.png","null","",NA,NA,NA,NA,""
"image-keyboard-response",419,332112,"0.0-3.136-0.136","b36wwdhonfca4sc",489,"67.csv","","353.60000014305115","resources/trios/L4T4A2.jpg","38","restless",0.1,0.4,0.5,0.842909101637142,"false"
"image-keyboard-response",420,332514,"0.0-3.136-1.136","b36wwdhonfca4sc",489,"67.csv","","null","resources/maskTrios/BT4B.jpg","null","",NA,NA,NA,NA,""
"image-keyboard-response",421,333719,"0.0-3.136-2.136","b36wwdhonfca4sc",489,"67.csv","","null","resources/images/fishbone.png","null","",NA,NA,NA,NA,""
"image-keyboard-response",422,333760,"0.0-3.137-0.137","b36wwdhonfca4sc",489,"67.csv","","38.39999985694885","resources/trios/L2T2A1.jpg","37","restless",0.1,0.4,0.5,0.311033276834139,"false"
"image-keyboard-response",423,334163,"0.0-3.137-1.137","b36wwdhonfca4sc",489,"67.csv","","null","resources/maskTrios/L2BB.jpg","null","",NA,NA,NA,NA,""
"image-keyboard-response",424,335370,"0.0-3.137-2.137","b36wwdhonfca4sc",489,"67.csv","","null","resources/images/fishbone.png","null","",NA,NA,NA,NA,""
"image-keyboard-response",425,335744,"0.0-3.138-0.138","b36wwdhonfca4sc",489,"67.csv","","371.59999990463257","resources/trios/L4T2A1.jpg","38","restless",0.1,0.4,0.5,0.588960040796273,"false"
"image-keyboard-response",426,336151,"0.0-3.138-1.138","b36wwdhonfca4sc",489,"67.csv","","null","resources/maskTrios/BT2B.jpg","null","",NA,NA,NA,NA,""
"image-keyboard-response",427,337355,"0.0-3.138-2.138","b36wwdhonfca4sc",489,"67.csv","","null","resources/images/fishbone.png","null","",NA,NA,NA,NA,""
"image-keyboard-response",428,337794,"0.0-3.139-0.139","b36wwdhonfca4sc",489,"67.csv","","436.2999999523163","resources/trios/L2T2A1.jpg","39","restless",0.1,0.4,0.5,0.968409156222039,"false"
"image-keyboard-response",429,338201,"0.0-3.139-1.139","b36wwdhonfca4sc",489,"67.csv","","null","resources/maskTrios/BBA1.jpg","null","",NA,NA,NA,NA,""
"image-keyboard-response",430,339406,"0.0-3.139-2.139","b36wwdhonfca4sc",489,"67.csv","","null","resources/images/fishbone.png","null","",NA,NA,NA,NA,""
"image-keyboard-response",431,339615,"0.0-3.140-0.140","b36wwdhonfca4sc",489,"67.csv","","206.40000009536743","resources/trios/L4T2A1.jpg","37","restless",0.1,0.4,0.5,0.344383065028979,"false"
"image-keyboard-response",432,340022,"0.0-3.140-1.140","b36wwdhonfca4sc",489,"67.csv","","null","resources/maskTrios/L4BB.jpg","null","",NA,NA,NA,NA,""
"image-keyboard-response",433,341229,"0.0-3.140-2.140","b36wwdhonfca4sc",489,"67.csv","","null","resources/images/fishbone.png","null","",NA,NA,NA,NA,""
"image-keyboard-response",434,341517,"0.0-3.141-0.141","b36wwdhonfca4sc",489,"67.csv","","285.7000000476837","resources/trios/L4T4A2.jpg","38","restless",0.1,0.4,0.5,0.423524069758589,"false"
"image-keyboard-response",435,341924,"0.0-3.141-1.141","b36wwdhonfca4sc",489,"67.csv","","null","resources/maskTrios/BT4B.jpg","null","",NA,NA,NA,NA,""
"image-keyboard-response",436,343130,"0.0-3.141-2.141","b36wwdhonfca4sc",489,"67.csv","","null","resources/images/fishbone.png","null","",NA,NA,NA,NA,""
"image-keyboard-response",437,343791,"0.0-3.142-0.142","b36wwdhonfca4sc",489,"67.csv","","658.7999999523163","resources/trios/L2T4A2.jpg","38","restless",0.1,0.4,0.5,0.68223488818857,"false"
"image-keyboard-response",438,344198,"0.0-3.142-1.142","b36wwdhonfca4sc",489,"67.csv","","null","resources/maskTrios/BT4B.jpg","null","",NA,NA,NA,NA,""
"image-keyboard-response",439,345405,"0.0-3.142-2.142","b36wwdhonfca4sc",489,"67.csv","","null","resources/images/fishbone.png","null","",NA,NA,NA,NA,""
"image-keyboard-response",440,346354,"0.0-3.143-0.143","b36wwdhonfca4sc",489,"67.csv","","947.6000001430511","resources/trios/L2T2A2.jpg","37","restless",0.1,0.4,0.5,0.729453990996684,"false"
"image-keyboard-response",441,346756,"0.0-3.143-1.143","b36wwdhonfca4sc",489,"67.csv","","null","resources/maskTrios/L2BB.jpg","null","",NA,NA,NA,NA,""
"image-keyboard-response",442,347963,"0.0-3.143-2.143","b36wwdhonfca4sc",489,"67.csv","","null","resources/images/fishbone.png","null","",NA,NA,NA,NA,""
"image-keyboard-response",443,348159,"0.0-3.144-0.144","b36wwdhonfca4sc",489,"67.csv","","194.39999985694885","resources/trios/L4T4A2.jpg","39","restless",0.1,0.4,0.6,0.752900977500127,"false"
"image-keyboard-response",444,348566,"0.0-3.144-1.144","b36wwdhonfca4sc",489,"67.csv","","null","resources/maskTrios/BBA2.jpg","null","",NA,NA,NA,NA,""
"image-keyboard-response",445,349773,"0.0-3.144-2.144","b36wwdhonfca4sc",489,"67.csv","","null","resources/images/fishbone.png","null","",NA,NA,NA,NA,""
"image-keyboard-response",446,350486,"0.0-3.145-0.145","b36wwdhonfca4sc",489,"67.csv","","711.4000000953674","resources/trios/L2T4A2.jpg","38","restless",0.1,0.4,0.6,0.891415224952485,"false"
"image-keyboard-response",447,350893,"0.0-3.145-1.145","b36wwdhonfca4sc",489,"67.csv","","null","resources/maskTrios/BT4B.jpg","null","",NA,NA,NA,NA,""
"image-keyboard-response",448,352100,"0.0-3.145-2.145","b36wwdhonfca4sc",489,"67.csv","","null","resources/images/fishbone.png","null","",NA,NA,NA,NA,""
"image-keyboard-response",449,352528,"0.0-3.146-0.146","b36wwdhonfca4sc",489,"67.csv","","426.10000014305115","resources/trios/L2T4A2.jpg","38","restless",0.1,0.4,0.6,0.848366259262263,"false"
"image-keyboard-response",450,352931,"0.0-3.146-1.146","b36wwdhonfca4sc",489,"67.csv","","null","resources/maskTrios/BT4B.jpg","null","",NA,NA,NA,NA,""
"image-keyboard-response",451,354137,"0.0-3.146-2.146","b36wwdhonfca4sc",489,"67.csv","","null","resources/images/fishbone.png","null","",NA,NA,NA,NA,""
"image-keyboard-response",452,354454,"0.0-3.147-0.147","b36wwdhonfca4sc",489,"67.csv","","314.7000000476837","resources/trios/L4T4A2.jpg","37","restless",0.1,0.4,0.6,0.249551013895819,"false"
"image-keyboard-response",453,354856,"0.0-3.147-1.147","b36wwdhonfca4sc",489,"67.csv","","null","resources/maskTrios/L4BB.jpg","null","",NA,NA,NA,NA,""
"image-keyboard-response",454,356063,"0.0-3.147-2.147","b36wwdhonfca4sc",489,"67.csv","","null","resources/images/fishbone.png","null","",NA,NA,NA,NA,""
"image-keyboard-response",455,356099,"0.0-3.148-0.148","b36wwdhonfca4sc",489,"67.csv","","34.40000009536743","resources/trios/L4T4A1.jpg","38","restless",0.1,0.4,0.6,0.0521014315169035,"true"
"image-keyboard-response",456,356506,"0.0-3.148-1.148","b36wwdhonfca4sc",489,"67.csv","","null","resources/maskTrios/BT4B.jpg","null","",NA,NA,NA,NA,""
"image-keyboard-response",457,357712,"0.0-3.148-2.148","b36wwdhonfca4sc",489,"67.csv","","null","resources/images/coin2.png","null","",NA,NA,NA,NA,""
"image-keyboard-response",458,357941,"0.0-3.149-0.149","b36wwdhonfca4sc",489,"67.csv","","227.70000004768372","resources/trios/L2T4A1.jpg","38","restless",0.1,0.4,0.6,0.673115048129167,"false"
"image-keyboard-response",459,358348,"0.0-3.149-1.149","b36wwdhonfca4sc",489,"67.csv","","null","resources/maskTrios/BT4B.jpg","null","",NA,NA,NA,NA,""
"image-keyboard-response",460,359555,"0.0-3.149-2.149","b36wwdhonfca4sc",489,"67.csv","","null","resources/images/fishbone.png","null","",NA,NA,NA,NA,""
"image-keyboard-response",461,359930,"0.0-3.150-0.150","b36wwdhonfca4sc",489,"67.csv","","372.7999999523163","resources/trios/L2T4A2.jpg","38","restless",0.1,0.4,0.6,0.775310128328205,"false"
"image-keyboard-response",462,360335,"0.0-3.150-1.150","b36wwdhonfca4sc",489,"67.csv","","null","resources/maskTrios/BT4B.jpg","null","",NA,NA,NA,NA,""
"image-keyboard-response",463,361540,"0.0-3.150-2.150","b36wwdhonfca4sc",489,"67.csv","","null","resources/images/fishbone.png","null","",NA,NA,NA,NA,""
"image-keyboard-response",464,361780,"0.0-3.151-0.151","b36wwdhonfca4sc",489,"67.csv","","237.39999985694885","resources/trios/L2T4A2.jpg","37","restless",0.1,0.4,0.6,0.333116921555359,"false"
"image-keyboard-response",465,362184,"0.0-3.151-1.151","b36wwdhonfca4sc",489,"67.csv","","null","resources/maskTrios/L2BB.jpg","null","",NA,NA,NA,NA,""
"image-keyboard-response",466,363391,"0.0-3.151-2.151","b36wwdhonfca4sc",489,"67.csv","","null","resources/images/fishbone.png","null","",NA,NA,NA,NA,""
"image-keyboard-response",467,363608,"0.0-3.152-0.152","b36wwdhonfca4sc",489,"67.csv","","214.40000009536743","resources/trios/L4T2A1.jpg","39","restless",0.2,0.4,0.6,0.311585097734163,"true"
"image-keyboard-response",468,364010,"0.0-3.152-1.152","b36wwdhonfca4sc",489,"67.csv","","null","resources/maskTrios/BBA1.jpg","null","",NA,NA,NA,NA,""
"image-keyboard-response",469,365213,"0.0-3.152-2.152","b36wwdhonfca4sc",489,"67.csv","","null","resources/images/coin2.png","null","",NA,NA,NA,NA,""
"image-keyboard-response",470,365366,"0.0-3.153-0.153","b36wwdhonfca4sc",489,"67.csv","","151.40000009536743","resources/trios/L4T2A1.jpg","39","restless",0.2,0.4,0.6,0.975308247803084,"false"
"image-keyboard-response",471,365773,"0.0-3.153-1.153","b36wwdhonfca4sc",489,"67.csv","","null","resources/maskTrios/BBA1.jpg","null","",NA,NA,NA,NA,""
"image-keyboard-response",472,366980,"0.0-3.153-2.153","b36wwdhonfca4sc",489,"67.csv","","null","resources/images/fishbone.png","null","",NA,NA,NA,NA,""
"image-keyboard-response",473,367493,"0.0-3.154-0.154","b36wwdhonfca4sc",489,"67.csv","","511.10000014305115","resources/trios/L2T4A2.jpg","38","restless",0.2,0.4,0.6,0.125665075378537,"true"
"image-keyboard-response",474,367900,"0.0-3.154-1.154","b36wwdhonfca4sc",489,"67.csv","","null","resources/maskTrios/BT4B.jpg","null","",NA,NA,NA,NA,""
"image-keyboard-response",475,369106,"0.0-3.154-2.154","b36wwdhonfca4sc",489,"67.csv","","null","resources/images/coin2.png","null","",NA,NA,NA,NA,""
"image-keyboard-response",476,369377,"0.0-3.155-0.155","b36wwdhonfca4sc",489,"67.csv","","269.40000009536743","resources/trios/L4T2A2.jpg","38","restless",0.3,0.4,0.6,0.138739232930541,"true"
"image-keyboard-response",477,369783,"0.0-3.155-1.155","b36wwdhonfca4sc",489,"67.csv","","null","resources/maskTrios/BT2B.jpg","null","",NA,NA,NA,NA,""
"image-keyboard-response",478,370990,"0.0-3.155-2.155","b36wwdhonfca4sc",489,"67.csv","","null","resources/images/coin2.png","null","",NA,NA,NA,NA,""
"image-keyboard-response",479,371241,"0.0-3.156-0.156","b36wwdhonfca4sc",489,"67.csv","","248.39999985694885","resources/trios/L4T2A2.jpg","38","restless",0.3,0.4,0.7,0.572506274569561,"false"
"image-keyboard-response",480,371646,"0.0-3.156-1.156","b36wwdhonfca4sc",489,"67.csv","","null","resources/maskTrios/BT2B.jpg","null","",NA,NA,NA,NA,""
"image-keyboard-response",481,372851,"0.0-3.156-2.156","b36wwdhonfca4sc",489,"67.csv","","null","resources/images/fishbone.png","null","",NA,NA,NA,NA,""
"image-keyboard-response",482,373077,"0.0-3.157-0.157","b36wwdhonfca4sc",489,"67.csv","","223.69999980926514","resources/trios/L2T4A1.jpg","37","restless",0.3,0.4,0.7,0.71568415094049,"false"
"image-keyboard-response",483,373481,"0.0-3.157-1.157","b36wwdhonfca4sc",489,"67.csv","","null","resources/maskTrios/L2BB.jpg","null","",NA,NA,NA,NA,""
"image-keyboard-response",484,374685,"0.0-3.157-2.157","b36wwdhonfca4sc",489,"67.csv","","null","resources/images/fishbone.png","null","",NA,NA,NA,NA,""
"image-keyboard-response",485,374906,"0.0-3.158-0.158","b36wwdhonfca4sc",489,"67.csv","","218.39999985694885","resources/trios/L4T2A2.jpg","38","restless",0.3,0.4,0.7,0.26990066933016,"true"
"image-keyboard-response",486,375310,"0.0-3.158-1.158","b36wwdhonfca4sc",489,"67.csv","","null","resources/maskTrios/BT2B.jpg","null","",NA,NA,NA,NA,""
"image-keyboard-response",487,376513,"0.0-3.158-2.158","b36wwdhonfca4sc",489,"67.csv","","null","resources/images/coin2.png","null","",NA,NA,NA,NA,""
"image-keyboard-response",488,376819,"0.0-3.159-0.159","b36wwdhonfca4sc",489,"67.csv","","303.5","resources/trios/L2T4A1.jpg","38","restless",0.3,0.4,0.6,0.489048693639546,"false"
"image-keyboard-response",489,377226,"0.0-3.159-1.159","b36wwdhonfca4sc",489,"67.csv","","null","resources/maskTrios/BT4B.jpg","null","",NA,NA,NA,NA,""
"image-keyboard-response",490,378432,"0.0-3.159-2.159","b36wwdhonfca4sc",489,"67.csv","","null","resources/images/fishbone.png","null","",NA,NA,NA,NA,""
"image-keyboard-response",491,378820,"0.0-3.160-0.160","b36wwdhonfca4sc",489,"67.csv","","385.30000019073486","resources/trios/L4T2A2.jpg","39","restless",0.3,0.4,0.6,0.254903821366655,"true"
"image-keyboard-response",492,379227,"0.0-3.160-1.160","b36wwdhonfca4sc",489,"67.csv","","null","resources/maskTrios/BBA2.jpg","null","",NA,NA,NA,NA,""
"image-keyboard-response",493,380434,"0.0-3.160-2.160","b36wwdhonfca4sc",489,"67.csv","","null","resources/images/coin2.png","null","",NA,NA,NA,NA,""
"image-keyboard-response",494,380647,"0.0-3.161-0.161","b36wwdhonfca4sc",489,"67.csv","","211.39999985694885","resources/trios/L4T4A1.jpg","39","restless",0.3,0.4,0.6,0.664882965364454,"false"
"image-keyboard-response",495,381055,"0.0-3.161-1.161","b36wwdhonfca4sc",489,"67.csv","","null","resources/maskTrios/BBA1.jpg","null","",NA,NA,NA,NA,""
"image-keyboard-response",496,382262,"0.0-3.161-2.161","b36wwdhonfca4sc",489,"67.csv","","null","resources/images/fishbone.png","null","",NA,NA,NA,NA,""
"image-keyboard-response",497,382556,"0.0-3.162-0.162","b36wwdhonfca4sc",489,"67.csv","","292.7000000476837","resources/trios/L4T2A1.jpg","38","restless",0.4,0.4,0.6,0.322193129623648,"true"
"image-keyboard-response",498,382961,"0.0-3.162-1.162","b36wwdhonfca4sc",489,"67.csv","","null","resources/maskTrios/BT2B.jpg","null","",NA,NA,NA,NA,""
"image-keyboard-response",499,384168,"0.0-3.162-2.162","b36wwdhonfca4sc",489,"67.csv","","null","resources/images/coin2.png","null","",NA,NA,NA,NA,""
"image-keyboard-response",500,384442,"0.0-3.163-0.163","b36wwdhonfca4sc",489,"67.csv","","271.89999985694885","resources/trios/L4T4A2.jpg","38","restless",0.4,0.4,0.6,0.0422415865155352,"true"
"image-keyboard-response",501,384849,"0.0-3.163-1.163","b36wwdhonfca4sc",489,"67.csv","","null","resources/maskTrios/BT4B.jpg","null","",NA,NA,NA,NA,""
"image-keyboard-response",502,386056,"0.0-3.163-2.163","b36wwdhonfca4sc",489,"67.csv","","null","resources/images/coin2.png","null","",NA,NA,NA,NA,""
"image-keyboard-response",503,386311,"0.0-3.164-0.164","b36wwdhonfca4sc",489,"67.csv","","253.10000014305115","resources/trios/L4T2A2.jpg","38","restless",0.4,0.4,0.6,0.298708004544932,"true"
"image-keyboard-response",504,386713,"0.0-3.164-1.164","b36wwdhonfca4sc",489,"67.csv","","null","resources/maskTrios/BT2B.jpg","null","",NA,NA,NA,NA,""
"image-keyboard-response",505,387920,"0.0-3.164-2.164","b36wwdhonfca4sc",489,"67.csv","","null","resources/images/coin2.png","null","",NA,NA,NA,NA,""
"image-keyboard-response",506,388196,"0.0-3.165-0.165","b36wwdhonfca4sc",489,"67.csv","","274.5","resources/trios/L2T4A2.jpg","38","restless",0.4,0.4,0.5,0.926228331173591,"false"
"image-keyboard-response",507,388603,"0.0-3.165-1.165","b36wwdhonfca4sc",489,"67.csv","","null","resources/maskTrios/BT4B.jpg","null","",NA,NA,NA,NA,""
"image-keyboard-response",508,389805,"0.0-3.165-2.165","b36wwdhonfca4sc",489,"67.csv","","null","resources/images/fishbone.png","null","",NA,NA,NA,NA,""
"image-keyboard-response",509,390099,"0.0-3.166-0.166","b36wwdhonfca4sc",489,"67.csv","","292.09999990463257","resources/trios/L2T4A1.jpg","37","restless",0.4,0.4,0.5,0.172860282707179,"true"
"image-keyboard-response",510,390506,"0.0-3.166-1.166","b36wwdhonfca4sc",489,"67.csv","","null","resources/maskTrios/L2BB.jpg","null","",NA,NA,NA,NA,""
"image-keyboard-response",511,391713,"0.0-3.166-2.166","b36wwdhonfca4sc",489,"67.csv","","null","resources/images/coin2.png","null","",NA,NA,NA,NA,""
"image-keyboard-response",512,392030,"0.0-3.167-0.167","b36wwdhonfca4sc",489,"67.csv","","315.40000009536743","resources/trios/L4T2A2.jpg","37","restless",0.4,0.4,0.5,0.421077407001176,"false"
"image-keyboard-response",513,392436,"0.0-3.167-1.167","b36wwdhonfca4sc",489,"67.csv","","null","resources/maskTrios/L4BB.jpg","null","",NA,NA,NA,NA,""
"image-keyboard-response",514,393643,"0.0-3.167-2.167","b36wwdhonfca4sc",489,"67.csv","","null","resources/images/fishbone.png","null","",NA,NA,NA,NA,""
"image-keyboard-response",515,393918,"0.0-3.168-0.168","b36wwdhonfca4sc",489,"67.csv","","273.5","resources/trios/L2T2A1.jpg","39","restless",0.5,0.4,0.5,0.444198337964515,"true"
"image-keyboard-response",516,394325,"0.0-3.168-1.168","b36wwdhonfca4sc",489,"67.csv","","null","resources/maskTrios/BBA1.jpg","null","",NA,NA,NA,NA,""
"image-keyboard-response",517,395529,"0.0-3.168-2.168","b36wwdhonfca4sc",489,"67.csv","","null","resources/images/coin2.png","null","",NA,NA,NA,NA,""
"image-keyboard-response",518,395864,"0.0-3.169-0.169","b36wwdhonfca4sc",489,"67.csv","","333","resources/trios/L2T2A1.jpg","39","restless",0.6,0.4,0.5,0.464277233128959,"true"
"image-keyboard-response",519,396266,"0.0-3.169-1.169","b36wwdhonfca4sc",489,"67.csv","","null","resources/maskTrios/BBA1.jpg","null","",NA,NA,NA,NA,""
"image-keyboard-response",520,397473,"0.0-3.169-2.169","b36wwdhonfca4sc",489,"67.csv","","null","resources/images/coin2.png","null","",NA,NA,NA,NA,""
"image-keyboard-response",521,397648,"0.0-3.170-0.170","b36wwdhonfca4sc",489,"67.csv","","172.30000019073486","resources/trios/L2T4A2.jpg","39","restless",0.6,0.4,0.5,0.0619999928461157,"true"
"image-keyboard-response",522,398055,"0.0-3.170-1.170","b36wwdhonfca4sc",489,"67.csv","","null","resources/maskTrios/BBA2.jpg","null","",NA,NA,NA,NA,""
"image-keyboard-response",523,399262,"0.0-3.170-2.170","b36wwdhonfca4sc",489,"67.csv","","null","resources/images/coin2.png","null","",NA,NA,NA,NA,""
"image-keyboard-response",524,399616,"0.0-3.171-0.171","b36wwdhonfca4sc",489,"67.csv","","351.7000000476837","resources/trios/L2T4A2.jpg","39","restless",0.6,0.4,0.5,0.71048514625144,"false"
"image-keyboard-response",525,400023,"0.0-3.171-1.171","b36wwdhonfca4sc",489,"67.csv","","null","resources/maskTrios/BBA2.jpg","null","",NA,NA,NA,NA,""
"image-keyboard-response",526,401230,"0.0-3.171-2.171","b36wwdhonfca4sc",489,"67.csv","","null","resources/images/fishbone.png","null","",NA,NA,NA,NA,""
"image-keyboard-response",527,402050,"0.0-3.172-0.172","b36wwdhonfca4sc",489,"67.csv","","817.7999999523163","resources/trios/L4T2A2.jpg","38","restless",0.6,0.4,0.4,0.342141141394898,"true"
"image-keyboard-response",528,402457,"0.0-3.172-1.172","b36wwdhonfca4sc",489,"67.csv","","null","resources/maskTrios/BT2B.jpg","null","",NA,NA,NA,NA,""
"image-keyboard-response",529,403664,"0.0-3.172-2.172","b36wwdhonfca4sc",489,"67.csv","","null","resources/images/coin2.png","null","",NA,NA,NA,NA,""
"image-keyboard-response",530,404178,"0.0-3.173-0.173","b36wwdhonfca4sc",489,"67.csv","","512.1000001430511","resources/trios/L4T2A2.jpg","38","restless",0.6,0.4,0.4,0.0491433528076954,"true"
"image-keyboard-response",531,404585,"0.0-3.173-1.173","b36wwdhonfca4sc",489,"67.csv","","null","resources/maskTrios/BT2B.jpg","null","",NA,NA,NA,NA,""
"image-keyboard-response",532,405792,"0.0-3.173-2.173","b36wwdhonfca4sc",489,"67.csv","","null","resources/images/coin2.png","null","",NA,NA,NA,NA,""
"image-keyboard-response",533,406281,"0.0-3.174-0.174","b36wwdhonfca4sc",489,"67.csv","","486.59999990463257","resources/trios/L4T4A2.jpg","38","restless",0.6,0.4,0.3,0.108085313564338,"true"
"image-keyboard-response",534,406688,"0.0-3.174-1.174","b36wwdhonfca4sc",489,"67.csv","","null","resources/maskTrios/BT4B.jpg","null","",NA,NA,NA,NA,""
"image-keyboard-response",535,407895,"0.0-3.174-2.174","b36wwdhonfca4sc",489,"67.csv","","null","resources/images/coin2.png","null","",NA,NA,NA,NA,""
"image-keyboard-response",536,408644,"0.0-3.175-0.175","b36wwdhonfca4sc",489,"67.csv","","746.5","resources/trios/L4T2A2.jpg","38","restless",0.6,0.4,0.3,0.932167882414511,"false"
"image-keyboard-response",537,409051,"0.0-3.175-1.175","b36wwdhonfca4sc",489,"67.csv","","null","resources/maskTrios/BT2B.jpg","null","",NA,NA,NA,NA,""
"image-keyboard-response",538,410258,"0.0-3.175-2.175","b36wwdhonfca4sc",489,"67.csv","","null","resources/images/fishbone.png","null","",NA,NA,NA,NA,""
"image-keyboard-response",539,410585,"0.0-3.176-0.176","b36wwdhonfca4sc",489,"67.csv","","325.89999985694885","resources/trios/L4T2A1.jpg","37","restless",0.6,0.3,0.3,0.961271552835708,"false"
"image-keyboard-response",540,410993,"0.0-3.176-1.176","b36wwdhonfca4sc",489,"67.csv","","null","resources/maskTrios/L4BB.jpg","null","",NA,NA,NA,NA,""
"image-keyboard-response",541,412199,"0.0-3.176-2.176","b36wwdhonfca4sc",489,"67.csv","","null","resources/images/fishbone.png","null","",NA,NA,NA,NA,""
"image-keyboard-response",542,412429,"0.0-3.177-0.177","b36wwdhonfca4sc",489,"67.csv","","227","resources/trios/L2T2A2.jpg","37","restless",0.6,0.3,0.3,0.830895865512814,"false"
"image-keyboard-response",543,412836,"0.0-3.177-1.177","b36wwdhonfca4sc",489,"67.csv","","null","resources/maskTrios/L2BB.jpg","null","",NA,NA,NA,NA,""
"image-keyboard-response",544,414038,"0.0-3.177-2.177","b36wwdhonfca4sc",489,"67.csv","","null","resources/images/fishbone.png","null","",NA,NA,NA,NA,""
"image-keyboard-response",545,414487,"0.0-3.178-0.178","b36wwdhonfca4sc",489,"67.csv","","446.7000000476837","resources/trios/L4T4A2.jpg","38","restless",0.6,0.3,0.3,0.7923562953038,"false"
"image-keyboard-response",546,414894,"0.0-3.178-1.178","b36wwdhonfca4sc",489,"67.csv","","null","resources/maskTrios/BT4B.jpg","null","",NA,NA,NA,NA,""
"image-keyboard-response",547,416101,"0.0-3.178-2.178","b36wwdhonfca4sc",489,"67.csv","","null","resources/images/fishbone.png","null","",NA,NA,NA,NA,""
"image-keyboard-response",548,416344,"0.0-3.179-0.179","b36wwdhonfca4sc",489,"67.csv","","241.70000004768372","resources/trios/L2T4A1.jpg","37","restless",0.6,0.4,0.3,0.660496175987542,"false"
"image-keyboard-response",549,416752,"0.0-3.179-1.179","b36wwdhonfca4sc",489,"67.csv","","null","resources/maskTrios/L2BB.jpg","null","",NA,NA,NA,NA,""
"image-keyboard-response",550,417958,"0.0-3.179-2.179","b36wwdhonfca4sc",489,"67.csv","","null","resources/images/fishbone.png","null","",NA,NA,NA,NA,""
"image-keyboard-response",551,418221,"0.0-3.180-0.180","b36wwdhonfca4sc",489,"67.csv","","260.7000000476837","resources/trios/L4T4A2.jpg","39","restless",0.6,0.4,0.3,0.987816189090679,"false"
"image-keyboard-response",552,418629,"0.0-3.180-1.180","b36wwdhonfca4sc",489,"67.csv","","null","resources/maskTrios/BBA2.jpg","null","",NA,NA,NA,NA,""
"image-keyboard-response",553,419835,"0.0-3.180-2.180","b36wwdhonfca4sc",489,"67.csv","","null","resources/images/fishbone.png","null","",NA,NA,NA,NA,""
"image-keyboard-response",554,420109,"0.0-3.181-0.181","b36wwdhonfca4sc",489,"67.csv","","272","resources/trios/L4T2A2.jpg","38","restless",0.6,0.4,0.3,0.244749043715321,"true"
"image-keyboard-response",555,420516,"0.0-3.181-1.181","b36wwdhonfca4sc",489,"67.csv","","null","resources/maskTrios/BT2B.jpg","null","",NA,NA,NA,NA,""
"image-keyboard-response",556,421723,"0.0-3.181-2.181","b36wwdhonfca4sc",489,"67.csv","","null","resources/images/coin2.png","null","",NA,NA,NA,NA,""
"image-keyboard-response",557,421999,"0.0-3.182-0.182","b36wwdhonfca4sc",489,"67.csv","","273.5","resources/trios/L2T2A2.jpg","38","restless",0.6,0.4,0.3,0.79564850770484,"false"
"image-keyboard-response",558,422406,"0.0-3.182-1.182","b36wwdhonfca4sc",489,"67.csv","","null","resources/maskTrios/BT2B.jpg","null","",NA,NA,NA,NA,""
"image-keyboard-response",559,423613,"0.0-3.182-2.182","b36wwdhonfca4sc",489,"67.csv","","null","resources/images/fishbone.png","null","",NA,NA,NA,NA,""
"image-keyboard-response",560,423819,"0.0-3.183-0.183","b36wwdhonfca4sc",489,"67.csv","","203.89999985694885","resources/trios/L4T2A1.jpg","38","restless",0.6,0.4,0.4,0.150056928430136,"true"
"image-keyboard-response",561,424226,"0.0-3.183-1.183","b36wwdhonfca4sc",489,"67.csv","","null","resources/maskTrios/BT2B.jpg","null","",NA,NA,NA,NA,""
"image-keyboard-response",562,425429,"0.0-3.183-2.183","b36wwdhonfca4sc",489,"67.csv","","null","resources/images/coin2.png","null","",NA,NA,NA,NA,""
"image-keyboard-response",563,425671,"0.0-3.184-0.184","b36wwdhonfca4sc",489,"67.csv","","240.10000014305115","resources/trios/L4T2A1.jpg","38","restless",0.6,0.5,0.4,0.517919136903758,"false"
"image-keyboard-response",564,426078,"0.0-3.184-1.184","b36wwdhonfca4sc",489,"67.csv","","null","resources/maskTrios/BT2B.jpg","null","",NA,NA,NA,NA,""
"image-keyboard-response",565,427285,"0.0-3.184-2.184","b36wwdhonfca4sc",489,"67.csv","","null","resources/images/fishbone.png","null","",NA,NA,NA,NA,""
"image-keyboard-response",566,427548,"0.0-3.185-0.185","b36wwdhonfca4sc",489,"67.csv","","261.30000019073486","resources/trios/L4T2A1.jpg","37","restless",0.6,0.5,0.4,0.00841864837673612,"true"
"image-keyboard-response",567,427950,"0.0-3.185-1.185","b36wwdhonfca4sc",489,"67.csv","","null","resources/maskTrios/L4BB.jpg","null","",NA,NA,NA,NA,""
"image-keyboard-response",568,429157,"0.0-3.185-2.185","b36wwdhonfca4sc",489,"67.csv","","null","resources/images/coin2.png","null","",NA,NA,NA,NA,""
"image-keyboard-response",569,429542,"0.0-3.186-0.186","b36wwdhonfca4sc",489,"67.csv","","382.7999999523163","resources/trios/L2T4A2.jpg","37","restless",0.6,0.5,0.4,0.345354142057074,"true"
"image-keyboard-response",570,429950,"0.0-3.186-1.186","b36wwdhonfca4sc",489,"67.csv","","null","resources/maskTrios/L2BB.jpg","null","",NA,NA,NA,NA,""
"image-keyboard-response",571,431157,"0.0-3.186-2.186","b36wwdhonfca4sc",489,"67.csv","","null","resources/images/coin2.png","null","",NA,NA,NA,NA,""
"image-keyboard-response",572,431470,"0.0-3.187-0.187","b36wwdhonfca4sc",489,"67.csv","","311.59999990463257","resources/trios/L4T2A1.jpg","37","restless",0.6,0.5,0.5,0.0776525074969809,"true"
"image-keyboard-response",573,431877,"0.0-3.187-1.187","b36wwdhonfca4sc",489,"67.csv","","null","resources/maskTrios/L4BB.jpg","null","",NA,NA,NA,NA,""
"image-keyboard-response",574,433084,"0.0-3.187-2.187","b36wwdhonfca4sc",489,"67.csv","","null","resources/images/coin2.png","null","",NA,NA,NA,NA,""
"image-keyboard-response",575,433374,"0.0-3.188-0.188","b36wwdhonfca4sc",489,"67.csv","","287.7999999523163","resources/trios/L2T4A2.jpg","37","restless",0.6,0.5,0.5,0.728010819986261,"false"
"image-keyboard-response",576,433779,"0.0-3.188-1.188","b36wwdhonfca4sc",489,"67.csv","","null","resources/maskTrios/L2BB.jpg","null","",NA,NA,NA,NA,""
"image-keyboard-response",577,434986,"0.0-3.188-2.188","b36wwdhonfca4sc",489,"67.csv","","null","resources/images/fishbone.png","null","",NA,NA,NA,NA,""
"image-keyboard-response",578,435313,"0.0-3.189-0.189","b36wwdhonfca4sc",489,"67.csv","","325.2000000476837","resources/trios/L2T2A2.jpg","39","restless",0.6,0.5,0.5,0.98860761624183,"false"
"image-keyboard-response",579,435718,"0.0-3.189-1.189","b36wwdhonfca4sc",489,"67.csv","","null","resources/maskTrios/BBA2.jpg","null","",NA,NA,NA,NA,""
"image-keyboard-response",580,436920,"0.0-3.189-2.189","b36wwdhonfca4sc",489,"67.csv","","null","resources/images/fishbone.png","null","",NA,NA,NA,NA,""
"image-keyboard-response",581,437239,"0.0-3.190-0.190","b36wwdhonfca4sc",489,"67.csv","","316.5","resources/trios/L2T4A1.jpg","38","restless",0.6,0.5,0.5,0.759557943828085,"false"
"image-keyboard-response",582,437647,"0.0-3.190-1.190","b36wwdhonfca4sc",489,"67.csv","","null","resources/maskTrios/BT4B.jpg","null","",NA,NA,NA,NA,""
"image-keyboard-response",583,438853,"0.0-3.190-2.190","b36wwdhonfca4sc",489,"67.csv","","null","resources/images/fishbone.png","null","",NA,NA,NA,NA,""
"image-keyboard-response",584,439201,"0.0-3.191-0.191","b36wwdhonfca4sc",489,"67.csv","","345.5","resources/trios/L4T4A1.jpg","39","restless",0.6,0.5,0.5,0.137138075267307,"true"
"image-keyboard-response",585,439608,"0.0-3.191-1.191","b36wwdhonfca4sc",489,"67.csv","","null","resources/maskTrios/BBA1.jpg","null","",NA,NA,NA,NA,""
"image-keyboard-response",586,440815,"0.0-3.191-2.191","b36wwdhonfca4sc",489,"67.csv","","null","resources/images/coin2.png","null","",NA,NA,NA,NA,""
"image-keyboard-response",587,441140,"0.0-3.192-0.192","b36wwdhonfca4sc",489,"67.csv","","322.7000000476837","resources/trios/L4T4A1.jpg","39","restless",0.6,0.5,0.5,0.311498890428569,"true"
"image-keyboard-response",588,441548,"0.0-3.192-1.192","b36wwdhonfca4sc",489,"67.csv","","null","resources/maskTrios/BBA1.jpg","null","",NA,NA,NA,NA,""
"image-keyboard-response",589,442752,"0.0-3.192-2.192","b36wwdhonfca4sc",489,"67.csv","","null","resources/images/coin2.png","null","",NA,NA,NA,NA,""
"image-keyboard-response",590,443033,"0.0-3.193-0.193","b36wwdhonfca4sc",489,"67.csv","","278.39999985694885","resources/trios/L2T4A2.jpg","39","restless",0.6,0.5,0.5,0.341208199111776,"true"
"image-keyboard-response",591,443440,"0.0-3.193-1.193","b36wwdhonfca4sc",489,"67.csv","","null","resources/maskTrios/BBA2.jpg","null","",NA,NA,NA,NA,""
"image-keyboard-response",592,444647,"0.0-3.193-2.193","b36wwdhonfca4sc",489,"67.csv","","null","resources/images/coin2.png","null","",NA,NA,NA,NA,""
"image-keyboard-response",593,444955,"0.0-3.194-0.194","b36wwdhonfca4sc",489,"67.csv","","305.59999990463257","resources/trios/L2T4A2.jpg","39","restless",0.6,0.5,0.5,0.265808196985253,"true"
"image-keyboard-response",594,445361,"0.0-3.194-1.194","b36wwdhonfca4sc",489,"67.csv","","null","resources/maskTrios/BBA2.jpg","null","",NA,NA,NA,NA,""
"image-keyboard-response",595,446568,"0.0-3.194-2.194","b36wwdhonfca4sc",489,"67.csv","","null","resources/images/coin2.png","null","",NA,NA,NA,NA,""
"image-keyboard-response",596,446841,"0.0-3.195-0.195","b36wwdhonfca4sc",489,"67.csv","","270.7999999523163","resources/trios/L2T4A1.jpg","39","restless",0.6,0.5,0.6,0.241644569647963,"true"
"image-keyboard-response",597,447246,"0.0-3.195-1.195","b36wwdhonfca4sc",489,"67.csv","","null","resources/maskTrios/BBA1.jpg","null","",NA,NA,NA,NA,""
"image-keyboard-response",598,448452,"0.0-3.195-2.195","b36wwdhonfca4sc",489,"67.csv","","null","resources/images/coin2.png","null","",NA,NA,NA,NA,""
"image-keyboard-response",599,448943,"0.0-3.196-0.196","b36wwdhonfca4sc",489,"67.csv","","489.09999990463257","resources/trios/L4T4A2.jpg","39","restless",0.6,0.5,0.6,0.683909160686266,"false"
"image-keyboard-response",600,449350,"0.0-3.196-1.196","b36wwdhonfca4sc",489,"67.csv","","null","resources/maskTrios/BBA2.jpg","null","",NA,NA,NA,NA,""
"image-keyboard-response",601,450556,"0.0-3.196-2.196","b36wwdhonfca4sc",489,"67.csv","","null","resources/images/fishbone.png","null","",NA,NA,NA,NA,""
"image-keyboard-response",602,450597,"0.0-3.197-0.197","b36wwdhonfca4sc",489,"67.csv","","39.39999985694885","resources/trios/L2T2A1.jpg","38","restless",0.6,0.5,0.6,0.322859204671088,"true"
"image-keyboard-response",603,451004,"0.0-3.197-1.197","b36wwdhonfca4sc",489,"67.csv","","null","resources/maskTrios/BT2B.jpg","null","",NA,NA,NA,NA,""
"image-keyboard-response",604,452211,"0.0-3.197-2.197","b36wwdhonfca4sc",489,"67.csv","","null","resources/images/coin2.png","null","",NA,NA,NA,NA,""
"image-keyboard-response",605,452438,"0.0-3.198-0.198","b36wwdhonfca4sc",489,"67.csv","","225.20000004768372","resources/trios/L2T2A1.jpg","38","restless",0.6,0.5,0.7,0.567327306290187,"false"
"image-keyboard-response",606,452844,"0.0-3.198-1.198","b36wwdhonfca4sc",489,"67.csv","","null","resources/maskTrios/BT2B.jpg","null","",NA,NA,NA,NA,""
"image-keyboard-response",607,454051,"0.0-3.198-2.198","b36wwdhonfca4sc",489,"67.csv","","null","resources/images/fishbone.png","null","",NA,NA,NA,NA,""
"image-keyboard-response",608,454362,"0.0-3.199-0.199","b36wwdhonfca4sc",489,"67.csv","","308.7000000476837","resources/trios/L4T2A1.jpg","37","restless",0.6,0.5,0.7,0.338798867638391,"true"
