"trial_type","trial_index","time_elapsed","internal_node_id","subject","participantCode","walkNumber","success","rt","stimulus","key_press","test_part","leftProb","midProb","rightProb","generatedNum","correct"
"pavlovia",0,1051,"0.0-0.0","u552802wfx9abn1",349,"87.csv","","","","","",NA,NA,NA,NA,""
"fullscreen",1,4744,"0.0-1.0","u552802wfx9abn1",349,"87.csv","true","","","","",NA,NA,NA,NA,""
"html-keyboard-response",2,9680,"0.0-2.0-0.0","u552802wfx9abn1",349,"87.csv","","4934","<p><font size='6'>Arrrgh!</p></font><p>Can you be the best pirate? Try to find lots of gold! But beware, some islands have more gold than others, and over time, the island with the most gold may change. Can YOU figure it out? </p><font size='6'>GOOD LUCK, CAPTAIN!!!</font><p>Press any key to begin</p>","32","",NA,NA,NA,NA,""
"image-keyboard-response",3,12689,"0.0-2.0-1.0","u552802wfx9abn1",349,"87.csv","","null","resources/image_sets/111.png","null","",NA,NA,NA,NA,""
"image-keyboard-response",4,16635,"0.0-2.0-2.0","u552802wfx9abn1",349,"87.csv","","3943.7000000476837","resources/image_sets/left_highlight.png","37","",NA,NA,NA,NA,""
"image-keyboard-response",5,20980,"0.0-2.0-3.0","u552802wfx9abn1",349,"87.csv","","4343.700000047684","resources/image_sets/mid_highlight.png","38","",NA,NA,NA,NA,""
"image-keyboard-response",6,21274,"0.0-2.0-4.0","u552802wfx9abn1",349,"87.csv","","291.90000009536743","resources/image_sets/right_highlight.png","39","",NA,NA,NA,NA,""
"image-keyboard-response",7,28814,"0.0-2.0-5.0","u552802wfx9abn1",349,"87.csv","","7537.399999856949","resources/image_sets/111.png","13","",NA,NA,NA,NA,""
"image-keyboard-response",8,31522,"0.0-2.0-6.0","u552802wfx9abn1",349,"87.csv","","2706.0999999046326","resources/images/coin2.png","13","",NA,NA,NA,NA,""
"image-keyboard-response",9,33053,"0.0-2.0-7.0","u552802wfx9abn1",349,"87.csv","","1529.5","resources/images/fishbone.png","13","",NA,NA,NA,NA,""
"html-keyboard-response",10,33897,"0.0-2.0-8.0","u552802wfx9abn1",349,"87.csv","","841.9000000953674","<p>Your first journey will be a long one, but you will get a well deserved break at the end</p><p>After the break you will have four more journeys, but each will be much shorter than the first, and you will have breaks in between each</p><p>Press Enter to begin</p>","13","",NA,NA,NA,NA,""
"image-keyboard-response",11,35469,"0.0-3.0-0.0","u552802wfx9abn1",349,"87.csv","","1568.5","resources/trios/L4T1A2.jpg","39","restless",0.9,0.3,0.7,0.0266819636673132,"true"
"image-keyboard-response",12,35891,"0.0-3.0-1.0","u552802wfx9abn1",349,"87.csv","","null","resources/maskTrios/BBA2.jpg","null","",NA,NA,NA,NA,""
"image-keyboard-response",13,37115,"0.0-3.0-2.0","u552802wfx9abn1",349,"87.csv","","null","resources/images/coin2.png","null","",NA,NA,NA,NA,""
"image-keyboard-response",14,37719,"0.0-3.1-0.1","u552802wfx9abn1",349,"87.csv","","602.6999998092651","resources/trios/L1T2A3.jpg","37","restless",0.9,0.3,0.7,0.149130612455454,"true"
"image-keyboard-response",15,38125,"0.0-3.1-1.1","u552802wfx9abn1",349,"87.csv","","null","resources/maskTrios/L1BB.jpg","null","",NA,NA,NA,NA,""
"image-keyboard-response",16,39340,"0.0-3.1-2.1","u552802wfx9abn1",349,"87.csv","","null","resources/images/coin2.png","null","",NA,NA,NA,NA,""
"image-keyboard-response",17,39922,"0.0-3.2-0.2","u552802wfx9abn1",349,"87.csv","","579.2999999523163","resources/trios/L1T2A3.jpg","37","restless",0.9,0.3,0.7,0.0306070063495087,"true"
"image-keyboard-response",18,40339,"0.0-3.2-1.2","u552802wfx9abn1",349,"87.csv","","null","resources/maskTrios/L1BB.jpg","null","",NA,NA,NA,NA,""
"image-keyboard-response",19,41562,"0.0-3.2-2.2","u552802wfx9abn1",349,"87.csv","","null","resources/images/coin2.png","null","",NA,NA,NA,NA,""
"image-keyboard-response",20,41912,"0.0-3.3-0.3","u552802wfx9abn1",349,"87.csv","","346.7000000476837","resources/trios/L4T2A3.jpg","37","restless",0.9,0.3,0.7,0.564837945847594,"true"
"image-keyboard-response",21,42324,"0.0-3.3-1.3","u552802wfx9abn1",349,"87.csv","","null","resources/maskTrios/L4BB.jpg","null","",NA,NA,NA,NA,""
"image-keyboard-response",22,43543,"0.0-3.3-2.3","u552802wfx9abn1",349,"87.csv","","null","resources/images/coin2.png","null","",NA,NA,NA,NA,""
"image-keyboard-response",23,43893,"0.0-3.4-0.4","u552802wfx9abn1",349,"87.csv","","347.10000014305115","resources/trios/L1T1A3.jpg","37","restless",0.8,0.3,0.7,0.600017591772226,"true"
"image-keyboard-response",24,44310,"0.0-3.4-1.4","u552802wfx9abn1",349,"87.csv","","null","resources/maskTrios/L1BB.jpg","null","",NA,NA,NA,NA,""
"image-keyboard-response",25,45526,"0.0-3.4-2.4","u552802wfx9abn1",349,"87.csv","","null","resources/images/coin2.png","null","",NA,NA,NA,NA,""
"image-keyboard-response",26,45821,"0.0-3.5-0.5","u552802wfx9abn1",349,"87.csv","","291.7000000476837","resources/trios/L1T2A2.jpg","37","restless",0.8,0.3,0.7,0.877062362226831,"false"
"image-keyboard-response",27,46238,"0.0-3.5-1.5","u552802wfx9abn1",349,"87.csv","","null","resources/maskTrios/L1BB.jpg","null","",NA,NA,NA,NA,""
"image-keyboard-response",28,47444,"0.0-3.5-2.5","u552802wfx9abn1",349,"87.csv","","null","resources/images/fishbone.png","null","",NA,NA,NA,NA,""
"image-keyboard-response",29,48036,"0.0-3.6-0.6","u552802wfx9abn1",349,"87.csv","","589.2000000476837","resources/trios/L4T1A3.jpg","38","restless",0.8,0.3,0.7,0.258315609426539,"true"
"image-keyboard-response",30,48456,"0.0-3.6-1.6","u552802wfx9abn1",349,"87.csv","","null","resources/maskTrios/BT1B.jpg","null","",NA,NA,NA,NA,""
"image-keyboard-response",31,49661,"0.0-3.6-2.6","u552802wfx9abn1",349,"87.csv","","null","resources/images/coin2.png","null","",NA,NA,NA,NA,""
"image-keyboard-response",32,49896,"0.0-3.7-0.7","u552802wfx9abn1",349,"87.csv","","232.79999995231628","resources/trios/L4T1A3.jpg","38","restless",0.8,0.3,0.7,0.947195707860449,"false"
"image-keyboard-response",33,50305,"0.0-3.7-1.7","u552802wfx9abn1",349,"87.csv","","null","resources/maskTrios/BT1B.jpg","null","",NA,NA,NA,NA,""
"image-keyboard-response",34,51508,"0.0-3.7-2.7","u552802wfx9abn1",349,"87.csv","","null","resources/images/fishbone.png","null","",NA,NA,NA,NA,""
"image-keyboard-response",35,51793,"0.0-3.8-0.8","u552802wfx9abn1",349,"87.csv","","283","resources/trios/L1T2A2.jpg","39","restless",0.7,0.3,0.7,0.679107840261151,"true"
"image-keyboard-response",36,52216,"0.0-3.8-1.8","u552802wfx9abn1",349,"87.csv","","null","resources/maskTrios/BBA2.jpg","null","",NA,NA,NA,NA,""
"image-keyboard-response",37,53436,"0.0-3.8-2.8","u552802wfx9abn1",349,"87.csv","","null","resources/images/coin2.png","null","",NA,NA,NA,NA,""
"image-keyboard-response",38,53704,"0.0-3.9-0.9","u552802wfx9abn1",349,"87.csv","","264.7999999523163","resources/trios/L1T2A2.jpg","39","restless",0.7,0.3,0.7,0.545653346626877,"true"
"image-keyboard-response",39,54123,"0.0-3.9-1.9","u552802wfx9abn1",349,"87.csv","","null","resources/maskTrios/BBA2.jpg","null","",NA,NA,NA,NA,""
"image-keyboard-response",40,55336,"0.0-3.9-2.9","u552802wfx9abn1",349,"87.csv","","null","resources/images/coin2.png","null","",NA,NA,NA,NA,""
"image-keyboard-response",41,55578,"0.0-3.10-0.10","u552802wfx9abn1",349,"87.csv","","239.5","resources/trios/L1T1A3.jpg","39","restless",0.7,0.3,0.7,0.729276231587799,"false"
"image-keyboard-response",42,55985,"0.0-3.10-1.10","u552802wfx9abn1",349,"87.csv","","null","resources/maskTrios/BBA3.jpg","null","",NA,NA,NA,NA,""
"image-keyboard-response",43,57202,"0.0-3.10-2.10","u552802wfx9abn1",349,"87.csv","","null","resources/images/fishbone.png","null","",NA,NA,NA,NA,""
"image-keyboard-response",44,57749,"0.0-3.11-0.11","u552802wfx9abn1",349,"87.csv","","544.2000000476837","resources/trios/L1T1A3.jpg","38","restless",0.7,0.3,0.7,0.763321070005476,"false"
"image-keyboard-response",45,58172,"0.0-3.11-1.11","u552802wfx9abn1",349,"87.csv","","null","resources/maskTrios/BT1B.jpg","null","",NA,NA,NA,NA,""
"image-keyboard-response",46,59385,"0.0-3.11-2.11","u552802wfx9abn1",349,"87.csv","","null","resources/images/fishbone.png","null","",NA,NA,NA,NA,""
"image-keyboard-response",47,59937,"0.0-3.12-0.12","u552802wfx9abn1",349,"87.csv","","548.9000000953674","resources/trios/L4T1A3.jpg","39","restless",0.7,0.3,0.8,0.733021812998692,"true"
"image-keyboard-response",48,60355,"0.0-3.12-1.12","u552802wfx9abn1",349,"87.csv","","null","resources/maskTrios/BBA3.jpg","null","",NA,NA,NA,NA,""
"image-keyboard-response",49,61561,"0.0-3.12-2.12","u552802wfx9abn1",349,"87.csv","","null","resources/images/coin2.png","null","",NA,NA,NA,NA,""
"image-keyboard-response",50,61878,"0.0-3.13-0.13","u552802wfx9abn1",349,"87.csv","","313.5","resources/trios/L1T1A2.jpg","39","restless",0.7,0.3,0.8,0.8151486015532,"false"
"image-keyboard-response",51,62297,"0.0-3.13-1.13","u552802wfx9abn1",349,"87.csv","","null","resources/maskTrios/BBA2.jpg","null","",NA,NA,NA,NA,""
"image-keyboard-response",52,63519,"0.0-3.13-2.13","u552802wfx9abn1",349,"87.csv","","null","resources/images/fishbone.png","null","",NA,NA,NA,NA,""
"image-keyboard-response",53,63760,"0.0-3.14-0.14","u552802wfx9abn1",349,"87.csv","","237.90000009536743","resources/trios/L1T2A2.jpg","38","restless",0.7,0.3,0.9,0.180064771583075,"true"
"image-keyboard-response",54,64172,"0.0-3.14-1.14","u552802wfx9abn1",349,"87.csv","","null","resources/maskTrios/BT2B.jpg","null","",NA,NA,NA,NA,""
"image-keyboard-response",55,65386,"0.0-3.14-2.14","u552802wfx9abn1",349,"87.csv","","null","resources/images/coin2.png","null","",NA,NA,NA,NA,""
"image-keyboard-response",56,65559,"0.0-3.15-0.15","u552802wfx9abn1",349,"87.csv","","169.89999985694885","resources/trios/L1T1A3.jpg","38","restless",0.6,0.3,0.8,0.363600629832466,"false"
"image-keyboard-response",57,65976,"0.0-3.15-1.15","u552802wfx9abn1",349,"87.csv","","null","resources/maskTrios/BT1B.jpg","null","",NA,NA,NA,NA,""
"image-keyboard-response",58,67197,"0.0-3.15-2.15","u552802wfx9abn1",349,"87.csv","","null","resources/images/fishbone.png","null","",NA,NA,NA,NA,""
"image-keyboard-response",59,67615,"0.0-3.16-0.16","u552802wfx9abn1",349,"87.csv","","415.30000019073486","resources/trios/L1T2A2.jpg","37","restless",0.6,0.3,0.8,0.408512601047072,"true"
"image-keyboard-response",60,68037,"0.0-3.16-1.16","u552802wfx9abn1",349,"87.csv","","null","resources/maskTrios/L1BB.jpg","null","",NA,NA,NA,NA,""
"image-keyboard-response",61,69250,"0.0-3.16-2.16","u552802wfx9abn1",349,"87.csv","","null","resources/images/coin2.png","null","",NA,NA,NA,NA,""
"image-keyboard-response",62,70912,"0.0-3.17-0.17","u552802wfx9abn1",349,"87.csv","","1658.2999999523163","resources/trios/L4T2A2.jpg","37","restless",0.6,0.3,0.8,0.234653227479259,"true"
"image-keyboard-response",63,71320,"0.0-3.17-1.17","u552802wfx9abn1",349,"87.csv","","null","resources/maskTrios/L4BB.jpg","null","",NA,NA,NA,NA,""
"image-keyboard-response",64,72542,"0.0-3.17-2.17","u552802wfx9abn1",349,"87.csv","","null","resources/images/coin2.png","null","",NA,NA,NA,NA,""
"image-keyboard-response",65,76850,"0.0-3.18-0.18","u552802wfx9abn1",349,"87.csv","","4305.200000047684","resources/trios/L1T2A2.jpg","37","restless",0.6,0.3,0.8,0.141843456059263,"true"
"image-keyboard-response",66,77260,"0.0-3.18-1.18","u552802wfx9abn1",349,"87.csv","","null","resources/maskTrios/L1BB.jpg","null","",NA,NA,NA,NA,""
"image-keyboard-response",67,78466,"0.0-3.18-2.18","u552802wfx9abn1",349,"87.csv","","null","resources/images/coin2.png","null","",NA,NA,NA,NA,""
"image-keyboard-response",68,79001,"0.0-3.19-0.19","u552802wfx9abn1",349,"87.csv","","532.5","resources/trios/L4T2A3.jpg","37","restless",0.6,0.3,0.7,0.318123807680063,"true"
"image-keyboard-response",69,79418,"0.0-3.19-1.19","u552802wfx9abn1",349,"87.csv","","null","resources/maskTrios/L4BB.jpg","null","",NA,NA,NA,NA,""
"image-keyboard-response",70,80631,"0.0-3.19-2.19","u552802wfx9abn1",349,"87.csv","","null","resources/images/coin2.png","null","",NA,NA,NA,NA,""
"image-keyboard-response",71,80900,"0.0-3.20-0.20","u552802wfx9abn1",349,"87.csv","","265.60000014305115","resources/trios/L1T2A2.jpg","37","restless",0.6,0.3,0.7,0.312950549075378,"true"
"image-keyboard-response",72,81317,"0.0-3.20-1.20","u552802wfx9abn1",349,"87.csv","","null","resources/maskTrios/L1BB.jpg","null","",NA,NA,NA,NA,""
"image-keyboard-response",73,82530,"0.0-3.20-2.20","u552802wfx9abn1",349,"87.csv","","null","resources/images/coin2.png","null","",NA,NA,NA,NA,""
"image-keyboard-response",74,82823,"0.0-3.21-0.21","u552802wfx9abn1",349,"87.csv","","290","resources/trios/L1T2A2.jpg","37","restless",0.6,0.3,0.7,0.729297609066352,"false"
"image-keyboard-response",75,83243,"0.0-3.21-1.21","u552802wfx9abn1",349,"87.csv","","null","resources/maskTrios/L1BB.jpg","null","",NA,NA,NA,NA,""
"image-keyboard-response",76,84450,"0.0-3.21-2.21","u552802wfx9abn1",349,"87.csv","","null","resources/images/fishbone.png","null","",NA,NA,NA,NA,""
"image-keyboard-response",77,86833,"0.0-3.22-0.22","u552802wfx9abn1",349,"87.csv","","2381","resources/trios/L1T1A3.jpg","38","restless",0.6,0.3,0.7,0.509856989329479,"false"
"image-keyboard-response",78,87250,"0.0-3.22-1.22","u552802wfx9abn1",349,"87.csv","","null","resources/maskTrios/BT1B.jpg","null","",NA,NA,NA,NA,""
"image-keyboard-response",79,88462,"0.0-3.22-2.22","u552802wfx9abn1",349,"87.csv","","null","resources/images/fishbone.png","null","",NA,NA,NA,NA,""
"image-keyboard-response",80,109145,"0.0-3.23-0.23","u552802wfx9abn1",349,"87.csv","","20680.199999809265","resources/trios/L4T1A3.jpg","38","restless",0.6,0.2,0.7,0.716174360718688,"false"
"image-keyboard-response",81,109562,"0.0-3.23-1.23","u552802wfx9abn1",349,"87.csv","","null","resources/maskTrios/BT1B.jpg","null","",NA,NA,NA,NA,""
"image-keyboard-response",82,110782,"0.0-3.23-2.23","u552802wfx9abn1",349,"87.csv","","null","resources/images/fishbone.png","null","",NA,NA,NA,NA,""
"image-keyboard-response",83,111720,"0.0-3.24-0.24","u552802wfx9abn1",349,"87.csv","","935.0999999046326","resources/trios/L1T1A3.jpg","39","restless",0.6,0.2,0.7,0.633627338526126,"true"
"image-keyboard-response",84,112130,"0.0-3.24-1.24","u552802wfx9abn1",349,"87.csv","","null","resources/maskTrios/BBA3.jpg","null","",NA,NA,NA,NA,""
"image-keyboard-response",85,113344,"0.0-3.24-2.24","u552802wfx9abn1",349,"87.csv","","null","resources/images/coin2.png","null","",NA,NA,NA,NA,""
"image-keyboard-response",86,114064,"0.0-3.25-0.25","u552802wfx9abn1",349,"87.csv","","716.9000000953674","resources/trios/L1T1A3.jpg","39","restless",0.6,0.2,0.7,0.951994422340188,"false"
"image-keyboard-response",87,114481,"0.0-3.25-1.25","u552802wfx9abn1",349,"87.csv","","null","resources/maskTrios/BBA3.jpg","null","",NA,NA,NA,NA,""
"image-keyboard-response",88,115697,"0.0-3.25-2.25","u552802wfx9abn1",349,"87.csv","","null","resources/images/fishbone.png","null","",NA,NA,NA,NA,""
"image-keyboard-response",89,115867,"0.0-3.26-0.26","u552802wfx9abn1",349,"87.csv","","167.60000014305115","resources/trios/L1T2A3.jpg","37","restless",0.6,0.2,0.7,0.950322511175446,"false"
"image-keyboard-response",90,116278,"0.0-3.26-1.26","u552802wfx9abn1",349,"87.csv","","null","resources/maskTrios/L1BB.jpg","null","",NA,NA,NA,NA,""
"image-keyboard-response",91,117482,"0.0-3.26-2.26","u552802wfx9abn1",349,"87.csv","","null","resources/images/fishbone.png","null","",NA,NA,NA,NA,""
"image-keyboard-response",92,118073,"0.0-3.27-0.27","u552802wfx9abn1",349,"87.csv","","588.2000000476837","resources/trios/L1T1A2.jpg","38","restless",0.7,0.2,0.7,0.902644328202195,"false"
"image-keyboard-response",93,118494,"0.0-3.27-1.27","u552802wfx9abn1",349,"87.csv","","null","resources/maskTrios/BT1B.jpg","null","",NA,NA,NA,NA,""
"image-keyboard-response",94,119707,"0.0-3.27-2.27","u552802wfx9abn1",349,"87.csv","","null","resources/images/fishbone.png","null","",NA,NA,NA,NA,""
"image-keyboard-response",95,119993,"0.0-3.28-0.28","u552802wfx9abn1",349,"87.csv","","283","resources/trios/L1T1A3.jpg","37","restless",0.7,0.1,0.7,0.441574913096138,"true"
"image-keyboard-response",96,120410,"0.0-3.28-1.28","u552802wfx9abn1",349,"87.csv","","null","resources/maskTrios/L1BB.jpg","null","",NA,NA,NA,NA,""
"image-keyboard-response",97,121624,"0.0-3.28-2.28","u552802wfx9abn1",349,"87.csv","","null","resources/images/coin2.png","null","",NA,NA,NA,NA,""
"image-keyboard-response",98,121753,"0.0-3.29-0.29","u552802wfx9abn1",349,"87.csv","","126.40000009536743","resources/trios/L4T1A3.jpg","37","restless",0.7,0.1,0.7,0.747487665212694,"false"
"image-keyboard-response",99,122162,"0.0-3.29-1.29","u552802wfx9abn1",349,"87.csv","","null","resources/maskTrios/L4BB.jpg","null","",NA,NA,NA,NA,""
"image-keyboard-response",100,123376,"0.0-3.29-2.29","u552802wfx9abn1",349,"87.csv","","null","resources/images/fishbone.png","null","",NA,NA,NA,NA,""
"image-keyboard-response",101,123557,"0.0-3.30-0.30","u552802wfx9abn1",349,"87.csv","","177.59999990463257","resources/trios/L4T2A2.jpg","38","restless",0.7,0.2,0.7,0.989549397620818,"false"
"image-keyboard-response",102,123981,"0.0-3.30-1.30","u552802wfx9abn1",349,"87.csv","","null","resources/maskTrios/BT2B.jpg","null","",NA,NA,NA,NA,""
"image-keyboard-response",103,125190,"0.0-3.30-2.30","u552802wfx9abn1",349,"87.csv","","null","resources/images/fishbone.png","null","",NA,NA,NA,NA,""
"image-keyboard-response",104,125315,"0.0-3.31-0.31","u552802wfx9abn1",349,"87.csv","","121.10000014305115","resources/trios/L4T1A2.jpg","39","restless",0.7,0.3,0.6,0.775587892283755,"false"
"image-keyboard-response",105,125733,"0.0-3.31-1.31","u552802wfx9abn1",349,"87.csv","","null","resources/maskTrios/BBA2.jpg","null","",NA,NA,NA,NA,""
"image-keyboard-response",106,126953,"0.0-3.31-2.31","u552802wfx9abn1",349,"87.csv","","null","resources/images/fishbone.png","null","",NA,NA,NA,NA,""
"image-keyboard-response",107,127239,"0.0-3.32-0.32","u552802wfx9abn1",349,"87.csv","","283","resources/trios/L4T1A3.jpg","39","restless",0.7,0.3,0.5,0.198979405070887,"true"
"image-keyboard-response",108,127658,"0.0-3.32-1.32","u552802wfx9abn1",349,"87.csv","","null","resources/maskTrios/BBA3.jpg","null","",NA,NA,NA,NA,""
"image-keyboard-response",109,128876,"0.0-3.32-2.32","u552802wfx9abn1",349,"87.csv","","null","resources/images/coin2.png","null","",NA,NA,NA,NA,""
"image-keyboard-response",110,129239,"0.0-3.33-0.33","u552802wfx9abn1",349,"87.csv","","360.5","resources/trios/L1T2A2.jpg","39","restless",0.7,0.3,0.5,0.367021962829088,"true"
"image-keyboard-response",111,129658,"0.0-3.33-1.33","u552802wfx9abn1",349,"87.csv","","null","resources/maskTrios/BBA2.jpg","null","",NA,NA,NA,NA,""
"image-keyboard-response",112,130864,"0.0-3.33-2.33","u552802wfx9abn1",349,"87.csv","","null","resources/images/coin2.png","null","",NA,NA,NA,NA,""
"image-keyboard-response",113,130997,"0.0-3.34-0.34","u552802wfx9abn1",349,"87.csv","","130","resources/trios/L4T1A3.jpg","39","restless",0.7,0.3,0.5,0.47219275536898,"true"
"image-keyboard-response",114,131414,"0.0-3.34-1.34","u552802wfx9abn1",349,"87.csv","","null","resources/maskTrios/BBA3.jpg","null","",NA,NA,NA,NA,""
"image-keyboard-response",115,132637,"0.0-3.34-2.34","u552802wfx9abn1",349,"87.csv","","null","resources/images/coin2.png","null","",NA,NA,NA,NA,""
"image-keyboard-response",116,132807,"0.0-3.35-0.35","u552802wfx9abn1",349,"87.csv","","168","resources/trios/L1T2A3.jpg","39","restless",0.6,0.3,0.5,0.697190505314501,"false"
"image-keyboard-response",117,133224,"0.0-3.35-1.35","u552802wfx9abn1",349,"87.csv","","null","resources/maskTrios/BBA3.jpg","null","",NA,NA,NA,NA,""
"image-keyboard-response",118,134438,"0.0-3.35-2.35","u552802wfx9abn1",349,"87.csv","","null","resources/images/fishbone.png","null","",NA,NA,NA,NA,""
"image-keyboard-response",119,134681,"0.0-3.36-0.36","u552802wfx9abn1",349,"87.csv","","240","resources/trios/L1T1A3.jpg","38","restless",0.6,0.3,0.5,0.474894703732111,"false"
"image-keyboard-response",120,135098,"0.0-3.36-1.36","u552802wfx9abn1",349,"87.csv","","null","resources/maskTrios/BT1B.jpg","null","",NA,NA,NA,NA,""
"image-keyboard-response",121,136312,"0.0-3.36-2.36","u552802wfx9abn1",349,"87.csv","","null","resources/images/fishbone.png","null","",NA,NA,NA,NA,""
"image-keyboard-response",122,138181,"0.0-3.37-0.37","u552802wfx9abn1",349,"87.csv","","1866.2999999523163","resources/trios/L4T2A2.jpg","38","restless",0.6,0.3,0.5,0.905463953915805,"false"
"image-keyboard-response",123,138606,"0.0-3.37-1.37","u552802wfx9abn1",349,"87.csv","","null","resources/maskTrios/BT2B.jpg","null","",NA,NA,NA,NA,""
"image-keyboard-response",124,139820,"0.0-3.37-2.37","u552802wfx9abn1",349,"87.csv","","null","resources/images/fishbone.png","null","",NA,NA,NA,NA,""
"image-keyboard-response",125,140153,"0.0-3.38-0.38","u552802wfx9abn1",349,"87.csv","","330.7000000476837","resources/trios/L4T1A3.jpg","38","restless",0.6,0.3,0.5,0.793277137838558,"false"
"image-keyboard-response",126,140572,"0.0-3.38-1.38","u552802wfx9abn1",349,"87.csv","","null","resources/maskTrios/BT1B.jpg","null","",NA,NA,NA,NA,""
"image-keyboard-response",127,141787,"0.0-3.38-2.38","u552802wfx9abn1",349,"87.csv","","null","resources/images/fishbone.png","null","",NA,NA,NA,NA,""
"image-keyboard-response",128,142008,"0.0-3.39-0.39","u552802wfx9abn1",349,"87.csv","","218.29999995231628","resources/trios/L4T2A2.jpg","38","restless",0.6,0.3,0.5,0.0918933656784697,"true"
"image-keyboard-response",129,142421,"0.0-3.39-1.39","u552802wfx9abn1",349,"87.csv","","null","resources/maskTrios/BT2B.jpg","null","",NA,NA,NA,NA,""
"image-keyboard-response",130,143635,"0.0-3.39-2.39","u552802wfx9abn1",349,"87.csv","","null","resources/images/coin2.png","null","",NA,NA,NA,NA,""
"image-keyboard-response",131,143887,"0.0-3.40-0.40","u552802wfx9abn1",349,"87.csv","","248.90000009536743","resources/trios/L1T2A2.jpg","38","restless",0.6,0.3,0.4,0.950478526388802,"false"
"image-keyboard-response",132,144305,"0.0-3.40-1.40","u552802wfx9abn1",349,"87.csv","","null","resources/maskTrios/BT2B.jpg","null","",NA,NA,NA,NA,""
"image-keyboard-response",133,145519,"0.0-3.40-2.40","u552802wfx9abn1",349,"87.csv","","null","resources/images/fishbone.png","null","",NA,NA,NA,NA,""
"image-keyboard-response",134,145745,"0.0-3.41-0.41","u552802wfx9abn1",349,"87.csv","","223.40000009536743","resources/trios/L4T1A2.jpg","37","restless",0.7,0.3,0.3,0.081670769907652,"true"
"image-keyboard-response",135,146161,"0.0-3.41-1.41","u552802wfx9abn1",349,"87.csv","","null","resources/maskTrios/L4BB.jpg","null","",NA,NA,NA,NA,""
"image-keyboard-response",136,147370,"0.0-3.41-2.41","u552802wfx9abn1",349,"87.csv","","null","resources/images/coin2.png","null","",NA,NA,NA,NA,""
"image-keyboard-response",137,147539,"0.0-3.42-0.42","u552802wfx9abn1",349,"87.csv","","166.20000004768372","resources/trios/L4T2A3.jpg","37","restless",0.7,0.3,0.3,0.998240167495396,"false"
"image-keyboard-response",138,147953,"0.0-3.42-1.42","u552802wfx9abn1",349,"87.csv","","null","resources/maskTrios/L4BB.jpg","null","",NA,NA,NA,NA,""
"image-keyboard-response",139,149168,"0.0-3.42-2.42","u552802wfx9abn1",349,"87.csv","","null","resources/images/fishbone.png","null","",NA,NA,NA,NA,""
"image-keyboard-response",140,149461,"0.0-3.43-0.43","u552802wfx9abn1",349,"87.csv","","290.60000014305115","resources/trios/L1T1A2.jpg","38","restless",0.7,0.3,0.3,0.0401095751812233,"true"
"image-keyboard-response",141,149879,"0.0-3.43-1.43","u552802wfx9abn1",349,"87.csv","","null","resources/maskTrios/BT1B.jpg","null","",NA,NA,NA,NA,""
"image-keyboard-response",142,151094,"0.0-3.43-2.43","u552802wfx9abn1",349,"87.csv","","null","resources/images/coin2.png","null","",NA,NA,NA,NA,""
"image-keyboard-response",143,151406,"0.0-3.44-0.44","u552802wfx9abn1",349,"87.csv","","308.7999999523163","resources/trios/L1T2A2.jpg","37","restless",0.7,0.3,0.2,0.953592398332611,"false"
"image-keyboard-response",144,151826,"0.0-3.44-1.44","u552802wfx9abn1",349,"87.csv","","null","resources/maskTrios/L1BB.jpg","null","",NA,NA,NA,NA,""
"image-keyboard-response",145,153040,"0.0-3.44-2.44","u552802wfx9abn1",349,"87.csv","","null","resources/images/fishbone.png","null","",NA,NA,NA,NA,""
"image-keyboard-response",146,153314,"0.0-3.45-0.45","u552802wfx9abn1",349,"87.csv","","271","resources/trios/L1T2A3.jpg","37","restless",0.7,0.3,0.3,0.990015755105177,"false"
"image-keyboard-response",147,153721,"0.0-3.45-1.45","u552802wfx9abn1",349,"87.csv","","null","resources/maskTrios/L1BB.jpg","null","",NA,NA,NA,NA,""
"image-keyboard-response",148,154933,"0.0-3.45-2.45","u552802wfx9abn1",349,"87.csv","","null","resources/images/fishbone.png","null","",NA,NA,NA,NA,""
"image-keyboard-response",149,155060,"0.0-3.46-0.46","u552802wfx9abn1",349,"87.csv","","124.5","resources/trios/L1T2A2.jpg","38","restless",0.7,0.3,0.2,0.777880318942838,"false"
"image-keyboard-response",150,155470,"0.0-3.46-1.46","u552802wfx9abn1",349,"87.csv","","null","resources/maskTrios/BT2B.jpg","null","",NA,NA,NA,NA,""
"image-keyboard-response",151,156684,"0.0-3.46-2.46","u552802wfx9abn1",349,"87.csv","","null","resources/images/fishbone.png","null","",NA,NA,NA,NA,""
"image-keyboard-response",152,156885,"0.0-3.47-0.47","u552802wfx9abn1",349,"87.csv","","197.5","resources/trios/L1T2A3.jpg","39","restless",0.8,0.3,0.2,0.38528975649119,"false"
"image-keyboard-response",153,157302,"0.0-3.47-1.47","u552802wfx9abn1",349,"87.csv","","null","resources/maskTrios/BBA3.jpg","null","",NA,NA,NA,NA,""
"image-keyboard-response",154,158511,"0.0-3.47-2.47","u552802wfx9abn1",349,"87.csv","","null","resources/images/fishbone.png","null","",NA,NA,NA,NA,""
"image-keyboard-response",155,159442,"0.0-3.48-0.48","u552802wfx9abn1",349,"87.csv","","928.2000000476837","resources/trios/L1T2A3.jpg","37","restless",0.8,0.3,0.2,0.614410036184056,"true"
"image-keyboard-response",156,159855,"0.0-3.48-1.48","u552802wfx9abn1",349,"87.csv","","null","resources/maskTrios/L1BB.jpg","null","",NA,NA,NA,NA,""
"image-keyboard-response",157,161074,"0.0-3.48-2.48","u552802wfx9abn1",349,"87.csv","","null","resources/images/coin2.png","null","",NA,NA,NA,NA,""
"image-keyboard-response",158,161488,"0.0-3.49-0.49","u552802wfx9abn1",349,"87.csv","","411.09999990463257","resources/trios/L4T2A2.jpg","38","restless",0.8,0.3,0.2,0.311960874177307,"false"
"image-keyboard-response",159,161905,"0.0-3.49-1.49","u552802wfx9abn1",349,"87.csv","","null","resources/maskTrios/BT2B.jpg","null","",NA,NA,NA,NA,""
"image-keyboard-response",160,163113,"0.0-3.49-2.49","u552802wfx9abn1",349,"87.csv","","null","resources/images/fishbone.png","null","",NA,NA,NA,NA,""
"image-keyboard-response",161,165530,"0.0-3.50-0.50","u552802wfx9abn1",349,"87.csv","","2415","resources/trios/L1T2A2.jpg","39","restless",0.8,0.3,0.2,0.648464773198041,"false"
"image-keyboard-response",162,165951,"0.0-3.50-1.50","u552802wfx9abn1",349,"87.csv","","null","resources/maskTrios/BBA2.jpg","null","",NA,NA,NA,NA,""
"image-keyboard-response",163,167164,"0.0-3.50-2.50","u552802wfx9abn1",349,"87.csv","","null","resources/images/fishbone.png","null","",NA,NA,NA,NA,""
"image-keyboard-response",164,168012,"0.0-3.51-0.51","u552802wfx9abn1",349,"87.csv","","845.0999999046326","resources/trios/L4T1A2.jpg","37","restless",0.8,0.3,0.2,0.211770820230159,"true"
"image-keyboard-response",165,168418,"0.0-3.51-1.51","u552802wfx9abn1",349,"87.csv","","null","resources/maskTrios/L4BB.jpg","null","",NA,NA,NA,NA,""
"image-keyboard-response",166,169632,"0.0-3.51-2.51","u552802wfx9abn1",349,"87.csv","","null","resources/images/coin2.png","null","",NA,NA,NA,NA,""
"image-keyboard-response",167,169980,"0.0-3.52-0.52","u552802wfx9abn1",349,"87.csv","","344.7000000476837","resources/trios/L1T1A3.jpg","37","restless",0.8,0.3,0.2,0.170319615705408,"true"
"image-keyboard-response",168,170384,"0.0-3.52-1.52","u552802wfx9abn1",349,"87.csv","","null","resources/maskTrios/L1BB.jpg","null","",NA,NA,NA,NA,""
"image-keyboard-response",169,171599,"0.0-3.52-2.52","u552802wfx9abn1",349,"87.csv","","null","resources/images/coin2.png","null","",NA,NA,NA,NA,""
"image-keyboard-response",170,171851,"0.0-3.53-0.53","u552802wfx9abn1",349,"87.csv","","248.79999995231628","resources/trios/L1T2A2.jpg","37","restless",0.8,0.3,0.3,0.111244931660192,"true"
"image-keyboard-response",171,172268,"0.0-3.53-1.53","u552802wfx9abn1",349,"87.csv","","null","resources/maskTrios/L1BB.jpg","null","",NA,NA,NA,NA,""
"image-keyboard-response",172,173483,"0.0-3.53-2.53","u552802wfx9abn1",349,"87.csv","","null","resources/images/coin2.png","null","",NA,NA,NA,NA,""
"image-keyboard-response",173,174138,"0.0-3.54-0.54","u552802wfx9abn1",349,"87.csv","","652.4000000953674","resources/trios/L4T2A3.jpg","38","restless",0.8,0.3,0.3,0.437703965941839,"false"
"image-keyboard-response",174,174557,"0.0-3.54-1.54","u552802wfx9abn1",349,"87.csv","","null","resources/maskTrios/BT2B.jpg","null","",NA,NA,NA,NA,""
"image-keyboard-response",175,175771,"0.0-3.54-2.54","u552802wfx9abn1",349,"87.csv","","null","resources/images/fishbone.png","null","",NA,NA,NA,NA,""
"image-keyboard-response",176,175891,"0.0-3.55-0.55","u552802wfx9abn1",349,"87.csv","","117.20000004768372","resources/trios/L4T2A3.jpg","37","restless",0.8,0.3,0.3,0.0433308966613692,"true"
"image-keyboard-response",177,176305,"0.0-3.55-1.55","u552802wfx9abn1",349,"87.csv","","null","resources/maskTrios/L4BB.jpg","null","",NA,NA,NA,NA,""
"image-keyboard-response",178,177516,"0.0-3.55-2.55","u552802wfx9abn1",349,"87.csv","","null","resources/images/coin2.png","null","",NA,NA,NA,NA,""
"image-keyboard-response",179,177964,"0.0-3.56-0.56","u552802wfx9abn1",349,"87.csv","","445.5","resources/trios/L4T1A2.jpg","37","restless",0.8,0.3,0.3,0.147347423357127,"true"
"image-keyboard-response",180,178381,"0.0-3.56-1.56","u552802wfx9abn1",349,"87.csv","","null","resources/maskTrios/L4BB.jpg","null","",NA,NA,NA,NA,""
"image-keyboard-response",181,179606,"0.0-3.56-2.56","u552802wfx9abn1",349,"87.csv","","null","resources/images/coin2.png","null","",NA,NA,NA,NA,""
"image-keyboard-response",182,179878,"0.0-3.57-0.57","u552802wfx9abn1",349,"87.csv","","269","resources/trios/L4T1A3.jpg","37","restless",0.8,0.3,0.3,0.808171770036416,"false"
"image-keyboard-response",183,180298,"0.0-3.57-1.57","u552802wfx9abn1",349,"87.csv","","null","resources/maskTrios/L4BB.jpg","null","",NA,NA,NA,NA,""
"image-keyboard-response",184,181511,"0.0-3.57-2.57","u552802wfx9abn1",349,"87.csv","","null","resources/images/fishbone.png","null","",NA,NA,NA,NA,""
"image-keyboard-response",185,181723,"0.0-3.58-0.58","u552802wfx9abn1",349,"87.csv","","208.70000004768372","resources/trios/L4T1A3.jpg","39","restless",0.7,0.3,0.4,0.520425749377104,"false"
"image-keyboard-response",186,182136,"0.0-3.58-1.58","u552802wfx9abn1",349,"87.csv","","null","resources/maskTrios/BBA3.jpg","null","",NA,NA,NA,NA,""
"image-keyboard-response",187,183351,"0.0-3.58-2.58","u552802wfx9abn1",349,"87.csv","","null","resources/images/fishbone.png","null","",NA,NA,NA,NA,""
"image-keyboard-response",188,183795,"0.0-3.59-0.59","u552802wfx9abn1",349,"87.csv","","441","resources/trios/L4T2A3.jpg","37","restless",0.7,0.3,0.4,0.195440552468857,"true"
"image-keyboard-response",189,184214,"0.0-3.59-1.59","u552802wfx9abn1",349,"87.csv","","null","resources/maskTrios/L4BB.jpg","null","",NA,NA,NA,NA,""
"image-keyboard-response",190,185427,"0.0-3.59-2.59","u552802wfx9abn1",349,"87.csv","","null","resources/images/coin2.png","null","",NA,NA,NA,NA,""
"image-keyboard-response",191,185842,"0.0-3.60-0.60","u552802wfx9abn1",349,"87.csv","","412","resources/trios/L4T2A3.jpg","37","restless",0.7,0.3,0.4,0.999241395136916,"false"
"image-keyboard-response",192,186248,"0.0-3.60-1.60","u552802wfx9abn1",349,"87.csv","","null","resources/maskTrios/L4BB.jpg","null","",NA,NA,NA,NA,""
"image-keyboard-response",193,187456,"0.0-3.60-2.60","u552802wfx9abn1",349,"87.csv","","null","resources/images/fishbone.png","null","",NA,NA,NA,NA,""
"image-keyboard-response",194,187843,"0.0-3.61-0.61","u552802wfx9abn1",349,"87.csv","","383.69999980926514","resources/trios/L1T2A3.jpg","37","restless",0.7,0.3,0.4,0.227867694142015,"true"
"image-keyboard-response",195,188263,"0.0-3.61-1.61","u552802wfx9abn1",349,"87.csv","","null","resources/maskTrios/L1BB.jpg","null","",NA,NA,NA,NA,""
"image-keyboard-response",196,189476,"0.0-3.61-2.61","u552802wfx9abn1",349,"87.csv","","null","resources/images/coin2.png","null","",NA,NA,NA,NA,""
"image-keyboard-response",197,189899,"0.0-3.62-0.62","u552802wfx9abn1",349,"87.csv","","419.7999999523163","resources/trios/L4T1A2.jpg","37","restless",0.7,0.3,0.4,0.291140625168719,"true"
"image-keyboard-response",198,190316,"0.0-3.62-1.62","u552802wfx9abn1",349,"87.csv","","null","resources/maskTrios/L4BB.jpg","null","",NA,NA,NA,NA,""
"image-keyboard-response",199,191530,"0.0-3.62-2.62","u552802wfx9abn1",349,"87.csv","","null","resources/images/coin2.png","null","",NA,NA,NA,NA,""
"image-keyboard-response",200,191800,"0.0-3.63-0.63","u552802wfx9abn1",349,"87.csv","","267.2000000476837","resources/trios/L1T2A3.jpg","37","restless",0.7,0.3,0.4,0.827347829688642,"false"
"image-keyboard-response",201,192218,"0.0-3.63-1.63","u552802wfx9abn1",349,"87.csv","","null","resources/maskTrios/L1BB.jpg","null","",NA,NA,NA,NA,""
"image-keyboard-response",202,193432,"0.0-3.63-2.63","u552802wfx9abn1",349,"87.csv","","null","resources/images/fishbone.png","null","",NA,NA,NA,NA,""
"image-keyboard-response",203,193571,"0.0-3.64-0.64","u552802wfx9abn1",349,"87.csv","","135.79999995231628","resources/trios/L4T1A3.jpg","38","restless",0.7,0.3,0.4,0.506816685876177,"false"
"image-keyboard-response",204,193981,"0.0-3.64-1.64","u552802wfx9abn1",349,"87.csv","","null","resources/maskTrios/BT1B.jpg","null","",NA,NA,NA,NA,""
"image-keyboard-response",205,195197,"0.0-3.64-2.64","u552802wfx9abn1",349,"87.csv","","null","resources/images/fishbone.png","null","",NA,NA,NA,NA,""
"image-keyboard-response",206,195309,"0.0-3.65-0.65","u552802wfx9abn1",349,"87.csv","","108.29999995231628","resources/trios/L4T1A3.jpg","39","restless",0.7,0.3,0.3,0.540299512620895,"false"
"image-keyboard-response",207,195728,"0.0-3.65-1.65","u552802wfx9abn1",349,"87.csv","","null","resources/maskTrios/BBA3.jpg","null","",NA,NA,NA,NA,""
"image-keyboard-response",208,196942,"0.0-3.65-2.65","u552802wfx9abn1",349,"87.csv","","null","resources/images/fishbone.png","null","",NA,NA,NA,NA,""
"image-keyboard-response",209,197117,"0.0-3.66-0.66","u552802wfx9abn1",349,"87.csv","","172.29999995231628","resources/trios/L1T1A2.jpg","37","restless",0.7,0.4,0.4,0.0596837853125094,"true"
"image-keyboard-response",210,197539,"0.0-3.66-1.66","u552802wfx9abn1",349,"87.csv","","null","resources/maskTrios/L1BB.jpg","null","",NA,NA,NA,NA,""
"image-keyboard-response",211,198758,"0.0-3.66-2.66","u552802wfx9abn1",349,"87.csv","","null","resources/images/coin2.png","null","",NA,NA,NA,NA,""
"image-keyboard-response",212,199019,"0.0-3.67-0.67","u552802wfx9abn1",349,"87.csv","","258.2000000476837","resources/trios/L1T1A2.jpg","38","restless",0.7,0.4,0.4,0.546689865314085,"false"
"image-keyboard-response",213,199436,"0.0-3.67-1.67","u552802wfx9abn1",349,"87.csv","","null","resources/maskTrios/BT1B.jpg","null","",NA,NA,NA,NA,""
"image-keyboard-response",214,200642,"0.0-3.67-2.67","u552802wfx9abn1",349,"87.csv","","null","resources/images/fishbone.png","null","",NA,NA,NA,NA,""
"image-keyboard-response",215,201002,"0.0-3.68-0.68","u552802wfx9abn1",349,"87.csv","","358.09999990463257","resources/trios/L4T2A3.jpg","38","restless",0.7,0.4,0.4,0.40404647105952,"false"
"image-keyboard-response",216,201418,"0.0-3.68-1.68","u552802wfx9abn1",349,"87.csv","","null","resources/maskTrios/BT2B.jpg","null","",NA,NA,NA,NA,""
"image-keyboard-response",217,202624,"0.0-3.68-2.68","u552802wfx9abn1",349,"87.csv","","null","resources/images/fishbone.png","null","",NA,NA,NA,NA,""
"image-keyboard-response",218,202780,"0.0-3.69-0.69","u552802wfx9abn1",349,"87.csv","","153.59999990463257","resources/trios/L4T1A2.jpg","37","restless",0.7,0.4,0.4,0.932112150616829,"false"
"image-keyboard-response",219,203196,"0.0-3.69-1.69","u552802wfx9abn1",349,"87.csv","","null","resources/maskTrios/L4BB.jpg","null","",NA,NA,NA,NA,""
"image-keyboard-response",220,204410,"0.0-3.69-2.69","u552802wfx9abn1",349,"87.csv","","null","resources/images/fishbone.png","null","",NA,NA,NA,NA,""
"image-keyboard-response",221,204951,"0.0-3.70-0.70","u552802wfx9abn1",349,"87.csv","","537.5999999046326","resources/trios/L1T1A3.jpg","39","restless",0.7,0.4,0.4,0.919659168990286,"false"
"image-keyboard-response",222,205368,"0.0-3.70-1.70","u552802wfx9abn1",349,"87.csv","","null","resources/maskTrios/BBA3.jpg","null","",NA,NA,NA,NA,""
"image-keyboard-response",223,206572,"0.0-3.70-2.70","u552802wfx9abn1",349,"87.csv","","null","resources/images/fishbone.png","null","",NA,NA,NA,NA,""
"image-keyboard-response",224,206670,"0.0-3.71-0.71","u552802wfx9abn1",349,"87.csv","","95.20000004768372","resources/trios/L4T1A2.jpg","37","restless",0.7,0.3,0.3,0.151485710471732,"true"
"image-keyboard-response",225,207093,"0.0-3.71-1.71","u552802wfx9abn1",349,"87.csv","","null","resources/maskTrios/L4BB.jpg","null","",NA,NA,NA,NA,""
"image-keyboard-response",226,208306,"0.0-3.71-2.71","u552802wfx9abn1",349,"87.csv","","null","resources/images/coin2.png","null","",NA,NA,NA,NA,""
"image-keyboard-response",227,208946,"0.0-3.72-0.72","u552802wfx9abn1",349,"87.csv","","636.7000000476837","resources/trios/L1T2A3.jpg","37","restless",0.7,0.3,0.3,0.811310277488523,"false"
"image-keyboard-response",228,209363,"0.0-3.72-1.72","u552802wfx9abn1",349,"87.csv","","null","resources/maskTrios/L1BB.jpg","null","",NA,NA,NA,NA,""
"image-keyboard-response",229,210568,"0.0-3.72-2.72","u552802wfx9abn1",349,"87.csv","","null","resources/images/fishbone.png","null","",NA,NA,NA,NA,""
"image-keyboard-response",230,211486,"0.0-3.73-0.73","u552802wfx9abn1",349,"87.csv","","914.9000000953674","resources/trios/L4T1A2.jpg","37","restless",0.7,0.3,0.3,0.584621160399472,"true"
"image-keyboard-response",231,211908,"0.0-3.73-1.73","u552802wfx9abn1",349,"87.csv","","null","resources/maskTrios/L4BB.jpg","null","",NA,NA,NA,NA,""
"image-keyboard-response",232,213122,"0.0-3.73-2.73","u552802wfx9abn1",349,"87.csv","","null","resources/images/coin2.png","null","",NA,NA,NA,NA,""
"image-keyboard-response",233,217430,"0.0-3.74-0.74","u552802wfx9abn1",349,"87.csv","","4305.5","resources/trios/L1T2A3.jpg","37","restless",0.6,0.3,0.3,0.834372680865427,"false"
"image-keyboard-response",234,217840,"0.0-3.74-1.74","u552802wfx9abn1",349,"87.csv","","null","resources/maskTrios/L1BB.jpg","null","",NA,NA,NA,NA,""
"image-keyboard-response",235,219048,"0.0-3.74-2.74","u552802wfx9abn1",349,"87.csv","","null","resources/images/fishbone.png","null","",NA,NA,NA,NA,""
"image-keyboard-response",236,219496,"0.0-3.75-0.75","u552802wfx9abn1",349,"87.csv","","444.7999999523163","resources/trios/L1T1A2.jpg","37","restless",0.5,0.3,0.3,0.684020650603026,"false"
"image-keyboard-response",237,219913,"0.0-3.75-1.75","u552802wfx9abn1",349,"87.csv","","null","resources/maskTrios/L1BB.jpg","null","",NA,NA,NA,NA,""
"image-keyboard-response",238,221127,"0.0-3.75-2.75","u552802wfx9abn1",349,"87.csv","","null","resources/images/fishbone.png","null","",NA,NA,NA,NA,""
"image-keyboard-response",239,221383,"0.0-3.76-0.76","u552802wfx9abn1",349,"87.csv","","253.19999980926514","resources/trios/L1T1A3.jpg","38","restless",0.5,0.3,0.3,0.892280583826892,"false"
"image-keyboard-response",240,221792,"0.0-3.76-1.76","u552802wfx9abn1",349,"87.csv","","null","resources/maskTrios/BT1B.jpg","null","",NA,NA,NA,NA,""
"image-keyboard-response",241,223006,"0.0-3.76-2.76","u552802wfx9abn1",349,"87.csv","","null","resources/images/fishbone.png","null","",NA,NA,NA,NA,""
"image-keyboard-response",242,223054,"0.0-3.77-0.77","u552802wfx9abn1",349,"87.csv","","45.40000009536743","resources/trios/L1T2A2.jpg","39","restless",0.5,0.3,0.3,0.666587645905724,"false"
"image-keyboard-response",243,223464,"0.0-3.77-1.77","u552802wfx9abn1",349,"87.csv","","null","resources/maskTrios/BBA2.jpg","null","",NA,NA,NA,NA,""
"image-keyboard-response",244,224677,"0.0-3.77-2.77","u552802wfx9abn1",349,"87.csv","","null","resources/images/fishbone.png","null","",NA,NA,NA,NA,""
"image-keyboard-response",245,224940,"0.0-3.78-0.78","u552802wfx9abn1",349,"87.csv","","258.5","resources/trios/L1T1A2.jpg","37","restless",0.5,0.3,0.3,0.716754843804289,"false"
"image-keyboard-response",246,225357,"0.0-3.78-1.78","u552802wfx9abn1",349,"87.csv","","null","resources/maskTrios/L1BB.jpg","null","",NA,NA,NA,NA,""
"image-keyboard-response",247,226561,"0.0-3.78-2.78","u552802wfx9abn1",349,"87.csv","","null","resources/images/fishbone.png","null","",NA,NA,NA,NA,""
"image-keyboard-response",248,270439,"0.0-3.79-0.79","u552802wfx9abn1",349,"87.csv","","43877.90000009537","resources/trios/L4T2A2.jpg","39","restless",0.4,0.2,0.3,0.400877293405484,"false"
"image-keyboard-response",249,270846,"0.0-3.79-1.79","u552802wfx9abn1",349,"87.csv","","null","resources/maskTrios/BBA2.jpg","null","",NA,NA,NA,NA,""
"image-keyboard-response",250,272055,"0.0-3.79-2.79","u552802wfx9abn1",349,"87.csv","","null","resources/images/fishbone.png","null","",NA,NA,NA,NA,""
"image-keyboard-response",251,272568,"0.0-3.80-0.80","u552802wfx9abn1",349,"87.csv","","510.5","resources/trios/L4T1A2.jpg","37","restless",0.5,0.2,0.3,0.270580034591875,"true"
"image-keyboard-response",252,272978,"0.0-3.80-1.80","u552802wfx9abn1",349,"87.csv","","null","resources/maskTrios/L4BB.jpg","null","",NA,NA,NA,NA,""
"image-keyboard-response",253,274203,"0.0-3.80-2.80","u552802wfx9abn1",349,"87.csv","","null","resources/images/coin2.png","null","",NA,NA,NA,NA,""
"image-keyboard-response",254,274481,"0.0-3.81-0.81","u552802wfx9abn1",349,"87.csv","","274.89999985694885","resources/trios/L4T2A2.jpg","38","restless",0.5,0.2,0.3,0.235930294692344,"false"
"image-keyboard-response",255,274894,"0.0-3.81-1.81","u552802wfx9abn1",349,"87.csv","","null","resources/maskTrios/BT2B.jpg","null","",NA,NA,NA,NA,""
"image-keyboard-response",256,276107,"0.0-3.81-2.81","u552802wfx9abn1",349,"87.csv","","null","resources/images/fishbone.png","null","",NA,NA,NA,NA,""
"image-keyboard-response",257,276379,"0.0-3.82-0.82","u552802wfx9abn1",349,"87.csv","","269.5","resources/trios/L1T1A2.jpg","39","restless",0.5,0.2,0.3,0.253943096281912,"true"
"image-keyboard-response",258,276796,"0.0-3.82-1.82","u552802wfx9abn1",349,"87.csv","","null","resources/maskTrios/BBA2.jpg","null","",NA,NA,NA,NA,""
"image-keyboard-response",259,278010,"0.0-3.82-2.82","u552802wfx9abn1",349,"87.csv","","null","resources/images/coin2.png","null","",NA,NA,NA,NA,""
"image-keyboard-response",260,278240,"0.0-3.83-0.83","u552802wfx9abn1",349,"87.csv","","226.69999980926514","resources/trios/L4T2A2.jpg","37","restless",0.5,0.2,0.3,0.113027214907145,"true"
"image-keyboard-response",261,278646,"0.0-3.83-1.83","u552802wfx9abn1",349,"87.csv","","null","resources/maskTrios/L4BB.jpg","null","",NA,NA,NA,NA,""
"image-keyboard-response",262,279867,"0.0-3.83-2.83","u552802wfx9abn1",349,"87.csv","","null","resources/images/coin2.png","null","",NA,NA,NA,NA,""
"image-keyboard-response",263,280133,"0.0-3.84-0.84","u552802wfx9abn1",349,"87.csv","","262.59999990463257","resources/trios/L4T2A2.jpg","38","restless",0.5,0.2,0.3,0.928960414367596,"false"
"image-keyboard-response",264,280552,"0.0-3.84-1.84","u552802wfx9abn1",349,"87.csv","","null","resources/maskTrios/BT2B.jpg","null","",NA,NA,NA,NA,""
"image-keyboard-response",265,281758,"0.0-3.84-2.84","u552802wfx9abn1",349,"87.csv","","null","resources/images/fishbone.png","null","",NA,NA,NA,NA,""
"image-keyboard-response",266,282097,"0.0-3.85-0.85","u552802wfx9abn1",349,"87.csv","","336.10000014305115","resources/trios/L4T1A3.jpg","39","restless",0.5,0.2,0.3,0.0560275497767482,"true"
"image-keyboard-response",267,282509,"0.0-3.85-1.85","u552802wfx9abn1",349,"87.csv","","null","resources/maskTrios/BBA3.jpg","null","",NA,NA,NA,NA,""
"image-keyboard-response",268,283727,"0.0-3.85-2.85","u552802wfx9abn1",349,"87.csv","","null","resources/images/coin2.png","null","",NA,NA,NA,NA,""
"image-keyboard-response",269,284063,"0.0-3.86-0.86","u552802wfx9abn1",349,"87.csv","","333","resources/trios/L4T2A2.jpg","37","restless",0.5,0.2,0.3,0.783853226657367,"false"
"image-keyboard-response",270,284480,"0.0-3.86-1.86","u552802wfx9abn1",349,"87.csv","","null","resources/maskTrios/L4BB.jpg","null","",NA,NA,NA,NA,""
"image-keyboard-response",271,285695,"0.0-3.86-2.86","u552802wfx9abn1",349,"87.csv","","null","resources/images/fishbone.png","null","",NA,NA,NA,NA,""
"image-keyboard-response",272,286263,"0.0-3.87-0.87","u552802wfx9abn1",349,"87.csv","","565.1000001430511","resources/trios/L4T1A3.jpg","38","restless",0.5,0.2,0.3,0.546057284123599,"false"
"image-keyboard-response",273,286675,"0.0-3.87-1.87","u552802wfx9abn1",349,"87.csv","","null","resources/maskTrios/BT1B.jpg","null","",NA,NA,NA,NA,""
"image-keyboard-response",274,287890,"0.0-3.87-2.87","u552802wfx9abn1",349,"87.csv","","null","resources/images/fishbone.png","null","",NA,NA,NA,NA,""
"image-keyboard-response",275,288212,"0.0-3.88-0.88","u552802wfx9abn1",349,"87.csv","","320","resources/trios/L4T2A3.jpg","39","restless",0.5,0.2,0.3,0.822443936755907,"false"
"image-keyboard-response",276,288625,"0.0-3.88-1.88","u552802wfx9abn1",349,"87.csv","","null","resources/maskTrios/BBA3.jpg","null","",NA,NA,NA,NA,""
"image-keyboard-response",277,289842,"0.0-3.88-2.88","u552802wfx9abn1",349,"87.csv","","null","resources/images/fishbone.png","null","",NA,NA,NA,NA,""
"image-keyboard-response",278,290430,"0.0-3.89-0.89","u552802wfx9abn1",349,"87.csv","","585.0999999046326","resources/trios/L4T2A2.jpg","38","restless",0.5,0.2,0.3,0.689978815827626,"false"
"image-keyboard-response",279,290840,"0.0-3.89-1.89","u552802wfx9abn1",349,"87.csv","","null","resources/maskTrios/BT2B.jpg","null","",NA,NA,NA,NA,""
"image-keyboard-response",280,292053,"0.0-3.89-2.89","u552802wfx9abn1",349,"87.csv","","null","resources/images/fishbone.png","null","",NA,NA,NA,NA,""
"image-keyboard-response",281,292899,"0.0-3.90-0.90","u552802wfx9abn1",349,"87.csv","","842.7000000476837","resources/trios/L1T1A2.jpg","37","restless",0.5,0.2,0.3,0.831133737287814,"false"
"image-keyboard-response",282,293323,"0.0-3.90-1.90","u552802wfx9abn1",349,"87.csv","","null","resources/maskTrios/L1BB.jpg","null","",NA,NA,NA,NA,""
"image-keyboard-response",283,294536,"0.0-3.90-2.90","u552802wfx9abn1",349,"87.csv","","null","resources/images/fishbone.png","null","",NA,NA,NA,NA,""
"image-keyboard-response",284,301457,"0.0-3.91-0.91","u552802wfx9abn1",349,"87.csv","","6917.799999952316","resources/trios/L1T1A3.jpg","39","restless",0.5,0.2,0.3,0.587099076058295,"false"
"image-keyboard-response",285,301872,"0.0-3.91-1.91","u552802wfx9abn1",349,"87.csv","","null","resources/maskTrios/BBA3.jpg","null","",NA,NA,NA,NA,""
"image-keyboard-response",286,303086,"0.0-3.91-2.91","u552802wfx9abn1",349,"87.csv","","null","resources/images/fishbone.png","null","",NA,NA,NA,NA,""
"image-keyboard-response",287,303488,"0.0-3.92-0.92","u552802wfx9abn1",349,"87.csv","","399.09999990463257","resources/trios/L4T1A3.jpg","37","restless",0.4,0.3,0.4,0.169462611413779,"true"
"image-keyboard-response",288,303905,"0.0-3.92-1.92","u552802wfx9abn1",349,"87.csv","","null","resources/maskTrios/L4BB.jpg","null","",NA,NA,NA,NA,""
"image-keyboard-response",289,305116,"0.0-3.92-2.92","u552802wfx9abn1",349,"87.csv","","null","resources/images/coin2.png","null","",NA,NA,NA,NA,""
"image-keyboard-response",290,305448,"0.0-3.93-0.93","u552802wfx9abn1",349,"87.csv","","328.59999990463257","resources/trios/L4T2A2.jpg","37","restless",0.4,0.3,0.4,0.146840537086973,"true"
"image-keyboard-response",291,305855,"0.0-3.93-1.93","u552802wfx9abn1",349,"87.csv","","null","resources/maskTrios/L4BB.jpg","null","",NA,NA,NA,NA,""
"image-keyboard-response",292,307064,"0.0-3.93-2.93","u552802wfx9abn1",349,"87.csv","","null","resources/images/coin2.png","null","",NA,NA,NA,NA,""
"image-keyboard-response",293,307395,"0.0-3.94-0.94","u552802wfx9abn1",349,"87.csv","","328","resources/trios/L4T2A3.jpg","37","restless",0.4,0.3,0.4,0.176789834279403,"true"
"image-keyboard-response",294,307812,"0.0-3.94-1.94","u552802wfx9abn1",349,"87.csv","","null","resources/maskTrios/L4BB.jpg","null","",NA,NA,NA,NA,""
"image-keyboard-response",295,309033,"0.0-3.94-2.94","u552802wfx9abn1",349,"87.csv","","null","resources/images/coin2.png","null","",NA,NA,NA,NA,""
"image-keyboard-response",296,309256,"0.0-3.95-0.95","u552802wfx9abn1",349,"87.csv","","220.90000009536743","resources/trios/L4T2A3.jpg","37","restless",0.4,0.3,0.4,0.102040727786219,"true"
"image-keyboard-response",297,309673,"0.0-3.95-1.95","u552802wfx9abn1",349,"87.csv","","null","resources/maskTrios/L4BB.jpg","null","",NA,NA,NA,NA,""
"image-keyboard-response",298,310885,"0.0-3.95-2.95","u552802wfx9abn1",349,"87.csv","","null","resources/images/coin2.png","null","",NA,NA,NA,NA,""
"image-keyboard-response",299,311070,"0.0-3.96-0.96","u552802wfx9abn1",349,"87.csv","","182.59999990463257","resources/trios/L4T2A2.jpg","37","restless",0.4,0.3,0.4,0.0875889852996574,"true"
"image-keyboard-response",300,311492,"0.0-3.96-1.96","u552802wfx9abn1",349,"87.csv","","null","resources/maskTrios/L4BB.jpg","null","",NA,NA,NA,NA,""
"image-keyboard-response",301,312707,"0.0-3.96-2.96","u552802wfx9abn1",349,"87.csv","","null","resources/images/coin2.png","null","",NA,NA,NA,NA,""
"image-keyboard-response",302,313118,"0.0-3.97-0.97","u552802wfx9abn1",349,"87.csv","","408.09999990463257","resources/trios/L4T2A3.jpg","37","restless",0.4,0.3,0.4,0.992237378522066,"false"
"image-keyboard-response",303,313535,"0.0-3.97-1.97","u552802wfx9abn1",349,"87.csv","","null","resources/maskTrios/L4BB.jpg","null","",NA,NA,NA,NA,""
"image-keyboard-response",304,314750,"0.0-3.97-2.97","u552802wfx9abn1",349,"87.csv","","null","resources/images/fishbone.png","null","",NA,NA,NA,NA,""
"image-keyboard-response",305,314929,"0.0-3.98-0.98","u552802wfx9abn1",349,"87.csv","","176.59999990463257","resources/trios/L4T1A2.jpg","38","restless",0.4,0.3,0.4,0.683489410459228,"false"
"image-keyboard-response",306,315352,"0.0-3.98-1.98","u552802wfx9abn1",349,"87.csv","","null","resources/maskTrios/BT1B.jpg","null","",NA,NA,NA,NA,""
"image-keyboard-response",307,316565,"0.0-3.98-2.98","u552802wfx9abn1",349,"87.csv","","null","resources/images/fishbone.png","null","",NA,NA,NA,NA,""
"image-keyboard-response",308,317818,"0.0-3.99-0.99","u552802wfx9abn1",349,"87.csv","","1250","resources/trios/L4T2A3.jpg","38","restless",0.4,0.3,0.5,0.867929339386392,"false"
"image-keyboard-response",309,318244,"0.0-3.99-1.99","u552802wfx9abn1",349,"87.csv","","null","resources/maskTrios/BT2B.jpg","null","",NA,NA,NA,NA,""
"image-keyboard-response",310,319468,"0.0-3.99-2.99","u552802wfx9abn1",349,"87.csv","","null","resources/images/fishbone.png","null","",NA,NA,NA,NA,""
"image-keyboard-response",311,319740,"0.0-3.100-0.100","u552802wfx9abn1",349,"87.csv","","269.09999990463257","resources/trios/L4T2A3.jpg","38","restless",0.4,0.3,0.5,0.599597194243872,"false"
"image-keyboard-response",312,320158,"0.0-3.100-1.100","u552802wfx9abn1",349,"87.csv","","null","resources/maskTrios/BT2B.jpg","null","",NA,NA,NA,NA,""
"image-keyboard-response",313,321372,"0.0-3.100-2.100","u552802wfx9abn1",349,"87.csv","","null","resources/images/fishbone.png","null","",NA,NA,NA,NA,""
"image-keyboard-response",314,321588,"0.0-3.101-0.101","u552802wfx9abn1",349,"87.csv","","213.20000004768372","resources/trios/L4T2A3.jpg","38","restless",0.5,0.2,0.5,0.087460876798636,"true"
"image-keyboard-response",315,322006,"0.0-3.101-1.101","u552802wfx9abn1",349,"87.csv","","null","resources/maskTrios/BT2B.jpg","null","",NA,NA,NA,NA,""
"image-keyboard-response",316,323227,"0.0-3.101-2.101","u552802wfx9abn1",349,"87.csv","","null","resources/images/coin2.png","null","",NA,NA,NA,NA,""
"image-keyboard-response",317,323676,"0.0-3.102-0.102","u552802wfx9abn1",349,"87.csv","","446.2000000476837","resources/trios/L4T1A3.jpg","38","restless",0.5,0.3,0.5,0.30553813215036,"false"
"image-keyboard-response",318,324085,"0.0-3.102-1.102","u552802wfx9abn1",349,"87.csv","","null","resources/maskTrios/BT1B.jpg","null","",NA,NA,NA,NA,""
"image-keyboard-response",319,325298,"0.0-3.102-2.102","u552802wfx9abn1",349,"87.csv","","null","resources/images/fishbone.png","null","",NA,NA,NA,NA,""
"image-keyboard-response",320,325326,"0.0-3.103-0.103","u552802wfx9abn1",349,"87.csv","","25","resources/trios/L4T1A3.jpg","39","restless",0.5,0.3,0.5,0.410458922134789,"true"
"image-keyboard-response",321,325742,"0.0-3.103-1.103","u552802wfx9abn1",349,"87.csv","","null","resources/maskTrios/BBA3.jpg","null","",NA,NA,NA,NA,""
"image-keyboard-response",322,326950,"0.0-3.103-2.103","u552802wfx9abn1",349,"87.csv","","null","resources/images/coin2.png","null","",NA,NA,NA,NA,""
"image-keyboard-response",323,327129,"0.0-3.104-0.104","u552802wfx9abn1",349,"87.csv","","176.09999990463257","resources/trios/L4T2A3.jpg","39","restless",0.5,0.3,0.5,0.443432037997702,"true"
"image-keyboard-response",324,327534,"0.0-3.104-1.104","u552802wfx9abn1",349,"87.csv","","null","resources/maskTrios/BBA3.jpg","null","",NA,NA,NA,NA,""
"image-keyboard-response",325,328749,"0.0-3.104-2.104","u552802wfx9abn1",349,"87.csv","","null","resources/images/coin2.png","null","",NA,NA,NA,NA,""
"image-keyboard-response",326,328977,"0.0-3.105-0.105","u552802wfx9abn1",349,"87.csv","","225.59999990463257","resources/trios/L4T2A3.jpg","39","restless",0.6,0.3,0.5,0.684428248711079,"false"
"image-keyboard-response",327,329386,"0.0-3.105-1.105","u552802wfx9abn1",349,"87.csv","","null","resources/maskTrios/BBA3.jpg","null","",NA,NA,NA,NA,""
"image-keyboard-response",328,330598,"0.0-3.105-2.105","u552802wfx9abn1",349,"87.csv","","null","resources/images/fishbone.png","null","",NA,NA,NA,NA,""
"image-keyboard-response",329,330750,"0.0-3.106-0.106","u552802wfx9abn1",349,"87.csv","","148.59999990463257","resources/trios/L1T2A2.jpg","37","restless",0.6,0.3,0.5,0.00563211147987386,"true"
"image-keyboard-response",330,331168,"0.0-3.106-1.106","u552802wfx9abn1",349,"87.csv","","null","resources/maskTrios/L1BB.jpg","null","",NA,NA,NA,NA,""
"image-keyboard-response",331,332381,"0.0-3.106-2.106","u552802wfx9abn1",349,"87.csv","","null","resources/images/coin2.png","null","",NA,NA,NA,NA,""
"image-keyboard-response",332,332856,"0.0-3.107-0.107","u552802wfx9abn1",349,"87.csv","","472.10000014305115","resources/trios/L1T1A2.jpg","37","restless",0.5,0.3,0.5,0.62153839983393,"false"
"image-keyboard-response",333,333270,"0.0-3.107-1.107","u552802wfx9abn1",349,"87.csv","","null","resources/maskTrios/L1BB.jpg","null","",NA,NA,NA,NA,""
"image-keyboard-response",334,334474,"0.0-3.107-2.107","u552802wfx9abn1",349,"87.csv","","null","resources/images/fishbone.png","null","",NA,NA,NA,NA,""
"image-keyboard-response",335,334544,"0.0-3.108-0.108","u552802wfx9abn1",349,"87.csv","","66.5","resources/trios/L4T2A3.jpg","38","restless",0.5,0.3,0.5,0.0195071717739619,"true"
"image-keyboard-response",336,334953,"0.0-3.108-1.108","u552802wfx9abn1",349,"87.csv","","null","resources/maskTrios/BT2B.jpg","null","",NA,NA,NA,NA,""
"image-keyboard-response",337,336166,"0.0-3.108-2.108","u552802wfx9abn1",349,"87.csv","","null","resources/images/coin2.png","null","",NA,NA,NA,NA,""
"image-keyboard-response",338,336377,"0.0-3.109-0.109","u552802wfx9abn1",349,"87.csv","","207.79999995231628","resources/trios/L4T1A2.jpg","38","restless",0.5,0.3,0.5,0.208320359128533,"true"
"image-keyboard-response",339,336791,"0.0-3.109-1.109","u552802wfx9abn1",349,"87.csv","","null","resources/maskTrios/BT1B.jpg","null","",NA,NA,NA,NA,""
"image-keyboard-response",340,338014,"0.0-3.109-2.109","u552802wfx9abn1",349,"87.csv","","null","resources/images/coin2.png","null","",NA,NA,NA,NA,""
"image-keyboard-response",341,338020,"0.0-3.110-0.110","u552802wfx9abn1",349,"87.csv","","3","resources/trios/L1T1A3.jpg","38","restless",0.5,0.3,0.5,0.943220558305481,"false"
"image-keyboard-response",342,338434,"0.0-3.110-1.110","u552802wfx9abn1",349,"87.csv","","null","resources/maskTrios/BT1B.jpg","null","",NA,NA,NA,NA,""
"image-keyboard-response",343,339654,"0.0-3.110-2.110","u552802wfx9abn1",349,"87.csv","","null","resources/images/fishbone.png","null","",NA,NA,NA,NA,""
"image-keyboard-response",344,340163,"0.0-3.111-0.111","u552802wfx9abn1",349,"87.csv","","506.80000019073486","resources/trios/L1T1A3.jpg","39","restless",0.5,0.3,0.5,0.866200018820754,"false"
"image-keyboard-response",345,340568,"0.0-3.111-1.111","u552802wfx9abn1",349,"87.csv","","null","resources/maskTrios/BBA3.jpg","null","",NA,NA,NA,NA,""
"image-keyboard-response",346,341779,"0.0-3.111-2.111","u552802wfx9abn1",349,"87.csv","","null","resources/images/fishbone.png","null","",NA,NA,NA,NA,""
"image-keyboard-response",347,341930,"0.0-3.112-0.112","u552802wfx9abn1",349,"87.csv","","147.5","resources/trios/L4T1A2.jpg","38","restless",0.6,0.3,0.5,0.978905298062291,"false"
"image-keyboard-response",348,342349,"0.0-3.112-1.112","u552802wfx9abn1",349,"87.csv","","null","resources/maskTrios/BT1B.jpg","null","",NA,NA,NA,NA,""
"image-keyboard-response",349,343562,"0.0-3.112-2.112","u552802wfx9abn1",349,"87.csv","","null","resources/images/fishbone.png","null","",NA,NA,NA,NA,""
"image-keyboard-response",350,343873,"0.0-3.113-0.113","u552802wfx9abn1",349,"87.csv","","307.89999985694885","resources/trios/L1T1A3.jpg","39","restless",0.6,0.3,0.5,0.474261022044351,"true"
"image-keyboard-response",351,344287,"0.0-3.113-1.113","u552802wfx9abn1",349,"87.csv","","null","resources/maskTrios/BBA3.jpg","null","",NA,NA,NA,NA,""
"image-keyboard-response",352,345502,"0.0-3.113-2.113","u552802wfx9abn1",349,"87.csv","","null","resources/images/coin2.png","null","",NA,NA,NA,NA,""
"image-keyboard-response",353,345823,"0.0-3.114-0.114","u552802wfx9abn1",349,"87.csv","","318.5","resources/trios/L1T1A2.jpg","39","restless",0.7,0.3,0.5,0.304600989451611,"true"
"image-keyboard-response",354,346240,"0.0-3.114-1.114","u552802wfx9abn1",349,"87.csv","","null","resources/maskTrios/BBA2.jpg","null","",NA,NA,NA,NA,""
"image-keyboard-response",355,347446,"0.0-3.114-2.114","u552802wfx9abn1",349,"87.csv","","null","resources/images/coin2.png","null","",NA,NA,NA,NA,""
"image-keyboard-response",356,347820,"0.0-3.115-0.115","u552802wfx9abn1",349,"87.csv","","370.59999990463257","resources/trios/L4T2A2.jpg","39","restless",0.7,0.3,0.5,0.0502824730662355,"true"
"image-keyboard-response",357,348237,"0.0-3.115-1.115","u552802wfx9abn1",349,"87.csv","","null","resources/maskTrios/BBA2.jpg","null","",NA,NA,NA,NA,""
"image-keyboard-response",358,349451,"0.0-3.115-2.115","u552802wfx9abn1",349,"87.csv","","null","resources/images/coin2.png","null","",NA,NA,NA,NA,""
"image-keyboard-response",359,350141,"0.0-3.116-0.116","u552802wfx9abn1",349,"87.csv","","688","resources/trios/L4T1A2.jpg","38","restless",0.7,0.4,0.5,0.926880442240948,"false"
"image-keyboard-response",360,350551,"0.0-3.116-1.116","u552802wfx9abn1",349,"87.csv","","null","resources/maskTrios/BT1B.jpg","null","",NA,NA,NA,NA,""
"image-keyboard-response",361,351767,"0.0-3.116-2.116","u552802wfx9abn1",349,"87.csv","","null","resources/images/fishbone.png","null","",NA,NA,NA,NA,""
"image-keyboard-response",362,445467,"0.0-3.117-0.117","u552802wfx9abn1",349,"87.csv","","93697.90000009537","resources/trios/L4T2A2.jpg","39","restless",0.7,0.5,0.5,0.49079062205916,"true"
"image-keyboard-response",363,445879,"0.0-3.117-1.117","u552802wfx9abn1",349,"87.csv","","null","resources/maskTrios/BBA2.jpg","null","",NA,NA,NA,NA,""
"image-keyboard-response",364,447094,"0.0-3.117-2.117","u552802wfx9abn1",349,"87.csv","","null","resources/images/coin2.png","null","",NA,NA,NA,NA,""
"image-keyboard-response",365,449817,"0.0-3.118-0.118","u552802wfx9abn1",349,"87.csv","","2720.399999856949","resources/trios/L1T1A2.jpg","38","restless",0.7,0.6,0.4,0.102607500524662,"true"
"image-keyboard-response",366,450229,"0.0-3.118-1.118","u552802wfx9abn1",349,"87.csv","","null","resources/maskTrios/BT1B.jpg","null","",NA,NA,NA,NA,""
"image-keyboard-response",367,451442,"0.0-3.118-2.118","u552802wfx9abn1",349,"87.csv","","null","resources/images/coin2.png","null","",NA,NA,NA,NA,""
"image-keyboard-response",368,451782,"0.0-3.119-0.119","u552802wfx9abn1",349,"87.csv","","336.10000014305115","resources/trios/L4T2A2.jpg","37","restless",0.7,0.6,0.4,0.283120619141103,"true"
"image-keyboard-response",369,452194,"0.0-3.119-1.119","u552802wfx9abn1",349,"87.csv","","null","resources/maskTrios/L4BB.jpg","null","",NA,NA,NA,NA,""
"image-keyboard-response",370,453409,"0.0-3.119-2.119","u552802wfx9abn1",349,"87.csv","","null","resources/images/coin2.png","null","",NA,NA,NA,NA,""
"image-keyboard-response",371,453848,"0.0-3.120-0.120","u552802wfx9abn1",349,"87.csv","","436.40000009536743","resources/trios/L4T2A2.jpg","38","restless",0.7,0.7,0.4,0.432921123909139,"true"
"image-keyboard-response",372,454261,"0.0-3.120-1.120","u552802wfx9abn1",349,"87.csv","","null","resources/maskTrios/BT2B.jpg","null","",NA,NA,NA,NA,""
"image-keyboard-response",373,455474,"0.0-3.120-2.120","u552802wfx9abn1",349,"87.csv","","null","resources/images/coin2.png","null","",NA,NA,NA,NA,""
"image-keyboard-response",374,455872,"0.0-3.121-0.121","u552802wfx9abn1",349,"87.csv","","395.09999990463257","resources/trios/L1T1A3.jpg","37","restless",0.7,0.7,0.4,0.133785016382479,"true"
"image-keyboard-response",375,456294,"0.0-3.121-1.121","u552802wfx9abn1",349,"87.csv","","null","resources/maskTrios/L1BB.jpg","null","",NA,NA,NA,NA,""
"image-keyboard-response",376,457506,"0.0-3.121-2.121","u552802wfx9abn1",349,"87.csv","","null","resources/images/coin2.png","null","",NA,NA,NA,NA,""
"image-keyboard-response",377,457918,"0.0-3.122-0.122","u552802wfx9abn1",349,"87.csv","","409.2999999523163","resources/trios/L1T2A2.jpg","38","restless",0.7,0.7,0.4,0.966394185659846,"false"
"image-keyboard-response",378,458329,"0.0-3.122-1.122","u552802wfx9abn1",349,"87.csv","","null","resources/maskTrios/BT2B.jpg","null","",NA,NA,NA,NA,""
"image-keyboard-response",379,459540,"0.0-3.122-2.122","u552802wfx9abn1",349,"87.csv","","null","resources/images/fishbone.png","null","",NA,NA,NA,NA,""
"image-keyboard-response",380,459817,"0.0-3.123-0.123","u552802wfx9abn1",349,"87.csv","","273.5","resources/trios/L1T1A3.jpg","38","restless",0.7,0.7,0.4,0.154839821733693,"true"
"image-keyboard-response",381,460234,"0.0-3.123-1.123","u552802wfx9abn1",349,"87.csv","","null","resources/maskTrios/BT1B.jpg","null","",NA,NA,NA,NA,""
"image-keyboard-response",382,461449,"0.0-3.123-2.123","u552802wfx9abn1",349,"87.csv","","null","resources/images/coin2.png","null","",NA,NA,NA,NA,""
"image-keyboard-response",383,462964,"0.0-3.124-0.124","u552802wfx9abn1",349,"87.csv","","1512.2000000476837","resources/trios/L1T2A2.jpg","38","restless",0.7,0.7,0.4,0.9042247404753,"false"
"image-keyboard-response",384,463381,"0.0-3.124-1.124","u552802wfx9abn1",349,"87.csv","","null","resources/maskTrios/BT2B.jpg","null","",NA,NA,NA,NA,""
"image-keyboard-response",385,464597,"0.0-3.124-2.124","u552802wfx9abn1",349,"87.csv","","null","resources/images/fishbone.png","null","",NA,NA,NA,NA,""
"image-keyboard-response",386,464789,"0.0-3.125-0.125","u552802wfx9abn1",349,"87.csv","","189","resources/trios/L4T1A3.jpg","39","restless",0.8,0.8,0.4,0.292368463453296,"true"
"image-keyboard-response",387,465208,"0.0-3.125-1.125","u552802wfx9abn1",349,"87.csv","","null","resources/maskTrios/BBA3.jpg","null","",NA,NA,NA,NA,""
"image-keyboard-response",388,466422,"0.0-3.125-2.125","u552802wfx9abn1",349,"87.csv","","null","resources/images/coin2.png","null","",NA,NA,NA,NA,""
"image-keyboard-response",389,466727,"0.0-3.126-0.126","u552802wfx9abn1",349,"87.csv","","301.90000009536743","resources/trios/L4T1A2.jpg","39","restless",0.8,0.8,0.4,0.17672234996432,"true"
"image-keyboard-response",390,467144,"0.0-3.126-1.126","u552802wfx9abn1",349,"87.csv","","null","resources/maskTrios/BBA2.jpg","null","",NA,NA,NA,NA,""
"image-keyboard-response",391,468358,"0.0-3.126-2.126","u552802wfx9abn1",349,"87.csv","","null","resources/images/coin2.png","null","",NA,NA,NA,NA,""
"image-keyboard-response",392,468695,"0.0-3.127-0.127","u552802wfx9abn1",349,"87.csv","","333.5","resources/trios/L1T2A3.jpg","39","restless",0.8,0.8,0.4,0.992367249972212,"false"
"image-keyboard-response",393,469112,"0.0-3.127-1.127","u552802wfx9abn1",349,"87.csv","","null","resources/maskTrios/BBA3.jpg","null","",NA,NA,NA,NA,""
"image-keyboard-response",394,470326,"0.0-3.127-2.127","u552802wfx9abn1",349,"87.csv","","null","resources/images/fishbone.png","null","",NA,NA,NA,NA,""
"image-keyboard-response",395,470616,"0.0-3.128-0.128","u552802wfx9abn1",349,"87.csv","","287.19999980926514","resources/trios/L1T2A3.jpg","39","restless",0.8,0.8,0.4,0.266919810438645,"true"
"image-keyboard-response",396,471025,"0.0-3.128-1.128","u552802wfx9abn1",349,"87.csv","","null","resources/maskTrios/BBA3.jpg","null","",NA,NA,NA,NA,""
"image-keyboard-response",397,472242,"0.0-3.128-2.128","u552802wfx9abn1",349,"87.csv","","null","resources/images/coin2.png","null","",NA,NA,NA,NA,""
"image-keyboard-response",398,472462,"0.0-3.129-0.129","u552802wfx9abn1",349,"87.csv","","217.40000009536743","resources/trios/L4T2A2.jpg","39","restless",0.8,0.8,0.5,0.75999035028526,"false"
"image-keyboard-response",399,472879,"0.0-3.129-1.129","u552802wfx9abn1",349,"87.csv","","null","resources/maskTrios/BBA2.jpg","null","",NA,NA,NA,NA,""
"image-keyboard-response",400,474095,"0.0-3.129-2.129","u552802wfx9abn1",349,"87.csv","","null","resources/images/fishbone.png","null","",NA,NA,NA,NA,""
"image-keyboard-response",401,474404,"0.0-3.130-0.130","u552802wfx9abn1",349,"87.csv","","305.2999999523163","resources/trios/L4T2A3.jpg","38","restless",0.8,0.7,0.5,0.386254093502604,"true"
"image-keyboard-response",402,474822,"0.0-3.130-1.130","u552802wfx9abn1",349,"87.csv","","null","resources/maskTrios/BT2B.jpg","null","",NA,NA,NA,NA,""
"image-keyboard-response",403,476044,"0.0-3.130-2.130","u552802wfx9abn1",349,"87.csv","","null","resources/images/coin2.png","null","",NA,NA,NA,NA,""
"image-keyboard-response",404,476452,"0.0-3.131-0.131","u552802wfx9abn1",349,"87.csv","","405.60000014305115","resources/trios/L4T2A3.jpg","38","restless",0.8,0.7,0.5,0.457927529561529,"true"
"image-keyboard-response",405,476872,"0.0-3.131-1.131","u552802wfx9abn1",349,"87.csv","","null","resources/maskTrios/BT2B.jpg","null","",NA,NA,NA,NA,""
"image-keyboard-response",406,478085,"0.0-3.131-2.131","u552802wfx9abn1",349,"87.csv","","null","resources/images/coin2.png","null","",NA,NA,NA,NA,""
"image-keyboard-response",407,478355,"0.0-3.132-0.132","u552802wfx9abn1",349,"87.csv","","266.90000009536743","resources/trios/L1T2A2.jpg","37","restless",0.7,0.7,0.5,0.276514059486241,"true"
"image-keyboard-response",408,478771,"0.0-3.132-1.132","u552802wfx9abn1",349,"87.csv","","null","resources/maskTrios/L1BB.jpg","null","",NA,NA,NA,NA,""
"image-keyboard-response",409,479976,"0.0-3.132-2.132","u552802wfx9abn1",349,"87.csv","","null","resources/images/coin2.png","null","",NA,NA,NA,NA,""
"image-keyboard-response",410,480376,"0.0-3.133-0.133","u552802wfx9abn1",349,"87.csv","","395.90000009536743","resources/trios/L1T1A3.jpg","38","restless",0.7,0.7,0.5,0.119428886907427,"true"
"image-keyboard-response",411,480792,"0.0-3.133-1.133","u552802wfx9abn1",349,"87.csv","","null","resources/maskTrios/BT1B.jpg","null","",NA,NA,NA,NA,""
"image-keyboard-response",412,482010,"0.0-3.133-2.133","u552802wfx9abn1",349,"87.csv","","null","resources/images/coin2.png","null","",NA,NA,NA,NA,""
"image-keyboard-response",413,482247,"0.0-3.134-0.134","u552802wfx9abn1",349,"87.csv","","233.79999995231628","resources/trios/L1T2A2.jpg","38","restless",0.7,0.7,0.5,0.336443118564196,"true"
"image-keyboard-response",414,482671,"0.0-3.134-1.134","u552802wfx9abn1",349,"87.csv","","null","resources/maskTrios/BT2B.jpg","null","",NA,NA,NA,NA,""
"image-keyboard-response",415,483892,"0.0-3.134-2.134","u552802wfx9abn1",349,"87.csv","","null","resources/images/coin2.png","null","",NA,NA,NA,NA,""
"image-keyboard-response",416,484205,"0.0-3.135-0.135","u552802wfx9abn1",349,"87.csv","","310.2000000476837","resources/trios/L1T2A3.jpg","37","restless",0.7,0.7,0.5,0.339028489424505,"true"
"image-keyboard-response",417,484622,"0.0-3.135-1.135","u552802wfx9abn1",349,"87.csv","","null","resources/maskTrios/L1BB.jpg","null","",NA,NA,NA,NA,""
"image-keyboard-response",418,485836,"0.0-3.135-2.135","u552802wfx9abn1",349,"87.csv","","null","resources/images/coin2.png","null","",NA,NA,NA,NA,""
"image-keyboard-response",419,486093,"0.0-3.136-0.136","u552802wfx9abn1",349,"87.csv","","254.60000014305115","resources/trios/L1T2A2.jpg","38","restless",0.6,0.7,0.5,0.460585244147724,"true"
"image-keyboard-response",420,486506,"0.0-3.136-1.136","u552802wfx9abn1",349,"87.csv","","null","resources/maskTrios/BT2B.jpg","null","",NA,NA,NA,NA,""
"image-keyboard-response",421,487713,"0.0-3.136-2.136","u552802wfx9abn1",349,"87.csv","","null","resources/images/coin2.png","null","",NA,NA,NA,NA,""
"image-keyboard-response",422,487720,"0.0-3.137-0.137","u552802wfx9abn1",349,"87.csv","","3.299999952316284","resources/trios/L4T1A2.jpg","37","restless",0.5,0.7,0.6,0.792278569956624,"false"
"image-keyboard-response",423,488137,"0.0-3.137-1.137","u552802wfx9abn1",349,"87.csv","","null","resources/maskTrios/L4BB.jpg","null","",NA,NA,NA,NA,""
"image-keyboard-response",424,489350,"0.0-3.137-2.137","u552802wfx9abn1",349,"87.csv","","null","resources/images/fishbone.png","null","",NA,NA,NA,NA,""
"image-keyboard-response",425,489372,"0.0-3.138-0.138","u552802wfx9abn1",349,"87.csv","","19","resources/trios/L1T2A2.jpg","38","restless",0.5,0.7,0.6,0.505413464373304,"true"
"image-keyboard-response",426,489791,"0.0-3.138-1.138","u552802wfx9abn1",349,"87.csv","","null","resources/maskTrios/BT2B.jpg","null","",NA,NA,NA,NA,""
"image-keyboard-response",427,491002,"0.0-3.138-2.138","u552802wfx9abn1",349,"87.csv","","null","resources/images/coin2.png","null","",NA,NA,NA,NA,""
"image-keyboard-response",428,491435,"0.0-3.139-0.139","u552802wfx9abn1",349,"87.csv","","430.5","resources/trios/L4T1A3.jpg","38","restless",0.5,0.7,0.6,0.278419856863376,"true"
"image-keyboard-response",429,491852,"0.0-3.139-1.139","u552802wfx9abn1",349,"87.csv","","null","resources/maskTrios/BT1B.jpg","null","",NA,NA,NA,NA,""
"image-keyboard-response",430,493071,"0.0-3.139-2.139","u552802wfx9abn1",349,"87.csv","","null","resources/images/coin2.png","null","",NA,NA,NA,NA,""
"image-keyboard-response",431,493331,"0.0-3.140-0.140","u552802wfx9abn1",349,"87.csv","","257.40000009536743","resources/trios/L4T1A3.jpg","39","restless",0.5,0.7,0.6,0.800519984994057,"false"
"image-keyboard-response",432,493752,"0.0-3.140-1.140","u552802wfx9abn1",349,"87.csv","","null","resources/maskTrios/BBA3.jpg","null","",NA,NA,NA,NA,""
"image-keyboard-response",433,494966,"0.0-3.140-2.140","u552802wfx9abn1",349,"87.csv","","null","resources/images/fishbone.png","null","",NA,NA,NA,NA,""
"image-keyboard-response",434,495318,"0.0-3.141-0.141","u552802wfx9abn1",349,"87.csv","","349.59999990463257","resources/trios/L4T1A2.jpg","38","restless",0.5,0.7,0.6,0.693385433953168,"true"
"image-keyboard-response",435,495741,"0.0-3.141-1.141","u552802wfx9abn1",349,"87.csv","","null","resources/maskTrios/BT1B.jpg","null","",NA,NA,NA,NA,""
"image-keyboard-response",436,496952,"0.0-3.141-2.141","u552802wfx9abn1",349,"87.csv","","null","resources/images/coin2.png","null","",NA,NA,NA,NA,""
"image-keyboard-response",437,497093,"0.0-3.142-0.142","u552802wfx9abn1",349,"87.csv","","137.40000009536743","resources/trios/L1T2A3.jpg","38","restless",0.5,0.7,0.6,0.267024868147449,"true"
"image-keyboard-response",438,497518,"0.0-3.142-1.142","u552802wfx9abn1",349,"87.csv","","null","resources/maskTrios/BT2B.jpg","null","",NA,NA,NA,NA,""
"image-keyboard-response",439,498731,"0.0-3.142-2.142","u552802wfx9abn1",349,"87.csv","","null","resources/images/coin2.png","null","",NA,NA,NA,NA,""
"image-keyboard-response",440,498886,"0.0-3.143-0.143","u552802wfx9abn1",349,"87.csv","","152.40000009536743","resources/trios/L1T1A3.jpg","38","restless",0.5,0.7,0.6,0.026469124623977,"true"
"image-keyboard-response",441,499303,"0.0-3.143-1.143","u552802wfx9abn1",349,"87.csv","","null","resources/maskTrios/BT1B.jpg","null","",NA,NA,NA,NA,""
"image-keyboard-response",442,500523,"0.0-3.143-2.143","u552802wfx9abn1",349,"87.csv","","null","resources/images/coin2.png","null","",NA,NA,NA,NA,""
"image-keyboard-response",443,502673,"0.0-3.144-0.144","u552802wfx9abn1",349,"87.csv","","2146.9000000953674","resources/trios/L4T2A3.jpg","38","restless",0.5,0.8,0.6,0.069851342310896,"true"
"image-keyboard-response",444,503087,"0.0-3.144-1.144","u552802wfx9abn1",349,"87.csv","","null","resources/maskTrios/BT2B.jpg","null","",NA,NA,NA,NA,""
"image-keyboard-response",445,504310,"0.0-3.144-2.144","u552802wfx9abn1",349,"87.csv","","null","resources/images/coin2.png","null","",NA,NA,NA,NA,""
"image-keyboard-response",446,504531,"0.0-3.145-0.145","u552802wfx9abn1",349,"87.csv","","223.90000009536743","resources/trios/L4T2A2.jpg","38","restless",0.5,0.9,0.6,0.811478909549779,"true"
"image-keyboard-response",447,504949,"0.0-3.145-1.145","u552802wfx9abn1",349,"87.csv","","null","resources/maskTrios/BT2B.jpg","null","",NA,NA,NA,NA,""
"image-keyboard-response",448,506159,"0.0-3.145-2.145","u552802wfx9abn1",349,"87.csv","","null","resources/images/coin2.png","null","",NA,NA,NA,NA,""
"image-keyboard-response",449,506660,"0.0-3.146-0.146","u552802wfx9abn1",349,"87.csv","","498.59999990463257","resources/trios/L4T1A2.jpg","38","restless",0.5,0.9,0.6,0.955844744056639,"false"
"image-keyboard-response",450,507077,"0.0-3.146-1.146","u552802wfx9abn1",349,"87.csv","","null","resources/maskTrios/BT1B.jpg","null","",NA,NA,NA,NA,""
"image-keyboard-response",451,508290,"0.0-3.146-2.146","u552802wfx9abn1",349,"87.csv","","null","resources/images/fishbone.png","null","",NA,NA,NA,NA,""
"image-keyboard-response",452,508640,"0.0-3.147-0.147","u552802wfx9abn1",349,"87.csv","","346.60000014305115","resources/trios/L1T2A2.jpg","38","restless",0.4,0.9,0.6,0.516530309773157,"true"
"image-keyboard-response",453,509060,"0.0-3.147-1.147","u552802wfx9abn1",349,"87.csv","","null","resources/maskTrios/BT2B.jpg","null","",NA,NA,NA,NA,""
"image-keyboard-response",454,510273,"0.0-3.147-2.147","u552802wfx9abn1",349,"87.csv","","null","resources/images/coin2.png","null","",NA,NA,NA,NA,""
"image-keyboard-response",455,511002,"0.0-3.148-0.148","u552802wfx9abn1",349,"87.csv","","726","resources/trios/L1T1A3.jpg","38","restless",0.4,0.9,0.6,0.39301693479049,"true"
"image-keyboard-response",456,511411,"0.0-3.148-1.148","u552802wfx9abn1",349,"87.csv","","null","resources/maskTrios/BT1B.jpg","null","",NA,NA,NA,NA,""
"image-keyboard-response",457,512624,"0.0-3.148-2.148","u552802wfx9abn1",349,"87.csv","","null","resources/images/coin2.png","null","",NA,NA,NA,NA,""
"image-keyboard-response",458,512792,"0.0-3.149-0.149","u552802wfx9abn1",349,"87.csv","","164.89999985694885","resources/trios/L1T2A3.jpg","38","restless",0.4,0.9,0.6,0.143647116059787,"true"
"image-keyboard-response",459,513209,"0.0-3.149-1.149","u552802wfx9abn1",349,"87.csv","","null","resources/maskTrios/BT2B.jpg","null","",NA,NA,NA,NA,""
"image-keyboard-response",460,514422,"0.0-3.149-2.149","u552802wfx9abn1",349,"87.csv","","null","resources/images/coin2.png","null","",NA,NA,NA,NA,""
"image-keyboard-response",461,514937,"0.0-3.150-0.150","u552802wfx9abn1",349,"87.csv","","512.5","resources/trios/L4T2A2.jpg","38","restless",0.4,0.9,0.6,0.0656069051907542,"true"
"image-keyboard-response",462,515359,"0.0-3.150-1.150","u552802wfx9abn1",349,"87.csv","","null","resources/maskTrios/BT2B.jpg","null","",NA,NA,NA,NA,""
"image-keyboard-response",463,516572,"0.0-3.150-2.150","u552802wfx9abn1",349,"87.csv","","null","resources/images/coin2.png","null","",NA,NA,NA,NA,""
"image-keyboard-response",464,516786,"0.0-3.151-0.151","u552802wfx9abn1",349,"87.csv","","210.79999995231628","resources/trios/L1T1A3.jpg","38","restless",0.4,0.9,0.5,0.178948695456074,"true"
"image-keyboard-response",465,517208,"0.0-3.151-1.151","u552802wfx9abn1",349,"87.csv","","null","resources/maskTrios/BT1B.jpg","null","",NA,NA,NA,NA,""
"image-keyboard-response",466,518417,"0.0-3.151-2.151","u552802wfx9abn1",349,"87.csv","","null","resources/images/coin2.png","null","",NA,NA,NA,NA,""
"image-keyboard-response",467,518812,"0.0-3.152-0.152","u552802wfx9abn1",349,"87.csv","","391.40000009536743","resources/trios/L4T2A2.jpg","38","restless",0.4,0.9,0.6,0.294416410832629,"true"
"image-keyboard-response",468,519218,"0.0-3.152-1.152","u552802wfx9abn1",349,"87.csv","","null","resources/maskTrios/BT2B.jpg","null","",NA,NA,NA,NA,""
"image-keyboard-response",469,520438,"0.0-3.152-2.152","u552802wfx9abn1",349,"87.csv","","null","resources/images/coin2.png","null","",NA,NA,NA,NA,""
"image-keyboard-response",470,520715,"0.0-3.153-0.153","u552802wfx9abn1",349,"87.csv","","273.89999985694885","resources/trios/L4T1A2.jpg","38","restless",0.4,0.9,0.6,0.841822798551928,"true"
"image-keyboard-response",471,521132,"0.0-3.153-1.153","u552802wfx9abn1",349,"87.csv","","null","resources/maskTrios/BT1B.jpg","null","",NA,NA,NA,NA,""
"image-keyboard-response",472,522340,"0.0-3.153-2.153","u552802wfx9abn1",349,"87.csv","","null","resources/images/coin2.png","null","",NA,NA,NA,NA,""
"image-keyboard-response",473,523016,"0.0-3.154-0.154","u552802wfx9abn1",349,"87.csv","","672.9000000953674","resources/trios/L4T1A2.jpg","39","restless",0.4,0.9,0.6,0.582449403098542,"true"
"image-keyboard-response",474,523441,"0.0-3.154-1.154","u552802wfx9abn1",349,"87.csv","","null","resources/maskTrios/BBA2.jpg","null","",NA,NA,NA,NA,""
"image-keyboard-response",475,524657,"0.0-3.154-2.154","u552802wfx9abn1",349,"87.csv","","null","resources/images/coin2.png","null","",NA,NA,NA,NA,""
"image-keyboard-response",476,524856,"0.0-3.155-0.155","u552802wfx9abn1",349,"87.csv","","196","resources/trios/L1T1A2.jpg","39","restless",0.4,0.9,0.6,0.229740840749506,"true"
"image-keyboard-response",477,525272,"0.0-3.155-1.155","u552802wfx9abn1",349,"87.csv","","null","resources/maskTrios/BBA2.jpg","null","",NA,NA,NA,NA,""
"image-keyboard-response",478,526486,"0.0-3.155-2.155","u552802wfx9abn1",349,"87.csv","","null","resources/images/coin2.png","null","",NA,NA,NA,NA,""
"image-keyboard-response",479,526611,"0.0-3.156-0.156","u552802wfx9abn1",349,"87.csv","","122.20000004768372","resources/trios/L4T1A3.jpg","38","restless",0.4,0.9,0.6,0.35476955008421,"true"
"image-keyboard-response",480,527029,"0.0-3.156-1.156","u552802wfx9abn1",349,"87.csv","","null","resources/maskTrios/BT1B.jpg","null","",NA,NA,NA,NA,""
"image-keyboard-response",481,528235,"0.0-3.156-2.156","u552802wfx9abn1",349,"87.csv","","null","resources/images/coin2.png","null","",NA,NA,NA,NA,""
"image-keyboard-response",482,528328,"0.0-3.157-0.157","u552802wfx9abn1",349,"87.csv","","90.20000004768372","resources/trios/L4T1A3.jpg","38","restless",0.4,0.8,0.6,0.699996488283432,"true"
"image-keyboard-response",483,528745,"0.0-3.157-1.157","u552802wfx9abn1",349,"87.csv","","null","resources/maskTrios/BT1B.jpg","null","",NA,NA,NA,NA,""
"image-keyboard-response",484,529949,"0.0-3.157-2.157","u552802wfx9abn1",349,"87.csv","","null","resources/images/coin2.png","null","",NA,NA,NA,NA,""
"image-keyboard-response",485,530041,"0.0-3.158-0.158","u552802wfx9abn1",349,"87.csv","","89.20000004768372","resources/trios/L1T1A2.jpg","38","restless",0.4,0.7,0.6,0.0364640729223094,"true"
"image-keyboard-response",486,530458,"0.0-3.158-1.158","u552802wfx9abn1",349,"87.csv","","null","resources/maskTrios/BT1B.jpg","null","",NA,NA,NA,NA,""
"image-keyboard-response",487,531672,"0.0-3.158-2.158","u552802wfx9abn1",349,"87.csv","","null","resources/images/coin2.png","null","",NA,NA,NA,NA,""
"image-keyboard-response",488,531895,"0.0-3.159-0.159","u552802wfx9abn1",349,"87.csv","","220.19999980926514","resources/trios/L1T1A2.jpg","38","restless",0.4,0.7,0.6,0.793414322951855,"false"
"image-keyboard-response",489,532314,"0.0-3.159-1.159","u552802wfx9abn1",349,"87.csv","","null","resources/maskTrios/BT1B.jpg","null","",NA,NA,NA,NA,""
"image-keyboard-response",490,533529,"0.0-3.159-2.159","u552802wfx9abn1",349,"87.csv","","null","resources/images/fishbone.png","null","",NA,NA,NA,NA,""
"image-keyboard-response",491,533537,"0.0-3.160-0.160","u552802wfx9abn1",349,"87.csv","","4.200000047683716","resources/trios/L4T2A3.jpg","39","restless",0.4,0.7,0.6,0.435907029154962,"true"
"image-keyboard-response",492,533956,"0.0-3.160-1.160","u552802wfx9abn1",349,"87.csv","","null","resources/maskTrios/BBA3.jpg","null","",NA,NA,NA,NA,""
"image-keyboard-response",493,535168,"0.0-3.160-2.160","u552802wfx9abn1",349,"87.csv","","null","resources/images/coin2.png","null","",NA,NA,NA,NA,""
"image-keyboard-response",494,535492,"0.0-3.161-0.161","u552802wfx9abn1",349,"87.csv","","320.7999999523163","resources/trios/L1T1A3.jpg","39","restless",0.4,0.7,0.6,0.337845503272661,"true"
"image-keyboard-response",495,535909,"0.0-3.161-1.161","u552802wfx9abn1",349,"87.csv","","null","resources/maskTrios/BBA3.jpg","null","",NA,NA,NA,NA,""
"image-keyboard-response",496,537115,"0.0-3.161-2.161","u552802wfx9abn1",349,"87.csv","","null","resources/images/coin2.png","null","",NA,NA,NA,NA,""
"image-keyboard-response",497,604244,"0.0-3.162-0.162","u552802wfx9abn1",349,"87.csv","","67132.80000019073","resources/trios/L4T2A2.jpg","38","restless",0.4,0.7,0.6,0.19254848438368,"true"
"image-keyboard-response",498,604652,"0.0-3.162-1.162","u552802wfx9abn1",349,"87.csv","","null","resources/maskTrios/BT2B.jpg","null","",NA,NA,NA,NA,""
"image-keyboard-response",499,605860,"0.0-3.162-2.162","u552802wfx9abn1",349,"87.csv","","null","resources/images/coin2.png","null","",NA,NA,NA,NA,""
"image-keyboard-response",500,607850,"0.0-3.163-0.163","u552802wfx9abn1",349,"87.csv","","1986.5","resources/trios/L4T1A2.jpg","37","restless",0.4,0.7,0.6,0.847999464972159,"false"
"image-keyboard-response",501,608267,"0.0-3.163-1.163","u552802wfx9abn1",349,"87.csv","","null","resources/maskTrios/L4BB.jpg","null","",NA,NA,NA,NA,""
"image-keyboard-response",502,609479,"0.0-3.163-2.163","u552802wfx9abn1",349,"87.csv","","null","resources/images/fishbone.png","null","",NA,NA,NA,NA,""
"image-keyboard-response",503,610091,"0.0-3.164-0.164","u552802wfx9abn1",349,"87.csv","","608.6000001430511","resources/trios/L4T1A3.jpg","39","restless",0.4,0.7,0.6,0.146966353704384,"true"
"image-keyboard-response",504,610510,"0.0-3.164-1.164","u552802wfx9abn1",349,"87.csv","","null","resources/maskTrios/BBA3.jpg","null","",NA,NA,NA,NA,""
"image-keyboard-response",505,611714,"0.0-3.164-2.164","u552802wfx9abn1",349,"87.csv","","null","resources/images/coin2.png","null","",NA,NA,NA,NA,""
"image-keyboard-response",506,612150,"0.0-3.165-0.165","u552802wfx9abn1",349,"87.csv","","432.30000019073486","resources/trios/L1T1A2.jpg","39","restless",0.4,0.7,0.6,0.493459248004038,"true"
"image-keyboard-response",507,612566,"0.0-3.165-1.165","u552802wfx9abn1",349,"87.csv","","null","resources/maskTrios/BBA2.jpg","null","",NA,NA,NA,NA,""
"image-keyboard-response",508,613780,"0.0-3.165-2.165","u552802wfx9abn1",349,"87.csv","","null","resources/images/coin2.png","null","",NA,NA,NA,NA,""
"image-keyboard-response",509,614217,"0.0-3.166-0.166","u552802wfx9abn1",349,"87.csv","","433.10000014305115","resources/trios/L1T1A3.jpg","37","restless",0.4,0.7,0.7,0.4938812606292,"false"
"image-keyboard-response",510,614641,"0.0-3.166-1.166","u552802wfx9abn1",349,"87.csv","","null","resources/maskTrios/L1BB.jpg","null","",NA,NA,NA,NA,""
"image-keyboard-response",511,615851,"0.0-3.166-2.166","u552802wfx9abn1",349,"87.csv","","null","resources/images/fishbone.png","null","",NA,NA,NA,NA,""
"image-keyboard-response",512,616111,"0.0-3.167-0.167","u552802wfx9abn1",349,"87.csv","","256.30000019073486","resources/trios/L1T2A2.jpg","39","restless",0.4,0.7,0.7,0.0402228056313274,"true"
"image-keyboard-response",513,616524,"0.0-3.167-1.167","u552802wfx9abn1",349,"87.csv","","null","resources/maskTrios/BBA2.jpg","null","",NA,NA,NA,NA,""
"image-keyboard-response",514,617740,"0.0-3.167-2.167","u552802wfx9abn1",349,"87.csv","","null","resources/images/coin2.png","null","",NA,NA,NA,NA,""
"image-keyboard-response",515,618025,"0.0-3.168-0.168","u552802wfx9abn1",349,"87.csv","","282","resources/trios/L4T2A3.jpg","37","restless",0.4,0.7,0.7,0.828903119713195,"false"
"image-keyboard-response",516,618435,"0.0-3.168-1.168","u552802wfx9abn1",349,"87.csv","","null","resources/maskTrios/L4BB.jpg","null","",NA,NA,NA,NA,""
"image-keyboard-response",517,619652,"0.0-3.168-2.168","u552802wfx9abn1",349,"87.csv","","null","resources/images/fishbone.png","null","",NA,NA,NA,NA,""
"image-keyboard-response",518,619946,"0.0-3.169-0.169","u552802wfx9abn1",349,"87.csv","","291.19999980926514","resources/trios/L4T2A2.jpg","38","restless",0.4,0.7,0.7,0.889493774861363,"false"
"image-keyboard-response",519,620365,"0.0-3.169-1.169","u552802wfx9abn1",349,"87.csv","","null","resources/maskTrios/BT2B.jpg","null","",NA,NA,NA,NA,""
"image-keyboard-response",520,621582,"0.0-3.169-2.169","u552802wfx9abn1",349,"87.csv","","null","resources/images/fishbone.png","null","",NA,NA,NA,NA,""
"image-keyboard-response",521,621660,"0.0-3.170-0.170","u552802wfx9abn1",349,"87.csv","","76.19999980926514","resources/trios/L4T1A3.jpg","39","restless",0.3,0.7,0.7,0.787560460191898,"false"
"image-keyboard-response",522,622066,"0.0-3.170-1.170","u552802wfx9abn1",349,"87.csv","","null","resources/maskTrios/BBA3.jpg","null","",NA,NA,NA,NA,""
"image-keyboard-response",523,623279,"0.0-3.170-2.170","u552802wfx9abn1",349,"87.csv","","null","resources/images/fishbone.png","null","",NA,NA,NA,NA,""
"image-keyboard-response",524,623605,"0.0-3.171-0.171","u552802wfx9abn1",349,"87.csv","","322.7000000476837","resources/trios/L4T2A2.jpg","39","restless",0.4,0.7,0.7,0.611853241240981,"true"
"image-keyboard-response",525,624022,"0.0-3.171-1.171","u552802wfx9abn1",349,"87.csv","","null","resources/maskTrios/BBA2.jpg","null","",NA,NA,NA,NA,""
"image-keyboard-response",526,625238,"0.0-3.171-2.171","u552802wfx9abn1",349,"87.csv","","null","resources/images/coin2.png","null","",NA,NA,NA,NA,""
"image-keyboard-response",527,625772,"0.0-3.172-0.172","u552802wfx9abn1",349,"87.csv","","531.3999998569489","resources/trios/L1T2A3.jpg","37","restless",0.5,0.7,0.7,0.346017333617899,"true"
"image-keyboard-response",528,626189,"0.0-3.172-1.172","u552802wfx9abn1",349,"87.csv","","null","resources/maskTrios/L1BB.jpg","null","",NA,NA,NA,NA,""
"image-keyboard-response",529,627403,"0.0-3.172-2.172","u552802wfx9abn1",349,"87.csv","","null","resources/images/coin2.png","null","",NA,NA,NA,NA,""
"image-keyboard-response",530,627678,"0.0-3.173-0.173","u552802wfx9abn1",349,"87.csv","","272.40000009536743","resources/trios/L4T2A2.jpg","39","restless",0.5,0.7,0.7,0.428087776485585,"true"
"image-keyboard-response",531,628097,"0.0-3.173-1.173","u552802wfx9abn1",349,"87.csv","","null","resources/maskTrios/BBA2.jpg","null","",NA,NA,NA,NA,""
"image-keyboard-response",532,629310,"0.0-3.173-2.173","u552802wfx9abn1",349,"87.csv","","null","resources/images/coin2.png","null","",NA,NA,NA,NA,""
"image-keyboard-response",533,629519,"0.0-3.174-0.174","u552802wfx9abn1",349,"87.csv","","206.19999980926514","resources/trios/L1T2A2.jpg","38","restless",0.5,0.7,0.7,0.960276921867964,"false"
"image-keyboard-response",534,629924,"0.0-3.174-1.174","u552802wfx9abn1",349,"87.csv","","null","resources/maskTrios/BT2B.jpg","null","",NA,NA,NA,NA,""
"image-keyboard-response",535,631133,"0.0-3.174-2.174","u552802wfx9abn1",349,"87.csv","","null","resources/images/fishbone.png","null","",NA,NA,NA,NA,""
"image-keyboard-response",536,643182,"0.0-3.175-0.175","u552802wfx9abn1",349,"87.csv","","12046.700000047684","resources/trios/L1T1A2.jpg","39","restless",0.5,0.7,0.7,0.884640630505146,"false"
"image-keyboard-response",537,643595,"0.0-3.175-1.175","u552802wfx9abn1",349,"87.csv","","null","resources/maskTrios/BBA2.jpg","null","",NA,NA,NA,NA,""
"image-keyboard-response",538,644814,"0.0-3.175-2.175","u552802wfx9abn1",349,"87.csv","","null","resources/images/fishbone.png","null","",NA,NA,NA,NA,""
"image-keyboard-response",539,847416,"0.0-3.176-0.176","u552802wfx9abn1",349,"87.csv","","202591.80000019073","resources/trios/L4T2A2.jpg","39","restless",0.5,0.7,0.7,0.47658541755472,"true"
"image-keyboard-response",540,847826,"0.0-3.176-1.176","u552802wfx9abn1",349,"87.csv","","null","resources/maskTrios/BBA2.jpg","null","",NA,NA,NA,NA,""
"image-keyboard-response",541,849034,"0.0-3.176-2.176","u552802wfx9abn1",349,"87.csv","","null","resources/images/coin2.png","null","",NA,NA,NA,NA,""
"image-keyboard-response",542,849533,"0.0-3.177-0.177","u552802wfx9abn1",349,"87.csv","","495.39999985694885","resources/trios/L4T1A3.jpg","39","restless",0.5,0.6,0.7,0.175091095004237,"true"
"image-keyboard-response",543,849938,"0.0-3.177-1.177","u552802wfx9abn1",349,"87.csv","","null","resources/maskTrios/BBA3.jpg","null","",NA,NA,NA,NA,""
"image-keyboard-response",544,851157,"0.0-3.177-2.177","u552802wfx9abn1",349,"87.csv","","null","resources/images/coin2.png","null","",NA,NA,NA,NA,""
"image-keyboard-response",545,851342,"0.0-3.178-0.178","u552802wfx9abn1",349,"87.csv","","182","resources/trios/L1T2A3.jpg","39","restless",0.4,0.6,0.7,0.055157562784186,"true"
"image-keyboard-response",546,851759,"0.0-3.178-1.178","u552802wfx9abn1",349,"87.csv","","null","resources/maskTrios/BBA3.jpg","null","",NA,NA,NA,NA,""
"image-keyboard-response",547,852977,"0.0-3.178-2.178","u552802wfx9abn1",349,"87.csv","","null","resources/images/coin2.png","null","",NA,NA,NA,NA,""
"image-keyboard-response",548,853187,"0.0-3.179-0.179","u552802wfx9abn1",349,"87.csv","","206.40000009536743","resources/trios/L1T2A3.jpg","39","restless",0.4,0.6,0.7,0.664015845395773,"true"
"image-keyboard-response",549,853593,"0.0-3.179-1.179","u552802wfx9abn1",349,"87.csv","","null","resources/maskTrios/BBA3.jpg","null","",NA,NA,NA,NA,""
"image-keyboard-response",550,854806,"0.0-3.179-2.179","u552802wfx9abn1",349,"87.csv","","null","resources/images/coin2.png","null","",NA,NA,NA,NA,""
"image-keyboard-response",551,854915,"0.0-3.180-0.180","u552802wfx9abn1",349,"87.csv","","105.90000009536743","resources/trios/L1T2A3.jpg","39","restless",0.4,0.6,0.7,0.378148890618864,"true"
"image-keyboard-response",552,855333,"0.0-3.180-1.180","u552802wfx9abn1",349,"87.csv","","null","resources/maskTrios/BBA3.jpg","null","",NA,NA,NA,NA,""
"image-keyboard-response",553,856541,"0.0-3.180-2.180","u552802wfx9abn1",349,"87.csv","","null","resources/images/coin2.png","null","",NA,NA,NA,NA,""
"image-keyboard-response",554,857112,"0.0-3.181-0.181","u552802wfx9abn1",349,"87.csv","","569.3999998569489","resources/trios/L4T2A2.jpg","39","restless",0.4,0.6,0.8,0.383333526049661,"true"
"image-keyboard-response",555,857529,"0.0-3.181-1.181","u552802wfx9abn1",349,"87.csv","","null","resources/maskTrios/BBA2.jpg","null","",NA,NA,NA,NA,""
"image-keyboard-response",556,858751,"0.0-3.181-2.181","u552802wfx9abn1",349,"87.csv","","null","resources/images/coin2.png","null","",NA,NA,NA,NA,""
"image-keyboard-response",557,858826,"0.0-3.182-0.182","u552802wfx9abn1",349,"87.csv","","71.40000009536743","resources/trios/L4T1A3.jpg","39","restless",0.4,0.6,0.8,0.34079110322247,"true"
"image-keyboard-response",558,859236,"0.0-3.182-1.182","u552802wfx9abn1",349,"87.csv","","null","resources/maskTrios/BBA3.jpg","null","",NA,NA,NA,NA,""
"image-keyboard-response",559,860455,"0.0-3.182-2.182","u552802wfx9abn1",349,"87.csv","","null","resources/images/coin2.png","null","",NA,NA,NA,NA,""
"image-keyboard-response",560,860638,"0.0-3.183-0.183","u552802wfx9abn1",349,"87.csv","","180.29999995231628","resources/trios/L1T1A3.jpg","39","restless",0.4,0.6,0.7,0.870923023000529,"false"
"image-keyboard-response",561,861058,"0.0-3.183-1.183","u552802wfx9abn1",349,"87.csv","","null","resources/maskTrios/BBA3.jpg","null","",NA,NA,NA,NA,""
"image-keyboard-response",562,862272,"0.0-3.183-2.183","u552802wfx9abn1",349,"87.csv","","null","resources/images/fishbone.png","null","",NA,NA,NA,NA,""
"image-keyboard-response",563,862329,"0.0-3.184-0.184","u552802wfx9abn1",349,"87.csv","","54.09999990463257","resources/trios/L1T1A3.jpg","39","restless",0.3,0.6,0.7,0.574618823642669,"true"
"image-keyboard-response",564,862735,"0.0-3.184-1.184","u552802wfx9abn1",349,"87.csv","","null","resources/maskTrios/BBA3.jpg","null","",NA,NA,NA,NA,""
"image-keyboard-response",565,863954,"0.0-3.184-2.184","u552802wfx9abn1",349,"87.csv","","null","resources/images/coin2.png","null","",NA,NA,NA,NA,""
"image-keyboard-response",566,863957,"0.0-3.185-0.185","u552802wfx9abn1",349,"87.csv","","0.2999999523162842","resources/trios/L1T2A2.jpg","39","restless",0.2,0.5,0.7,0.242978050176782,"true"
"image-keyboard-response",567,864363,"0.0-3.185-1.185","u552802wfx9abn1",349,"87.csv","","null","resources/maskTrios/BBA2.jpg","null","",NA,NA,NA,NA,""
"image-keyboard-response",568,865574,"0.0-3.185-2.185","u552802wfx9abn1",349,"87.csv","","null","resources/images/coin2.png","null","",NA,NA,NA,NA,""
"image-keyboard-response",569,865649,"0.0-3.186-0.186","u552802wfx9abn1",349,"87.csv","","72.29999995231628","resources/trios/L4T2A2.jpg","39","restless",0.2,0.5,0.7,0.511508238788467,"true"
"image-keyboard-response",570,866069,"0.0-3.186-1.186","u552802wfx9abn1",349,"87.csv","","null","resources/maskTrios/BBA2.jpg","null","",NA,NA,NA,NA,""
"image-keyboard-response",571,867287,"0.0-3.186-2.186","u552802wfx9abn1",349,"87.csv","","null","resources/images/coin2.png","null","",NA,NA,NA,NA,""
"image-keyboard-response",572,867609,"0.0-3.187-0.187","u552802wfx9abn1",349,"87.csv","","318.7999999523163","resources/trios/L4T1A3.jpg","39","restless",0.2,0.5,0.7,0.680014248437959,"true"
"image-keyboard-response",573,868026,"0.0-3.187-1.187","u552802wfx9abn1",349,"87.csv","","null","resources/maskTrios/BBA3.jpg","null","",NA,NA,NA,NA,""
"image-keyboard-response",574,869236,"0.0-3.187-2.187","u552802wfx9abn1",349,"87.csv","","null","resources/images/coin2.png","null","",NA,NA,NA,NA,""
"image-keyboard-response",575,869784,"0.0-3.188-0.188","u552802wfx9abn1",349,"87.csv","","545.4000000953674","resources/trios/L1T2A2.jpg","39","restless",0.2,0.5,0.7,0.67584873961644,"true"
"image-keyboard-response",576,870206,"0.0-3.188-1.188","u552802wfx9abn1",349,"87.csv","","null","resources/maskTrios/BBA2.jpg","null","",NA,NA,NA,NA,""
"image-keyboard-response",577,871419,"0.0-3.188-2.188","u552802wfx9abn1",349,"87.csv","","null","resources/images/coin2.png","null","",NA,NA,NA,NA,""
"image-keyboard-response",578,871738,"0.0-3.189-0.189","u552802wfx9abn1",349,"87.csv","","316.2999999523163","resources/trios/L1T1A3.jpg","39","restless",0.2,0.5,0.7,0.670855320783498,"true"
"image-keyboard-response",579,872155,"0.0-3.189-1.189","u552802wfx9abn1",349,"87.csv","","null","resources/maskTrios/BBA3.jpg","null","",NA,NA,NA,NA,""
"image-keyboard-response",580,873362,"0.0-3.189-2.189","u552802wfx9abn1",349,"87.csv","","null","resources/images/coin2.png","null","",NA,NA,NA,NA,""
"image-keyboard-response",581,873590,"0.0-3.190-0.190","u552802wfx9abn1",349,"87.csv","","224.90000009536743","resources/trios/L1T1A3.jpg","39","restless",0.2,0.5,0.7,0.28117092102898,"true"
"image-keyboard-response",582,874006,"0.0-3.190-1.190","u552802wfx9abn1",349,"87.csv","","null","resources/maskTrios/BBA3.jpg","null","",NA,NA,NA,NA,""
"image-keyboard-response",583,875221,"0.0-3.190-2.190","u552802wfx9abn1",349,"87.csv","","null","resources/images/coin2.png","null","",NA,NA,NA,NA,""
"image-keyboard-response",584,875465,"0.0-3.191-0.191","u552802wfx9abn1",349,"87.csv","","241.29999995231628","resources/trios/L4T2A2.jpg","39","restless",0.3,0.5,0.6,0.551407870333208,"true"
"image-keyboard-response",585,875881,"0.0-3.191-1.191","u552802wfx9abn1",349,"87.csv","","null","resources/maskTrios/BBA2.jpg","null","",NA,NA,NA,NA,""
"image-keyboard-response",586,877092,"0.0-3.191-2.191","u552802wfx9abn1",349,"87.csv","","null","resources/images/coin2.png","null","",NA,NA,NA,NA,""
"image-keyboard-response",587,887754,"0.0-3.192-0.192","u552802wfx9abn1",349,"87.csv","","10659.299999952316","resources/trios/L1T1A3.jpg","39","restless",0.3,0.5,0.6,0.673838674784869,"false"
"image-keyboard-response",588,888170,"0.0-3.192-1.192","u552802wfx9abn1",349,"87.csv","","null","resources/maskTrios/BBA3.jpg","null","",NA,NA,NA,NA,""
"image-keyboard-response",589,889386,"0.0-3.192-2.192","u552802wfx9abn1",349,"87.csv","","null","resources/images/fishbone.png","null","",NA,NA,NA,NA,""
"image-keyboard-response",590,889610,"0.0-3.193-0.193","u552802wfx9abn1",349,"87.csv","","220.20000004768372","resources/trios/L1T2A3.jpg","38","restless",0.3,0.5,0.6,0.717832222312179,"false"
"image-keyboard-response",591,890020,"0.0-3.193-1.193","u552802wfx9abn1",349,"87.csv","","null","resources/maskTrios/BT2B.jpg","null","",NA,NA,NA,NA,""
"image-keyboard-response",592,891234,"0.0-3.193-2.193","u552802wfx9abn1",349,"87.csv","","null","resources/images/fishbone.png","null","",NA,NA,NA,NA,""
"image-keyboard-response",593,891296,"0.0-3.194-0.194","u552802wfx9abn1",349,"87.csv","","58.5","resources/trios/L4T1A2.jpg","37","restless",0.3,0.5,0.6,0.603740673963188,"false"
"image-keyboard-response",594,891705,"0.0-3.194-1.194","u552802wfx9abn1",349,"87.csv","","null","resources/maskTrios/L4BB.jpg","null","",NA,NA,NA,NA,""
"image-keyboard-response",595,892913,"0.0-3.194-2.194","u552802wfx9abn1",349,"87.csv","","null","resources/images/fishbone.png","null","",NA,NA,NA,NA,""
"image-keyboard-response",596,893080,"0.0-3.195-0.195","u552802wfx9abn1",349,"87.csv","","164","resources/trios/L4T2A2.jpg","38","restless",0.3,0.5,0.6,0.0606979413113151,"true"
"image-keyboard-response",597,893501,"0.0-3.195-1.195","u552802wfx9abn1",349,"87.csv","","null","resources/maskTrios/BT2B.jpg","null","",NA,NA,NA,NA,""
"image-keyboard-response",598,894717,"0.0-3.195-2.195","u552802wfx9abn1",349,"87.csv","","null","resources/images/coin2.png","null","",NA,NA,NA,NA,""
"image-keyboard-response",599,894739,"0.0-3.196-0.196","u552802wfx9abn1",349,"87.csv","","18.700000047683716","resources/trios/L1T2A2.jpg","37","restless",0.3,0.5,0.6,0.314395951481585,"false"
"image-keyboard-response",600,895152,"0.0-3.196-1.196","u552802wfx9abn1",349,"87.csv","","null","resources/maskTrios/L1BB.jpg","null","",NA,NA,NA,NA,""
"image-keyboard-response",601,896364,"0.0-3.196-2.196","u552802wfx9abn1",349,"87.csv","","null","resources/images/fishbone.png","null","",NA,NA,NA,NA,""
"image-keyboard-response",602,896463,"0.0-3.197-0.197","u552802wfx9abn1",349,"87.csv","","96.40000009536743","resources/trios/L4T1A2.jpg","37","restless",0.3,0.5,0.6,0.76745979775798,"false"
"image-keyboard-response",603,896889,"0.0-3.197-1.197","u552802wfx9abn1",349,"87.csv","","null","resources/maskTrios/L4BB.jpg","null","",NA,NA,NA,NA,""
"image-keyboard-response",604,898104,"0.0-3.197-2.197","u552802wfx9abn1",349,"87.csv","","null","resources/images/fishbone.png","null","",NA,NA,NA,NA,""
"image-keyboard-response",605,898353,"0.0-3.198-0.198","u552802wfx9abn1",349,"87.csv","","246.30000019073486","resources/trios/L4T1A3.jpg","38","restless",0.3,0.5,0.6,0.147966889759258,"true"
"image-keyboard-response",606,898776,"0.0-3.198-1.198","u552802wfx9abn1",349,"87.csv","","null","resources/maskTrios/BT1B.jpg","null","",NA,NA,NA,NA,""
"image-keyboard-response",607,899998,"0.0-3.198-2.198","u552802wfx9abn1",349,"87.csv","","null","resources/images/coin2.png","null","",NA,NA,NA,NA,""
"image-keyboard-response",608,900184,"0.0-3.199-0.199","u552802wfx9abn1",349,"87.csv","","181.90000009536743","resources/trios/L4T1A2.jpg","38","restless",0.3,0.5,0.6,0.106945499113004,"true"
"image-keyboard-response",609,900606,"0.0-3.199-1.199","u552802wfx9abn1",349,"87.csv","","null","resources/maskTrios/BT1B.jpg","null","",NA,NA,NA,NA,""
"image-keyboard-response",610,901815,"0.0-3.199-2.199","u552802wfx9abn1",349,"87.csv","","null","resources/images/coin2.png","null","",NA,NA,NA,NA,""
