"trial_type","trial_index","time_elapsed","internal_node_id","subject","participantCode","walkNumber","success","rt","stimulus","key_press","test_part","leftProb","midProb","rightProb","generatedNum","correct"
"pavlovia",0,1314,"0.0-0.0","u0yub8vwgvco2lh",578,"195.csv","","","","","",NA,NA,NA,NA,""
"fullscreen",1,6255,"0.0-1.0","u0yub8vwgvco2lh",578,"195.csv","true","","","","",NA,NA,NA,NA,""
"html-keyboard-response",2,14809,"0.0-2.0-0.0","u0yub8vwgvco2lh",578,"195.csv","","8551.799999999814","<p><font size='6'>Arrrgh!</p></font><p>Can you be the best pirate? Try to find lots of gold! But beware, some islands have more gold than others, and over time, the island with the most gold may change. Can YOU figure it out? </p><font size='6'>GOOD LUCK, CAPTAIN!!!</font><p>Press any key to begin</p>","32","",NA,NA,NA,NA,""
"image-keyboard-response",3,17817,"0.0-2.0-1.0","u0yub8vwgvco2lh",578,"195.csv","","null","resources/image_sets/111.png","null","",NA,NA,NA,NA,""
"image-keyboard-response",4,24060,"0.0-2.0-2.0","u0yub8vwgvco2lh",578,"195.csv","","6239.899999999907","resources/image_sets/left_highlight.png","37","",NA,NA,NA,NA,""
"image-keyboard-response",5,26810,"0.0-2.0-3.0","u0yub8vwgvco2lh",578,"195.csv","","2748","resources/image_sets/mid_highlight.png","38","",NA,NA,NA,NA,""
"image-keyboard-response",6,30004,"0.0-2.0-4.0","u0yub8vwgvco2lh",578,"195.csv","","3191.2000000001863","resources/image_sets/right_highlight.png","39","",NA,NA,NA,NA,""
"image-keyboard-response",7,33287,"0.0-2.0-5.0","u0yub8vwgvco2lh",578,"195.csv","","3280.600000000093","resources/image_sets/111.png","13","",NA,NA,NA,NA,""
"image-keyboard-response",8,35867,"0.0-2.0-6.0","u0yub8vwgvco2lh",578,"195.csv","","2576.7000000001863","resources/images/coin2.png","13","",NA,NA,NA,NA,""
"image-keyboard-response",9,39156,"0.0-2.0-7.0","u0yub8vwgvco2lh",578,"195.csv","","3287.1999999997206","resources/images/fishbone.png","13","",NA,NA,NA,NA,""
"html-keyboard-response",10,40394,"0.0-2.0-8.0","u0yub8vwgvco2lh",578,"195.csv","","1236.0999999996275","<p>Your first journey will be a long one, but you will get a well deserved break at the end</p><p>After the break you will have four more journeys, but each will be much shorter than the first, and you will have breaks in between each</p><p>Press Enter to begin</p>","13","",NA,NA,NA,NA,""
"image-keyboard-response",11,42183,"0.0-3.0-0.0","u0yub8vwgvco2lh",578,"195.csv","","1785.6000000000931","resources/trios/L4T4A1.jpg","37","restless",0.9,0.7,0.3,0.406644449433023,"true"
"image-keyboard-response",12,42591,"0.0-3.0-1.0","u0yub8vwgvco2lh",578,"195.csv","","null","resources/maskTrios/L4BB.jpg","null","",NA,NA,NA,NA,""
"image-keyboard-response",13,43800,"0.0-3.0-2.0","u0yub8vwgvco2lh",578,"195.csv","","null","resources/images/coin2.png","null","",NA,NA,NA,NA,""
"image-keyboard-response",14,45252,"0.0-3.1-0.1","u0yub8vwgvco2lh",578,"195.csv","","1448.7000000001863","resources/trios/L2T2A1.jpg","37","restless",0.9,0.7,0.3,0.718895128359734,"true"
"image-keyboard-response",15,45660,"0.0-3.1-1.1","u0yub8vwgvco2lh",578,"195.csv","","null","resources/maskTrios/L2BB.jpg","null","",NA,NA,NA,NA,""
"image-keyboard-response",16,46867,"0.0-3.1-2.1","u0yub8vwgvco2lh",578,"195.csv","","null","resources/images/coin2.png","null","",NA,NA,NA,NA,""
"image-keyboard-response",17,47373,"0.0-3.2-0.2","u0yub8vwgvco2lh",578,"195.csv","","502.3000000002794","resources/trios/L2T2A1.jpg","39","restless",0.8,0.7,0.3,0.491327343578188,"false"
"image-keyboard-response",18,47777,"0.0-3.2-1.2","u0yub8vwgvco2lh",578,"195.csv","","null","resources/maskTrios/BBA1.jpg","null","",NA,NA,NA,NA,""
"image-keyboard-response",19,48983,"0.0-3.2-2.2","u0yub8vwgvco2lh",578,"195.csv","","null","resources/images/fishbone.png","null","",NA,NA,NA,NA,""
"image-keyboard-response",20,49654,"0.0-3.3-0.3","u0yub8vwgvco2lh",578,"195.csv","","668.7999999998137","resources/trios/L2T4A2.jpg","37","restless",0.8,0.7,0.3,0.49613389913015,"true"
"image-keyboard-response",21,50058,"0.0-3.3-1.3","u0yub8vwgvco2lh",578,"195.csv","","null","resources/maskTrios/L2BB.jpg","null","",NA,NA,NA,NA,""
"image-keyboard-response",22,51266,"0.0-3.3-2.3","u0yub8vwgvco2lh",578,"195.csv","","null","resources/images/coin2.png","null","",NA,NA,NA,NA,""
"image-keyboard-response",23,52535,"0.0-3.4-0.4","u0yub8vwgvco2lh",578,"195.csv","","1266.6000000000931","resources/trios/L4T2A2.jpg","37","restless",0.8,0.7,0.3,0.699984649028417,"true"
"image-keyboard-response",24,52941,"0.0-3.4-1.4","u0yub8vwgvco2lh",578,"195.csv","","null","resources/maskTrios/L4BB.jpg","null","",NA,NA,NA,NA,""
"image-keyboard-response",25,54146,"0.0-3.4-2.4","u0yub8vwgvco2lh",578,"195.csv","","null","resources/images/coin2.png","null","",NA,NA,NA,NA,""
"image-keyboard-response",26,55249,"0.0-3.5-0.5","u0yub8vwgvco2lh",578,"195.csv","","1100.1999999997206","resources/trios/L2T2A2.jpg","37","restless",0.8,0.7,0.3,0.150253543263811,"true"
"image-keyboard-response",27,55655,"0.0-3.5-1.5","u0yub8vwgvco2lh",578,"195.csv","","null","resources/maskTrios/L2BB.jpg","null","",NA,NA,NA,NA,""
"image-keyboard-response",28,56860,"0.0-3.5-2.5","u0yub8vwgvco2lh",578,"195.csv","","null","resources/images/coin2.png","null","",NA,NA,NA,NA,""
"image-keyboard-response",29,57645,"0.0-3.6-0.6","u0yub8vwgvco2lh",578,"195.csv","","782.2999999998137","resources/trios/L4T2A2.jpg","37","restless",0.8,0.7,0.3,0.998681279856228,"false"
"image-keyboard-response",30,58054,"0.0-3.6-1.6","u0yub8vwgvco2lh",578,"195.csv","","null","resources/maskTrios/L4BB.jpg","null","",NA,NA,NA,NA,""
"image-keyboard-response",31,59258,"0.0-3.6-2.6","u0yub8vwgvco2lh",578,"195.csv","","null","resources/images/fishbone.png","null","",NA,NA,NA,NA,""
"image-keyboard-response",32,60291,"0.0-3.7-0.7","u0yub8vwgvco2lh",578,"195.csv","","1029.7999999998137","resources/trios/L4T2A1.jpg","37","restless",0.8,0.7,0.4,0.947904133471427,"false"
"image-keyboard-response",33,60698,"0.0-3.7-1.7","u0yub8vwgvco2lh",578,"195.csv","","null","resources/maskTrios/L4BB.jpg","null","",NA,NA,NA,NA,""
"image-keyboard-response",34,61903,"0.0-3.7-2.7","u0yub8vwgvco2lh",578,"195.csv","","null","resources/images/fishbone.png","null","",NA,NA,NA,NA,""
"image-keyboard-response",35,62848,"0.0-3.8-0.8","u0yub8vwgvco2lh",578,"195.csv","","942","resources/trios/L4T2A1.jpg","38","restless",0.8,0.7,0.4,0.808721554707654,"false"
"image-keyboard-response",36,63256,"0.0-3.8-1.8","u0yub8vwgvco2lh",578,"195.csv","","null","resources/maskTrios/BT2B.jpg","null","",NA,NA,NA,NA,""
"image-keyboard-response",37,64464,"0.0-3.8-2.8","u0yub8vwgvco2lh",578,"195.csv","","null","resources/images/fishbone.png","null","",NA,NA,NA,NA,""
"image-keyboard-response",38,64871,"0.0-3.9-0.9","u0yub8vwgvco2lh",578,"195.csv","","404.59999999962747","resources/trios/L4T4A1.jpg","39","restless",0.8,0.7,0.4,0.136643710156333,"true"
"image-keyboard-response",39,65278,"0.0-3.9-1.9","u0yub8vwgvco2lh",578,"195.csv","","null","resources/maskTrios/BBA1.jpg","null","",NA,NA,NA,NA,""
"image-keyboard-response",40,66486,"0.0-3.9-2.9","u0yub8vwgvco2lh",578,"195.csv","","null","resources/images/coin2.png","null","",NA,NA,NA,NA,""
"image-keyboard-response",41,66908,"0.0-3.10-0.10","u0yub8vwgvco2lh",578,"195.csv","","418.79999999981374","resources/trios/L4T4A1.jpg","39","restless",0.7,0.7,0.4,0.152129341296874,"true"
"image-keyboard-response",42,67312,"0.0-3.10-1.10","u0yub8vwgvco2lh",578,"195.csv","","null","resources/maskTrios/BBA1.jpg","null","",NA,NA,NA,NA,""
"image-keyboard-response",43,68520,"0.0-3.10-2.10","u0yub8vwgvco2lh",578,"195.csv","","null","resources/images/coin2.png","null","",NA,NA,NA,NA,""
"image-keyboard-response",44,68845,"0.0-3.11-0.11","u0yub8vwgvco2lh",578,"195.csv","","321.39999999990687","resources/trios/L4T4A2.jpg","39","restless",0.7,0.7,0.4,0.985876872574314,"false"
"image-keyboard-response",45,69253,"0.0-3.11-1.11","u0yub8vwgvco2lh",578,"195.csv","","null","resources/maskTrios/BBA2.jpg","null","",NA,NA,NA,NA,""
"image-keyboard-response",46,70457,"0.0-3.11-2.11","u0yub8vwgvco2lh",578,"195.csv","","null","resources/images/fishbone.png","null","",NA,NA,NA,NA,""
"image-keyboard-response",47,70821,"0.0-3.12-0.12","u0yub8vwgvco2lh",578,"195.csv","","361.6999999997206","resources/trios/L4T2A2.jpg","38","restless",0.7,0.7,0.5,0.746051356183815,"false"
"image-keyboard-response",48,71229,"0.0-3.12-1.12","u0yub8vwgvco2lh",578,"195.csv","","null","resources/maskTrios/BT2B.jpg","null","",NA,NA,NA,NA,""
"image-keyboard-response",49,72434,"0.0-3.12-2.12","u0yub8vwgvco2lh",578,"195.csv","","null","resources/images/fishbone.png","null","",NA,NA,NA,NA,""
"image-keyboard-response",50,73180,"0.0-3.13-0.13","u0yub8vwgvco2lh",578,"195.csv","","743.1000000000931","resources/trios/L2T4A2.jpg","37","restless",0.7,0.7,0.5,0.579320058450559,"true"
"image-keyboard-response",51,73584,"0.0-3.13-1.13","u0yub8vwgvco2lh",578,"195.csv","","null","resources/maskTrios/L2BB.jpg","null","",NA,NA,NA,NA,""
"image-keyboard-response",52,74792,"0.0-3.13-2.13","u0yub8vwgvco2lh",578,"195.csv","","null","resources/images/coin2.png","null","",NA,NA,NA,NA,""
"image-keyboard-response",53,75890,"0.0-3.14-0.14","u0yub8vwgvco2lh",578,"195.csv","","1095.7000000001863","resources/trios/L4T4A2.jpg","37","restless",0.7,0.7,0.5,0.392129495789921,"true"
"image-keyboard-response",54,76295,"0.0-3.14-1.14","u0yub8vwgvco2lh",578,"195.csv","","null","resources/maskTrios/L4BB.jpg","null","",NA,NA,NA,NA,""
"image-keyboard-response",55,77500,"0.0-3.14-2.14","u0yub8vwgvco2lh",578,"195.csv","","null","resources/images/coin2.png","null","",NA,NA,NA,NA,""
"image-keyboard-response",56,78409,"0.0-3.15-0.15","u0yub8vwgvco2lh",578,"195.csv","","906.0999999996275","resources/trios/L2T2A1.jpg","37","restless",0.7,0.7,0.5,0.442800246489468,"true"
"image-keyboard-response",57,78815,"0.0-3.15-1.15","u0yub8vwgvco2lh",578,"195.csv","","null","resources/maskTrios/L2BB.jpg","null","",NA,NA,NA,NA,""
"image-keyboard-response",58,80022,"0.0-3.15-2.15","u0yub8vwgvco2lh",578,"195.csv","","null","resources/images/coin2.png","null","",NA,NA,NA,NA,""
"image-keyboard-response",59,80309,"0.0-3.16-0.16","u0yub8vwgvco2lh",578,"195.csv","","283.89999999990687","resources/trios/L2T4A1.jpg","37","restless",0.7,0.7,0.5,0.472936381566005,"true"
"image-keyboard-response",60,80717,"0.0-3.16-1.16","u0yub8vwgvco2lh",578,"195.csv","","null","resources/maskTrios/L2BB.jpg","null","",NA,NA,NA,NA,""
"image-keyboard-response",61,81923,"0.0-3.16-2.16","u0yub8vwgvco2lh",578,"195.csv","","null","resources/images/coin2.png","null","",NA,NA,NA,NA,""
"image-keyboard-response",62,82392,"0.0-3.17-0.17","u0yub8vwgvco2lh",578,"195.csv","","466.79999999981374","resources/trios/L2T2A1.jpg","37","restless",0.7,0.6,0.5,0.855754026390409,"false"
"image-keyboard-response",63,82799,"0.0-3.17-1.17","u0yub8vwgvco2lh",578,"195.csv","","null","resources/maskTrios/L2BB.jpg","null","",NA,NA,NA,NA,""
"image-keyboard-response",64,84005,"0.0-3.17-2.17","u0yub8vwgvco2lh",578,"195.csv","","null","resources/images/fishbone.png","null","",NA,NA,NA,NA,""
"image-keyboard-response",65,84264,"0.0-3.18-0.18","u0yub8vwgvco2lh",578,"195.csv","","256.20000000018626","resources/trios/L2T2A2.jpg","39","restless",0.7,0.6,0.6,0.0882151426777411,"true"
"image-keyboard-response",66,84672,"0.0-3.18-1.18","u0yub8vwgvco2lh",578,"195.csv","","null","resources/maskTrios/BBA2.jpg","null","",NA,NA,NA,NA,""
"image-keyboard-response",67,85876,"0.0-3.18-2.18","u0yub8vwgvco2lh",578,"195.csv","","null","resources/images/coin2.png","null","",NA,NA,NA,NA,""
"image-keyboard-response",68,86331,"0.0-3.19-0.19","u0yub8vwgvco2lh",578,"195.csv","","451.89999999990687","resources/trios/L4T2A2.jpg","39","restless",0.7,0.6,0.6,0.134065296895135,"true"
"image-keyboard-response",69,86736,"0.0-3.19-1.19","u0yub8vwgvco2lh",578,"195.csv","","null","resources/maskTrios/BBA2.jpg","null","",NA,NA,NA,NA,""
"image-keyboard-response",70,87944,"0.0-3.19-2.19","u0yub8vwgvco2lh",578,"195.csv","","null","resources/images/coin2.png","null","",NA,NA,NA,NA,""
"image-keyboard-response",71,89004,"0.0-3.20-0.20","u0yub8vwgvco2lh",578,"195.csv","","1056.5","resources/trios/L2T2A2.jpg","37","restless",0.7,0.6,0.6,0.0082548372567961,"true"
"image-keyboard-response",72,89410,"0.0-3.20-1.20","u0yub8vwgvco2lh",578,"195.csv","","null","resources/maskTrios/L2BB.jpg","null","",NA,NA,NA,NA,""
"image-keyboard-response",73,90614,"0.0-3.20-2.20","u0yub8vwgvco2lh",578,"195.csv","","null","resources/images/coin2.png","null","",NA,NA,NA,NA,""
"image-keyboard-response",74,91071,"0.0-3.21-0.21","u0yub8vwgvco2lh",578,"195.csv","","453.40000000037253","resources/trios/L4T2A1.jpg","37","restless",0.7,0.6,0.6,0.665263843206561,"true"
"image-keyboard-response",75,91479,"0.0-3.21-1.21","u0yub8vwgvco2lh",578,"195.csv","","null","resources/maskTrios/L4BB.jpg","null","",NA,NA,NA,NA,""
"image-keyboard-response",76,92687,"0.0-3.21-2.21","u0yub8vwgvco2lh",578,"195.csv","","null","resources/images/coin2.png","null","",NA,NA,NA,NA,""
"image-keyboard-response",77,93080,"0.0-3.22-0.22","u0yub8vwgvco2lh",578,"195.csv","","389.89999999990687","resources/trios/L2T2A1.jpg","39","restless",0.7,0.6,0.6,0.747165763645315,"false"
"image-keyboard-response",78,93483,"0.0-3.22-1.22","u0yub8vwgvco2lh",578,"195.csv","","null","resources/maskTrios/BBA1.jpg","null","",NA,NA,NA,NA,""
"image-keyboard-response",79,94687,"0.0-3.22-2.22","u0yub8vwgvco2lh",578,"195.csv","","null","resources/images/fishbone.png","null","",NA,NA,NA,NA,""
"image-keyboard-response",80,95045,"0.0-3.23-0.23","u0yub8vwgvco2lh",578,"195.csv","","354.89999999990687","resources/trios/L2T4A1.jpg","39","restless",0.7,0.6,0.6,0.850424353186194,"false"
"image-keyboard-response",81,95454,"0.0-3.23-1.23","u0yub8vwgvco2lh",578,"195.csv","","null","resources/maskTrios/BBA1.jpg","null","",NA,NA,NA,NA,""
"image-keyboard-response",82,96659,"0.0-3.23-2.23","u0yub8vwgvco2lh",578,"195.csv","","null","resources/images/fishbone.png","null","",NA,NA,NA,NA,""
"image-keyboard-response",83,96948,"0.0-3.24-0.24","u0yub8vwgvco2lh",578,"195.csv","","286","resources/trios/L2T2A2.jpg","37","restless",0.7,0.6,0.6,0.829949451408031,"false"
"image-keyboard-response",84,97351,"0.0-3.24-1.24","u0yub8vwgvco2lh",578,"195.csv","","null","resources/maskTrios/L2BB.jpg","null","",NA,NA,NA,NA,""
"image-keyboard-response",85,98558,"0.0-3.24-2.24","u0yub8vwgvco2lh",578,"195.csv","","null","resources/images/fishbone.png","null","",NA,NA,NA,NA,""
"image-keyboard-response",86,98823,"0.0-3.25-0.25","u0yub8vwgvco2lh",578,"195.csv","","262","resources/trios/L2T4A1.jpg","38","restless",0.7,0.6,0.6,0.7209755808249,"false"
"image-keyboard-response",87,99231,"0.0-3.25-1.25","u0yub8vwgvco2lh",578,"195.csv","","null","resources/maskTrios/BT4B.jpg","null","",NA,NA,NA,NA,""
"image-keyboard-response",88,100438,"0.0-3.25-2.25","u0yub8vwgvco2lh",578,"195.csv","","null","resources/images/fishbone.png","null","",NA,NA,NA,NA,""
"image-keyboard-response",89,100702,"0.0-3.26-0.26","u0yub8vwgvco2lh",578,"195.csv","","260.60000000009313","resources/trios/L2T2A2.jpg","39","restless",0.7,0.6,0.6,0.870858311256822,"false"
"image-keyboard-response",90,101110,"0.0-3.26-1.26","u0yub8vwgvco2lh",578,"195.csv","","null","resources/maskTrios/BBA2.jpg","null","",NA,NA,NA,NA,""
"image-keyboard-response",91,102317,"0.0-3.26-2.26","u0yub8vwgvco2lh",578,"195.csv","","null","resources/images/fishbone.png","null","",NA,NA,NA,NA,""
"image-keyboard-response",92,102615,"0.0-3.27-0.27","u0yub8vwgvco2lh",578,"195.csv","","295.79999999981374","resources/trios/L2T2A1.jpg","37","restless",0.7,0.6,0.7,0.686803801716981,"true"
"image-keyboard-response",93,103023,"0.0-3.27-1.27","u0yub8vwgvco2lh",578,"195.csv","","null","resources/maskTrios/L2BB.jpg","null","",NA,NA,NA,NA,""
"image-keyboard-response",94,104231,"0.0-3.27-2.27","u0yub8vwgvco2lh",578,"195.csv","","null","resources/images/coin2.png","null","",NA,NA,NA,NA,""
"image-keyboard-response",95,104263,"0.0-3.28-0.28","u0yub8vwgvco2lh",578,"195.csv","","28.5","resources/trios/L2T2A2.jpg","37","restless",0.7,0.6,0.8,0.699579544046525,"true"
"image-keyboard-response",96,104670,"0.0-3.28-1.28","u0yub8vwgvco2lh",578,"195.csv","","null","resources/maskTrios/L2BB.jpg","null","",NA,NA,NA,NA,""
"image-keyboard-response",97,105877,"0.0-3.28-2.28","u0yub8vwgvco2lh",578,"195.csv","","null","resources/images/coin2.png","null","",NA,NA,NA,NA,""
"image-keyboard-response",98,106246,"0.0-3.29-0.29","u0yub8vwgvco2lh",578,"195.csv","","366","resources/trios/L2T2A1.jpg","37","restless",0.7,0.6,0.8,0.846628877518063,"false"
"image-keyboard-response",99,106649,"0.0-3.29-1.29","u0yub8vwgvco2lh",578,"195.csv","","null","resources/maskTrios/L2BB.jpg","null","",NA,NA,NA,NA,""
"image-keyboard-response",100,107852,"0.0-3.29-2.29","u0yub8vwgvco2lh",578,"195.csv","","null","resources/images/fishbone.png","null","",NA,NA,NA,NA,""
"image-keyboard-response",101,107953,"0.0-3.30-0.30","u0yub8vwgvco2lh",578,"195.csv","","98.60000000009313","resources/trios/L4T2A1.jpg","38","restless",0.7,0.6,0.8,0.128386003959512,"true"
"image-keyboard-response",102,108361,"0.0-3.30-1.30","u0yub8vwgvco2lh",578,"195.csv","","null","resources/maskTrios/BT2B.jpg","null","",NA,NA,NA,NA,""
"image-keyboard-response",103,109566,"0.0-3.30-2.30","u0yub8vwgvco2lh",578,"195.csv","","null","resources/images/coin2.png","null","",NA,NA,NA,NA,""
"image-keyboard-response",104,109820,"0.0-3.31-0.31","u0yub8vwgvco2lh",578,"195.csv","","249","resources/trios/L4T4A2.jpg","38","restless",0.7,0.6,0.8,0.0664926077037977,"true"
"image-keyboard-response",105,110226,"0.0-3.31-1.31","u0yub8vwgvco2lh",578,"195.csv","","null","resources/maskTrios/BT4B.jpg","null","",NA,NA,NA,NA,""
"image-keyboard-response",106,111434,"0.0-3.31-2.31","u0yub8vwgvco2lh",578,"195.csv","","null","resources/images/coin2.png","null","",NA,NA,NA,NA,""
"image-keyboard-response",107,112070,"0.0-3.32-0.32","u0yub8vwgvco2lh",578,"195.csv","","633.5","resources/trios/L2T2A2.jpg","38","restless",0.7,0.6,0.8,0.977911876480842,"false"
"image-keyboard-response",108,112479,"0.0-3.32-1.32","u0yub8vwgvco2lh",578,"195.csv","","null","resources/maskTrios/BT2B.jpg","null","",NA,NA,NA,NA,""
"image-keyboard-response",109,113684,"0.0-3.32-2.32","u0yub8vwgvco2lh",578,"195.csv","","null","resources/images/fishbone.png","null","",NA,NA,NA,NA,""
"image-keyboard-response",110,113935,"0.0-3.33-0.33","u0yub8vwgvco2lh",578,"195.csv","","247.70000000018626","resources/trios/L4T4A2.jpg","39","restless",0.7,0.6,0.8,0.726443776886614,"true"
"image-keyboard-response",111,114342,"0.0-3.33-1.33","u0yub8vwgvco2lh",578,"195.csv","","null","resources/maskTrios/BBA2.jpg","null","",NA,NA,NA,NA,""
"image-keyboard-response",112,115549,"0.0-3.33-2.33","u0yub8vwgvco2lh",578,"195.csv","","null","resources/images/coin2.png","null","",NA,NA,NA,NA,""
"image-keyboard-response",113,115776,"0.0-3.34-0.34","u0yub8vwgvco2lh",578,"195.csv","","222.70000000018626","resources/trios/L4T2A1.jpg","39","restless",0.7,0.6,0.8,0.389892814445148,"true"
"image-keyboard-response",114,116184,"0.0-3.34-1.34","u0yub8vwgvco2lh",578,"195.csv","","null","resources/maskTrios/BBA1.jpg","null","",NA,NA,NA,NA,""
"image-keyboard-response",115,117391,"0.0-3.34-2.34","u0yub8vwgvco2lh",578,"195.csv","","null","resources/images/coin2.png","null","",NA,NA,NA,NA,""
"image-keyboard-response",116,118021,"0.0-3.35-0.35","u0yub8vwgvco2lh",578,"195.csv","","627","resources/trios/L2T4A1.jpg","37","restless",0.7,0.6,0.8,0.684205559031381,"true"
"image-keyboard-response",117,118429,"0.0-3.35-1.35","u0yub8vwgvco2lh",578,"195.csv","","null","resources/maskTrios/L2BB.jpg","null","",NA,NA,NA,NA,""
"image-keyboard-response",118,119633,"0.0-3.35-2.35","u0yub8vwgvco2lh",578,"195.csv","","null","resources/images/coin2.png","null","",NA,NA,NA,NA,""
"image-keyboard-response",119,119768,"0.0-3.36-0.36","u0yub8vwgvco2lh",578,"195.csv","","131.3000000002794","resources/trios/L2T4A1.jpg","37","restless",0.7,0.6,0.8,0.17326895942882,"true"
"image-keyboard-response",120,120173,"0.0-3.36-1.36","u0yub8vwgvco2lh",578,"195.csv","","null","resources/maskTrios/L2BB.jpg","null","",NA,NA,NA,NA,""
"image-keyboard-response",121,121380,"0.0-3.36-2.36","u0yub8vwgvco2lh",578,"195.csv","","null","resources/images/coin2.png","null","",NA,NA,NA,NA,""
"image-keyboard-response",122,121768,"0.0-3.37-0.37","u0yub8vwgvco2lh",578,"195.csv","","384.70000000018626","resources/trios/L2T4A2.jpg","37","restless",0.7,0.5,0.9,0.747546948827958,"false"
"image-keyboard-response",123,122171,"0.0-3.37-1.37","u0yub8vwgvco2lh",578,"195.csv","","null","resources/maskTrios/L2BB.jpg","null","",NA,NA,NA,NA,""
"image-keyboard-response",124,123379,"0.0-3.37-2.37","u0yub8vwgvco2lh",578,"195.csv","","null","resources/images/fishbone.png","null","",NA,NA,NA,NA,""
"image-keyboard-response",125,123491,"0.0-3.38-0.38","u0yub8vwgvco2lh",578,"195.csv","","108.90000000037253","resources/trios/L2T4A2.jpg","38","restless",0.7,0.5,0.9,0.270246892698796,"true"
"image-keyboard-response",126,123894,"0.0-3.38-1.38","u0yub8vwgvco2lh",578,"195.csv","","null","resources/maskTrios/BT4B.jpg","null","",NA,NA,NA,NA,""
"image-keyboard-response",127,125099,"0.0-3.38-2.38","u0yub8vwgvco2lh",578,"195.csv","","null","resources/images/coin2.png","null","",NA,NA,NA,NA,""
"image-keyboard-response",128,125760,"0.0-3.39-0.39","u0yub8vwgvco2lh",578,"195.csv","","658.5","resources/trios/L4T4A1.jpg","38","restless",0.7,0.5,0.9,0.176177622869326,"true"
"image-keyboard-response",129,126168,"0.0-3.39-1.39","u0yub8vwgvco2lh",578,"195.csv","","null","resources/maskTrios/BT4B.jpg","null","",NA,NA,NA,NA,""
"image-keyboard-response",130,127374,"0.0-3.39-2.39","u0yub8vwgvco2lh",578,"195.csv","","null","resources/images/coin2.png","null","",NA,NA,NA,NA,""
"image-keyboard-response",131,127847,"0.0-3.40-0.40","u0yub8vwgvco2lh",578,"195.csv","","471.10000000009313","resources/trios/L4T2A1.jpg","37","restless",0.7,0.5,0.8,0.402221253511108,"true"
"image-keyboard-response",132,128255,"0.0-3.40-1.40","u0yub8vwgvco2lh",578,"195.csv","","null","resources/maskTrios/L4BB.jpg","null","",NA,NA,NA,NA,""
"image-keyboard-response",133,129463,"0.0-3.40-2.40","u0yub8vwgvco2lh",578,"195.csv","","null","resources/images/coin2.png","null","",NA,NA,NA,NA,""
"image-keyboard-response",134,130062,"0.0-3.41-0.41","u0yub8vwgvco2lh",578,"195.csv","","596.2999999998137","resources/trios/L4T4A2.jpg","38","restless",0.7,0.5,0.8,0.797471520502455,"false"
"image-keyboard-response",135,130470,"0.0-3.41-1.41","u0yub8vwgvco2lh",578,"195.csv","","null","resources/maskTrios/BT4B.jpg","null","",NA,NA,NA,NA,""
"image-keyboard-response",136,131672,"0.0-3.41-2.41","u0yub8vwgvco2lh",578,"195.csv","","null","resources/images/fishbone.png","null","",NA,NA,NA,NA,""
"image-keyboard-response",137,131990,"0.0-3.42-0.42","u0yub8vwgvco2lh",578,"195.csv","","314.39999999990687","resources/trios/L2T4A1.jpg","37","restless",0.7,0.5,0.8,0.0413626673333731,"true"
"image-keyboard-response",138,132398,"0.0-3.42-1.42","u0yub8vwgvco2lh",578,"195.csv","","null","resources/maskTrios/L2BB.jpg","null","",NA,NA,NA,NA,""
"image-keyboard-response",139,133602,"0.0-3.42-2.42","u0yub8vwgvco2lh",578,"195.csv","","null","resources/images/coin2.png","null","",NA,NA,NA,NA,""
"image-keyboard-response",140,134152,"0.0-3.43-0.43","u0yub8vwgvco2lh",578,"195.csv","","546.3999999999069","resources/trios/L2T2A2.jpg","38","restless",0.7,0.5,0.8,0.19130560386341,"true"
"image-keyboard-response",141,134557,"0.0-3.43-1.43","u0yub8vwgvco2lh",578,"195.csv","","null","resources/maskTrios/BT2B.jpg","null","",NA,NA,NA,NA,""
"image-keyboard-response",142,135766,"0.0-3.43-2.43","u0yub8vwgvco2lh",578,"195.csv","","null","resources/images/coin2.png","null","",NA,NA,NA,NA,""
"image-keyboard-response",143,136134,"0.0-3.44-0.44","u0yub8vwgvco2lh",578,"195.csv","","365.10000000009313","resources/trios/L4T2A1.jpg","37","restless",0.7,0.4,0.8,0.733772957899083,"false"
"image-keyboard-response",144,136540,"0.0-3.44-1.44","u0yub8vwgvco2lh",578,"195.csv","","null","resources/maskTrios/L4BB.jpg","null","",NA,NA,NA,NA,""
"image-keyboard-response",145,137747,"0.0-3.44-2.44","u0yub8vwgvco2lh",578,"195.csv","","null","resources/images/fishbone.png","null","",NA,NA,NA,NA,""
"image-keyboard-response",146,138152,"0.0-3.45-0.45","u0yub8vwgvco2lh",578,"195.csv","","402.39999999990687","resources/trios/L4T4A1.jpg","39","restless",0.7,0.4,0.8,0.814809097909957,"false"
"image-keyboard-response",147,138557,"0.0-3.45-1.45","u0yub8vwgvco2lh",578,"195.csv","","null","resources/maskTrios/BBA1.jpg","null","",NA,NA,NA,NA,""
"image-keyboard-response",148,139765,"0.0-3.45-2.45","u0yub8vwgvco2lh",578,"195.csv","","null","resources/images/fishbone.png","null","",NA,NA,NA,NA,""
"image-keyboard-response",149,139951,"0.0-3.46-0.46","u0yub8vwgvco2lh",578,"195.csv","","182.70000000018626","resources/trios/L2T2A2.jpg","38","restless",0.7,0.4,0.8,0.547492477768716,"false"
"image-keyboard-response",150,140355,"0.0-3.46-1.46","u0yub8vwgvco2lh",578,"195.csv","","null","resources/maskTrios/BT2B.jpg","null","",NA,NA,NA,NA,""
"image-keyboard-response",151,141557,"0.0-3.46-2.46","u0yub8vwgvco2lh",578,"195.csv","","null","resources/images/fishbone.png","null","",NA,NA,NA,NA,""
"image-keyboard-response",152,142285,"0.0-3.47-0.47","u0yub8vwgvco2lh",578,"195.csv","","724.8000000002794","resources/trios/L4T2A1.jpg","37","restless",0.7,0.4,0.8,0.422485810724918,"true"
"image-keyboard-response",153,142690,"0.0-3.47-1.47","u0yub8vwgvco2lh",578,"195.csv","","null","resources/maskTrios/L4BB.jpg","null","",NA,NA,NA,NA,""
"image-keyboard-response",154,143894,"0.0-3.47-2.47","u0yub8vwgvco2lh",578,"195.csv","","null","resources/images/coin2.png","null","",NA,NA,NA,NA,""
"image-keyboard-response",155,144294,"0.0-3.48-0.48","u0yub8vwgvco2lh",578,"195.csv","","397.10000000009313","resources/trios/L4T4A1.jpg","37","restless",0.7,0.4,0.8,0.573533479720106,"true"
"image-keyboard-response",156,144700,"0.0-3.48-1.48","u0yub8vwgvco2lh",578,"195.csv","","null","resources/maskTrios/L4BB.jpg","null","",NA,NA,NA,NA,""
"image-keyboard-response",157,145908,"0.0-3.48-2.48","u0yub8vwgvco2lh",578,"195.csv","","null","resources/images/coin2.png","null","",NA,NA,NA,NA,""
"image-keyboard-response",158,146501,"0.0-3.49-0.49","u0yub8vwgvco2lh",578,"195.csv","","590.1000000000931","resources/trios/L2T4A1.jpg","39","restless",0.7,0.4,0.8,0.135860123049232,"true"
"image-keyboard-response",159,146909,"0.0-3.49-1.49","u0yub8vwgvco2lh",578,"195.csv","","null","resources/maskTrios/BBA1.jpg","null","",NA,NA,NA,NA,""
"image-keyboard-response",160,148113,"0.0-3.49-2.49","u0yub8vwgvco2lh",578,"195.csv","","null","resources/images/coin2.png","null","",NA,NA,NA,NA,""
"image-keyboard-response",161,148608,"0.0-3.50-0.50","u0yub8vwgvco2lh",578,"195.csv","","491","resources/trios/L2T4A1.jpg","37","restless",0.7,0.4,0.8,0.169753067648079,"true"
"image-keyboard-response",162,149015,"0.0-3.50-1.50","u0yub8vwgvco2lh",578,"195.csv","","null","resources/maskTrios/L2BB.jpg","null","",NA,NA,NA,NA,""
"image-keyboard-response",163,150223,"0.0-3.50-2.50","u0yub8vwgvco2lh",578,"195.csv","","null","resources/images/coin2.png","null","",NA,NA,NA,NA,""
"image-keyboard-response",164,150508,"0.0-3.51-0.51","u0yub8vwgvco2lh",578,"195.csv","","281.89999999990687","resources/trios/L2T2A1.jpg","37","restless",0.7,0.4,0.8,0.698011544034645,"true"
"image-keyboard-response",165,150911,"0.0-3.51-1.51","u0yub8vwgvco2lh",578,"195.csv","","null","resources/maskTrios/L2BB.jpg","null","",NA,NA,NA,NA,""
"image-keyboard-response",166,152117,"0.0-3.51-2.51","u0yub8vwgvco2lh",578,"195.csv","","null","resources/images/coin2.png","null","",NA,NA,NA,NA,""
"image-keyboard-response",167,152383,"0.0-3.52-0.52","u0yub8vwgvco2lh",578,"195.csv","","263.5","resources/trios/L2T2A2.jpg","39","restless",0.7,0.4,0.8,0.922116412908288,"false"
"image-keyboard-response",168,152789,"0.0-3.52-1.52","u0yub8vwgvco2lh",578,"195.csv","","null","resources/maskTrios/BBA2.jpg","null","",NA,NA,NA,NA,""
"image-keyboard-response",169,153993,"0.0-3.52-2.52","u0yub8vwgvco2lh",578,"195.csv","","null","resources/images/fishbone.png","null","",NA,NA,NA,NA,""
"image-keyboard-response",170,154341,"0.0-3.53-0.53","u0yub8vwgvco2lh",578,"195.csv","","344.89999999990687","resources/trios/L2T4A1.jpg","37","restless",0.7,0.4,0.8,0.55956131799712,"true"
"image-keyboard-response",171,154749,"0.0-3.53-1.53","u0yub8vwgvco2lh",578,"195.csv","","null","resources/maskTrios/L2BB.jpg","null","",NA,NA,NA,NA,""
"image-keyboard-response",172,155957,"0.0-3.53-2.53","u0yub8vwgvco2lh",578,"195.csv","","null","resources/images/coin2.png","null","",NA,NA,NA,NA,""
"image-keyboard-response",173,156220,"0.0-3.54-0.54","u0yub8vwgvco2lh",578,"195.csv","","260.60000000009313","resources/trios/L2T2A1.jpg","37","restless",0.7,0.4,0.8,0.559792598274184,"true"
"image-keyboard-response",174,156628,"0.0-3.54-1.54","u0yub8vwgvco2lh",578,"195.csv","","null","resources/maskTrios/L2BB.jpg","null","",NA,NA,NA,NA,""
"image-keyboard-response",175,157835,"0.0-3.54-2.54","u0yub8vwgvco2lh",578,"195.csv","","null","resources/images/coin2.png","null","",NA,NA,NA,NA,""
"image-keyboard-response",176,158145,"0.0-3.55-0.55","u0yub8vwgvco2lh",578,"195.csv","","306.79999999981374","resources/trios/L2T4A1.jpg","39","restless",0.8,0.4,0.8,0.138254911504298,"true"
"image-keyboard-response",177,158550,"0.0-3.55-1.55","u0yub8vwgvco2lh",578,"195.csv","","null","resources/maskTrios/BBA1.jpg","null","",NA,NA,NA,NA,""
"image-keyboard-response",178,159758,"0.0-3.55-2.55","u0yub8vwgvco2lh",578,"195.csv","","null","resources/images/coin2.png","null","",NA,NA,NA,NA,""
"image-keyboard-response",179,160070,"0.0-3.56-0.56","u0yub8vwgvco2lh",578,"195.csv","","309.29999999981374","resources/trios/L2T2A2.jpg","37","restless",0.7,0.4,0.8,0.185481976695182,"true"
"image-keyboard-response",180,160476,"0.0-3.56-1.56","u0yub8vwgvco2lh",578,"195.csv","","null","resources/maskTrios/L2BB.jpg","null","",NA,NA,NA,NA,""
"image-keyboard-response",181,161679,"0.0-3.56-2.56","u0yub8vwgvco2lh",578,"195.csv","","null","resources/images/coin2.png","null","",NA,NA,NA,NA,""
"image-keyboard-response",182,162069,"0.0-3.57-0.57","u0yub8vwgvco2lh",578,"195.csv","","386.39999999990687","resources/trios/L2T4A2.jpg","37","restless",0.7,0.4,0.8,0.619069986757274,"true"
"image-keyboard-response",183,162474,"0.0-3.57-1.57","u0yub8vwgvco2lh",578,"195.csv","","null","resources/maskTrios/L2BB.jpg","null","",NA,NA,NA,NA,""
"image-keyboard-response",184,163682,"0.0-3.57-2.57","u0yub8vwgvco2lh",578,"195.csv","","null","resources/images/coin2.png","null","",NA,NA,NA,NA,""
"image-keyboard-response",185,163914,"0.0-3.58-0.58","u0yub8vwgvco2lh",578,"195.csv","","228.89999999990687","resources/trios/L2T2A1.jpg","39","restless",0.7,0.4,0.8,0.0589087257171617,"true"
"image-keyboard-response",186,164322,"0.0-3.58-1.58","u0yub8vwgvco2lh",578,"195.csv","","null","resources/maskTrios/BBA1.jpg","null","",NA,NA,NA,NA,""
"image-keyboard-response",187,165527,"0.0-3.58-2.58","u0yub8vwgvco2lh",578,"195.csv","","null","resources/images/coin2.png","null","",NA,NA,NA,NA,""
"image-keyboard-response",188,166067,"0.0-3.59-0.59","u0yub8vwgvco2lh",578,"195.csv","","536","resources/trios/L2T2A2.jpg","37","restless",0.7,0.4,0.8,0.724720135958649,"false"
"image-keyboard-response",189,166474,"0.0-3.59-1.59","u0yub8vwgvco2lh",578,"195.csv","","null","resources/maskTrios/L2BB.jpg","null","",NA,NA,NA,NA,""
"image-keyboard-response",190,167681,"0.0-3.59-2.59","u0yub8vwgvco2lh",578,"195.csv","","null","resources/images/fishbone.png","null","",NA,NA,NA,NA,""
"image-keyboard-response",191,168080,"0.0-3.60-0.60","u0yub8vwgvco2lh",578,"195.csv","","396.10000000009313","resources/trios/L2T4A2.jpg","37","restless",0.7,0.4,0.8,0.00403040492664908,"true"
"image-keyboard-response",192,168488,"0.0-3.60-1.60","u0yub8vwgvco2lh",578,"195.csv","","null","resources/maskTrios/L2BB.jpg","null","",NA,NA,NA,NA,""
"image-keyboard-response",193,169696,"0.0-3.60-2.60","u0yub8vwgvco2lh",578,"195.csv","","null","resources/images/coin2.png","null","",NA,NA,NA,NA,""
"image-keyboard-response",194,170366,"0.0-3.61-0.61","u0yub8vwgvco2lh",578,"195.csv","","667.5","resources/trios/L2T2A2.jpg","39","restless",0.7,0.4,0.8,0.180729589791975,"true"
"image-keyboard-response",195,170775,"0.0-3.61-1.61","u0yub8vwgvco2lh",578,"195.csv","","null","resources/maskTrios/BBA2.jpg","null","",NA,NA,NA,NA,""
"image-keyboard-response",196,171983,"0.0-3.61-2.61","u0yub8vwgvco2lh",578,"195.csv","","null","resources/images/coin2.png","null","",NA,NA,NA,NA,""
"image-keyboard-response",197,172588,"0.0-3.62-0.62","u0yub8vwgvco2lh",578,"195.csv","","602.7000000001863","resources/trios/L2T4A2.jpg","37","restless",0.7,0.4,0.8,0.417470402694437,"true"
"image-keyboard-response",198,172995,"0.0-3.62-1.62","u0yub8vwgvco2lh",578,"195.csv","","null","resources/maskTrios/L2BB.jpg","null","",NA,NA,NA,NA,""
"image-keyboard-response",199,174200,"0.0-3.62-2.62","u0yub8vwgvco2lh",578,"195.csv","","null","resources/images/coin2.png","null","",NA,NA,NA,NA,""
"image-keyboard-response",200,195431,"0.0-3.63-0.63","u0yub8vwgvco2lh",578,"195.csv","","21228.399999999907","resources/trios/L4T2A2.jpg","39","restless",0.6,0.4,0.8,0.7920065704767,"true"
"image-keyboard-response",201,195835,"0.0-3.63-1.63","u0yub8vwgvco2lh",578,"195.csv","","null","resources/maskTrios/BBA2.jpg","null","",NA,NA,NA,NA,""
"image-keyboard-response",202,197039,"0.0-3.63-2.63","u0yub8vwgvco2lh",578,"195.csv","","null","resources/images/coin2.png","null","",NA,NA,NA,NA,""
"image-keyboard-response",203,197055,"0.0-3.64-0.64","u0yub8vwgvco2lh",578,"195.csv","","13.600000000093132","resources/trios/L2T4A1.jpg","39","restless",0.6,0.4,0.8,0.0942205393554227,"true"
"image-keyboard-response",204,197461,"0.0-3.64-1.64","u0yub8vwgvco2lh",578,"195.csv","","null","resources/maskTrios/BBA1.jpg","null","",NA,NA,NA,NA,""
"image-keyboard-response",205,198664,"0.0-3.64-2.64","u0yub8vwgvco2lh",578,"195.csv","","null","resources/images/coin2.png","null","",NA,NA,NA,NA,""
"image-keyboard-response",206,199122,"0.0-3.65-0.65","u0yub8vwgvco2lh",578,"195.csv","","454.39999999990687","resources/trios/L2T4A1.jpg","37","restless",0.5,0.4,0.8,0.984137668143896,"false"
"image-keyboard-response",207,199527,"0.0-3.65-1.65","u0yub8vwgvco2lh",578,"195.csv","","null","resources/maskTrios/L2BB.jpg","null","",NA,NA,NA,NA,""
"image-keyboard-response",208,200735,"0.0-3.65-2.65","u0yub8vwgvco2lh",578,"195.csv","","null","resources/images/fishbone.png","null","",NA,NA,NA,NA,""
"image-keyboard-response",209,201070,"0.0-3.66-0.66","u0yub8vwgvco2lh",578,"195.csv","","332.39999999990687","resources/trios/L2T2A1.jpg","37","restless",0.5,0.4,0.8,0.723687647773863,"false"
"image-keyboard-response",210,201475,"0.0-3.66-1.66","u0yub8vwgvco2lh",578,"195.csv","","null","resources/maskTrios/L2BB.jpg","null","",NA,NA,NA,NA,""
"image-keyboard-response",211,202682,"0.0-3.66-2.66","u0yub8vwgvco2lh",578,"195.csv","","null","resources/images/fishbone.png","null","",NA,NA,NA,NA,""
"image-keyboard-response",212,208684,"0.0-3.67-0.67","u0yub8vwgvco2lh",578,"195.csv","","5999.199999999721","resources/trios/L2T2A1.jpg","38","restless",0.5,0.4,0.8,0.0551509942665729,"true"
"image-keyboard-response",213,209091,"0.0-3.67-1.67","u0yub8vwgvco2lh",578,"195.csv","","null","resources/maskTrios/BT2B.jpg","null","",NA,NA,NA,NA,""
"image-keyboard-response",214,210299,"0.0-3.67-2.67","u0yub8vwgvco2lh",578,"195.csv","","null","resources/images/coin2.png","null","",NA,NA,NA,NA,""
"image-keyboard-response",215,210641,"0.0-3.68-0.68","u0yub8vwgvco2lh",578,"195.csv","","339.79999999981374","resources/trios/L4T4A2.jpg","38","restless",0.4,0.4,0.8,0.677293048092169,"false"
"image-keyboard-response",216,211044,"0.0-3.68-1.68","u0yub8vwgvco2lh",578,"195.csv","","null","resources/maskTrios/BT4B.jpg","null","",NA,NA,NA,NA,""
"image-keyboard-response",217,212249,"0.0-3.68-2.68","u0yub8vwgvco2lh",578,"195.csv","","null","resources/images/fishbone.png","null","",NA,NA,NA,NA,""
"image-keyboard-response",218,212863,"0.0-3.69-0.69","u0yub8vwgvco2lh",578,"195.csv","","610.7000000001863","resources/trios/L2T4A1.jpg","39","restless",0.4,0.4,0.8,0.757436100525468,"true"
"image-keyboard-response",219,213271,"0.0-3.69-1.69","u0yub8vwgvco2lh",578,"195.csv","","null","resources/maskTrios/BBA1.jpg","null","",NA,NA,NA,NA,""
"image-keyboard-response",220,214475,"0.0-3.69-2.69","u0yub8vwgvco2lh",578,"195.csv","","null","resources/images/coin2.png","null","",NA,NA,NA,NA,""
"image-keyboard-response",221,220386,"0.0-3.70-0.70","u0yub8vwgvco2lh",578,"195.csv","","5908.200000000186","resources/trios/L4T2A1.jpg","39","restless",0.4,0.4,0.8,0.723292504769648,"true"
"image-keyboard-response",222,220790,"0.0-3.70-1.70","u0yub8vwgvco2lh",578,"195.csv","","null","resources/maskTrios/BBA1.jpg","null","",NA,NA,NA,NA,""
"image-keyboard-response",223,221997,"0.0-3.70-2.70","u0yub8vwgvco2lh",578,"195.csv","","null","resources/images/coin2.png","null","",NA,NA,NA,NA,""
"image-keyboard-response",224,223006,"0.0-3.71-0.71","u0yub8vwgvco2lh",578,"195.csv","","1005.7000000001863","resources/trios/L4T4A1.jpg","39","restless",0.4,0.5,0.8,0.0476268334487309,"true"
"image-keyboard-response",225,223409,"0.0-3.71-1.71","u0yub8vwgvco2lh",578,"195.csv","","null","resources/maskTrios/BBA1.jpg","null","",NA,NA,NA,NA,""
"image-keyboard-response",226,224617,"0.0-3.71-2.71","u0yub8vwgvco2lh",578,"195.csv","","null","resources/images/coin2.png","null","",NA,NA,NA,NA,""
"image-keyboard-response",227,224676,"0.0-3.72-0.72","u0yub8vwgvco2lh",578,"195.csv","","56.200000000186265","resources/trios/L2T2A1.jpg","39","restless",0.4,0.5,0.8,0.1771257623972,"true"
"image-keyboard-response",228,225081,"0.0-3.72-1.72","u0yub8vwgvco2lh",578,"195.csv","","null","resources/maskTrios/BBA1.jpg","null","",NA,NA,NA,NA,""
"image-keyboard-response",229,226285,"0.0-3.72-2.72","u0yub8vwgvco2lh",578,"195.csv","","null","resources/images/coin2.png","null","",NA,NA,NA,NA,""
"image-keyboard-response",230,226488,"0.0-3.73-0.73","u0yub8vwgvco2lh",578,"195.csv","","200.29999999981374","resources/trios/L4T2A1.jpg","38","restless",0.4,0.5,0.8,0.843734486185441,"false"
"image-keyboard-response",231,226897,"0.0-3.73-1.73","u0yub8vwgvco2lh",578,"195.csv","","null","resources/maskTrios/BT2B.jpg","null","",NA,NA,NA,NA,""
"image-keyboard-response",232,228104,"0.0-3.73-2.73","u0yub8vwgvco2lh",578,"195.csv","","null","resources/images/fishbone.png","null","",NA,NA,NA,NA,""
"image-keyboard-response",233,228295,"0.0-3.74-0.74","u0yub8vwgvco2lh",578,"195.csv","","187.60000000009313","resources/trios/L4T4A1.jpg","37","restless",0.3,0.4,0.8,0.854047703185838,"false"
"image-keyboard-response",234,228703,"0.0-3.74-1.74","u0yub8vwgvco2lh",578,"195.csv","","null","resources/maskTrios/L4BB.jpg","null","",NA,NA,NA,NA,""
"image-keyboard-response",235,229909,"0.0-3.74-2.74","u0yub8vwgvco2lh",578,"195.csv","","null","resources/images/fishbone.png","null","",NA,NA,NA,NA,""
"image-keyboard-response",236,230513,"0.0-3.75-0.75","u0yub8vwgvco2lh",578,"195.csv","","601.5","resources/trios/L4T2A2.jpg","39","restless",0.3,0.4,0.7,0.636985118427306,"true"
"image-keyboard-response",237,230919,"0.0-3.75-1.75","u0yub8vwgvco2lh",578,"195.csv","","null","resources/maskTrios/BBA2.jpg","null","",NA,NA,NA,NA,""
"image-keyboard-response",238,232127,"0.0-3.75-2.75","u0yub8vwgvco2lh",578,"195.csv","","null","resources/images/coin2.png","null","",NA,NA,NA,NA,""
"image-keyboard-response",239,232244,"0.0-3.76-0.76","u0yub8vwgvco2lh",578,"195.csv","","113.70000000018626","resources/trios/L2T2A2.jpg","39","restless",0.4,0.4,0.7,0.309325029602722,"true"
"image-keyboard-response",240,232651,"0.0-3.76-1.76","u0yub8vwgvco2lh",578,"195.csv","","null","resources/maskTrios/BBA2.jpg","null","",NA,NA,NA,NA,""
"image-keyboard-response",241,233859,"0.0-3.76-2.76","u0yub8vwgvco2lh",578,"195.csv","","null","resources/images/coin2.png","null","",NA,NA,NA,NA,""
"image-keyboard-response",242,233997,"0.0-3.77-0.77","u0yub8vwgvco2lh",578,"195.csv","","134.90000000037253","resources/trios/L4T2A1.jpg","39","restless",0.4,0.4,0.6,0.00683336513636568,"true"
"image-keyboard-response",243,234403,"0.0-3.77-1.77","u0yub8vwgvco2lh",578,"195.csv","","null","resources/maskTrios/BBA1.jpg","null","",NA,NA,NA,NA,""
"image-keyboard-response",244,235611,"0.0-3.77-2.77","u0yub8vwgvco2lh",578,"195.csv","","null","resources/images/coin2.png","null","",NA,NA,NA,NA,""
"image-keyboard-response",245,235902,"0.0-3.78-0.78","u0yub8vwgvco2lh",578,"195.csv","","287.39999999990687","resources/trios/L4T2A2.jpg","37","restless",0.4,0.4,0.6,0.254183449848579,"true"
"image-keyboard-response",246,236309,"0.0-3.78-1.78","u0yub8vwgvco2lh",578,"195.csv","","null","resources/maskTrios/L4BB.jpg","null","",NA,NA,NA,NA,""
"image-keyboard-response",247,237516,"0.0-3.78-2.78","u0yub8vwgvco2lh",578,"195.csv","","null","resources/images/coin2.png","null","",NA,NA,NA,NA,""
"image-keyboard-response",248,238138,"0.0-3.79-0.79","u0yub8vwgvco2lh",578,"195.csv","","618.6000000000931","resources/trios/L2T2A2.jpg","38","restless",0.4,0.4,0.6,0.776802672316038,"false"
"image-keyboard-response",249,238547,"0.0-3.79-1.79","u0yub8vwgvco2lh",578,"195.csv","","null","resources/maskTrios/BT2B.jpg","null","",NA,NA,NA,NA,""
"image-keyboard-response",250,239750,"0.0-3.79-2.79","u0yub8vwgvco2lh",578,"195.csv","","null","resources/images/fishbone.png","null","",NA,NA,NA,NA,""
"image-keyboard-response",251,240283,"0.0-3.80-0.80","u0yub8vwgvco2lh",578,"195.csv","","529.5","resources/trios/L4T4A2.jpg","39","restless",0.4,0.4,0.6,0.991669833597228,"false"
"image-keyboard-response",252,240688,"0.0-3.80-1.80","u0yub8vwgvco2lh",578,"195.csv","","null","resources/maskTrios/BBA2.jpg","null","",NA,NA,NA,NA,""
"image-keyboard-response",253,241891,"0.0-3.80-2.80","u0yub8vwgvco2lh",578,"195.csv","","null","resources/images/fishbone.png","null","",NA,NA,NA,NA,""
"image-keyboard-response",254,250421,"0.0-3.81-0.81","u0yub8vwgvco2lh",578,"195.csv","","8526.30000000028","resources/trios/L2T2A1.jpg","39","restless",0.4,0.4,0.6,0.0916463523498852,"true"
"image-keyboard-response",255,250828,"0.0-3.81-1.81","u0yub8vwgvco2lh",578,"195.csv","","null","resources/maskTrios/BBA1.jpg","null","",NA,NA,NA,NA,""
"image-keyboard-response",256,252032,"0.0-3.81-2.81","u0yub8vwgvco2lh",578,"195.csv","","null","resources/images/coin2.png","null","",NA,NA,NA,NA,""
"image-keyboard-response",257,252451,"0.0-3.82-0.82","u0yub8vwgvco2lh",578,"195.csv","","416.10000000009313","resources/trios/L2T4A2.jpg","38","restless",0.3,0.4,0.6,0.220928904947972,"true"
"image-keyboard-response",258,252859,"0.0-3.82-1.82","u0yub8vwgvco2lh",578,"195.csv","","null","resources/maskTrios/BT4B.jpg","null","",NA,NA,NA,NA,""
"image-keyboard-response",259,254066,"0.0-3.82-2.82","u0yub8vwgvco2lh",578,"195.csv","","null","resources/images/coin2.png","null","",NA,NA,NA,NA,""
"image-keyboard-response",260,254714,"0.0-3.83-0.83","u0yub8vwgvco2lh",578,"195.csv","","644.6999999997206","resources/trios/L4T4A1.jpg","38","restless",0.3,0.4,0.6,0.0772601712487293,"true"
"image-keyboard-response",261,255122,"0.0-3.83-1.83","u0yub8vwgvco2lh",578,"195.csv","","null","resources/maskTrios/BT4B.jpg","null","",NA,NA,NA,NA,""
"image-keyboard-response",262,256330,"0.0-3.83-2.83","u0yub8vwgvco2lh",578,"195.csv","","null","resources/images/coin2.png","null","",NA,NA,NA,NA,""
"image-keyboard-response",263,256862,"0.0-3.84-0.84","u0yub8vwgvco2lh",578,"195.csv","","529.1999999997206","resources/trios/L2T2A1.jpg","37","restless",0.3,0.4,0.6,0.00811933177638502,"true"
"image-keyboard-response",264,257270,"0.0-3.84-1.84","u0yub8vwgvco2lh",578,"195.csv","","null","resources/maskTrios/L2BB.jpg","null","",NA,NA,NA,NA,""
"image-keyboard-response",265,258477,"0.0-3.84-2.84","u0yub8vwgvco2lh",578,"195.csv","","null","resources/images/coin2.png","null","",NA,NA,NA,NA,""
"image-keyboard-response",266,259153,"0.0-3.85-0.85","u0yub8vwgvco2lh",578,"195.csv","","672.2999999998137","resources/trios/L4T2A1.jpg","37","restless",0.3,0.4,0.6,0.919620971069393,"false"
"image-keyboard-response",267,259558,"0.0-3.85-1.85","u0yub8vwgvco2lh",578,"195.csv","","null","resources/maskTrios/L4BB.jpg","null","",NA,NA,NA,NA,""
"image-keyboard-response",268,260766,"0.0-3.85-2.85","u0yub8vwgvco2lh",578,"195.csv","","null","resources/images/fishbone.png","null","",NA,NA,NA,NA,""
"image-keyboard-response",269,261486,"0.0-3.86-0.86","u0yub8vwgvco2lh",578,"195.csv","","717.3999999999069","resources/trios/L2T4A2.jpg","39","restless",0.3,0.4,0.6,0.755488024737498,"false"
"image-keyboard-response",270,261891,"0.0-3.86-1.86","u0yub8vwgvco2lh",578,"195.csv","","null","resources/maskTrios/BBA2.jpg","null","",NA,NA,NA,NA,""
"image-keyboard-response",271,263095,"0.0-3.86-2.86","u0yub8vwgvco2lh",578,"195.csv","","null","resources/images/fishbone.png","null","",NA,NA,NA,NA,""
"image-keyboard-response",272,263662,"0.0-3.87-0.87","u0yub8vwgvco2lh",578,"195.csv","","564.2999999998137","resources/trios/L2T4A1.jpg","39","restless",0.3,0.4,0.6,0.90901468591904,"false"
"image-keyboard-response",273,264069,"0.0-3.87-1.87","u0yub8vwgvco2lh",578,"195.csv","","null","resources/maskTrios/BBA1.jpg","null","",NA,NA,NA,NA,""
"image-keyboard-response",274,265276,"0.0-3.87-2.87","u0yub8vwgvco2lh",578,"195.csv","","null","resources/images/fishbone.png","null","",NA,NA,NA,NA,""
"image-keyboard-response",275,268999,"0.0-3.88-0.88","u0yub8vwgvco2lh",578,"195.csv","","3720.899999999907","resources/trios/L2T4A1.jpg","39","restless",0.3,0.4,0.6,0.0709067599521702,"true"
"image-keyboard-response",276,269404,"0.0-3.88-1.88","u0yub8vwgvco2lh",578,"195.csv","","null","resources/maskTrios/BBA1.jpg","null","",NA,NA,NA,NA,""
"image-keyboard-response",277,270612,"0.0-3.88-2.88","u0yub8vwgvco2lh",578,"195.csv","","null","resources/images/coin2.png","null","",NA,NA,NA,NA,""
"image-keyboard-response",278,270831,"0.0-3.89-0.89","u0yub8vwgvco2lh",578,"195.csv","","216.39999999990687","resources/trios/L4T4A1.jpg","39","restless",0.3,0.4,0.6,0.178235569830795,"true"
"image-keyboard-response",279,271237,"0.0-3.89-1.89","u0yub8vwgvco2lh",578,"195.csv","","null","resources/maskTrios/BBA1.jpg","null","",NA,NA,NA,NA,""
"image-keyboard-response",280,272445,"0.0-3.89-2.89","u0yub8vwgvco2lh",578,"195.csv","","null","resources/images/coin2.png","null","",NA,NA,NA,NA,""
"image-keyboard-response",281,272729,"0.0-3.90-0.90","u0yub8vwgvco2lh",578,"195.csv","","280.6999999997206","resources/trios/L2T4A1.jpg","37","restless",0.3,0.4,0.6,0.242770307963954,"true"
"image-keyboard-response",282,273133,"0.0-3.90-1.90","u0yub8vwgvco2lh",578,"195.csv","","null","resources/maskTrios/L2BB.jpg","null","",NA,NA,NA,NA,""
"image-keyboard-response",283,274337,"0.0-3.90-2.90","u0yub8vwgvco2lh",578,"195.csv","","null","resources/images/coin2.png","null","",NA,NA,NA,NA,""
"image-keyboard-response",284,274549,"0.0-3.91-0.91","u0yub8vwgvco2lh",578,"195.csv","","208.70000000018626","resources/trios/L4T2A1.jpg","37","restless",0.3,0.4,0.6,0.0551104683849521,"true"
"image-keyboard-response",285,274957,"0.0-3.91-1.91","u0yub8vwgvco2lh",578,"195.csv","","null","resources/maskTrios/L4BB.jpg","null","",NA,NA,NA,NA,""
"image-keyboard-response",286,276161,"0.0-3.91-2.91","u0yub8vwgvco2lh",578,"195.csv","","null","resources/images/coin2.png","null","",NA,NA,NA,NA,""
"image-keyboard-response",287,276415,"0.0-3.92-0.92","u0yub8vwgvco2lh",578,"195.csv","","250.70000000018626","resources/trios/L2T4A1.jpg","37","restless",0.3,0.4,0.6,0.310068805666656,"false"
"image-keyboard-response",288,276823,"0.0-3.92-1.92","u0yub8vwgvco2lh",578,"195.csv","","null","resources/maskTrios/L2BB.jpg","null","",NA,NA,NA,NA,""
"image-keyboard-response",289,278031,"0.0-3.92-2.92","u0yub8vwgvco2lh",578,"195.csv","","null","resources/images/fishbone.png","null","",NA,NA,NA,NA,""
"image-keyboard-response",290,278254,"0.0-3.93-0.93","u0yub8vwgvco2lh",578,"195.csv","","220","resources/trios/L4T2A1.jpg","39","restless",0.3,0.4,0.6,0.505233046707987,"true"
"image-keyboard-response",291,278662,"0.0-3.93-1.93","u0yub8vwgvco2lh",578,"195.csv","","null","resources/maskTrios/BBA1.jpg","null","",NA,NA,NA,NA,""
"image-keyboard-response",292,279870,"0.0-3.93-2.93","u0yub8vwgvco2lh",578,"195.csv","","null","resources/images/coin2.png","null","",NA,NA,NA,NA,""
"image-keyboard-response",293,280206,"0.0-3.94-0.94","u0yub8vwgvco2lh",578,"195.csv","","333.6999999997206","resources/trios/L4T2A2.jpg","39","restless",0.3,0.4,0.6,0.903418472424147,"false"
"image-keyboard-response",294,280615,"0.0-3.94-1.94","u0yub8vwgvco2lh",578,"195.csv","","null","resources/maskTrios/BBA2.jpg","null","",NA,NA,NA,NA,""
"image-keyboard-response",295,281823,"0.0-3.94-2.94","u0yub8vwgvco2lh",578,"195.csv","","null","resources/images/fishbone.png","null","",NA,NA,NA,NA,""
"image-keyboard-response",296,282040,"0.0-3.95-0.95","u0yub8vwgvco2lh",578,"195.csv","","214.39999999990687","resources/trios/L4T2A1.jpg","38","restless",0.3,0.3,0.6,0.0132084918350543,"true"
"image-keyboard-response",297,282444,"0.0-3.95-1.95","u0yub8vwgvco2lh",578,"195.csv","","null","resources/maskTrios/BT2B.jpg","null","",NA,NA,NA,NA,""
"image-keyboard-response",298,283648,"0.0-3.95-2.95","u0yub8vwgvco2lh",578,"195.csv","","null","resources/images/coin2.png","null","",NA,NA,NA,NA,""
"image-keyboard-response",299,283894,"0.0-3.96-0.96","u0yub8vwgvco2lh",578,"195.csv","","242.39999999990687","resources/trios/L2T2A2.jpg","38","restless",0.3,0.3,0.6,0.590860374112827,"false"
"image-keyboard-response",300,284301,"0.0-3.96-1.96","u0yub8vwgvco2lh",578,"195.csv","","null","resources/maskTrios/BT2B.jpg","null","",NA,NA,NA,NA,""
"image-keyboard-response",301,285507,"0.0-3.96-2.96","u0yub8vwgvco2lh",578,"195.csv","","null","resources/images/fishbone.png","null","",NA,NA,NA,NA,""
"image-keyboard-response",302,285563,"0.0-3.97-0.97","u0yub8vwgvco2lh",578,"195.csv","","53.1999999997206","resources/trios/L4T4A2.jpg","39","restless",0.3,0.3,0.6,0.481920447247094,"true"
"image-keyboard-response",303,285966,"0.0-3.97-1.97","u0yub8vwgvco2lh",578,"195.csv","","null","resources/maskTrios/BBA2.jpg","null","",NA,NA,NA,NA,""
"image-keyboard-response",304,287173,"0.0-3.97-2.97","u0yub8vwgvco2lh",578,"195.csv","","null","resources/images/coin2.png","null","",NA,NA,NA,NA,""
"image-keyboard-response",305,287702,"0.0-3.98-0.98","u0yub8vwgvco2lh",578,"195.csv","","526","resources/trios/L2T2A2.jpg","37","restless",0.2,0.3,0.5,0.240244135094362,"false"
"image-keyboard-response",306,288110,"0.0-3.98-1.98","u0yub8vwgvco2lh",578,"195.csv","","null","resources/maskTrios/L2BB.jpg","null","",NA,NA,NA,NA,""
"image-keyboard-response",307,289314,"0.0-3.98-2.98","u0yub8vwgvco2lh",578,"195.csv","","null","resources/images/fishbone.png","null","",NA,NA,NA,NA,""
"image-keyboard-response",308,289601,"0.0-3.99-0.99","u0yub8vwgvco2lh",578,"195.csv","","284.39999999990687","resources/trios/L4T2A1.jpg","37","restless",0.2,0.2,0.5,0.504931272557902,"false"
"image-keyboard-response",309,290009,"0.0-3.99-1.99","u0yub8vwgvco2lh",578,"195.csv","","null","resources/maskTrios/L4BB.jpg","null","",NA,NA,NA,NA,""
"image-keyboard-response",310,291214,"0.0-3.99-2.99","u0yub8vwgvco2lh",578,"195.csv","","null","resources/images/fishbone.png","null","",NA,NA,NA,NA,""
"image-keyboard-response",311,291642,"0.0-3.100-0.100","u0yub8vwgvco2lh",578,"195.csv","","425.39999999990687","resources/trios/L2T2A1.jpg","39","restless",0.2,0.2,0.5,0.165023813079131,"true"
"image-keyboard-response",312,292050,"0.0-3.100-1.100","u0yub8vwgvco2lh",578,"195.csv","","null","resources/maskTrios/BBA1.jpg","null","",NA,NA,NA,NA,""
"image-keyboard-response",313,293258,"0.0-3.100-2.100","u0yub8vwgvco2lh",578,"195.csv","","null","resources/images/coin2.png","null","",NA,NA,NA,NA,""
"image-keyboard-response",314,296845,"0.0-3.101-0.101","u0yub8vwgvco2lh",578,"195.csv","","3584.100000000093","resources/trios/L2T2A2.jpg","39","restless",0.2,0.1,0.5,0.174580878075822,"true"
"image-keyboard-response",315,297247,"0.0-3.101-1.101","u0yub8vwgvco2lh",578,"195.csv","","null","resources/maskTrios/BBA2.jpg","null","",NA,NA,NA,NA,""
"image-keyboard-response",316,298455,"0.0-3.101-2.101","u0yub8vwgvco2lh",578,"195.csv","","null","resources/images/coin2.png","null","",NA,NA,NA,NA,""
"image-keyboard-response",317,298979,"0.0-3.102-0.102","u0yub8vwgvco2lh",578,"195.csv","","521.8000000002794","resources/trios/L2T4A2.jpg","37","restless",0.2,0.1,0.5,0.208618973329067,"false"
"image-keyboard-response",318,299383,"0.0-3.102-1.102","u0yub8vwgvco2lh",578,"195.csv","","null","resources/maskTrios/L2BB.jpg","null","",NA,NA,NA,NA,""
"image-keyboard-response",319,300586,"0.0-3.102-2.102","u0yub8vwgvco2lh",578,"195.csv","","null","resources/images/fishbone.png","null","",NA,NA,NA,NA,""
"image-keyboard-response",320,301826,"0.0-3.103-0.103","u0yub8vwgvco2lh",578,"195.csv","","1236.8999999999069","resources/trios/L2T4A2.jpg","38","restless",0.2,0.1,0.5,0.447114648929055,"false"
"image-keyboard-response",321,302229,"0.0-3.103-1.103","u0yub8vwgvco2lh",578,"195.csv","","null","resources/maskTrios/BT4B.jpg","null","",NA,NA,NA,NA,""
"image-keyboard-response",322,303436,"0.0-3.103-2.103","u0yub8vwgvco2lh",578,"195.csv","","null","resources/images/fishbone.png","null","",NA,NA,NA,NA,""
"image-keyboard-response",323,306744,"0.0-3.104-0.104","u0yub8vwgvco2lh",578,"195.csv","","3305.6999999997206","resources/trios/L2T4A1.jpg","39","restless",0.2,0.1,0.5,0.379729978790443,"true"
"image-keyboard-response",324,307151,"0.0-3.104-1.104","u0yub8vwgvco2lh",578,"195.csv","","null","resources/maskTrios/BBA1.jpg","null","",NA,NA,NA,NA,""
"image-keyboard-response",325,308356,"0.0-3.104-2.104","u0yub8vwgvco2lh",578,"195.csv","","null","resources/images/coin2.png","null","",NA,NA,NA,NA,""
"image-keyboard-response",326,308742,"0.0-3.105-0.105","u0yub8vwgvco2lh",578,"195.csv","","383.29999999981374","resources/trios/L2T2A2.jpg","39","restless",0.2,0.1,0.5,0.47233135932707,"true"
"image-keyboard-response",327,309149,"0.0-3.105-1.105","u0yub8vwgvco2lh",578,"195.csv","","null","resources/maskTrios/BBA2.jpg","null","",NA,NA,NA,NA,""
"image-keyboard-response",328,310356,"0.0-3.105-2.105","u0yub8vwgvco2lh",578,"195.csv","","null","resources/images/coin2.png","null","",NA,NA,NA,NA,""
"image-keyboard-response",329,322189,"0.0-3.106-0.106","u0yub8vwgvco2lh",578,"195.csv","","11830.100000000093","resources/trios/L4T2A2.jpg","39","restless",0.2,0.1,0.5,0.460922363265234,"true"
"image-keyboard-response",330,322594,"0.0-3.106-1.106","u0yub8vwgvco2lh",578,"195.csv","","null","resources/maskTrios/BBA2.jpg","null","",NA,NA,NA,NA,""
"image-keyboard-response",331,323801,"0.0-3.106-2.106","u0yub8vwgvco2lh",578,"195.csv","","null","resources/images/coin2.png","null","",NA,NA,NA,NA,""
"image-keyboard-response",332,324042,"0.0-3.107-0.107","u0yub8vwgvco2lh",578,"195.csv","","239","resources/trios/L4T4A1.jpg","39","restless",0.2,0.1,0.5,0.837334845628383,"false"
"image-keyboard-response",333,324445,"0.0-3.107-1.107","u0yub8vwgvco2lh",578,"195.csv","","null","resources/maskTrios/BBA1.jpg","null","",NA,NA,NA,NA,""
"image-keyboard-response",334,325651,"0.0-3.107-2.107","u0yub8vwgvco2lh",578,"195.csv","","null","resources/images/fishbone.png","null","",NA,NA,NA,NA,""
"image-keyboard-response",335,329717,"0.0-3.108-0.108","u0yub8vwgvco2lh",578,"195.csv","","4062.8000000002794","resources/trios/L4T2A2.jpg","39","restless",0.2,0.1,0.5,0.438823662030634,"true"
"image-keyboard-response",336,330121,"0.0-3.108-1.108","u0yub8vwgvco2lh",578,"195.csv","","null","resources/maskTrios/BBA2.jpg","null","",NA,NA,NA,NA,""
"image-keyboard-response",337,331328,"0.0-3.108-2.108","u0yub8vwgvco2lh",578,"195.csv","","null","resources/images/coin2.png","null","",NA,NA,NA,NA,""
"image-keyboard-response",338,331597,"0.0-3.109-0.109","u0yub8vwgvco2lh",578,"195.csv","","265.6999999997206","resources/trios/L4T2A2.jpg","37","restless",0.2,0.1,0.5,0.137961906443136,"true"
"image-keyboard-response",339,332000,"0.0-3.109-1.109","u0yub8vwgvco2lh",578,"195.csv","","null","resources/maskTrios/L4BB.jpg","null","",NA,NA,NA,NA,""
"image-keyboard-response",340,333204,"0.0-3.109-2.109","u0yub8vwgvco2lh",578,"195.csv","","null","resources/images/coin2.png","null","",NA,NA,NA,NA,""
"image-keyboard-response",341,344412,"0.0-3.110-0.110","u0yub8vwgvco2lh",578,"195.csv","","11205.299999999814","resources/trios/L4T2A1.jpg","39","restless",0.2,0.1,0.5,0.0769485309152929,"true"
"image-keyboard-response",342,344819,"0.0-3.110-1.110","u0yub8vwgvco2lh",578,"195.csv","","null","resources/maskTrios/BBA1.jpg","null","",NA,NA,NA,NA,""
"image-keyboard-response",343,346026,"0.0-3.110-2.110","u0yub8vwgvco2lh",578,"195.csv","","null","resources/images/coin2.png","null","",NA,NA,NA,NA,""
"image-keyboard-response",344,346235,"0.0-3.111-0.111","u0yub8vwgvco2lh",578,"195.csv","","206.20000000018626","resources/trios/L2T2A1.jpg","39","restless",0.2,0.1,0.5,0.743253828688066,"false"
"image-keyboard-response",345,346642,"0.0-3.111-1.111","u0yub8vwgvco2lh",578,"195.csv","","null","resources/maskTrios/BBA1.jpg","null","",NA,NA,NA,NA,""
"image-keyboard-response",346,347845,"0.0-3.111-2.111","u0yub8vwgvco2lh",578,"195.csv","","null","resources/images/fishbone.png","null","",NA,NA,NA,NA,""
"image-keyboard-response",347,348528,"0.0-3.112-0.112","u0yub8vwgvco2lh",578,"195.csv","","681.1999999997206","resources/trios/L2T4A2.jpg","38","restless",0.3,0.2,0.5,0.688286638201832,"false"
"image-keyboard-response",348,348931,"0.0-3.112-1.112","u0yub8vwgvco2lh",578,"195.csv","","null","resources/maskTrios/BT4B.jpg","null","",NA,NA,NA,NA,""
"image-keyboard-response",349,350139,"0.0-3.112-2.112","u0yub8vwgvco2lh",578,"195.csv","","null","resources/images/fishbone.png","null","",NA,NA,NA,NA,""
"image-keyboard-response",350,351108,"0.0-3.113-0.113","u0yub8vwgvco2lh",578,"195.csv","","966.2999999998137","resources/trios/L2T4A1.jpg","38","restless",0.3,0.2,0.5,0.592070797694465,"false"
"image-keyboard-response",351,351511,"0.0-3.113-1.113","u0yub8vwgvco2lh",578,"195.csv","","null","resources/maskTrios/BT4B.jpg","null","",NA,NA,NA,NA,""
"image-keyboard-response",352,352714,"0.0-3.113-2.113","u0yub8vwgvco2lh",578,"195.csv","","null","resources/images/fishbone.png","null","",NA,NA,NA,NA,""
"image-keyboard-response",353,354278,"0.0-3.114-0.114","u0yub8vwgvco2lh",578,"195.csv","","1562.0999999996275","resources/trios/L2T2A2.jpg","37","restless",0.3,0.2,0.5,0.566932742378677,"false"
"image-keyboard-response",354,354686,"0.0-3.114-1.114","u0yub8vwgvco2lh",578,"195.csv","","null","resources/maskTrios/L2BB.jpg","null","",NA,NA,NA,NA,""
"image-keyboard-response",355,355893,"0.0-3.114-2.114","u0yub8vwgvco2lh",578,"195.csv","","null","resources/images/fishbone.png","null","",NA,NA,NA,NA,""
"image-keyboard-response",356,356052,"0.0-3.115-0.115","u0yub8vwgvco2lh",578,"195.csv","","156.70000000018626","resources/trios/L2T2A2.jpg","37","restless",0.3,0.2,0.5,0.454944419333887,"false"
"image-keyboard-response",357,356457,"0.0-3.115-1.115","u0yub8vwgvco2lh",578,"195.csv","","null","resources/maskTrios/L2BB.jpg","null","",NA,NA,NA,NA,""
"image-keyboard-response",358,357662,"0.0-3.115-2.115","u0yub8vwgvco2lh",578,"195.csv","","null","resources/images/fishbone.png","null","",NA,NA,NA,NA,""
"image-keyboard-response",359,358036,"0.0-3.116-0.116","u0yub8vwgvco2lh",578,"195.csv","","370.70000000018626","resources/trios/L2T4A1.jpg","39","restless",0.3,0.2,0.5,0.0634761166168152,"true"
"image-keyboard-response",360,358439,"0.0-3.116-1.116","u0yub8vwgvco2lh",578,"195.csv","","null","resources/maskTrios/BBA1.jpg","null","",NA,NA,NA,NA,""
"image-keyboard-response",361,359643,"0.0-3.116-2.116","u0yub8vwgvco2lh",578,"195.csv","","null","resources/images/coin2.png","null","",NA,NA,NA,NA,""
"image-keyboard-response",362,359906,"0.0-3.117-0.117","u0yub8vwgvco2lh",578,"195.csv","","258","resources/trios/L4T2A1.jpg","39","restless",0.3,0.1,0.5,0.222086441754317,"true"
"image-keyboard-response",363,360313,"0.0-3.117-1.117","u0yub8vwgvco2lh",578,"195.csv","","null","resources/maskTrios/BBA1.jpg","null","",NA,NA,NA,NA,""
"image-keyboard-response",364,361515,"0.0-3.117-2.117","u0yub8vwgvco2lh",578,"195.csv","","null","resources/images/coin2.png","null","",NA,NA,NA,NA,""
"image-keyboard-response",365,362193,"0.0-3.118-0.118","u0yub8vwgvco2lh",578,"195.csv","","676.2000000001863","resources/trios/L2T4A2.jpg","37","restless",0.3,0.1,0.5,0.0443719534546991,"true"
"image-keyboard-response",366,362601,"0.0-3.118-1.118","u0yub8vwgvco2lh",578,"195.csv","","null","resources/maskTrios/L2BB.jpg","null","",NA,NA,NA,NA,""
"image-keyboard-response",367,363809,"0.0-3.118-2.118","u0yub8vwgvco2lh",578,"195.csv","","null","resources/images/coin2.png","null","",NA,NA,NA,NA,""
"image-keyboard-response",368,364097,"0.0-3.119-0.119","u0yub8vwgvco2lh",578,"195.csv","","284.60000000009313","resources/trios/L2T4A1.jpg","37","restless",0.3,0.1,0.5,0.371213753742697,"false"
"image-keyboard-response",369,364503,"0.0-3.119-1.119","u0yub8vwgvco2lh",578,"195.csv","","null","resources/maskTrios/L2BB.jpg","null","",NA,NA,NA,NA,""
"image-keyboard-response",370,365710,"0.0-3.119-2.119","u0yub8vwgvco2lh",578,"195.csv","","null","resources/images/fishbone.png","null","",NA,NA,NA,NA,""
"image-keyboard-response",371,366246,"0.0-3.120-0.120","u0yub8vwgvco2lh",578,"195.csv","","533.2000000001863","resources/trios/L2T4A1.jpg","38","restless",0.4,0.1,0.5,0.796406327064351,"false"
"image-keyboard-response",372,366653,"0.0-3.120-1.120","u0yub8vwgvco2lh",578,"195.csv","","null","resources/maskTrios/BT4B.jpg","null","",NA,NA,NA,NA,""
"image-keyboard-response",373,367856,"0.0-3.120-2.120","u0yub8vwgvco2lh",578,"195.csv","","null","resources/images/fishbone.png","null","",NA,NA,NA,NA,""
"image-keyboard-response",374,368948,"0.0-3.121-0.121","u0yub8vwgvco2lh",578,"195.csv","","1089.6999999997206","resources/trios/L4T4A1.jpg","38","restless",0.4,0.1,0.5,0.312661521532234,"false"
"image-keyboard-response",375,369351,"0.0-3.121-1.121","u0yub8vwgvco2lh",578,"195.csv","","null","resources/maskTrios/BT4B.jpg","null","",NA,NA,NA,NA,""
"image-keyboard-response",376,370555,"0.0-3.121-2.121","u0yub8vwgvco2lh",578,"195.csv","","null","resources/images/fishbone.png","null","",NA,NA,NA,NA,""
"image-keyboard-response",377,372658,"0.0-3.122-0.122","u0yub8vwgvco2lh",578,"195.csv","","2100.3000000002794","resources/trios/L4T4A1.jpg","37","restless",0.4,0.1,0.5,0.738482781323883,"false"
"image-keyboard-response",378,373062,"0.0-3.122-1.122","u0yub8vwgvco2lh",578,"195.csv","","null","resources/maskTrios/L4BB.jpg","null","",NA,NA,NA,NA,""
"image-keyboard-response",379,374270,"0.0-3.122-2.122","u0yub8vwgvco2lh",578,"195.csv","","null","resources/images/fishbone.png","null","",NA,NA,NA,NA,""
"image-keyboard-response",380,374760,"0.0-3.123-0.123","u0yub8vwgvco2lh",578,"195.csv","","487.1999999997206","resources/trios/L4T4A2.jpg","38","restless",0.4,0.1,0.5,0.739958796373896,"false"
"image-keyboard-response",381,375167,"0.0-3.123-1.123","u0yub8vwgvco2lh",578,"195.csv","","null","resources/maskTrios/BT4B.jpg","null","",NA,NA,NA,NA,""
"image-keyboard-response",382,376375,"0.0-3.123-2.123","u0yub8vwgvco2lh",578,"195.csv","","null","resources/images/fishbone.png","null","",NA,NA,NA,NA,""
"image-keyboard-response",383,378782,"0.0-3.124-0.124","u0yub8vwgvco2lh",578,"195.csv","","2404.7999999998137","resources/trios/L2T2A2.jpg","38","restless",0.4,0.1,0.4,0.35565607470971,"false"
"image-keyboard-response",384,379187,"0.0-3.124-1.124","u0yub8vwgvco2lh",578,"195.csv","","null","resources/maskTrios/BT2B.jpg","null","",NA,NA,NA,NA,""
"image-keyboard-response",385,380393,"0.0-3.124-2.124","u0yub8vwgvco2lh",578,"195.csv","","null","resources/images/fishbone.png","null","",NA,NA,NA,NA,""
"image-keyboard-response",386,381466,"0.0-3.125-0.125","u0yub8vwgvco2lh",578,"195.csv","","1069.6999999997206","resources/trios/L4T4A2.jpg","39","restless",0.4,0.1,0.4,0.184748553035976,"true"
"image-keyboard-response",387,381871,"0.0-3.125-1.125","u0yub8vwgvco2lh",578,"195.csv","","null","resources/maskTrios/BBA2.jpg","null","",NA,NA,NA,NA,""
"image-keyboard-response",388,383077,"0.0-3.125-2.125","u0yub8vwgvco2lh",578,"195.csv","","null","resources/images/coin2.png","null","",NA,NA,NA,NA,""
"image-keyboard-response",389,385916,"0.0-3.126-0.126","u0yub8vwgvco2lh",578,"195.csv","","2835.7999999998137","resources/trios/L2T4A1.jpg","39","restless",0.4,0.1,0.4,0.609771407283709,"false"
"image-keyboard-response",390,386319,"0.0-3.126-1.126","u0yub8vwgvco2lh",578,"195.csv","","null","resources/maskTrios/BBA1.jpg","null","",NA,NA,NA,NA,""
"image-keyboard-response",391,387522,"0.0-3.126-2.126","u0yub8vwgvco2lh",578,"195.csv","","null","resources/images/fishbone.png","null","",NA,NA,NA,NA,""
"image-keyboard-response",392,389992,"0.0-3.127-0.127","u0yub8vwgvco2lh",578,"195.csv","","2466.899999999907","resources/trios/L4T2A2.jpg","38","restless",0.4,0.2,0.4,0.741732743841152,"false"
"image-keyboard-response",393,390397,"0.0-3.127-1.127","u0yub8vwgvco2lh",578,"195.csv","","null","resources/maskTrios/BT2B.jpg","null","",NA,NA,NA,NA,""
"image-keyboard-response",394,391602,"0.0-3.127-2.127","u0yub8vwgvco2lh",578,"195.csv","","null","resources/images/fishbone.png","null","",NA,NA,NA,NA,""
"image-keyboard-response",395,392908,"0.0-3.128-0.128","u0yub8vwgvco2lh",578,"195.csv","","1303.5","resources/trios/L4T4A2.jpg","37","restless",0.4,0.2,0.4,0.733163625926167,"false"
"image-keyboard-response",396,393310,"0.0-3.128-1.128","u0yub8vwgvco2lh",578,"195.csv","","null","resources/maskTrios/L4BB.jpg","null","",NA,NA,NA,NA,""
"image-keyboard-response",397,394515,"0.0-3.128-2.128","u0yub8vwgvco2lh",578,"195.csv","","null","resources/images/fishbone.png","null","",NA,NA,NA,NA,""
"image-keyboard-response",398,395300,"0.0-3.129-0.129","u0yub8vwgvco2lh",578,"195.csv","","781.6000000000931","resources/trios/L2T2A2.jpg","39","restless",0.4,0.2,0.4,0.872047542046547,"false"
"image-keyboard-response",399,395704,"0.0-3.129-1.129","u0yub8vwgvco2lh",578,"195.csv","","null","resources/maskTrios/BBA2.jpg","null","",NA,NA,NA,NA,""
"image-keyboard-response",400,396909,"0.0-3.129-2.129","u0yub8vwgvco2lh",578,"195.csv","","null","resources/images/fishbone.png","null","",NA,NA,NA,NA,""
"image-keyboard-response",401,397809,"0.0-3.130-0.130","u0yub8vwgvco2lh",578,"195.csv","","897.3999999999069","resources/trios/L4T2A2.jpg","39","restless",0.4,0.2,0.4,0.424763522966328,"false"
"image-keyboard-response",402,398214,"0.0-3.130-1.130","u0yub8vwgvco2lh",578,"195.csv","","null","resources/maskTrios/BBA2.jpg","null","",NA,NA,NA,NA,""
"image-keyboard-response",403,399421,"0.0-3.130-2.130","u0yub8vwgvco2lh",578,"195.csv","","null","resources/images/fishbone.png","null","",NA,NA,NA,NA,""
"image-keyboard-response",404,399755,"0.0-3.131-0.131","u0yub8vwgvco2lh",578,"195.csv","","330.89999999990687","resources/trios/L4T4A1.jpg","39","restless",0.4,0.2,0.4,0.436024233822169,"false"
"image-keyboard-response",405,400159,"0.0-3.131-1.131","u0yub8vwgvco2lh",578,"195.csv","","null","resources/maskTrios/BBA1.jpg","null","",NA,NA,NA,NA,""
"image-keyboard-response",406,401366,"0.0-3.131-2.131","u0yub8vwgvco2lh",578,"195.csv","","null","resources/images/fishbone.png","null","",NA,NA,NA,NA,""
"image-keyboard-response",407,401627,"0.0-3.132-0.132","u0yub8vwgvco2lh",578,"195.csv","","258.39999999990687","resources/trios/L4T4A2.jpg","39","restless",0.4,0.2,0.4,0.101529497102289,"true"
"image-keyboard-response",408,402030,"0.0-3.132-1.132","u0yub8vwgvco2lh",578,"195.csv","","null","resources/maskTrios/BBA2.jpg","null","",NA,NA,NA,NA,""
"image-keyboard-response",409,403235,"0.0-3.132-2.132","u0yub8vwgvco2lh",578,"195.csv","","null","resources/images/coin2.png","null","",NA,NA,NA,NA,""
"image-keyboard-response",410,403619,"0.0-3.133-0.133","u0yub8vwgvco2lh",578,"195.csv","","381","resources/trios/L4T4A2.jpg","39","restless",0.4,0.2,0.4,0.361305241668982,"true"
"image-keyboard-response",411,404024,"0.0-3.133-1.133","u0yub8vwgvco2lh",578,"195.csv","","null","resources/maskTrios/BBA2.jpg","null","",NA,NA,NA,NA,""
"image-keyboard-response",412,405232,"0.0-3.133-2.133","u0yub8vwgvco2lh",578,"195.csv","","null","resources/images/coin2.png","null","",NA,NA,NA,NA,""
"image-keyboard-response",413,405630,"0.0-3.134-0.134","u0yub8vwgvco2lh",578,"195.csv","","395.89999999990687","resources/trios/L2T4A2.jpg","39","restless",0.4,0.2,0.4,0.993036558965445,"false"
"image-keyboard-response",414,406033,"0.0-3.134-1.134","u0yub8vwgvco2lh",578,"195.csv","","null","resources/maskTrios/BBA2.jpg","null","",NA,NA,NA,NA,""
"image-keyboard-response",415,407240,"0.0-3.134-2.134","u0yub8vwgvco2lh",578,"195.csv","","null","resources/images/fishbone.png","null","",NA,NA,NA,NA,""
"image-keyboard-response",416,407500,"0.0-3.135-0.135","u0yub8vwgvco2lh",578,"195.csv","","256.59999999962747","resources/trios/L4T4A2.jpg","37","restless",0.4,0.2,0.4,0.0909394881377139,"true"
"image-keyboard-response",417,407904,"0.0-3.135-1.135","u0yub8vwgvco2lh",578,"195.csv","","null","resources/maskTrios/L4BB.jpg","null","",NA,NA,NA,NA,""
"image-keyboard-response",418,409109,"0.0-3.135-2.135","u0yub8vwgvco2lh",578,"195.csv","","null","resources/images/coin2.png","null","",NA,NA,NA,NA,""
"image-keyboard-response",419,409344,"0.0-3.136-0.136","u0yub8vwgvco2lh",578,"195.csv","","232.1999999997206","resources/trios/L4T4A1.jpg","37","restless",0.4,0.2,0.4,0.2764565008771,"true"
"image-keyboard-response",420,409748,"0.0-3.136-1.136","u0yub8vwgvco2lh",578,"195.csv","","null","resources/maskTrios/L4BB.jpg","null","",NA,NA,NA,NA,""
"image-keyboard-response",421,410955,"0.0-3.136-2.136","u0yub8vwgvco2lh",578,"195.csv","","null","resources/images/coin2.png","null","",NA,NA,NA,NA,""
"image-keyboard-response",422,411380,"0.0-3.137-0.137","u0yub8vwgvco2lh",578,"195.csv","","421.6999999997206","resources/trios/L2T4A2.jpg","37","restless",0.4,0.2,0.4,0.996299798252226,"false"
"image-keyboard-response",423,411785,"0.0-3.137-1.137","u0yub8vwgvco2lh",578,"195.csv","","null","resources/maskTrios/L2BB.jpg","null","",NA,NA,NA,NA,""
"image-keyboard-response",424,412991,"0.0-3.137-2.137","u0yub8vwgvco2lh",578,"195.csv","","null","resources/images/fishbone.png","null","",NA,NA,NA,NA,""
"image-keyboard-response",425,413644,"0.0-3.138-0.138","u0yub8vwgvco2lh",578,"195.csv","","649.5999999996275","resources/trios/L4T4A2.jpg","37","restless",0.4,0.2,0.4,0.742173445906597,"false"
"image-keyboard-response",426,414052,"0.0-3.138-1.138","u0yub8vwgvco2lh",578,"195.csv","","null","resources/maskTrios/L4BB.jpg","null","",NA,NA,NA,NA,""
"image-keyboard-response",427,415255,"0.0-3.138-2.138","u0yub8vwgvco2lh",578,"195.csv","","null","resources/images/fishbone.png","null","",NA,NA,NA,NA,""
"image-keyboard-response",428,416693,"0.0-3.139-0.139","u0yub8vwgvco2lh",578,"195.csv","","1434.5","resources/trios/L4T2A2.jpg","39","restless",0.4,0.2,0.4,0.627335196941325,"false"
"image-keyboard-response",429,417100,"0.0-3.139-1.139","u0yub8vwgvco2lh",578,"195.csv","","null","resources/maskTrios/BBA2.jpg","null","",NA,NA,NA,NA,""
"image-keyboard-response",430,418303,"0.0-3.139-2.139","u0yub8vwgvco2lh",578,"195.csv","","null","resources/images/fishbone.png","null","",NA,NA,NA,NA,""
"image-keyboard-response",431,418591,"0.0-3.140-0.140","u0yub8vwgvco2lh",578,"195.csv","","285.10000000009313","resources/trios/L2T2A2.jpg","37","restless",0.4,0.2,0.4,0.328965126611008,"true"
"image-keyboard-response",432,418995,"0.0-3.140-1.140","u0yub8vwgvco2lh",578,"195.csv","","null","resources/maskTrios/L2BB.jpg","null","",NA,NA,NA,NA,""
"image-keyboard-response",433,420201,"0.0-3.140-2.140","u0yub8vwgvco2lh",578,"195.csv","","null","resources/images/coin2.png","null","",NA,NA,NA,NA,""
"image-keyboard-response",434,420667,"0.0-3.141-0.141","u0yub8vwgvco2lh",578,"195.csv","","463.10000000009313","resources/trios/L4T4A2.jpg","37","restless",0.4,0.2,0.4,0.90974580781437,"false"
"image-keyboard-response",435,421075,"0.0-3.141-1.141","u0yub8vwgvco2lh",578,"195.csv","","null","resources/maskTrios/L4BB.jpg","null","",NA,NA,NA,NA,""
"image-keyboard-response",436,422280,"0.0-3.141-2.141","u0yub8vwgvco2lh",578,"195.csv","","null","resources/images/fishbone.png","null","",NA,NA,NA,NA,""
"image-keyboard-response",437,422542,"0.0-3.142-0.142","u0yub8vwgvco2lh",578,"195.csv","","259.39999999990687","resources/trios/L4T4A2.jpg","39","restless",0.4,0.2,0.4,0.681958449367046,"false"
"image-keyboard-response",438,422946,"0.0-3.142-1.142","u0yub8vwgvco2lh",578,"195.csv","","null","resources/maskTrios/BBA2.jpg","null","",NA,NA,NA,NA,""
"image-keyboard-response",439,424154,"0.0-3.142-2.142","u0yub8vwgvco2lh",578,"195.csv","","null","resources/images/fishbone.png","null","",NA,NA,NA,NA,""
"image-keyboard-response",440,424428,"0.0-3.143-0.143","u0yub8vwgvco2lh",578,"195.csv","","270.70000000018626","resources/trios/L2T4A1.jpg","37","restless",0.4,0.3,0.4,0.335233106193372,"true"
"image-keyboard-response",441,424834,"0.0-3.143-1.143","u0yub8vwgvco2lh",578,"195.csv","","null","resources/maskTrios/L2BB.jpg","null","",NA,NA,NA,NA,""
"image-keyboard-response",442,426040,"0.0-3.143-2.143","u0yub8vwgvco2lh",578,"195.csv","","null","resources/images/coin2.png","null","",NA,NA,NA,NA,""
"image-keyboard-response",443,426339,"0.0-3.144-0.144","u0yub8vwgvco2lh",578,"195.csv","","296.29999999981374","resources/trios/L2T4A2.jpg","39","restless",0.4,0.3,0.4,0.81012074625224,"false"
"image-keyboard-response",444,426746,"0.0-3.144-1.144","u0yub8vwgvco2lh",578,"195.csv","","null","resources/maskTrios/BBA2.jpg","null","",NA,NA,NA,NA,""
"image-keyboard-response",445,427951,"0.0-3.144-2.144","u0yub8vwgvco2lh",578,"195.csv","","null","resources/images/fishbone.png","null","",NA,NA,NA,NA,""
"image-keyboard-response",446,428301,"0.0-3.145-0.145","u0yub8vwgvco2lh",578,"195.csv","","347.10000000009313","resources/trios/L2T2A2.jpg","38","restless",0.4,0.3,0.4,0.385531686692964,"false"
"image-keyboard-response",447,428709,"0.0-3.145-1.145","u0yub8vwgvco2lh",578,"195.csv","","null","resources/maskTrios/BT2B.jpg","null","",NA,NA,NA,NA,""
"image-keyboard-response",448,429912,"0.0-3.145-2.145","u0yub8vwgvco2lh",578,"195.csv","","null","resources/images/fishbone.png","null","",NA,NA,NA,NA,""
"image-keyboard-response",449,430112,"0.0-3.146-0.146","u0yub8vwgvco2lh",578,"195.csv","","197.5","resources/trios/L4T4A2.jpg","38","restless",0.4,0.4,0.4,0.806484697188666,"false"
"image-keyboard-response",450,430517,"0.0-3.146-1.146","u0yub8vwgvco2lh",578,"195.csv","","null","resources/maskTrios/BT4B.jpg","null","",NA,NA,NA,NA,""
"image-keyboard-response",451,431724,"0.0-3.146-2.146","u0yub8vwgvco2lh",578,"195.csv","","null","resources/images/fishbone.png","null","",NA,NA,NA,NA,""
"image-keyboard-response",452,431786,"0.0-3.147-0.147","u0yub8vwgvco2lh",578,"195.csv","","59.09999999962747","resources/trios/L2T2A1.jpg","39","restless",0.4,0.4,0.3,0.340039875491928,"false"
"image-keyboard-response",453,432190,"0.0-3.147-1.147","u0yub8vwgvco2lh",578,"195.csv","","null","resources/maskTrios/BBA1.jpg","null","",NA,NA,NA,NA,""
"image-keyboard-response",454,433394,"0.0-3.147-2.147","u0yub8vwgvco2lh",578,"195.csv","","null","resources/images/fishbone.png","null","",NA,NA,NA,NA,""
"image-keyboard-response",455,433529,"0.0-3.148-0.148","u0yub8vwgvco2lh",578,"195.csv","","133","resources/trios/L2T2A1.jpg","39","restless",0.5,0.4,0.3,0.789211571631168,"false"
"image-keyboard-response",456,433934,"0.0-3.148-1.148","u0yub8vwgvco2lh",578,"195.csv","","null","resources/maskTrios/BBA1.jpg","null","",NA,NA,NA,NA,""
"image-keyboard-response",457,435136,"0.0-3.148-2.148","u0yub8vwgvco2lh",578,"195.csv","","null","resources/images/fishbone.png","null","",NA,NA,NA,NA,""
"image-keyboard-response",458,435376,"0.0-3.149-0.149","u0yub8vwgvco2lh",578,"195.csv","","236.59999999962747","resources/trios/L4T2A1.jpg","39","restless",0.5,0.4,0.3,0.33974584227937,"false"
"image-keyboard-response",459,435784,"0.0-3.149-1.149","u0yub8vwgvco2lh",578,"195.csv","","null","resources/maskTrios/BBA1.jpg","null","",NA,NA,NA,NA,""
"image-keyboard-response",460,436991,"0.0-3.149-2.149","u0yub8vwgvco2lh",578,"195.csv","","null","resources/images/fishbone.png","null","",NA,NA,NA,NA,""
"image-keyboard-response",461,437150,"0.0-3.150-0.150","u0yub8vwgvco2lh",578,"195.csv","","155.60000000009313","resources/trios/L2T4A1.jpg","37","restless",0.5,0.3,0.3,0.540948530527607,"false"
"image-keyboard-response",462,437555,"0.0-3.150-1.150","u0yub8vwgvco2lh",578,"195.csv","","null","resources/maskTrios/L2BB.jpg","null","",NA,NA,NA,NA,""
"image-keyboard-response",463,438762,"0.0-3.150-2.150","u0yub8vwgvco2lh",578,"195.csv","","null","resources/images/fishbone.png","null","",NA,NA,NA,NA,""
"image-keyboard-response",464,438786,"0.0-3.151-0.151","u0yub8vwgvco2lh",578,"195.csv","","21.299999999813735","resources/trios/L2T2A1.jpg","37","restless",0.5,0.3,0.3,0.357433258710868,"true"
"image-keyboard-response",465,439190,"0.0-3.151-1.151","u0yub8vwgvco2lh",578,"195.csv","","null","resources/maskTrios/L2BB.jpg","null","",NA,NA,NA,NA,""
"image-keyboard-response",466,440397,"0.0-3.151-2.151","u0yub8vwgvco2lh",578,"195.csv","","null","resources/images/coin2.png","null","",NA,NA,NA,NA,""
"image-keyboard-response",467,440610,"0.0-3.152-0.152","u0yub8vwgvco2lh",578,"195.csv","","209.89999999990687","resources/trios/L4T4A1.jpg","37","restless",0.5,0.3,0.3,0.957680443802646,"false"
"image-keyboard-response",468,441014,"0.0-3.152-1.152","u0yub8vwgvco2lh",578,"195.csv","","null","resources/maskTrios/L4BB.jpg","null","",NA,NA,NA,NA,""
"image-keyboard-response",469,442217,"0.0-3.152-2.152","u0yub8vwgvco2lh",578,"195.csv","","null","resources/images/fishbone.png","null","",NA,NA,NA,NA,""
"image-keyboard-response",470,444383,"0.0-3.153-0.153","u0yub8vwgvco2lh",578,"195.csv","","2162.899999999907","resources/trios/L2T4A1.jpg","39","restless",0.5,0.3,0.3,0.0231336436616738,"true"
"image-keyboard-response",471,444790,"0.0-3.153-1.153","u0yub8vwgvco2lh",578,"195.csv","","null","resources/maskTrios/BBA1.jpg","null","",NA,NA,NA,NA,""
"image-keyboard-response",472,445997,"0.0-3.153-2.153","u0yub8vwgvco2lh",578,"195.csv","","null","resources/images/coin2.png","null","",NA,NA,NA,NA,""
"image-keyboard-response",473,446312,"0.0-3.154-0.154","u0yub8vwgvco2lh",578,"195.csv","","312","resources/trios/L4T4A2.jpg","39","restless",0.6,0.3,0.3,0.812828484865716,"false"
"image-keyboard-response",474,446717,"0.0-3.154-1.154","u0yub8vwgvco2lh",578,"195.csv","","null","resources/maskTrios/BBA2.jpg","null","",NA,NA,NA,NA,""
"image-keyboard-response",475,447924,"0.0-3.154-2.154","u0yub8vwgvco2lh",578,"195.csv","","null","resources/images/fishbone.png","null","",NA,NA,NA,NA,""
"image-keyboard-response",476,448615,"0.0-3.155-0.155","u0yub8vwgvco2lh",578,"195.csv","","688.6999999997206","resources/trios/L4T4A1.jpg","39","restless",0.6,0.3,0.3,0.380704495246881,"false"
"image-keyboard-response",477,449023,"0.0-3.155-1.155","u0yub8vwgvco2lh",578,"195.csv","","null","resources/maskTrios/BBA1.jpg","null","",NA,NA,NA,NA,""
"image-keyboard-response",478,450231,"0.0-3.155-2.155","u0yub8vwgvco2lh",578,"195.csv","","null","resources/images/fishbone.png","null","",NA,NA,NA,NA,""
"image-keyboard-response",479,451034,"0.0-3.156-0.156","u0yub8vwgvco2lh",578,"195.csv","","800.8999999999069","resources/trios/L2T2A1.jpg","39","restless",0.6,0.3,0.2,0.605453526896364,"false"
"image-keyboard-response",480,451439,"0.0-3.156-1.156","u0yub8vwgvco2lh",578,"195.csv","","null","resources/maskTrios/BBA1.jpg","null","",NA,NA,NA,NA,""
"image-keyboard-response",481,452647,"0.0-3.156-2.156","u0yub8vwgvco2lh",578,"195.csv","","null","resources/images/fishbone.png","null","",NA,NA,NA,NA,""
"image-keyboard-response",482,452927,"0.0-3.157-0.157","u0yub8vwgvco2lh",578,"195.csv","","277","resources/trios/L2T4A2.jpg","39","restless",0.6,0.3,0.2,0.873704622148261,"false"
"image-keyboard-response",483,453333,"0.0-3.157-1.157","u0yub8vwgvco2lh",578,"195.csv","","null","resources/maskTrios/BBA2.jpg","null","",NA,NA,NA,NA,""
"image-keyboard-response",484,454539,"0.0-3.157-2.157","u0yub8vwgvco2lh",578,"195.csv","","null","resources/images/fishbone.png","null","",NA,NA,NA,NA,""
"image-keyboard-response",485,454812,"0.0-3.158-0.158","u0yub8vwgvco2lh",578,"195.csv","","270.39999999990687","resources/trios/L4T2A2.jpg","39","restless",0.6,0.3,0.2,0.336879682197941,"false"
"image-keyboard-response",486,455218,"0.0-3.158-1.158","u0yub8vwgvco2lh",578,"195.csv","","null","resources/maskTrios/BBA2.jpg","null","",NA,NA,NA,NA,""
"image-keyboard-response",487,456425,"0.0-3.158-2.158","u0yub8vwgvco2lh",578,"195.csv","","null","resources/images/fishbone.png","null","",NA,NA,NA,NA,""
"image-keyboard-response",488,458842,"0.0-3.159-0.159","u0yub8vwgvco2lh",578,"195.csv","","2414.2000000001863","resources/trios/L2T2A2.jpg","39","restless",0.6,0.4,0.2,0.703192764238004,"false"
"image-keyboard-response",489,459250,"0.0-3.159-1.159","u0yub8vwgvco2lh",578,"195.csv","","null","resources/maskTrios/BBA2.jpg","null","",NA,NA,NA,NA,""
"image-keyboard-response",490,460455,"0.0-3.159-2.159","u0yub8vwgvco2lh",578,"195.csv","","null","resources/images/fishbone.png","null","",NA,NA,NA,NA,""
"image-keyboard-response",491,460780,"0.0-3.160-0.160","u0yub8vwgvco2lh",578,"195.csv","","322.5","resources/trios/L2T4A1.jpg","37","restless",0.6,0.4,0.2,0.33149719841729,"true"
"image-keyboard-response",492,461187,"0.0-3.160-1.160","u0yub8vwgvco2lh",578,"195.csv","","null","resources/maskTrios/L2BB.jpg","null","",NA,NA,NA,NA,""
"image-keyboard-response",493,462393,"0.0-3.160-2.160","u0yub8vwgvco2lh",578,"195.csv","","null","resources/images/coin2.png","null","",NA,NA,NA,NA,""
"image-keyboard-response",494,462709,"0.0-3.161-0.161","u0yub8vwgvco2lh",578,"195.csv","","313.1999999997206","resources/trios/L4T2A2.jpg","37","restless",0.6,0.4,0.2,0.844459486422191,"false"
"image-keyboard-response",495,463116,"0.0-3.161-1.161","u0yub8vwgvco2lh",578,"195.csv","","null","resources/maskTrios/L4BB.jpg","null","",NA,NA,NA,NA,""
"image-keyboard-response",496,464322,"0.0-3.161-2.161","u0yub8vwgvco2lh",578,"195.csv","","null","resources/images/fishbone.png","null","",NA,NA,NA,NA,""
"image-keyboard-response",497,466402,"0.0-3.162-0.162","u0yub8vwgvco2lh",578,"195.csv","","2077.2000000001863","resources/trios/L2T2A2.jpg","39","restless",0.6,0.4,0.2,0.305139078264566,"false"
"image-keyboard-response",498,466808,"0.0-3.162-1.162","u0yub8vwgvco2lh",578,"195.csv","","null","resources/maskTrios/BBA2.jpg","null","",NA,NA,NA,NA,""
"image-keyboard-response",499,468016,"0.0-3.162-2.162","u0yub8vwgvco2lh",578,"195.csv","","null","resources/images/fishbone.png","null","",NA,NA,NA,NA,""
"image-keyboard-response",500,468361,"0.0-3.163-0.163","u0yub8vwgvco2lh",578,"195.csv","","342.39999999990687","resources/trios/L4T2A1.jpg","37","restless",0.6,0.4,0.2,0.935004663587845,"false"
"image-keyboard-response",501,468768,"0.0-3.163-1.163","u0yub8vwgvco2lh",578,"195.csv","","null","resources/maskTrios/L4BB.jpg","null","",NA,NA,NA,NA,""
"image-keyboard-response",502,469975,"0.0-3.163-2.163","u0yub8vwgvco2lh",578,"195.csv","","null","resources/images/fishbone.png","null","",NA,NA,NA,NA,""
"image-keyboard-response",503,470410,"0.0-3.164-0.164","u0yub8vwgvco2lh",578,"195.csv","","431.59999999962747","resources/trios/L4T2A2.jpg","38","restless",0.6,0.4,0.3,0.686864773691745,"false"
"image-keyboard-response",504,470817,"0.0-3.164-1.164","u0yub8vwgvco2lh",578,"195.csv","","null","resources/maskTrios/BT2B.jpg","null","",NA,NA,NA,NA,""
"image-keyboard-response",505,472022,"0.0-3.164-2.164","u0yub8vwgvco2lh",578,"195.csv","","null","resources/images/fishbone.png","null","",NA,NA,NA,NA,""
"image-keyboard-response",506,476715,"0.0-3.165-0.165","u0yub8vwgvco2lh",578,"195.csv","","4690.899999999907","resources/trios/L2T4A1.jpg","39","restless",0.6,0.4,0.3,0.303763152975841,"false"
"image-keyboard-response",507,477121,"0.0-3.165-1.165","u0yub8vwgvco2lh",578,"195.csv","","null","resources/maskTrios/BBA1.jpg","null","",NA,NA,NA,NA,""
"image-keyboard-response",508,478328,"0.0-3.165-2.165","u0yub8vwgvco2lh",578,"195.csv","","null","resources/images/fishbone.png","null","",NA,NA,NA,NA,""
"image-keyboard-response",509,494435,"0.0-3.166-0.166","u0yub8vwgvco2lh",578,"195.csv","","16104.600000000093","resources/trios/L2T4A1.jpg","39","restless",0.5,0.4,0.3,0.988429709972288,"false"
"image-keyboard-response",510,494843,"0.0-3.166-1.166","u0yub8vwgvco2lh",578,"195.csv","","null","resources/maskTrios/BBA1.jpg","null","",NA,NA,NA,NA,""
"image-keyboard-response",511,496049,"0.0-3.166-2.166","u0yub8vwgvco2lh",578,"195.csv","","null","resources/images/fishbone.png","null","",NA,NA,NA,NA,""
"image-keyboard-response",512,498096,"0.0-3.167-0.167","u0yub8vwgvco2lh",578,"195.csv","","2044","resources/trios/L2T2A1.jpg","37","restless",0.5,0.4,0.4,0.988988846092892,"false"
"image-keyboard-response",513,498501,"0.0-3.167-1.167","u0yub8vwgvco2lh",578,"195.csv","","null","resources/maskTrios/L2BB.jpg","null","",NA,NA,NA,NA,""
"image-keyboard-response",514,499706,"0.0-3.167-2.167","u0yub8vwgvco2lh",578,"195.csv","","null","resources/images/fishbone.png","null","",NA,NA,NA,NA,""
"image-keyboard-response",515,499902,"0.0-3.168-0.168","u0yub8vwgvco2lh",578,"195.csv","","192.8000000002794","resources/trios/L2T2A1.jpg","38","restless",0.5,0.4,0.4,0.92712827844235,"false"
"image-keyboard-response",516,500310,"0.0-3.168-1.168","u0yub8vwgvco2lh",578,"195.csv","","null","resources/maskTrios/BT2B.jpg","null","",NA,NA,NA,NA,""
"image-keyboard-response",517,501515,"0.0-3.168-2.168","u0yub8vwgvco2lh",578,"195.csv","","null","resources/images/fishbone.png","null","",NA,NA,NA,NA,""
"image-keyboard-response",518,501853,"0.0-3.169-0.169","u0yub8vwgvco2lh",578,"195.csv","","334.89999999990687","resources/trios/L4T2A1.jpg","39","restless",0.5,0.4,0.4,0.267425729894268,"true"
"image-keyboard-response",519,502261,"0.0-3.169-1.169","u0yub8vwgvco2lh",578,"195.csv","","null","resources/maskTrios/BBA1.jpg","null","",NA,NA,NA,NA,""
"image-keyboard-response",520,503465,"0.0-3.169-2.169","u0yub8vwgvco2lh",578,"195.csv","","null","resources/images/coin2.png","null","",NA,NA,NA,NA,""
"image-keyboard-response",521,505187,"0.0-3.170-0.170","u0yub8vwgvco2lh",578,"195.csv","","1718.3999999999069","resources/trios/L4T4A1.jpg","39","restless",0.4,0.4,0.4,0.724622918994955,"false"
"image-keyboard-response",522,505593,"0.0-3.170-1.170","u0yub8vwgvco2lh",578,"195.csv","","null","resources/maskTrios/BBA1.jpg","null","",NA,NA,NA,NA,""
"image-keyboard-response",523,506798,"0.0-3.170-2.170","u0yub8vwgvco2lh",578,"195.csv","","null","resources/images/fishbone.png","null","",NA,NA,NA,NA,""
"image-keyboard-response",524,507769,"0.0-3.171-0.171","u0yub8vwgvco2lh",578,"195.csv","","967.8999999999069","resources/trios/L4T2A1.jpg","39","restless",0.4,0.4,0.4,0.500015868144038,"false"
"image-keyboard-response",525,508177,"0.0-3.171-1.171","u0yub8vwgvco2lh",578,"195.csv","","null","resources/maskTrios/BBA1.jpg","null","",NA,NA,NA,NA,""
"image-keyboard-response",526,509384,"0.0-3.171-2.171","u0yub8vwgvco2lh",578,"195.csv","","null","resources/images/fishbone.png","null","",NA,NA,NA,NA,""
"image-keyboard-response",527,510287,"0.0-3.172-0.172","u0yub8vwgvco2lh",578,"195.csv","","900.1000000000931","resources/trios/L2T2A1.jpg","39","restless",0.4,0.4,0.4,0.946945645077069,"false"
"image-keyboard-response",528,510694,"0.0-3.172-1.172","u0yub8vwgvco2lh",578,"195.csv","","null","resources/maskTrios/BBA1.jpg","null","",NA,NA,NA,NA,""
"image-keyboard-response",529,511899,"0.0-3.172-2.172","u0yub8vwgvco2lh",578,"195.csv","","null","resources/images/fishbone.png","null","",NA,NA,NA,NA,""
"image-keyboard-response",530,512772,"0.0-3.173-0.173","u0yub8vwgvco2lh",578,"195.csv","","870.0999999996275","resources/trios/L2T4A2.jpg","39","restless",0.4,0.4,0.4,0.547723966200616,"false"
"image-keyboard-response",531,513180,"0.0-3.173-1.173","u0yub8vwgvco2lh",578,"195.csv","","null","resources/maskTrios/BBA2.jpg","null","",NA,NA,NA,NA,""
"image-keyboard-response",532,514385,"0.0-3.173-2.173","u0yub8vwgvco2lh",578,"195.csv","","null","resources/images/fishbone.png","null","",NA,NA,NA,NA,""
"image-keyboard-response",533,514769,"0.0-3.174-0.174","u0yub8vwgvco2lh",578,"195.csv","","381.60000000009313","resources/trios/L2T2A1.jpg","39","restless",0.4,0.4,0.4,0.192165865165171,"true"
"image-keyboard-response",534,515177,"0.0-3.174-1.174","u0yub8vwgvco2lh",578,"195.csv","","null","resources/maskTrios/BBA1.jpg","null","",NA,NA,NA,NA,""
"image-keyboard-response",535,516385,"0.0-3.174-2.174","u0yub8vwgvco2lh",578,"195.csv","","null","resources/images/coin2.png","null","",NA,NA,NA,NA,""
"image-keyboard-response",536,517158,"0.0-3.175-0.175","u0yub8vwgvco2lh",578,"195.csv","","769.8999999999069","resources/trios/L2T4A2.jpg","39","restless",0.4,0.4,0.4,0.745536119265337,"false"
"image-keyboard-response",537,517566,"0.0-3.175-1.175","u0yub8vwgvco2lh",578,"195.csv","","null","resources/maskTrios/BBA2.jpg","null","",NA,NA,NA,NA,""
"image-keyboard-response",538,518771,"0.0-3.175-2.175","u0yub8vwgvco2lh",578,"195.csv","","null","resources/images/fishbone.png","null","",NA,NA,NA,NA,""
"image-keyboard-response",539,519554,"0.0-3.176-0.176","u0yub8vwgvco2lh",578,"195.csv","","781.4000000003725","resources/trios/L2T2A1.jpg","39","restless",0.4,0.4,0.4,0.532799792364024,"false"
"image-keyboard-response",540,519960,"0.0-3.176-1.176","u0yub8vwgvco2lh",578,"195.csv","","null","resources/maskTrios/BBA1.jpg","null","",NA,NA,NA,NA,""
"image-keyboard-response",541,521165,"0.0-3.176-2.176","u0yub8vwgvco2lh",578,"195.csv","","null","resources/images/fishbone.png","null","",NA,NA,NA,NA,""
"image-keyboard-response",542,526247,"0.0-3.177-0.177","u0yub8vwgvco2lh",578,"195.csv","","5079.399999999907","resources/trios/L4T4A1.jpg","39","restless",0.4,0.4,0.4,0.0671884921043133,"true"
"image-keyboard-response",543,526653,"0.0-3.177-1.177","u0yub8vwgvco2lh",578,"195.csv","","null","resources/maskTrios/BBA1.jpg","null","",NA,NA,NA,NA,""
"image-keyboard-response",544,527861,"0.0-3.177-2.177","u0yub8vwgvco2lh",578,"195.csv","","null","resources/images/coin2.png","null","",NA,NA,NA,NA,""
"image-keyboard-response",545,528158,"0.0-3.178-0.178","u0yub8vwgvco2lh",578,"195.csv","","294.5","resources/trios/L4T2A2.jpg","39","restless",0.4,0.5,0.4,0.0397836031732237,"true"
"image-keyboard-response",546,528566,"0.0-3.178-1.178","u0yub8vwgvco2lh",578,"195.csv","","null","resources/maskTrios/BBA2.jpg","null","",NA,NA,NA,NA,""
"image-keyboard-response",547,529774,"0.0-3.178-2.178","u0yub8vwgvco2lh",578,"195.csv","","null","resources/images/coin2.png","null","",NA,NA,NA,NA,""
"image-keyboard-response",548,532548,"0.0-3.179-0.179","u0yub8vwgvco2lh",578,"195.csv","","2770.8000000002794","resources/trios/L4T2A1.jpg","37","restless",0.4,0.5,0.4,0.667726937244265,"false"
"image-keyboard-response",549,532954,"0.0-3.179-1.179","u0yub8vwgvco2lh",578,"195.csv","","null","resources/maskTrios/L4BB.jpg","null","",NA,NA,NA,NA,""
"image-keyboard-response",550,534160,"0.0-3.179-2.179","u0yub8vwgvco2lh",578,"195.csv","","null","resources/images/fishbone.png","null","",NA,NA,NA,NA,""
"image-keyboard-response",551,534683,"0.0-3.180-0.180","u0yub8vwgvco2lh",578,"195.csv","","520.5","resources/trios/L4T4A1.jpg","37","restless",0.4,0.5,0.4,0.0697681605237561,"true"
"image-keyboard-response",552,535090,"0.0-3.180-1.180","u0yub8vwgvco2lh",578,"195.csv","","null","resources/maskTrios/L4BB.jpg","null","",NA,NA,NA,NA,""
"image-keyboard-response",553,536298,"0.0-3.180-2.180","u0yub8vwgvco2lh",578,"195.csv","","null","resources/images/coin2.png","null","",NA,NA,NA,NA,""
"image-keyboard-response",554,538095,"0.0-3.181-0.181","u0yub8vwgvco2lh",578,"195.csv","","1793.2000000001863","resources/trios/L4T2A2.jpg","37","restless",0.4,0.5,0.4,0.591094914594825,"false"
"image-keyboard-response",555,538500,"0.0-3.181-1.181","u0yub8vwgvco2lh",578,"195.csv","","null","resources/maskTrios/L4BB.jpg","null","",NA,NA,NA,NA,""
"image-keyboard-response",556,539704,"0.0-3.181-2.181","u0yub8vwgvco2lh",578,"195.csv","","null","resources/images/fishbone.png","null","",NA,NA,NA,NA,""
"image-keyboard-response",557,540329,"0.0-3.182-0.182","u0yub8vwgvco2lh",578,"195.csv","","622.2999999998137","resources/trios/L4T4A1.jpg","39","restless",0.4,0.5,0.5,0.888048174910866,"false"
"image-keyboard-response",558,540736,"0.0-3.182-1.182","u0yub8vwgvco2lh",578,"195.csv","","null","resources/maskTrios/BBA1.jpg","null","",NA,NA,NA,NA,""
"image-keyboard-response",559,541940,"0.0-3.182-2.182","u0yub8vwgvco2lh",578,"195.csv","","null","resources/images/fishbone.png","null","",NA,NA,NA,NA,""
"image-keyboard-response",560,547333,"0.0-3.183-0.183","u0yub8vwgvco2lh",578,"195.csv","","5390.199999999721","resources/trios/L4T2A2.jpg","37","restless",0.4,0.5,0.5,0.535837225417144,"false"
"image-keyboard-response",561,547741,"0.0-3.183-1.183","u0yub8vwgvco2lh",578,"195.csv","","null","resources/maskTrios/L4BB.jpg","null","",NA,NA,NA,NA,""
"image-keyboard-response",562,548949,"0.0-3.183-2.183","u0yub8vwgvco2lh",578,"195.csv","","null","resources/images/fishbone.png","null","",NA,NA,NA,NA,""
"image-keyboard-response",563,551200,"0.0-3.184-0.184","u0yub8vwgvco2lh",578,"195.csv","","2248.1999999997206","resources/trios/L2T4A1.jpg","38","restless",0.4,0.6,0.5,0.727417213898395,"false"
"image-keyboard-response",564,551607,"0.0-3.184-1.184","u0yub8vwgvco2lh",578,"195.csv","","null","resources/maskTrios/BT4B.jpg","null","",NA,NA,NA,NA,""
"image-keyboard-response",565,552810,"0.0-3.184-2.184","u0yub8vwgvco2lh",578,"195.csv","","null","resources/images/fishbone.png","null","",NA,NA,NA,NA,""
"image-keyboard-response",566,555802,"0.0-3.185-0.185","u0yub8vwgvco2lh",578,"195.csv","","2988.399999999907","resources/trios/L4T4A1.jpg","37","restless",0.3,0.6,0.5,0.233520621438415,"true"
"image-keyboard-response",567,556205,"0.0-3.185-1.185","u0yub8vwgvco2lh",578,"195.csv","","null","resources/maskTrios/L4BB.jpg","null","",NA,NA,NA,NA,""
"image-keyboard-response",568,557413,"0.0-3.185-2.185","u0yub8vwgvco2lh",578,"195.csv","","null","resources/images/coin2.png","null","",NA,NA,NA,NA,""
"image-keyboard-response",569,563340,"0.0-3.186-0.186","u0yub8vwgvco2lh",578,"195.csv","","5924.899999999907","resources/trios/L4T4A1.jpg","39","restless",0.3,0.6,0.5,0.791655249060815,"false"
"image-keyboard-response",570,563744,"0.0-3.186-1.186","u0yub8vwgvco2lh",578,"195.csv","","null","resources/maskTrios/BBA1.jpg","null","",NA,NA,NA,NA,""
"image-keyboard-response",571,564948,"0.0-3.186-2.186","u0yub8vwgvco2lh",578,"195.csv","","null","resources/images/fishbone.png","null","",NA,NA,NA,NA,""
"image-keyboard-response",572,565341,"0.0-3.187-0.187","u0yub8vwgvco2lh",578,"195.csv","","389.8000000002794","resources/trios/L2T2A1.jpg","39","restless",0.3,0.6,0.5,0.175419011590908,"true"
"image-keyboard-response",573,565747,"0.0-3.187-1.187","u0yub8vwgvco2lh",578,"195.csv","","null","resources/maskTrios/BBA1.jpg","null","",NA,NA,NA,NA,""
"image-keyboard-response",574,566953,"0.0-3.187-2.187","u0yub8vwgvco2lh",578,"195.csv","","null","resources/images/coin2.png","null","",NA,NA,NA,NA,""
"image-keyboard-response",575,595088,"0.0-3.188-0.188","u0yub8vwgvco2lh",578,"195.csv","","28132.700000000186","resources/trios/L4T4A1.jpg","37","restless",0.3,0.6,0.5,0.445244209290697,"false"
"image-keyboard-response",576,595493,"0.0-3.188-1.188","u0yub8vwgvco2lh",578,"195.csv","","null","resources/maskTrios/L4BB.jpg","null","",NA,NA,NA,NA,""
"image-keyboard-response",577,596698,"0.0-3.188-2.188","u0yub8vwgvco2lh",578,"195.csv","","null","resources/images/fishbone.png","null","",NA,NA,NA,NA,""
"image-keyboard-response",578,596933,"0.0-3.189-0.189","u0yub8vwgvco2lh",578,"195.csv","","231.5","resources/trios/L2T2A2.jpg","37","restless",0.3,0.6,0.5,0.758000512809724,"false"
"image-keyboard-response",579,597337,"0.0-3.189-1.189","u0yub8vwgvco2lh",578,"195.csv","","null","resources/maskTrios/L2BB.jpg","null","",NA,NA,NA,NA,""
"image-keyboard-response",580,598541,"0.0-3.189-2.189","u0yub8vwgvco2lh",578,"195.csv","","null","resources/images/fishbone.png","null","",NA,NA,NA,NA,""
"image-keyboard-response",581,598620,"0.0-3.190-0.190","u0yub8vwgvco2lh",578,"195.csv","","75.8000000002794","resources/trios/L4T4A2.jpg","37","restless",0.3,0.6,0.5,0.259986976652017,"true"
"image-keyboard-response",582,599025,"0.0-3.190-1.190","u0yub8vwgvco2lh",578,"195.csv","","null","resources/maskTrios/L4BB.jpg","null","",NA,NA,NA,NA,""
"image-keyboard-response",583,600232,"0.0-3.190-2.190","u0yub8vwgvco2lh",578,"195.csv","","null","resources/images/coin2.png","null","",NA,NA,NA,NA,""
"image-keyboard-response",584,600555,"0.0-3.191-0.191","u0yub8vwgvco2lh",578,"195.csv","","319.79999999981374","resources/trios/L2T2A2.jpg","39","restless",0.3,0.6,0.4,0.601710957782304,"false"
"image-keyboard-response",585,600961,"0.0-3.191-1.191","u0yub8vwgvco2lh",578,"195.csv","","null","resources/maskTrios/BBA2.jpg","null","",NA,NA,NA,NA,""
"image-keyboard-response",586,602166,"0.0-3.191-2.191","u0yub8vwgvco2lh",578,"195.csv","","null","resources/images/fishbone.png","null","",NA,NA,NA,NA,""
"image-keyboard-response",587,602231,"0.0-3.192-0.192","u0yub8vwgvco2lh",578,"195.csv","","62.5","resources/trios/L2T2A2.jpg","38","restless",0.3,0.6,0.4,0.694012728121341,"false"
"image-keyboard-response",588,602638,"0.0-3.192-1.192","u0yub8vwgvco2lh",578,"195.csv","","null","resources/maskTrios/BT2B.jpg","null","",NA,NA,NA,NA,""
"image-keyboard-response",589,603845,"0.0-3.192-2.192","u0yub8vwgvco2lh",578,"195.csv","","null","resources/images/fishbone.png","null","",NA,NA,NA,NA,""
"image-keyboard-response",590,604013,"0.0-3.193-0.193","u0yub8vwgvco2lh",578,"195.csv","","164.29999999981374","resources/trios/L4T4A1.jpg","38","restless",0.3,0.6,0.3,0.769194849734996,"false"
"image-keyboard-response",591,604417,"0.0-3.193-1.193","u0yub8vwgvco2lh",578,"195.csv","","null","resources/maskTrios/BT4B.jpg","null","",NA,NA,NA,NA,""
"image-keyboard-response",592,605625,"0.0-3.193-2.193","u0yub8vwgvco2lh",578,"195.csv","","null","resources/images/fishbone.png","null","",NA,NA,NA,NA,""
"image-keyboard-response",593,605825,"0.0-3.194-0.194","u0yub8vwgvco2lh",578,"195.csv","","196","resources/trios/L4T4A2.jpg","38","restless",0.3,0.6,0.3,0.808860931161856,"false"
"image-keyboard-response",594,606230,"0.0-3.194-1.194","u0yub8vwgvco2lh",578,"195.csv","","null","resources/maskTrios/BT4B.jpg","null","",NA,NA,NA,NA,""
"image-keyboard-response",595,607437,"0.0-3.194-2.194","u0yub8vwgvco2lh",578,"195.csv","","null","resources/images/fishbone.png","null","",NA,NA,NA,NA,""
"image-keyboard-response",596,607520,"0.0-3.195-0.195","u0yub8vwgvco2lh",578,"195.csv","","79.29999999981374","resources/trios/L4T2A1.jpg","38","restless",0.3,0.6,0.3,0.984164600615084,"false"
"image-keyboard-response",597,607926,"0.0-3.195-1.195","u0yub8vwgvco2lh",578,"195.csv","","null","resources/maskTrios/BT2B.jpg","null","",NA,NA,NA,NA,""
"image-keyboard-response",598,609131,"0.0-3.195-2.195","u0yub8vwgvco2lh",578,"195.csv","","null","resources/images/fishbone.png","null","",NA,NA,NA,NA,""
"image-keyboard-response",599,609615,"0.0-3.196-0.196","u0yub8vwgvco2lh",578,"195.csv","","481.5","resources/trios/L4T2A2.jpg","38","restless",0.2,0.7,0.3,0.999954115999159,"false"
"image-keyboard-response",600,610024,"0.0-3.196-1.196","u0yub8vwgvco2lh",578,"195.csv","","null","resources/maskTrios/BT2B.jpg","null","",NA,NA,NA,NA,""
"image-keyboard-response",601,611228,"0.0-3.196-2.196","u0yub8vwgvco2lh",578,"195.csv","","null","resources/images/fishbone.png","null","",NA,NA,NA,NA,""
"image-keyboard-response",602,611284,"0.0-3.197-0.197","u0yub8vwgvco2lh",578,"195.csv","","53.39999999990687","resources/trios/L4T2A2.jpg","39","restless",0.2,0.7,0.4,0.0328437017884682,"true"
"image-keyboard-response",603,611691,"0.0-3.197-1.197","u0yub8vwgvco2lh",578,"195.csv","","null","resources/maskTrios/BBA2.jpg","null","",NA,NA,NA,NA,""
"image-keyboard-response",604,612896,"0.0-3.197-2.197","u0yub8vwgvco2lh",578,"195.csv","","null","resources/images/coin2.png","null","",NA,NA,NA,NA,""
"image-keyboard-response",605,613153,"0.0-3.198-0.198","u0yub8vwgvco2lh",578,"195.csv","","254.5","resources/trios/L2T4A2.jpg","39","restless",0.2,0.7,0.3,0.67213551706978,"false"
