"trial_type","trial_index","time_elapsed","internal_node_id","subject","participantCode","walkNumber","success","rt","stimulus","key_press","test_part","leftProb","midProb","rightProb","generatedNum","correct"
"pavlovia",0,1133,"0.0-0.0","417wd0axwg7sf08",151,"199.csv","","","","","",NA,NA,NA,NA,""
"fullscreen",1,6151,"0.0-1.0","417wd0axwg7sf08",151,"199.csv","true","","","","",NA,NA,NA,NA,""
"html-keyboard-response",2,27595,"0.0-2.0-0.0","417wd0axwg7sf08",151,"199.csv","","21438","<p><font size='6'>Arrrgh!</p></font><p>Can you be the best pirate? Try to find lots of gold! But beware, some islands have more gold than others, and over time, the island with the most gold may change. Can YOU figure it out? </p><font size='6'>GOOD LUCK, CAPTAIN!!!</font><p>Press any key to begin</p>","32","",NA,NA,NA,NA,""
"image-keyboard-response",3,30600,"0.0-2.0-1.0","417wd0axwg7sf08",151,"199.csv","","null","resources/image_sets/111.png","null","",NA,NA,NA,NA,""
"image-keyboard-response",4,48398,"0.0-2.0-2.0","417wd0axwg7sf08",151,"199.csv","","17796.000000000007","resources/image_sets/left_highlight.png","37","",NA,NA,NA,NA,""
"image-keyboard-response",5,50994,"0.0-2.0-3.0","417wd0axwg7sf08",151,"199.csv","","2595","resources/image_sets/mid_highlight.png","38","",NA,NA,NA,NA,""
"image-keyboard-response",6,54719,"0.0-2.0-4.0","417wd0axwg7sf08",151,"199.csv","","3724","resources/image_sets/right_highlight.png","39","",NA,NA,NA,NA,""
"image-keyboard-response",7,62813,"0.0-2.0-5.0","417wd0axwg7sf08",151,"199.csv","","8092","resources/image_sets/111.png","13","",NA,NA,NA,NA,""
"image-keyboard-response",8,66222,"0.0-2.0-6.0","417wd0axwg7sf08",151,"199.csv","","3409","resources/images/coin2.png","13","",NA,NA,NA,NA,""
"image-keyboard-response",9,68530,"0.0-2.0-7.0","417wd0axwg7sf08",151,"199.csv","","2307","resources/images/fishbone.png","13","",NA,NA,NA,NA,""
"html-keyboard-response",10,78036,"0.0-2.0-8.0","417wd0axwg7sf08",151,"199.csv","","9505.000000000015","<p>Your first journey will be a long one, but you will get a well deserved break at the end</p><p>After the break you will have four more journeys, but each will be much shorter than the first, and you will have breaks in between each</p><p>Press Enter to begin</p>","13","",NA,NA,NA,NA,""
"image-keyboard-response",11,79412,"0.0-3.0-0.0","417wd0axwg7sf08",151,"199.csv","","1375","resources/trios/L1T4A1.jpg","37","restless",0.3,0.9,0.7,0.776648441546902,"false"
"image-keyboard-response",12,79816,"0.0-3.0-1.0","417wd0axwg7sf08",151,"199.csv","","null","resources/maskTrios/L1BB.jpg","null","",NA,NA,NA,NA,""
"image-keyboard-response",13,81019,"0.0-3.0-2.0","417wd0axwg7sf08",151,"199.csv","","null","resources/images/fishbone.png","null","",NA,NA,NA,NA,""
"image-keyboard-response",14,82933,"0.0-3.1-0.1","417wd0axwg7sf08",151,"199.csv","","1911","resources/trios/L2T1A1.jpg","39","restless",0.3,0.9,0.7,0.861378073848284,"false"
"image-keyboard-response",15,83336,"0.0-3.1-1.1","417wd0axwg7sf08",151,"199.csv","","null","resources/maskTrios/BBA1.jpg","null","",NA,NA,NA,NA,""
"image-keyboard-response",16,84539,"0.0-3.1-2.1","417wd0axwg7sf08",151,"199.csv","","null","resources/images/fishbone.png","null","",NA,NA,NA,NA,""
"image-keyboard-response",17,86630,"0.0-3.2-0.2","417wd0axwg7sf08",151,"199.csv","","2089","resources/trios/L1T4A3.jpg","38","restless",0.3,0.9,0.7,0.0507854671904814,"true"
"image-keyboard-response",18,87035,"0.0-3.2-1.2","417wd0axwg7sf08",151,"199.csv","","null","resources/maskTrios/BT4B.jpg","null","",NA,NA,NA,NA,""
"image-keyboard-response",19,88238,"0.0-3.2-2.2","417wd0axwg7sf08",151,"199.csv","","null","resources/images/coin2.png","null","",NA,NA,NA,NA,""
"image-keyboard-response",20,90480,"0.0-3.3-0.3","417wd0axwg7sf08",151,"199.csv","","2240","resources/trios/L2T4A3.jpg","38","restless",0.3,0.9,0.8,0.328902940173863,"true"
"image-keyboard-response",21,90883,"0.0-3.3-1.3","417wd0axwg7sf08",151,"199.csv","","null","resources/maskTrios/BT4B.jpg","null","",NA,NA,NA,NA,""
"image-keyboard-response",22,92086,"0.0-3.3-2.3","417wd0axwg7sf08",151,"199.csv","","null","resources/images/coin2.png","null","",NA,NA,NA,NA,""
"image-keyboard-response",23,93556,"0.0-3.4-0.4","417wd0axwg7sf08",151,"199.csv","","1469.0000000000146","resources/trios/L2T4A3.jpg","38","restless",0.3,0.9,0.8,0.363810005097356,"true"
"image-keyboard-response",24,93959,"0.0-3.4-1.4","417wd0axwg7sf08",151,"199.csv","","null","resources/maskTrios/BT4B.jpg","null","",NA,NA,NA,NA,""
"image-keyboard-response",25,95161,"0.0-3.4-2.4","417wd0axwg7sf08",151,"199.csv","","null","resources/images/coin2.png","null","",NA,NA,NA,NA,""
"image-keyboard-response",26,98824,"0.0-3.5-0.5","417wd0axwg7sf08",151,"199.csv","","3661","resources/trios/L1T1A3.jpg","39","restless",0.3,0.9,0.8,0.106886098955184,"true"
"image-keyboard-response",27,99226,"0.0-3.5-1.5","417wd0axwg7sf08",151,"199.csv","","null","resources/maskTrios/BBA3.jpg","null","",NA,NA,NA,NA,""
"image-keyboard-response",28,100429,"0.0-3.5-2.5","417wd0axwg7sf08",151,"199.csv","","null","resources/images/coin2.png","null","",NA,NA,NA,NA,""
"image-keyboard-response",29,101722,"0.0-3.6-0.6","417wd0axwg7sf08",151,"199.csv","","1290.9999999999854","resources/trios/L1T1A1.jpg","37","restless",0.3,0.9,0.8,0.969300425283032,"false"
"image-keyboard-response",30,102125,"0.0-3.6-1.6","417wd0axwg7sf08",151,"199.csv","","null","resources/maskTrios/L1BB.jpg","null","",NA,NA,NA,NA,""
"image-keyboard-response",31,103328,"0.0-3.6-2.6","417wd0axwg7sf08",151,"199.csv","","null","resources/images/fishbone.png","null","",NA,NA,NA,NA,""
"image-keyboard-response",32,104449,"0.0-3.7-0.7","417wd0axwg7sf08",151,"199.csv","","1120.0000000000146","resources/trios/L2T4A3.jpg","38","restless",0.3,0.8,0.8,0.603306551057664,"true"
"image-keyboard-response",33,104852,"0.0-3.7-1.7","417wd0axwg7sf08",151,"199.csv","","null","resources/maskTrios/BT4B.jpg","null","",NA,NA,NA,NA,""
"image-keyboard-response",34,106056,"0.0-3.7-2.7","417wd0axwg7sf08",151,"199.csv","","null","resources/images/coin2.png","null","",NA,NA,NA,NA,""
"image-keyboard-response",35,107165,"0.0-3.8-0.8","417wd0axwg7sf08",151,"199.csv","","1106","resources/trios/L1T1A3.jpg","38","restless",0.3,0.8,0.8,0.939914504414459,"false"
"image-keyboard-response",36,107567,"0.0-3.8-1.8","417wd0axwg7sf08",151,"199.csv","","null","resources/maskTrios/BT1B.jpg","null","",NA,NA,NA,NA,""
"image-keyboard-response",37,108771,"0.0-3.8-2.8","417wd0axwg7sf08",151,"199.csv","","null","resources/images/fishbone.png","null","",NA,NA,NA,NA,""
"image-keyboard-response",38,109162,"0.0-3.9-0.9","417wd0axwg7sf08",151,"199.csv","","390","resources/trios/L2T4A3.jpg","39","restless",0.3,0.8,0.8,0.000875114596766924,"true"
"image-keyboard-response",39,109565,"0.0-3.9-1.9","417wd0axwg7sf08",151,"199.csv","","null","resources/maskTrios/BBA3.jpg","null","",NA,NA,NA,NA,""
"image-keyboard-response",40,110768,"0.0-3.9-2.9","417wd0axwg7sf08",151,"199.csv","","null","resources/images/coin2.png","null","",NA,NA,NA,NA,""
"image-keyboard-response",41,111578,"0.0-3.10-0.10","417wd0axwg7sf08",151,"199.csv","","809","resources/trios/L1T1A3.jpg","37","restless",0.2,0.8,0.8,0.233876784607755,"false"
"image-keyboard-response",42,111981,"0.0-3.10-1.10","417wd0axwg7sf08",151,"199.csv","","null","resources/maskTrios/L1BB.jpg","null","",NA,NA,NA,NA,""
"image-keyboard-response",43,113184,"0.0-3.10-2.10","417wd0axwg7sf08",151,"199.csv","","null","resources/images/fishbone.png","null","",NA,NA,NA,NA,""
"image-keyboard-response",44,113512,"0.0-3.11-0.11","417wd0axwg7sf08",151,"199.csv","","326","resources/trios/L1T1A3.jpg","39","restless",0.2,0.8,0.8,0.657177929155573,"true"
"image-keyboard-response",45,113914,"0.0-3.11-1.11","417wd0axwg7sf08",151,"199.csv","","null","resources/maskTrios/BBA3.jpg","null","",NA,NA,NA,NA,""
"image-keyboard-response",46,115116,"0.0-3.11-2.11","417wd0axwg7sf08",151,"199.csv","","null","resources/images/coin2.png","null","",NA,NA,NA,NA,""
"image-keyboard-response",47,115496,"0.0-3.12-0.12","417wd0axwg7sf08",151,"199.csv","","378","resources/trios/L2T1A3.jpg","39","restless",0.2,0.8,0.8,0.69349169584779,"true"
"image-keyboard-response",48,115899,"0.0-3.12-1.12","417wd0axwg7sf08",151,"199.csv","","null","resources/maskTrios/BBA3.jpg","null","",NA,NA,NA,NA,""
"image-keyboard-response",49,117102,"0.0-3.12-2.12","417wd0axwg7sf08",151,"199.csv","","null","resources/images/coin2.png","null","",NA,NA,NA,NA,""
"image-keyboard-response",50,117676,"0.0-3.13-0.13","417wd0axwg7sf08",151,"199.csv","","572","resources/trios/L1T1A1.jpg","39","restless",0.2,0.8,0.8,0.633585318052376,"true"
"image-keyboard-response",51,118079,"0.0-3.13-1.13","417wd0axwg7sf08",151,"199.csv","","null","resources/maskTrios/BBA1.jpg","null","",NA,NA,NA,NA,""
"image-keyboard-response",52,119282,"0.0-3.13-2.13","417wd0axwg7sf08",151,"199.csv","","null","resources/images/coin2.png","null","",NA,NA,NA,NA,""
"image-keyboard-response",53,119742,"0.0-3.14-0.14","417wd0axwg7sf08",151,"199.csv","","459","resources/trios/L2T4A3.jpg","39","restless",0.2,0.8,0.8,0.0143297302758963,"true"
"image-keyboard-response",54,120144,"0.0-3.14-1.14","417wd0axwg7sf08",151,"199.csv","","null","resources/maskTrios/BBA3.jpg","null","",NA,NA,NA,NA,""
"image-keyboard-response",55,121347,"0.0-3.14-2.14","417wd0axwg7sf08",151,"199.csv","","null","resources/images/coin2.png","null","",NA,NA,NA,NA,""
"image-keyboard-response",56,121781,"0.0-3.15-0.15","417wd0axwg7sf08",151,"199.csv","","432","resources/trios/L1T1A1.jpg","39","restless",0.1,0.8,0.8,0.950840809018206,"false"
"image-keyboard-response",57,122183,"0.0-3.15-1.15","417wd0axwg7sf08",151,"199.csv","","null","resources/maskTrios/BBA1.jpg","null","",NA,NA,NA,NA,""
"image-keyboard-response",58,123386,"0.0-3.15-2.15","417wd0axwg7sf08",151,"199.csv","","null","resources/images/fishbone.png","null","",NA,NA,NA,NA,""
"image-keyboard-response",59,123891,"0.0-3.16-0.16","417wd0axwg7sf08",151,"199.csv","","503","resources/trios/L2T4A1.jpg","38","restless",0.1,0.8,0.8,0.442738899626474,"true"
"image-keyboard-response",60,124294,"0.0-3.16-1.16","417wd0axwg7sf08",151,"199.csv","","null","resources/maskTrios/BT4B.jpg","null","",NA,NA,NA,NA,""
"image-keyboard-response",61,125498,"0.0-3.16-2.16","417wd0axwg7sf08",151,"199.csv","","null","resources/images/coin2.png","null","",NA,NA,NA,NA,""
"image-keyboard-response",62,125929,"0.0-3.17-0.17","417wd0axwg7sf08",151,"199.csv","","428","resources/trios/L1T4A3.jpg","38","restless",0.1,0.8,0.7,0.509685874413844,"true"
"image-keyboard-response",63,126332,"0.0-3.17-1.17","417wd0axwg7sf08",151,"199.csv","","null","resources/maskTrios/BT4B.jpg","null","",NA,NA,NA,NA,""
"image-keyboard-response",64,127537,"0.0-3.17-2.17","417wd0axwg7sf08",151,"199.csv","","null","resources/images/coin2.png","null","",NA,NA,NA,NA,""
"image-keyboard-response",65,127901,"0.0-3.18-0.18","417wd0axwg7sf08",151,"199.csv","","363","resources/trios/L1T1A1.jpg","38","restless",0.1,0.8,0.7,0.894720413975149,"false"
"image-keyboard-response",66,128306,"0.0-3.18-1.18","417wd0axwg7sf08",151,"199.csv","","null","resources/maskTrios/BT1B.jpg","null","",NA,NA,NA,NA,""
"image-keyboard-response",67,129509,"0.0-3.18-2.18","417wd0axwg7sf08",151,"199.csv","","null","resources/images/fishbone.png","null","",NA,NA,NA,NA,""
"image-keyboard-response",68,129810,"0.0-3.19-0.19","417wd0axwg7sf08",151,"199.csv","","299","resources/trios/L2T4A3.jpg","37","restless",0.1,0.7,0.7,0.146789746071429,"false"
"image-keyboard-response",69,130213,"0.0-3.19-1.19","417wd0axwg7sf08",151,"199.csv","","null","resources/maskTrios/L2BB.jpg","null","",NA,NA,NA,NA,""
"image-keyboard-response",70,131415,"0.0-3.19-2.19","417wd0axwg7sf08",151,"199.csv","","null","resources/images/fishbone.png","null","",NA,NA,NA,NA,""
"image-keyboard-response",71,131689,"0.0-3.20-0.20","417wd0axwg7sf08",151,"199.csv","","273","resources/trios/L1T1A3.jpg","39","restless",0.1,0.7,0.7,0.715789855133821,"false"
"image-keyboard-response",72,132092,"0.0-3.20-1.20","417wd0axwg7sf08",151,"199.csv","","null","resources/maskTrios/BBA3.jpg","null","",NA,NA,NA,NA,""
"image-keyboard-response",73,133295,"0.0-3.20-2.20","417wd0axwg7sf08",151,"199.csv","","null","resources/images/fishbone.png","null","",NA,NA,NA,NA,""
"image-keyboard-response",74,134056,"0.0-3.21-0.21","417wd0axwg7sf08",151,"199.csv","","759","resources/trios/L2T1A3.jpg","39","restless",0.1,0.7,0.7,0.621417439571562,"true"
"image-keyboard-response",75,134459,"0.0-3.21-1.21","417wd0axwg7sf08",151,"199.csv","","null","resources/maskTrios/BBA3.jpg","null","",NA,NA,NA,NA,""
"image-keyboard-response",76,135662,"0.0-3.21-2.21","417wd0axwg7sf08",151,"199.csv","","null","resources/images/coin2.png","null","",NA,NA,NA,NA,""
"image-keyboard-response",77,136143,"0.0-3.22-0.22","417wd0axwg7sf08",151,"199.csv","","479","resources/trios/L2T1A1.jpg","39","restless",0.1,0.7,0.7,0.621429755222258,"true"
"image-keyboard-response",78,136545,"0.0-3.22-1.22","417wd0axwg7sf08",151,"199.csv","","null","resources/maskTrios/BBA1.jpg","null","",NA,NA,NA,NA,""
"image-keyboard-response",79,137748,"0.0-3.22-2.22","417wd0axwg7sf08",151,"199.csv","","null","resources/images/coin2.png","null","",NA,NA,NA,NA,""
"image-keyboard-response",80,138534,"0.0-3.23-0.23","417wd0axwg7sf08",151,"199.csv","","785","resources/trios/L1T1A3.jpg","39","restless",0.1,0.7,0.7,0.548556933407217,"true"
"image-keyboard-response",81,138939,"0.0-3.23-1.23","417wd0axwg7sf08",151,"199.csv","","null","resources/maskTrios/BBA3.jpg","null","",NA,NA,NA,NA,""
"image-keyboard-response",82,140142,"0.0-3.23-2.23","417wd0axwg7sf08",151,"199.csv","","null","resources/images/coin2.png","null","",NA,NA,NA,NA,""
"image-keyboard-response",83,140461,"0.0-3.24-0.24","417wd0axwg7sf08",151,"199.csv","","316.9999999999709","resources/trios/L2T1A1.jpg","39","restless",0.2,0.7,0.7,0.471127024690977,"true"
"image-keyboard-response",84,140864,"0.0-3.24-1.24","417wd0axwg7sf08",151,"199.csv","","null","resources/maskTrios/BBA1.jpg","null","",NA,NA,NA,NA,""
"image-keyboard-response",85,142067,"0.0-3.24-2.24","417wd0axwg7sf08",151,"199.csv","","null","resources/images/coin2.png","null","",NA,NA,NA,NA,""
"image-keyboard-response",86,142449,"0.0-3.25-0.25","417wd0axwg7sf08",151,"199.csv","","380","resources/trios/L2T1A3.jpg","39","restless",0.2,0.6,0.7,0.104248745671261,"true"
"image-keyboard-response",87,142851,"0.0-3.25-1.25","417wd0axwg7sf08",151,"199.csv","","null","resources/maskTrios/BBA3.jpg","null","",NA,NA,NA,NA,""
"image-keyboard-response",88,144054,"0.0-3.25-2.25","417wd0axwg7sf08",151,"199.csv","","null","resources/images/coin2.png","null","",NA,NA,NA,NA,""
"image-keyboard-response",89,144437,"0.0-3.26-0.26","417wd0axwg7sf08",151,"199.csv","","381","resources/trios/L2T4A1.jpg","38","restless",0.2,0.6,0.8,0.643583120689268,"false"
"image-keyboard-response",90,144839,"0.0-3.26-1.26","417wd0axwg7sf08",151,"199.csv","","null","resources/maskTrios/BT4B.jpg","null","",NA,NA,NA,NA,""
"image-keyboard-response",91,146041,"0.0-3.26-2.26","417wd0axwg7sf08",151,"199.csv","","null","resources/images/fishbone.png","null","",NA,NA,NA,NA,""
"image-keyboard-response",92,146693,"0.0-3.27-0.27","417wd0axwg7sf08",151,"199.csv","","649.9999999999709","resources/trios/L2T4A1.jpg","39","restless",0.2,0.6,0.8,0.420744909039519,"true"
"image-keyboard-response",93,147097,"0.0-3.27-1.27","417wd0axwg7sf08",151,"199.csv","","null","resources/maskTrios/BBA1.jpg","null","",NA,NA,NA,NA,""
"image-keyboard-response",94,148300,"0.0-3.27-2.27","417wd0axwg7sf08",151,"199.csv","","null","resources/images/coin2.png","null","",NA,NA,NA,NA,""
"image-keyboard-response",95,148744,"0.0-3.28-0.28","417wd0axwg7sf08",151,"199.csv","","442.0000000000291","resources/trios/L2T1A1.jpg","39","restless",0.2,0.6,0.8,0.605668876672931,"true"
"image-keyboard-response",96,149147,"0.0-3.28-1.28","417wd0axwg7sf08",151,"199.csv","","null","resources/maskTrios/BBA1.jpg","null","",NA,NA,NA,NA,""
"image-keyboard-response",97,150349,"0.0-3.28-2.28","417wd0axwg7sf08",151,"199.csv","","null","resources/images/coin2.png","null","",NA,NA,NA,NA,""
"image-keyboard-response",98,150868,"0.0-3.29-0.29","417wd0axwg7sf08",151,"199.csv","","515.9999999999709","resources/trios/L1T1A1.jpg","39","restless",0.2,0.5,0.8,0.575872328523519,"true"
"image-keyboard-response",99,151269,"0.0-3.29-1.29","417wd0axwg7sf08",151,"199.csv","","null","resources/maskTrios/BBA1.jpg","null","",NA,NA,NA,NA,""
"image-keyboard-response",100,152473,"0.0-3.29-2.29","417wd0axwg7sf08",151,"199.csv","","null","resources/images/coin2.png","null","",NA,NA,NA,NA,""
"image-keyboard-response",101,152801,"0.0-3.30-0.30","417wd0axwg7sf08",151,"199.csv","","326","resources/trios/L2T4A1.jpg","39","restless",0.2,0.5,0.8,0.891920637023978,"false"
"image-keyboard-response",102,153204,"0.0-3.30-1.30","417wd0axwg7sf08",151,"199.csv","","null","resources/maskTrios/BBA1.jpg","null","",NA,NA,NA,NA,""
"image-keyboard-response",103,154407,"0.0-3.30-2.30","417wd0axwg7sf08",151,"199.csv","","null","resources/images/fishbone.png","null","",NA,NA,NA,NA,""
"image-keyboard-response",104,154732,"0.0-3.31-0.31","417wd0axwg7sf08",151,"199.csv","","323.0000000000291","resources/trios/L2T4A1.jpg","39","restless",0.2,0.4,0.8,0.0340492299441504,"true"
"image-keyboard-response",105,155134,"0.0-3.31-1.31","417wd0axwg7sf08",151,"199.csv","","null","resources/maskTrios/BBA1.jpg","null","",NA,NA,NA,NA,""
"image-keyboard-response",106,156342,"0.0-3.31-2.31","417wd0axwg7sf08",151,"199.csv","","null","resources/images/coin2.png","null","",NA,NA,NA,NA,""
"image-keyboard-response",107,156655,"0.0-3.32-0.32","417wd0axwg7sf08",151,"199.csv","","311.0000000000291","resources/trios/L1T1A3.jpg","39","restless",0.2,0.4,0.8,0.929839393287107,"false"
"image-keyboard-response",108,157059,"0.0-3.32-1.32","417wd0axwg7sf08",151,"199.csv","","null","resources/maskTrios/BBA3.jpg","null","",NA,NA,NA,NA,""
"image-keyboard-response",109,158262,"0.0-3.32-2.32","417wd0axwg7sf08",151,"199.csv","","null","resources/images/fishbone.png","null","",NA,NA,NA,NA,""
"image-keyboard-response",110,158675,"0.0-3.33-0.33","417wd0axwg7sf08",151,"199.csv","","411","resources/trios/L1T4A3.jpg","38","restless",0.2,0.4,0.8,0.767468146272872,"false"
"image-keyboard-response",111,159077,"0.0-3.33-1.33","417wd0axwg7sf08",151,"199.csv","","null","resources/maskTrios/BT4B.jpg","null","",NA,NA,NA,NA,""
"image-keyboard-response",112,160280,"0.0-3.33-2.33","417wd0axwg7sf08",151,"199.csv","","null","resources/images/fishbone.png","null","",NA,NA,NA,NA,""
"image-keyboard-response",113,160615,"0.0-3.34-0.34","417wd0axwg7sf08",151,"199.csv","","333","resources/trios/L1T4A1.jpg","39","restless",0.2,0.4,0.8,0.842404922337983,"false"
"image-keyboard-response",114,161017,"0.0-3.34-1.34","417wd0axwg7sf08",151,"199.csv","","null","resources/maskTrios/BBA1.jpg","null","",NA,NA,NA,NA,""
"image-keyboard-response",115,162219,"0.0-3.34-2.34","417wd0axwg7sf08",151,"199.csv","","null","resources/images/fishbone.png","null","",NA,NA,NA,NA,""
"image-keyboard-response",116,162488,"0.0-3.35-0.35","417wd0axwg7sf08",151,"199.csv","","267.0000000000291","resources/trios/L1T1A3.jpg","37","restless",0.2,0.4,0.9,0.804013472211782,"false"
"image-keyboard-response",117,162891,"0.0-3.35-1.35","417wd0axwg7sf08",151,"199.csv","","null","resources/maskTrios/L1BB.jpg","null","",NA,NA,NA,NA,""
"image-keyboard-response",118,164093,"0.0-3.35-2.35","417wd0axwg7sf08",151,"199.csv","","null","resources/images/fishbone.png","null","",NA,NA,NA,NA,""
"image-keyboard-response",119,164496,"0.0-3.36-0.36","417wd0axwg7sf08",151,"199.csv","","401","resources/trios/L1T4A3.jpg","38","restless",0.2,0.4,0.9,0.836625810080145,"false"
"image-keyboard-response",120,164898,"0.0-3.36-1.36","417wd0axwg7sf08",151,"199.csv","","null","resources/maskTrios/BT4B.jpg","null","",NA,NA,NA,NA,""
"image-keyboard-response",121,166101,"0.0-3.36-2.36","417wd0axwg7sf08",151,"199.csv","","null","resources/images/fishbone.png","null","",NA,NA,NA,NA,""
"image-keyboard-response",122,166410,"0.0-3.37-0.37","417wd0axwg7sf08",151,"199.csv","","307","resources/trios/L1T1A1.jpg","39","restless",0.2,0.4,0.9,0.490214672480175,"true"
"image-keyboard-response",123,166813,"0.0-3.37-1.37","417wd0axwg7sf08",151,"199.csv","","null","resources/maskTrios/BBA1.jpg","null","",NA,NA,NA,NA,""
"image-keyboard-response",124,168016,"0.0-3.37-2.37","417wd0axwg7sf08",151,"199.csv","","null","resources/images/coin2.png","null","",NA,NA,NA,NA,""
"image-keyboard-response",125,168306,"0.0-3.38-0.38","417wd0axwg7sf08",151,"199.csv","","287.9999999999709","resources/trios/L2T4A3.jpg","39","restless",0.2,0.4,0.9,0.281762208104878,"true"
"image-keyboard-response",126,168708,"0.0-3.38-1.38","417wd0axwg7sf08",151,"199.csv","","null","resources/maskTrios/BBA3.jpg","null","",NA,NA,NA,NA,""
"image-keyboard-response",127,169911,"0.0-3.38-2.38","417wd0axwg7sf08",151,"199.csv","","null","resources/images/coin2.png","null","",NA,NA,NA,NA,""
"image-keyboard-response",128,170653,"0.0-3.39-0.39","417wd0axwg7sf08",151,"199.csv","","737","resources/trios/L1T4A3.jpg","39","restless",0.2,0.4,0.9,0.0846263656131121,"true"
"image-keyboard-response",129,171057,"0.0-3.39-1.39","417wd0axwg7sf08",151,"199.csv","","null","resources/maskTrios/BBA3.jpg","null","",NA,NA,NA,NA,""
"image-keyboard-response",130,172260,"0.0-3.39-2.39","417wd0axwg7sf08",151,"199.csv","","null","resources/images/coin2.png","null","",NA,NA,NA,NA,""
"image-keyboard-response",131,177358,"0.0-3.40-0.40","417wd0axwg7sf08",151,"199.csv","","5094","resources/trios/L1T1A1.jpg","39","restless",0.2,0.4,0.9,0.461867352261482,"true"
"image-keyboard-response",132,177763,"0.0-3.40-1.40","417wd0axwg7sf08",151,"199.csv","","null","resources/maskTrios/BBA1.jpg","null","",NA,NA,NA,NA,""
"image-keyboard-response",133,178966,"0.0-3.40-2.40","417wd0axwg7sf08",151,"199.csv","","null","resources/images/coin2.png","null","",NA,NA,NA,NA,""
"image-keyboard-response",134,179552,"0.0-3.41-0.41","417wd0axwg7sf08",151,"199.csv","","584","resources/trios/L2T1A3.jpg","39","restless",0.2,0.4,0.8,0.620385466600787,"true"
"image-keyboard-response",135,179955,"0.0-3.41-1.41","417wd0axwg7sf08",151,"199.csv","","null","resources/maskTrios/BBA3.jpg","null","",NA,NA,NA,NA,""
"image-keyboard-response",136,181158,"0.0-3.41-2.41","417wd0axwg7sf08",151,"199.csv","","null","resources/images/coin2.png","null","",NA,NA,NA,NA,""
"image-keyboard-response",137,185426,"0.0-3.42-0.42","417wd0axwg7sf08",151,"199.csv","","4266","resources/trios/L1T1A3.jpg","39","restless",0.2,0.4,0.8,0.0255420519271822,"true"
"image-keyboard-response",138,185830,"0.0-3.42-1.42","417wd0axwg7sf08",151,"199.csv","","null","resources/maskTrios/BBA3.jpg","null","",NA,NA,NA,NA,""
"image-keyboard-response",139,187033,"0.0-3.42-2.42","417wd0axwg7sf08",151,"199.csv","","null","resources/images/coin2.png","null","",NA,NA,NA,NA,""
"image-keyboard-response",140,187297,"0.0-3.43-0.43","417wd0axwg7sf08",151,"199.csv","","260.9999999999709","resources/trios/L2T1A1.jpg","39","restless",0.2,0.4,0.8,0.148034921386358,"true"
"image-keyboard-response",141,187699,"0.0-3.43-1.43","417wd0axwg7sf08",151,"199.csv","","null","resources/maskTrios/BBA1.jpg","null","",NA,NA,NA,NA,""
"image-keyboard-response",142,188901,"0.0-3.43-2.43","417wd0axwg7sf08",151,"199.csv","","null","resources/images/coin2.png","null","",NA,NA,NA,NA,""
"image-keyboard-response",143,189382,"0.0-3.44-0.44","417wd0axwg7sf08",151,"199.csv","","480","resources/trios/L1T1A1.jpg","39","restless",0.2,0.4,0.8,0.15291092808826,"true"
"image-keyboard-response",144,189785,"0.0-3.44-1.44","417wd0axwg7sf08",151,"199.csv","","null","resources/maskTrios/BBA1.jpg","null","",NA,NA,NA,NA,""
"image-keyboard-response",145,190989,"0.0-3.44-2.44","417wd0axwg7sf08",151,"199.csv","","null","resources/images/coin2.png","null","",NA,NA,NA,NA,""
"image-keyboard-response",146,191324,"0.0-3.45-0.45","417wd0axwg7sf08",151,"199.csv","","334","resources/trios/L1T4A3.jpg","39","restless",0.2,0.4,0.8,0.12187038002101,"true"
"image-keyboard-response",147,191727,"0.0-3.45-1.45","417wd0axwg7sf08",151,"199.csv","","null","resources/maskTrios/BBA3.jpg","null","",NA,NA,NA,NA,""
"image-keyboard-response",148,192930,"0.0-3.45-2.45","417wd0axwg7sf08",151,"199.csv","","null","resources/images/coin2.png","null","",NA,NA,NA,NA,""
"image-keyboard-response",149,193274,"0.0-3.46-0.46","417wd0axwg7sf08",151,"199.csv","","339","resources/trios/L2T4A1.jpg","39","restless",0.2,0.4,0.8,0.240100214532684,"true"
"image-keyboard-response",150,193679,"0.0-3.46-1.46","417wd0axwg7sf08",151,"199.csv","","null","resources/maskTrios/BBA1.jpg","null","",NA,NA,NA,NA,""
"image-keyboard-response",151,194882,"0.0-3.46-2.46","417wd0axwg7sf08",151,"199.csv","","null","resources/images/coin2.png","null","",NA,NA,NA,NA,""
"image-keyboard-response",152,195210,"0.0-3.47-0.47","417wd0axwg7sf08",151,"199.csv","","326","resources/trios/L2T1A1.jpg","39","restless",0.2,0.4,0.8,0.367480618143166,"true"
"image-keyboard-response",153,195612,"0.0-3.47-1.47","417wd0axwg7sf08",151,"199.csv","","null","resources/maskTrios/BBA1.jpg","null","",NA,NA,NA,NA,""
"image-keyboard-response",154,196815,"0.0-3.47-2.47","417wd0axwg7sf08",151,"199.csv","","null","resources/images/coin2.png","null","",NA,NA,NA,NA,""
"image-keyboard-response",155,197131,"0.0-3.48-0.48","417wd0axwg7sf08",151,"199.csv","","314","resources/trios/L2T1A1.jpg","39","restless",0.2,0.4,0.8,0.381813696095587,"true"
"image-keyboard-response",156,197534,"0.0-3.48-1.48","417wd0axwg7sf08",151,"199.csv","","null","resources/maskTrios/BBA1.jpg","null","",NA,NA,NA,NA,""
"image-keyboard-response",157,198737,"0.0-3.48-2.48","417wd0axwg7sf08",151,"199.csv","","null","resources/images/coin2.png","null","",NA,NA,NA,NA,""
"image-keyboard-response",158,199022,"0.0-3.49-0.49","417wd0axwg7sf08",151,"199.csv","","284","resources/trios/L2T1A3.jpg","39","restless",0.1,0.4,0.8,0.885009551040476,"false"
"image-keyboard-response",159,199425,"0.0-3.49-1.49","417wd0axwg7sf08",151,"199.csv","","null","resources/maskTrios/BBA3.jpg","null","",NA,NA,NA,NA,""
"image-keyboard-response",160,200627,"0.0-3.49-2.49","417wd0axwg7sf08",151,"199.csv","","null","resources/images/fishbone.png","null","",NA,NA,NA,NA,""
"image-keyboard-response",161,200896,"0.0-3.50-0.50","417wd0axwg7sf08",151,"199.csv","","267","resources/trios/L2T1A3.jpg","38","restless",0.1,0.5,0.8,0.540869908826705,"false"
"image-keyboard-response",162,201299,"0.0-3.50-1.50","417wd0axwg7sf08",151,"199.csv","","null","resources/maskTrios/BT1B.jpg","null","",NA,NA,NA,NA,""
"image-keyboard-response",163,202502,"0.0-3.50-2.50","417wd0axwg7sf08",151,"199.csv","","null","resources/images/fishbone.png","null","",NA,NA,NA,NA,""
"image-keyboard-response",164,202839,"0.0-3.51-0.51","417wd0axwg7sf08",151,"199.csv","","333","resources/trios/L1T4A3.jpg","39","restless",0.1,0.5,0.8,0.836532445495229,"false"
"image-keyboard-response",165,203242,"0.0-3.51-1.51","417wd0axwg7sf08",151,"199.csv","","null","resources/maskTrios/BBA3.jpg","null","",NA,NA,NA,NA,""
"image-keyboard-response",166,204444,"0.0-3.51-2.51","417wd0axwg7sf08",151,"199.csv","","null","resources/images/fishbone.png","null","",NA,NA,NA,NA,""
"image-keyboard-response",167,206621,"0.0-3.52-0.52","417wd0axwg7sf08",151,"199.csv","","2174","resources/trios/L1T1A3.jpg","37","restless",0.1,0.5,0.8,0.797405265161688,"false"
"image-keyboard-response",168,207026,"0.0-3.52-1.52","417wd0axwg7sf08",151,"199.csv","","null","resources/maskTrios/L1BB.jpg","null","",NA,NA,NA,NA,""
"image-keyboard-response",169,208229,"0.0-3.52-2.52","417wd0axwg7sf08",151,"199.csv","","null","resources/images/fishbone.png","null","",NA,NA,NA,NA,""
"image-keyboard-response",170,208542,"0.0-3.53-0.53","417wd0axwg7sf08",151,"199.csv","","311.9999999999709","resources/trios/L2T4A3.jpg","38","restless",0.1,0.5,0.8,0.194326728232241,"true"
"image-keyboard-response",171,208944,"0.0-3.53-1.53","417wd0axwg7sf08",151,"199.csv","","null","resources/maskTrios/BT4B.jpg","null","",NA,NA,NA,NA,""
"image-keyboard-response",172,210146,"0.0-3.53-2.53","417wd0axwg7sf08",151,"199.csv","","null","resources/images/coin2.png","null","",NA,NA,NA,NA,""
"image-keyboard-response",173,210797,"0.0-3.54-0.54","417wd0axwg7sf08",151,"199.csv","","648.0000000000291","resources/trios/L1T4A3.jpg","38","restless",0.1,0.5,0.8,0.930820092790921,"false"
"image-keyboard-response",174,211199,"0.0-3.54-1.54","417wd0axwg7sf08",151,"199.csv","","null","resources/maskTrios/BT4B.jpg","null","",NA,NA,NA,NA,""
"image-keyboard-response",175,212402,"0.0-3.54-2.54","417wd0axwg7sf08",151,"199.csv","","null","resources/images/fishbone.png","null","",NA,NA,NA,NA,""
"image-keyboard-response",176,212725,"0.0-3.55-0.55","417wd0axwg7sf08",151,"199.csv","","321","resources/trios/L1T1A1.jpg","39","restless",0.1,0.5,0.8,0.352407980113886,"true"
"image-keyboard-response",177,213127,"0.0-3.55-1.55","417wd0axwg7sf08",151,"199.csv","","null","resources/maskTrios/BBA1.jpg","null","",NA,NA,NA,NA,""
"image-keyboard-response",178,214330,"0.0-3.55-2.55","417wd0axwg7sf08",151,"199.csv","","null","resources/images/coin2.png","null","",NA,NA,NA,NA,""
"image-keyboard-response",179,214650,"0.0-3.56-0.56","417wd0axwg7sf08",151,"199.csv","","319","resources/trios/L2T4A1.jpg","39","restless",0.1,0.5,0.7,0.505578282727692,"true"
"image-keyboard-response",180,215053,"0.0-3.56-1.56","417wd0axwg7sf08",151,"199.csv","","null","resources/maskTrios/BBA1.jpg","null","",NA,NA,NA,NA,""
"image-keyboard-response",181,216256,"0.0-3.56-2.56","417wd0axwg7sf08",151,"199.csv","","null","resources/images/coin2.png","null","",NA,NA,NA,NA,""
"image-keyboard-response",182,216602,"0.0-3.57-0.57","417wd0axwg7sf08",151,"199.csv","","344","resources/trios/L1T1A3.jpg","39","restless",0.2,0.5,0.7,0.362668861188376,"true"
"image-keyboard-response",183,217004,"0.0-3.57-1.57","417wd0axwg7sf08",151,"199.csv","","null","resources/maskTrios/BBA3.jpg","null","",NA,NA,NA,NA,""
"image-keyboard-response",184,218207,"0.0-3.57-2.57","417wd0axwg7sf08",151,"199.csv","","null","resources/images/coin2.png","null","",NA,NA,NA,NA,""
"image-keyboard-response",185,218509,"0.0-3.58-0.58","417wd0axwg7sf08",151,"199.csv","","300","resources/trios/L1T1A3.jpg","39","restless",0.3,0.5,0.7,0.727803020359526,"false"
"image-keyboard-response",186,218912,"0.0-3.58-1.58","417wd0axwg7sf08",151,"199.csv","","null","resources/maskTrios/BBA3.jpg","null","",NA,NA,NA,NA,""
"image-keyboard-response",187,220115,"0.0-3.58-2.58","417wd0axwg7sf08",151,"199.csv","","null","resources/images/fishbone.png","null","",NA,NA,NA,NA,""
"image-keyboard-response",188,220394,"0.0-3.59-0.59","417wd0axwg7sf08",151,"199.csv","","274","resources/trios/L2T4A3.jpg","39","restless",0.3,0.5,0.6,0.496331581928376,"true"
"image-keyboard-response",189,220797,"0.0-3.59-1.59","417wd0axwg7sf08",151,"199.csv","","null","resources/maskTrios/BBA3.jpg","null","",NA,NA,NA,NA,""
"image-keyboard-response",190,221999,"0.0-3.59-2.59","417wd0axwg7sf08",151,"199.csv","","null","resources/images/coin2.png","null","",NA,NA,NA,NA,""
"image-keyboard-response",191,222280,"0.0-3.60-0.60","417wd0axwg7sf08",151,"199.csv","","279","resources/trios/L1T1A1.jpg","39","restless",0.3,0.5,0.6,0.922800350575598,"false"
"image-keyboard-response",192,222683,"0.0-3.60-1.60","417wd0axwg7sf08",151,"199.csv","","null","resources/maskTrios/BBA1.jpg","null","",NA,NA,NA,NA,""
"image-keyboard-response",193,223886,"0.0-3.60-2.60","417wd0axwg7sf08",151,"199.csv","","null","resources/images/fishbone.png","null","",NA,NA,NA,NA,""
"image-keyboard-response",194,223919,"0.0-3.61-0.61","417wd0axwg7sf08",151,"199.csv","","32","resources/trios/L1T4A3.jpg","38","restless",0.3,0.5,0.6,0.776904449451415,"false"
"image-keyboard-response",195,224321,"0.0-3.61-1.61","417wd0axwg7sf08",151,"199.csv","","null","resources/maskTrios/BT4B.jpg","null","",NA,NA,NA,NA,""
"image-keyboard-response",196,225524,"0.0-3.61-2.61","417wd0axwg7sf08",151,"199.csv","","null","resources/images/fishbone.png","null","",NA,NA,NA,NA,""
"image-keyboard-response",197,225828,"0.0-3.62-0.62","417wd0axwg7sf08",151,"199.csv","","303","resources/trios/L1T4A1.jpg","37","restless",0.3,0.4,0.5,0.931475918066946,"false"
"image-keyboard-response",198,226233,"0.0-3.62-1.62","417wd0axwg7sf08",151,"199.csv","","null","resources/maskTrios/L1BB.jpg","null","",NA,NA,NA,NA,""
"image-keyboard-response",199,227436,"0.0-3.62-2.62","417wd0axwg7sf08",151,"199.csv","","null","resources/images/fishbone.png","null","",NA,NA,NA,NA,""
"image-keyboard-response",200,227711,"0.0-3.63-0.63","417wd0axwg7sf08",151,"199.csv","","270","resources/trios/L1T4A1.jpg","39","restless",0.3,0.3,0.5,0.546101620768122,"false"
"image-keyboard-response",201,228114,"0.0-3.63-1.63","417wd0axwg7sf08",151,"199.csv","","null","resources/maskTrios/BBA1.jpg","null","",NA,NA,NA,NA,""
"image-keyboard-response",202,229317,"0.0-3.63-2.63","417wd0axwg7sf08",151,"199.csv","","null","resources/images/fishbone.png","null","",NA,NA,NA,NA,""
"image-keyboard-response",203,229576,"0.0-3.64-0.64","417wd0axwg7sf08",151,"199.csv","","257","resources/trios/L2T1A1.jpg","38","restless",0.3,0.3,0.4,0.465926144120709,"false"
"image-keyboard-response",204,229978,"0.0-3.64-1.64","417wd0axwg7sf08",151,"199.csv","","null","resources/maskTrios/BT1B.jpg","null","",NA,NA,NA,NA,""
"image-keyboard-response",205,231181,"0.0-3.64-2.64","417wd0axwg7sf08",151,"199.csv","","null","resources/images/fishbone.png","null","",NA,NA,NA,NA,""
"image-keyboard-response",206,231463,"0.0-3.65-0.65","417wd0axwg7sf08",151,"199.csv","","279.9999999999709","resources/trios/L1T4A3.jpg","39","restless",0.3,0.3,0.4,0.86166729440631,"false"
"image-keyboard-response",207,231866,"0.0-3.65-1.65","417wd0axwg7sf08",151,"199.csv","","null","resources/maskTrios/BBA3.jpg","null","",NA,NA,NA,NA,""
"image-keyboard-response",208,233068,"0.0-3.65-2.65","417wd0axwg7sf08",151,"199.csv","","null","resources/images/fishbone.png","null","",NA,NA,NA,NA,""
"image-keyboard-response",209,233417,"0.0-3.66-0.66","417wd0axwg7sf08",151,"199.csv","","346.9999999999709","resources/trios/L2T4A1.jpg","37","restless",0.2,0.3,0.3,0.181306276982656,"true"
"image-keyboard-response",210,233819,"0.0-3.66-1.66","417wd0axwg7sf08",151,"199.csv","","null","resources/maskTrios/L2BB.jpg","null","",NA,NA,NA,NA,""
"image-keyboard-response",211,235022,"0.0-3.66-2.66","417wd0axwg7sf08",151,"199.csv","","null","resources/images/coin2.png","null","",NA,NA,NA,NA,""
"image-keyboard-response",212,235339,"0.0-3.67-0.67","417wd0axwg7sf08",151,"199.csv","","315","resources/trios/L2T4A3.jpg","37","restless",0.2,0.3,0.3,0.263119355974387,"false"
"image-keyboard-response",213,235744,"0.0-3.67-1.67","417wd0axwg7sf08",151,"199.csv","","null","resources/maskTrios/L2BB.jpg","null","",NA,NA,NA,NA,""
"image-keyboard-response",214,236947,"0.0-3.67-2.67","417wd0axwg7sf08",151,"199.csv","","null","resources/images/fishbone.png","null","",NA,NA,NA,NA,""
"image-keyboard-response",215,237223,"0.0-3.68-0.68","417wd0axwg7sf08",151,"199.csv","","274","resources/trios/L2T4A1.jpg","39","restless",0.2,0.4,0.3,0.542481459299501,"false"
"image-keyboard-response",216,237626,"0.0-3.68-1.68","417wd0axwg7sf08",151,"199.csv","","null","resources/maskTrios/BBA1.jpg","null","",NA,NA,NA,NA,""
"image-keyboard-response",217,238829,"0.0-3.68-2.68","417wd0axwg7sf08",151,"199.csv","","null","resources/images/fishbone.png","null","",NA,NA,NA,NA,""
"image-keyboard-response",218,239136,"0.0-3.69-0.69","417wd0axwg7sf08",151,"199.csv","","305","resources/trios/L2T1A1.jpg","38","restless",0.2,0.4,0.3,0.54681312808117,"false"
"image-keyboard-response",219,239538,"0.0-3.69-1.69","417wd0axwg7sf08",151,"199.csv","","null","resources/maskTrios/BT1B.jpg","null","",NA,NA,NA,NA,""
"image-keyboard-response",220,240741,"0.0-3.69-2.69","417wd0axwg7sf08",151,"199.csv","","null","resources/images/fishbone.png","null","",NA,NA,NA,NA,""
"image-keyboard-response",221,241034,"0.0-3.70-0.70","417wd0axwg7sf08",151,"199.csv","","291.0000000000291","resources/trios/L1T4A1.jpg","37","restless",0.2,0.4,0.2,0.597569756719185,"false"
"image-keyboard-response",222,241436,"0.0-3.70-1.70","417wd0axwg7sf08",151,"199.csv","","null","resources/maskTrios/L1BB.jpg","null","",NA,NA,NA,NA,""
"image-keyboard-response",223,242638,"0.0-3.70-2.70","417wd0axwg7sf08",151,"199.csv","","null","resources/images/fishbone.png","null","",NA,NA,NA,NA,""
"image-keyboard-response",224,242938,"0.0-3.71-0.71","417wd0axwg7sf08",151,"199.csv","","298","resources/trios/L1T4A1.jpg","37","restless",0.2,0.4,0.2,0.982475824620739,"false"
"image-keyboard-response",225,243340,"0.0-3.71-1.71","417wd0axwg7sf08",151,"199.csv","","null","resources/maskTrios/L1BB.jpg","null","",NA,NA,NA,NA,""
"image-keyboard-response",226,244542,"0.0-3.71-2.71","417wd0axwg7sf08",151,"199.csv","","null","resources/images/fishbone.png","null","",NA,NA,NA,NA,""
"image-keyboard-response",227,244831,"0.0-3.72-0.72","417wd0axwg7sf08",151,"199.csv","","287","resources/trios/L2T1A3.jpg","38","restless",0.2,0.4,0.2,0.201844199015339,"true"
"image-keyboard-response",228,245233,"0.0-3.72-1.72","417wd0axwg7sf08",151,"199.csv","","null","resources/maskTrios/BT1B.jpg","null","",NA,NA,NA,NA,""
"image-keyboard-response",229,246435,"0.0-3.72-2.72","417wd0axwg7sf08",151,"199.csv","","null","resources/images/coin2.png","null","",NA,NA,NA,NA,""
"image-keyboard-response",230,246828,"0.0-3.73-0.73","417wd0axwg7sf08",151,"199.csv","","391","resources/trios/L2T4A1.jpg","38","restless",0.2,0.4,0.2,0.241521534630392,"true"
"image-keyboard-response",231,247232,"0.0-3.73-1.73","417wd0axwg7sf08",151,"199.csv","","null","resources/maskTrios/BT4B.jpg","null","",NA,NA,NA,NA,""
"image-keyboard-response",232,248437,"0.0-3.73-2.73","417wd0axwg7sf08",151,"199.csv","","null","resources/images/coin2.png","null","",NA,NA,NA,NA,""
"image-keyboard-response",233,248726,"0.0-3.74-0.74","417wd0axwg7sf08",151,"199.csv","","287","resources/trios/L1T1A1.jpg","38","restless",0.2,0.4,0.2,0.706329740283041,"false"
"image-keyboard-response",234,249129,"0.0-3.74-1.74","417wd0axwg7sf08",151,"199.csv","","null","resources/maskTrios/BT1B.jpg","null","",NA,NA,NA,NA,""
"image-keyboard-response",235,250332,"0.0-3.74-2.74","417wd0axwg7sf08",151,"199.csv","","null","resources/images/fishbone.png","null","",NA,NA,NA,NA,""
"image-keyboard-response",236,250621,"0.0-3.75-0.75","417wd0axwg7sf08",151,"199.csv","","287","resources/trios/L2T1A1.jpg","39","restless",0.2,0.4,0.2,0.296204524357775,"false"
"image-keyboard-response",237,251023,"0.0-3.75-1.75","417wd0axwg7sf08",151,"199.csv","","null","resources/maskTrios/BBA1.jpg","null","",NA,NA,NA,NA,""
"image-keyboard-response",238,252229,"0.0-3.75-2.75","417wd0axwg7sf08",151,"199.csv","","null","resources/images/fishbone.png","null","",NA,NA,NA,NA,""
"image-keyboard-response",239,252559,"0.0-3.76-0.76","417wd0axwg7sf08",151,"199.csv","","327","resources/trios/L1T4A1.jpg","38","restless",0.2,0.4,0.2,0.472792137551754,"false"
"image-keyboard-response",240,252964,"0.0-3.76-1.76","417wd0axwg7sf08",151,"199.csv","","null","resources/maskTrios/BT4B.jpg","null","",NA,NA,NA,NA,""
"image-keyboard-response",241,254166,"0.0-3.76-2.76","417wd0axwg7sf08",151,"199.csv","","null","resources/images/fishbone.png","null","",NA,NA,NA,NA,""
"image-keyboard-response",242,254523,"0.0-3.77-0.77","417wd0axwg7sf08",151,"199.csv","","355.0000000000291","resources/trios/L1T1A1.jpg","39","restless",0.2,0.4,0.2,0.079197093628647,"true"
"image-keyboard-response",243,254925,"0.0-3.77-1.77","417wd0axwg7sf08",151,"199.csv","","null","resources/maskTrios/BBA1.jpg","null","",NA,NA,NA,NA,""
"image-keyboard-response",244,256128,"0.0-3.77-2.77","417wd0axwg7sf08",151,"199.csv","","null","resources/images/coin2.png","null","",NA,NA,NA,NA,""
"image-keyboard-response",245,256395,"0.0-3.78-0.78","417wd0axwg7sf08",151,"199.csv","","266","resources/trios/L2T4A1.jpg","39","restless",0.2,0.4,0.2,0.222308213522495,"false"
"image-keyboard-response",246,256798,"0.0-3.78-1.78","417wd0axwg7sf08",151,"199.csv","","null","resources/maskTrios/BBA1.jpg","null","",NA,NA,NA,NA,""
"image-keyboard-response",247,258003,"0.0-3.78-2.78","417wd0axwg7sf08",151,"199.csv","","null","resources/images/fishbone.png","null","",NA,NA,NA,NA,""
"image-keyboard-response",248,258347,"0.0-3.79-0.79","417wd0axwg7sf08",151,"199.csv","","342.0000000000291","resources/trios/L2T1A3.jpg","38","restless",0.2,0.4,0.3,0.362337330090579,"true"
"image-keyboard-response",249,258749,"0.0-3.79-1.79","417wd0axwg7sf08",151,"199.csv","","null","resources/maskTrios/BT1B.jpg","null","",NA,NA,NA,NA,""
"image-keyboard-response",250,259952,"0.0-3.79-2.79","417wd0axwg7sf08",151,"199.csv","","null","resources/images/coin2.png","null","",NA,NA,NA,NA,""
"image-keyboard-response",251,260239,"0.0-3.80-0.80","417wd0axwg7sf08",151,"199.csv","","285.0000000000582","resources/trios/L1T1A1.jpg","38","restless",0.2,0.3,0.3,0.68745062327167,"false"
"image-keyboard-response",252,260641,"0.0-3.80-1.80","417wd0axwg7sf08",151,"199.csv","","null","resources/maskTrios/BT1B.jpg","null","",NA,NA,NA,NA,""
"image-keyboard-response",253,261845,"0.0-3.80-2.80","417wd0axwg7sf08",151,"199.csv","","null","resources/images/fishbone.png","null","",NA,NA,NA,NA,""
"image-keyboard-response",254,262039,"0.0-3.81-0.81","417wd0axwg7sf08",151,"199.csv","","191.9999999999418","resources/trios/L2T4A3.jpg","39","restless",0.2,0.3,0.3,0.971800239613239,"false"
"image-keyboard-response",255,262441,"0.0-3.81-1.81","417wd0axwg7sf08",151,"199.csv","","null","resources/maskTrios/BBA3.jpg","null","",NA,NA,NA,NA,""
"image-keyboard-response",256,263644,"0.0-3.81-2.81","417wd0axwg7sf08",151,"199.csv","","null","resources/images/fishbone.png","null","",NA,NA,NA,NA,""
"image-keyboard-response",257,263996,"0.0-3.82-0.82","417wd0axwg7sf08",151,"199.csv","","351","resources/trios/L2T1A3.jpg","39","restless",0.2,0.3,0.3,0.288302605612767,"true"
"image-keyboard-response",258,264399,"0.0-3.82-1.82","417wd0axwg7sf08",151,"199.csv","","null","resources/maskTrios/BBA3.jpg","null","",NA,NA,NA,NA,""
"image-keyboard-response",259,265603,"0.0-3.82-2.82","417wd0axwg7sf08",151,"199.csv","","null","resources/images/coin2.png","null","",NA,NA,NA,NA,""
"image-keyboard-response",260,265913,"0.0-3.83-0.83","417wd0axwg7sf08",151,"199.csv","","309","resources/trios/L1T4A1.jpg","39","restless",0.2,0.3,0.3,0.393963368332233,"false"
"image-keyboard-response",261,266316,"0.0-3.83-1.83","417wd0axwg7sf08",151,"199.csv","","null","resources/maskTrios/BBA1.jpg","null","",NA,NA,NA,NA,""
"image-keyboard-response",262,267521,"0.0-3.83-2.83","417wd0axwg7sf08",151,"199.csv","","null","resources/images/fishbone.png","null","",NA,NA,NA,NA,""
"image-keyboard-response",263,267816,"0.0-3.84-0.84","417wd0axwg7sf08",151,"199.csv","","293","resources/trios/L2T4A3.jpg","39","restless",0.2,0.2,0.3,0.934895016270083,"false"
"image-keyboard-response",264,268219,"0.0-3.84-1.84","417wd0axwg7sf08",151,"199.csv","","null","resources/maskTrios/BBA3.jpg","null","",NA,NA,NA,NA,""
"image-keyboard-response",265,269421,"0.0-3.84-2.84","417wd0axwg7sf08",151,"199.csv","","null","resources/images/fishbone.png","null","",NA,NA,NA,NA,""
"image-keyboard-response",266,269677,"0.0-3.85-0.85","417wd0axwg7sf08",151,"199.csv","","255","resources/trios/L1T4A1.jpg","38","restless",0.2,0.3,0.3,0.82261856622751,"false"
"image-keyboard-response",267,270080,"0.0-3.85-1.85","417wd0axwg7sf08",151,"199.csv","","null","resources/maskTrios/BT4B.jpg","null","",NA,NA,NA,NA,""
"image-keyboard-response",268,271283,"0.0-3.85-2.85","417wd0axwg7sf08",151,"199.csv","","null","resources/images/fishbone.png","null","",NA,NA,NA,NA,""
"image-keyboard-response",269,271553,"0.0-3.86-0.86","417wd0axwg7sf08",151,"199.csv","","269","resources/trios/L1T1A3.jpg","37","restless",0.2,0.3,0.3,0.733911603399526,"false"
"image-keyboard-response",270,271956,"0.0-3.86-1.86","417wd0axwg7sf08",151,"199.csv","","null","resources/maskTrios/L1BB.jpg","null","",NA,NA,NA,NA,""
"image-keyboard-response",271,273159,"0.0-3.86-2.86","417wd0axwg7sf08",151,"199.csv","","null","resources/images/fishbone.png","null","",NA,NA,NA,NA,""
"image-keyboard-response",272,273401,"0.0-3.87-0.87","417wd0axwg7sf08",151,"199.csv","","241","resources/trios/L2T4A1.jpg","38","restless",0.2,0.3,0.3,0.600772912361673,"false"
"image-keyboard-response",273,273803,"0.0-3.87-1.87","417wd0axwg7sf08",151,"199.csv","","null","resources/maskTrios/BT4B.jpg","null","",NA,NA,NA,NA,""
"image-keyboard-response",274,275005,"0.0-3.87-2.87","417wd0axwg7sf08",151,"199.csv","","null","resources/images/fishbone.png","null","",NA,NA,NA,NA,""
"image-keyboard-response",275,277739,"0.0-3.88-0.88","417wd0axwg7sf08",151,"199.csv","","2732","resources/trios/L1T4A3.jpg","39","restless",0.2,0.3,0.4,0.745986110865983,"false"
"image-keyboard-response",276,278142,"0.0-3.88-1.88","417wd0axwg7sf08",151,"199.csv","","null","resources/maskTrios/BBA3.jpg","null","",NA,NA,NA,NA,""
"image-keyboard-response",277,279345,"0.0-3.88-2.88","417wd0axwg7sf08",151,"199.csv","","null","resources/images/fishbone.png","null","",NA,NA,NA,NA,""
"image-keyboard-response",278,279750,"0.0-3.89-0.89","417wd0axwg7sf08",151,"199.csv","","404","resources/trios/L2T4A1.jpg","38","restless",0.2,0.3,0.5,0.919708796433521,"false"
"image-keyboard-response",279,280152,"0.0-3.89-1.89","417wd0axwg7sf08",151,"199.csv","","null","resources/maskTrios/BT4B.jpg","null","",NA,NA,NA,NA,""
"image-keyboard-response",280,281354,"0.0-3.89-2.89","417wd0axwg7sf08",151,"199.csv","","null","resources/images/fishbone.png","null","",NA,NA,NA,NA,""
"image-keyboard-response",281,281653,"0.0-3.90-0.90","417wd0axwg7sf08",151,"199.csv","","297","resources/trios/L2T4A1.jpg","39","restless",0.2,0.3,0.5,0.844648328023266,"false"
"image-keyboard-response",282,282055,"0.0-3.90-1.90","417wd0axwg7sf08",151,"199.csv","","null","resources/maskTrios/BBA1.jpg","null","",NA,NA,NA,NA,""
"image-keyboard-response",283,283259,"0.0-3.90-2.90","417wd0axwg7sf08",151,"199.csv","","null","resources/images/fishbone.png","null","",NA,NA,NA,NA,""
"image-keyboard-response",284,283502,"0.0-3.91-0.91","417wd0axwg7sf08",151,"199.csv","","241","resources/trios/L2T1A1.jpg","38","restless",0.3,0.3,0.5,0.245350975877254,"true"
"image-keyboard-response",285,283904,"0.0-3.91-1.91","417wd0axwg7sf08",151,"199.csv","","null","resources/maskTrios/BT1B.jpg","null","",NA,NA,NA,NA,""
"image-keyboard-response",286,285106,"0.0-3.91-2.91","417wd0axwg7sf08",151,"199.csv","","null","resources/images/coin2.png","null","",NA,NA,NA,NA,""
"image-keyboard-response",287,285453,"0.0-3.92-0.92","417wd0axwg7sf08",151,"199.csv","","344.9999999999418","resources/trios/L2T4A1.jpg","38","restless",0.3,0.3,0.5,0.998968371850172,"false"
"image-keyboard-response",288,285858,"0.0-3.92-1.92","417wd0axwg7sf08",151,"199.csv","","null","resources/maskTrios/BT4B.jpg","null","",NA,NA,NA,NA,""
"image-keyboard-response",289,287061,"0.0-3.92-2.92","417wd0axwg7sf08",151,"199.csv","","null","resources/images/fishbone.png","null","",NA,NA,NA,NA,""
"image-keyboard-response",290,287589,"0.0-3.93-0.93","417wd0axwg7sf08",151,"199.csv","","525","resources/trios/L2T4A1.jpg","39","restless",0.3,0.3,0.5,0.469205431126027,"true"
"image-keyboard-response",291,287992,"0.0-3.93-1.93","417wd0axwg7sf08",151,"199.csv","","null","resources/maskTrios/BBA1.jpg","null","",NA,NA,NA,NA,""
"image-keyboard-response",292,289195,"0.0-3.93-2.93","417wd0axwg7sf08",151,"199.csv","","null","resources/images/coin2.png","null","",NA,NA,NA,NA,""
"image-keyboard-response",293,289603,"0.0-3.94-0.94","417wd0axwg7sf08",151,"199.csv","","405.9999999999418","resources/trios/L2T1A1.jpg","39","restless",0.3,0.3,0.5,0.0481271518544339,"true"
"image-keyboard-response",294,290008,"0.0-3.94-1.94","417wd0axwg7sf08",151,"199.csv","","null","resources/maskTrios/BBA1.jpg","null","",NA,NA,NA,NA,""
"image-keyboard-response",295,291213,"0.0-3.94-2.94","417wd0axwg7sf08",151,"199.csv","","null","resources/images/coin2.png","null","",NA,NA,NA,NA,""
"image-keyboard-response",296,291553,"0.0-3.95-0.95","417wd0axwg7sf08",151,"199.csv","","337","resources/trios/L1T1A3.jpg","39","restless",0.3,0.3,0.5,0.902622765736978,"false"
"image-keyboard-response",297,291955,"0.0-3.95-1.95","417wd0axwg7sf08",151,"199.csv","","null","resources/maskTrios/BBA3.jpg","null","",NA,NA,NA,NA,""
"image-keyboard-response",298,293160,"0.0-3.95-2.95","417wd0axwg7sf08",151,"199.csv","","null","resources/images/fishbone.png","null","",NA,NA,NA,NA,""
"image-keyboard-response",299,293489,"0.0-3.96-0.96","417wd0axwg7sf08",151,"199.csv","","328","resources/trios/L2T4A3.jpg","38","restless",0.3,0.4,0.5,0.609921270256325,"false"
"image-keyboard-response",300,293894,"0.0-3.96-1.96","417wd0axwg7sf08",151,"199.csv","","null","resources/maskTrios/BT4B.jpg","null","",NA,NA,NA,NA,""
"image-keyboard-response",301,295098,"0.0-3.96-2.96","417wd0axwg7sf08",151,"199.csv","","null","resources/images/fishbone.png","null","",NA,NA,NA,NA,""
"image-keyboard-response",302,295696,"0.0-3.97-0.97","417wd0axwg7sf08",151,"199.csv","","596","resources/trios/L2T1A1.jpg","38","restless",0.3,0.4,0.5,0.67649983812484,"false"
"image-keyboard-response",303,296099,"0.0-3.97-1.97","417wd0axwg7sf08",151,"199.csv","","null","resources/maskTrios/BT1B.jpg","null","",NA,NA,NA,NA,""
"image-keyboard-response",304,297302,"0.0-3.97-2.97","417wd0axwg7sf08",151,"199.csv","","null","resources/images/fishbone.png","null","",NA,NA,NA,NA,""
"image-keyboard-response",305,297768,"0.0-3.98-0.98","417wd0axwg7sf08",151,"199.csv","","464","resources/trios/L2T1A1.jpg","39","restless",0.3,0.4,0.5,0.628177448452524,"false"
"image-keyboard-response",306,298170,"0.0-3.98-1.98","417wd0axwg7sf08",151,"199.csv","","null","resources/maskTrios/BBA1.jpg","null","",NA,NA,NA,NA,""
"image-keyboard-response",307,299373,"0.0-3.98-2.98","417wd0axwg7sf08",151,"199.csv","","null","resources/images/fishbone.png","null","",NA,NA,NA,NA,""
"image-keyboard-response",308,299848,"0.0-3.99-0.99","417wd0axwg7sf08",151,"199.csv","","472.9999999999418","resources/trios/L1T4A1.jpg","38","restless",0.4,0.4,0.5,0.815825151048345,"false"
"image-keyboard-response",309,300250,"0.0-3.99-1.99","417wd0axwg7sf08",151,"199.csv","","null","resources/maskTrios/BT4B.jpg","null","",NA,NA,NA,NA,""
"image-keyboard-response",310,301453,"0.0-3.99-2.99","417wd0axwg7sf08",151,"199.csv","","null","resources/images/fishbone.png","null","",NA,NA,NA,NA,""
"image-keyboard-response",311,301616,"0.0-3.100-0.100","417wd0axwg7sf08",151,"199.csv","","162","resources/trios/L1T1A1.jpg","39","restless",0.4,0.5,0.5,0.014035261688979,"true"
"image-keyboard-response",312,302018,"0.0-3.100-1.100","417wd0axwg7sf08",151,"199.csv","","null","resources/maskTrios/BBA1.jpg","null","",NA,NA,NA,NA,""
"image-keyboard-response",313,303221,"0.0-3.100-2.100","417wd0axwg7sf08",151,"199.csv","","null","resources/images/coin2.png","null","",NA,NA,NA,NA,""
"image-keyboard-response",314,303838,"0.0-3.101-0.101","417wd0axwg7sf08",151,"199.csv","","614","resources/trios/L2T1A3.jpg","39","restless",0.4,0.4,0.5,0.533109944151271,"false"
"image-keyboard-response",315,304240,"0.0-3.101-1.101","417wd0axwg7sf08",151,"199.csv","","null","resources/maskTrios/BBA3.jpg","null","",NA,NA,NA,NA,""
"image-keyboard-response",316,305441,"0.0-3.101-2.101","417wd0axwg7sf08",151,"199.csv","","null","resources/images/fishbone.png","null","",NA,NA,NA,NA,""
"image-keyboard-response",317,307668,"0.0-3.102-0.102","417wd0axwg7sf08",151,"199.csv","","2226","resources/trios/L2T4A3.jpg","39","restless",0.4,0.4,0.5,0.549508219674859,"false"
"image-keyboard-response",318,308070,"0.0-3.102-1.102","417wd0axwg7sf08",151,"199.csv","","null","resources/maskTrios/BBA3.jpg","null","",NA,NA,NA,NA,""
"image-keyboard-response",319,309272,"0.0-3.102-2.102","417wd0axwg7sf08",151,"199.csv","","null","resources/images/fishbone.png","null","",NA,NA,NA,NA,""
"image-keyboard-response",320,309743,"0.0-3.103-0.103","417wd0axwg7sf08",151,"199.csv","","469","resources/trios/L2T1A1.jpg","38","restless",0.4,0.4,0.5,0.516401828112514,"false"
"image-keyboard-response",321,310146,"0.0-3.103-1.103","417wd0axwg7sf08",151,"199.csv","","null","resources/maskTrios/BT1B.jpg","null","",NA,NA,NA,NA,""
"image-keyboard-response",322,311348,"0.0-3.103-2.103","417wd0axwg7sf08",151,"199.csv","","null","resources/images/fishbone.png","null","",NA,NA,NA,NA,""
"image-keyboard-response",323,311726,"0.0-3.104-0.104","417wd0axwg7sf08",151,"199.csv","","376","resources/trios/L1T1A3.jpg","38","restless",0.4,0.4,0.5,0.181456481831313,"true"
"image-keyboard-response",324,312129,"0.0-3.104-1.104","417wd0axwg7sf08",151,"199.csv","","null","resources/maskTrios/BT1B.jpg","null","",NA,NA,NA,NA,""
"image-keyboard-response",325,313331,"0.0-3.104-2.104","417wd0axwg7sf08",151,"199.csv","","null","resources/images/coin2.png","null","",NA,NA,NA,NA,""
"image-keyboard-response",326,313677,"0.0-3.105-0.105","417wd0axwg7sf08",151,"199.csv","","343.9999999999418","resources/trios/L2T1A3.jpg","38","restless",0.4,0.4,0.5,0.943890528359955,"false"
"image-keyboard-response",327,314080,"0.0-3.105-1.105","417wd0axwg7sf08",151,"199.csv","","null","resources/maskTrios/BT1B.jpg","null","",NA,NA,NA,NA,""
"image-keyboard-response",328,315284,"0.0-3.105-2.105","417wd0axwg7sf08",151,"199.csv","","null","resources/images/fishbone.png","null","",NA,NA,NA,NA,""
"image-keyboard-response",329,315610,"0.0-3.106-0.106","417wd0axwg7sf08",151,"199.csv","","324","resources/trios/L2T4A1.jpg","38","restless",0.5,0.4,0.5,0.352717342804977,"true"
"image-keyboard-response",330,316012,"0.0-3.106-1.106","417wd0axwg7sf08",151,"199.csv","","null","resources/maskTrios/BT4B.jpg","null","",NA,NA,NA,NA,""
"image-keyboard-response",331,317217,"0.0-3.106-2.106","417wd0axwg7sf08",151,"199.csv","","null","resources/images/coin2.png","null","",NA,NA,NA,NA,""
"image-keyboard-response",332,317609,"0.0-3.107-0.107","417wd0axwg7sf08",151,"199.csv","","390","resources/trios/L1T1A1.jpg","38","restless",0.6,0.4,0.5,0.985385838899546,"false"
"image-keyboard-response",333,318011,"0.0-3.107-1.107","417wd0axwg7sf08",151,"199.csv","","null","resources/maskTrios/BT1B.jpg","null","",NA,NA,NA,NA,""
"image-keyboard-response",334,319214,"0.0-3.107-2.107","417wd0axwg7sf08",151,"199.csv","","null","resources/images/fishbone.png","null","",NA,NA,NA,NA,""
"image-keyboard-response",335,319751,"0.0-3.108-0.108","417wd0axwg7sf08",151,"199.csv","","535","resources/trios/L1T1A3.jpg","38","restless",0.6,0.4,0.5,0.142600516841509,"true"
"image-keyboard-response",336,320152,"0.0-3.108-1.108","417wd0axwg7sf08",151,"199.csv","","null","resources/maskTrios/BT1B.jpg","null","",NA,NA,NA,NA,""
"image-keyboard-response",337,321354,"0.0-3.108-2.108","417wd0axwg7sf08",151,"199.csv","","null","resources/images/coin2.png","null","",NA,NA,NA,NA,""
"image-keyboard-response",338,321662,"0.0-3.109-0.109","417wd0axwg7sf08",151,"199.csv","","306","resources/trios/L1T1A3.jpg","38","restless",0.6,0.4,0.5,0.488154442792977,"false"
"image-keyboard-response",339,322067,"0.0-3.109-1.109","417wd0axwg7sf08",151,"199.csv","","null","resources/maskTrios/BT1B.jpg","null","",NA,NA,NA,NA,""
"image-keyboard-response",340,323270,"0.0-3.109-2.109","417wd0axwg7sf08",151,"199.csv","","null","resources/images/fishbone.png","null","",NA,NA,NA,NA,""
"image-keyboard-response",341,323607,"0.0-3.110-0.110","417wd0axwg7sf08",151,"199.csv","","332.0000000000582","resources/trios/L2T4A3.jpg","39","restless",0.6,0.4,0.5,0.883286666958189,"false"
"image-keyboard-response",342,324010,"0.0-3.110-1.110","417wd0axwg7sf08",151,"199.csv","","null","resources/maskTrios/BBA3.jpg","null","",NA,NA,NA,NA,""
"image-keyboard-response",343,325212,"0.0-3.110-2.110","417wd0axwg7sf08",151,"199.csv","","null","resources/images/fishbone.png","null","",NA,NA,NA,NA,""
"image-keyboard-response",344,325571,"0.0-3.111-0.111","417wd0axwg7sf08",151,"199.csv","","357.0000000000582","resources/trios/L2T4A3.jpg","38","restless",0.6,0.4,0.5,0.0550447060667747,"true"
"image-keyboard-response",345,325974,"0.0-3.111-1.111","417wd0axwg7sf08",151,"199.csv","","null","resources/maskTrios/BT4B.jpg","null","",NA,NA,NA,NA,""
"image-keyboard-response",346,327177,"0.0-3.111-2.111","417wd0axwg7sf08",151,"199.csv","","null","resources/images/coin2.png","null","",NA,NA,NA,NA,""
"image-keyboard-response",347,327676,"0.0-3.112-0.112","417wd0axwg7sf08",151,"199.csv","","496","resources/trios/L1T4A1.jpg","38","restless",0.6,0.4,0.5,0.643395242062275,"false"
"image-keyboard-response",348,328079,"0.0-3.112-1.112","417wd0axwg7sf08",151,"199.csv","","null","resources/maskTrios/BT4B.jpg","null","",NA,NA,NA,NA,""
"image-keyboard-response",349,329281,"0.0-3.112-2.112","417wd0axwg7sf08",151,"199.csv","","null","resources/images/fishbone.png","null","",NA,NA,NA,NA,""
"image-keyboard-response",350,329620,"0.0-3.113-0.113","417wd0axwg7sf08",151,"199.csv","","338","resources/trios/L1T1A1.jpg","37","restless",0.6,0.4,0.5,0.280728762006688,"true"
"image-keyboard-response",351,330022,"0.0-3.113-1.113","417wd0axwg7sf08",151,"199.csv","","null","resources/maskTrios/L1BB.jpg","null","",NA,NA,NA,NA,""
"image-keyboard-response",352,331225,"0.0-3.113-2.113","417wd0axwg7sf08",151,"199.csv","","null","resources/images/coin2.png","null","",NA,NA,NA,NA,""
"image-keyboard-response",353,331563,"0.0-3.114-0.114","417wd0axwg7sf08",151,"199.csv","","337","resources/trios/L2T4A3.jpg","38","restless",0.6,0.4,0.5,0.783758130236852,"false"
"image-keyboard-response",354,331966,"0.0-3.114-1.114","417wd0axwg7sf08",151,"199.csv","","null","resources/maskTrios/BT4B.jpg","null","",NA,NA,NA,NA,""
"image-keyboard-response",355,333169,"0.0-3.114-2.114","417wd0axwg7sf08",151,"199.csv","","null","resources/images/fishbone.png","null","",NA,NA,NA,NA,""
"image-keyboard-response",356,333430,"0.0-3.115-0.115","417wd0axwg7sf08",151,"199.csv","","260","resources/trios/L1T4A3.jpg","37","restless",0.6,0.4,0.5,0.524758908419155,"true"
"image-keyboard-response",357,333833,"0.0-3.115-1.115","417wd0axwg7sf08",151,"199.csv","","null","resources/maskTrios/L1BB.jpg","null","",NA,NA,NA,NA,""
"image-keyboard-response",358,335035,"0.0-3.115-2.115","417wd0axwg7sf08",151,"199.csv","","null","resources/images/coin2.png","null","",NA,NA,NA,NA,""
"image-keyboard-response",359,335377,"0.0-3.116-0.116","417wd0axwg7sf08",151,"199.csv","","340","resources/trios/L2T1A1.jpg","37","restless",0.6,0.4,0.5,0.249555259229899,"true"
"image-keyboard-response",360,335778,"0.0-3.116-1.116","417wd0axwg7sf08",151,"199.csv","","null","resources/maskTrios/L2BB.jpg","null","",NA,NA,NA,NA,""
"image-keyboard-response",361,336982,"0.0-3.116-2.116","417wd0axwg7sf08",151,"199.csv","","null","resources/images/coin2.png","null","",NA,NA,NA,NA,""
"image-keyboard-response",362,337348,"0.0-3.117-0.117","417wd0axwg7sf08",151,"199.csv","","364","resources/trios/L2T4A3.jpg","37","restless",0.6,0.4,0.5,0.979752208248627,"false"
"image-keyboard-response",363,337750,"0.0-3.117-1.117","417wd0axwg7sf08",151,"199.csv","","null","resources/maskTrios/L2BB.jpg","null","",NA,NA,NA,NA,""
"image-keyboard-response",364,338956,"0.0-3.117-2.117","417wd0axwg7sf08",151,"199.csv","","null","resources/images/fishbone.png","null","",NA,NA,NA,NA,""
"image-keyboard-response",365,339271,"0.0-3.118-0.118","417wd0axwg7sf08",151,"199.csv","","312","resources/trios/L2T1A1.jpg","38","restless",0.7,0.4,0.4,0.254666167829082,"true"
"image-keyboard-response",366,339673,"0.0-3.118-1.118","417wd0axwg7sf08",151,"199.csv","","null","resources/maskTrios/BT1B.jpg","null","",NA,NA,NA,NA,""
"image-keyboard-response",367,340876,"0.0-3.118-2.118","417wd0axwg7sf08",151,"199.csv","","null","resources/images/coin2.png","null","",NA,NA,NA,NA,""
"image-keyboard-response",368,341352,"0.0-3.119-0.119","417wd0axwg7sf08",151,"199.csv","","470","resources/trios/L1T4A1.jpg","38","restless",0.7,0.4,0.4,0.619510068706138,"false"
"image-keyboard-response",369,341755,"0.0-3.119-1.119","417wd0axwg7sf08",151,"199.csv","","null","resources/maskTrios/BT4B.jpg","null","",NA,NA,NA,NA,""
"image-keyboard-response",370,342958,"0.0-3.119-2.119","417wd0axwg7sf08",151,"199.csv","","null","resources/images/fishbone.png","null","",NA,NA,NA,NA,""
"image-keyboard-response",371,343374,"0.0-3.120-0.120","417wd0axwg7sf08",151,"199.csv","","414","resources/trios/L2T4A1.jpg","39","restless",0.7,0.4,0.4,0.481025297022821,"false"
"image-keyboard-response",372,343777,"0.0-3.120-1.120","417wd0axwg7sf08",151,"199.csv","","null","resources/maskTrios/BBA1.jpg","null","",NA,NA,NA,NA,""
"image-keyboard-response",373,344980,"0.0-3.120-2.120","417wd0axwg7sf08",151,"199.csv","","null","resources/images/fishbone.png","null","",NA,NA,NA,NA,""
"image-keyboard-response",374,345295,"0.0-3.121-0.121","417wd0axwg7sf08",151,"199.csv","","312.9999999999418","resources/trios/L1T4A1.jpg","37","restless",0.7,0.5,0.4,0.425201137466434,"true"
"image-keyboard-response",375,345696,"0.0-3.121-1.121","417wd0axwg7sf08",151,"199.csv","","null","resources/maskTrios/L1BB.jpg","null","",NA,NA,NA,NA,""
"image-keyboard-response",376,346899,"0.0-3.121-2.121","417wd0axwg7sf08",151,"199.csv","","null","resources/images/coin2.png","null","",NA,NA,NA,NA,""
"image-keyboard-response",377,347224,"0.0-3.122-0.122","417wd0axwg7sf08",151,"199.csv","","323","resources/trios/L1T1A3.jpg","37","restless",0.6,0.5,0.4,0.16399344149052,"true"
"image-keyboard-response",378,347627,"0.0-3.122-1.122","417wd0axwg7sf08",151,"199.csv","","null","resources/maskTrios/L1BB.jpg","null","",NA,NA,NA,NA,""
"image-keyboard-response",379,348830,"0.0-3.122-2.122","417wd0axwg7sf08",151,"199.csv","","null","resources/images/coin2.png","null","",NA,NA,NA,NA,""
"image-keyboard-response",380,349107,"0.0-3.123-0.123","417wd0axwg7sf08",151,"199.csv","","274.9999999999418","resources/trios/L1T4A3.jpg","37","restless",0.6,0.5,0.4,0.38745045237996,"true"
"image-keyboard-response",381,349511,"0.0-3.123-1.123","417wd0axwg7sf08",151,"199.csv","","null","resources/maskTrios/L1BB.jpg","null","",NA,NA,NA,NA,""
"image-keyboard-response",382,350714,"0.0-3.123-2.123","417wd0axwg7sf08",151,"199.csv","","null","resources/images/coin2.png","null","",NA,NA,NA,NA,""
"image-keyboard-response",383,351031,"0.0-3.124-0.124","417wd0axwg7sf08",151,"199.csv","","316","resources/trios/L2T1A1.jpg","37","restless",0.6,0.5,0.4,0.583191573992127,"true"
"image-keyboard-response",384,351434,"0.0-3.124-1.124","417wd0axwg7sf08",151,"199.csv","","null","resources/maskTrios/L2BB.jpg","null","",NA,NA,NA,NA,""
"image-keyboard-response",385,352636,"0.0-3.124-2.124","417wd0axwg7sf08",151,"199.csv","","null","resources/images/coin2.png","null","",NA,NA,NA,NA,""
"image-keyboard-response",386,352938,"0.0-3.125-0.125","417wd0axwg7sf08",151,"199.csv","","300","resources/trios/L1T1A3.jpg","37","restless",0.6,0.5,0.4,0.200752009162543,"true"
"image-keyboard-response",387,353341,"0.0-3.125-1.125","417wd0axwg7sf08",151,"199.csv","","null","resources/maskTrios/L1BB.jpg","null","",NA,NA,NA,NA,""
"image-keyboard-response",388,354543,"0.0-3.125-2.125","417wd0axwg7sf08",151,"199.csv","","null","resources/images/coin2.png","null","",NA,NA,NA,NA,""
"image-keyboard-response",389,354872,"0.0-3.126-0.126","417wd0axwg7sf08",151,"199.csv","","325","resources/trios/L1T1A1.jpg","37","restless",0.6,0.5,0.4,0.874908004722327,"false"
"image-keyboard-response",390,355275,"0.0-3.126-1.126","417wd0axwg7sf08",151,"199.csv","","null","resources/maskTrios/L1BB.jpg","null","",NA,NA,NA,NA,""
"image-keyboard-response",391,356478,"0.0-3.126-2.126","417wd0axwg7sf08",151,"199.csv","","null","resources/images/fishbone.png","null","",NA,NA,NA,NA,""
"image-keyboard-response",392,356756,"0.0-3.127-0.127","417wd0axwg7sf08",151,"199.csv","","274.9999999999418","resources/trios/L2T1A1.jpg","38","restless",0.7,0.5,0.4,0.323460047153886,"true"
"image-keyboard-response",393,357158,"0.0-3.127-1.127","417wd0axwg7sf08",151,"199.csv","","null","resources/maskTrios/BT1B.jpg","null","",NA,NA,NA,NA,""
"image-keyboard-response",394,358360,"0.0-3.127-2.127","417wd0axwg7sf08",151,"199.csv","","null","resources/images/coin2.png","null","",NA,NA,NA,NA,""
"image-keyboard-response",395,358699,"0.0-3.128-0.128","417wd0axwg7sf08",151,"199.csv","","336","resources/trios/L1T4A3.jpg","38","restless",0.7,0.5,0.4,0.541349404541149,"false"
"image-keyboard-response",396,359102,"0.0-3.128-1.128","417wd0axwg7sf08",151,"199.csv","","null","resources/maskTrios/BT4B.jpg","null","",NA,NA,NA,NA,""
"image-keyboard-response",397,360305,"0.0-3.128-2.128","417wd0axwg7sf08",151,"199.csv","","null","resources/images/fishbone.png","null","",NA,NA,NA,NA,""
"image-keyboard-response",398,360586,"0.0-3.129-0.129","417wd0axwg7sf08",151,"199.csv","","279","resources/trios/L1T4A1.jpg","37","restless",0.7,0.5,0.4,0.651568283601852,"true"
"image-keyboard-response",399,360989,"0.0-3.129-1.129","417wd0axwg7sf08",151,"199.csv","","null","resources/maskTrios/L1BB.jpg","null","",NA,NA,NA,NA,""
"image-keyboard-response",400,362192,"0.0-3.129-2.129","417wd0axwg7sf08",151,"199.csv","","null","resources/images/coin2.png","null","",NA,NA,NA,NA,""
"image-keyboard-response",401,362507,"0.0-3.130-0.130","417wd0axwg7sf08",151,"199.csv","","313","resources/trios/L2T1A3.jpg","37","restless",0.7,0.5,0.4,0.493833632982309,"true"
"image-keyboard-response",402,362909,"0.0-3.130-1.130","417wd0axwg7sf08",151,"199.csv","","null","resources/maskTrios/L2BB.jpg","null","",NA,NA,NA,NA,""
"image-keyboard-response",403,364111,"0.0-3.130-2.130","417wd0axwg7sf08",151,"199.csv","","null","resources/images/coin2.png","null","",NA,NA,NA,NA,""
"image-keyboard-response",404,364560,"0.0-3.131-0.131","417wd0axwg7sf08",151,"199.csv","","448","resources/trios/L1T4A1.jpg","37","restless",0.8,0.4,0.5,0.372960960917197,"true"
"image-keyboard-response",405,364965,"0.0-3.131-1.131","417wd0axwg7sf08",151,"199.csv","","null","resources/maskTrios/L1BB.jpg","null","",NA,NA,NA,NA,""
"image-keyboard-response",406,366168,"0.0-3.131-2.131","417wd0axwg7sf08",151,"199.csv","","null","resources/images/coin2.png","null","",NA,NA,NA,NA,""
"image-keyboard-response",407,366510,"0.0-3.132-0.132","417wd0axwg7sf08",151,"199.csv","","340.0000000000582","resources/trios/L2T1A3.jpg","37","restless",0.8,0.3,0.5,0.501144930008341,"true"
"image-keyboard-response",408,366911,"0.0-3.132-1.132","417wd0axwg7sf08",151,"199.csv","","null","resources/maskTrios/L2BB.jpg","null","",NA,NA,NA,NA,""
"image-keyboard-response",409,368114,"0.0-3.132-2.132","417wd0axwg7sf08",151,"199.csv","","null","resources/images/coin2.png","null","",NA,NA,NA,NA,""
"image-keyboard-response",410,368538,"0.0-3.133-0.133","417wd0axwg7sf08",151,"199.csv","","421","resources/trios/L2T4A3.jpg","37","restless",0.8,0.3,0.5,0.254301588347832,"true"
"image-keyboard-response",411,368944,"0.0-3.133-1.133","417wd0axwg7sf08",151,"199.csv","","null","resources/maskTrios/L2BB.jpg","null","",NA,NA,NA,NA,""
"image-keyboard-response",412,370147,"0.0-3.133-2.133","417wd0axwg7sf08",151,"199.csv","","null","resources/images/coin2.png","null","",NA,NA,NA,NA,""
"image-keyboard-response",413,370459,"0.0-3.134-0.134","417wd0axwg7sf08",151,"199.csv","","307","resources/trios/L2T1A3.jpg","37","restless",0.8,0.3,0.4,0.197709062481457,"true"
"image-keyboard-response",414,370862,"0.0-3.134-1.134","417wd0axwg7sf08",151,"199.csv","","null","resources/maskTrios/L2BB.jpg","null","",NA,NA,NA,NA,""
"image-keyboard-response",415,372065,"0.0-3.134-2.134","417wd0axwg7sf08",151,"199.csv","","null","resources/images/coin2.png","null","",NA,NA,NA,NA,""
"image-keyboard-response",416,372408,"0.0-3.135-0.135","417wd0axwg7sf08",151,"199.csv","","341.0000000000582","resources/trios/L1T1A3.jpg","37","restless",0.8,0.3,0.4,0.955180927359897,"false"
"image-keyboard-response",417,372811,"0.0-3.135-1.135","417wd0axwg7sf08",151,"199.csv","","null","resources/maskTrios/L1BB.jpg","null","",NA,NA,NA,NA,""
"image-keyboard-response",418,374014,"0.0-3.135-2.135","417wd0axwg7sf08",151,"199.csv","","null","resources/images/fishbone.png","null","",NA,NA,NA,NA,""
"image-keyboard-response",419,374292,"0.0-3.136-0.136","417wd0axwg7sf08",151,"199.csv","","277","resources/trios/L2T4A3.jpg","38","restless",0.8,0.3,0.4,0.972418526835066,"false"
"image-keyboard-response",420,374695,"0.0-3.136-1.136","417wd0axwg7sf08",151,"199.csv","","null","resources/maskTrios/BT4B.jpg","null","",NA,NA,NA,NA,""
"image-keyboard-response",421,375898,"0.0-3.136-2.136","417wd0axwg7sf08",151,"199.csv","","null","resources/images/fishbone.png","null","",NA,NA,NA,NA,""
"image-keyboard-response",422,376174,"0.0-3.137-0.137","417wd0axwg7sf08",151,"199.csv","","275","resources/trios/L1T1A3.jpg","37","restless",0.8,0.3,0.4,0.0456386213862114,"true"
"image-keyboard-response",423,376576,"0.0-3.137-1.137","417wd0axwg7sf08",151,"199.csv","","null","resources/maskTrios/L1BB.jpg","null","",NA,NA,NA,NA,""
"image-keyboard-response",424,377779,"0.0-3.137-2.137","417wd0axwg7sf08",151,"199.csv","","null","resources/images/coin2.png","null","",NA,NA,NA,NA,""
"image-keyboard-response",425,378106,"0.0-3.138-0.138","417wd0axwg7sf08",151,"199.csv","","325","resources/trios/L2T1A3.jpg","37","restless",0.7,0.3,0.4,0.449623463964408,"true"
"image-keyboard-response",426,378510,"0.0-3.138-1.138","417wd0axwg7sf08",151,"199.csv","","null","resources/maskTrios/L2BB.jpg","null","",NA,NA,NA,NA,""
"image-keyboard-response",427,379713,"0.0-3.138-2.138","417wd0axwg7sf08",151,"199.csv","","null","resources/images/coin2.png","null","",NA,NA,NA,NA,""
"image-keyboard-response",428,380125,"0.0-3.139-0.139","417wd0axwg7sf08",151,"199.csv","","411","resources/trios/L2T1A1.jpg","37","restless",0.7,0.3,0.4,0.11819505889129,"true"
"image-keyboard-response",429,380528,"0.0-3.139-1.139","417wd0axwg7sf08",151,"199.csv","","null","resources/maskTrios/L2BB.jpg","null","",NA,NA,NA,NA,""
"image-keyboard-response",430,381730,"0.0-3.139-2.139","417wd0axwg7sf08",151,"199.csv","","null","resources/images/coin2.png","null","",NA,NA,NA,NA,""
"image-keyboard-response",431,382055,"0.0-3.140-0.140","417wd0axwg7sf08",151,"199.csv","","323","resources/trios/L2T1A1.jpg","37","restless",0.7,0.3,0.4,0.40267617420406,"true"
"image-keyboard-response",432,382457,"0.0-3.140-1.140","417wd0axwg7sf08",151,"199.csv","","null","resources/maskTrios/L2BB.jpg","null","",NA,NA,NA,NA,""
"image-keyboard-response",433,383662,"0.0-3.140-2.140","417wd0axwg7sf08",151,"199.csv","","null","resources/images/coin2.png","null","",NA,NA,NA,NA,""
"image-keyboard-response",434,383986,"0.0-3.141-0.141","417wd0axwg7sf08",151,"199.csv","","320.9999999999418","resources/trios/L2T1A3.jpg","37","restless",0.7,0.3,0.4,0.764317526699785,"false"
"image-keyboard-response",435,384391,"0.0-3.141-1.141","417wd0axwg7sf08",151,"199.csv","","null","resources/maskTrios/L2BB.jpg","null","",NA,NA,NA,NA,""
"image-keyboard-response",436,385594,"0.0-3.141-2.141","417wd0axwg7sf08",151,"199.csv","","null","resources/images/fishbone.png","null","",NA,NA,NA,NA,""
"image-keyboard-response",437,385602,"0.0-3.142-0.142","417wd0axwg7sf08",151,"199.csv","","5","resources/trios/L1T1A1.jpg","37","restless",0.8,0.3,0.4,0.846391818829316,"false"
"image-keyboard-response",438,386005,"0.0-3.142-1.142","417wd0axwg7sf08",151,"199.csv","","null","resources/maskTrios/L1BB.jpg","null","",NA,NA,NA,NA,""
"image-keyboard-response",439,387208,"0.0-3.142-2.142","417wd0axwg7sf08",151,"199.csv","","null","resources/images/fishbone.png","null","",NA,NA,NA,NA,""
"image-keyboard-response",440,387631,"0.0-3.143-0.143","417wd0axwg7sf08",151,"199.csv","","421","resources/trios/L1T4A3.jpg","38","restless",0.8,0.3,0.4,0.83605345538514,"false"
"image-keyboard-response",441,388034,"0.0-3.143-1.143","417wd0axwg7sf08",151,"199.csv","","null","resources/maskTrios/BT4B.jpg","null","",NA,NA,NA,NA,""
"image-keyboard-response",442,389236,"0.0-3.143-2.143","417wd0axwg7sf08",151,"199.csv","","null","resources/images/fishbone.png","null","",NA,NA,NA,NA,""
"image-keyboard-response",443,389521,"0.0-3.144-0.144","417wd0axwg7sf08",151,"199.csv","","282","resources/trios/L2T4A1.jpg","37","restless",0.8,0.3,0.4,0.715795038674305,"true"
"image-keyboard-response",444,389923,"0.0-3.144-1.144","417wd0axwg7sf08",151,"199.csv","","null","resources/maskTrios/L2BB.jpg","null","",NA,NA,NA,NA,""
"image-keyboard-response",445,391126,"0.0-3.144-2.144","417wd0axwg7sf08",151,"199.csv","","null","resources/images/coin2.png","null","",NA,NA,NA,NA,""
"image-keyboard-response",446,391620,"0.0-3.145-0.145","417wd0axwg7sf08",151,"199.csv","","492","resources/trios/L2T4A1.jpg","37","restless",0.8,0.2,0.4,0.885270000037202,"false"
"image-keyboard-response",447,392022,"0.0-3.145-1.145","417wd0axwg7sf08",151,"199.csv","","null","resources/maskTrios/L2BB.jpg","null","",NA,NA,NA,NA,""
"image-keyboard-response",448,393225,"0.0-3.145-2.145","417wd0axwg7sf08",151,"199.csv","","null","resources/images/fishbone.png","null","",NA,NA,NA,NA,""
"image-keyboard-response",449,393539,"0.0-3.146-0.146","417wd0axwg7sf08",151,"199.csv","","313","resources/trios/L2T4A3.jpg","38","restless",0.8,0.2,0.4,0.1329406489613,"true"
"image-keyboard-response",450,393942,"0.0-3.146-1.146","417wd0axwg7sf08",151,"199.csv","","null","resources/maskTrios/BT4B.jpg","null","",NA,NA,NA,NA,""
"image-keyboard-response",451,395145,"0.0-3.146-2.146","417wd0axwg7sf08",151,"199.csv","","null","resources/images/coin2.png","null","",NA,NA,NA,NA,""
"image-keyboard-response",452,395430,"0.0-3.147-0.147","417wd0axwg7sf08",151,"199.csv","","283","resources/trios/L2T4A1.jpg","38","restless",0.8,0.2,0.4,0.552378322972282,"false"
"image-keyboard-response",453,395835,"0.0-3.147-1.147","417wd0axwg7sf08",151,"199.csv","","null","resources/maskTrios/BT4B.jpg","null","",NA,NA,NA,NA,""
"image-keyboard-response",454,397037,"0.0-3.147-2.147","417wd0axwg7sf08",151,"199.csv","","null","resources/images/fishbone.png","null","",NA,NA,NA,NA,""
"image-keyboard-response",455,397412,"0.0-3.148-0.148","417wd0axwg7sf08",151,"199.csv","","373","resources/trios/L2T4A3.jpg","37","restless",0.8,0.2,0.4,0.755008364399922,"true"
"image-keyboard-response",456,397814,"0.0-3.148-1.148","417wd0axwg7sf08",151,"199.csv","","null","resources/maskTrios/L2BB.jpg","null","",NA,NA,NA,NA,""
"image-keyboard-response",457,399016,"0.0-3.148-2.148","417wd0axwg7sf08",151,"199.csv","","null","resources/images/coin2.png","null","",NA,NA,NA,NA,""
"image-keyboard-response",458,399421,"0.0-3.149-0.149","417wd0axwg7sf08",151,"199.csv","","402","resources/trios/L1T4A1.jpg","37","restless",0.8,0.3,0.4,0.824161045044013,"false"
"image-keyboard-response",459,399823,"0.0-3.149-1.149","417wd0axwg7sf08",151,"199.csv","","null","resources/maskTrios/L1BB.jpg","null","",NA,NA,NA,NA,""
"image-keyboard-response",460,401026,"0.0-3.149-2.149","417wd0axwg7sf08",151,"199.csv","","null","resources/images/fishbone.png","null","",NA,NA,NA,NA,""
"image-keyboard-response",461,401670,"0.0-3.150-0.150","417wd0axwg7sf08",151,"199.csv","","642","resources/trios/L2T1A3.jpg","37","restless",0.8,0.3,0.4,0.0972755639971253,"true"
"image-keyboard-response",462,402072,"0.0-3.150-1.150","417wd0axwg7sf08",151,"199.csv","","null","resources/maskTrios/L2BB.jpg","null","",NA,NA,NA,NA,""
"image-keyboard-response",463,403275,"0.0-3.150-2.150","417wd0axwg7sf08",151,"199.csv","","null","resources/images/coin2.png","null","",NA,NA,NA,NA,""
"image-keyboard-response",464,404598,"0.0-3.151-0.151","417wd0axwg7sf08",151,"199.csv","","1318","resources/trios/L2T1A3.jpg","37","restless",0.8,0.3,0.4,0.46187325015692,"true"
"image-keyboard-response",465,405002,"0.0-3.151-1.151","417wd0axwg7sf08",151,"199.csv","","null","resources/maskTrios/L2BB.jpg","null","",NA,NA,NA,NA,""
"image-keyboard-response",466,406209,"0.0-3.151-2.151","417wd0axwg7sf08",151,"199.csv","","null","resources/images/coin2.png","null","",NA,NA,NA,NA,""
"image-keyboard-response",467,407296,"0.0-3.152-0.152","417wd0axwg7sf08",151,"199.csv","","1084","resources/trios/L1T4A1.jpg","37","restless",0.8,0.3,0.4,0.609008491269966,"true"
"image-keyboard-response",468,407699,"0.0-3.152-1.152","417wd0axwg7sf08",151,"199.csv","","null","resources/maskTrios/L1BB.jpg","null","",NA,NA,NA,NA,""
"image-keyboard-response",469,408902,"0.0-3.152-2.152","417wd0axwg7sf08",151,"199.csv","","null","resources/images/coin2.png","null","",NA,NA,NA,NA,""
"image-keyboard-response",470,409242,"0.0-3.153-0.153","417wd0axwg7sf08",151,"199.csv","","337.0000000000582","resources/trios/L2T4A3.jpg","37","restless",0.9,0.3,0.4,0.414113619789282,"true"
"image-keyboard-response",471,409644,"0.0-3.153-1.153","417wd0axwg7sf08",151,"199.csv","","null","resources/maskTrios/L2BB.jpg","null","",NA,NA,NA,NA,""
"image-keyboard-response",472,410847,"0.0-3.153-2.153","417wd0axwg7sf08",151,"199.csv","","null","resources/images/coin2.png","null","",NA,NA,NA,NA,""
"image-keyboard-response",473,415004,"0.0-3.154-0.154","417wd0axwg7sf08",151,"199.csv","","4156","resources/trios/L2T4A3.jpg","37","restless",0.9,0.3,0.4,0.313222506708658,"true"
"image-keyboard-response",474,415408,"0.0-3.154-1.154","417wd0axwg7sf08",151,"199.csv","","null","resources/maskTrios/L2BB.jpg","null","",NA,NA,NA,NA,""
"image-keyboard-response",475,416611,"0.0-3.154-2.154","417wd0axwg7sf08",151,"199.csv","","null","resources/images/coin2.png","null","",NA,NA,NA,NA,""
"image-keyboard-response",476,416974,"0.0-3.155-0.155","417wd0axwg7sf08",151,"199.csv","","361","resources/trios/L1T4A3.jpg","37","restless",0.9,0.3,0.4,0.00497647166748305,"true"
"image-keyboard-response",477,417377,"0.0-3.155-1.155","417wd0axwg7sf08",151,"199.csv","","null","resources/maskTrios/L1BB.jpg","null","",NA,NA,NA,NA,""
"image-keyboard-response",478,418580,"0.0-3.155-2.155","417wd0axwg7sf08",151,"199.csv","","null","resources/images/coin2.png","null","",NA,NA,NA,NA,""
"image-keyboard-response",479,418980,"0.0-3.156-0.156","417wd0axwg7sf08",151,"199.csv","","399","resources/trios/L1T4A1.jpg","37","restless",0.9,0.3,0.4,0.469668517984562,"true"
"image-keyboard-response",480,419385,"0.0-3.156-1.156","417wd0axwg7sf08",151,"199.csv","","null","resources/maskTrios/L1BB.jpg","null","",NA,NA,NA,NA,""
"image-keyboard-response",481,420587,"0.0-3.156-2.156","417wd0axwg7sf08",151,"199.csv","","null","resources/images/coin2.png","null","",NA,NA,NA,NA,""
"image-keyboard-response",482,420884,"0.0-3.157-0.157","417wd0axwg7sf08",151,"199.csv","","295","resources/trios/L2T1A3.jpg","37","restless",0.9,0.3,0.4,0.785877875400986,"true"
"image-keyboard-response",483,421286,"0.0-3.157-1.157","417wd0axwg7sf08",151,"199.csv","","null","resources/maskTrios/L2BB.jpg","null","",NA,NA,NA,NA,""
"image-keyboard-response",484,422489,"0.0-3.157-2.157","417wd0axwg7sf08",151,"199.csv","","null","resources/images/coin2.png","null","",NA,NA,NA,NA,""
"image-keyboard-response",485,422770,"0.0-3.158-0.158","417wd0axwg7sf08",151,"199.csv","","276","resources/trios/L2T4A3.jpg","37","restless",0.9,0.3,0.4,0.935592825519544,"false"
"image-keyboard-response",486,423173,"0.0-3.158-1.158","417wd0axwg7sf08",151,"199.csv","","null","resources/maskTrios/L2BB.jpg","null","",NA,NA,NA,NA,""
"image-keyboard-response",487,424377,"0.0-3.158-2.158","417wd0axwg7sf08",151,"199.csv","","null","resources/images/fishbone.png","null","",NA,NA,NA,NA,""
"image-keyboard-response",488,424838,"0.0-3.159-0.159","417wd0axwg7sf08",151,"199.csv","","459","resources/trios/L2T4A3.jpg","38","restless",0.9,0.3,0.4,0.321345826203611,"false"
"image-keyboard-response",489,425240,"0.0-3.159-1.159","417wd0axwg7sf08",151,"199.csv","","null","resources/maskTrios/BT4B.jpg","null","",NA,NA,NA,NA,""
"image-keyboard-response",490,426443,"0.0-3.159-2.159","417wd0axwg7sf08",151,"199.csv","","null","resources/images/fishbone.png","null","",NA,NA,NA,NA,""
"image-keyboard-response",491,426977,"0.0-3.160-0.160","417wd0axwg7sf08",151,"199.csv","","531","resources/trios/L2T4A1.jpg","37","restless",0.9,0.3,0.4,0.0361000452928915,"true"
"image-keyboard-response",492,427379,"0.0-3.160-1.160","417wd0axwg7sf08",151,"199.csv","","null","resources/maskTrios/L2BB.jpg","null","",NA,NA,NA,NA,""
"image-keyboard-response",493,428582,"0.0-3.160-2.160","417wd0axwg7sf08",151,"199.csv","","null","resources/images/coin2.png","null","",NA,NA,NA,NA,""
"image-keyboard-response",494,428950,"0.0-3.161-0.161","417wd0axwg7sf08",151,"199.csv","","365","resources/trios/L2T1A3.jpg","37","restless",0.9,0.3,0.4,0.605032866760644,"true"
"image-keyboard-response",495,429352,"0.0-3.161-1.161","417wd0axwg7sf08",151,"199.csv","","null","resources/maskTrios/L2BB.jpg","null","",NA,NA,NA,NA,""
"image-keyboard-response",496,430556,"0.0-3.161-2.161","417wd0axwg7sf08",151,"199.csv","","null","resources/images/coin2.png","null","",NA,NA,NA,NA,""
"image-keyboard-response",497,430936,"0.0-3.162-0.162","417wd0axwg7sf08",151,"199.csv","","378","resources/trios/L2T1A1.jpg","37","restless",0.9,0.3,0.4,0.887466963325513,"true"
"image-keyboard-response",498,431338,"0.0-3.162-1.162","417wd0axwg7sf08",151,"199.csv","","null","resources/maskTrios/L2BB.jpg","null","",NA,NA,NA,NA,""
"image-keyboard-response",499,432541,"0.0-3.162-2.162","417wd0axwg7sf08",151,"199.csv","","null","resources/images/coin2.png","null","",NA,NA,NA,NA,""
"image-keyboard-response",500,432872,"0.0-3.163-0.163","417wd0axwg7sf08",151,"199.csv","","329","resources/trios/L2T1A3.jpg","37","restless",0.9,0.3,0.4,0.752685854490969,"true"
"image-keyboard-response",501,433278,"0.0-3.163-1.163","417wd0axwg7sf08",151,"199.csv","","null","resources/maskTrios/L2BB.jpg","null","",NA,NA,NA,NA,""
"image-keyboard-response",502,434481,"0.0-3.163-2.163","417wd0axwg7sf08",151,"199.csv","","null","resources/images/coin2.png","null","",NA,NA,NA,NA,""
"image-keyboard-response",503,434785,"0.0-3.164-0.164","417wd0axwg7sf08",151,"199.csv","","302","resources/trios/L2T4A3.jpg","37","restless",0.8,0.3,0.4,0.572052698469848,"true"
"image-keyboard-response",504,435188,"0.0-3.164-1.164","417wd0axwg7sf08",151,"199.csv","","null","resources/maskTrios/L2BB.jpg","null","",NA,NA,NA,NA,""
"image-keyboard-response",505,436393,"0.0-3.164-2.164","417wd0axwg7sf08",151,"199.csv","","null","resources/images/coin2.png","null","",NA,NA,NA,NA,""
"image-keyboard-response",506,436677,"0.0-3.165-0.165","417wd0axwg7sf08",151,"199.csv","","281","resources/trios/L2T1A1.jpg","37","restless",0.8,0.3,0.3,0.394785953328739,"true"
"image-keyboard-response",507,437079,"0.0-3.165-1.165","417wd0axwg7sf08",151,"199.csv","","null","resources/maskTrios/L2BB.jpg","null","",NA,NA,NA,NA,""
"image-keyboard-response",508,438282,"0.0-3.165-2.165","417wd0axwg7sf08",151,"199.csv","","null","resources/images/coin2.png","null","",NA,NA,NA,NA,""
"image-keyboard-response",509,438585,"0.0-3.166-0.166","417wd0axwg7sf08",151,"199.csv","","301","resources/trios/L1T4A1.jpg","37","restless",0.8,0.3,0.3,0.361671342607079,"true"
"image-keyboard-response",510,438988,"0.0-3.166-1.166","417wd0axwg7sf08",151,"199.csv","","null","resources/maskTrios/L1BB.jpg","null","",NA,NA,NA,NA,""
"image-keyboard-response",511,440191,"0.0-3.166-2.166","417wd0axwg7sf08",151,"199.csv","","null","resources/images/coin2.png","null","",NA,NA,NA,NA,""
"image-keyboard-response",512,440478,"0.0-3.167-0.167","417wd0axwg7sf08",151,"199.csv","","284.9999999999418","resources/trios/L2T1A3.jpg","37","restless",0.8,0.4,0.3,0.802225744888241,"false"
"image-keyboard-response",513,440881,"0.0-3.167-1.167","417wd0axwg7sf08",151,"199.csv","","null","resources/maskTrios/L2BB.jpg","null","",NA,NA,NA,NA,""
"image-keyboard-response",514,442086,"0.0-3.167-2.167","417wd0axwg7sf08",151,"199.csv","","null","resources/images/fishbone.png","null","",NA,NA,NA,NA,""
"image-keyboard-response",515,442404,"0.0-3.168-0.168","417wd0axwg7sf08",151,"199.csv","","316","resources/trios/L1T4A3.jpg","37","restless",0.8,0.4,0.3,0.680841623785718,"true"
"image-keyboard-response",516,442806,"0.0-3.168-1.168","417wd0axwg7sf08",151,"199.csv","","null","resources/maskTrios/L1BB.jpg","null","",NA,NA,NA,NA,""
"image-keyboard-response",517,444009,"0.0-3.168-2.168","417wd0axwg7sf08",151,"199.csv","","null","resources/images/coin2.png","null","",NA,NA,NA,NA,""
"image-keyboard-response",518,444321,"0.0-3.169-0.169","417wd0axwg7sf08",151,"199.csv","","311","resources/trios/L1T4A1.jpg","37","restless",0.8,0.4,0.3,0.586529677270206,"true"
"image-keyboard-response",519,444724,"0.0-3.169-1.169","417wd0axwg7sf08",151,"199.csv","","null","resources/maskTrios/L1BB.jpg","null","",NA,NA,NA,NA,""
"image-keyboard-response",520,445927,"0.0-3.169-2.169","417wd0axwg7sf08",151,"199.csv","","null","resources/images/coin2.png","null","",NA,NA,NA,NA,""
"image-keyboard-response",521,446252,"0.0-3.170-0.170","417wd0axwg7sf08",151,"199.csv","","324.0000000000582","resources/trios/L2T4A3.jpg","37","restless",0.7,0.4,0.2,0.97417884368243,"false"
"image-keyboard-response",522,446655,"0.0-3.170-1.170","417wd0axwg7sf08",151,"199.csv","","null","resources/maskTrios/L2BB.jpg","null","",NA,NA,NA,NA,""
"image-keyboard-response",523,447860,"0.0-3.170-2.170","417wd0axwg7sf08",151,"199.csv","","null","resources/images/fishbone.png","null","",NA,NA,NA,NA,""
"image-keyboard-response",524,448138,"0.0-3.171-0.171","417wd0axwg7sf08",151,"199.csv","","276","resources/trios/L1T1A3.jpg","37","restless",0.7,0.4,0.2,0.53991146085714,"true"
"image-keyboard-response",525,448540,"0.0-3.171-1.171","417wd0axwg7sf08",151,"199.csv","","null","resources/maskTrios/L1BB.jpg","null","",NA,NA,NA,NA,""
"image-keyboard-response",526,449743,"0.0-3.171-2.171","417wd0axwg7sf08",151,"199.csv","","null","resources/images/coin2.png","null","",NA,NA,NA,NA,""
"image-keyboard-response",527,450071,"0.0-3.172-0.172","417wd0axwg7sf08",151,"199.csv","","324.9999999999418","resources/trios/L1T4A1.jpg","37","restless",0.7,0.5,0.2,0.537923887520131,"true"
"image-keyboard-response",528,450472,"0.0-3.172-1.172","417wd0axwg7sf08",151,"199.csv","","null","resources/maskTrios/L1BB.jpg","null","",NA,NA,NA,NA,""
"image-keyboard-response",529,451677,"0.0-3.172-2.172","417wd0axwg7sf08",151,"199.csv","","null","resources/images/coin2.png","null","",NA,NA,NA,NA,""
"image-keyboard-response",530,452100,"0.0-3.173-0.173","417wd0axwg7sf08",151,"199.csv","","421","resources/trios/L2T4A1.jpg","37","restless",0.7,0.5,0.2,0.435867020166031,"true"
"image-keyboard-response",531,452503,"0.0-3.173-1.173","417wd0axwg7sf08",151,"199.csv","","null","resources/maskTrios/L2BB.jpg","null","",NA,NA,NA,NA,""
"image-keyboard-response",532,453705,"0.0-3.173-2.173","417wd0axwg7sf08",151,"199.csv","","null","resources/images/coin2.png","null","",NA,NA,NA,NA,""
"image-keyboard-response",533,454127,"0.0-3.174-0.174","417wd0axwg7sf08",151,"199.csv","","420","resources/trios/L2T4A1.jpg","37","restless",0.7,0.5,0.2,0.834898232115398,"false"
"image-keyboard-response",534,454530,"0.0-3.174-1.174","417wd0axwg7sf08",151,"199.csv","","null","resources/maskTrios/L2BB.jpg","null","",NA,NA,NA,NA,""
"image-keyboard-response",535,455733,"0.0-3.174-2.174","417wd0axwg7sf08",151,"199.csv","","null","resources/images/fishbone.png","null","",NA,NA,NA,NA,""
"image-keyboard-response",536,456139,"0.0-3.175-0.175","417wd0axwg7sf08",151,"199.csv","","404","resources/trios/L2T4A1.jpg","37","restless",0.7,0.5,0.2,0.293260332906,"true"
"image-keyboard-response",537,456541,"0.0-3.175-1.175","417wd0axwg7sf08",151,"199.csv","","null","resources/maskTrios/L2BB.jpg","null","",NA,NA,NA,NA,""
"image-keyboard-response",538,457743,"0.0-3.175-2.175","417wd0axwg7sf08",151,"199.csv","","null","resources/images/coin2.png","null","",NA,NA,NA,NA,""
"image-keyboard-response",539,458099,"0.0-3.176-0.176","417wd0axwg7sf08",151,"199.csv","","352","resources/trios/L2T4A1.jpg","37","restless",0.7,0.5,0.2,0.280549852421484,"true"
"image-keyboard-response",540,458502,"0.0-3.176-1.176","417wd0axwg7sf08",151,"199.csv","","null","resources/maskTrios/L2BB.jpg","null","",NA,NA,NA,NA,""
"image-keyboard-response",541,459705,"0.0-3.176-2.176","417wd0axwg7sf08",151,"199.csv","","null","resources/images/coin2.png","null","",NA,NA,NA,NA,""
"image-keyboard-response",542,460289,"0.0-3.177-0.177","417wd0axwg7sf08",151,"199.csv","","582","resources/trios/L2T4A1.jpg","37","restless",0.7,0.5,0.2,0.120474571915851,"true"
"image-keyboard-response",543,460692,"0.0-3.177-1.177","417wd0axwg7sf08",151,"199.csv","","null","resources/maskTrios/L2BB.jpg","null","",NA,NA,NA,NA,""
"image-keyboard-response",544,461895,"0.0-3.177-2.177","417wd0axwg7sf08",151,"199.csv","","null","resources/images/coin2.png","null","",NA,NA,NA,NA,""
"image-keyboard-response",545,462411,"0.0-3.178-0.178","417wd0axwg7sf08",151,"199.csv","","513","resources/trios/L1T4A3.jpg","37","restless",0.7,0.5,0.2,0.0117834397798812,"true"
"image-keyboard-response",546,462815,"0.0-3.178-1.178","417wd0axwg7sf08",151,"199.csv","","null","resources/maskTrios/L1BB.jpg","null","",NA,NA,NA,NA,""
"image-keyboard-response",547,464018,"0.0-3.178-2.178","417wd0axwg7sf08",151,"199.csv","","null","resources/images/coin2.png","null","",NA,NA,NA,NA,""
"image-keyboard-response",548,464323,"0.0-3.179-0.179","417wd0axwg7sf08",151,"199.csv","","302","resources/trios/L2T1A3.jpg","37","restless",0.7,0.5,0.2,0.112989011496841,"true"
"image-keyboard-response",549,464726,"0.0-3.179-1.179","417wd0axwg7sf08",151,"199.csv","","null","resources/maskTrios/L2BB.jpg","null","",NA,NA,NA,NA,""
"image-keyboard-response",550,465929,"0.0-3.179-2.179","417wd0axwg7sf08",151,"199.csv","","null","resources/images/coin2.png","null","",NA,NA,NA,NA,""
"image-keyboard-response",551,466274,"0.0-3.180-0.180","417wd0axwg7sf08",151,"199.csv","","342.9999999999418","resources/trios/L1T4A1.jpg","37","restless",0.7,0.5,0.3,0.780907176656693,"false"
"image-keyboard-response",552,466676,"0.0-3.180-1.180","417wd0axwg7sf08",151,"199.csv","","null","resources/maskTrios/L1BB.jpg","null","",NA,NA,NA,NA,""
"image-keyboard-response",553,467880,"0.0-3.180-2.180","417wd0axwg7sf08",151,"199.csv","","null","resources/images/fishbone.png","null","",NA,NA,NA,NA,""
"image-keyboard-response",554,468176,"0.0-3.181-0.181","417wd0axwg7sf08",151,"199.csv","","293.9999999999418","resources/trios/L2T1A1.jpg","37","restless",0.8,0.5,0.3,0.242822452188003,"true"
"image-keyboard-response",555,468578,"0.0-3.181-1.181","417wd0axwg7sf08",151,"199.csv","","null","resources/maskTrios/L2BB.jpg","null","",NA,NA,NA,NA,""
"image-keyboard-response",556,469782,"0.0-3.181-2.181","417wd0axwg7sf08",151,"199.csv","","null","resources/images/coin2.png","null","",NA,NA,NA,NA,""
"image-keyboard-response",557,470135,"0.0-3.182-0.182","417wd0axwg7sf08",151,"199.csv","","351","resources/trios/L1T4A3.jpg","37","restless",0.8,0.5,0.3,0.416918871390448,"true"
"image-keyboard-response",558,470536,"0.0-3.182-1.182","417wd0axwg7sf08",151,"199.csv","","null","resources/maskTrios/L1BB.jpg","null","",NA,NA,NA,NA,""
"image-keyboard-response",559,471739,"0.0-3.182-2.182","417wd0axwg7sf08",151,"199.csv","","null","resources/images/coin2.png","null","",NA,NA,NA,NA,""
"image-keyboard-response",560,472057,"0.0-3.183-0.183","417wd0axwg7sf08",151,"199.csv","","312","resources/trios/L2T1A3.jpg","37","restless",0.8,0.5,0.4,0.399291328899096,"true"
"image-keyboard-response",561,472459,"0.0-3.183-1.183","417wd0axwg7sf08",151,"199.csv","","null","resources/maskTrios/L2BB.jpg","null","",NA,NA,NA,NA,""
"image-keyboard-response",562,473661,"0.0-3.183-2.183","417wd0axwg7sf08",151,"199.csv","","null","resources/images/coin2.png","null","",NA,NA,NA,NA,""
"image-keyboard-response",563,474053,"0.0-3.184-0.184","417wd0axwg7sf08",151,"199.csv","","389.9999999999418","resources/trios/L2T4A3.jpg","37","restless",0.8,0.5,0.4,0.783802165051373,"true"
"image-keyboard-response",564,474455,"0.0-3.184-1.184","417wd0axwg7sf08",151,"199.csv","","null","resources/maskTrios/L2BB.jpg","null","",NA,NA,NA,NA,""
"image-keyboard-response",565,475658,"0.0-3.184-2.184","417wd0axwg7sf08",151,"199.csv","","null","resources/images/coin2.png","null","",NA,NA,NA,NA,""
"image-keyboard-response",566,476923,"0.0-3.185-0.185","417wd0axwg7sf08",151,"199.csv","","1263","resources/trios/L1T4A3.jpg","37","restless",0.8,0.5,0.4,0.169469315071999,"true"
"image-keyboard-response",567,477326,"0.0-3.185-1.185","417wd0axwg7sf08",151,"199.csv","","null","resources/maskTrios/L1BB.jpg","null","",NA,NA,NA,NA,""
"image-keyboard-response",568,478529,"0.0-3.185-2.185","417wd0axwg7sf08",151,"199.csv","","null","resources/images/coin2.png","null","",NA,NA,NA,NA,""
"image-keyboard-response",569,479143,"0.0-3.186-0.186","417wd0axwg7sf08",151,"199.csv","","611.9999999999418","resources/trios/L1T1A1.jpg","37","restless",0.8,0.5,0.4,0.713274300758079,"true"
"image-keyboard-response",570,479544,"0.0-3.186-1.186","417wd0axwg7sf08",151,"199.csv","","null","resources/maskTrios/L1BB.jpg","null","",NA,NA,NA,NA,""
"image-keyboard-response",571,480747,"0.0-3.186-2.186","417wd0axwg7sf08",151,"199.csv","","null","resources/images/coin2.png","null","",NA,NA,NA,NA,""
"image-keyboard-response",572,481029,"0.0-3.187-0.187","417wd0axwg7sf08",151,"199.csv","","276.9999999999418","resources/trios/L1T1A3.jpg","37","restless",0.8,0.5,0.4,0.116318093897283,"true"
"image-keyboard-response",573,481433,"0.0-3.187-1.187","417wd0axwg7sf08",151,"199.csv","","null","resources/maskTrios/L1BB.jpg","null","",NA,NA,NA,NA,""
"image-keyboard-response",574,482636,"0.0-3.187-2.187","417wd0axwg7sf08",151,"199.csv","","null","resources/images/coin2.png","null","",NA,NA,NA,NA,""
"image-keyboard-response",575,483104,"0.0-3.188-0.188","417wd0axwg7sf08",151,"199.csv","","466","resources/trios/L2T1A3.jpg","37","restless",0.8,0.5,0.4,0.646254505367476,"true"
"image-keyboard-response",576,483506,"0.0-3.188-1.188","417wd0axwg7sf08",151,"199.csv","","null","resources/maskTrios/L2BB.jpg","null","",NA,NA,NA,NA,""
"image-keyboard-response",577,484709,"0.0-3.188-2.188","417wd0axwg7sf08",151,"199.csv","","null","resources/images/coin2.png","null","",NA,NA,NA,NA,""
"image-keyboard-response",578,484887,"0.0-3.189-0.189","417wd0axwg7sf08",151,"199.csv","","173","resources/trios/L2T4A1.jpg","37","restless",0.8,0.5,0.4,0.776809181871709,"true"
"image-keyboard-response",579,485289,"0.0-3.189-1.189","417wd0axwg7sf08",151,"199.csv","","null","resources/maskTrios/L2BB.jpg","null","",NA,NA,NA,NA,""
"image-keyboard-response",580,486492,"0.0-3.189-2.189","417wd0axwg7sf08",151,"199.csv","","null","resources/images/coin2.png","null","",NA,NA,NA,NA,""
"image-keyboard-response",581,486652,"0.0-3.190-0.190","417wd0axwg7sf08",151,"199.csv","","156.9999999999418","resources/trios/L1T4A3.jpg","37","restless",0.8,0.5,0.4,0.314949390947238,"true"
"image-keyboard-response",582,487054,"0.0-3.190-1.190","417wd0axwg7sf08",151,"199.csv","","null","resources/maskTrios/L1BB.jpg","null","",NA,NA,NA,NA,""
"image-keyboard-response",583,488257,"0.0-3.190-2.190","417wd0axwg7sf08",151,"199.csv","","null","resources/images/coin2.png","null","",NA,NA,NA,NA,""
"image-keyboard-response",584,488346,"0.0-3.191-0.191","417wd0axwg7sf08",151,"199.csv","","87","resources/trios/L1T1A3.jpg","37","restless",0.8,0.5,0.4,0.764010385501063,"true"
"image-keyboard-response",585,488749,"0.0-3.191-1.191","417wd0axwg7sf08",151,"199.csv","","null","resources/maskTrios/L1BB.jpg","null","",NA,NA,NA,NA,""
"image-keyboard-response",586,489952,"0.0-3.191-2.191","417wd0axwg7sf08",151,"199.csv","","null","resources/images/coin2.png","null","",NA,NA,NA,NA,""
"image-keyboard-response",587,491406,"0.0-3.192-0.192","417wd0axwg7sf08",151,"199.csv","","1450.0000000000582","resources/trios/L1T4A1.jpg","37","restless",0.8,0.5,0.4,0.546774415577451,"true"
"image-keyboard-response",588,491808,"0.0-3.192-1.192","417wd0axwg7sf08",151,"199.csv","","null","resources/maskTrios/L1BB.jpg","null","",NA,NA,NA,NA,""
"image-keyboard-response",589,493011,"0.0-3.192-2.192","417wd0axwg7sf08",151,"199.csv","","null","resources/images/coin2.png","null","",NA,NA,NA,NA,""
"image-keyboard-response",590,493253,"0.0-3.193-0.193","417wd0axwg7sf08",151,"199.csv","","238.9999999999418","resources/trios/L1T4A1.jpg","37","restless",0.8,0.5,0.4,0.46784579042579,"true"
"image-keyboard-response",591,493656,"0.0-3.193-1.193","417wd0axwg7sf08",151,"199.csv","","null","resources/maskTrios/L1BB.jpg","null","",NA,NA,NA,NA,""
"image-keyboard-response",592,494859,"0.0-3.193-2.193","417wd0axwg7sf08",151,"199.csv","","null","resources/images/coin2.png","null","",NA,NA,NA,NA,""
"image-keyboard-response",593,496211,"0.0-3.194-0.194","417wd0axwg7sf08",151,"199.csv","","1347.0000000000582","resources/trios/L2T1A3.jpg","37","restless",0.8,0.5,0.4,0.20261356655891,"true"
"image-keyboard-response",594,496615,"0.0-3.194-1.194","417wd0axwg7sf08",151,"199.csv","","null","resources/maskTrios/L2BB.jpg","null","",NA,NA,NA,NA,""
"image-keyboard-response",595,497818,"0.0-3.194-2.194","417wd0axwg7sf08",151,"199.csv","","null","resources/images/coin2.png","null","",NA,NA,NA,NA,""
"image-keyboard-response",596,507411,"0.0-3.195-0.195","417wd0axwg7sf08",151,"199.csv","","9590","resources/trios/L2T4A1.jpg","37","restless",0.7,0.5,0.4,0.454283570145784,"true"
"image-keyboard-response",597,507815,"0.0-3.195-1.195","417wd0axwg7sf08",151,"199.csv","","null","resources/maskTrios/L2BB.jpg","null","",NA,NA,NA,NA,""
"image-keyboard-response",598,509017,"0.0-3.195-2.195","417wd0axwg7sf08",151,"199.csv","","null","resources/images/coin2.png","null","",NA,NA,NA,NA,""
"image-keyboard-response",599,509469,"0.0-3.196-0.196","417wd0axwg7sf08",151,"199.csv","","449.0000000000582","resources/trios/L1T4A1.jpg","37","restless",0.7,0.6,0.4,0.15156440799872,"true"
"image-keyboard-response",600,509872,"0.0-3.196-1.196","417wd0axwg7sf08",151,"199.csv","","null","resources/maskTrios/L1BB.jpg","null","",NA,NA,NA,NA,""
"image-keyboard-response",601,511075,"0.0-3.196-2.196","417wd0axwg7sf08",151,"199.csv","","null","resources/images/coin2.png","null","",NA,NA,NA,NA,""
"image-keyboard-response",602,511529,"0.0-3.197-0.197","417wd0axwg7sf08",151,"199.csv","","453","resources/trios/L1T1A3.jpg","37","restless",0.7,0.6,0.4,0.201706330500098,"true"
"image-keyboard-response",603,511933,"0.0-3.197-1.197","417wd0axwg7sf08",151,"199.csv","","null","resources/maskTrios/L1BB.jpg","null","",NA,NA,NA,NA,""
"image-keyboard-response",604,513136,"0.0-3.197-2.197","417wd0axwg7sf08",151,"199.csv","","null","resources/images/coin2.png","null","",NA,NA,NA,NA,""
"image-keyboard-response",605,513455,"0.0-3.198-0.198","417wd0axwg7sf08",151,"199.csv","","317","resources/trios/L2T4A1.jpg","37","restless",0.7,0.6,0.5,0.0136618907657806,"true"
"image-keyboard-response",606,513857,"0.0-3.198-1.198","417wd0axwg7sf08",151,"199.csv","","null","resources/maskTrios/L2BB.jpg","null","",NA,NA,NA,NA,""
"image-keyboard-response",607,515060,"0.0-3.198-2.198","417wd0axwg7sf08",151,"199.csv","","null","resources/images/coin2.png","null","",NA,NA,NA,NA,""
"image-keyboard-response",608,515489,"0.0-3.199-0.199","417wd0axwg7sf08",151,"199.csv","","427.0000000000582","resources/trios/L2T1A1.jpg","37","restless",0.7,0.6,0.5,0.921896877538162,"false"
"image-keyboard-response",609,515892,"0.0-3.199-1.199","417wd0axwg7sf08",151,"199.csv","","null","resources/maskTrios/L2BB.jpg","null","",NA,NA,NA,NA,""
"image-keyboard-response",610,517095,"0.0-3.199-2.199","417wd0axwg7sf08",151,"199.csv","","null","resources/images/fishbone.png","null","",NA,NA,NA,NA,""
"image-keyboard-response",611,517355,"0.0-3.200-0.200","417wd0axwg7sf08",151,"199.csv","","258","resources/trios/L1T1A3.jpg","37","restless",0.7,0.6,0.5,0.0474894475025239,"true"
"image-keyboard-response",612,517757,"0.0-3.200-1.200","417wd0axwg7sf08",151,"199.csv","","null","resources/maskTrios/L1BB.jpg","null","",NA,NA,NA,NA,""
"image-keyboard-response",613,518960,"0.0-3.200-2.200","417wd0axwg7sf08",151,"199.csv","","null","resources/images/coin2.png","null","",NA,NA,NA,NA,""
"image-keyboard-response",614,519283,"0.0-3.201-0.201","417wd0axwg7sf08",151,"199.csv","","320.0000000000582","resources/trios/L1T4A3.jpg","37","restless",0.7,0.6,0.5,0.466631579346495,"true"
"image-keyboard-response",615,519685,"0.0-3.201-1.201","417wd0axwg7sf08",151,"199.csv","","null","resources/maskTrios/L1BB.jpg","null","",NA,NA,NA,NA,""
"image-keyboard-response",616,520888,"0.0-3.201-2.201","417wd0axwg7sf08",151,"199.csv","","null","resources/images/coin2.png","null","",NA,NA,NA,NA,""
