"trial_type","trial_index","time_elapsed","internal_node_id","subject","participantCode","walkNumber","success","rt","stimulus","key_press","test_part","leftProb","midProb","rightProb","generatedNum","correct"
"pavlovia",0,892,"0.0-0.0","22eqxlfzzjr999d",674,"153.csv","","","","","",NA,NA,NA,NA,""
"fullscreen",1,5914,"0.0-1.0","22eqxlfzzjr999d",674,"153.csv","true","","","","",NA,NA,NA,NA,""
"html-keyboard-response",2,34224,"0.0-2.0-0.0","22eqxlfzzjr999d",674,"153.csv","","28309.299999952316","<p><font size='6'>Arrrgh!</p></font><p>Can you be the best pirate? Try to find lots of gold! But beware, some islands have more gold than others, and over time, the island with the most gold may change. Can YOU figure it out? </p><font size='6'>GOOD LUCK, CAPTAIN!!!</font><p>Press any key to begin</p>","83","",NA,NA,NA,NA,""
"image-keyboard-response",3,37226,"0.0-2.0-1.0","22eqxlfzzjr999d",674,"153.csv","","null","resources/image_sets/111.png","null","",NA,NA,NA,NA,""
"image-keyboard-response",4,69529,"0.0-2.0-2.0","22eqxlfzzjr999d",674,"153.csv","","32302.299999952316","resources/image_sets/left_highlight.png","37","",NA,NA,NA,NA,""
"image-keyboard-response",5,83506,"0.0-2.0-3.0","22eqxlfzzjr999d",674,"153.csv","","13976","resources/image_sets/mid_highlight.png","38","",NA,NA,NA,NA,""
"image-keyboard-response",6,91963,"0.0-2.0-4.0","22eqxlfzzjr999d",674,"153.csv","","8456.099999904633","resources/image_sets/right_highlight.png","39","",NA,NA,NA,NA,""
"image-keyboard-response",7,99592,"0.0-2.0-5.0","22eqxlfzzjr999d",674,"153.csv","","7628.400000095367","resources/image_sets/111.png","13","",NA,NA,NA,NA,""
"image-keyboard-response",8,103738,"0.0-2.0-6.0","22eqxlfzzjr999d",674,"153.csv","","4145.900000095367","resources/images/coin2.png","13","",NA,NA,NA,NA,""
"image-keyboard-response",9,106389,"0.0-2.0-7.0","22eqxlfzzjr999d",674,"153.csv","","2649.9000000953674","resources/images/fishbone.png","13","",NA,NA,NA,NA,""
"html-keyboard-response",10,122583,"0.0-2.0-8.0","22eqxlfzzjr999d",674,"153.csv","","16193.699999809265","<p>Your first journey will be a long one, but you will get a well deserved break at the end</p><p>After the break you will have four more journeys, but each will be much shorter than the first, and you will have breaks in between each</p><p>Press Enter to begin</p>","13","",NA,NA,NA,NA,""
"image-keyboard-response",11,125349,"0.0-3.0-0.0","22eqxlfzzjr999d",674,"153.csv","","2765","resources/trios/L4T4A1.jpg","39","restless",0.7,0.3,0.9,0.911327728527505,"false"
"image-keyboard-response",12,125752,"0.0-3.0-1.0","22eqxlfzzjr999d",674,"153.csv","","null","resources/maskTrios/BBA1.jpg","null","",NA,NA,NA,NA,""
"image-keyboard-response",13,126953,"0.0-3.0-2.0","22eqxlfzzjr999d",674,"153.csv","","null","resources/images/fishbone.png","null","",NA,NA,NA,NA,""
"image-keyboard-response",14,130604,"0.0-3.1-0.1","22eqxlfzzjr999d",674,"153.csv","","3649.7999999523163","resources/trios/L2T1A2.jpg","37","restless",0.6,0.3,0.9,0.0948406682087635,"true"
"image-keyboard-response",15,131005,"0.0-3.1-1.1","22eqxlfzzjr999d",674,"153.csv","","null","resources/maskTrios/L2BB.jpg","null","",NA,NA,NA,NA,""
"image-keyboard-response",16,132208,"0.0-3.1-2.1","22eqxlfzzjr999d",674,"153.csv","","null","resources/images/coin2.png","null","",NA,NA,NA,NA,""
"image-keyboard-response",17,134589,"0.0-3.2-0.2","22eqxlfzzjr999d",674,"153.csv","","2380.5999999046326","resources/trios/L4T1A1.jpg","38","restless",0.6,0.3,0.9,0.834703768967215,"false"
"image-keyboard-response",18,134993,"0.0-3.2-1.2","22eqxlfzzjr999d",674,"153.csv","","null","resources/maskTrios/BT1B.jpg","null","",NA,NA,NA,NA,""
"image-keyboard-response",19,136196,"0.0-3.2-2.2","22eqxlfzzjr999d",674,"153.csv","","null","resources/images/fishbone.png","null","",NA,NA,NA,NA,""
"image-keyboard-response",20,137063,"0.0-3.3-0.3","22eqxlfzzjr999d",674,"153.csv","","866.5","resources/trios/L2T1A1.jpg","37","restless",0.6,0.3,0.9,0.0531214659184283,"true"
"image-keyboard-response",21,137465,"0.0-3.3-1.3","22eqxlfzzjr999d",674,"153.csv","","null","resources/maskTrios/L2BB.jpg","null","",NA,NA,NA,NA,""
"image-keyboard-response",22,138668,"0.0-3.3-2.3","22eqxlfzzjr999d",674,"153.csv","","null","resources/images/coin2.png","null","",NA,NA,NA,NA,""
"image-keyboard-response",23,140535,"0.0-3.4-0.4","22eqxlfzzjr999d",674,"153.csv","","1866.2999999523163","resources/trios/L2T1A2.jpg","37","restless",0.6,0.4,0.9,0.760211598401618,"false"
"image-keyboard-response",24,140936,"0.0-3.4-1.4","22eqxlfzzjr999d",674,"153.csv","","null","resources/maskTrios/L2BB.jpg","null","",NA,NA,NA,NA,""
"image-keyboard-response",25,142139,"0.0-3.4-2.4","22eqxlfzzjr999d",674,"153.csv","","null","resources/images/fishbone.png","null","",NA,NA,NA,NA,""
"image-keyboard-response",26,145736,"0.0-3.5-0.5","22eqxlfzzjr999d",674,"153.csv","","3596.9000000953674","resources/trios/L4T4A1.jpg","38","restless",0.6,0.4,0.9,0.470505070896553,"false"
"image-keyboard-response",27,146140,"0.0-3.5-1.5","22eqxlfzzjr999d",674,"153.csv","","null","resources/maskTrios/BT4B.jpg","null","",NA,NA,NA,NA,""
"image-keyboard-response",28,147343,"0.0-3.5-2.5","22eqxlfzzjr999d",674,"153.csv","","null","resources/images/fishbone.png","null","",NA,NA,NA,NA,""
"image-keyboard-response",29,149105,"0.0-3.6-0.6","22eqxlfzzjr999d",674,"153.csv","","1761.9000000953674","resources/trios/L2T1A2.jpg","37","restless",0.6,0.4,0.9,0.471394993230548,"true"
"image-keyboard-response",30,149508,"0.0-3.6-1.6","22eqxlfzzjr999d",674,"153.csv","","null","resources/maskTrios/L2BB.jpg","null","",NA,NA,NA,NA,""
"image-keyboard-response",31,150711,"0.0-3.6-2.6","22eqxlfzzjr999d",674,"153.csv","","null","resources/images/coin2.png","null","",NA,NA,NA,NA,""
"image-keyboard-response",32,153195,"0.0-3.7-0.7","22eqxlfzzjr999d",674,"153.csv","","2483.7000000476837","resources/trios/L2T1A1.jpg","39","restless",0.6,0.4,0.9,0.109749737800241,"true"
"image-keyboard-response",33,153596,"0.0-3.7-1.7","22eqxlfzzjr999d",674,"153.csv","","null","resources/maskTrios/BBA1.jpg","null","",NA,NA,NA,NA,""
"image-keyboard-response",34,154798,"0.0-3.7-2.7","22eqxlfzzjr999d",674,"153.csv","","null","resources/images/coin2.png","null","",NA,NA,NA,NA,""
"image-keyboard-response",35,156730,"0.0-3.8-0.8","22eqxlfzzjr999d",674,"153.csv","","1931.0999999046326","resources/trios/L4T4A1.jpg","38","restless",0.7,0.4,0.9,0.972504949003667,"false"
"image-keyboard-response",36,157133,"0.0-3.8-1.8","22eqxlfzzjr999d",674,"153.csv","","null","resources/maskTrios/BT4B.jpg","null","",NA,NA,NA,NA,""
"image-keyboard-response",37,158336,"0.0-3.8-2.8","22eqxlfzzjr999d",674,"153.csv","","null","resources/images/fishbone.png","null","",NA,NA,NA,NA,""
"image-keyboard-response",38,159356,"0.0-3.9-0.9","22eqxlfzzjr999d",674,"153.csv","","1019.7999999523163","resources/trios/L4T4A2.jpg","37","restless",0.7,0.4,0.9,0.591632297841839,"true"
"image-keyboard-response",39,159759,"0.0-3.9-1.9","22eqxlfzzjr999d",674,"153.csv","","null","resources/maskTrios/L4BB.jpg","null","",NA,NA,NA,NA,""
"image-keyboard-response",40,160961,"0.0-3.9-2.9","22eqxlfzzjr999d",674,"153.csv","","null","resources/images/coin2.png","null","",NA,NA,NA,NA,""
"image-keyboard-response",41,163997,"0.0-3.10-0.10","22eqxlfzzjr999d",674,"153.csv","","3034.899999856949","resources/trios/L2T1A2.jpg","37","restless",0.7,0.4,0.9,0.846871674635037,"false"
"image-keyboard-response",42,164399,"0.0-3.10-1.10","22eqxlfzzjr999d",674,"153.csv","","null","resources/maskTrios/L2BB.jpg","null","",NA,NA,NA,NA,""
"image-keyboard-response",43,165602,"0.0-3.10-2.10","22eqxlfzzjr999d",674,"153.csv","","null","resources/images/fishbone.png","null","",NA,NA,NA,NA,""
"image-keyboard-response",44,166363,"0.0-3.11-0.11","22eqxlfzzjr999d",674,"153.csv","","760.2000000476837","resources/trios/L2T1A1.jpg","38","restless",0.7,0.4,0.9,0.923669189741388,"false"
"image-keyboard-response",45,166764,"0.0-3.11-1.11","22eqxlfzzjr999d",674,"153.csv","","null","resources/maskTrios/BT1B.jpg","null","",NA,NA,NA,NA,""
"image-keyboard-response",46,167967,"0.0-3.11-2.11","22eqxlfzzjr999d",674,"153.csv","","null","resources/images/fishbone.png","null","",NA,NA,NA,NA,""
"image-keyboard-response",47,170218,"0.0-3.12-0.12","22eqxlfzzjr999d",674,"153.csv","","2250.800000190735","resources/trios/L4T1A2.jpg","39","restless",0.7,0.4,0.9,0.691811926650433,"true"
"image-keyboard-response",48,170619,"0.0-3.12-1.12","22eqxlfzzjr999d",674,"153.csv","","null","resources/maskTrios/BBA2.jpg","null","",NA,NA,NA,NA,""
"image-keyboard-response",49,171822,"0.0-3.12-2.12","22eqxlfzzjr999d",674,"153.csv","","null","resources/images/coin2.png","null","",NA,NA,NA,NA,""
"image-keyboard-response",50,172412,"0.0-3.13-0.13","22eqxlfzzjr999d",674,"153.csv","","589.6000001430511","resources/trios/L4T1A1.jpg","37","restless",0.7,0.4,0.9,0.72393851084411,"false"
"image-keyboard-response",51,172813,"0.0-3.13-1.13","22eqxlfzzjr999d",674,"153.csv","","null","resources/maskTrios/L4BB.jpg","null","",NA,NA,NA,NA,""
"image-keyboard-response",52,174013,"0.0-3.13-2.13","22eqxlfzzjr999d",674,"153.csv","","null","resources/images/fishbone.png","null","",NA,NA,NA,NA,""
"image-keyboard-response",53,176123,"0.0-3.14-0.14","22eqxlfzzjr999d",674,"153.csv","","2109.199999809265","resources/trios/L2T1A1.jpg","37","restless",0.7,0.4,0.9,0.263132464009451,"true"
"image-keyboard-response",54,176526,"0.0-3.14-1.14","22eqxlfzzjr999d",674,"153.csv","","null","resources/maskTrios/L2BB.jpg","null","",NA,NA,NA,NA,""
"image-keyboard-response",55,177728,"0.0-3.14-2.14","22eqxlfzzjr999d",674,"153.csv","","null","resources/images/coin2.png","null","",NA,NA,NA,NA,""
"image-keyboard-response",56,179515,"0.0-3.15-0.15","22eqxlfzzjr999d",674,"153.csv","","1786.0999999046326","resources/trios/L4T1A2.jpg","38","restless",0.7,0.4,0.9,0.837055420885385,"false"
"image-keyboard-response",57,179917,"0.0-3.15-1.15","22eqxlfzzjr999d",674,"153.csv","","null","resources/maskTrios/BT1B.jpg","null","",NA,NA,NA,NA,""
"image-keyboard-response",58,181119,"0.0-3.15-2.15","22eqxlfzzjr999d",674,"153.csv","","null","resources/images/fishbone.png","null","",NA,NA,NA,NA,""
"image-keyboard-response",59,181881,"0.0-3.16-0.16","22eqxlfzzjr999d",674,"153.csv","","761.6999998092651","resources/trios/L4T4A1.jpg","37","restless",0.7,0.4,0.9,0.598979170846333,"true"
"image-keyboard-response",60,182282,"0.0-3.16-1.16","22eqxlfzzjr999d",674,"153.csv","","null","resources/maskTrios/L4BB.jpg","null","",NA,NA,NA,NA,""
"image-keyboard-response",61,183485,"0.0-3.16-2.16","22eqxlfzzjr999d",674,"153.csv","","null","resources/images/coin2.png","null","",NA,NA,NA,NA,""
"image-keyboard-response",62,186270,"0.0-3.17-0.17","22eqxlfzzjr999d",674,"153.csv","","2784.9000000953674","resources/trios/L2T4A1.jpg","38","restless",0.7,0.4,0.9,0.199970259398699,"true"
"image-keyboard-response",63,186672,"0.0-3.17-1.17","22eqxlfzzjr999d",674,"153.csv","","null","resources/maskTrios/BT4B.jpg","null","",NA,NA,NA,NA,""
"image-keyboard-response",64,187875,"0.0-3.17-2.17","22eqxlfzzjr999d",674,"153.csv","","null","resources/images/coin2.png","null","",NA,NA,NA,NA,""
"image-keyboard-response",65,190101,"0.0-3.18-0.18","22eqxlfzzjr999d",674,"153.csv","","2226.2000000476837","resources/trios/L2T4A2.jpg","39","restless",0.7,0.4,0.9,0.46532294347648,"true"
"image-keyboard-response",66,190504,"0.0-3.18-1.18","22eqxlfzzjr999d",674,"153.csv","","null","resources/maskTrios/BBA2.jpg","null","",NA,NA,NA,NA,""
"image-keyboard-response",67,191707,"0.0-3.18-2.18","22eqxlfzzjr999d",674,"153.csv","","null","resources/images/coin2.png","null","",NA,NA,NA,NA,""
"image-keyboard-response",68,196625,"0.0-3.19-0.19","22eqxlfzzjr999d",674,"153.csv","","4917.700000047684","resources/trios/L4T1A2.jpg","37","restless",0.7,0.4,0.9,0.496600311597559,"true"
"image-keyboard-response",69,197027,"0.0-3.19-1.19","22eqxlfzzjr999d",674,"153.csv","","null","resources/maskTrios/L4BB.jpg","null","",NA,NA,NA,NA,""
"image-keyboard-response",70,198229,"0.0-3.19-2.19","22eqxlfzzjr999d",674,"153.csv","","null","resources/images/coin2.png","null","",NA,NA,NA,NA,""
"image-keyboard-response",71,200012,"0.0-3.20-0.20","22eqxlfzzjr999d",674,"153.csv","","1782.4000000953674","resources/trios/L4T4A2.jpg","38","restless",0.7,0.5,0.9,0.153836099052191,"true"
"image-keyboard-response",72,200415,"0.0-3.20-1.20","22eqxlfzzjr999d",674,"153.csv","","null","resources/maskTrios/BT4B.jpg","null","",NA,NA,NA,NA,""
"image-keyboard-response",73,201618,"0.0-3.20-2.20","22eqxlfzzjr999d",674,"153.csv","","null","resources/images/coin2.png","null","",NA,NA,NA,NA,""
"image-keyboard-response",74,202396,"0.0-3.21-0.21","22eqxlfzzjr999d",674,"153.csv","","777.6000001430511","resources/trios/L4T4A1.jpg","39","restless",0.7,0.5,0.9,0.790141320151446,"true"
"image-keyboard-response",75,202797,"0.0-3.21-1.21","22eqxlfzzjr999d",674,"153.csv","","null","resources/maskTrios/BBA1.jpg","null","",NA,NA,NA,NA,""
"image-keyboard-response",76,203998,"0.0-3.21-2.21","22eqxlfzzjr999d",674,"153.csv","","null","resources/images/coin2.png","null","",NA,NA,NA,NA,""
"image-keyboard-response",77,207373,"0.0-3.22-0.22","22eqxlfzzjr999d",674,"153.csv","","3375","resources/trios/L2T1A2.jpg","37","restless",0.7,0.5,0.9,0.456561502742629,"true"
"image-keyboard-response",78,207777,"0.0-3.22-1.22","22eqxlfzzjr999d",674,"153.csv","","null","resources/maskTrios/L2BB.jpg","null","",NA,NA,NA,NA,""
"image-keyboard-response",79,208980,"0.0-3.22-2.22","22eqxlfzzjr999d",674,"153.csv","","null","resources/images/coin2.png","null","",NA,NA,NA,NA,""
"image-keyboard-response",80,216557,"0.0-3.23-0.23","22eqxlfzzjr999d",674,"153.csv","","7576.599999904633","resources/trios/L4T4A2.jpg","37","restless",0.8,0.5,0.9,0.285793089092932,"true"
"image-keyboard-response",81,216958,"0.0-3.23-1.23","22eqxlfzzjr999d",674,"153.csv","","null","resources/maskTrios/L4BB.jpg","null","",NA,NA,NA,NA,""
"image-keyboard-response",82,218162,"0.0-3.23-2.23","22eqxlfzzjr999d",674,"153.csv","","null","resources/images/coin2.png","null","",NA,NA,NA,NA,""
"image-keyboard-response",83,220931,"0.0-3.24-0.24","22eqxlfzzjr999d",674,"153.csv","","2769.199999809265","resources/trios/L2T1A2.jpg","38","restless",0.8,0.5,0.8,0.563092236106753,"false"
"image-keyboard-response",84,221333,"0.0-3.24-1.24","22eqxlfzzjr999d",674,"153.csv","","null","resources/maskTrios/BT1B.jpg","null","",NA,NA,NA,NA,""
"image-keyboard-response",85,222535,"0.0-3.24-2.24","22eqxlfzzjr999d",674,"153.csv","","null","resources/images/fishbone.png","null","",NA,NA,NA,NA,""
"image-keyboard-response",86,223273,"0.0-3.25-0.25","22eqxlfzzjr999d",674,"153.csv","","737.4000000953674","resources/trios/L2T1A2.jpg","37","restless",0.8,0.5,0.8,0.531750291617403,"true"
"image-keyboard-response",87,223674,"0.0-3.25-1.25","22eqxlfzzjr999d",674,"153.csv","","null","resources/maskTrios/L2BB.jpg","null","",NA,NA,NA,NA,""
"image-keyboard-response",88,224877,"0.0-3.25-2.25","22eqxlfzzjr999d",674,"153.csv","","null","resources/images/coin2.png","null","",NA,NA,NA,NA,""
"image-keyboard-response",89,225977,"0.0-3.26-0.26","22eqxlfzzjr999d",674,"153.csv","","1099.7999999523163","resources/trios/L2T1A1.jpg","38","restless",0.8,0.5,0.8,0.390071756529128,"true"
"image-keyboard-response",90,226379,"0.0-3.26-1.26","22eqxlfzzjr999d",674,"153.csv","","null","resources/maskTrios/BT1B.jpg","null","",NA,NA,NA,NA,""
"image-keyboard-response",91,227580,"0.0-3.26-2.26","22eqxlfzzjr999d",674,"153.csv","","null","resources/images/coin2.png","null","",NA,NA,NA,NA,""
"image-keyboard-response",92,228066,"0.0-3.27-0.27","22eqxlfzzjr999d",674,"153.csv","","484.59999990463257","resources/trios/L4T1A2.jpg","39","restless",0.8,0.5,0.8,0.181213262256506,"true"
"image-keyboard-response",93,228469,"0.0-3.27-1.27","22eqxlfzzjr999d",674,"153.csv","","null","resources/maskTrios/BBA2.jpg","null","",NA,NA,NA,NA,""
"image-keyboard-response",94,229671,"0.0-3.27-2.27","22eqxlfzzjr999d",674,"153.csv","","null","resources/images/coin2.png","null","",NA,NA,NA,NA,""
"image-keyboard-response",95,233083,"0.0-3.28-0.28","22eqxlfzzjr999d",674,"153.csv","","3411.5","resources/trios/L2T1A2.jpg","37","restless",0.8,0.5,0.8,0.465079142007425,"true"
"image-keyboard-response",96,233486,"0.0-3.28-1.28","22eqxlfzzjr999d",674,"153.csv","","null","resources/maskTrios/L2BB.jpg","null","",NA,NA,NA,NA,""
"image-keyboard-response",97,234688,"0.0-3.28-2.28","22eqxlfzzjr999d",674,"153.csv","","null","resources/images/coin2.png","null","",NA,NA,NA,NA,""
"image-keyboard-response",98,242480,"0.0-3.29-0.29","22eqxlfzzjr999d",674,"153.csv","","7792.299999952316","resources/trios/L4T1A2.jpg","37","restless",0.8,0.5,0.8,0.995437843078615,"false"
"image-keyboard-response",99,242883,"0.0-3.29-1.29","22eqxlfzzjr999d",674,"153.csv","","null","resources/maskTrios/L4BB.jpg","null","",NA,NA,NA,NA,""
"image-keyboard-response",100,244084,"0.0-3.29-2.29","22eqxlfzzjr999d",674,"153.csv","","null","resources/images/fishbone.png","null","",NA,NA,NA,NA,""
"image-keyboard-response",101,246483,"0.0-3.30-0.30","22eqxlfzzjr999d",674,"153.csv","","2398.5","resources/trios/L4T4A2.jpg","39","restless",0.8,0.5,0.8,0.310390794380464,"true"
"image-keyboard-response",102,246884,"0.0-3.30-1.30","22eqxlfzzjr999d",674,"153.csv","","null","resources/maskTrios/BBA2.jpg","null","",NA,NA,NA,NA,""
"image-keyboard-response",103,248087,"0.0-3.30-2.30","22eqxlfzzjr999d",674,"153.csv","","null","resources/images/coin2.png","null","",NA,NA,NA,NA,""
"image-keyboard-response",104,249274,"0.0-3.31-0.31","22eqxlfzzjr999d",674,"153.csv","","1186.5","resources/trios/L2T1A2.jpg","37","restless",0.8,0.4,0.8,0.684872054526541,"true"
"image-keyboard-response",105,249676,"0.0-3.31-1.31","22eqxlfzzjr999d",674,"153.csv","","null","resources/maskTrios/L2BB.jpg","null","",NA,NA,NA,NA,""
"image-keyboard-response",106,250878,"0.0-3.31-2.31","22eqxlfzzjr999d",674,"153.csv","","null","resources/images/coin2.png","null","",NA,NA,NA,NA,""
"image-keyboard-response",107,251972,"0.0-3.32-0.32","22eqxlfzzjr999d",674,"153.csv","","1093.1999998092651","resources/trios/L4T4A2.jpg","37","restless",0.8,0.4,0.8,0.360910762769052,"true"
"image-keyboard-response",108,252374,"0.0-3.32-1.32","22eqxlfzzjr999d",674,"153.csv","","null","resources/maskTrios/L4BB.jpg","null","",NA,NA,NA,NA,""
"image-keyboard-response",109,253577,"0.0-3.32-2.32","22eqxlfzzjr999d",674,"153.csv","","null","resources/images/coin2.png","null","",NA,NA,NA,NA,""
"image-keyboard-response",110,255324,"0.0-3.33-0.33","22eqxlfzzjr999d",674,"153.csv","","1747.1000001430511","resources/trios/L2T1A2.jpg","38","restless",0.8,0.4,0.8,0.490197416329881,"false"
"image-keyboard-response",111,255726,"0.0-3.33-1.33","22eqxlfzzjr999d",674,"153.csv","","null","resources/maskTrios/BT1B.jpg","null","",NA,NA,NA,NA,""
"image-keyboard-response",112,256928,"0.0-3.33-2.33","22eqxlfzzjr999d",674,"153.csv","","null","resources/images/fishbone.png","null","",NA,NA,NA,NA,""
"image-keyboard-response",113,258394,"0.0-3.34-0.34","22eqxlfzzjr999d",674,"153.csv","","1465.5999999046326","resources/trios/L4T4A2.jpg","39","restless",0.8,0.3,0.8,0.713071922078542,"true"
"image-keyboard-response",114,258797,"0.0-3.34-1.34","22eqxlfzzjr999d",674,"153.csv","","null","resources/maskTrios/BBA2.jpg","null","",NA,NA,NA,NA,""
"image-keyboard-response",115,260000,"0.0-3.34-2.34","22eqxlfzzjr999d",674,"153.csv","","null","resources/images/coin2.png","null","",NA,NA,NA,NA,""
"image-keyboard-response",116,260788,"0.0-3.35-0.35","22eqxlfzzjr999d",674,"153.csv","","787.5999999046326","resources/trios/L2T1A2.jpg","37","restless",0.8,0.3,0.8,0.0859106080972116,"true"
"image-keyboard-response",117,261189,"0.0-3.35-1.35","22eqxlfzzjr999d",674,"153.csv","","null","resources/maskTrios/L2BB.jpg","null","",NA,NA,NA,NA,""
"image-keyboard-response",118,262392,"0.0-3.35-2.35","22eqxlfzzjr999d",674,"153.csv","","null","resources/images/coin2.png","null","",NA,NA,NA,NA,""
"image-keyboard-response",119,263502,"0.0-3.36-0.36","22eqxlfzzjr999d",674,"153.csv","","1109.5999999046326","resources/trios/L2T4A2.jpg","38","restless",0.9,0.3,0.8,0.316528659933581,"false"
"image-keyboard-response",120,263904,"0.0-3.36-1.36","22eqxlfzzjr999d",674,"153.csv","","null","resources/maskTrios/BT4B.jpg","null","",NA,NA,NA,NA,""
"image-keyboard-response",121,265107,"0.0-3.36-2.36","22eqxlfzzjr999d",674,"153.csv","","null","resources/images/fishbone.png","null","",NA,NA,NA,NA,""
"image-keyboard-response",122,266117,"0.0-3.37-0.37","22eqxlfzzjr999d",674,"153.csv","","1009.7999999523163","resources/trios/L2T4A2.jpg","37","restless",0.9,0.3,0.8,2.1203971692918e-05,"true"
"image-keyboard-response",123,266519,"0.0-3.37-1.37","22eqxlfzzjr999d",674,"153.csv","","null","resources/maskTrios/L2BB.jpg","null","",NA,NA,NA,NA,""
"image-keyboard-response",124,267722,"0.0-3.37-2.37","22eqxlfzzjr999d",674,"153.csv","","null","resources/images/coin2.png","null","",NA,NA,NA,NA,""
"image-keyboard-response",125,270033,"0.0-3.38-0.38","22eqxlfzzjr999d",674,"153.csv","","2310.7999999523163","resources/trios/L2T1A2.jpg","39","restless",0.8,0.3,0.8,0.230621337494973,"true"
"image-keyboard-response",126,270434,"0.0-3.38-1.38","22eqxlfzzjr999d",674,"153.csv","","null","resources/maskTrios/BBA2.jpg","null","",NA,NA,NA,NA,""
"image-keyboard-response",127,271636,"0.0-3.38-2.38","22eqxlfzzjr999d",674,"153.csv","","null","resources/images/coin2.png","null","",NA,NA,NA,NA,""
"image-keyboard-response",128,272064,"0.0-3.39-0.39","22eqxlfzzjr999d",674,"153.csv","","427.10000014305115","resources/trios/L2T4A1.jpg","37","restless",0.7,0.3,0.8,0.342592337810804,"true"
"image-keyboard-response",129,272466,"0.0-3.39-1.39","22eqxlfzzjr999d",674,"153.csv","","null","resources/maskTrios/L2BB.jpg","null","",NA,NA,NA,NA,""
"image-keyboard-response",130,273668,"0.0-3.39-2.39","22eqxlfzzjr999d",674,"153.csv","","null","resources/images/coin2.png","null","",NA,NA,NA,NA,""
"image-keyboard-response",131,274267,"0.0-3.40-0.40","22eqxlfzzjr999d",674,"153.csv","","598","resources/trios/L2T1A2.jpg","39","restless",0.7,0.3,0.8,0.258026581980187,"true"
"image-keyboard-response",132,274668,"0.0-3.40-1.40","22eqxlfzzjr999d",674,"153.csv","","null","resources/maskTrios/BBA2.jpg","null","",NA,NA,NA,NA,""
"image-keyboard-response",133,275870,"0.0-3.40-2.40","22eqxlfzzjr999d",674,"153.csv","","null","resources/images/coin2.png","null","",NA,NA,NA,NA,""
"image-keyboard-response",134,276931,"0.0-3.41-0.41","22eqxlfzzjr999d",674,"153.csv","","1060","resources/trios/L4T4A2.jpg","37","restless",0.6,0.3,0.8,0.238221937153309,"true"
"image-keyboard-response",135,277333,"0.0-3.41-1.41","22eqxlfzzjr999d",674,"153.csv","","null","resources/maskTrios/L4BB.jpg","null","",NA,NA,NA,NA,""
"image-keyboard-response",136,278535,"0.0-3.41-2.41","22eqxlfzzjr999d",674,"153.csv","","null","resources/images/coin2.png","null","",NA,NA,NA,NA,""
"image-keyboard-response",137,279029,"0.0-3.42-0.42","22eqxlfzzjr999d",674,"153.csv","","493.2999999523163","resources/trios/L4T1A2.jpg","39","restless",0.6,0.3,0.8,0.0634991402538265,"true"
"image-keyboard-response",138,279432,"0.0-3.42-1.42","22eqxlfzzjr999d",674,"153.csv","","null","resources/maskTrios/BBA2.jpg","null","",NA,NA,NA,NA,""
"image-keyboard-response",139,280634,"0.0-3.42-2.42","22eqxlfzzjr999d",674,"153.csv","","null","resources/images/coin2.png","null","",NA,NA,NA,NA,""
"image-keyboard-response",140,281460,"0.0-3.43-0.43","22eqxlfzzjr999d",674,"153.csv","","825.4000000953674","resources/trios/L2T1A1.jpg","37","restless",0.6,0.3,0.7,0.710738936195073,"false"
"image-keyboard-response",141,281864,"0.0-3.43-1.43","22eqxlfzzjr999d",674,"153.csv","","null","resources/maskTrios/L2BB.jpg","null","",NA,NA,NA,NA,""
"image-keyboard-response",142,283066,"0.0-3.43-2.43","22eqxlfzzjr999d",674,"153.csv","","null","resources/images/fishbone.png","null","",NA,NA,NA,NA,""
"image-keyboard-response",143,287499,"0.0-3.44-0.44","22eqxlfzzjr999d",674,"153.csv","","4431.900000095367","resources/trios/L4T1A1.jpg","39","restless",0.6,0.3,0.7,0.271438303187577,"true"
"image-keyboard-response",144,287900,"0.0-3.44-1.44","22eqxlfzzjr999d",674,"153.csv","","null","resources/maskTrios/BBA1.jpg","null","",NA,NA,NA,NA,""
"image-keyboard-response",145,289103,"0.0-3.44-2.44","22eqxlfzzjr999d",674,"153.csv","","null","resources/images/coin2.png","null","",NA,NA,NA,NA,""
"image-keyboard-response",146,289820,"0.0-3.45-0.45","22eqxlfzzjr999d",674,"153.csv","","716.7999999523163","resources/trios/L2T4A2.jpg","37","restless",0.6,0.3,0.7,0.691207220404005,"false"
"image-keyboard-response",147,290222,"0.0-3.45-1.45","22eqxlfzzjr999d",674,"153.csv","","null","resources/maskTrios/L2BB.jpg","null","",NA,NA,NA,NA,""
"image-keyboard-response",148,291425,"0.0-3.45-2.45","22eqxlfzzjr999d",674,"153.csv","","null","resources/images/fishbone.png","null","",NA,NA,NA,NA,""
"image-keyboard-response",149,293022,"0.0-3.46-0.46","22eqxlfzzjr999d",674,"153.csv","","1597","resources/trios/L2T4A2.jpg","38","restless",0.6,0.3,0.7,0.088028218697749,"true"
"image-keyboard-response",150,293424,"0.0-3.46-1.46","22eqxlfzzjr999d",674,"153.csv","","null","resources/maskTrios/BT4B.jpg","null","",NA,NA,NA,NA,""
"image-keyboard-response",151,294626,"0.0-3.46-2.46","22eqxlfzzjr999d",674,"153.csv","","null","resources/images/coin2.png","null","",NA,NA,NA,NA,""
"image-keyboard-response",152,295244,"0.0-3.47-0.47","22eqxlfzzjr999d",674,"153.csv","","617","resources/trios/L4T4A1.jpg","39","restless",0.6,0.3,0.7,0.923678609748347,"false"
"image-keyboard-response",153,295645,"0.0-3.47-1.47","22eqxlfzzjr999d",674,"153.csv","","null","resources/maskTrios/BBA1.jpg","null","",NA,NA,NA,NA,""
"image-keyboard-response",154,296848,"0.0-3.47-2.47","22eqxlfzzjr999d",674,"153.csv","","null","resources/images/fishbone.png","null","",NA,NA,NA,NA,""
"image-keyboard-response",155,297584,"0.0-3.48-0.48","22eqxlfzzjr999d",674,"153.csv","","735","resources/trios/L4T4A2.jpg","37","restless",0.6,0.3,0.7,0.337564546928819,"true"
"image-keyboard-response",156,297985,"0.0-3.48-1.48","22eqxlfzzjr999d",674,"153.csv","","null","resources/maskTrios/L4BB.jpg","null","",NA,NA,NA,NA,""
"image-keyboard-response",157,299187,"0.0-3.48-2.48","22eqxlfzzjr999d",674,"153.csv","","null","resources/images/coin2.png","null","",NA,NA,NA,NA,""
"image-keyboard-response",158,301718,"0.0-3.49-0.49","22eqxlfzzjr999d",674,"153.csv","","2530.2999999523163","resources/trios/L4T4A1.jpg","38","restless",0.6,0.3,0.7,0.156708874032113,"true"
"image-keyboard-response",159,302119,"0.0-3.49-1.49","22eqxlfzzjr999d",674,"153.csv","","null","resources/maskTrios/BT4B.jpg","null","",NA,NA,NA,NA,""
"image-keyboard-response",160,303321,"0.0-3.49-2.49","22eqxlfzzjr999d",674,"153.csv","","null","resources/images/coin2.png","null","",NA,NA,NA,NA,""
"image-keyboard-response",161,303691,"0.0-3.50-0.50","22eqxlfzzjr999d",674,"153.csv","","369.2999999523163","resources/trios/L2T1A2.jpg","39","restless",0.6,0.3,0.7,0.505169436872876,"true"
"image-keyboard-response",162,304094,"0.0-3.50-1.50","22eqxlfzzjr999d",674,"153.csv","","null","resources/maskTrios/BBA2.jpg","null","",NA,NA,NA,NA,""
"image-keyboard-response",163,305297,"0.0-3.50-2.50","22eqxlfzzjr999d",674,"153.csv","","null","resources/images/coin2.png","null","",NA,NA,NA,NA,""
"image-keyboard-response",164,305634,"0.0-3.51-0.51","22eqxlfzzjr999d",674,"153.csv","","336.40000009536743","resources/trios/L2T1A1.jpg","37","restless",0.6,0.3,0.7,0.328929677694772,"true"
"image-keyboard-response",165,306036,"0.0-3.51-1.51","22eqxlfzzjr999d",674,"153.csv","","null","resources/maskTrios/L2BB.jpg","null","",NA,NA,NA,NA,""
"image-keyboard-response",166,307239,"0.0-3.51-2.51","22eqxlfzzjr999d",674,"153.csv","","null","resources/images/coin2.png","null","",NA,NA,NA,NA,""
"image-keyboard-response",167,308867,"0.0-3.52-0.52","22eqxlfzzjr999d",674,"153.csv","","1627.6000001430511","resources/trios/L4T4A1.jpg","37","restless",0.6,0.3,0.7,0.970488309437151,"false"
"image-keyboard-response",168,309268,"0.0-3.52-1.52","22eqxlfzzjr999d",674,"153.csv","","null","resources/maskTrios/L4BB.jpg","null","",NA,NA,NA,NA,""
"image-keyboard-response",169,310470,"0.0-3.52-2.52","22eqxlfzzjr999d",674,"153.csv","","null","resources/images/fishbone.png","null","",NA,NA,NA,NA,""
"image-keyboard-response",170,319491,"0.0-3.53-0.53","22eqxlfzzjr999d",674,"153.csv","","9020.100000143051","resources/trios/L2T1A1.jpg","37","restless",0.6,0.3,0.7,0.840552185437939,"false"
"image-keyboard-response",171,319894,"0.0-3.53-1.53","22eqxlfzzjr999d",674,"153.csv","","null","resources/maskTrios/L2BB.jpg","null","",NA,NA,NA,NA,""
"image-keyboard-response",172,321098,"0.0-3.53-2.53","22eqxlfzzjr999d",674,"153.csv","","null","resources/images/fishbone.png","null","",NA,NA,NA,NA,""
"image-keyboard-response",173,321309,"0.0-3.54-0.54","22eqxlfzzjr999d",674,"153.csv","","210.70000004768372","resources/trios/L2T1A1.jpg","39","restless",0.6,0.4,0.7,0.335762905547174,"true"
"image-keyboard-response",174,321710,"0.0-3.54-1.54","22eqxlfzzjr999d",674,"153.csv","","null","resources/maskTrios/BBA1.jpg","null","",NA,NA,NA,NA,""
"image-keyboard-response",175,322913,"0.0-3.54-2.54","22eqxlfzzjr999d",674,"153.csv","","null","resources/images/coin2.png","null","",NA,NA,NA,NA,""
"image-keyboard-response",176,323281,"0.0-3.55-0.55","22eqxlfzzjr999d",674,"153.csv","","367.2000000476837","resources/trios/L2T4A1.jpg","37","restless",0.6,0.4,0.7,0.635371959926645,"false"
"image-keyboard-response",177,323683,"0.0-3.55-1.55","22eqxlfzzjr999d",674,"153.csv","","null","resources/maskTrios/L2BB.jpg","null","",NA,NA,NA,NA,""
"image-keyboard-response",178,324885,"0.0-3.55-2.55","22eqxlfzzjr999d",674,"153.csv","","null","resources/images/fishbone.png","null","",NA,NA,NA,NA,""
"image-keyboard-response",179,325309,"0.0-3.56-0.56","22eqxlfzzjr999d",674,"153.csv","","423","resources/trios/L4T4A1.jpg","39","restless",0.6,0.4,0.7,0.543024661040458,"true"
"image-keyboard-response",180,325712,"0.0-3.56-1.56","22eqxlfzzjr999d",674,"153.csv","","null","resources/maskTrios/BBA1.jpg","null","",NA,NA,NA,NA,""
"image-keyboard-response",181,326914,"0.0-3.56-2.56","22eqxlfzzjr999d",674,"153.csv","","null","resources/images/coin2.png","null","",NA,NA,NA,NA,""
"image-keyboard-response",182,327183,"0.0-3.57-0.57","22eqxlfzzjr999d",674,"153.csv","","268.60000014305115","resources/trios/L2T4A1.jpg","39","restless",0.6,0.5,0.7,0.366937335337777,"true"
"image-keyboard-response",183,327584,"0.0-3.57-1.57","22eqxlfzzjr999d",674,"153.csv","","null","resources/maskTrios/BBA1.jpg","null","",NA,NA,NA,NA,""
"image-keyboard-response",184,328786,"0.0-3.57-2.57","22eqxlfzzjr999d",674,"153.csv","","null","resources/images/coin2.png","null","",NA,NA,NA,NA,""
"image-keyboard-response",185,329128,"0.0-3.58-0.58","22eqxlfzzjr999d",674,"153.csv","","341.2000000476837","resources/trios/L4T4A2.jpg","39","restless",0.6,0.5,0.7,0.325611841262692,"true"
"image-keyboard-response",186,329529,"0.0-3.58-1.58","22eqxlfzzjr999d",674,"153.csv","","null","resources/maskTrios/BBA2.jpg","null","",NA,NA,NA,NA,""
"image-keyboard-response",187,330732,"0.0-3.58-2.58","22eqxlfzzjr999d",674,"153.csv","","null","resources/images/coin2.png","null","",NA,NA,NA,NA,""
"image-keyboard-response",188,330957,"0.0-3.59-0.59","22eqxlfzzjr999d",674,"153.csv","","224.90000009536743","resources/trios/L4T1A2.jpg","39","restless",0.6,0.5,0.7,0.211628810229142,"true"
"image-keyboard-response",189,331358,"0.0-3.59-1.59","22eqxlfzzjr999d",674,"153.csv","","null","resources/maskTrios/BBA2.jpg","null","",NA,NA,NA,NA,""
"image-keyboard-response",190,332561,"0.0-3.59-2.59","22eqxlfzzjr999d",674,"153.csv","","null","resources/images/coin2.png","null","",NA,NA,NA,NA,""
"image-keyboard-response",191,333083,"0.0-3.60-0.60","22eqxlfzzjr999d",674,"153.csv","","521.3000001907349","resources/trios/L2T1A1.jpg","39","restless",0.6,0.5,0.6,0.193507180830274,"true"
"image-keyboard-response",192,333486,"0.0-3.60-1.60","22eqxlfzzjr999d",674,"153.csv","","null","resources/maskTrios/BBA1.jpg","null","",NA,NA,NA,NA,""
"image-keyboard-response",193,334689,"0.0-3.60-2.60","22eqxlfzzjr999d",674,"153.csv","","null","resources/images/coin2.png","null","",NA,NA,NA,NA,""
"image-keyboard-response",194,334949,"0.0-3.61-0.61","22eqxlfzzjr999d",674,"153.csv","","259.40000009536743","resources/trios/L4T1A2.jpg","39","restless",0.6,0.5,0.6,0.454527389232177,"true"
"image-keyboard-response",195,335353,"0.0-3.61-1.61","22eqxlfzzjr999d",674,"153.csv","","null","resources/maskTrios/BBA2.jpg","null","",NA,NA,NA,NA,""
"image-keyboard-response",196,336555,"0.0-3.61-2.61","22eqxlfzzjr999d",674,"153.csv","","null","resources/images/coin2.png","null","",NA,NA,NA,NA,""
"image-keyboard-response",197,336792,"0.0-3.62-0.62","22eqxlfzzjr999d",674,"153.csv","","236.40000009536743","resources/trios/L2T4A2.jpg","39","restless",0.5,0.5,0.6,0.790704984354833,"false"
"image-keyboard-response",198,337194,"0.0-3.62-1.62","22eqxlfzzjr999d",674,"153.csv","","null","resources/maskTrios/BBA2.jpg","null","",NA,NA,NA,NA,""
"image-keyboard-response",199,338397,"0.0-3.62-2.62","22eqxlfzzjr999d",674,"153.csv","","null","resources/images/fishbone.png","null","",NA,NA,NA,NA,""
"image-keyboard-response",200,338848,"0.0-3.63-0.63","22eqxlfzzjr999d",674,"153.csv","","449.5","resources/trios/L4T1A1.jpg","39","restless",0.5,0.5,0.6,0.704253558134143,"false"
"image-keyboard-response",201,339250,"0.0-3.63-1.63","22eqxlfzzjr999d",674,"153.csv","","null","resources/maskTrios/BBA1.jpg","null","",NA,NA,NA,NA,""
"image-keyboard-response",202,340452,"0.0-3.63-2.63","22eqxlfzzjr999d",674,"153.csv","","null","resources/images/fishbone.png","null","",NA,NA,NA,NA,""
"image-keyboard-response",203,340553,"0.0-3.64-0.64","22eqxlfzzjr999d",674,"153.csv","","100.70000004768372","resources/trios/L4T4A2.jpg","37","restless",0.5,0.5,0.6,0.871689848703175,"false"
"image-keyboard-response",204,340956,"0.0-3.64-1.64","22eqxlfzzjr999d",674,"153.csv","","null","resources/maskTrios/L4BB.jpg","null","",NA,NA,NA,NA,""
"image-keyboard-response",205,342158,"0.0-3.64-2.64","22eqxlfzzjr999d",674,"153.csv","","null","resources/images/fishbone.png","null","",NA,NA,NA,NA,""
"image-keyboard-response",206,342437,"0.0-3.65-0.65","22eqxlfzzjr999d",674,"153.csv","","278","resources/trios/L4T4A1.jpg","38","restless",0.5,0.5,0.5,0.678192658034795,"false"
"image-keyboard-response",207,342838,"0.0-3.65-1.65","22eqxlfzzjr999d",674,"153.csv","","null","resources/maskTrios/BT4B.jpg","null","",NA,NA,NA,NA,""
"image-keyboard-response",208,344040,"0.0-3.65-2.65","22eqxlfzzjr999d",674,"153.csv","","null","resources/images/fishbone.png","null","",NA,NA,NA,NA,""
"image-keyboard-response",209,344077,"0.0-3.66-0.66","22eqxlfzzjr999d",674,"153.csv","","35.799999952316284","resources/trios/L4T4A2.jpg","39","restless",0.5,0.5,0.5,0.450663550187242,"true"
"image-keyboard-response",210,344481,"0.0-3.66-1.66","22eqxlfzzjr999d",674,"153.csv","","null","resources/maskTrios/BBA2.jpg","null","",NA,NA,NA,NA,""
"image-keyboard-response",211,345683,"0.0-3.66-2.66","22eqxlfzzjr999d",674,"153.csv","","null","resources/images/coin2.png","null","",NA,NA,NA,NA,""
"image-keyboard-response",212,345915,"0.0-3.67-0.67","22eqxlfzzjr999d",674,"153.csv","","231.40000009536743","resources/trios/L2T1A1.jpg","39","restless",0.5,0.5,0.5,0.690831918620538,"false"
"image-keyboard-response",213,346316,"0.0-3.67-1.67","22eqxlfzzjr999d",674,"153.csv","","null","resources/maskTrios/BBA1.jpg","null","",NA,NA,NA,NA,""
"image-keyboard-response",214,347519,"0.0-3.67-2.67","22eqxlfzzjr999d",674,"153.csv","","null","resources/images/fishbone.png","null","",NA,NA,NA,NA,""
"image-keyboard-response",215,347748,"0.0-3.68-0.68","22eqxlfzzjr999d",674,"153.csv","","228.79999995231628","resources/trios/L2T1A1.jpg","37","restless",0.5,0.6,0.5,0.980653251853344,"false"
"image-keyboard-response",216,348150,"0.0-3.68-1.68","22eqxlfzzjr999d",674,"153.csv","","null","resources/maskTrios/L2BB.jpg","null","",NA,NA,NA,NA,""
"image-keyboard-response",217,349351,"0.0-3.68-2.68","22eqxlfzzjr999d",674,"153.csv","","null","resources/images/fishbone.png","null","",NA,NA,NA,NA,""
"image-keyboard-response",218,349863,"0.0-3.69-0.69","22eqxlfzzjr999d",674,"153.csv","","511.39999985694885","resources/trios/L4T1A2.jpg","37","restless",0.6,0.6,0.4,0.00284739865085615,"true"
"image-keyboard-response",219,350264,"0.0-3.69-1.69","22eqxlfzzjr999d",674,"153.csv","","null","resources/maskTrios/L4BB.jpg","null","",NA,NA,NA,NA,""
"image-keyboard-response",220,351466,"0.0-3.69-2.69","22eqxlfzzjr999d",674,"153.csv","","null","resources/images/coin2.png","null","",NA,NA,NA,NA,""
"image-keyboard-response",221,351724,"0.0-3.70-0.70","22eqxlfzzjr999d",674,"153.csv","","257.2000000476837","resources/trios/L4T1A1.jpg","39","restless",0.6,0.6,0.4,0.90175253572019,"false"
"image-keyboard-response",222,352126,"0.0-3.70-1.70","22eqxlfzzjr999d",674,"153.csv","","null","resources/maskTrios/BBA1.jpg","null","",NA,NA,NA,NA,""
"image-keyboard-response",223,353328,"0.0-3.70-2.70","22eqxlfzzjr999d",674,"153.csv","","null","resources/images/fishbone.png","null","",NA,NA,NA,NA,""
"image-keyboard-response",224,353389,"0.0-3.71-0.71","22eqxlfzzjr999d",674,"153.csv","","59.799999952316284","resources/trios/L4T1A1.jpg","37","restless",0.6,0.6,0.4,0.0809699951428078,"true"
"image-keyboard-response",225,353790,"0.0-3.71-1.71","22eqxlfzzjr999d",674,"153.csv","","null","resources/maskTrios/L4BB.jpg","null","",NA,NA,NA,NA,""
"image-keyboard-response",226,354991,"0.0-3.71-2.71","22eqxlfzzjr999d",674,"153.csv","","null","resources/images/coin2.png","null","",NA,NA,NA,NA,""
"image-keyboard-response",227,355330,"0.0-3.72-0.72","22eqxlfzzjr999d",674,"153.csv","","338.90000009536743","resources/trios/L4T1A1.jpg","39","restless",0.6,0.6,0.4,0.875636055347762,"false"
"image-keyboard-response",228,355734,"0.0-3.72-1.72","22eqxlfzzjr999d",674,"153.csv","","null","resources/maskTrios/BBA1.jpg","null","",NA,NA,NA,NA,""
"image-keyboard-response",229,356936,"0.0-3.72-2.72","22eqxlfzzjr999d",674,"153.csv","","null","resources/images/fishbone.png","null","",NA,NA,NA,NA,""
"image-keyboard-response",230,357109,"0.0-3.73-0.73","22eqxlfzzjr999d",674,"153.csv","","172.20000004768372","resources/trios/L4T1A1.jpg","37","restless",0.6,0.6,0.3,0.38358126989745,"true"
"image-keyboard-response",231,357513,"0.0-3.73-1.73","22eqxlfzzjr999d",674,"153.csv","","null","resources/maskTrios/L4BB.jpg","null","",NA,NA,NA,NA,""
"image-keyboard-response",232,358715,"0.0-3.73-2.73","22eqxlfzzjr999d",674,"153.csv","","null","resources/images/coin2.png","null","",NA,NA,NA,NA,""
"image-keyboard-response",233,358916,"0.0-3.74-0.74","22eqxlfzzjr999d",674,"153.csv","","199.79999995231628","resources/trios/L2T1A1.jpg","37","restless",0.5,0.6,0.3,0.393613090467185,"true"
"image-keyboard-response",234,359317,"0.0-3.74-1.74","22eqxlfzzjr999d",674,"153.csv","","null","resources/maskTrios/L2BB.jpg","null","",NA,NA,NA,NA,""
"image-keyboard-response",235,360518,"0.0-3.74-2.74","22eqxlfzzjr999d",674,"153.csv","","null","resources/images/coin2.png","null","",NA,NA,NA,NA,""
"image-keyboard-response",236,360695,"0.0-3.75-0.75","22eqxlfzzjr999d",674,"153.csv","","176.5","resources/trios/L4T4A2.jpg","37","restless",0.5,0.6,0.3,0.876970114407397,"false"
"image-keyboard-response",237,361096,"0.0-3.75-1.75","22eqxlfzzjr999d",674,"153.csv","","null","resources/maskTrios/L4BB.jpg","null","",NA,NA,NA,NA,""
"image-keyboard-response",238,362297,"0.0-3.75-2.75","22eqxlfzzjr999d",674,"153.csv","","null","resources/images/fishbone.png","null","",NA,NA,NA,NA,""
"image-keyboard-response",239,362491,"0.0-3.76-0.76","22eqxlfzzjr999d",674,"153.csv","","193.5","resources/trios/L2T1A1.jpg","39","restless",0.5,0.6,0.3,0.512738170894162,"false"
"image-keyboard-response",240,362893,"0.0-3.76-1.76","22eqxlfzzjr999d",674,"153.csv","","null","resources/maskTrios/BBA1.jpg","null","",NA,NA,NA,NA,""
"image-keyboard-response",241,364095,"0.0-3.76-2.76","22eqxlfzzjr999d",674,"153.csv","","null","resources/images/fishbone.png","null","",NA,NA,NA,NA,""
"image-keyboard-response",242,364400,"0.0-3.77-0.77","22eqxlfzzjr999d",674,"153.csv","","304.60000014305115","resources/trios/L4T4A1.jpg","39","restless",0.5,0.5,0.3,0.137345146361688,"true"
"image-keyboard-response",243,364802,"0.0-3.77-1.77","22eqxlfzzjr999d",674,"153.csv","","null","resources/maskTrios/BBA1.jpg","null","",NA,NA,NA,NA,""
"image-keyboard-response",244,366004,"0.0-3.77-2.77","22eqxlfzzjr999d",674,"153.csv","","null","resources/images/coin2.png","null","",NA,NA,NA,NA,""
"image-keyboard-response",245,366232,"0.0-3.78-0.78","22eqxlfzzjr999d",674,"153.csv","","227.29999995231628","resources/trios/L2T4A1.jpg","39","restless",0.5,0.5,0.3,0.100130863860897,"true"
"image-keyboard-response",246,366634,"0.0-3.78-1.78","22eqxlfzzjr999d",674,"153.csv","","null","resources/maskTrios/BBA1.jpg","null","",NA,NA,NA,NA,""
"image-keyboard-response",247,367837,"0.0-3.78-2.78","22eqxlfzzjr999d",674,"153.csv","","null","resources/images/coin2.png","null","",NA,NA,NA,NA,""
"image-keyboard-response",248,368058,"0.0-3.79-0.79","22eqxlfzzjr999d",674,"153.csv","","221.10000014305115","resources/trios/L4T4A2.jpg","39","restless",0.5,0.5,0.3,0.921787129534249,"false"
"image-keyboard-response",249,368460,"0.0-3.79-1.79","22eqxlfzzjr999d",674,"153.csv","","null","resources/maskTrios/BBA2.jpg","null","",NA,NA,NA,NA,""
"image-keyboard-response",250,369663,"0.0-3.79-2.79","22eqxlfzzjr999d",674,"153.csv","","null","resources/images/fishbone.png","null","",NA,NA,NA,NA,""
"image-keyboard-response",251,369865,"0.0-3.80-0.80","22eqxlfzzjr999d",674,"153.csv","","201.89999985694885","resources/trios/L2T4A2.jpg","37","restless",0.5,0.5,0.3,0.220706495583662,"true"
"image-keyboard-response",252,370268,"0.0-3.80-1.80","22eqxlfzzjr999d",674,"153.csv","","null","resources/maskTrios/L2BB.jpg","null","",NA,NA,NA,NA,""
"image-keyboard-response",253,371471,"0.0-3.80-2.80","22eqxlfzzjr999d",674,"153.csv","","null","resources/images/coin2.png","null","",NA,NA,NA,NA,""
"image-keyboard-response",254,371823,"0.0-3.81-0.81","22eqxlfzzjr999d",674,"153.csv","","351.5","resources/trios/L2T1A2.jpg","39","restless",0.5,0.5,0.3,0.459480473543795,"false"
"image-keyboard-response",255,372224,"0.0-3.81-1.81","22eqxlfzzjr999d",674,"153.csv","","null","resources/maskTrios/BBA2.jpg","null","",NA,NA,NA,NA,""
"image-keyboard-response",256,373425,"0.0-3.81-2.81","22eqxlfzzjr999d",674,"153.csv","","null","resources/images/fishbone.png","null","",NA,NA,NA,NA,""
"image-keyboard-response",257,373467,"0.0-3.82-0.82","22eqxlfzzjr999d",674,"153.csv","","41.39999985694885","resources/trios/L4T4A2.jpg","37","restless",0.5,0.6,0.3,0.828056778209342,"false"
"image-keyboard-response",258,373870,"0.0-3.82-1.82","22eqxlfzzjr999d",674,"153.csv","","null","resources/maskTrios/L4BB.jpg","null","",NA,NA,NA,NA,""
"image-keyboard-response",259,375072,"0.0-3.82-2.82","22eqxlfzzjr999d",674,"153.csv","","null","resources/images/fishbone.png","null","",NA,NA,NA,NA,""
"image-keyboard-response",260,375408,"0.0-3.83-0.83","22eqxlfzzjr999d",674,"153.csv","","335","resources/trios/L2T1A1.jpg","39","restless",0.5,0.5,0.4,0.512272085424161,"false"
"image-keyboard-response",261,375809,"0.0-3.83-1.83","22eqxlfzzjr999d",674,"153.csv","","null","resources/maskTrios/BBA1.jpg","null","",NA,NA,NA,NA,""
"image-keyboard-response",262,377012,"0.0-3.83-2.83","22eqxlfzzjr999d",674,"153.csv","","null","resources/images/fishbone.png","null","",NA,NA,NA,NA,""
"image-keyboard-response",263,377324,"0.0-3.84-0.84","22eqxlfzzjr999d",674,"153.csv","","311.89999985694885","resources/trios/L4T4A2.jpg","38","restless",0.5,0.5,0.4,0.260433428263658,"true"
"image-keyboard-response",264,377727,"0.0-3.84-1.84","22eqxlfzzjr999d",674,"153.csv","","null","resources/maskTrios/BT4B.jpg","null","",NA,NA,NA,NA,""
"image-keyboard-response",265,378930,"0.0-3.84-2.84","22eqxlfzzjr999d",674,"153.csv","","null","resources/images/coin2.png","null","",NA,NA,NA,NA,""
"image-keyboard-response",266,379276,"0.0-3.85-0.85","22eqxlfzzjr999d",674,"153.csv","","345.69999980926514","resources/trios/L4T4A1.jpg","38","restless",0.5,0.5,0.4,0.746025544466314,"false"
"image-keyboard-response",267,379680,"0.0-3.85-1.85","22eqxlfzzjr999d",674,"153.csv","","null","resources/maskTrios/BT4B.jpg","null","",NA,NA,NA,NA,""
"image-keyboard-response",268,380882,"0.0-3.85-2.85","22eqxlfzzjr999d",674,"153.csv","","null","resources/images/fishbone.png","null","",NA,NA,NA,NA,""
"image-keyboard-response",269,381110,"0.0-3.86-0.86","22eqxlfzzjr999d",674,"153.csv","","226.5","resources/trios/L4T4A2.jpg","39","restless",0.5,0.4,0.4,0.111497357616114,"true"
"image-keyboard-response",270,381512,"0.0-3.86-1.86","22eqxlfzzjr999d",674,"153.csv","","null","resources/maskTrios/BBA2.jpg","null","",NA,NA,NA,NA,""
"image-keyboard-response",271,382714,"0.0-3.86-2.86","22eqxlfzzjr999d",674,"153.csv","","null","resources/images/coin2.png","null","",NA,NA,NA,NA,""
"image-keyboard-response",272,382862,"0.0-3.87-0.87","22eqxlfzzjr999d",674,"153.csv","","147.79999995231628","resources/trios/L2T4A1.jpg","39","restless",0.5,0.3,0.4,0.963384663667385,"false"
"image-keyboard-response",273,383264,"0.0-3.87-1.87","22eqxlfzzjr999d",674,"153.csv","","null","resources/maskTrios/BBA1.jpg","null","",NA,NA,NA,NA,""
"image-keyboard-response",274,384467,"0.0-3.87-2.87","22eqxlfzzjr999d",674,"153.csv","","null","resources/images/fishbone.png","null","",NA,NA,NA,NA,""
"image-keyboard-response",275,384566,"0.0-3.88-0.88","22eqxlfzzjr999d",674,"153.csv","","98.60000014305115","resources/trios/L4T4A1.jpg","37","restless",0.5,0.3,0.4,0.864492417828965,"false"
"image-keyboard-response",276,384967,"0.0-3.88-1.88","22eqxlfzzjr999d",674,"153.csv","","null","resources/maskTrios/L4BB.jpg","null","",NA,NA,NA,NA,""
"image-keyboard-response",277,386169,"0.0-3.88-2.88","22eqxlfzzjr999d",674,"153.csv","","null","resources/images/fishbone.png","null","",NA,NA,NA,NA,""
"image-keyboard-response",278,386414,"0.0-3.89-0.89","22eqxlfzzjr999d",674,"153.csv","","244.40000009536743","resources/trios/L4T1A1.jpg","38","restless",0.5,0.3,0.4,0.525021818637962,"false"
"image-keyboard-response",279,386816,"0.0-3.89-1.89","22eqxlfzzjr999d",674,"153.csv","","null","resources/maskTrios/BT1B.jpg","null","",NA,NA,NA,NA,""
"image-keyboard-response",280,388018,"0.0-3.89-2.89","22eqxlfzzjr999d",674,"153.csv","","null","resources/images/fishbone.png","null","",NA,NA,NA,NA,""
"image-keyboard-response",281,388047,"0.0-3.90-0.90","22eqxlfzzjr999d",674,"153.csv","","28.399999856948853","resources/trios/L4T1A1.jpg","39","restless",0.5,0.3,0.4,0.378984991740769,"true"
"image-keyboard-response",282,388448,"0.0-3.90-1.90","22eqxlfzzjr999d",674,"153.csv","","null","resources/maskTrios/BBA1.jpg","null","",NA,NA,NA,NA,""
"image-keyboard-response",283,389650,"0.0-3.90-2.90","22eqxlfzzjr999d",674,"153.csv","","null","resources/images/coin2.png","null","",NA,NA,NA,NA,""
"image-keyboard-response",284,389758,"0.0-3.91-0.91","22eqxlfzzjr999d",674,"153.csv","","106.59999990463257","resources/trios/L4T1A1.jpg","39","restless",0.5,0.3,0.4,0.268259567059643,"true"
"image-keyboard-response",285,390160,"0.0-3.91-1.91","22eqxlfzzjr999d",674,"153.csv","","null","resources/maskTrios/BBA1.jpg","null","",NA,NA,NA,NA,""
"image-keyboard-response",286,391363,"0.0-3.91-2.91","22eqxlfzzjr999d",674,"153.csv","","null","resources/images/coin2.png","null","",NA,NA,NA,NA,""
"image-keyboard-response",287,391529,"0.0-3.92-0.92","22eqxlfzzjr999d",674,"153.csv","","165.80000019073486","resources/trios/L2T1A2.jpg","39","restless",0.5,0.3,0.4,0.994401268439354,"false"
"image-keyboard-response",288,391932,"0.0-3.92-1.92","22eqxlfzzjr999d",674,"153.csv","","null","resources/maskTrios/BBA2.jpg","null","",NA,NA,NA,NA,""
"image-keyboard-response",289,393136,"0.0-3.92-2.92","22eqxlfzzjr999d",674,"153.csv","","null","resources/images/fishbone.png","null","",NA,NA,NA,NA,""
"image-keyboard-response",290,393346,"0.0-3.93-0.93","22eqxlfzzjr999d",674,"153.csv","","209.90000009536743","resources/trios/L2T4A1.jpg","37","restless",0.5,0.2,0.4,0.576963037263636,"false"
"image-keyboard-response",291,393748,"0.0-3.93-1.93","22eqxlfzzjr999d",674,"153.csv","","null","resources/maskTrios/L2BB.jpg","null","",NA,NA,NA,NA,""
"image-keyboard-response",292,394951,"0.0-3.93-2.93","22eqxlfzzjr999d",674,"153.csv","","null","resources/images/fishbone.png","null","",NA,NA,NA,NA,""
"image-keyboard-response",293,395013,"0.0-3.94-0.94","22eqxlfzzjr999d",674,"153.csv","","61.89999985694885","resources/trios/L4T4A1.jpg","39","restless",0.5,0.2,0.4,0.713366641434307,"false"
"image-keyboard-response",294,395414,"0.0-3.94-1.94","22eqxlfzzjr999d",674,"153.csv","","null","resources/maskTrios/BBA1.jpg","null","",NA,NA,NA,NA,""
"image-keyboard-response",295,396616,"0.0-3.94-2.94","22eqxlfzzjr999d",674,"153.csv","","null","resources/images/fishbone.png","null","",NA,NA,NA,NA,""
"image-keyboard-response",296,396737,"0.0-3.95-0.95","22eqxlfzzjr999d",674,"153.csv","","120.40000009536743","resources/trios/L2T4A2.jpg","38","restless",0.5,0.2,0.4,0.166857733489483,"true"
"image-keyboard-response",297,397139,"0.0-3.95-1.95","22eqxlfzzjr999d",674,"153.csv","","null","resources/maskTrios/BT4B.jpg","null","",NA,NA,NA,NA,""
"image-keyboard-response",298,398342,"0.0-3.95-2.95","22eqxlfzzjr999d",674,"153.csv","","null","resources/images/coin2.png","null","",NA,NA,NA,NA,""
"image-keyboard-response",299,398784,"0.0-3.96-0.96","22eqxlfzzjr999d",674,"153.csv","","441","resources/trios/L4T1A1.jpg","39","restless",0.5,0.2,0.4,0.113598029696277,"true"
"image-keyboard-response",300,399185,"0.0-3.96-1.96","22eqxlfzzjr999d",674,"153.csv","","null","resources/maskTrios/BBA1.jpg","null","",NA,NA,NA,NA,""
"image-keyboard-response",301,400388,"0.0-3.96-2.96","22eqxlfzzjr999d",674,"153.csv","","null","resources/images/coin2.png","null","",NA,NA,NA,NA,""
"image-keyboard-response",302,400870,"0.0-3.97-0.97","22eqxlfzzjr999d",674,"153.csv","","481.90000009536743","resources/trios/L4T1A1.jpg","39","restless",0.5,0.2,0.4,0.979059409443741,"false"
"image-keyboard-response",303,401271,"0.0-3.97-1.97","22eqxlfzzjr999d",674,"153.csv","","null","resources/maskTrios/BBA1.jpg","null","",NA,NA,NA,NA,""
"image-keyboard-response",304,402473,"0.0-3.97-2.97","22eqxlfzzjr999d",674,"153.csv","","null","resources/images/fishbone.png","null","",NA,NA,NA,NA,""
"image-keyboard-response",305,402667,"0.0-3.98-0.98","22eqxlfzzjr999d",674,"153.csv","","193.20000004768372","resources/trios/L2T1A2.jpg","37","restless",0.5,0.2,0.4,0.998622031497506,"false"
"image-keyboard-response",306,403069,"0.0-3.98-1.98","22eqxlfzzjr999d",674,"153.csv","","null","resources/maskTrios/L2BB.jpg","null","",NA,NA,NA,NA,""
"image-keyboard-response",307,404272,"0.0-3.98-2.98","22eqxlfzzjr999d",674,"153.csv","","null","resources/images/fishbone.png","null","",NA,NA,NA,NA,""
"image-keyboard-response",308,404339,"0.0-3.99-0.99","22eqxlfzzjr999d",674,"153.csv","","65.70000004768372","resources/trios/L4T1A1.jpg","39","restless",0.5,0.2,0.4,0.456171744826589,"false"
"image-keyboard-response",309,404742,"0.0-3.99-1.99","22eqxlfzzjr999d",674,"153.csv","","null","resources/maskTrios/BBA1.jpg","null","",NA,NA,NA,NA,""
"image-keyboard-response",310,405943,"0.0-3.99-2.99","22eqxlfzzjr999d",674,"153.csv","","null","resources/images/fishbone.png","null","",NA,NA,NA,NA,""
"image-keyboard-response",311,406528,"0.0-3.100-0.100","22eqxlfzzjr999d",674,"153.csv","","584.2000000476837","resources/trios/L4T1A2.jpg","39","restless",0.4,0.2,0.4,0.883523328373684,"false"
"image-keyboard-response",312,406931,"0.0-3.100-1.100","22eqxlfzzjr999d",674,"153.csv","","null","resources/maskTrios/BBA2.jpg","null","",NA,NA,NA,NA,""
"image-keyboard-response",313,408133,"0.0-3.100-2.100","22eqxlfzzjr999d",674,"153.csv","","null","resources/images/fishbone.png","null","",NA,NA,NA,NA,""
"image-keyboard-response",314,408170,"0.0-3.101-0.101","22eqxlfzzjr999d",674,"153.csv","","36.200000047683716","resources/trios/L4T1A1.jpg","37","restless",0.4,0.2,0.4,0.524688492435586,"false"
"image-keyboard-response",315,408573,"0.0-3.101-1.101","22eqxlfzzjr999d",674,"153.csv","","null","resources/maskTrios/L4BB.jpg","null","",NA,NA,NA,NA,""
"image-keyboard-response",316,409775,"0.0-3.101-2.101","22eqxlfzzjr999d",674,"153.csv","","null","resources/images/fishbone.png","null","",NA,NA,NA,NA,""
"image-keyboard-response",317,409992,"0.0-3.102-0.102","22eqxlfzzjr999d",674,"153.csv","","216.40000009536743","resources/trios/L2T4A1.jpg","38","restless",0.5,0.2,0.4,0.634791327725075,"false"
"image-keyboard-response",318,410395,"0.0-3.102-1.102","22eqxlfzzjr999d",674,"153.csv","","null","resources/maskTrios/BT4B.jpg","null","",NA,NA,NA,NA,""
"image-keyboard-response",319,411598,"0.0-3.102-2.102","22eqxlfzzjr999d",674,"153.csv","","null","resources/images/fishbone.png","null","",NA,NA,NA,NA,""
"image-keyboard-response",320,411669,"0.0-3.103-0.103","22eqxlfzzjr999d",674,"153.csv","","71.09999990463257","resources/trios/L2T4A2.jpg","39","restless",0.5,0.2,0.4,0.0705900483558821,"true"
"image-keyboard-response",321,412071,"0.0-3.103-1.103","22eqxlfzzjr999d",674,"153.csv","","null","resources/maskTrios/BBA2.jpg","null","",NA,NA,NA,NA,""
"image-keyboard-response",322,413273,"0.0-3.103-2.103","22eqxlfzzjr999d",674,"153.csv","","null","resources/images/coin2.png","null","",NA,NA,NA,NA,""
"image-keyboard-response",323,413528,"0.0-3.104-0.104","22eqxlfzzjr999d",674,"153.csv","","254.59999990463257","resources/trios/L4T4A1.jpg","39","restless",0.5,0.2,0.4,0.712498609185566,"false"
"image-keyboard-response",324,413930,"0.0-3.104-1.104","22eqxlfzzjr999d",674,"153.csv","","null","resources/maskTrios/BBA1.jpg","null","",NA,NA,NA,NA,""
"image-keyboard-response",325,415133,"0.0-3.104-2.104","22eqxlfzzjr999d",674,"153.csv","","null","resources/images/fishbone.png","null","",NA,NA,NA,NA,""
"image-keyboard-response",326,415283,"0.0-3.105-0.105","22eqxlfzzjr999d",674,"153.csv","","150.10000014305115","resources/trios/L2T1A1.jpg","37","restless",0.5,0.2,0.4,0.530952910234531,"false"
"image-keyboard-response",327,415686,"0.0-3.105-1.105","22eqxlfzzjr999d",674,"153.csv","","null","resources/maskTrios/L2BB.jpg","null","",NA,NA,NA,NA,""
"image-keyboard-response",328,416888,"0.0-3.105-2.105","22eqxlfzzjr999d",674,"153.csv","","null","resources/images/fishbone.png","null","",NA,NA,NA,NA,""
"image-keyboard-response",329,417066,"0.0-3.106-0.106","22eqxlfzzjr999d",674,"153.csv","","177.60000014305115","resources/trios/L2T1A1.jpg","38","restless",0.5,0.2,0.4,0.0877746813809011,"true"
"image-keyboard-response",330,417467,"0.0-3.106-1.106","22eqxlfzzjr999d",674,"153.csv","","null","resources/maskTrios/BT1B.jpg","null","",NA,NA,NA,NA,""
"image-keyboard-response",331,418670,"0.0-3.106-2.106","22eqxlfzzjr999d",674,"153.csv","","null","resources/images/coin2.png","null","",NA,NA,NA,NA,""
"image-keyboard-response",332,418913,"0.0-3.107-0.107","22eqxlfzzjr999d",674,"153.csv","","242.29999995231628","resources/trios/L2T4A2.jpg","39","restless",0.5,0.2,0.4,0.960821316718744,"false"
"image-keyboard-response",333,419316,"0.0-3.107-1.107","22eqxlfzzjr999d",674,"153.csv","","null","resources/maskTrios/BBA2.jpg","null","",NA,NA,NA,NA,""
"image-keyboard-response",334,420519,"0.0-3.107-2.107","22eqxlfzzjr999d",674,"153.csv","","null","resources/images/fishbone.png","null","",NA,NA,NA,NA,""
"image-keyboard-response",335,420549,"0.0-3.108-0.108","22eqxlfzzjr999d",674,"153.csv","","29.59999990463257","resources/trios/L4T1A2.jpg","38","restless",0.5,0.2,0.5,0.212695430129114,"false"
"image-keyboard-response",336,420952,"0.0-3.108-1.108","22eqxlfzzjr999d",674,"153.csv","","null","resources/maskTrios/BT1B.jpg","null","",NA,NA,NA,NA,""
"image-keyboard-response",337,422154,"0.0-3.108-2.108","22eqxlfzzjr999d",674,"153.csv","","null","resources/images/fishbone.png","null","",NA,NA,NA,NA,""
"image-keyboard-response",338,422168,"0.0-3.109-0.109","22eqxlfzzjr999d",674,"153.csv","","13.100000143051147","resources/trios/L4T4A2.jpg","37","restless",0.5,0.2,0.6,0.187745226256782,"true"
"image-keyboard-response",339,422571,"0.0-3.109-1.109","22eqxlfzzjr999d",674,"153.csv","","null","resources/maskTrios/L4BB.jpg","null","",NA,NA,NA,NA,""
"image-keyboard-response",340,423774,"0.0-3.109-2.109","22eqxlfzzjr999d",674,"153.csv","","null","resources/images/coin2.png","null","",NA,NA,NA,NA,""
"image-keyboard-response",341,423864,"0.0-3.110-0.110","22eqxlfzzjr999d",674,"153.csv","","90","resources/trios/L2T1A1.jpg","39","restless",0.5,0.3,0.6,0.455420689223254,"true"
"image-keyboard-response",342,424266,"0.0-3.110-1.110","22eqxlfzzjr999d",674,"153.csv","","null","resources/maskTrios/BBA1.jpg","null","",NA,NA,NA,NA,""
"image-keyboard-response",343,425469,"0.0-3.110-2.110","22eqxlfzzjr999d",674,"153.csv","","null","resources/images/coin2.png","null","",NA,NA,NA,NA,""
"image-keyboard-response",344,425787,"0.0-3.111-0.111","22eqxlfzzjr999d",674,"153.csv","","317","resources/trios/L2T4A1.jpg","38","restless",0.5,0.3,0.6,0.687021426058658,"false"
"image-keyboard-response",345,426189,"0.0-3.111-1.111","22eqxlfzzjr999d",674,"153.csv","","null","resources/maskTrios/BT4B.jpg","null","",NA,NA,NA,NA,""
"image-keyboard-response",346,427391,"0.0-3.111-2.111","22eqxlfzzjr999d",674,"153.csv","","null","resources/images/fishbone.png","null","",NA,NA,NA,NA,""
"image-keyboard-response",347,427628,"0.0-3.112-0.112","22eqxlfzzjr999d",674,"153.csv","","236.40000009536743","resources/trios/L4T1A2.jpg","37","restless",0.5,0.4,0.6,0.96238851768657,"false"
"image-keyboard-response",348,428031,"0.0-3.112-1.112","22eqxlfzzjr999d",674,"153.csv","","null","resources/maskTrios/L4BB.jpg","null","",NA,NA,NA,NA,""
"image-keyboard-response",349,429233,"0.0-3.112-2.112","22eqxlfzzjr999d",674,"153.csv","","null","resources/images/fishbone.png","null","",NA,NA,NA,NA,""
"image-keyboard-response",350,429254,"0.0-3.113-0.113","22eqxlfzzjr999d",674,"153.csv","","19.899999856948853","resources/trios/L2T1A1.jpg","39","restless",0.5,0.4,0.6,0.17618396506609,"true"
"image-keyboard-response",351,429657,"0.0-3.113-1.113","22eqxlfzzjr999d",674,"153.csv","","null","resources/maskTrios/BBA1.jpg","null","",NA,NA,NA,NA,""
"image-keyboard-response",352,430859,"0.0-3.113-2.113","22eqxlfzzjr999d",674,"153.csv","","null","resources/images/coin2.png","null","",NA,NA,NA,NA,""
"image-keyboard-response",353,430944,"0.0-3.114-0.114","22eqxlfzzjr999d",674,"153.csv","","83.70000004768372","resources/trios/L4T1A2.jpg","39","restless",0.5,0.4,0.6,0.534707541207228,"true"
"image-keyboard-response",354,431346,"0.0-3.114-1.114","22eqxlfzzjr999d",674,"153.csv","","null","resources/maskTrios/BBA2.jpg","null","",NA,NA,NA,NA,""
"image-keyboard-response",355,432546,"0.0-3.114-2.114","22eqxlfzzjr999d",674,"153.csv","","null","resources/images/coin2.png","null","",NA,NA,NA,NA,""
"image-keyboard-response",356,432641,"0.0-3.115-0.115","22eqxlfzzjr999d",674,"153.csv","","94.10000014305115","resources/trios/L2T1A2.jpg","39","restless",0.5,0.4,0.6,0.181636144767079,"true"
"image-keyboard-response",357,433042,"0.0-3.115-1.115","22eqxlfzzjr999d",674,"153.csv","","null","resources/maskTrios/BBA2.jpg","null","",NA,NA,NA,NA,""
"image-keyboard-response",358,434244,"0.0-3.115-2.115","22eqxlfzzjr999d",674,"153.csv","","null","resources/images/coin2.png","null","",NA,NA,NA,NA,""
"image-keyboard-response",359,434461,"0.0-3.116-0.116","22eqxlfzzjr999d",674,"153.csv","","216.69999980926514","resources/trios/L4T1A1.jpg","39","restless",0.5,0.4,0.6,0.580290256211,"true"
"image-keyboard-response",360,434863,"0.0-3.116-1.116","22eqxlfzzjr999d",674,"153.csv","","null","resources/maskTrios/BBA1.jpg","null","",NA,NA,NA,NA,""
"image-keyboard-response",361,436066,"0.0-3.116-2.116","22eqxlfzzjr999d",674,"153.csv","","null","resources/images/coin2.png","null","",NA,NA,NA,NA,""
"image-keyboard-response",362,436103,"0.0-3.117-0.117","22eqxlfzzjr999d",674,"153.csv","","35.90000009536743","resources/trios/L4T1A1.jpg","39","restless",0.5,0.4,0.6,0.312181317131345,"true"
"image-keyboard-response",363,436506,"0.0-3.117-1.117","22eqxlfzzjr999d",674,"153.csv","","null","resources/maskTrios/BBA1.jpg","null","",NA,NA,NA,NA,""
"image-keyboard-response",364,437708,"0.0-3.117-2.117","22eqxlfzzjr999d",674,"153.csv","","null","resources/images/coin2.png","null","",NA,NA,NA,NA,""
"image-keyboard-response",365,438178,"0.0-3.118-0.118","22eqxlfzzjr999d",674,"153.csv","","468.7000000476837","resources/trios/L2T4A1.jpg","39","restless",0.5,0.4,0.5,0.520741638639513,"false"
"image-keyboard-response",366,438578,"0.0-3.118-1.118","22eqxlfzzjr999d",674,"153.csv","","null","resources/maskTrios/BBA1.jpg","null","",NA,NA,NA,NA,""
"image-keyboard-response",367,439781,"0.0-3.118-2.118","22eqxlfzzjr999d",674,"153.csv","","null","resources/images/fishbone.png","null","",NA,NA,NA,NA,""
"image-keyboard-response",368,439958,"0.0-3.119-0.119","22eqxlfzzjr999d",674,"153.csv","","176.40000009536743","resources/trios/L4T1A1.jpg","37","restless",0.5,0.4,0.5,0.601617154869334,"false"
"image-keyboard-response",369,440360,"0.0-3.119-1.119","22eqxlfzzjr999d",674,"153.csv","","null","resources/maskTrios/L4BB.jpg","null","",NA,NA,NA,NA,""
"image-keyboard-response",370,441563,"0.0-3.119-2.119","22eqxlfzzjr999d",674,"153.csv","","null","resources/images/fishbone.png","null","",NA,NA,NA,NA,""
"image-keyboard-response",371,441815,"0.0-3.120-0.120","22eqxlfzzjr999d",674,"153.csv","","251","resources/trios/L4T1A2.jpg","38","restless",0.5,0.4,0.5,0.619086903234977,"false"
"image-keyboard-response",372,442216,"0.0-3.120-1.120","22eqxlfzzjr999d",674,"153.csv","","null","resources/maskTrios/BT1B.jpg","null","",NA,NA,NA,NA,""
"image-keyboard-response",373,443417,"0.0-3.120-2.120","22eqxlfzzjr999d",674,"153.csv","","null","resources/images/fishbone.png","null","",NA,NA,NA,NA,""
"image-keyboard-response",374,443814,"0.0-3.121-0.121","22eqxlfzzjr999d",674,"153.csv","","396.59999990463257","resources/trios/L4T1A1.jpg","39","restless",0.5,0.3,0.5,0.314027504702133,"true"
"image-keyboard-response",375,444215,"0.0-3.121-1.121","22eqxlfzzjr999d",674,"153.csv","","null","resources/maskTrios/BBA1.jpg","null","",NA,NA,NA,NA,""
"image-keyboard-response",376,445417,"0.0-3.121-2.121","22eqxlfzzjr999d",674,"153.csv","","null","resources/images/coin2.png","null","",NA,NA,NA,NA,""
"image-keyboard-response",377,445427,"0.0-3.122-0.122","22eqxlfzzjr999d",674,"153.csv","","8.899999856948853","resources/trios/L4T4A1.jpg","39","restless",0.5,0.3,0.5,0.678784700883916,"false"
"image-keyboard-response",378,445827,"0.0-3.122-1.122","22eqxlfzzjr999d",674,"153.csv","","null","resources/maskTrios/BBA1.jpg","null","",NA,NA,NA,NA,""
"image-keyboard-response",379,447030,"0.0-3.122-2.122","22eqxlfzzjr999d",674,"153.csv","","null","resources/images/fishbone.png","null","",NA,NA,NA,NA,""
"image-keyboard-response",380,447071,"0.0-3.123-0.123","22eqxlfzzjr999d",674,"153.csv","","40.200000047683716","resources/trios/L2T1A2.jpg","39","restless",0.5,0.3,0.5,0.538645610214773,"false"
"image-keyboard-response",381,447473,"0.0-3.123-1.123","22eqxlfzzjr999d",674,"153.csv","","null","resources/maskTrios/BBA2.jpg","null","",NA,NA,NA,NA,""
"image-keyboard-response",382,448675,"0.0-3.123-2.123","22eqxlfzzjr999d",674,"153.csv","","null","resources/images/fishbone.png","null","",NA,NA,NA,NA,""
"image-keyboard-response",383,448724,"0.0-3.124-0.124","22eqxlfzzjr999d",674,"153.csv","","47.5","resources/trios/L2T1A2.jpg","39","restless",0.5,0.3,0.5,0.305315621535113,"true"
"image-keyboard-response",384,449125,"0.0-3.124-1.124","22eqxlfzzjr999d",674,"153.csv","","null","resources/maskTrios/BBA2.jpg","null","",NA,NA,NA,NA,""
"image-keyboard-response",385,450328,"0.0-3.124-2.124","22eqxlfzzjr999d",674,"153.csv","","null","resources/images/coin2.png","null","",NA,NA,NA,NA,""
"image-keyboard-response",386,450495,"0.0-3.125-0.125","22eqxlfzzjr999d",674,"153.csv","","166.5","resources/trios/L4T1A2.jpg","39","restless",0.5,0.3,0.5,0.147071626123115,"true"
"image-keyboard-response",387,450897,"0.0-3.125-1.125","22eqxlfzzjr999d",674,"153.csv","","null","resources/maskTrios/BBA2.jpg","null","",NA,NA,NA,NA,""
"image-keyboard-response",388,452100,"0.0-3.125-2.125","22eqxlfzzjr999d",674,"153.csv","","null","resources/images/coin2.png","null","",NA,NA,NA,NA,""
"image-keyboard-response",389,452254,"0.0-3.126-0.126","22eqxlfzzjr999d",674,"153.csv","","152.79999995231628","resources/trios/L2T4A1.jpg","39","restless",0.5,0.3,0.5,0.550947666379296,"false"
"image-keyboard-response",390,452656,"0.0-3.126-1.126","22eqxlfzzjr999d",674,"153.csv","","null","resources/maskTrios/BBA1.jpg","null","",NA,NA,NA,NA,""
"image-keyboard-response",391,453859,"0.0-3.126-2.126","22eqxlfzzjr999d",674,"153.csv","","null","resources/images/fishbone.png","null","",NA,NA,NA,NA,""
"image-keyboard-response",392,454256,"0.0-3.127-0.127","22eqxlfzzjr999d",674,"153.csv","","396.40000009536743","resources/trios/L2T1A1.jpg","39","restless",0.5,0.3,0.5,0.812235441730889,"false"
"image-keyboard-response",393,454658,"0.0-3.127-1.127","22eqxlfzzjr999d",674,"153.csv","","null","resources/maskTrios/BBA1.jpg","null","",NA,NA,NA,NA,""
"image-keyboard-response",394,455861,"0.0-3.127-2.127","22eqxlfzzjr999d",674,"153.csv","","null","resources/images/fishbone.png","null","",NA,NA,NA,NA,""
"image-keyboard-response",395,455905,"0.0-3.128-0.128","22eqxlfzzjr999d",674,"153.csv","","43.69999980926514","resources/trios/L4T1A1.jpg","39","restless",0.5,0.3,0.5,0.942078150283994,"false"
"image-keyboard-response",396,456307,"0.0-3.128-1.128","22eqxlfzzjr999d",674,"153.csv","","null","resources/maskTrios/BBA1.jpg","null","",NA,NA,NA,NA,""
"image-keyboard-response",397,457511,"0.0-3.128-2.128","22eqxlfzzjr999d",674,"153.csv","","null","resources/images/fishbone.png","null","",NA,NA,NA,NA,""
"image-keyboard-response",398,457561,"0.0-3.129-0.129","22eqxlfzzjr999d",674,"153.csv","","50.09999990463257","resources/trios/L4T4A2.jpg","39","restless",0.5,0.4,0.5,0.376695945817044,"true"
"image-keyboard-response",399,457964,"0.0-3.129-1.129","22eqxlfzzjr999d",674,"153.csv","","null","resources/maskTrios/BBA2.jpg","null","",NA,NA,NA,NA,""
"image-keyboard-response",400,459166,"0.0-3.129-2.129","22eqxlfzzjr999d",674,"153.csv","","null","resources/images/coin2.png","null","",NA,NA,NA,NA,""
"image-keyboard-response",401,459215,"0.0-3.130-0.130","22eqxlfzzjr999d",674,"153.csv","","48.89999985694885","resources/trios/L2T4A1.jpg","39","restless",0.5,0.4,0.5,0.598491350305952,"false"
"image-keyboard-response",402,459619,"0.0-3.130-1.130","22eqxlfzzjr999d",674,"153.csv","","null","resources/maskTrios/BBA1.jpg","null","",NA,NA,NA,NA,""
"image-keyboard-response",403,460822,"0.0-3.130-2.130","22eqxlfzzjr999d",674,"153.csv","","null","resources/images/fishbone.png","null","",NA,NA,NA,NA,""
"image-keyboard-response",404,460824,"0.0-3.131-0.131","22eqxlfzzjr999d",674,"153.csv","","1.2000000476837158","resources/trios/L2T1A1.jpg","39","restless",0.5,0.4,0.5,0.143137141990793,"true"
"image-keyboard-response",405,461225,"0.0-3.131-1.131","22eqxlfzzjr999d",674,"153.csv","","null","resources/maskTrios/BBA1.jpg","null","",NA,NA,NA,NA,""
"image-keyboard-response",406,462427,"0.0-3.131-2.131","22eqxlfzzjr999d",674,"153.csv","","null","resources/images/coin2.png","null","",NA,NA,NA,NA,""
"image-keyboard-response",407,462476,"0.0-3.132-0.132","22eqxlfzzjr999d",674,"153.csv","","48.5","resources/trios/L4T4A1.jpg","39","restless",0.5,0.5,0.4,0.311240478950208,"true"
"image-keyboard-response",408,462877,"0.0-3.132-1.132","22eqxlfzzjr999d",674,"153.csv","","null","resources/maskTrios/BBA1.jpg","null","",NA,NA,NA,NA,""
"image-keyboard-response",409,464080,"0.0-3.132-2.132","22eqxlfzzjr999d",674,"153.csv","","null","resources/images/coin2.png","null","",NA,NA,NA,NA,""
"image-keyboard-response",410,464130,"0.0-3.133-0.133","22eqxlfzzjr999d",674,"153.csv","","50","resources/trios/L4T1A1.jpg","39","restless",0.5,0.5,0.4,0.567654218216197,"false"
"image-keyboard-response",411,464533,"0.0-3.133-1.133","22eqxlfzzjr999d",674,"153.csv","","null","resources/maskTrios/BBA1.jpg","null","",NA,NA,NA,NA,""
"image-keyboard-response",412,465735,"0.0-3.133-2.133","22eqxlfzzjr999d",674,"153.csv","","null","resources/images/fishbone.png","null","",NA,NA,NA,NA,""
"image-keyboard-response",413,465757,"0.0-3.134-0.134","22eqxlfzzjr999d",674,"153.csv","","20.799999952316284","resources/trios/L2T4A1.jpg","39","restless",0.5,0.6,0.4,0.76118313841225,"false"
"image-keyboard-response",414,466158,"0.0-3.134-1.134","22eqxlfzzjr999d",674,"153.csv","","null","resources/maskTrios/BBA1.jpg","null","",NA,NA,NA,NA,""
"image-keyboard-response",415,467359,"0.0-3.134-2.134","22eqxlfzzjr999d",674,"153.csv","","null","resources/images/fishbone.png","null","",NA,NA,NA,NA,""
"image-keyboard-response",416,467427,"0.0-3.135-0.135","22eqxlfzzjr999d",674,"153.csv","","67.20000004768372","resources/trios/L2T4A2.jpg","39","restless",0.5,0.6,0.4,0.260534775855548,"true"
"image-keyboard-response",417,467828,"0.0-3.135-1.135","22eqxlfzzjr999d",674,"153.csv","","null","resources/maskTrios/BBA2.jpg","null","",NA,NA,NA,NA,""
"image-keyboard-response",418,469029,"0.0-3.135-2.135","22eqxlfzzjr999d",674,"153.csv","","null","resources/images/coin2.png","null","",NA,NA,NA,NA,""
"image-keyboard-response",419,469176,"0.0-3.136-0.136","22eqxlfzzjr999d",674,"153.csv","","146.10000014305115","resources/trios/L4T4A2.jpg","39","restless",0.5,0.6,0.4,0.550083130891992,"false"
"image-keyboard-response",420,469576,"0.0-3.136-1.136","22eqxlfzzjr999d",674,"153.csv","","null","resources/maskTrios/BBA2.jpg","null","",NA,NA,NA,NA,""
"image-keyboard-response",421,470779,"0.0-3.136-2.136","22eqxlfzzjr999d",674,"153.csv","","null","resources/images/fishbone.png","null","",NA,NA,NA,NA,""
"image-keyboard-response",422,470877,"0.0-3.137-0.137","22eqxlfzzjr999d",674,"153.csv","","97.39999985694885","resources/trios/L4T4A2.jpg","39","restless",0.5,0.6,0.4,0.0531144848596949,"true"
"image-keyboard-response",423,471279,"0.0-3.137-1.137","22eqxlfzzjr999d",674,"153.csv","","null","resources/maskTrios/BBA2.jpg","null","",NA,NA,NA,NA,""
"image-keyboard-response",424,472479,"0.0-3.137-2.137","22eqxlfzzjr999d",674,"153.csv","","null","resources/images/coin2.png","null","",NA,NA,NA,NA,""
"image-keyboard-response",425,472516,"0.0-3.138-0.138","22eqxlfzzjr999d",674,"153.csv","","35.90000009536743","resources/trios/L2T1A2.jpg","39","restless",0.5,0.6,0.3,0.869385252596211,"false"
"image-keyboard-response",426,472918,"0.0-3.138-1.138","22eqxlfzzjr999d",674,"153.csv","","null","resources/maskTrios/BBA2.jpg","null","",NA,NA,NA,NA,""
"image-keyboard-response",427,474119,"0.0-3.138-2.138","22eqxlfzzjr999d",674,"153.csv","","null","resources/images/fishbone.png","null","",NA,NA,NA,NA,""
"image-keyboard-response",428,474211,"0.0-3.139-0.139","22eqxlfzzjr999d",674,"153.csv","","91.30000019073486","resources/trios/L2T4A2.jpg","39","restless",0.5,0.6,0.3,0.0107817974969893,"true"
"image-keyboard-response",429,474612,"0.0-3.139-1.139","22eqxlfzzjr999d",674,"153.csv","","null","resources/maskTrios/BBA2.jpg","null","",NA,NA,NA,NA,""
"image-keyboard-response",430,475813,"0.0-3.139-2.139","22eqxlfzzjr999d",674,"153.csv","","null","resources/images/coin2.png","null","",NA,NA,NA,NA,""
"image-keyboard-response",431,475907,"0.0-3.140-0.140","22eqxlfzzjr999d",674,"153.csv","","92.70000004768372","resources/trios/L4T1A1.jpg","39","restless",0.5,0.6,0.3,0.284724980276116,"true"
"image-keyboard-response",432,476308,"0.0-3.140-1.140","22eqxlfzzjr999d",674,"153.csv","","null","resources/maskTrios/BBA1.jpg","null","",NA,NA,NA,NA,""
"image-keyboard-response",433,477510,"0.0-3.140-2.140","22eqxlfzzjr999d",674,"153.csv","","null","resources/images/coin2.png","null","",NA,NA,NA,NA,""
"image-keyboard-response",434,477646,"0.0-3.141-0.141","22eqxlfzzjr999d",674,"153.csv","","136.19999980926514","resources/trios/L2T1A1.jpg","39","restless",0.5,0.6,0.3,0.465041144911942,"false"
"image-keyboard-response",435,478048,"0.0-3.141-1.141","22eqxlfzzjr999d",674,"153.csv","","null","resources/maskTrios/BBA1.jpg","null","",NA,NA,NA,NA,""
"image-keyboard-response",436,479250,"0.0-3.141-2.141","22eqxlfzzjr999d",674,"153.csv","","null","resources/images/fishbone.png","null","",NA,NA,NA,NA,""
"image-keyboard-response",437,479470,"0.0-3.142-0.142","22eqxlfzzjr999d",674,"153.csv","","219.40000009536743","resources/trios/L4T1A2.jpg","37","restless",0.6,0.6,0.3,0.103893777807808,"true"
"image-keyboard-response",438,479871,"0.0-3.142-1.142","22eqxlfzzjr999d",674,"153.csv","","null","resources/maskTrios/L4BB.jpg","null","",NA,NA,NA,NA,""
"image-keyboard-response",439,481072,"0.0-3.142-2.142","22eqxlfzzjr999d",674,"153.csv","","null","resources/images/coin2.png","null","",NA,NA,NA,NA,""
"image-keyboard-response",440,481601,"0.0-3.143-0.143","22eqxlfzzjr999d",674,"153.csv","","528.1000001430511","resources/trios/L4T1A2.jpg","37","restless",0.6,0.6,0.3,0.840401239210973,"false"
"image-keyboard-response",441,482002,"0.0-3.143-1.143","22eqxlfzzjr999d",674,"153.csv","","null","resources/maskTrios/L4BB.jpg","null","",NA,NA,NA,NA,""
"image-keyboard-response",442,483203,"0.0-3.143-2.143","22eqxlfzzjr999d",674,"153.csv","","null","resources/images/fishbone.png","null","",NA,NA,NA,NA,""
"image-keyboard-response",443,483556,"0.0-3.144-0.144","22eqxlfzzjr999d",674,"153.csv","","353.09999990463257","resources/trios/L2T4A2.jpg","39","restless",0.7,0.7,0.3,0.218381691026859,"true"
"image-keyboard-response",444,483959,"0.0-3.144-1.144","22eqxlfzzjr999d",674,"153.csv","","null","resources/maskTrios/BBA2.jpg","null","",NA,NA,NA,NA,""
"image-keyboard-response",445,485160,"0.0-3.144-2.144","22eqxlfzzjr999d",674,"153.csv","","null","resources/images/coin2.png","null","",NA,NA,NA,NA,""
"image-keyboard-response",446,485375,"0.0-3.145-0.145","22eqxlfzzjr999d",674,"153.csv","","214.20000004768372","resources/trios/L2T4A2.jpg","38","restless",0.7,0.7,0.3,0.913309737555534,"false"
"image-keyboard-response",447,485776,"0.0-3.145-1.145","22eqxlfzzjr999d",674,"153.csv","","null","resources/maskTrios/BT4B.jpg","null","",NA,NA,NA,NA,""
"image-keyboard-response",448,486977,"0.0-3.145-2.145","22eqxlfzzjr999d",674,"153.csv","","null","resources/images/fishbone.png","null","",NA,NA,NA,NA,""
"image-keyboard-response",449,487285,"0.0-3.146-0.146","22eqxlfzzjr999d",674,"153.csv","","307.80000019073486","resources/trios/L2T4A2.jpg","37","restless",0.7,0.8,0.3,0.0486528130203363,"true"
"image-keyboard-response",450,487686,"0.0-3.146-1.146","22eqxlfzzjr999d",674,"153.csv","","null","resources/maskTrios/L2BB.jpg","null","",NA,NA,NA,NA,""
"image-keyboard-response",451,488888,"0.0-3.146-2.146","22eqxlfzzjr999d",674,"153.csv","","null","resources/images/coin2.png","null","",NA,NA,NA,NA,""
"image-keyboard-response",452,489138,"0.0-3.147-0.147","22eqxlfzzjr999d",674,"153.csv","","250","resources/trios/L2T1A2.jpg","38","restless",0.7,0.8,0.3,0.639424016267135,"true"
"image-keyboard-response",453,489541,"0.0-3.147-1.147","22eqxlfzzjr999d",674,"153.csv","","null","resources/maskTrios/BT1B.jpg","null","",NA,NA,NA,NA,""
"image-keyboard-response",454,490742,"0.0-3.147-2.147","22eqxlfzzjr999d",674,"153.csv","","null","resources/images/coin2.png","null","",NA,NA,NA,NA,""
"image-keyboard-response",455,490877,"0.0-3.148-0.148","22eqxlfzzjr999d",674,"153.csv","","134.90000009536743","resources/trios/L2T1A1.jpg","39","restless",0.7,0.8,0.3,0.865594829907559,"false"
"image-keyboard-response",456,491280,"0.0-3.148-1.148","22eqxlfzzjr999d",674,"153.csv","","null","resources/maskTrios/BBA1.jpg","null","",NA,NA,NA,NA,""
"image-keyboard-response",457,492481,"0.0-3.148-2.148","22eqxlfzzjr999d",674,"153.csv","","null","resources/images/fishbone.png","null","",NA,NA,NA,NA,""
"image-keyboard-response",458,492602,"0.0-3.149-0.149","22eqxlfzzjr999d",674,"153.csv","","120.90000009536743","resources/trios/L2T4A2.jpg","37","restless",0.7,0.8,0.3,0.516105396963638,"true"
"image-keyboard-response",459,493003,"0.0-3.149-1.149","22eqxlfzzjr999d",674,"153.csv","","null","resources/maskTrios/L2BB.jpg","null","",NA,NA,NA,NA,""
"image-keyboard-response",460,494205,"0.0-3.149-2.149","22eqxlfzzjr999d",674,"153.csv","","null","resources/images/coin2.png","null","",NA,NA,NA,NA,""
"image-keyboard-response",461,494354,"0.0-3.150-0.150","22eqxlfzzjr999d",674,"153.csv","","148.20000004768372","resources/trios/L4T1A2.jpg","38","restless",0.7,0.8,0.4,0.106379362761615,"true"
"image-keyboard-response",462,494755,"0.0-3.150-1.150","22eqxlfzzjr999d",674,"153.csv","","null","resources/maskTrios/BT1B.jpg","null","",NA,NA,NA,NA,""
"image-keyboard-response",463,495957,"0.0-3.150-2.150","22eqxlfzzjr999d",674,"153.csv","","null","resources/images/coin2.png","null","",NA,NA,NA,NA,""
"image-keyboard-response",464,496062,"0.0-3.151-0.151","22eqxlfzzjr999d",674,"153.csv","","103.90000009536743","resources/trios/L4T1A1.jpg","39","restless",0.7,0.8,0.4,0.64639042265456,"false"
"image-keyboard-response",465,496463,"0.0-3.151-1.151","22eqxlfzzjr999d",674,"153.csv","","null","resources/maskTrios/BBA1.jpg","null","",NA,NA,NA,NA,""
"image-keyboard-response",466,497664,"0.0-3.151-2.151","22eqxlfzzjr999d",674,"153.csv","","null","resources/images/fishbone.png","null","",NA,NA,NA,NA,""
"image-keyboard-response",467,497880,"0.0-3.152-0.152","22eqxlfzzjr999d",674,"153.csv","","215.20000004768372","resources/trios/L2T4A1.jpg","37","restless",0.7,0.8,0.4,0.272797744142312,"true"
"image-keyboard-response",468,498281,"0.0-3.152-1.152","22eqxlfzzjr999d",674,"153.csv","","null","resources/maskTrios/L2BB.jpg","null","",NA,NA,NA,NA,""
"image-keyboard-response",469,499482,"0.0-3.152-2.152","22eqxlfzzjr999d",674,"153.csv","","null","resources/images/coin2.png","null","",NA,NA,NA,NA,""
"image-keyboard-response",470,499537,"0.0-3.153-0.153","22eqxlfzzjr999d",674,"153.csv","","54.799999952316284","resources/trios/L4T4A1.jpg","38","restless",0.7,0.8,0.4,0.682183117285685,"true"
"image-keyboard-response",471,499939,"0.0-3.153-1.153","22eqxlfzzjr999d",674,"153.csv","","null","resources/maskTrios/BT4B.jpg","null","",NA,NA,NA,NA,""
"image-keyboard-response",472,501139,"0.0-3.153-2.153","22eqxlfzzjr999d",674,"153.csv","","null","resources/images/coin2.png","null","",NA,NA,NA,NA,""
"image-keyboard-response",473,501526,"0.0-3.154-0.154","22eqxlfzzjr999d",674,"153.csv","","386.09999990463257","resources/trios/L2T1A1.jpg","39","restless",0.7,0.8,0.4,0.597381090320732,"false"
"image-keyboard-response",474,501927,"0.0-3.154-1.154","22eqxlfzzjr999d",674,"153.csv","","null","resources/maskTrios/BBA1.jpg","null","",NA,NA,NA,NA,""
"image-keyboard-response",475,503128,"0.0-3.154-2.154","22eqxlfzzjr999d",674,"153.csv","","null","resources/images/fishbone.png","null","",NA,NA,NA,NA,""
"image-keyboard-response",476,503325,"0.0-3.155-0.155","22eqxlfzzjr999d",674,"153.csv","","195.60000014305115","resources/trios/L4T4A1.jpg","37","restless",0.7,0.9,0.3,0.00817688191933597,"true"
"image-keyboard-response",477,503726,"0.0-3.155-1.155","22eqxlfzzjr999d",674,"153.csv","","null","resources/maskTrios/L4BB.jpg","null","",NA,NA,NA,NA,""
"image-keyboard-response",478,504927,"0.0-3.155-2.155","22eqxlfzzjr999d",674,"153.csv","","null","resources/images/coin2.png","null","",NA,NA,NA,NA,""
"image-keyboard-response",479,505006,"0.0-3.156-0.156","22eqxlfzzjr999d",674,"153.csv","","78.39999985694885","resources/trios/L2T4A1.jpg","38","restless",0.7,0.8,0.3,0.851855803035065,"false"
"image-keyboard-response",480,505406,"0.0-3.156-1.156","22eqxlfzzjr999d",674,"153.csv","","null","resources/maskTrios/BT4B.jpg","null","",NA,NA,NA,NA,""
"image-keyboard-response",481,506608,"0.0-3.156-2.156","22eqxlfzzjr999d",674,"153.csv","","null","resources/images/fishbone.png","null","",NA,NA,NA,NA,""
"image-keyboard-response",482,506679,"0.0-3.157-0.157","22eqxlfzzjr999d",674,"153.csv","","71","resources/trios/L4T4A2.jpg","39","restless",0.6,0.8,0.3,0.927808067889014,"false"
"image-keyboard-response",483,507082,"0.0-3.157-1.157","22eqxlfzzjr999d",674,"153.csv","","null","resources/maskTrios/BBA2.jpg","null","",NA,NA,NA,NA,""
"image-keyboard-response",484,508284,"0.0-3.157-2.157","22eqxlfzzjr999d",674,"153.csv","","null","resources/images/fishbone.png","null","",NA,NA,NA,NA,""
"image-keyboard-response",485,508302,"0.0-3.158-0.158","22eqxlfzzjr999d",674,"153.csv","","17.59999990463257","resources/trios/L4T1A1.jpg","37","restless",0.6,0.8,0.3,0.0841917412307347,"true"
"image-keyboard-response",486,508704,"0.0-3.158-1.158","22eqxlfzzjr999d",674,"153.csv","","null","resources/maskTrios/L4BB.jpg","null","",NA,NA,NA,NA,""
"image-keyboard-response",487,509904,"0.0-3.158-2.158","22eqxlfzzjr999d",674,"153.csv","","null","resources/images/coin2.png","null","",NA,NA,NA,NA,""
"image-keyboard-response",488,510081,"0.0-3.159-0.159","22eqxlfzzjr999d",674,"153.csv","","176.30000019073486","resources/trios/L4T1A1.jpg","38","restless",0.6,0.8,0.3,0.459219822988669,"true"
"image-keyboard-response",489,510483,"0.0-3.159-1.159","22eqxlfzzjr999d",674,"153.csv","","null","resources/maskTrios/BT1B.jpg","null","",NA,NA,NA,NA,""
"image-keyboard-response",490,511684,"0.0-3.159-2.159","22eqxlfzzjr999d",674,"153.csv","","null","resources/images/coin2.png","null","",NA,NA,NA,NA,""
"image-keyboard-response",491,511797,"0.0-3.160-0.160","22eqxlfzzjr999d",674,"153.csv","","112.5","resources/trios/L4T1A2.jpg","39","restless",0.6,0.8,0.3,0.543471063856083,"false"
"image-keyboard-response",492,512198,"0.0-3.160-1.160","22eqxlfzzjr999d",674,"153.csv","","null","resources/maskTrios/BBA2.jpg","null","",NA,NA,NA,NA,""
"image-keyboard-response",493,513400,"0.0-3.160-2.160","22eqxlfzzjr999d",674,"153.csv","","null","resources/images/fishbone.png","null","",NA,NA,NA,NA,""
"image-keyboard-response",494,513478,"0.0-3.161-0.161","22eqxlfzzjr999d",674,"153.csv","","77.30000019073486","resources/trios/L4T4A1.jpg","39","restless",0.6,0.8,0.2,0.266873596098183,"false"
"image-keyboard-response",495,513881,"0.0-3.161-1.161","22eqxlfzzjr999d",674,"153.csv","","null","resources/maskTrios/BBA1.jpg","null","",NA,NA,NA,NA,""
"image-keyboard-response",496,515082,"0.0-3.161-2.161","22eqxlfzzjr999d",674,"153.csv","","null","resources/images/fishbone.png","null","",NA,NA,NA,NA,""
"image-keyboard-response",497,515120,"0.0-3.162-0.162","22eqxlfzzjr999d",674,"153.csv","","37.39999985694885","resources/trios/L2T4A2.jpg","37","restless",0.6,0.9,0.2,0.800956494913787,"false"
"image-keyboard-response",498,515522,"0.0-3.162-1.162","22eqxlfzzjr999d",674,"153.csv","","null","resources/maskTrios/L2BB.jpg","null","",NA,NA,NA,NA,""
"image-keyboard-response",499,516722,"0.0-3.162-2.162","22eqxlfzzjr999d",674,"153.csv","","null","resources/images/fishbone.png","null","",NA,NA,NA,NA,""
"image-keyboard-response",500,516832,"0.0-3.163-0.163","22eqxlfzzjr999d",674,"153.csv","","109.29999995231628","resources/trios/L2T4A2.jpg","38","restless",0.6,0.9,0.2,0.538600428271895,"true"
"image-keyboard-response",501,517234,"0.0-3.163-1.163","22eqxlfzzjr999d",674,"153.csv","","null","resources/maskTrios/BT4B.jpg","null","",NA,NA,NA,NA,""
"image-keyboard-response",502,518435,"0.0-3.163-2.163","22eqxlfzzjr999d",674,"153.csv","","null","resources/images/coin2.png","null","",NA,NA,NA,NA,""
"image-keyboard-response",503,518472,"0.0-3.164-0.164","22eqxlfzzjr999d",674,"153.csv","","36.299999952316284","resources/trios/L2T1A1.jpg","38","restless",0.6,0.9,0.2,0.281428605238771,"true"
"image-keyboard-response",504,518873,"0.0-3.164-1.164","22eqxlfzzjr999d",674,"153.csv","","null","resources/maskTrios/BT1B.jpg","null","",NA,NA,NA,NA,""
"image-keyboard-response",505,520074,"0.0-3.164-2.164","22eqxlfzzjr999d",674,"153.csv","","null","resources/images/coin2.png","null","",NA,NA,NA,NA,""
"image-keyboard-response",506,520158,"0.0-3.165-0.165","22eqxlfzzjr999d",674,"153.csv","","83.10000014305115","resources/trios/L2T1A2.jpg","38","restless",0.6,0.9,0.2,0.557722221887347,"true"
"image-keyboard-response",507,520558,"0.0-3.165-1.165","22eqxlfzzjr999d",674,"153.csv","","null","resources/maskTrios/BT1B.jpg","null","",NA,NA,NA,NA,""
"image-keyboard-response",508,521760,"0.0-3.165-2.165","22eqxlfzzjr999d",674,"153.csv","","null","resources/images/coin2.png","null","",NA,NA,NA,NA,""
"image-keyboard-response",509,521855,"0.0-3.166-0.166","22eqxlfzzjr999d",674,"153.csv","","94.10000014305115","resources/trios/L4T4A1.jpg","38","restless",0.6,0.9,0.2,0.510404960138965,"true"
"image-keyboard-response",510,522256,"0.0-3.166-1.166","22eqxlfzzjr999d",674,"153.csv","","null","resources/maskTrios/BT4B.jpg","null","",NA,NA,NA,NA,""
"image-keyboard-response",511,523457,"0.0-3.166-2.166","22eqxlfzzjr999d",674,"153.csv","","null","resources/images/coin2.png","null","",NA,NA,NA,NA,""
"image-keyboard-response",512,523680,"0.0-3.167-0.167","22eqxlfzzjr999d",674,"153.csv","","221.79999995231628","resources/trios/L2T4A1.jpg","38","restless",0.6,0.9,0.2,0.912901498803828,"false"
"image-keyboard-response",513,524081,"0.0-3.167-1.167","22eqxlfzzjr999d",674,"153.csv","","null","resources/maskTrios/BT4B.jpg","null","",NA,NA,NA,NA,""
"image-keyboard-response",514,525281,"0.0-3.167-2.167","22eqxlfzzjr999d",674,"153.csv","","null","resources/images/fishbone.png","null","",NA,NA,NA,NA,""
"image-keyboard-response",515,525428,"0.0-3.168-0.168","22eqxlfzzjr999d",674,"153.csv","","146.60000014305115","resources/trios/L2T1A2.jpg","39","restless",0.6,0.8,0.2,0.821507569608019,"false"
"image-keyboard-response",516,525829,"0.0-3.168-1.168","22eqxlfzzjr999d",674,"153.csv","","null","resources/maskTrios/BBA2.jpg","null","",NA,NA,NA,NA,""
"image-keyboard-response",517,527030,"0.0-3.168-2.168","22eqxlfzzjr999d",674,"153.csv","","null","resources/images/fishbone.png","null","",NA,NA,NA,NA,""
"image-keyboard-response",518,527114,"0.0-3.169-0.169","22eqxlfzzjr999d",674,"153.csv","","83.5","resources/trios/L4T4A1.jpg","39","restless",0.6,0.7,0.2,0.488590780035106,"false"
"image-keyboard-response",519,527515,"0.0-3.169-1.169","22eqxlfzzjr999d",674,"153.csv","","null","resources/maskTrios/BBA1.jpg","null","",NA,NA,NA,NA,""
"image-keyboard-response",520,528716,"0.0-3.169-2.169","22eqxlfzzjr999d",674,"153.csv","","null","resources/images/fishbone.png","null","",NA,NA,NA,NA,""
"image-keyboard-response",521,528863,"0.0-3.170-0.170","22eqxlfzzjr999d",674,"153.csv","","147","resources/trios/L4T1A1.jpg","39","restless",0.6,0.7,0.1,0.993349665530119,"false"
"image-keyboard-response",522,529265,"0.0-3.170-1.170","22eqxlfzzjr999d",674,"153.csv","","null","resources/maskTrios/BBA1.jpg","null","",NA,NA,NA,NA,""
"image-keyboard-response",523,530466,"0.0-3.170-2.170","22eqxlfzzjr999d",674,"153.csv","","null","resources/images/fishbone.png","null","",NA,NA,NA,NA,""
"image-keyboard-response",524,530503,"0.0-3.171-0.171","22eqxlfzzjr999d",674,"153.csv","","36.5","resources/trios/L4T4A1.jpg","37","restless",0.6,0.7,0.1,0.563806802197832,"true"
"image-keyboard-response",525,530904,"0.0-3.171-1.171","22eqxlfzzjr999d",674,"153.csv","","null","resources/maskTrios/L4BB.jpg","null","",NA,NA,NA,NA,""
"image-keyboard-response",526,532105,"0.0-3.171-2.171","22eqxlfzzjr999d",674,"153.csv","","null","resources/images/coin2.png","null","",NA,NA,NA,NA,""
"image-keyboard-response",527,532207,"0.0-3.172-0.172","22eqxlfzzjr999d",674,"153.csv","","101.90000009536743","resources/trios/L2T4A1.jpg","37","restless",0.6,0.7,0.1,0.888049822041062,"false"
"image-keyboard-response",528,532609,"0.0-3.172-1.172","22eqxlfzzjr999d",674,"153.csv","","null","resources/maskTrios/L2BB.jpg","null","",NA,NA,NA,NA,""
"image-keyboard-response",529,533810,"0.0-3.172-2.172","22eqxlfzzjr999d",674,"153.csv","","null","resources/images/fishbone.png","null","",NA,NA,NA,NA,""
"image-keyboard-response",530,533908,"0.0-3.173-0.173","22eqxlfzzjr999d",674,"153.csv","","97.5","resources/trios/L4T4A2.jpg","38","restless",0.6,0.7,0.2,0.978111037660749,"false"
"image-keyboard-response",531,534309,"0.0-3.173-1.173","22eqxlfzzjr999d",674,"153.csv","","null","resources/maskTrios/BT4B.jpg","null","",NA,NA,NA,NA,""
"image-keyboard-response",532,535512,"0.0-3.173-2.173","22eqxlfzzjr999d",674,"153.csv","","null","resources/images/fishbone.png","null","",NA,NA,NA,NA,""
"image-keyboard-response",533,535583,"0.0-3.174-0.174","22eqxlfzzjr999d",674,"153.csv","","70.90000009536743","resources/trios/L4T4A1.jpg","39","restless",0.6,0.7,0.2,0.738272950811179,"false"
"image-keyboard-response",534,535985,"0.0-3.174-1.174","22eqxlfzzjr999d",674,"153.csv","","null","resources/maskTrios/BBA1.jpg","null","",NA,NA,NA,NA,""
"image-keyboard-response",535,537186,"0.0-3.174-2.174","22eqxlfzzjr999d",674,"153.csv","","null","resources/images/fishbone.png","null","",NA,NA,NA,NA,""
"image-keyboard-response",536,537222,"0.0-3.175-0.175","22eqxlfzzjr999d",674,"153.csv","","35.60000014305115","resources/trios/L2T1A1.jpg","37","restless",0.6,0.7,0.2,0.0230260201031072,"true"
"image-keyboard-response",537,537624,"0.0-3.175-1.175","22eqxlfzzjr999d",674,"153.csv","","null","resources/maskTrios/L2BB.jpg","null","",NA,NA,NA,NA,""
"image-keyboard-response",538,538825,"0.0-3.175-2.175","22eqxlfzzjr999d",674,"153.csv","","null","resources/images/coin2.png","null","",NA,NA,NA,NA,""
"image-keyboard-response",539,538943,"0.0-3.176-0.176","22eqxlfzzjr999d",674,"153.csv","","118.09999990463257","resources/trios/L4T1A1.jpg","38","restless",0.6,0.7,0.2,0.197354349298185,"true"
"image-keyboard-response",540,539344,"0.0-3.176-1.176","22eqxlfzzjr999d",674,"153.csv","","null","resources/maskTrios/BT1B.jpg","null","",NA,NA,NA,NA,""
"image-keyboard-response",541,540546,"0.0-3.176-2.176","22eqxlfzzjr999d",674,"153.csv","","null","resources/images/coin2.png","null","",NA,NA,NA,NA,""
"image-keyboard-response",542,540812,"0.0-3.177-0.177","22eqxlfzzjr999d",674,"153.csv","","266","resources/trios/L2T1A2.jpg","38","restless",0.6,0.7,0.2,0.309747900967859,"true"
"image-keyboard-response",543,541214,"0.0-3.177-1.177","22eqxlfzzjr999d",674,"153.csv","","null","resources/maskTrios/BT1B.jpg","null","",NA,NA,NA,NA,""
"image-keyboard-response",544,542415,"0.0-3.177-2.177","22eqxlfzzjr999d",674,"153.csv","","null","resources/images/coin2.png","null","",NA,NA,NA,NA,""
"image-keyboard-response",545,542620,"0.0-3.178-0.178","22eqxlfzzjr999d",674,"153.csv","","205","resources/trios/L2T1A2.jpg","38","restless",0.6,0.7,0.2,0.775747928345748,"false"
"image-keyboard-response",546,543021,"0.0-3.178-1.178","22eqxlfzzjr999d",674,"153.csv","","null","resources/maskTrios/BT1B.jpg","null","",NA,NA,NA,NA,""
"image-keyboard-response",547,544223,"0.0-3.178-2.178","22eqxlfzzjr999d",674,"153.csv","","null","resources/images/fishbone.png","null","",NA,NA,NA,NA,""
"image-keyboard-response",548,544341,"0.0-3.179-0.179","22eqxlfzzjr999d",674,"153.csv","","117.29999995231628","resources/trios/L2T4A2.jpg","39","restless",0.6,0.7,0.2,0.578200196750984,"false"
"image-keyboard-response",549,544743,"0.0-3.179-1.179","22eqxlfzzjr999d",674,"153.csv","","null","resources/maskTrios/BBA2.jpg","null","",NA,NA,NA,NA,""
"image-keyboard-response",550,545944,"0.0-3.179-2.179","22eqxlfzzjr999d",674,"153.csv","","null","resources/images/fishbone.png","null","",NA,NA,NA,NA,""
"image-keyboard-response",551,546097,"0.0-3.180-0.180","22eqxlfzzjr999d",674,"153.csv","","152.89999985694885","resources/trios/L2T4A1.jpg","37","restless",0.6,0.7,0.2,0.70749055004783,"false"
"image-keyboard-response",552,546499,"0.0-3.180-1.180","22eqxlfzzjr999d",674,"153.csv","","null","resources/maskTrios/L2BB.jpg","null","",NA,NA,NA,NA,""
"image-keyboard-response",553,547700,"0.0-3.180-2.180","22eqxlfzzjr999d",674,"153.csv","","null","resources/images/fishbone.png","null","",NA,NA,NA,NA,""
"image-keyboard-response",554,547772,"0.0-3.181-0.181","22eqxlfzzjr999d",674,"153.csv","","71.5","resources/trios/L4T1A2.jpg","38","restless",0.6,0.7,0.2,0.454662510255356,"true"
"image-keyboard-response",555,548173,"0.0-3.181-1.181","22eqxlfzzjr999d",674,"153.csv","","null","resources/maskTrios/BT1B.jpg","null","",NA,NA,NA,NA,""
"image-keyboard-response",556,549374,"0.0-3.181-2.181","22eqxlfzzjr999d",674,"153.csv","","null","resources/images/coin2.png","null","",NA,NA,NA,NA,""
"image-keyboard-response",557,549378,"0.0-3.182-0.182","22eqxlfzzjr999d",674,"153.csv","","3.0999999046325684","resources/trios/L4T1A1.jpg","38","restless",0.6,0.7,0.2,0.511407328298607,"true"
"image-keyboard-response",558,549779,"0.0-3.182-1.182","22eqxlfzzjr999d",674,"153.csv","","null","resources/maskTrios/BT1B.jpg","null","",NA,NA,NA,NA,""
"image-keyboard-response",559,550980,"0.0-3.182-2.182","22eqxlfzzjr999d",674,"153.csv","","null","resources/images/coin2.png","null","",NA,NA,NA,NA,""
"image-keyboard-response",560,550998,"0.0-3.183-0.183","22eqxlfzzjr999d",674,"153.csv","","17.199999809265137","resources/trios/L4T4A2.jpg","38","restless",0.5,0.7,0.2,0.819087189323257,"false"
"image-keyboard-response",561,551398,"0.0-3.183-1.183","22eqxlfzzjr999d",674,"153.csv","","null","resources/maskTrios/BT4B.jpg","null","",NA,NA,NA,NA,""
"image-keyboard-response",562,552599,"0.0-3.183-2.183","22eqxlfzzjr999d",674,"153.csv","","null","resources/images/fishbone.png","null","",NA,NA,NA,NA,""
"image-keyboard-response",563,552606,"0.0-3.184-0.184","22eqxlfzzjr999d",674,"153.csv","","6","resources/trios/L2T1A2.jpg","37","restless",0.5,0.8,0.2,0.828564389156751,"false"
"image-keyboard-response",564,553006,"0.0-3.184-1.184","22eqxlfzzjr999d",674,"153.csv","","null","resources/maskTrios/L2BB.jpg","null","",NA,NA,NA,NA,""
"image-keyboard-response",565,554207,"0.0-3.184-2.184","22eqxlfzzjr999d",674,"153.csv","","null","resources/images/fishbone.png","null","",NA,NA,NA,NA,""
"image-keyboard-response",566,554351,"0.0-3.185-0.185","22eqxlfzzjr999d",674,"153.csv","","142.5","resources/trios/L4T1A1.jpg","39","restless",0.5,0.8,0.2,0.928444072026781,"false"
"image-keyboard-response",567,554752,"0.0-3.185-1.185","22eqxlfzzjr999d",674,"153.csv","","null","resources/maskTrios/BBA1.jpg","null","",NA,NA,NA,NA,""
"image-keyboard-response",568,555953,"0.0-3.185-2.185","22eqxlfzzjr999d",674,"153.csv","","null","resources/images/fishbone.png","null","",NA,NA,NA,NA,""
"image-keyboard-response",569,556012,"0.0-3.186-0.186","22eqxlfzzjr999d",674,"153.csv","","58.799999952316284","resources/trios/L4T1A2.jpg","38","restless",0.6,0.8,0.2,0.85121625636224,"false"
"image-keyboard-response",570,556413,"0.0-3.186-1.186","22eqxlfzzjr999d",674,"153.csv","","null","resources/maskTrios/BT1B.jpg","null","",NA,NA,NA,NA,""
"image-keyboard-response",571,557615,"0.0-3.186-2.186","22eqxlfzzjr999d",674,"153.csv","","null","resources/images/fishbone.png","null","",NA,NA,NA,NA,""
"image-keyboard-response",572,557668,"0.0-3.187-0.187","22eqxlfzzjr999d",674,"153.csv","","51.799999952316284","resources/trios/L2T1A2.jpg","37","restless",0.6,0.8,0.2,0.291780991738178,"true"
"image-keyboard-response",573,558069,"0.0-3.187-1.187","22eqxlfzzjr999d",674,"153.csv","","null","resources/maskTrios/L2BB.jpg","null","",NA,NA,NA,NA,""
"image-keyboard-response",574,559271,"0.0-3.187-2.187","22eqxlfzzjr999d",674,"153.csv","","null","resources/images/coin2.png","null","",NA,NA,NA,NA,""
"image-keyboard-response",575,559329,"0.0-3.188-0.188","22eqxlfzzjr999d",674,"153.csv","","57.40000009536743","resources/trios/L2T4A1.jpg","37","restless",0.5,0.8,0.3,0.96669459373117,"false"
"image-keyboard-response",576,559731,"0.0-3.188-1.188","22eqxlfzzjr999d",674,"153.csv","","null","resources/maskTrios/L2BB.jpg","null","",NA,NA,NA,NA,""
"image-keyboard-response",577,560932,"0.0-3.188-2.188","22eqxlfzzjr999d",674,"153.csv","","null","resources/images/fishbone.png","null","",NA,NA,NA,NA,""
"image-keyboard-response",578,561015,"0.0-3.189-0.189","22eqxlfzzjr999d",674,"153.csv","","82.29999995231628","resources/trios/L4T4A1.jpg","38","restless",0.5,0.8,0.4,0.939630050538544,"false"
"image-keyboard-response",579,561417,"0.0-3.189-1.189","22eqxlfzzjr999d",674,"153.csv","","null","resources/maskTrios/BT4B.jpg","null","",NA,NA,NA,NA,""
"image-keyboard-response",580,562618,"0.0-3.189-2.189","22eqxlfzzjr999d",674,"153.csv","","null","resources/images/fishbone.png","null","",NA,NA,NA,NA,""
"image-keyboard-response",581,562695,"0.0-3.190-0.190","22eqxlfzzjr999d",674,"153.csv","","76.90000009536743","resources/trios/L4T4A1.jpg","39","restless",0.5,0.8,0.4,0.759310733438492,"false"
"image-keyboard-response",582,563097,"0.0-3.190-1.190","22eqxlfzzjr999d",674,"153.csv","","null","resources/maskTrios/BBA1.jpg","null","",NA,NA,NA,NA,""
"image-keyboard-response",583,564298,"0.0-3.190-2.190","22eqxlfzzjr999d",674,"153.csv","","null","resources/images/fishbone.png","null","",NA,NA,NA,NA,""
"image-keyboard-response",584,564300,"0.0-3.191-0.191","22eqxlfzzjr999d",674,"153.csv","","0.8999998569488525","resources/trios/L4T4A1.jpg","38","restless",0.4,0.8,0.5,0.816213274620054,"false"
"image-keyboard-response",585,564700,"0.0-3.191-1.191","22eqxlfzzjr999d",674,"153.csv","","null","resources/maskTrios/BT4B.jpg","null","",NA,NA,NA,NA,""
"image-keyboard-response",586,565901,"0.0-3.191-2.191","22eqxlfzzjr999d",674,"153.csv","","null","resources/images/fishbone.png","null","",NA,NA,NA,NA,""
"image-keyboard-response",587,566183,"0.0-3.192-0.192","22eqxlfzzjr999d",674,"153.csv","","280.89999985694885","resources/trios/L2T4A1.jpg","37","restless",0.4,0.8,0.5,0.0262638861309741,"true"
"image-keyboard-response",588,566584,"0.0-3.192-1.192","22eqxlfzzjr999d",674,"153.csv","","null","resources/maskTrios/L2BB.jpg","null","",NA,NA,NA,NA,""
"image-keyboard-response",589,567785,"0.0-3.192-2.192","22eqxlfzzjr999d",674,"153.csv","","null","resources/images/coin2.png","null","",NA,NA,NA,NA,""
"image-keyboard-response",590,567922,"0.0-3.193-0.193","22eqxlfzzjr999d",674,"153.csv","","135.60000014305115","resources/trios/L4T1A1.jpg","39","restless",0.4,0.8,0.5,0.0686566216560851,"true"
"image-keyboard-response",591,568322,"0.0-3.193-1.193","22eqxlfzzjr999d",674,"153.csv","","null","resources/maskTrios/BBA1.jpg","null","",NA,NA,NA,NA,""
"image-keyboard-response",592,569524,"0.0-3.193-2.193","22eqxlfzzjr999d",674,"153.csv","","null","resources/images/coin2.png","null","",NA,NA,NA,NA,""
"image-keyboard-response",593,569650,"0.0-3.194-0.194","22eqxlfzzjr999d",674,"153.csv","","126.20000004768372","resources/trios/L4T4A2.jpg","39","restless",0.4,0.8,0.5,0.8810104109017,"false"
"image-keyboard-response",594,570051,"0.0-3.194-1.194","22eqxlfzzjr999d",674,"153.csv","","null","resources/maskTrios/BBA2.jpg","null","",NA,NA,NA,NA,""
"image-keyboard-response",595,571253,"0.0-3.194-2.194","22eqxlfzzjr999d",674,"153.csv","","null","resources/images/fishbone.png","null","",NA,NA,NA,NA,""
"image-keyboard-response",596,571379,"0.0-3.195-0.195","22eqxlfzzjr999d",674,"153.csv","","125.90000009536743","resources/trios/L4T4A1.jpg","37","restless",0.4,0.9,0.5,0.442737659784697,"false"
"image-keyboard-response",597,571781,"0.0-3.195-1.195","22eqxlfzzjr999d",674,"153.csv","","null","resources/maskTrios/L4BB.jpg","null","",NA,NA,NA,NA,""
"image-keyboard-response",598,572981,"0.0-3.195-2.195","22eqxlfzzjr999d",674,"153.csv","","null","resources/images/fishbone.png","null","",NA,NA,NA,NA,""
"image-keyboard-response",599,573088,"0.0-3.196-0.196","22eqxlfzzjr999d",674,"153.csv","","105.89999985694885","resources/trios/L4T4A1.jpg","38","restless",0.4,0.9,0.5,0.883085097071181,"true"
"image-keyboard-response",600,573489,"0.0-3.196-1.196","22eqxlfzzjr999d",674,"153.csv","","null","resources/maskTrios/BT4B.jpg","null","",NA,NA,NA,NA,""
"image-keyboard-response",601,574690,"0.0-3.196-2.196","22eqxlfzzjr999d",674,"153.csv","","null","resources/images/coin2.png","null","",NA,NA,NA,NA,""
"image-keyboard-response",602,574789,"0.0-3.197-0.197","22eqxlfzzjr999d",674,"153.csv","","98.20000004768372","resources/trios/L2T1A2.jpg","38","restless",0.4,0.8,0.5,0.505170189363498,"true"
"image-keyboard-response",603,575190,"0.0-3.197-1.197","22eqxlfzzjr999d",674,"153.csv","","null","resources/maskTrios/BT1B.jpg","null","",NA,NA,NA,NA,""
"image-keyboard-response",604,576391,"0.0-3.197-2.197","22eqxlfzzjr999d",674,"153.csv","","null","resources/images/coin2.png","null","",NA,NA,NA,NA,""
"image-keyboard-response",605,576503,"0.0-3.198-0.198","22eqxlfzzjr999d",674,"153.csv","","111.90000009536743","resources/trios/L2T4A1.jpg","38","restless",0.4,0.8,0.5,0.118343257803975,"true"
