"trial_type","trial_index","time_elapsed","internal_node_id","subject","participantCode","walkNumber","success","rt","stimulus","key_press","test_part","leftProb","midProb","rightProb","generatedNum","correct"
"pavlovia",0,1142,"0.0-0.0","by0ltr49hznn1rq",350,"88.csv","","","","","",NA,NA,NA,NA,""
"fullscreen",1,4367,"0.0-1.0","by0ltr49hznn1rq",350,"88.csv","true","","","","",NA,NA,NA,NA,""
"html-keyboard-response",2,10006,"0.0-2.0-0.0","by0ltr49hznn1rq",350,"88.csv","","5636.000000000002","<p><font size='6'>Arrrgh!</p></font><p>Can you be the best pirate? Try to find lots of gold! But beware, some islands have more gold than others, and over time, the island with the most gold may change. Can YOU figure it out? </p><font size='6'>GOOD LUCK, CAPTAIN!!!</font><p>Press any key to begin</p>","32","",NA,NA,NA,NA,""
"image-keyboard-response",3,13009,"0.0-2.0-1.0","by0ltr49hznn1rq",350,"88.csv","","null","resources/image_sets/111.png","null","",NA,NA,NA,NA,""
"image-keyboard-response",4,16134,"0.0-2.0-2.0","by0ltr49hznn1rq",350,"88.csv","","3123","resources/image_sets/left_highlight.png","37","",NA,NA,NA,NA,""
"image-keyboard-response",5,17123,"0.0-2.0-3.0","by0ltr49hznn1rq",350,"88.csv","","987","resources/image_sets/mid_highlight.png","38","",NA,NA,NA,NA,""
"image-keyboard-response",6,17510,"0.0-2.0-4.0","by0ltr49hznn1rq",350,"88.csv","","385","resources/image_sets/right_highlight.png","39","",NA,NA,NA,NA,""
"image-keyboard-response",7,29605,"0.0-2.0-5.0","by0ltr49hznn1rq",350,"88.csv","","12093","resources/image_sets/111.png","13","",NA,NA,NA,NA,""
"image-keyboard-response",8,32216,"0.0-2.0-6.0","by0ltr49hznn1rq",350,"88.csv","","2607","resources/images/coin2.png","13","",NA,NA,NA,NA,""
"image-keyboard-response",9,34901,"0.0-2.0-7.0","by0ltr49hznn1rq",350,"88.csv","","2683","resources/images/fishbone.png","13","",NA,NA,NA,NA,""
"html-keyboard-response",10,41419,"0.0-2.0-8.0","by0ltr49hznn1rq",350,"88.csv","","6516.000000000007","<p>Your first journey will be a long one, but you will get a well deserved break at the end</p><p>After the break you will have four more journeys, but each will be much shorter than the first, and you will have breaks in between each</p><p>Press Enter to begin</p>","13","",NA,NA,NA,NA,""
"image-keyboard-response",11,42796,"0.0-3.0-0.0","by0ltr49hznn1rq",350,"88.csv","","1375","resources/trios/L1T1A2.jpg","37","restless",0.7,0.3,0.9,0.36841675054324,"true"
"image-keyboard-response",12,43202,"0.0-3.0-1.0","by0ltr49hznn1rq",350,"88.csv","","null","resources/maskTrios/L1BB.jpg","null","",NA,NA,NA,NA,""
"image-keyboard-response",13,44405,"0.0-3.0-2.0","by0ltr49hznn1rq",350,"88.csv","","null","resources/images/coin2.png","null","",NA,NA,NA,NA,""
"image-keyboard-response",14,45230,"0.0-3.1-0.1","by0ltr49hznn1rq",350,"88.csv","","821.0000000000073","resources/trios/L1T2A2.jpg","37","restless",0.7,0.3,0.9,0.19076879654995,"true"
"image-keyboard-response",15,45633,"0.0-3.1-1.1","by0ltr49hznn1rq",350,"88.csv","","null","resources/maskTrios/L1BB.jpg","null","",NA,NA,NA,NA,""
"image-keyboard-response",16,46837,"0.0-3.1-2.1","by0ltr49hznn1rq",350,"88.csv","","null","resources/images/coin2.png","null","",NA,NA,NA,NA,""
"image-keyboard-response",17,47238,"0.0-3.2-0.2","by0ltr49hznn1rq",350,"88.csv","","399","resources/trios/L1T1A3.jpg","37","restless",0.7,0.3,0.9,0.416719268328238,"true"
"image-keyboard-response",18,47641,"0.0-3.2-1.2","by0ltr49hznn1rq",350,"88.csv","","null","resources/maskTrios/L1BB.jpg","null","",NA,NA,NA,NA,""
"image-keyboard-response",19,48845,"0.0-3.2-2.2","by0ltr49hznn1rq",350,"88.csv","","null","resources/images/coin2.png","null","",NA,NA,NA,NA,""
"image-keyboard-response",20,49201,"0.0-3.3-0.3","by0ltr49hznn1rq",350,"88.csv","","354","resources/trios/L1T2A3.jpg","37","restless",0.7,0.3,0.9,0.990553105538726,"false"
"image-keyboard-response",21,49604,"0.0-3.3-1.3","by0ltr49hznn1rq",350,"88.csv","","null","resources/maskTrios/L1BB.jpg","null","",NA,NA,NA,NA,""
"image-keyboard-response",22,50807,"0.0-3.3-2.3","by0ltr49hznn1rq",350,"88.csv","","null","resources/images/fishbone.png","null","",NA,NA,NA,NA,""
"image-keyboard-response",23,51186,"0.0-3.4-0.4","by0ltr49hznn1rq",350,"88.csv","","376","resources/trios/L4T2A3.jpg","39","restless",0.7,0.3,0.9,0.423251424830815,"true"
"image-keyboard-response",24,51589,"0.0-3.4-1.4","by0ltr49hznn1rq",350,"88.csv","","null","resources/maskTrios/BBA3.jpg","null","",NA,NA,NA,NA,""
"image-keyboard-response",25,52793,"0.0-3.4-2.4","by0ltr49hznn1rq",350,"88.csv","","null","resources/images/coin2.png","null","",NA,NA,NA,NA,""
"image-keyboard-response",26,54101,"0.0-3.5-0.5","by0ltr49hznn1rq",350,"88.csv","","1307","resources/trios/L4T1A3.jpg","37","restless",0.7,0.3,0.9,0.14463950765843,"true"
"image-keyboard-response",27,54505,"0.0-3.5-1.5","by0ltr49hznn1rq",350,"88.csv","","null","resources/maskTrios/L4BB.jpg","null","",NA,NA,NA,NA,""
"image-keyboard-response",28,55708,"0.0-3.5-2.5","by0ltr49hznn1rq",350,"88.csv","","null","resources/images/coin2.png","null","",NA,NA,NA,NA,""
"image-keyboard-response",29,56824,"0.0-3.6-0.6","by0ltr49hznn1rq",350,"88.csv","","1114","resources/trios/L1T1A2.jpg","37","restless",0.7,0.3,0.9,0.0535142438496796,"true"
"image-keyboard-response",30,57228,"0.0-3.6-1.6","by0ltr49hznn1rq",350,"88.csv","","null","resources/maskTrios/L1BB.jpg","null","",NA,NA,NA,NA,""
"image-keyboard-response",31,58431,"0.0-3.6-2.6","by0ltr49hznn1rq",350,"88.csv","","null","resources/images/coin2.png","null","",NA,NA,NA,NA,""
"image-keyboard-response",32,58971,"0.0-3.7-0.7","by0ltr49hznn1rq",350,"88.csv","","536.9999999999927","resources/trios/L1T2A2.jpg","37","restless",0.7,0.3,0.9,0.831781689712197,"false"
"image-keyboard-response",33,59374,"0.0-3.7-1.7","by0ltr49hznn1rq",350,"88.csv","","null","resources/maskTrios/L1BB.jpg","null","",NA,NA,NA,NA,""
"image-keyboard-response",34,60577,"0.0-3.7-2.7","by0ltr49hznn1rq",350,"88.csv","","null","resources/images/fishbone.png","null","",NA,NA,NA,NA,""
"image-keyboard-response",35,61886,"0.0-3.8-0.8","by0ltr49hznn1rq",350,"88.csv","","1306","resources/trios/L4T1A2.jpg","37","restless",0.7,0.2,0.8,0.690247959175058,"true"
"image-keyboard-response",36,62290,"0.0-3.8-1.8","by0ltr49hznn1rq",350,"88.csv","","null","resources/maskTrios/L4BB.jpg","null","",NA,NA,NA,NA,""
"image-keyboard-response",37,63493,"0.0-3.8-2.8","by0ltr49hznn1rq",350,"88.csv","","null","resources/images/coin2.png","null","",NA,NA,NA,NA,""
"image-keyboard-response",38,64937,"0.0-3.9-0.9","by0ltr49hznn1rq",350,"88.csv","","1441","resources/trios/L4T2A3.jpg","37","restless",0.7,0.2,0.8,0.295588880283206,"true"
"image-keyboard-response",39,65340,"0.0-3.9-1.9","by0ltr49hznn1rq",350,"88.csv","","null","resources/maskTrios/L4BB.jpg","null","",NA,NA,NA,NA,""
"image-keyboard-response",40,66543,"0.0-3.9-2.9","by0ltr49hznn1rq",350,"88.csv","","null","resources/images/coin2.png","null","",NA,NA,NA,NA,""
"image-keyboard-response",41,67303,"0.0-3.10-0.10","by0ltr49hznn1rq",350,"88.csv","","757","resources/trios/L4T2A2.jpg","37","restless",0.6,0.1,0.8,0.0655661670420825,"true"
"image-keyboard-response",42,67706,"0.0-3.10-1.10","by0ltr49hznn1rq",350,"88.csv","","null","resources/maskTrios/L4BB.jpg","null","",NA,NA,NA,NA,""
"image-keyboard-response",43,68910,"0.0-3.10-2.10","by0ltr49hznn1rq",350,"88.csv","","null","resources/images/coin2.png","null","",NA,NA,NA,NA,""
"image-keyboard-response",44,69990,"0.0-3.11-0.11","by0ltr49hznn1rq",350,"88.csv","","1077","resources/trios/L1T2A3.jpg","37","restless",0.6,0.1,0.8,0.129111375514468,"true"
"image-keyboard-response",45,70393,"0.0-3.11-1.11","by0ltr49hznn1rq",350,"88.csv","","null","resources/maskTrios/L1BB.jpg","null","",NA,NA,NA,NA,""
"image-keyboard-response",46,71596,"0.0-3.11-2.11","by0ltr49hznn1rq",350,"88.csv","","null","resources/images/coin2.png","null","",NA,NA,NA,NA,""
"image-keyboard-response",47,72131,"0.0-3.12-0.12","by0ltr49hznn1rq",350,"88.csv","","533","resources/trios/L1T1A2.jpg","37","restless",0.6,0.1,0.8,0.703112124758462,"false"
"image-keyboard-response",48,72534,"0.0-3.12-1.12","by0ltr49hznn1rq",350,"88.csv","","null","resources/maskTrios/L1BB.jpg","null","",NA,NA,NA,NA,""
"image-keyboard-response",49,73738,"0.0-3.12-2.12","by0ltr49hznn1rq",350,"88.csv","","null","resources/images/fishbone.png","null","",NA,NA,NA,NA,""
"image-keyboard-response",50,75191,"0.0-3.13-0.13","by0ltr49hznn1rq",350,"88.csv","","1451","resources/trios/L1T1A2.jpg","37","restless",0.5,0.1,0.8,0.966760591915866,"false"
"image-keyboard-response",51,75595,"0.0-3.13-1.13","by0ltr49hznn1rq",350,"88.csv","","null","resources/maskTrios/L1BB.jpg","null","",NA,NA,NA,NA,""
"image-keyboard-response",52,76798,"0.0-3.13-2.13","by0ltr49hznn1rq",350,"88.csv","","null","resources/images/fishbone.png","null","",NA,NA,NA,NA,""
"image-keyboard-response",53,77374,"0.0-3.14-0.14","by0ltr49hznn1rq",350,"88.csv","","574","resources/trios/L1T1A3.jpg","37","restless",0.5,0.1,0.8,0.801143319227628,"false"
"image-keyboard-response",54,77778,"0.0-3.14-1.14","by0ltr49hznn1rq",350,"88.csv","","null","resources/maskTrios/L1BB.jpg","null","",NA,NA,NA,NA,""
"image-keyboard-response",55,78981,"0.0-3.14-2.14","by0ltr49hznn1rq",350,"88.csv","","null","resources/images/fishbone.png","null","",NA,NA,NA,NA,""
"image-keyboard-response",56,79257,"0.0-3.15-0.15","by0ltr49hznn1rq",350,"88.csv","","273.99999999998545","resources/trios/L4T1A2.jpg","38","restless",0.5,0.1,0.7,0.417527814545257,"false"
"image-keyboard-response",57,79661,"0.0-3.15-1.15","by0ltr49hznn1rq",350,"88.csv","","null","resources/maskTrios/BT1B.jpg","null","",NA,NA,NA,NA,""
"image-keyboard-response",58,80864,"0.0-3.15-2.15","by0ltr49hznn1rq",350,"88.csv","","null","resources/images/fishbone.png","null","",NA,NA,NA,NA,""
"image-keyboard-response",59,81218,"0.0-3.16-0.16","by0ltr49hznn1rq",350,"88.csv","","352.00000000001455","resources/trios/L1T1A3.jpg","39","restless",0.5,0.1,0.7,0.287529412087562,"true"
"image-keyboard-response",60,81622,"0.0-3.16-1.16","by0ltr49hznn1rq",350,"88.csv","","null","resources/maskTrios/BBA3.jpg","null","",NA,NA,NA,NA,""
"image-keyboard-response",61,82825,"0.0-3.16-2.16","by0ltr49hznn1rq",350,"88.csv","","null","resources/images/coin2.png","null","",NA,NA,NA,NA,""
"image-keyboard-response",62,84120,"0.0-3.17-0.17","by0ltr49hznn1rq",350,"88.csv","","1291.9999999999854","resources/trios/L4T1A2.jpg","39","restless",0.5,0.1,0.7,0.622592064675115,"true"
"image-keyboard-response",63,84523,"0.0-3.17-1.17","by0ltr49hznn1rq",350,"88.csv","","null","resources/maskTrios/BBA2.jpg","null","",NA,NA,NA,NA,""
"image-keyboard-response",64,85727,"0.0-3.17-2.17","by0ltr49hznn1rq",350,"88.csv","","null","resources/images/coin2.png","null","",NA,NA,NA,NA,""
"image-keyboard-response",65,86110,"0.0-3.18-0.18","by0ltr49hznn1rq",350,"88.csv","","381","resources/trios/L4T2A3.jpg","39","restless",0.5,0.1,0.7,0.0276993530179399,"true"
"image-keyboard-response",66,86513,"0.0-3.18-1.18","by0ltr49hznn1rq",350,"88.csv","","null","resources/maskTrios/BBA3.jpg","null","",NA,NA,NA,NA,""
"image-keyboard-response",67,87717,"0.0-3.18-2.18","by0ltr49hznn1rq",350,"88.csv","","null","resources/images/coin2.png","null","",NA,NA,NA,NA,""
"image-keyboard-response",68,88036,"0.0-3.19-0.19","by0ltr49hznn1rq",350,"88.csv","","317","resources/trios/L4T2A3.jpg","39","restless",0.4,0.1,0.7,0.330322615082925,"true"
"image-keyboard-response",69,88439,"0.0-3.19-1.19","by0ltr49hznn1rq",350,"88.csv","","null","resources/maskTrios/BBA3.jpg","null","",NA,NA,NA,NA,""
"image-keyboard-response",70,89643,"0.0-3.19-2.19","by0ltr49hznn1rq",350,"88.csv","","null","resources/images/coin2.png","null","",NA,NA,NA,NA,""
"image-keyboard-response",71,89981,"0.0-3.20-0.20","by0ltr49hznn1rq",350,"88.csv","","335","resources/trios/L4T2A2.jpg","39","restless",0.4,0.1,0.7,0.238523485361081,"true"
"image-keyboard-response",72,90385,"0.0-3.20-1.20","by0ltr49hznn1rq",350,"88.csv","","null","resources/maskTrios/BBA2.jpg","null","",NA,NA,NA,NA,""
"image-keyboard-response",73,91588,"0.0-3.20-2.20","by0ltr49hznn1rq",350,"88.csv","","null","resources/images/coin2.png","null","",NA,NA,NA,NA,""
"image-keyboard-response",74,91888,"0.0-3.21-0.21","by0ltr49hznn1rq",350,"88.csv","","297","resources/trios/L1T2A2.jpg","39","restless",0.4,0.1,0.7,0.61119858976676,"true"
"image-keyboard-response",75,92292,"0.0-3.21-1.21","by0ltr49hznn1rq",350,"88.csv","","null","resources/maskTrios/BBA2.jpg","null","",NA,NA,NA,NA,""
"image-keyboard-response",76,93495,"0.0-3.21-2.21","by0ltr49hznn1rq",350,"88.csv","","null","resources/images/coin2.png","null","",NA,NA,NA,NA,""
"image-keyboard-response",77,93867,"0.0-3.22-0.22","by0ltr49hznn1rq",350,"88.csv","","369.00000000001455","resources/trios/L4T1A3.jpg","39","restless",0.4,0.1,0.7,0.948106820706663,"false"
"image-keyboard-response",78,94271,"0.0-3.22-1.22","by0ltr49hznn1rq",350,"88.csv","","null","resources/maskTrios/BBA3.jpg","null","",NA,NA,NA,NA,""
"image-keyboard-response",79,95474,"0.0-3.22-2.22","by0ltr49hznn1rq",350,"88.csv","","null","resources/images/fishbone.png","null","",NA,NA,NA,NA,""
"image-keyboard-response",80,96772,"0.0-3.23-0.23","by0ltr49hznn1rq",350,"88.csv","","1296","resources/trios/L1T2A3.jpg","38","restless",0.5,0.1,0.7,0.532626908438464,"false"
"image-keyboard-response",81,97175,"0.0-3.23-1.23","by0ltr49hznn1rq",350,"88.csv","","null","resources/maskTrios/BT2B.jpg","null","",NA,NA,NA,NA,""
"image-keyboard-response",82,98378,"0.0-3.23-2.23","by0ltr49hznn1rq",350,"88.csv","","null","resources/images/fishbone.png","null","",NA,NA,NA,NA,""
"image-keyboard-response",83,98622,"0.0-3.24-0.24","by0ltr49hznn1rq",350,"88.csv","","242","resources/trios/L1T2A2.jpg","37","restless",0.6,0.1,0.7,0.851536918611611,"false"
"image-keyboard-response",84,99025,"0.0-3.24-1.24","by0ltr49hznn1rq",350,"88.csv","","null","resources/maskTrios/L1BB.jpg","null","",NA,NA,NA,NA,""
"image-keyboard-response",85,100228,"0.0-3.24-2.24","by0ltr49hznn1rq",350,"88.csv","","null","resources/images/fishbone.png","null","",NA,NA,NA,NA,""
"image-keyboard-response",86,100263,"0.0-3.25-0.25","by0ltr49hznn1rq",350,"88.csv","","33","resources/trios/L4T2A3.jpg","39","restless",0.6,0.1,0.7,0.969348581802603,"false"
"image-keyboard-response",87,100665,"0.0-3.25-1.25","by0ltr49hznn1rq",350,"88.csv","","null","resources/maskTrios/BBA3.jpg","null","",NA,NA,NA,NA,""
"image-keyboard-response",88,101868,"0.0-3.25-2.25","by0ltr49hznn1rq",350,"88.csv","","null","resources/images/fishbone.png","null","",NA,NA,NA,NA,""
"image-keyboard-response",89,102243,"0.0-3.26-0.26","by0ltr49hznn1rq",350,"88.csv","","373","resources/trios/L4T1A2.jpg","38","restless",0.6,0.1,0.7,0.232635833290104,"false"
"image-keyboard-response",90,102646,"0.0-3.26-1.26","by0ltr49hznn1rq",350,"88.csv","","null","resources/maskTrios/BT1B.jpg","null","",NA,NA,NA,NA,""
"image-keyboard-response",91,103849,"0.0-3.26-2.26","by0ltr49hznn1rq",350,"88.csv","","null","resources/images/fishbone.png","null","",NA,NA,NA,NA,""
"image-keyboard-response",92,105246,"0.0-3.27-0.27","by0ltr49hznn1rq",350,"88.csv","","1395","resources/trios/L4T2A3.jpg","37","restless",0.6,0.1,0.7,0.559813137787519,"true"
"image-keyboard-response",93,105649,"0.0-3.27-1.27","by0ltr49hznn1rq",350,"88.csv","","null","resources/maskTrios/L4BB.jpg","null","",NA,NA,NA,NA,""
"image-keyboard-response",94,106852,"0.0-3.27-2.27","by0ltr49hznn1rq",350,"88.csv","","null","resources/images/coin2.png","null","",NA,NA,NA,NA,""
"image-keyboard-response",95,107266,"0.0-3.28-0.28","by0ltr49hznn1rq",350,"88.csv","","411.99999999998545","resources/trios/L4T1A2.jpg","37","restless",0.5,0.1,0.6,0.0699735201294183,"true"
"image-keyboard-response",96,107670,"0.0-3.28-1.28","by0ltr49hznn1rq",350,"88.csv","","null","resources/maskTrios/L4BB.jpg","null","",NA,NA,NA,NA,""
"image-keyboard-response",97,108873,"0.0-3.28-2.28","by0ltr49hznn1rq",350,"88.csv","","null","resources/images/coin2.png","null","",NA,NA,NA,NA,""
"image-keyboard-response",98,109234,"0.0-3.29-0.29","by0ltr49hznn1rq",350,"88.csv","","357.99999999998545","resources/trios/L1T2A3.jpg","37","restless",0.5,0.1,0.6,0.532089107546271,"false"
"image-keyboard-response",99,109637,"0.0-3.29-1.29","by0ltr49hznn1rq",350,"88.csv","","null","resources/maskTrios/L1BB.jpg","null","",NA,NA,NA,NA,""
"image-keyboard-response",100,110840,"0.0-3.29-2.29","by0ltr49hznn1rq",350,"88.csv","","null","resources/images/fishbone.png","null","",NA,NA,NA,NA,""
"image-keyboard-response",101,111932,"0.0-3.30-0.30","by0ltr49hznn1rq",350,"88.csv","","1089.9999999999854","resources/trios/L4T1A2.jpg","38","restless",0.5,0.1,0.6,0.434213315101558,"false"
"image-keyboard-response",102,112336,"0.0-3.30-1.30","by0ltr49hznn1rq",350,"88.csv","","null","resources/maskTrios/BT1B.jpg","null","",NA,NA,NA,NA,""
"image-keyboard-response",103,113539,"0.0-3.30-2.30","by0ltr49hznn1rq",350,"88.csv","","null","resources/images/fishbone.png","null","",NA,NA,NA,NA,""
"image-keyboard-response",104,113780,"0.0-3.31-0.31","by0ltr49hznn1rq",350,"88.csv","","238","resources/trios/L4T1A3.jpg","39","restless",0.5,0.1,0.6,0.564504276349899,"true"
"image-keyboard-response",105,114183,"0.0-3.31-1.31","by0ltr49hznn1rq",350,"88.csv","","null","resources/maskTrios/BBA3.jpg","null","",NA,NA,NA,NA,""
"image-keyboard-response",106,115386,"0.0-3.31-2.31","by0ltr49hznn1rq",350,"88.csv","","null","resources/images/coin2.png","null","",NA,NA,NA,NA,""
"image-keyboard-response",107,115752,"0.0-3.32-0.32","by0ltr49hznn1rq",350,"88.csv","","363","resources/trios/L4T2A2.jpg","39","restless",0.5,0.1,0.6,0.0321649006647323,"true"
"image-keyboard-response",108,116155,"0.0-3.32-1.32","by0ltr49hznn1rq",350,"88.csv","","null","resources/maskTrios/BBA2.jpg","null","",NA,NA,NA,NA,""
"image-keyboard-response",109,117358,"0.0-3.32-2.32","by0ltr49hznn1rq",350,"88.csv","","null","resources/images/coin2.png","null","",NA,NA,NA,NA,""
"image-keyboard-response",110,117723,"0.0-3.33-0.33","by0ltr49hznn1rq",350,"88.csv","","362.00000000001455","resources/trios/L4T1A3.jpg","39","restless",0.5,0.1,0.6,0.894528747920887,"false"
"image-keyboard-response",111,118127,"0.0-3.33-1.33","by0ltr49hznn1rq",350,"88.csv","","null","resources/maskTrios/BBA3.jpg","null","",NA,NA,NA,NA,""
"image-keyboard-response",112,119330,"0.0-3.33-2.33","by0ltr49hznn1rq",350,"88.csv","","null","resources/images/fishbone.png","null","",NA,NA,NA,NA,""
"image-keyboard-response",113,119776,"0.0-3.34-0.34","by0ltr49hznn1rq",350,"88.csv","","444","resources/trios/L4T1A2.jpg","37","restless",0.5,0.2,0.6,0.00506170286983776,"true"
"image-keyboard-response",114,120179,"0.0-3.34-1.34","by0ltr49hznn1rq",350,"88.csv","","null","resources/maskTrios/L4BB.jpg","null","",NA,NA,NA,NA,""
"image-keyboard-response",115,121382,"0.0-3.34-2.34","by0ltr49hznn1rq",350,"88.csv","","null","resources/images/coin2.png","null","",NA,NA,NA,NA,""
"image-keyboard-response",116,121729,"0.0-3.35-0.35","by0ltr49hznn1rq",350,"88.csv","","345","resources/trios/L1T2A3.jpg","39","restless",0.5,0.3,0.6,0.372024486658403,"true"
"image-keyboard-response",117,122133,"0.0-3.35-1.35","by0ltr49hznn1rq",350,"88.csv","","null","resources/maskTrios/BBA3.jpg","null","",NA,NA,NA,NA,""
"image-keyboard-response",118,123341,"0.0-3.35-2.35","by0ltr49hznn1rq",350,"88.csv","","null","resources/images/coin2.png","null","",NA,NA,NA,NA,""
"image-keyboard-response",119,123648,"0.0-3.36-0.36","by0ltr49hznn1rq",350,"88.csv","","301","resources/trios/L4T2A2.jpg","37","restless",0.5,0.3,0.6,0.583104220787882,"false"
"image-keyboard-response",120,124051,"0.0-3.36-1.36","by0ltr49hznn1rq",350,"88.csv","","null","resources/maskTrios/L4BB.jpg","null","",NA,NA,NA,NA,""
"image-keyboard-response",121,125254,"0.0-3.36-2.36","by0ltr49hznn1rq",350,"88.csv","","null","resources/images/fishbone.png","null","",NA,NA,NA,NA,""
"image-keyboard-response",122,125634,"0.0-3.37-0.37","by0ltr49hznn1rq",350,"88.csv","","377.00000000001455","resources/trios/L4T1A2.jpg","39","restless",0.5,0.3,0.6,0.10756748729909,"true"
"image-keyboard-response",123,126037,"0.0-3.37-1.37","by0ltr49hznn1rq",350,"88.csv","","null","resources/maskTrios/BBA2.jpg","null","",NA,NA,NA,NA,""
"image-keyboard-response",124,127240,"0.0-3.37-2.37","by0ltr49hznn1rq",350,"88.csv","","null","resources/images/coin2.png","null","",NA,NA,NA,NA,""
"image-keyboard-response",125,127534,"0.0-3.38-0.38","by0ltr49hznn1rq",350,"88.csv","","291","resources/trios/L1T1A3.jpg","39","restless",0.5,0.3,0.6,0.702689399501855,"false"
"image-keyboard-response",126,127937,"0.0-3.38-1.38","by0ltr49hznn1rq",350,"88.csv","","null","resources/maskTrios/BBA3.jpg","null","",NA,NA,NA,NA,""
"image-keyboard-response",127,129140,"0.0-3.38-2.38","by0ltr49hznn1rq",350,"88.csv","","null","resources/images/fishbone.png","null","",NA,NA,NA,NA,""
"image-keyboard-response",128,129411,"0.0-3.39-0.39","by0ltr49hznn1rq",350,"88.csv","","268","resources/trios/L1T2A2.jpg","37","restless",0.5,0.3,0.6,0.50600964367878,"false"
"image-keyboard-response",129,129814,"0.0-3.39-1.39","by0ltr49hznn1rq",350,"88.csv","","null","resources/maskTrios/L1BB.jpg","null","",NA,NA,NA,NA,""
"image-keyboard-response",130,131017,"0.0-3.39-2.39","by0ltr49hznn1rq",350,"88.csv","","null","resources/images/fishbone.png","null","",NA,NA,NA,NA,""
"image-keyboard-response",131,131355,"0.0-3.40-0.40","by0ltr49hznn1rq",350,"88.csv","","336","resources/trios/L4T2A3.jpg","39","restless",0.5,0.3,0.6,0.605502242193638,"false"
"image-keyboard-response",132,131759,"0.0-3.40-1.40","by0ltr49hznn1rq",350,"88.csv","","null","resources/maskTrios/BBA3.jpg","null","",NA,NA,NA,NA,""
"image-keyboard-response",133,132962,"0.0-3.40-2.40","by0ltr49hznn1rq",350,"88.csv","","null","resources/images/fishbone.png","null","",NA,NA,NA,NA,""
"image-keyboard-response",134,133370,"0.0-3.41-0.41","by0ltr49hznn1rq",350,"88.csv","","406","resources/trios/L1T2A3.jpg","39","restless",0.5,0.2,0.6,0.322259302020109,"true"
"image-keyboard-response",135,133773,"0.0-3.41-1.41","by0ltr49hznn1rq",350,"88.csv","","null","resources/maskTrios/BBA3.jpg","null","",NA,NA,NA,NA,""
"image-keyboard-response",136,134977,"0.0-3.41-2.41","by0ltr49hznn1rq",350,"88.csv","","null","resources/images/coin2.png","null","",NA,NA,NA,NA,""
"image-keyboard-response",137,135439,"0.0-3.42-0.42","by0ltr49hznn1rq",350,"88.csv","","460","resources/trios/L1T2A3.jpg","39","restless",0.5,0.2,0.6,0.28752932338381,"true"
"image-keyboard-response",138,135846,"0.0-3.42-1.42","by0ltr49hznn1rq",350,"88.csv","","null","resources/maskTrios/BBA3.jpg","null","",NA,NA,NA,NA,""
"image-keyboard-response",139,137049,"0.0-3.42-2.42","by0ltr49hznn1rq",350,"88.csv","","null","resources/images/coin2.png","null","",NA,NA,NA,NA,""
"image-keyboard-response",140,137328,"0.0-3.43-0.43","by0ltr49hznn1rq",350,"88.csv","","276","resources/trios/L4T2A3.jpg","39","restless",0.5,0.2,0.5,0.554698877614018,"false"
"image-keyboard-response",141,137731,"0.0-3.43-1.43","by0ltr49hznn1rq",350,"88.csv","","null","resources/maskTrios/BBA3.jpg","null","",NA,NA,NA,NA,""
"image-keyboard-response",142,138934,"0.0-3.43-2.43","by0ltr49hznn1rq",350,"88.csv","","null","resources/images/fishbone.png","null","",NA,NA,NA,NA,""
"image-keyboard-response",143,139310,"0.0-3.44-0.44","by0ltr49hznn1rq",350,"88.csv","","369","resources/trios/L1T2A2.jpg","37","restless",0.5,0.2,0.5,0.970713487516683,"false"
"image-keyboard-response",144,139714,"0.0-3.44-1.44","by0ltr49hznn1rq",350,"88.csv","","null","resources/maskTrios/L1BB.jpg","null","",NA,NA,NA,NA,""
"image-keyboard-response",145,140917,"0.0-3.44-2.44","by0ltr49hznn1rq",350,"88.csv","","null","resources/images/fishbone.png","null","",NA,NA,NA,NA,""
"image-keyboard-response",146,141504,"0.0-3.45-0.45","by0ltr49hznn1rq",350,"88.csv","","585","resources/trios/L4T1A3.jpg","38","restless",0.5,0.2,0.5,0.0179493600541495,"true"
"image-keyboard-response",147,141908,"0.0-3.45-1.45","by0ltr49hznn1rq",350,"88.csv","","null","resources/maskTrios/BT1B.jpg","null","",NA,NA,NA,NA,""
"image-keyboard-response",148,143111,"0.0-3.45-2.45","by0ltr49hznn1rq",350,"88.csv","","null","resources/images/coin2.png","null","",NA,NA,NA,NA,""
"image-keyboard-response",149,143458,"0.0-3.46-0.46","by0ltr49hznn1rq",350,"88.csv","","344","resources/trios/L1T1A2.jpg","38","restless",0.5,0.2,0.4,0.267449745314029,"false"
"image-keyboard-response",150,143861,"0.0-3.46-1.46","by0ltr49hznn1rq",350,"88.csv","","null","resources/maskTrios/BT1B.jpg","null","",NA,NA,NA,NA,""
"image-keyboard-response",151,145064,"0.0-3.46-2.46","by0ltr49hznn1rq",350,"88.csv","","null","resources/images/fishbone.png","null","",NA,NA,NA,NA,""
"image-keyboard-response",152,145824,"0.0-3.47-0.47","by0ltr49hznn1rq",350,"88.csv","","756.9999999999709","resources/trios/L1T2A2.jpg","37","restless",0.5,0.2,0.4,0.99712649228111,"false"
"image-keyboard-response",153,146227,"0.0-3.47-1.47","by0ltr49hznn1rq",350,"88.csv","","null","resources/maskTrios/L1BB.jpg","null","",NA,NA,NA,NA,""
"image-keyboard-response",154,147430,"0.0-3.47-2.47","by0ltr49hznn1rq",350,"88.csv","","null","resources/images/fishbone.png","null","",NA,NA,NA,NA,""
"image-keyboard-response",155,147979,"0.0-3.48-0.48","by0ltr49hznn1rq",350,"88.csv","","547","resources/trios/L1T1A3.jpg","39","restless",0.6,0.2,0.4,0.938543690600871,"false"
"image-keyboard-response",156,148381,"0.0-3.48-1.48","by0ltr49hznn1rq",350,"88.csv","","null","resources/maskTrios/BBA3.jpg","null","",NA,NA,NA,NA,""
"image-keyboard-response",157,149584,"0.0-3.48-2.48","by0ltr49hznn1rq",350,"88.csv","","null","resources/images/fishbone.png","null","",NA,NA,NA,NA,""
"image-keyboard-response",158,149950,"0.0-3.49-0.49","by0ltr49hznn1rq",350,"88.csv","","364","resources/trios/L4T2A3.jpg","38","restless",0.6,0.2,0.5,0.485880426641056,"false"
"image-keyboard-response",159,150354,"0.0-3.49-1.49","by0ltr49hznn1rq",350,"88.csv","","null","resources/maskTrios/BT2B.jpg","null","",NA,NA,NA,NA,""
"image-keyboard-response",160,151557,"0.0-3.49-2.49","by0ltr49hznn1rq",350,"88.csv","","null","resources/images/fishbone.png","null","",NA,NA,NA,NA,""
"image-keyboard-response",161,151815,"0.0-3.50-0.50","by0ltr49hznn1rq",350,"88.csv","","253","resources/trios/L4T1A3.jpg","37","restless",0.6,0.2,0.5,0.150016023746618,"true"
"image-keyboard-response",162,152218,"0.0-3.50-1.50","by0ltr49hznn1rq",350,"88.csv","","null","resources/maskTrios/L4BB.jpg","null","",NA,NA,NA,NA,""
"image-keyboard-response",163,153422,"0.0-3.50-2.50","by0ltr49hznn1rq",350,"88.csv","","null","resources/images/coin2.png","null","",NA,NA,NA,NA,""
"image-keyboard-response",164,153870,"0.0-3.51-0.51","by0ltr49hznn1rq",350,"88.csv","","446","resources/trios/L4T1A2.jpg","37","restless",0.7,0.2,0.5,0.352692052835268,"true"
"image-keyboard-response",165,154273,"0.0-3.51-1.51","by0ltr49hznn1rq",350,"88.csv","","null","resources/maskTrios/L4BB.jpg","null","",NA,NA,NA,NA,""
"image-keyboard-response",166,155476,"0.0-3.51-2.51","by0ltr49hznn1rq",350,"88.csv","","null","resources/images/coin2.png","null","",NA,NA,NA,NA,""
"image-keyboard-response",167,155743,"0.0-3.52-0.52","by0ltr49hznn1rq",350,"88.csv","","265","resources/trios/L4T2A2.jpg","37","restless",0.8,0.2,0.5,0.76821968081014,"true"
"image-keyboard-response",168,156146,"0.0-3.52-1.52","by0ltr49hznn1rq",350,"88.csv","","null","resources/maskTrios/L4BB.jpg","null","",NA,NA,NA,NA,""
"image-keyboard-response",169,157350,"0.0-3.52-2.52","by0ltr49hznn1rq",350,"88.csv","","null","resources/images/coin2.png","null","",NA,NA,NA,NA,""
"image-keyboard-response",170,157648,"0.0-3.53-0.53","by0ltr49hznn1rq",350,"88.csv","","295","resources/trios/L1T1A2.jpg","37","restless",0.8,0.2,0.5,0.492198383486729,"true"
"image-keyboard-response",171,158051,"0.0-3.53-1.53","by0ltr49hznn1rq",350,"88.csv","","null","resources/maskTrios/L1BB.jpg","null","",NA,NA,NA,NA,""
"image-keyboard-response",172,159254,"0.0-3.53-2.53","by0ltr49hznn1rq",350,"88.csv","","null","resources/images/coin2.png","null","",NA,NA,NA,NA,""
"image-keyboard-response",173,159612,"0.0-3.54-0.54","by0ltr49hznn1rq",350,"88.csv","","353","resources/trios/L4T2A2.jpg","37","restless",0.7,0.1,0.5,0.331397736714909,"true"
"image-keyboard-response",174,160016,"0.0-3.54-1.54","by0ltr49hznn1rq",350,"88.csv","","null","resources/maskTrios/L4BB.jpg","null","",NA,NA,NA,NA,""
"image-keyboard-response",175,161220,"0.0-3.54-2.54","by0ltr49hznn1rq",350,"88.csv","","null","resources/images/coin2.png","null","",NA,NA,NA,NA,""
"image-keyboard-response",176,161501,"0.0-3.55-0.55","by0ltr49hznn1rq",350,"88.csv","","278","resources/trios/L1T2A2.jpg","37","restless",0.7,0.1,0.5,0.760134055791153,"false"
"image-keyboard-response",177,161904,"0.0-3.55-1.55","by0ltr49hznn1rq",350,"88.csv","","null","resources/maskTrios/L1BB.jpg","null","",NA,NA,NA,NA,""
"image-keyboard-response",178,163107,"0.0-3.55-2.55","by0ltr49hznn1rq",350,"88.csv","","null","resources/images/fishbone.png","null","",NA,NA,NA,NA,""
"image-keyboard-response",179,163864,"0.0-3.56-0.56","by0ltr49hznn1rq",350,"88.csv","","755","resources/trios/L1T2A3.jpg","39","restless",0.7,0.1,0.5,0.929847501208952,"false"
"image-keyboard-response",180,164268,"0.0-3.56-1.56","by0ltr49hznn1rq",350,"88.csv","","null","resources/maskTrios/BBA3.jpg","null","",NA,NA,NA,NA,""
"image-keyboard-response",181,165470,"0.0-3.56-2.56","by0ltr49hznn1rq",350,"88.csv","","null","resources/images/fishbone.png","null","",NA,NA,NA,NA,""
"image-keyboard-response",182,165745,"0.0-3.57-0.57","by0ltr49hznn1rq",350,"88.csv","","272","resources/trios/L1T2A2.jpg","38","restless",0.7,0.1,0.5,0.480634200717259,"false"
"image-keyboard-response",183,166149,"0.0-3.57-1.57","by0ltr49hznn1rq",350,"88.csv","","null","resources/maskTrios/BT2B.jpg","null","",NA,NA,NA,NA,""
"image-keyboard-response",184,167352,"0.0-3.57-2.57","by0ltr49hznn1rq",350,"88.csv","","null","resources/images/fishbone.png","null","",NA,NA,NA,NA,""
"image-keyboard-response",185,167723,"0.0-3.58-0.58","by0ltr49hznn1rq",350,"88.csv","","369","resources/trios/L1T2A2.jpg","37","restless",0.7,0.1,0.5,0.868227446043881,"false"
"image-keyboard-response",186,168127,"0.0-3.58-1.58","by0ltr49hznn1rq",350,"88.csv","","null","resources/maskTrios/L1BB.jpg","null","",NA,NA,NA,NA,""
"image-keyboard-response",187,169330,"0.0-3.58-2.58","by0ltr49hznn1rq",350,"88.csv","","null","resources/images/fishbone.png","null","",NA,NA,NA,NA,""
"image-keyboard-response",188,169790,"0.0-3.59-0.59","by0ltr49hznn1rq",350,"88.csv","","458","resources/trios/L1T2A2.jpg","39","restless",0.7,0.1,0.5,0.706336905044425,"false"
"image-keyboard-response",189,170194,"0.0-3.59-1.59","by0ltr49hznn1rq",350,"88.csv","","null","resources/maskTrios/BBA2.jpg","null","",NA,NA,NA,NA,""
"image-keyboard-response",190,171397,"0.0-3.59-2.59","by0ltr49hznn1rq",350,"88.csv","","null","resources/images/fishbone.png","null","",NA,NA,NA,NA,""
"image-keyboard-response",191,171665,"0.0-3.60-0.60","by0ltr49hznn1rq",350,"88.csv","","265.9999999999709","resources/trios/L4T2A3.jpg","39","restless",0.6,0.2,0.5,0.567296934865292,"false"
"image-keyboard-response",192,172069,"0.0-3.60-1.60","by0ltr49hznn1rq",350,"88.csv","","null","resources/maskTrios/BBA3.jpg","null","",NA,NA,NA,NA,""
"image-keyboard-response",193,173272,"0.0-3.60-2.60","by0ltr49hznn1rq",350,"88.csv","","null","resources/images/fishbone.png","null","",NA,NA,NA,NA,""
"image-keyboard-response",194,173825,"0.0-3.61-0.61","by0ltr49hznn1rq",350,"88.csv","","549.9999999999709","resources/trios/L1T1A3.jpg","37","restless",0.6,0.2,0.5,0.0583409877957393,"true"
"image-keyboard-response",195,174231,"0.0-3.61-1.61","by0ltr49hznn1rq",350,"88.csv","","null","resources/maskTrios/L1BB.jpg","null","",NA,NA,NA,NA,""
"image-keyboard-response",196,175434,"0.0-3.61-2.61","by0ltr49hznn1rq",350,"88.csv","","null","resources/images/coin2.png","null","",NA,NA,NA,NA,""
"image-keyboard-response",197,175702,"0.0-3.62-0.62","by0ltr49hznn1rq",350,"88.csv","","264","resources/trios/L1T2A2.jpg","37","restless",0.6,0.2,0.5,0.896240171474791,"false"
"image-keyboard-response",198,176105,"0.0-3.62-1.62","by0ltr49hznn1rq",350,"88.csv","","null","resources/maskTrios/L1BB.jpg","null","",NA,NA,NA,NA,""
"image-keyboard-response",199,177308,"0.0-3.62-2.62","by0ltr49hznn1rq",350,"88.csv","","null","resources/images/fishbone.png","null","",NA,NA,NA,NA,""
"image-keyboard-response",200,177556,"0.0-3.63-0.63","by0ltr49hznn1rq",350,"88.csv","","245","resources/trios/L4T2A2.jpg","38","restless",0.6,0.2,0.5,0.767255522482323,"false"
"image-keyboard-response",201,177959,"0.0-3.63-1.63","by0ltr49hznn1rq",350,"88.csv","","null","resources/maskTrios/BT2B.jpg","null","",NA,NA,NA,NA,""
"image-keyboard-response",202,179162,"0.0-3.63-2.63","by0ltr49hznn1rq",350,"88.csv","","null","resources/images/fishbone.png","null","",NA,NA,NA,NA,""
"image-keyboard-response",203,179456,"0.0-3.64-0.64","by0ltr49hznn1rq",350,"88.csv","","291","resources/trios/L1T2A2.jpg","39","restless",0.7,0.3,0.5,0.396258879152906,"true"
"image-keyboard-response",204,179860,"0.0-3.64-1.64","by0ltr49hznn1rq",350,"88.csv","","null","resources/maskTrios/BBA2.jpg","null","",NA,NA,NA,NA,""
"image-keyboard-response",205,181063,"0.0-3.64-2.64","by0ltr49hznn1rq",350,"88.csv","","null","resources/images/coin2.png","null","",NA,NA,NA,NA,""
"image-keyboard-response",206,181490,"0.0-3.65-0.65","by0ltr49hznn1rq",350,"88.csv","","423.9999999999709","resources/trios/L4T2A3.jpg","39","restless",0.7,0.3,0.6,0.674323019926771,"false"
"image-keyboard-response",207,181893,"0.0-3.65-1.65","by0ltr49hznn1rq",350,"88.csv","","null","resources/maskTrios/BBA3.jpg","null","",NA,NA,NA,NA,""
"image-keyboard-response",208,183096,"0.0-3.65-2.65","by0ltr49hznn1rq",350,"88.csv","","null","resources/images/fishbone.png","null","",NA,NA,NA,NA,""
"image-keyboard-response",209,183561,"0.0-3.66-0.66","by0ltr49hznn1rq",350,"88.csv","","462","resources/trios/L4T1A2.jpg","37","restless",0.7,0.3,0.6,0.166374550316839,"true"
"image-keyboard-response",210,183964,"0.0-3.66-1.66","by0ltr49hznn1rq",350,"88.csv","","null","resources/maskTrios/L4BB.jpg","null","",NA,NA,NA,NA,""
"image-keyboard-response",211,185168,"0.0-3.66-2.66","by0ltr49hznn1rq",350,"88.csv","","null","resources/images/coin2.png","null","",NA,NA,NA,NA,""
"image-keyboard-response",212,185504,"0.0-3.67-0.67","by0ltr49hznn1rq",350,"88.csv","","334","resources/trios/L1T2A2.jpg","37","restless",0.7,0.3,0.6,0.350360623986996,"true"
"image-keyboard-response",213,185907,"0.0-3.67-1.67","by0ltr49hznn1rq",350,"88.csv","","null","resources/maskTrios/L1BB.jpg","null","",NA,NA,NA,NA,""
"image-keyboard-response",214,187110,"0.0-3.67-2.67","by0ltr49hznn1rq",350,"88.csv","","null","resources/images/coin2.png","null","",NA,NA,NA,NA,""
"image-keyboard-response",215,187464,"0.0-3.68-0.68","by0ltr49hznn1rq",350,"88.csv","","351","resources/trios/L1T1A3.jpg","37","restless",0.7,0.3,0.6,0.803797835039965,"false"
"image-keyboard-response",216,187867,"0.0-3.68-1.68","by0ltr49hznn1rq",350,"88.csv","","null","resources/maskTrios/L1BB.jpg","null","",NA,NA,NA,NA,""
"image-keyboard-response",217,189074,"0.0-3.68-2.68","by0ltr49hznn1rq",350,"88.csv","","null","resources/images/fishbone.png","null","",NA,NA,NA,NA,""
"image-keyboard-response",218,189449,"0.0-3.69-0.69","by0ltr49hznn1rq",350,"88.csv","","372","resources/trios/L1T1A2.jpg","39","restless",0.7,0.3,0.6,0.569031882328369,"true"
"image-keyboard-response",219,189853,"0.0-3.69-1.69","by0ltr49hznn1rq",350,"88.csv","","null","resources/maskTrios/BBA2.jpg","null","",NA,NA,NA,NA,""
"image-keyboard-response",220,191056,"0.0-3.69-2.69","by0ltr49hznn1rq",350,"88.csv","","null","resources/images/coin2.png","null","",NA,NA,NA,NA,""
"image-keyboard-response",221,191929,"0.0-3.70-0.70","by0ltr49hznn1rq",350,"88.csv","","870.0000000000291","resources/trios/L1T2A2.jpg","39","restless",0.7,0.3,0.6,0.18579426926672,"true"
"image-keyboard-response",222,192332,"0.0-3.70-1.70","by0ltr49hznn1rq",350,"88.csv","","null","resources/maskTrios/BBA2.jpg","null","",NA,NA,NA,NA,""
"image-keyboard-response",223,193540,"0.0-3.70-2.70","by0ltr49hznn1rq",350,"88.csv","","null","resources/images/coin2.png","null","",NA,NA,NA,NA,""
"image-keyboard-response",224,194050,"0.0-3.71-0.71","by0ltr49hznn1rq",350,"88.csv","","507","resources/trios/L1T1A2.jpg","39","restless",0.7,0.3,0.6,0.523080817751976,"true"
"image-keyboard-response",225,194453,"0.0-3.71-1.71","by0ltr49hznn1rq",350,"88.csv","","null","resources/maskTrios/BBA2.jpg","null","",NA,NA,NA,NA,""
"image-keyboard-response",226,195656,"0.0-3.71-2.71","by0ltr49hznn1rq",350,"88.csv","","null","resources/images/coin2.png","null","",NA,NA,NA,NA,""
"image-keyboard-response",227,196030,"0.0-3.72-0.72","by0ltr49hznn1rq",350,"88.csv","","371","resources/trios/L4T1A2.jpg","39","restless",0.7,0.3,0.6,0.369509226280084,"true"
"image-keyboard-response",228,196433,"0.0-3.72-1.72","by0ltr49hznn1rq",350,"88.csv","","null","resources/maskTrios/BBA2.jpg","null","",NA,NA,NA,NA,""
"image-keyboard-response",229,197637,"0.0-3.72-2.72","by0ltr49hznn1rq",350,"88.csv","","null","resources/images/coin2.png","null","",NA,NA,NA,NA,""
"image-keyboard-response",230,198444,"0.0-3.73-0.73","by0ltr49hznn1rq",350,"88.csv","","804","resources/trios/L4T2A3.jpg","39","restless",0.7,0.3,0.6,0.182815664963994,"true"
"image-keyboard-response",231,198847,"0.0-3.73-1.73","by0ltr49hznn1rq",350,"88.csv","","null","resources/maskTrios/BBA3.jpg","null","",NA,NA,NA,NA,""
"image-keyboard-response",232,200050,"0.0-3.73-2.73","by0ltr49hznn1rq",350,"88.csv","","null","resources/images/coin2.png","null","",NA,NA,NA,NA,""
"image-keyboard-response",233,200779,"0.0-3.74-0.74","by0ltr49hznn1rq",350,"88.csv","","726","resources/trios/L4T1A2.jpg","39","restless",0.7,0.3,0.6,0.679375708565317,"false"
"image-keyboard-response",234,201183,"0.0-3.74-1.74","by0ltr49hznn1rq",350,"88.csv","","null","resources/maskTrios/BBA2.jpg","null","",NA,NA,NA,NA,""
"image-keyboard-response",235,202386,"0.0-3.74-2.74","by0ltr49hznn1rq",350,"88.csv","","null","resources/images/fishbone.png","null","",NA,NA,NA,NA,""
"image-keyboard-response",236,202841,"0.0-3.75-0.75","by0ltr49hznn1rq",350,"88.csv","","452","resources/trios/L1T2A3.jpg","37","restless",0.7,0.3,0.6,0.310419682102173,"true"
"image-keyboard-response",237,203244,"0.0-3.75-1.75","by0ltr49hznn1rq",350,"88.csv","","null","resources/maskTrios/L1BB.jpg","null","",NA,NA,NA,NA,""
"image-keyboard-response",238,204448,"0.0-3.75-2.75","by0ltr49hznn1rq",350,"88.csv","","null","resources/images/coin2.png","null","",NA,NA,NA,NA,""
"image-keyboard-response",239,204783,"0.0-3.76-0.76","by0ltr49hznn1rq",350,"88.csv","","331","resources/trios/L1T2A3.jpg","37","restless",0.7,0.3,0.6,0.804552843644508,"false"
"image-keyboard-response",240,205187,"0.0-3.76-1.76","by0ltr49hznn1rq",350,"88.csv","","null","resources/maskTrios/L1BB.jpg","null","",NA,NA,NA,NA,""
"image-keyboard-response",241,206390,"0.0-3.76-2.76","by0ltr49hznn1rq",350,"88.csv","","null","resources/images/fishbone.png","null","",NA,NA,NA,NA,""
"image-keyboard-response",242,207163,"0.0-3.77-0.77","by0ltr49hznn1rq",350,"88.csv","","770.9999999999709","resources/trios/L1T2A2.jpg","38","restless",0.7,0.3,0.6,0.952636617647507,"false"
"image-keyboard-response",243,207567,"0.0-3.77-1.77","by0ltr49hznn1rq",350,"88.csv","","null","resources/maskTrios/BT2B.jpg","null","",NA,NA,NA,NA,""
"image-keyboard-response",244,208770,"0.0-3.77-2.77","by0ltr49hznn1rq",350,"88.csv","","null","resources/images/fishbone.png","null","",NA,NA,NA,NA,""
"image-keyboard-response",245,209400,"0.0-3.78-0.78","by0ltr49hznn1rq",350,"88.csv","","625.9999999999709","resources/trios/L1T1A3.jpg","38","restless",0.7,0.3,0.6,0.887525023934523,"false"
"image-keyboard-response",246,209803,"0.0-3.78-1.78","by0ltr49hznn1rq",350,"88.csv","","null","resources/maskTrios/BT1B.jpg","null","",NA,NA,NA,NA,""
"image-keyboard-response",247,211006,"0.0-3.78-2.78","by0ltr49hznn1rq",350,"88.csv","","null","resources/images/fishbone.png","null","",NA,NA,NA,NA,""
"image-keyboard-response",248,216128,"0.0-3.79-0.79","by0ltr49hznn1rq",350,"88.csv","","5119","resources/trios/L4T2A2.jpg","37","restless",0.7,0.3,0.6,0.659077268959798,"true"
"image-keyboard-response",249,216531,"0.0-3.79-1.79","by0ltr49hznn1rq",350,"88.csv","","null","resources/maskTrios/L4BB.jpg","null","",NA,NA,NA,NA,""
"image-keyboard-response",250,217734,"0.0-3.79-2.79","by0ltr49hznn1rq",350,"88.csv","","null","resources/images/coin2.png","null","",NA,NA,NA,NA,""
"image-keyboard-response",251,219155,"0.0-3.80-0.80","by0ltr49hznn1rq",350,"88.csv","","1418","resources/trios/L1T2A2.jpg","37","restless",0.7,0.3,0.6,0.184190680610729,"true"
"image-keyboard-response",252,219558,"0.0-3.80-1.80","by0ltr49hznn1rq",350,"88.csv","","null","resources/maskTrios/L1BB.jpg","null","",NA,NA,NA,NA,""
"image-keyboard-response",253,220761,"0.0-3.80-2.80","by0ltr49hznn1rq",350,"88.csv","","null","resources/images/coin2.png","null","",NA,NA,NA,NA,""
"image-keyboard-response",254,222486,"0.0-3.81-0.81","by0ltr49hznn1rq",350,"88.csv","","1722","resources/trios/L1T1A2.jpg","39","restless",0.7,0.3,0.6,0.560602265696109,"true"
"image-keyboard-response",255,222889,"0.0-3.81-1.81","by0ltr49hznn1rq",350,"88.csv","","null","resources/maskTrios/BBA2.jpg","null","",NA,NA,NA,NA,""
"image-keyboard-response",256,224093,"0.0-3.81-2.81","by0ltr49hznn1rq",350,"88.csv","","null","resources/images/coin2.png","null","",NA,NA,NA,NA,""
"image-keyboard-response",257,225486,"0.0-3.82-0.82","by0ltr49hznn1rq",350,"88.csv","","1390.999999999971","resources/trios/L1T2A3.jpg","37","restless",0.7,0.3,0.6,0.945850186460745,"false"
"image-keyboard-response",258,225893,"0.0-3.82-1.82","by0ltr49hznn1rq",350,"88.csv","","null","resources/maskTrios/L1BB.jpg","null","",NA,NA,NA,NA,""
"image-keyboard-response",259,227096,"0.0-3.82-2.82","by0ltr49hznn1rq",350,"88.csv","","null","resources/images/fishbone.png","null","",NA,NA,NA,NA,""
"image-keyboard-response",260,228131,"0.0-3.83-0.83","by0ltr49hznn1rq",350,"88.csv","","1031","resources/trios/L1T2A2.jpg","37","restless",0.7,0.3,0.6,0.210528231357141,"true"
"image-keyboard-response",261,228536,"0.0-3.83-1.83","by0ltr49hznn1rq",350,"88.csv","","null","resources/maskTrios/L1BB.jpg","null","",NA,NA,NA,NA,""
"image-keyboard-response",262,229740,"0.0-3.83-2.83","by0ltr49hznn1rq",350,"88.csv","","null","resources/images/coin2.png","null","",NA,NA,NA,NA,""
"image-keyboard-response",263,231003,"0.0-3.84-0.84","by0ltr49hznn1rq",350,"88.csv","","1260","resources/trios/L1T1A3.jpg","39","restless",0.7,0.3,0.6,0.872549430821858,"false"
"image-keyboard-response",264,231407,"0.0-3.84-1.84","by0ltr49hznn1rq",350,"88.csv","","null","resources/maskTrios/BBA3.jpg","null","",NA,NA,NA,NA,""
"image-keyboard-response",265,232610,"0.0-3.84-2.84","by0ltr49hznn1rq",350,"88.csv","","null","resources/images/fishbone.png","null","",NA,NA,NA,NA,""
"image-keyboard-response",266,232986,"0.0-3.85-0.85","by0ltr49hznn1rq",350,"88.csv","","372.9999999999709","resources/trios/L1T2A3.jpg","37","restless",0.7,0.3,0.6,0.0955384248484422,"true"
"image-keyboard-response",267,233389,"0.0-3.85-1.85","by0ltr49hznn1rq",350,"88.csv","","null","resources/maskTrios/L1BB.jpg","null","",NA,NA,NA,NA,""
"image-keyboard-response",268,234593,"0.0-3.85-2.85","by0ltr49hznn1rq",350,"88.csv","","null","resources/images/coin2.png","null","",NA,NA,NA,NA,""
"image-keyboard-response",269,235499,"0.0-3.86-0.86","by0ltr49hznn1rq",350,"88.csv","","903","resources/trios/L4T1A3.jpg","37","restless",0.7,0.3,0.6,0.0541870455091975,"true"
"image-keyboard-response",270,235905,"0.0-3.86-1.86","by0ltr49hznn1rq",350,"88.csv","","null","resources/maskTrios/L4BB.jpg","null","",NA,NA,NA,NA,""
"image-keyboard-response",271,237108,"0.0-3.86-2.86","by0ltr49hznn1rq",350,"88.csv","","null","resources/images/coin2.png","null","",NA,NA,NA,NA,""
"image-keyboard-response",272,237630,"0.0-3.87-0.87","by0ltr49hznn1rq",350,"88.csv","","520.0000000000291","resources/trios/L1T2A2.jpg","37","restless",0.7,0.3,0.6,0.579715005819676,"true"
"image-keyboard-response",273,238033,"0.0-3.87-1.87","by0ltr49hznn1rq",350,"88.csv","","null","resources/maskTrios/L1BB.jpg","null","",NA,NA,NA,NA,""
"image-keyboard-response",274,239236,"0.0-3.87-2.87","by0ltr49hznn1rq",350,"88.csv","","null","resources/images/coin2.png","null","",NA,NA,NA,NA,""
"image-keyboard-response",275,239868,"0.0-3.88-0.88","by0ltr49hznn1rq",350,"88.csv","","629","resources/trios/L1T2A3.jpg","37","restless",0.7,0.3,0.6,0.369359329929948,"true"
"image-keyboard-response",276,240271,"0.0-3.88-1.88","by0ltr49hznn1rq",350,"88.csv","","null","resources/maskTrios/L1BB.jpg","null","",NA,NA,NA,NA,""
"image-keyboard-response",277,241475,"0.0-3.88-2.88","by0ltr49hznn1rq",350,"88.csv","","null","resources/images/coin2.png","null","",NA,NA,NA,NA,""
"image-keyboard-response",278,241786,"0.0-3.89-0.89","by0ltr49hznn1rq",350,"88.csv","","305","resources/trios/L4T1A2.jpg","37","restless",0.7,0.3,0.6,0.125057201365646,"true"
"image-keyboard-response",279,242190,"0.0-3.89-1.89","by0ltr49hznn1rq",350,"88.csv","","null","resources/maskTrios/L4BB.jpg","null","",NA,NA,NA,NA,""
"image-keyboard-response",280,243393,"0.0-3.89-2.89","by0ltr49hznn1rq",350,"88.csv","","null","resources/images/coin2.png","null","",NA,NA,NA,NA,""
"image-keyboard-response",281,244044,"0.0-3.90-0.90","by0ltr49hznn1rq",350,"88.csv","","647","resources/trios/L1T2A2.jpg","37","restless",0.7,0.3,0.6,0.664994891585547,"true"
"image-keyboard-response",282,244447,"0.0-3.90-1.90","by0ltr49hznn1rq",350,"88.csv","","null","resources/maskTrios/L1BB.jpg","null","",NA,NA,NA,NA,""
"image-keyboard-response",283,245651,"0.0-3.90-2.90","by0ltr49hznn1rq",350,"88.csv","","null","resources/images/coin2.png","null","",NA,NA,NA,NA,""
"image-keyboard-response",284,245881,"0.0-3.91-0.91","by0ltr49hznn1rq",350,"88.csv","","227","resources/trios/L4T2A2.jpg","37","restless",0.7,0.3,0.6,0.646307903367861,"true"
"image-keyboard-response",285,246284,"0.0-3.91-1.91","by0ltr49hznn1rq",350,"88.csv","","null","resources/maskTrios/L4BB.jpg","null","",NA,NA,NA,NA,""
"image-keyboard-response",286,247488,"0.0-3.91-2.91","by0ltr49hznn1rq",350,"88.csv","","null","resources/images/coin2.png","null","",NA,NA,NA,NA,""
"image-keyboard-response",287,248036,"0.0-3.92-0.92","by0ltr49hznn1rq",350,"88.csv","","546","resources/trios/L1T2A3.jpg","37","restless",0.7,0.3,0.6,0.101311954167396,"true"
"image-keyboard-response",288,248440,"0.0-3.92-1.92","by0ltr49hznn1rq",350,"88.csv","","null","resources/maskTrios/L1BB.jpg","null","",NA,NA,NA,NA,""
"image-keyboard-response",289,249643,"0.0-3.92-2.92","by0ltr49hznn1rq",350,"88.csv","","null","resources/images/coin2.png","null","",NA,NA,NA,NA,""
"image-keyboard-response",290,249957,"0.0-3.93-0.93","by0ltr49hznn1rq",350,"88.csv","","309.0000000000291","resources/trios/L4T2A3.jpg","37","restless",0.7,0.3,0.6,0.50266797491597,"true"
"image-keyboard-response",291,250361,"0.0-3.93-1.93","by0ltr49hznn1rq",350,"88.csv","","null","resources/maskTrios/L4BB.jpg","null","",NA,NA,NA,NA,""
"image-keyboard-response",292,251564,"0.0-3.93-2.93","by0ltr49hznn1rq",350,"88.csv","","null","resources/images/coin2.png","null","",NA,NA,NA,NA,""
"image-keyboard-response",293,251888,"0.0-3.94-0.94","by0ltr49hznn1rq",350,"88.csv","","321","resources/trios/L1T1A2.jpg","37","restless",0.7,0.3,0.6,0.282631460000451,"true"
"image-keyboard-response",294,252292,"0.0-3.94-1.94","by0ltr49hznn1rq",350,"88.csv","","null","resources/maskTrios/L1BB.jpg","null","",NA,NA,NA,NA,""
"image-keyboard-response",295,253495,"0.0-3.94-2.94","by0ltr49hznn1rq",350,"88.csv","","null","resources/images/coin2.png","null","",NA,NA,NA,NA,""
"image-keyboard-response",296,253767,"0.0-3.95-0.95","by0ltr49hznn1rq",350,"88.csv","","270","resources/trios/L1T2A2.jpg","37","restless",0.7,0.3,0.6,0.130213423188705,"true"
"image-keyboard-response",297,254170,"0.0-3.95-1.95","by0ltr49hznn1rq",350,"88.csv","","null","resources/maskTrios/L1BB.jpg","null","",NA,NA,NA,NA,""
"image-keyboard-response",298,255374,"0.0-3.95-2.95","by0ltr49hznn1rq",350,"88.csv","","null","resources/images/coin2.png","null","",NA,NA,NA,NA,""
"image-keyboard-response",299,255623,"0.0-3.96-0.96","by0ltr49hznn1rq",350,"88.csv","","247","resources/trios/L1T2A2.jpg","37","restless",0.7,0.3,0.6,0.633939060513792,"true"
"image-keyboard-response",300,256027,"0.0-3.96-1.96","by0ltr49hznn1rq",350,"88.csv","","null","resources/maskTrios/L1BB.jpg","null","",NA,NA,NA,NA,""
"image-keyboard-response",301,257230,"0.0-3.96-2.96","by0ltr49hznn1rq",350,"88.csv","","null","resources/images/coin2.png","null","",NA,NA,NA,NA,""
"image-keyboard-response",302,257373,"0.0-3.97-0.97","by0ltr49hznn1rq",350,"88.csv","","139.9999999999709","resources/trios/L4T1A3.jpg","37","restless",0.7,0.3,0.6,0.953278941274233,"false"
"image-keyboard-response",303,257777,"0.0-3.97-1.97","by0ltr49hznn1rq",350,"88.csv","","null","resources/maskTrios/L4BB.jpg","null","",NA,NA,NA,NA,""
"image-keyboard-response",304,258980,"0.0-3.97-2.97","by0ltr49hznn1rq",350,"88.csv","","null","resources/images/fishbone.png","null","",NA,NA,NA,NA,""
"image-keyboard-response",305,260246,"0.0-3.98-0.98","by0ltr49hznn1rq",350,"88.csv","","1264","resources/trios/L4T1A2.jpg","39","restless",0.7,0.3,0.6,0.0770300985083078,"true"
"image-keyboard-response",306,260649,"0.0-3.98-1.98","by0ltr49hznn1rq",350,"88.csv","","null","resources/maskTrios/BBA2.jpg","null","",NA,NA,NA,NA,""
"image-keyboard-response",307,261853,"0.0-3.98-2.98","by0ltr49hznn1rq",350,"88.csv","","null","resources/images/coin2.png","null","",NA,NA,NA,NA,""
"image-keyboard-response",308,262349,"0.0-3.99-0.99","by0ltr49hznn1rq",350,"88.csv","","490","resources/trios/L4T2A3.jpg","39","restless",0.7,0.3,0.6,0.781008802324052,"false"
"image-keyboard-response",309,262752,"0.0-3.99-1.99","by0ltr49hznn1rq",350,"88.csv","","null","resources/maskTrios/BBA3.jpg","null","",NA,NA,NA,NA,""
"image-keyboard-response",310,263956,"0.0-3.99-2.99","by0ltr49hznn1rq",350,"88.csv","","null","resources/images/fishbone.png","null","",NA,NA,NA,NA,""
"image-keyboard-response",311,263977,"0.0-3.100-0.100","by0ltr49hznn1rq",350,"88.csv","","19","resources/trios/L4T2A3.jpg","37","restless",0.7,0.3,0.6,0.137672703272335,"true"
"image-keyboard-response",312,264380,"0.0-3.100-1.100","by0ltr49hznn1rq",350,"88.csv","","null","resources/maskTrios/L4BB.jpg","null","",NA,NA,NA,NA,""
"image-keyboard-response",313,265584,"0.0-3.100-2.100","by0ltr49hznn1rq",350,"88.csv","","null","resources/images/coin2.png","null","",NA,NA,NA,NA,""
"image-keyboard-response",314,265725,"0.0-3.101-0.101","by0ltr49hznn1rq",350,"88.csv","","139","resources/trios/L1T2A3.jpg","37","restless",0.7,0.3,0.6,0.385201937150251,"true"
"image-keyboard-response",315,266128,"0.0-3.101-1.101","by0ltr49hznn1rq",350,"88.csv","","null","resources/maskTrios/L1BB.jpg","null","",NA,NA,NA,NA,""
"image-keyboard-response",316,267331,"0.0-3.101-2.101","by0ltr49hznn1rq",350,"88.csv","","null","resources/images/coin2.png","null","",NA,NA,NA,NA,""
"image-keyboard-response",317,268343,"0.0-3.102-0.102","by0ltr49hznn1rq",350,"88.csv","","1009","resources/trios/L4T1A3.jpg","37","restless",0.7,0.3,0.6,0.403935374115938,"true"
"image-keyboard-response",318,268747,"0.0-3.102-1.102","by0ltr49hznn1rq",350,"88.csv","","null","resources/maskTrios/L4BB.jpg","null","",NA,NA,NA,NA,""
"image-keyboard-response",319,269950,"0.0-3.102-2.102","by0ltr49hznn1rq",350,"88.csv","","null","resources/images/coin2.png","null","",NA,NA,NA,NA,""
"image-keyboard-response",320,270375,"0.0-3.103-0.103","by0ltr49hznn1rq",350,"88.csv","","422","resources/trios/L1T2A2.jpg","37","restless",0.7,0.3,0.6,0.245207919570193,"true"
"image-keyboard-response",321,270778,"0.0-3.103-1.103","by0ltr49hznn1rq",350,"88.csv","","null","resources/maskTrios/L1BB.jpg","null","",NA,NA,NA,NA,""
"image-keyboard-response",322,271981,"0.0-3.103-2.103","by0ltr49hznn1rq",350,"88.csv","","null","resources/images/coin2.png","null","",NA,NA,NA,NA,""
"image-keyboard-response",323,272265,"0.0-3.104-0.104","by0ltr49hznn1rq",350,"88.csv","","282","resources/trios/L4T2A2.jpg","37","restless",0.7,0.3,0.6,0.864389247896828,"false"
"image-keyboard-response",324,272668,"0.0-3.104-1.104","by0ltr49hznn1rq",350,"88.csv","","null","resources/maskTrios/L4BB.jpg","null","",NA,NA,NA,NA,""
"image-keyboard-response",325,273871,"0.0-3.104-2.104","by0ltr49hznn1rq",350,"88.csv","","null","resources/images/fishbone.png","null","",NA,NA,NA,NA,""
"image-keyboard-response",326,273917,"0.0-3.105-0.105","by0ltr49hznn1rq",350,"88.csv","","44","resources/trios/L4T1A3.jpg","39","restless",0.7,0.3,0.6,0.400997108056742,"true"
"image-keyboard-response",327,274320,"0.0-3.105-1.105","by0ltr49hznn1rq",350,"88.csv","","null","resources/maskTrios/BBA3.jpg","null","",NA,NA,NA,NA,""
"image-keyboard-response",328,275526,"0.0-3.105-2.105","by0ltr49hznn1rq",350,"88.csv","","null","resources/images/coin2.png","null","",NA,NA,NA,NA,""
"image-keyboard-response",329,275905,"0.0-3.106-0.106","by0ltr49hznn1rq",350,"88.csv","","376","resources/trios/L4T2A2.jpg","39","restless",0.6,0.3,0.6,0.749927422955396,"false"
"image-keyboard-response",330,276309,"0.0-3.106-1.106","by0ltr49hznn1rq",350,"88.csv","","null","resources/maskTrios/BBA2.jpg","null","",NA,NA,NA,NA,""
"image-keyboard-response",331,277512,"0.0-3.106-2.106","by0ltr49hznn1rq",350,"88.csv","","null","resources/images/fishbone.png","null","",NA,NA,NA,NA,""
"image-keyboard-response",332,278125,"0.0-3.107-0.107","by0ltr49hznn1rq",350,"88.csv","","607","resources/trios/L4T1A3.jpg","37","restless",0.6,0.3,0.6,0.27944313685814,"true"
"image-keyboard-response",333,278529,"0.0-3.107-1.107","by0ltr49hznn1rq",350,"88.csv","","null","resources/maskTrios/L4BB.jpg","null","",NA,NA,NA,NA,""
"image-keyboard-response",334,279732,"0.0-3.107-2.107","by0ltr49hznn1rq",350,"88.csv","","null","resources/images/coin2.png","null","",NA,NA,NA,NA,""
"image-keyboard-response",335,280133,"0.0-3.108-0.108","by0ltr49hznn1rq",350,"88.csv","","397","resources/trios/L1T1A2.jpg","37","restless",0.6,0.3,0.6,0.810356865527674,"false"
"image-keyboard-response",336,280537,"0.0-3.108-1.108","by0ltr49hznn1rq",350,"88.csv","","null","resources/maskTrios/L1BB.jpg","null","",NA,NA,NA,NA,""
"image-keyboard-response",337,281740,"0.0-3.108-2.108","by0ltr49hznn1rq",350,"88.csv","","null","resources/images/fishbone.png","null","",NA,NA,NA,NA,""
"image-keyboard-response",338,282264,"0.0-3.109-0.109","by0ltr49hznn1rq",350,"88.csv","","521.0000000000582","resources/trios/L4T1A3.jpg","39","restless",0.6,0.3,0.6,0.237791754669041,"true"
"image-keyboard-response",339,282668,"0.0-3.109-1.109","by0ltr49hznn1rq",350,"88.csv","","null","resources/maskTrios/BBA3.jpg","null","",NA,NA,NA,NA,""
"image-keyboard-response",340,283871,"0.0-3.109-2.109","by0ltr49hznn1rq",350,"88.csv","","null","resources/images/coin2.png","null","",NA,NA,NA,NA,""
"image-keyboard-response",341,284471,"0.0-3.110-0.110","by0ltr49hznn1rq",350,"88.csv","","598","resources/trios/L1T1A2.jpg","39","restless",0.6,0.3,0.6,0.235339542530757,"true"
"image-keyboard-response",342,284874,"0.0-3.110-1.110","by0ltr49hznn1rq",350,"88.csv","","null","resources/maskTrios/BBA2.jpg","null","",NA,NA,NA,NA,""
"image-keyboard-response",343,286077,"0.0-3.110-2.110","by0ltr49hznn1rq",350,"88.csv","","null","resources/images/coin2.png","null","",NA,NA,NA,NA,""
"image-keyboard-response",344,288695,"0.0-3.111-0.111","by0ltr49hznn1rq",350,"88.csv","","2615","resources/trios/L1T1A3.jpg","37","restless",0.6,0.3,0.5,0.149161191235687,"true"
"image-keyboard-response",345,289098,"0.0-3.111-1.111","by0ltr49hznn1rq",350,"88.csv","","null","resources/maskTrios/L1BB.jpg","null","",NA,NA,NA,NA,""
"image-keyboard-response",346,290306,"0.0-3.111-2.111","by0ltr49hznn1rq",350,"88.csv","","null","resources/images/coin2.png","null","",NA,NA,NA,NA,""
"image-keyboard-response",347,291285,"0.0-3.112-0.112","by0ltr49hznn1rq",350,"88.csv","","976","resources/trios/L4T1A3.jpg","37","restless",0.6,0.3,0.5,0.113993143869098,"true"
"image-keyboard-response",348,291688,"0.0-3.112-1.112","by0ltr49hznn1rq",350,"88.csv","","null","resources/maskTrios/L4BB.jpg","null","",NA,NA,NA,NA,""
"image-keyboard-response",349,292892,"0.0-3.112-2.112","by0ltr49hznn1rq",350,"88.csv","","null","resources/images/coin2.png","null","",NA,NA,NA,NA,""
"image-keyboard-response",350,293760,"0.0-3.113-0.113","by0ltr49hznn1rq",350,"88.csv","","865","resources/trios/L4T1A3.jpg","37","restless",0.6,0.3,0.5,0.955617905162127,"false"
"image-keyboard-response",351,294162,"0.0-3.113-1.113","by0ltr49hznn1rq",350,"88.csv","","null","resources/maskTrios/L4BB.jpg","null","",NA,NA,NA,NA,""
"image-keyboard-response",352,295365,"0.0-3.113-2.113","by0ltr49hznn1rq",350,"88.csv","","null","resources/images/fishbone.png","null","",NA,NA,NA,NA,""
"image-keyboard-response",353,296187,"0.0-3.114-0.114","by0ltr49hznn1rq",350,"88.csv","","820","resources/trios/L4T2A3.jpg","39","restless",0.6,0.3,0.5,0.6674281725439,"false"
"image-keyboard-response",354,296591,"0.0-3.114-1.114","by0ltr49hznn1rq",350,"88.csv","","null","resources/maskTrios/BBA3.jpg","null","",NA,NA,NA,NA,""
"image-keyboard-response",355,297793,"0.0-3.114-2.114","by0ltr49hznn1rq",350,"88.csv","","null","resources/images/fishbone.png","null","",NA,NA,NA,NA,""
"image-keyboard-response",356,298437,"0.0-3.115-0.115","by0ltr49hznn1rq",350,"88.csv","","642","resources/trios/L4T2A2.jpg","39","restless",0.5,0.3,0.5,0.817782595741516,"false"
"image-keyboard-response",357,298840,"0.0-3.115-1.115","by0ltr49hznn1rq",350,"88.csv","","null","resources/maskTrios/BBA2.jpg","null","",NA,NA,NA,NA,""
"image-keyboard-response",358,300042,"0.0-3.115-2.115","by0ltr49hznn1rq",350,"88.csv","","null","resources/images/fishbone.png","null","",NA,NA,NA,NA,""
"image-keyboard-response",359,301876,"0.0-3.116-0.116","by0ltr49hznn1rq",350,"88.csv","","1829.0000000000582","resources/trios/L1T1A3.jpg","39","restless",0.5,0.3,0.5,0.609834939198221,"false"
"image-keyboard-response",360,302280,"0.0-3.116-1.116","by0ltr49hznn1rq",350,"88.csv","","null","resources/maskTrios/BBA3.jpg","null","",NA,NA,NA,NA,""
"image-keyboard-response",361,303482,"0.0-3.116-2.116","by0ltr49hznn1rq",350,"88.csv","","null","resources/images/fishbone.png","null","",NA,NA,NA,NA,""
"image-keyboard-response",362,304527,"0.0-3.117-0.117","by0ltr49hznn1rq",350,"88.csv","","1040.0000000000582","resources/trios/L1T1A2.jpg","37","restless",0.5,0.3,0.5,0.266706498369769,"true"
"image-keyboard-response",363,304930,"0.0-3.117-1.117","by0ltr49hznn1rq",350,"88.csv","","null","resources/maskTrios/L1BB.jpg","null","",NA,NA,NA,NA,""
"image-keyboard-response",364,306133,"0.0-3.117-2.117","by0ltr49hznn1rq",350,"88.csv","","null","resources/images/coin2.png","null","",NA,NA,NA,NA,""
"image-keyboard-response",365,307857,"0.0-3.118-0.118","by0ltr49hznn1rq",350,"88.csv","","1721","resources/trios/L4T2A3.jpg","37","restless",0.5,0.3,0.5,0.550721014351146,"false"
"image-keyboard-response",366,308260,"0.0-3.118-1.118","by0ltr49hznn1rq",350,"88.csv","","null","resources/maskTrios/L4BB.jpg","null","",NA,NA,NA,NA,""
"image-keyboard-response",367,309464,"0.0-3.118-2.118","by0ltr49hznn1rq",350,"88.csv","","null","resources/images/fishbone.png","null","",NA,NA,NA,NA,""
"image-keyboard-response",368,309920,"0.0-3.119-0.119","by0ltr49hznn1rq",350,"88.csv","","454","resources/trios/L4T1A3.jpg","39","restless",0.4,0.4,0.5,0.245399292633066,"true"
"image-keyboard-response",369,310324,"0.0-3.119-1.119","by0ltr49hznn1rq",350,"88.csv","","null","resources/maskTrios/BBA3.jpg","null","",NA,NA,NA,NA,""
"image-keyboard-response",370,311527,"0.0-3.119-2.119","by0ltr49hznn1rq",350,"88.csv","","null","resources/images/coin2.png","null","",NA,NA,NA,NA,""
"image-keyboard-response",371,312182,"0.0-3.120-0.120","by0ltr49hznn1rq",350,"88.csv","","651.9999999999418","resources/trios/L4T2A3.jpg","39","restless",0.4,0.4,0.5,0.225658418482522,"true"
"image-keyboard-response",372,312586,"0.0-3.120-1.120","by0ltr49hznn1rq",350,"88.csv","","null","resources/maskTrios/BBA3.jpg","null","",NA,NA,NA,NA,""
"image-keyboard-response",373,313789,"0.0-3.120-2.120","by0ltr49hznn1rq",350,"88.csv","","null","resources/images/coin2.png","null","",NA,NA,NA,NA,""
"image-keyboard-response",374,314811,"0.0-3.121-0.121","by0ltr49hznn1rq",350,"88.csv","","1018.9999999999418","resources/trios/L4T1A3.jpg","39","restless",0.4,0.5,0.5,0.621960597241149,"false"
"image-keyboard-response",375,315213,"0.0-3.121-1.121","by0ltr49hznn1rq",350,"88.csv","","null","resources/maskTrios/BBA3.jpg","null","",NA,NA,NA,NA,""
"image-keyboard-response",376,316416,"0.0-3.121-2.121","by0ltr49hznn1rq",350,"88.csv","","null","resources/images/fishbone.png","null","",NA,NA,NA,NA,""
"image-keyboard-response",377,316733,"0.0-3.122-0.122","by0ltr49hznn1rq",350,"88.csv","","315","resources/trios/L1T2A2.jpg","37","restless",0.4,0.5,0.5,0.838062054366428,"false"
"image-keyboard-response",378,317136,"0.0-3.122-1.122","by0ltr49hznn1rq",350,"88.csv","","null","resources/maskTrios/L1BB.jpg","null","",NA,NA,NA,NA,""
"image-keyboard-response",379,318339,"0.0-3.122-2.122","by0ltr49hznn1rq",350,"88.csv","","null","resources/images/fishbone.png","null","",NA,NA,NA,NA,""
"image-keyboard-response",380,318607,"0.0-3.123-0.123","by0ltr49hznn1rq",350,"88.csv","","261","resources/trios/L4T1A3.jpg","39","restless",0.4,0.5,0.4,0.930962191557453,"false"
"image-keyboard-response",381,319010,"0.0-3.123-1.123","by0ltr49hznn1rq",350,"88.csv","","null","resources/maskTrios/BBA3.jpg","null","",NA,NA,NA,NA,""
"image-keyboard-response",382,320213,"0.0-3.123-2.123","by0ltr49hznn1rq",350,"88.csv","","null","resources/images/fishbone.png","null","",NA,NA,NA,NA,""
"image-keyboard-response",383,320516,"0.0-3.124-0.124","by0ltr49hznn1rq",350,"88.csv","","300.9999999999418","resources/trios/L4T1A3.jpg","37","restless",0.4,0.5,0.3,0.475982991088168,"false"
"image-keyboard-response",384,320920,"0.0-3.124-1.124","by0ltr49hznn1rq",350,"88.csv","","null","resources/maskTrios/L4BB.jpg","null","",NA,NA,NA,NA,""
"image-keyboard-response",385,322122,"0.0-3.124-2.124","by0ltr49hznn1rq",350,"88.csv","","null","resources/images/fishbone.png","null","",NA,NA,NA,NA,""
"image-keyboard-response",386,322378,"0.0-3.125-0.125","by0ltr49hznn1rq",350,"88.csv","","253","resources/trios/L4T1A3.jpg","39","restless",0.4,0.5,0.3,0.135944247468384,"true"
"image-keyboard-response",387,322781,"0.0-3.125-1.125","by0ltr49hznn1rq",350,"88.csv","","null","resources/maskTrios/BBA3.jpg","null","",NA,NA,NA,NA,""
"image-keyboard-response",388,323984,"0.0-3.125-2.125","by0ltr49hznn1rq",350,"88.csv","","null","resources/images/coin2.png","null","",NA,NA,NA,NA,""
"image-keyboard-response",389,324302,"0.0-3.126-0.126","by0ltr49hznn1rq",350,"88.csv","","315","resources/trios/L4T1A3.jpg","39","restless",0.4,0.5,0.3,0.263226910196837,"true"
"image-keyboard-response",390,324705,"0.0-3.126-1.126","by0ltr49hznn1rq",350,"88.csv","","null","resources/maskTrios/BBA3.jpg","null","",NA,NA,NA,NA,""
"image-keyboard-response",391,325909,"0.0-3.126-2.126","by0ltr49hznn1rq",350,"88.csv","","null","resources/images/coin2.png","null","",NA,NA,NA,NA,""
"image-keyboard-response",392,326191,"0.0-3.127-0.127","by0ltr49hznn1rq",350,"88.csv","","279","resources/trios/L1T1A3.jpg","39","restless",0.4,0.5,0.3,0.0653096957480073,"true"
"image-keyboard-response",393,326594,"0.0-3.127-1.127","by0ltr49hznn1rq",350,"88.csv","","null","resources/maskTrios/BBA3.jpg","null","",NA,NA,NA,NA,""
"image-keyboard-response",394,327800,"0.0-3.127-2.127","by0ltr49hznn1rq",350,"88.csv","","null","resources/images/coin2.png","null","",NA,NA,NA,NA,""
"image-keyboard-response",395,328056,"0.0-3.128-0.128","by0ltr49hznn1rq",350,"88.csv","","253","resources/trios/L1T2A3.jpg","39","restless",0.4,0.5,0.3,0.704382951452966,"false"
"image-keyboard-response",396,328460,"0.0-3.128-1.128","by0ltr49hznn1rq",350,"88.csv","","null","resources/maskTrios/BBA3.jpg","null","",NA,NA,NA,NA,""
"image-keyboard-response",397,329663,"0.0-3.128-2.128","by0ltr49hznn1rq",350,"88.csv","","null","resources/images/fishbone.png","null","",NA,NA,NA,NA,""
"image-keyboard-response",398,330143,"0.0-3.129-0.129","by0ltr49hznn1rq",350,"88.csv","","477","resources/trios/L4T1A3.jpg","37","restless",0.4,0.6,0.3,0.552633909147238,"false"
"image-keyboard-response",399,330546,"0.0-3.129-1.129","by0ltr49hznn1rq",350,"88.csv","","null","resources/maskTrios/L4BB.jpg","null","",NA,NA,NA,NA,""
"image-keyboard-response",400,331749,"0.0-3.129-2.129","by0ltr49hznn1rq",350,"88.csv","","null","resources/images/fishbone.png","null","",NA,NA,NA,NA,""
"image-keyboard-response",401,332067,"0.0-3.130-0.130","by0ltr49hznn1rq",350,"88.csv","","311","resources/trios/L4T1A2.jpg","39","restless",0.4,0.6,0.3,0.319034455829879,"false"
"image-keyboard-response",402,332470,"0.0-3.130-1.130","by0ltr49hznn1rq",350,"88.csv","","null","resources/maskTrios/BBA2.jpg","null","",NA,NA,NA,NA,""
"image-keyboard-response",403,333673,"0.0-3.130-2.130","by0ltr49hznn1rq",350,"88.csv","","null","resources/images/fishbone.png","null","",NA,NA,NA,NA,""
"image-keyboard-response",404,333800,"0.0-3.131-0.131","by0ltr49hznn1rq",350,"88.csv","","123","resources/trios/L4T2A3.jpg","38","restless",0.4,0.6,0.3,0.208018286677652,"true"
"image-keyboard-response",405,334204,"0.0-3.131-1.131","by0ltr49hznn1rq",350,"88.csv","","null","resources/maskTrios/BT2B.jpg","null","",NA,NA,NA,NA,""
"image-keyboard-response",406,335407,"0.0-3.131-2.131","by0ltr49hznn1rq",350,"88.csv","","null","resources/images/coin2.png","null","",NA,NA,NA,NA,""
"image-keyboard-response",407,335706,"0.0-3.132-0.132","by0ltr49hznn1rq",350,"88.csv","","296","resources/trios/L1T1A3.jpg","38","restless",0.4,0.6,0.3,0.426082152846973,"true"
"image-keyboard-response",408,336110,"0.0-3.132-1.132","by0ltr49hznn1rq",350,"88.csv","","null","resources/maskTrios/BT1B.jpg","null","",NA,NA,NA,NA,""
"image-keyboard-response",409,337313,"0.0-3.132-2.132","by0ltr49hznn1rq",350,"88.csv","","null","resources/images/coin2.png","null","",NA,NA,NA,NA,""
"image-keyboard-response",410,337581,"0.0-3.133-0.133","by0ltr49hznn1rq",350,"88.csv","","264.9999999999418","resources/trios/L1T2A3.jpg","38","restless",0.4,0.6,0.3,0.731531236441149,"false"
"image-keyboard-response",411,337984,"0.0-3.133-1.133","by0ltr49hznn1rq",350,"88.csv","","null","resources/maskTrios/BT2B.jpg","null","",NA,NA,NA,NA,""
"image-keyboard-response",412,339187,"0.0-3.133-2.133","by0ltr49hznn1rq",350,"88.csv","","null","resources/images/fishbone.png","null","",NA,NA,NA,NA,""
"image-keyboard-response",413,339497,"0.0-3.134-0.134","by0ltr49hznn1rq",350,"88.csv","","305","resources/trios/L4T2A3.jpg","37","restless",0.4,0.6,0.3,0.412370109619906,"false"
"image-keyboard-response",414,339901,"0.0-3.134-1.134","by0ltr49hznn1rq",350,"88.csv","","null","resources/maskTrios/L4BB.jpg","null","",NA,NA,NA,NA,""
"image-keyboard-response",415,341104,"0.0-3.134-2.134","by0ltr49hznn1rq",350,"88.csv","","null","resources/images/fishbone.png","null","",NA,NA,NA,NA,""
"image-keyboard-response",416,341402,"0.0-3.135-0.135","by0ltr49hznn1rq",350,"88.csv","","295","resources/trios/L4T2A2.jpg","39","restless",0.4,0.6,0.4,0.220516137974245,"true"
"image-keyboard-response",417,341805,"0.0-3.135-1.135","by0ltr49hznn1rq",350,"88.csv","","null","resources/maskTrios/BBA2.jpg","null","",NA,NA,NA,NA,""
"image-keyboard-response",418,343009,"0.0-3.135-2.135","by0ltr49hznn1rq",350,"88.csv","","null","resources/images/coin2.png","null","",NA,NA,NA,NA,""
"image-keyboard-response",419,343364,"0.0-3.136-0.136","by0ltr49hznn1rq",350,"88.csv","","353","resources/trios/L1T1A3.jpg","39","restless",0.4,0.6,0.4,0.630517342878637,"false"
"image-keyboard-response",420,343768,"0.0-3.136-1.136","by0ltr49hznn1rq",350,"88.csv","","null","resources/maskTrios/BBA3.jpg","null","",NA,NA,NA,NA,""
"image-keyboard-response",421,344971,"0.0-3.136-2.136","by0ltr49hznn1rq",350,"88.csv","","null","resources/images/fishbone.png","null","",NA,NA,NA,NA,""
"image-keyboard-response",422,345289,"0.0-3.137-0.137","by0ltr49hznn1rq",350,"88.csv","","315","resources/trios/L1T1A2.jpg","38","restless",0.4,0.6,0.4,0.463769774746532,"true"
"image-keyboard-response",423,345693,"0.0-3.137-1.137","by0ltr49hznn1rq",350,"88.csv","","null","resources/maskTrios/BT1B.jpg","null","",NA,NA,NA,NA,""
"image-keyboard-response",424,346896,"0.0-3.137-2.137","by0ltr49hznn1rq",350,"88.csv","","null","resources/images/coin2.png","null","",NA,NA,NA,NA,""
"image-keyboard-response",425,347145,"0.0-3.138-0.138","by0ltr49hznn1rq",350,"88.csv","","245.9999999999418","resources/trios/L4T1A3.jpg","38","restless",0.3,0.6,0.4,0.47773011133512,"true"
"image-keyboard-response",426,347549,"0.0-3.138-1.138","by0ltr49hznn1rq",350,"88.csv","","null","resources/maskTrios/BT1B.jpg","null","",NA,NA,NA,NA,""
"image-keyboard-response",427,348752,"0.0-3.138-2.138","by0ltr49hznn1rq",350,"88.csv","","null","resources/images/coin2.png","null","",NA,NA,NA,NA,""
"image-keyboard-response",428,349182,"0.0-3.139-0.139","by0ltr49hznn1rq",350,"88.csv","","427","resources/trios/L1T1A2.jpg","38","restless",0.3,0.6,0.4,0.332201295389607,"true"
"image-keyboard-response",429,349585,"0.0-3.139-1.139","by0ltr49hznn1rq",350,"88.csv","","null","resources/maskTrios/BT1B.jpg","null","",NA,NA,NA,NA,""
"image-keyboard-response",430,350789,"0.0-3.139-2.139","by0ltr49hznn1rq",350,"88.csv","","null","resources/images/coin2.png","null","",NA,NA,NA,NA,""
"image-keyboard-response",431,351173,"0.0-3.140-0.140","by0ltr49hznn1rq",350,"88.csv","","382","resources/trios/L1T1A2.jpg","38","restless",0.3,0.6,0.4,0.437549878611221,"true"
"image-keyboard-response",432,351577,"0.0-3.140-1.140","by0ltr49hznn1rq",350,"88.csv","","null","resources/maskTrios/BT1B.jpg","null","",NA,NA,NA,NA,""
"image-keyboard-response",433,352780,"0.0-3.140-2.140","by0ltr49hznn1rq",350,"88.csv","","null","resources/images/coin2.png","null","",NA,NA,NA,NA,""
"image-keyboard-response",434,353041,"0.0-3.141-0.141","by0ltr49hznn1rq",350,"88.csv","","257","resources/trios/L1T1A3.jpg","38","restless",0.3,0.6,0.4,0.782152338204554,"false"
"image-keyboard-response",435,353444,"0.0-3.141-1.141","by0ltr49hznn1rq",350,"88.csv","","null","resources/maskTrios/BT1B.jpg","null","",NA,NA,NA,NA,""
"image-keyboard-response",436,354647,"0.0-3.141-2.141","by0ltr49hznn1rq",350,"88.csv","","null","resources/images/fishbone.png","null","",NA,NA,NA,NA,""
"image-keyboard-response",437,355030,"0.0-3.142-0.142","by0ltr49hznn1rq",350,"88.csv","","377","resources/trios/L4T1A3.jpg","37","restless",0.2,0.6,0.4,0.328618884483226,"false"
"image-keyboard-response",438,355434,"0.0-3.142-1.142","by0ltr49hznn1rq",350,"88.csv","","null","resources/maskTrios/L4BB.jpg","null","",NA,NA,NA,NA,""
"image-keyboard-response",439,356637,"0.0-3.142-2.142","by0ltr49hznn1rq",350,"88.csv","","null","resources/images/fishbone.png","null","",NA,NA,NA,NA,""
"image-keyboard-response",440,357011,"0.0-3.143-0.143","by0ltr49hznn1rq",350,"88.csv","","371","resources/trios/L4T1A3.jpg","38","restless",0.2,0.6,0.4,0.0129333338798611,"true"
"image-keyboard-response",441,357415,"0.0-3.143-1.143","by0ltr49hznn1rq",350,"88.csv","","null","resources/maskTrios/BT1B.jpg","null","",NA,NA,NA,NA,""
"image-keyboard-response",442,358618,"0.0-3.143-2.143","by0ltr49hznn1rq",350,"88.csv","","null","resources/images/coin2.png","null","",NA,NA,NA,NA,""
"image-keyboard-response",443,358940,"0.0-3.144-0.144","by0ltr49hznn1rq",350,"88.csv","","319.0000000000582","resources/trios/L1T1A3.jpg","38","restless",0.2,0.5,0.4,0.861354117945461,"false"
"image-keyboard-response",444,359343,"0.0-3.144-1.144","by0ltr49hznn1rq",350,"88.csv","","null","resources/maskTrios/BT1B.jpg","null","",NA,NA,NA,NA,""
"image-keyboard-response",445,360547,"0.0-3.144-2.144","by0ltr49hznn1rq",350,"88.csv","","null","resources/images/fishbone.png","null","",NA,NA,NA,NA,""
"image-keyboard-response",446,360576,"0.0-3.145-0.145","by0ltr49hznn1rq",350,"88.csv","","27","resources/trios/L1T1A3.jpg","38","restless",0.3,0.5,0.4,0.438139142012188,"true"
"image-keyboard-response",447,360978,"0.0-3.145-1.145","by0ltr49hznn1rq",350,"88.csv","","null","resources/maskTrios/BT1B.jpg","null","",NA,NA,NA,NA,""
"image-keyboard-response",448,362181,"0.0-3.145-2.145","by0ltr49hznn1rq",350,"88.csv","","null","resources/images/coin2.png","null","",NA,NA,NA,NA,""
"image-keyboard-response",449,362710,"0.0-3.146-0.146","by0ltr49hznn1rq",350,"88.csv","","526","resources/trios/L1T2A2.jpg","38","restless",0.3,0.5,0.4,0.267773403352492,"true"
"image-keyboard-response",450,363115,"0.0-3.146-1.146","by0ltr49hznn1rq",350,"88.csv","","null","resources/maskTrios/BT2B.jpg","null","",NA,NA,NA,NA,""
"image-keyboard-response",451,364318,"0.0-3.146-2.146","by0ltr49hznn1rq",350,"88.csv","","null","resources/images/coin2.png","null","",NA,NA,NA,NA,""
"image-keyboard-response",452,364662,"0.0-3.147-0.147","by0ltr49hznn1rq",350,"88.csv","","341","resources/trios/L4T1A3.jpg","38","restless",0.2,0.5,0.4,0.645171141716374,"false"
"image-keyboard-response",453,365066,"0.0-3.147-1.147","by0ltr49hznn1rq",350,"88.csv","","null","resources/maskTrios/BT1B.jpg","null","",NA,NA,NA,NA,""
"image-keyboard-response",454,366269,"0.0-3.147-2.147","by0ltr49hznn1rq",350,"88.csv","","null","resources/images/fishbone.png","null","",NA,NA,NA,NA,""
"image-keyboard-response",455,366616,"0.0-3.148-0.148","by0ltr49hznn1rq",350,"88.csv","","344","resources/trios/L4T1A3.jpg","39","restless",0.2,0.5,0.4,0.54679796626619,"false"
"image-keyboard-response",456,367019,"0.0-3.148-1.148","by0ltr49hznn1rq",350,"88.csv","","null","resources/maskTrios/BBA3.jpg","null","",NA,NA,NA,NA,""
"image-keyboard-response",457,368222,"0.0-3.148-2.148","by0ltr49hznn1rq",350,"88.csv","","null","resources/images/fishbone.png","null","",NA,NA,NA,NA,""
"image-keyboard-response",458,368570,"0.0-3.149-0.149","by0ltr49hznn1rq",350,"88.csv","","343.9999999999418","resources/trios/L1T2A2.jpg","37","restless",0.2,0.5,0.4,0.378263604940214,"false"
"image-keyboard-response",459,368974,"0.0-3.149-1.149","by0ltr49hznn1rq",350,"88.csv","","null","resources/maskTrios/L1BB.jpg","null","",NA,NA,NA,NA,""
"image-keyboard-response",460,370176,"0.0-3.149-2.149","by0ltr49hznn1rq",350,"88.csv","","null","resources/images/fishbone.png","null","",NA,NA,NA,NA,""
"image-keyboard-response",461,370317,"0.0-3.150-0.150","by0ltr49hznn1rq",350,"88.csv","","138","resources/trios/L1T1A2.jpg","38","restless",0.2,0.5,0.4,0.171934916009649,"true"
"image-keyboard-response",462,370720,"0.0-3.150-1.150","by0ltr49hznn1rq",350,"88.csv","","null","resources/maskTrios/BT1B.jpg","null","",NA,NA,NA,NA,""
"image-keyboard-response",463,371923,"0.0-3.150-2.150","by0ltr49hznn1rq",350,"88.csv","","null","resources/images/coin2.png","null","",NA,NA,NA,NA,""
"image-keyboard-response",464,372034,"0.0-3.151-0.151","by0ltr49hznn1rq",350,"88.csv","","109","resources/trios/L4T2A3.jpg","38","restless",0.2,0.5,0.4,0.101497704898486,"true"
"image-keyboard-response",465,372438,"0.0-3.151-1.151","by0ltr49hznn1rq",350,"88.csv","","null","resources/maskTrios/BT2B.jpg","null","",NA,NA,NA,NA,""
"image-keyboard-response",466,373641,"0.0-3.151-2.151","by0ltr49hznn1rq",350,"88.csv","","null","resources/images/coin2.png","null","",NA,NA,NA,NA,""
"image-keyboard-response",467,374017,"0.0-3.152-0.152","by0ltr49hznn1rq",350,"88.csv","","370","resources/trios/L1T2A2.jpg","38","restless",0.2,0.5,0.5,0.441046078667604,"true"
"image-keyboard-response",468,374421,"0.0-3.152-1.152","by0ltr49hznn1rq",350,"88.csv","","null","resources/maskTrios/BT2B.jpg","null","",NA,NA,NA,NA,""
"image-keyboard-response",469,375624,"0.0-3.152-2.152","by0ltr49hznn1rq",350,"88.csv","","null","resources/images/coin2.png","null","",NA,NA,NA,NA,""
"image-keyboard-response",470,376063,"0.0-3.153-0.153","by0ltr49hznn1rq",350,"88.csv","","436","resources/trios/L4T2A3.jpg","39","restless",0.2,0.5,0.5,0.676724419004086,"false"
"image-keyboard-response",471,376467,"0.0-3.153-1.153","by0ltr49hznn1rq",350,"88.csv","","null","resources/maskTrios/BBA3.jpg","null","",NA,NA,NA,NA,""
"image-keyboard-response",472,377670,"0.0-3.153-2.153","by0ltr49hznn1rq",350,"88.csv","","null","resources/images/fishbone.png","null","",NA,NA,NA,NA,""
"image-keyboard-response",473,378014,"0.0-3.154-0.154","by0ltr49hznn1rq",350,"88.csv","","340.9999999999418","resources/trios/L4T2A3.jpg","38","restless",0.3,0.6,0.5,0.269732985758644,"true"
"image-keyboard-response",474,378418,"0.0-3.154-1.154","by0ltr49hznn1rq",350,"88.csv","","null","resources/maskTrios/BT2B.jpg","null","",NA,NA,NA,NA,""
"image-keyboard-response",475,379621,"0.0-3.154-2.154","by0ltr49hznn1rq",350,"88.csv","","null","resources/images/coin2.png","null","",NA,NA,NA,NA,""
"image-keyboard-response",476,379922,"0.0-3.155-0.155","by0ltr49hznn1rq",350,"88.csv","","294","resources/trios/L1T2A2.jpg","38","restless",0.3,0.6,0.5,0.890593984198098,"false"
"image-keyboard-response",477,380325,"0.0-3.155-1.155","by0ltr49hznn1rq",350,"88.csv","","null","resources/maskTrios/BT2B.jpg","null","",NA,NA,NA,NA,""
"image-keyboard-response",478,381528,"0.0-3.155-2.155","by0ltr49hznn1rq",350,"88.csv","","null","resources/images/fishbone.png","null","",NA,NA,NA,NA,""
"image-keyboard-response",479,381749,"0.0-3.156-0.156","by0ltr49hznn1rq",350,"88.csv","","217","resources/trios/L4T2A2.jpg","37","restless",0.4,0.6,0.5,0.321084780465824,"true"
"image-keyboard-response",480,382152,"0.0-3.156-1.156","by0ltr49hznn1rq",350,"88.csv","","null","resources/maskTrios/L4BB.jpg","null","",NA,NA,NA,NA,""
"image-keyboard-response",481,383356,"0.0-3.156-2.156","by0ltr49hznn1rq",350,"88.csv","","null","resources/images/coin2.png","null","",NA,NA,NA,NA,""
"image-keyboard-response",482,383394,"0.0-3.157-0.157","by0ltr49hznn1rq",350,"88.csv","","35","resources/trios/L1T1A2.jpg","37","restless",0.4,0.6,0.5,0.296814020983013,"true"
"image-keyboard-response",483,383796,"0.0-3.157-1.157","by0ltr49hznn1rq",350,"88.csv","","null","resources/maskTrios/L1BB.jpg","null","",NA,NA,NA,NA,""
"image-keyboard-response",484,384999,"0.0-3.157-2.157","by0ltr49hznn1rq",350,"88.csv","","null","resources/images/coin2.png","null","",NA,NA,NA,NA,""
"image-keyboard-response",485,385108,"0.0-3.158-0.158","by0ltr49hznn1rq",350,"88.csv","","104","resources/trios/L4T2A2.jpg","37","restless",0.4,0.6,0.6,0.00478050201391778,"true"
"image-keyboard-response",486,385511,"0.0-3.158-1.158","by0ltr49hznn1rq",350,"88.csv","","null","resources/maskTrios/L4BB.jpg","null","",NA,NA,NA,NA,""
"image-keyboard-response",487,386715,"0.0-3.158-2.158","by0ltr49hznn1rq",350,"88.csv","","null","resources/images/coin2.png","null","",NA,NA,NA,NA,""
"image-keyboard-response",488,386805,"0.0-3.159-0.159","by0ltr49hznn1rq",350,"88.csv","","87","resources/trios/L1T2A2.jpg","37","restless",0.4,0.6,0.6,0.439743289225879,"false"
"image-keyboard-response",489,387208,"0.0-3.159-1.159","by0ltr49hznn1rq",350,"88.csv","","null","resources/maskTrios/L1BB.jpg","null","",NA,NA,NA,NA,""
"image-keyboard-response",490,388411,"0.0-3.159-2.159","by0ltr49hznn1rq",350,"88.csv","","null","resources/images/fishbone.png","null","",NA,NA,NA,NA,""
"image-keyboard-response",491,388519,"0.0-3.160-0.160","by0ltr49hznn1rq",350,"88.csv","","105","resources/trios/L1T1A3.jpg","38","restless",0.4,0.6,0.6,0.019347771068875,"true"
"image-keyboard-response",492,388922,"0.0-3.160-1.160","by0ltr49hznn1rq",350,"88.csv","","null","resources/maskTrios/BT1B.jpg","null","",NA,NA,NA,NA,""
"image-keyboard-response",493,390126,"0.0-3.160-2.160","by0ltr49hznn1rq",350,"88.csv","","null","resources/images/coin2.png","null","",NA,NA,NA,NA,""
"image-keyboard-response",494,390178,"0.0-3.161-0.161","by0ltr49hznn1rq",350,"88.csv","","49","resources/trios/L4T1A3.jpg","38","restless",0.4,0.6,0.6,0.388992777950437,"true"
"image-keyboard-response",495,390581,"0.0-3.161-1.161","by0ltr49hznn1rq",350,"88.csv","","null","resources/maskTrios/BT1B.jpg","null","",NA,NA,NA,NA,""
"image-keyboard-response",496,391784,"0.0-3.161-2.161","by0ltr49hznn1rq",350,"88.csv","","null","resources/images/coin2.png","null","",NA,NA,NA,NA,""
"image-keyboard-response",497,391888,"0.0-3.162-0.162","by0ltr49hznn1rq",350,"88.csv","","101","resources/trios/L4T1A2.jpg","38","restless",0.4,0.6,0.6,0.234167466025247,"true"
"image-keyboard-response",498,392292,"0.0-3.162-1.162","by0ltr49hznn1rq",350,"88.csv","","null","resources/maskTrios/BT1B.jpg","null","",NA,NA,NA,NA,""
"image-keyboard-response",499,393494,"0.0-3.162-2.162","by0ltr49hznn1rq",350,"88.csv","","null","resources/images/coin2.png","null","",NA,NA,NA,NA,""
"image-keyboard-response",500,393693,"0.0-3.163-0.163","by0ltr49hznn1rq",350,"88.csv","","196","resources/trios/L4T1A2.jpg","38","restless",0.4,0.6,0.6,0.21209912899622,"true"
"image-keyboard-response",501,394097,"0.0-3.163-1.163","by0ltr49hznn1rq",350,"88.csv","","null","resources/maskTrios/BT1B.jpg","null","",NA,NA,NA,NA,""
"image-keyboard-response",502,395300,"0.0-3.163-2.163","by0ltr49hznn1rq",350,"88.csv","","null","resources/images/coin2.png","null","",NA,NA,NA,NA,""
"image-keyboard-response",503,395360,"0.0-3.164-0.164","by0ltr49hznn1rq",350,"88.csv","","57.99999999994179","resources/trios/L4T2A3.jpg","38","restless",0.4,0.6,0.6,0.764324566623597,"false"
"image-keyboard-response",504,395762,"0.0-3.164-1.164","by0ltr49hznn1rq",350,"88.csv","","null","resources/maskTrios/BT2B.jpg","null","",NA,NA,NA,NA,""
"image-keyboard-response",505,396965,"0.0-3.164-2.164","by0ltr49hznn1rq",350,"88.csv","","null","resources/images/fishbone.png","null","",NA,NA,NA,NA,""
"image-keyboard-response",506,396967,"0.0-3.165-0.165","by0ltr49hznn1rq",350,"88.csv","","0","resources/trios/L4T2A2.jpg","39","restless",0.4,0.6,0.6,0.575059863769286,"true"
"image-keyboard-response",507,397369,"0.0-3.165-1.165","by0ltr49hznn1rq",350,"88.csv","","null","resources/maskTrios/BBA2.jpg","null","",NA,NA,NA,NA,""
"image-keyboard-response",508,398572,"0.0-3.165-2.165","by0ltr49hznn1rq",350,"88.csv","","null","resources/images/coin2.png","null","",NA,NA,NA,NA,""
"image-keyboard-response",509,398722,"0.0-3.166-0.166","by0ltr49hznn1rq",350,"88.csv","","147","resources/trios/L4T1A2.jpg","39","restless",0.4,0.6,0.6,0.588204219613818,"true"
"image-keyboard-response",510,399126,"0.0-3.166-1.166","by0ltr49hznn1rq",350,"88.csv","","null","resources/maskTrios/BBA2.jpg","null","",NA,NA,NA,NA,""
"image-keyboard-response",511,400332,"0.0-3.166-2.166","by0ltr49hznn1rq",350,"88.csv","","null","resources/images/coin2.png","null","",NA,NA,NA,NA,""
"image-keyboard-response",512,400341,"0.0-3.167-0.167","by0ltr49hznn1rq",350,"88.csv","","6","resources/trios/L1T1A3.jpg","39","restless",0.4,0.6,0.6,0.867801095934495,"false"
"image-keyboard-response",513,400743,"0.0-3.167-1.167","by0ltr49hznn1rq",350,"88.csv","","null","resources/maskTrios/BBA3.jpg","null","",NA,NA,NA,NA,""
"image-keyboard-response",514,401949,"0.0-3.167-2.167","by0ltr49hznn1rq",350,"88.csv","","null","resources/images/fishbone.png","null","",NA,NA,NA,NA,""
"image-keyboard-response",515,402121,"0.0-3.168-0.168","by0ltr49hznn1rq",350,"88.csv","","171","resources/trios/L4T2A2.jpg","37","restless",0.4,0.7,0.6,0.0796707679719507,"true"
"image-keyboard-response",516,402524,"0.0-3.168-1.168","by0ltr49hznn1rq",350,"88.csv","","null","resources/maskTrios/L4BB.jpg","null","",NA,NA,NA,NA,""
"image-keyboard-response",517,403727,"0.0-3.168-2.168","by0ltr49hznn1rq",350,"88.csv","","null","resources/images/coin2.png","null","",NA,NA,NA,NA,""
"image-keyboard-response",518,403858,"0.0-3.169-0.169","by0ltr49hznn1rq",350,"88.csv","","128","resources/trios/L1T2A3.jpg","37","restless",0.5,0.7,0.6,0.861273059667368,"false"
"image-keyboard-response",519,404261,"0.0-3.169-1.169","by0ltr49hznn1rq",350,"88.csv","","null","resources/maskTrios/L1BB.jpg","null","",NA,NA,NA,NA,""
"image-keyboard-response",520,405464,"0.0-3.169-2.169","by0ltr49hznn1rq",350,"88.csv","","null","resources/images/fishbone.png","null","",NA,NA,NA,NA,""
"image-keyboard-response",521,405927,"0.0-3.170-0.170","by0ltr49hznn1rq",350,"88.csv","","459","resources/trios/L4T2A3.jpg","38","restless",0.5,0.7,0.6,0.761584668239557,"false"
"image-keyboard-response",522,406330,"0.0-3.170-1.170","by0ltr49hznn1rq",350,"88.csv","","null","resources/maskTrios/BT2B.jpg","null","",NA,NA,NA,NA,""
"image-keyboard-response",523,407533,"0.0-3.170-2.170","by0ltr49hznn1rq",350,"88.csv","","null","resources/images/fishbone.png","null","",NA,NA,NA,NA,""
"image-keyboard-response",524,407711,"0.0-3.171-0.171","by0ltr49hznn1rq",350,"88.csv","","175","resources/trios/L4T2A3.jpg","39","restless",0.6,0.7,0.5,0.0568845356895514,"true"
"image-keyboard-response",525,408114,"0.0-3.171-1.171","by0ltr49hznn1rq",350,"88.csv","","null","resources/maskTrios/BBA3.jpg","null","",NA,NA,NA,NA,""
"image-keyboard-response",526,409318,"0.0-3.171-2.171","by0ltr49hznn1rq",350,"88.csv","","null","resources/images/coin2.png","null","",NA,NA,NA,NA,""
"image-keyboard-response",527,409414,"0.0-3.172-0.172","by0ltr49hznn1rq",350,"88.csv","","94","resources/trios/L4T1A3.jpg","39","restless",0.6,0.7,0.6,0.948106957897702,"false"
"image-keyboard-response",528,409819,"0.0-3.172-1.172","by0ltr49hznn1rq",350,"88.csv","","null","resources/maskTrios/BBA3.jpg","null","",NA,NA,NA,NA,""
"image-keyboard-response",529,411022,"0.0-3.172-2.172","by0ltr49hznn1rq",350,"88.csv","","null","resources/images/fishbone.png","null","",NA,NA,NA,NA,""
"image-keyboard-response",530,411212,"0.0-3.173-0.173","by0ltr49hznn1rq",350,"88.csv","","187","resources/trios/L4T2A3.jpg","39","restless",0.5,0.7,0.6,0.057972733259443,"true"
"image-keyboard-response",531,411615,"0.0-3.173-1.173","by0ltr49hznn1rq",350,"88.csv","","null","resources/maskTrios/BBA3.jpg","null","",NA,NA,NA,NA,""
"image-keyboard-response",532,412819,"0.0-3.173-2.173","by0ltr49hznn1rq",350,"88.csv","","null","resources/images/coin2.png","null","",NA,NA,NA,NA,""
"image-keyboard-response",533,412978,"0.0-3.174-0.174","by0ltr49hznn1rq",350,"88.csv","","156","resources/trios/L4T1A3.jpg","39","restless",0.5,0.7,0.6,0.208098439557074,"true"
"image-keyboard-response",534,413382,"0.0-3.174-1.174","by0ltr49hznn1rq",350,"88.csv","","null","resources/maskTrios/BBA3.jpg","null","",NA,NA,NA,NA,""
"image-keyboard-response",535,414585,"0.0-3.174-2.174","by0ltr49hznn1rq",350,"88.csv","","null","resources/images/coin2.png","null","",NA,NA,NA,NA,""
"image-keyboard-response",536,414766,"0.0-3.175-0.175","by0ltr49hznn1rq",350,"88.csv","","174","resources/trios/L4T2A3.jpg","39","restless",0.5,0.7,0.6,0.620969781724886,"false"
"image-keyboard-response",537,415169,"0.0-3.175-1.175","by0ltr49hznn1rq",350,"88.csv","","null","resources/maskTrios/BBA3.jpg","null","",NA,NA,NA,NA,""
"image-keyboard-response",538,416372,"0.0-3.175-2.175","by0ltr49hznn1rq",350,"88.csv","","null","resources/images/fishbone.png","null","",NA,NA,NA,NA,""
"image-keyboard-response",539,416391,"0.0-3.176-0.176","by0ltr49hznn1rq",350,"88.csv","","17","resources/trios/L1T2A2.jpg","38","restless",0.5,0.7,0.6,0.427056321626138,"true"
"image-keyboard-response",540,416794,"0.0-3.176-1.176","by0ltr49hznn1rq",350,"88.csv","","null","resources/maskTrios/BT2B.jpg","null","",NA,NA,NA,NA,""
"image-keyboard-response",541,417998,"0.0-3.176-2.176","by0ltr49hznn1rq",350,"88.csv","","null","resources/images/coin2.png","null","",NA,NA,NA,NA,""
"image-keyboard-response",542,418141,"0.0-3.177-0.177","by0ltr49hznn1rq",350,"88.csv","","140","resources/trios/L4T1A2.jpg","38","restless",0.5,0.7,0.6,0.0956624559786192,"true"
"image-keyboard-response",543,418545,"0.0-3.177-1.177","by0ltr49hznn1rq",350,"88.csv","","null","resources/maskTrios/BT1B.jpg","null","",NA,NA,NA,NA,""
"image-keyboard-response",544,419748,"0.0-3.177-2.177","by0ltr49hznn1rq",350,"88.csv","","null","resources/images/coin2.png","null","",NA,NA,NA,NA,""
"image-keyboard-response",545,419852,"0.0-3.178-0.178","by0ltr49hznn1rq",350,"88.csv","","102","resources/trios/L1T1A3.jpg","38","restless",0.5,0.6,0.5,0.454395225731167,"true"
"image-keyboard-response",546,420256,"0.0-3.178-1.178","by0ltr49hznn1rq",350,"88.csv","","null","resources/maskTrios/BT1B.jpg","null","",NA,NA,NA,NA,""
"image-keyboard-response",547,421459,"0.0-3.178-2.178","by0ltr49hznn1rq",350,"88.csv","","null","resources/images/coin2.png","null","",NA,NA,NA,NA,""
"image-keyboard-response",548,421620,"0.0-3.179-0.179","by0ltr49hznn1rq",350,"88.csv","","158","resources/trios/L1T2A2.jpg","38","restless",0.5,0.7,0.5,0.78335769683253,"false"
"image-keyboard-response",549,422023,"0.0-3.179-1.179","by0ltr49hznn1rq",350,"88.csv","","null","resources/maskTrios/BT2B.jpg","null","",NA,NA,NA,NA,""
"image-keyboard-response",550,423226,"0.0-3.179-2.179","by0ltr49hznn1rq",350,"88.csv","","null","resources/images/fishbone.png","null","",NA,NA,NA,NA,""
"image-keyboard-response",551,423338,"0.0-3.180-0.180","by0ltr49hznn1rq",350,"88.csv","","109.00000000005821","resources/trios/L4T1A2.jpg","37","restless",0.5,0.7,0.5,0.801790598275921,"false"
"image-keyboard-response",552,423741,"0.0-3.180-1.180","by0ltr49hznn1rq",350,"88.csv","","null","resources/maskTrios/L4BB.jpg","null","",NA,NA,NA,NA,""
"image-keyboard-response",553,424944,"0.0-3.180-2.180","by0ltr49hznn1rq",350,"88.csv","","null","resources/images/fishbone.png","null","",NA,NA,NA,NA,""
"image-keyboard-response",554,425086,"0.0-3.181-0.181","by0ltr49hznn1rq",350,"88.csv","","139","resources/trios/L4T2A2.jpg","37","restless",0.5,0.7,0.5,0.224455173938814,"true"
"image-keyboard-response",555,425489,"0.0-3.181-1.181","by0ltr49hznn1rq",350,"88.csv","","null","resources/maskTrios/L4BB.jpg","null","",NA,NA,NA,NA,""
"image-keyboard-response",556,426692,"0.0-3.181-2.181","by0ltr49hznn1rq",350,"88.csv","","null","resources/images/coin2.png","null","",NA,NA,NA,NA,""
"image-keyboard-response",557,426801,"0.0-3.182-0.182","by0ltr49hznn1rq",350,"88.csv","","104.99999999994179","resources/trios/L1T1A3.jpg","37","restless",0.6,0.7,0.5,0.58357681308022,"true"
"image-keyboard-response",558,427205,"0.0-3.182-1.182","by0ltr49hznn1rq",350,"88.csv","","null","resources/maskTrios/L1BB.jpg","null","",NA,NA,NA,NA,""
"image-keyboard-response",559,428408,"0.0-3.182-2.182","by0ltr49hznn1rq",350,"88.csv","","null","resources/images/coin2.png","null","",NA,NA,NA,NA,""
"image-keyboard-response",560,428584,"0.0-3.183-0.183","by0ltr49hznn1rq",350,"88.csv","","172","resources/trios/L4T1A3.jpg","37","restless",0.6,0.7,0.5,0.381520604624732,"true"
"image-keyboard-response",561,428988,"0.0-3.183-1.183","by0ltr49hznn1rq",350,"88.csv","","null","resources/maskTrios/L4BB.jpg","null","",NA,NA,NA,NA,""
"image-keyboard-response",562,430191,"0.0-3.183-2.183","by0ltr49hznn1rq",350,"88.csv","","null","resources/images/coin2.png","null","",NA,NA,NA,NA,""
"image-keyboard-response",563,430301,"0.0-3.184-0.184","by0ltr49hznn1rq",350,"88.csv","","106","resources/trios/L1T1A2.jpg","37","restless",0.6,0.7,0.5,0.273689266908115,"true"
"image-keyboard-response",564,430704,"0.0-3.184-1.184","by0ltr49hznn1rq",350,"88.csv","","null","resources/maskTrios/L1BB.jpg","null","",NA,NA,NA,NA,""
"image-keyboard-response",565,431908,"0.0-3.184-2.184","by0ltr49hznn1rq",350,"88.csv","","null","resources/images/coin2.png","null","",NA,NA,NA,NA,""
"image-keyboard-response",566,431998,"0.0-3.185-0.185","by0ltr49hznn1rq",350,"88.csv","","87","resources/trios/L4T2A3.jpg","37","restless",0.6,0.7,0.5,0.238902223525671,"true"
"image-keyboard-response",567,432401,"0.0-3.185-1.185","by0ltr49hznn1rq",350,"88.csv","","null","resources/maskTrios/L4BB.jpg","null","",NA,NA,NA,NA,""
"image-keyboard-response",568,433604,"0.0-3.185-2.185","by0ltr49hznn1rq",350,"88.csv","","null","resources/images/coin2.png","null","",NA,NA,NA,NA,""
"image-keyboard-response",569,433797,"0.0-3.186-0.186","by0ltr49hznn1rq",350,"88.csv","","187","resources/trios/L1T2A3.jpg","37","restless",0.6,0.7,0.5,0.637431029069096,"false"
"image-keyboard-response",570,434201,"0.0-3.186-1.186","by0ltr49hznn1rq",350,"88.csv","","null","resources/maskTrios/L1BB.jpg","null","",NA,NA,NA,NA,""
"image-keyboard-response",571,435404,"0.0-3.186-2.186","by0ltr49hznn1rq",350,"88.csv","","null","resources/images/fishbone.png","null","",NA,NA,NA,NA,""
"image-keyboard-response",572,435449,"0.0-3.187-0.187","by0ltr49hznn1rq",350,"88.csv","","41","resources/trios/L1T1A2.jpg","39","restless",0.6,0.8,0.5,0.975051008172615,"false"
"image-keyboard-response",573,435851,"0.0-3.187-1.187","by0ltr49hznn1rq",350,"88.csv","","null","resources/maskTrios/BBA2.jpg","null","",NA,NA,NA,NA,""
"image-keyboard-response",574,437054,"0.0-3.187-2.187","by0ltr49hznn1rq",350,"88.csv","","null","resources/images/fishbone.png","null","",NA,NA,NA,NA,""
"image-keyboard-response",575,437158,"0.0-3.188-0.188","by0ltr49hznn1rq",350,"88.csv","","102","resources/trios/L1T2A3.jpg","39","restless",0.5,0.8,0.5,0.332212698575972,"true"
"image-keyboard-response",576,437561,"0.0-3.188-1.188","by0ltr49hznn1rq",350,"88.csv","","null","resources/maskTrios/BBA3.jpg","null","",NA,NA,NA,NA,""
"image-keyboard-response",577,438765,"0.0-3.188-2.188","by0ltr49hznn1rq",350,"88.csv","","null","resources/images/coin2.png","null","",NA,NA,NA,NA,""
"image-keyboard-response",578,438790,"0.0-3.189-0.189","by0ltr49hznn1rq",350,"88.csv","","21.000000000058208","resources/trios/L1T2A2.jpg","39","restless",0.5,0.8,0.5,0.788574008295217,"false"
"image-keyboard-response",579,439192,"0.0-3.189-1.189","by0ltr49hznn1rq",350,"88.csv","","null","resources/maskTrios/BBA2.jpg","null","",NA,NA,NA,NA,""
"image-keyboard-response",580,440395,"0.0-3.189-2.189","by0ltr49hznn1rq",350,"88.csv","","null","resources/images/fishbone.png","null","",NA,NA,NA,NA,""
"image-keyboard-response",581,440498,"0.0-3.190-0.190","by0ltr49hznn1rq",350,"88.csv","","101","resources/trios/L1T2A3.jpg","38","restless",0.5,0.8,0.4,0.395821549863493,"true"
"image-keyboard-response",582,440901,"0.0-3.190-1.190","by0ltr49hznn1rq",350,"88.csv","","null","resources/maskTrios/BT2B.jpg","null","",NA,NA,NA,NA,""
"image-keyboard-response",583,442105,"0.0-3.190-2.190","by0ltr49hznn1rq",350,"88.csv","","null","resources/images/coin2.png","null","",NA,NA,NA,NA,""
"image-keyboard-response",584,442306,"0.0-3.191-0.191","by0ltr49hznn1rq",350,"88.csv","","199","resources/trios/L1T2A2.jpg","38","restless",0.5,0.8,0.4,0.100681620004616,"true"
"image-keyboard-response",585,442712,"0.0-3.191-1.191","by0ltr49hznn1rq",350,"88.csv","","null","resources/maskTrios/BT2B.jpg","null","",NA,NA,NA,NA,""
"image-keyboard-response",586,443915,"0.0-3.191-2.191","by0ltr49hznn1rq",350,"88.csv","","null","resources/images/coin2.png","null","",NA,NA,NA,NA,""
"image-keyboard-response",587,444318,"0.0-3.192-0.192","by0ltr49hznn1rq",350,"88.csv","","401","resources/trios/L1T2A3.jpg","38","restless",0.5,0.8,0.4,0.599223384606108,"true"
"image-keyboard-response",588,444722,"0.0-3.192-1.192","by0ltr49hznn1rq",350,"88.csv","","null","resources/maskTrios/BT2B.jpg","null","",NA,NA,NA,NA,""
"image-keyboard-response",589,445925,"0.0-3.192-2.192","by0ltr49hznn1rq",350,"88.csv","","null","resources/images/coin2.png","null","",NA,NA,NA,NA,""
"image-keyboard-response",590,446068,"0.0-3.193-0.193","by0ltr49hznn1rq",350,"88.csv","","140","resources/trios/L1T2A2.jpg","38","restless",0.4,0.8,0.4,0.718026784337992,"true"
"image-keyboard-response",591,446472,"0.0-3.193-1.193","by0ltr49hznn1rq",350,"88.csv","","null","resources/maskTrios/BT2B.jpg","null","",NA,NA,NA,NA,""
"image-keyboard-response",592,447675,"0.0-3.193-2.193","by0ltr49hznn1rq",350,"88.csv","","null","resources/images/coin2.png","null","",NA,NA,NA,NA,""
"image-keyboard-response",593,447709,"0.0-3.194-0.194","by0ltr49hznn1rq",350,"88.csv","","30","resources/trios/L4T2A3.jpg","38","restless",0.4,0.8,0.4,0.244649819482648,"true"
"image-keyboard-response",594,448112,"0.0-3.194-1.194","by0ltr49hznn1rq",350,"88.csv","","null","resources/maskTrios/BT2B.jpg","null","",NA,NA,NA,NA,""
"image-keyboard-response",595,449315,"0.0-3.194-2.194","by0ltr49hznn1rq",350,"88.csv","","null","resources/images/coin2.png","null","",NA,NA,NA,NA,""
"image-keyboard-response",596,449361,"0.0-3.195-0.195","by0ltr49hznn1rq",350,"88.csv","","43.00000000005821","resources/trios/L4T1A3.jpg","38","restless",0.4,0.8,0.4,0.880660624310886,"false"
"image-keyboard-response",597,449763,"0.0-3.195-1.195","by0ltr49hznn1rq",350,"88.csv","","null","resources/maskTrios/BT1B.jpg","null","",NA,NA,NA,NA,""
"image-keyboard-response",598,450966,"0.0-3.195-2.195","by0ltr49hznn1rq",350,"88.csv","","null","resources/images/fishbone.png","null","",NA,NA,NA,NA,""
"image-keyboard-response",599,451102,"0.0-3.196-0.196","by0ltr49hznn1rq",350,"88.csv","","132.9999999999418","resources/trios/L4T1A2.jpg","37","restless",0.4,0.8,0.4,0.877196045405543,"false"
"image-keyboard-response",600,451505,"0.0-3.196-1.196","by0ltr49hznn1rq",350,"88.csv","","null","resources/maskTrios/L4BB.jpg","null","",NA,NA,NA,NA,""
"image-keyboard-response",601,452708,"0.0-3.196-2.196","by0ltr49hznn1rq",350,"88.csv","","null","resources/images/fishbone.png","null","",NA,NA,NA,NA,""
"image-keyboard-response",602,452924,"0.0-3.197-0.197","by0ltr49hznn1rq",350,"88.csv","","213","resources/trios/L4T1A3.jpg","37","restless",0.4,0.8,0.4,0.232589745669299,"true"
"image-keyboard-response",603,453328,"0.0-3.197-1.197","by0ltr49hznn1rq",350,"88.csv","","null","resources/maskTrios/L4BB.jpg","null","",NA,NA,NA,NA,""
"image-keyboard-response",604,454531,"0.0-3.197-2.197","by0ltr49hznn1rq",350,"88.csv","","null","resources/images/coin2.png","null","",NA,NA,NA,NA,""
"image-keyboard-response",605,454681,"0.0-3.198-0.198","by0ltr49hznn1rq",350,"88.csv","","146.9999999999418","resources/trios/L1T1A3.jpg","37","restless",0.4,0.8,0.4,0.209340924933108,"true"
"image-keyboard-response",606,455085,"0.0-3.198-1.198","by0ltr49hznn1rq",350,"88.csv","","null","resources/maskTrios/L1BB.jpg","null","",NA,NA,NA,NA,""
"image-keyboard-response",607,456288,"0.0-3.198-2.198","by0ltr49hznn1rq",350,"88.csv","","null","resources/images/coin2.png","null","",NA,NA,NA,NA,""
"image-keyboard-response",608,456476,"0.0-3.199-0.199","by0ltr49hznn1rq",350,"88.csv","","185","resources/trios/L1T1A3.jpg","37","restless",0.4,0.8,0.4,0.279125251309078,"true"
"image-keyboard-response",609,456879,"0.0-3.199-1.199","by0ltr49hznn1rq",350,"88.csv","","null","resources/maskTrios/L1BB.jpg","null","",NA,NA,NA,NA,""
"image-keyboard-response",610,458082,"0.0-3.199-2.199","by0ltr49hznn1rq",350,"88.csv","","null","resources/images/coin2.png","null","",NA,NA,NA,NA,""
"image-keyboard-response",611,458091,"0.0-3.200-0.200","by0ltr49hznn1rq",350,"88.csv","","4","resources/trios/L1T1A2.jpg","37","restless",0.4,0.8,0.4,0.555132483244587,"false"
"image-keyboard-response",612,458494,"0.0-3.200-1.200","by0ltr49hznn1rq",350,"88.csv","","null","resources/maskTrios/L1BB.jpg","null","",NA,NA,NA,NA,""
"image-keyboard-response",613,459696,"0.0-3.200-2.200","by0ltr49hznn1rq",350,"88.csv","","null","resources/images/fishbone.png","null","",NA,NA,NA,NA,""
"image-keyboard-response",614,459854,"0.0-3.201-0.201","by0ltr49hznn1rq",350,"88.csv","","155","resources/trios/L4T1A2.jpg","38","restless",0.5,0.7,0.4,0.817156330350424,"false"
"image-keyboard-response",615,460257,"0.0-3.201-1.201","by0ltr49hznn1rq",350,"88.csv","","null","resources/maskTrios/BT1B.jpg","null","",NA,NA,NA,NA,""
"image-keyboard-response",616,461460,"0.0-3.201-2.201","by0ltr49hznn1rq",350,"88.csv","","null","resources/images/fishbone.png","null","",NA,NA,NA,NA,""
"image-keyboard-response",617,461487,"0.0-3.202-0.202","by0ltr49hznn1rq",350,"88.csv","","26","resources/trios/L1T2A3.jpg","39","restless",0.5,0.8,0.3,0.157140035817609,"true"
"image-keyboard-response",618,461888,"0.0-3.202-1.202","by0ltr49hznn1rq",350,"88.csv","","null","resources/maskTrios/BBA3.jpg","null","",NA,NA,NA,NA,""
"image-keyboard-response",619,463091,"0.0-3.202-2.202","by0ltr49hznn1rq",350,"88.csv","","null","resources/images/coin2.png","null","",NA,NA,NA,NA,""
"image-keyboard-response",620,463261,"0.0-3.203-0.203","by0ltr49hznn1rq",350,"88.csv","","165","resources/trios/L4T1A2.jpg","37","restless",0.5,0.8,0.3,0.148278996944716,"true"
"image-keyboard-response",621,463665,"0.0-3.203-1.203","by0ltr49hznn1rq",350,"88.csv","","null","resources/maskTrios/L4BB.jpg","null","",NA,NA,NA,NA,""
