"trial_type","trial_index","time_elapsed","internal_node_id","subject","participantCode","walkNumber","success","rt","stimulus","key_press","test_part","leftProb","midProb","rightProb","generatedNum","correct"
"pavlovia",0,1490,"0.0-0.0","b312u5z1cp08zr7",936,"99.csv","","","","","",NA,NA,NA,NA,""
"fullscreen",1,48561,"0.0-1.0","b312u5z1cp08zr7",936,"99.csv","true","","","","",NA,NA,NA,NA,""
"html-keyboard-response",2,53795,"0.0-2.0-0.0","b312u5z1cp08zr7",936,"99.csv","","5233","<p><font size='6'>Arrrgh!</p></font><p>Can you be the best pirate? Try to find lots of gold! But beware, some islands have more gold than others, and over time, the island with the most gold may change. Can YOU figure it out? </p><font size='6'>GOOD LUCK, CAPTAIN!!!</font><p>Press any key to begin</p>","32","",NA,NA,NA,NA,""
"image-keyboard-response",3,56797,"0.0-2.0-1.0","b312u5z1cp08zr7",936,"99.csv","","null","resources/image_sets/111.png","null","",NA,NA,NA,NA,""
"image-keyboard-response",4,60351,"0.0-2.0-2.0","b312u5z1cp08zr7",936,"99.csv","","3553","resources/image_sets/left_highlight.png","37","",NA,NA,NA,NA,""
"image-keyboard-response",5,62054,"0.0-2.0-3.0","b312u5z1cp08zr7",936,"99.csv","","1702","resources/image_sets/mid_highlight.png","38","",NA,NA,NA,NA,""
"image-keyboard-response",6,63768,"0.0-2.0-4.0","b312u5z1cp08zr7",936,"99.csv","","1714","resources/image_sets/right_highlight.png","39","",NA,NA,NA,NA,""
"image-keyboard-response",7,66323,"0.0-2.0-5.0","b312u5z1cp08zr7",936,"99.csv","","2553","resources/image_sets/111.png","13","",NA,NA,NA,NA,""
"image-keyboard-response",8,68958,"0.0-2.0-6.0","b312u5z1cp08zr7",936,"99.csv","","2633","resources/images/coin2.png","13","",NA,NA,NA,NA,""
"image-keyboard-response",9,70504,"0.0-2.0-7.0","b312u5z1cp08zr7",936,"99.csv","","1544","resources/images/fishbone.png","13","",NA,NA,NA,NA,""
"html-keyboard-response",10,75115,"0.0-2.0-8.0","b312u5z1cp08zr7",936,"99.csv","","4610","<p>Your first journey will be a long one, but you will get a well deserved break at the end</p><p>After the break you will have four more journeys, but each will be much shorter than the first, and you will have breaks in between each</p><p>Press Enter to begin</p>","13","",NA,NA,NA,NA,""
"image-keyboard-response",11,76433,"0.0-3.0-0.0","b312u5z1cp08zr7",936,"99.csv","","1317","resources/trios/L4T2A2.jpg","37","restless",0.9,0.3,0.7,0.562927671310779,"true"
"image-keyboard-response",12,76837,"0.0-3.0-1.0","b312u5z1cp08zr7",936,"99.csv","","null","resources/maskTrios/L4BB.jpg","null","",NA,NA,NA,NA,""
"image-keyboard-response",13,78040,"0.0-3.0-2.0","b312u5z1cp08zr7",936,"99.csv","","null","resources/images/coin2.png","null","",NA,NA,NA,NA,""
"image-keyboard-response",14,80867,"0.0-3.1-0.1","b312u5z1cp08zr7",936,"99.csv","","2825","resources/trios/L4T2A1.jpg","38","restless",0.9,0.3,0.7,0.26712733208656,"true"
"image-keyboard-response",15,81270,"0.0-3.1-1.1","b312u5z1cp08zr7",936,"99.csv","","null","resources/maskTrios/BT2B.jpg","null","",NA,NA,NA,NA,""
"image-keyboard-response",16,82473,"0.0-3.1-2.1","b312u5z1cp08zr7",936,"99.csv","","null","resources/images/coin2.png","null","",NA,NA,NA,NA,""
"image-keyboard-response",17,82931,"0.0-3.2-0.2","b312u5z1cp08zr7",936,"99.csv","","457.00000000001455","resources/trios/L2T2A1.jpg","39","restless",0.9,0.3,0.7,0.201085619514058,"true"
"image-keyboard-response",18,83334,"0.0-3.2-1.2","b312u5z1cp08zr7",936,"99.csv","","null","resources/maskTrios/BBA1.jpg","null","",NA,NA,NA,NA,""
"image-keyboard-response",19,84536,"0.0-3.2-2.2","b312u5z1cp08zr7",936,"99.csv","","null","resources/images/coin2.png","null","",NA,NA,NA,NA,""
"image-keyboard-response",20,85134,"0.0-3.3-0.3","b312u5z1cp08zr7",936,"99.csv","","596","resources/trios/L2T2A1.jpg","38","restless",0.9,0.3,0.7,0.0487062751228136,"true"
"image-keyboard-response",21,85536,"0.0-3.3-1.3","b312u5z1cp08zr7",936,"99.csv","","null","resources/maskTrios/BT2B.jpg","null","",NA,NA,NA,NA,""
"image-keyboard-response",22,86739,"0.0-3.3-2.3","b312u5z1cp08zr7",936,"99.csv","","null","resources/images/coin2.png","null","",NA,NA,NA,NA,""
"image-keyboard-response",23,87189,"0.0-3.4-0.4","b312u5z1cp08zr7",936,"99.csv","","448","resources/trios/L2T2A2.jpg","38","restless",0.9,0.3,0.7,0.685657551762868,"false"
"image-keyboard-response",24,87591,"0.0-3.4-1.4","b312u5z1cp08zr7",936,"99.csv","","null","resources/maskTrios/BT2B.jpg","null","",NA,NA,NA,NA,""
"image-keyboard-response",25,88794,"0.0-3.4-2.4","b312u5z1cp08zr7",936,"99.csv","","null","resources/images/fishbone.png","null","",NA,NA,NA,NA,""
"image-keyboard-response",26,89207,"0.0-3.5-0.5","b312u5z1cp08zr7",936,"99.csv","","411","resources/trios/L4T1A2.jpg","39","restless",0.9,0.3,0.7,0.212081093970919,"true"
"image-keyboard-response",27,89609,"0.0-3.5-1.5","b312u5z1cp08zr7",936,"99.csv","","null","resources/maskTrios/BBA2.jpg","null","",NA,NA,NA,NA,""
"image-keyboard-response",28,90812,"0.0-3.5-2.5","b312u5z1cp08zr7",936,"99.csv","","null","resources/images/coin2.png","null","",NA,NA,NA,NA,""
"image-keyboard-response",29,91430,"0.0-3.6-0.6","b312u5z1cp08zr7",936,"99.csv","","616.9999999999854","resources/trios/L2T1A1.jpg","37","restless",0.9,0.3,0.7,0.80011762643916,"true"
"image-keyboard-response",30,91833,"0.0-3.6-1.6","b312u5z1cp08zr7",936,"99.csv","","null","resources/maskTrios/L2BB.jpg","null","",NA,NA,NA,NA,""
"image-keyboard-response",31,93035,"0.0-3.6-2.6","b312u5z1cp08zr7",936,"99.csv","","null","resources/images/coin2.png","null","",NA,NA,NA,NA,""
"image-keyboard-response",32,93697,"0.0-3.7-0.7","b312u5z1cp08zr7",936,"99.csv","","661","resources/trios/L2T1A1.jpg","39","restless",0.8,0.2,0.7,0.0846520111056097,"true"
"image-keyboard-response",33,94100,"0.0-3.7-1.7","b312u5z1cp08zr7",936,"99.csv","","null","resources/maskTrios/BBA1.jpg","null","",NA,NA,NA,NA,""
"image-keyboard-response",34,95303,"0.0-3.7-2.7","b312u5z1cp08zr7",936,"99.csv","","null","resources/images/coin2.png","null","",NA,NA,NA,NA,""
"image-keyboard-response",35,95668,"0.0-3.8-0.8","b312u5z1cp08zr7",936,"99.csv","","363.99999999998545","resources/trios/L2T1A2.jpg","37","restless",0.8,0.2,0.8,0.313128098831472,"true"
"image-keyboard-response",36,96071,"0.0-3.8-1.8","b312u5z1cp08zr7",936,"99.csv","","null","resources/maskTrios/L2BB.jpg","null","",NA,NA,NA,NA,""
"image-keyboard-response",37,97274,"0.0-3.8-2.8","b312u5z1cp08zr7",936,"99.csv","","null","resources/images/coin2.png","null","",NA,NA,NA,NA,""
"image-keyboard-response",38,97704,"0.0-3.9-0.9","b312u5z1cp08zr7",936,"99.csv","","429","resources/trios/L2T2A2.jpg","39","restless",0.8,0.1,0.8,0.0970830372185443,"true"
"image-keyboard-response",39,98106,"0.0-3.9-1.9","b312u5z1cp08zr7",936,"99.csv","","null","resources/maskTrios/BBA2.jpg","null","",NA,NA,NA,NA,""
"image-keyboard-response",40,99308,"0.0-3.9-2.9","b312u5z1cp08zr7",936,"99.csv","","null","resources/images/coin2.png","null","",NA,NA,NA,NA,""
"image-keyboard-response",41,99404,"0.0-3.10-0.10","b312u5z1cp08zr7",936,"99.csv","","95","resources/trios/L4T1A1.jpg","37","restless",0.8,0.2,0.8,0.662952611597252,"true"
"image-keyboard-response",42,99806,"0.0-3.10-1.10","b312u5z1cp08zr7",936,"99.csv","","null","resources/maskTrios/L4BB.jpg","null","",NA,NA,NA,NA,""
"image-keyboard-response",43,101008,"0.0-3.10-2.10","b312u5z1cp08zr7",936,"99.csv","","null","resources/images/coin2.png","null","",NA,NA,NA,NA,""
"image-keyboard-response",44,101540,"0.0-3.11-0.11","b312u5z1cp08zr7",936,"99.csv","","530","resources/trios/L2T2A1.jpg","39","restless",0.8,0.2,0.8,0.930416374073443,"false"
"image-keyboard-response",45,101942,"0.0-3.11-1.11","b312u5z1cp08zr7",936,"99.csv","","null","resources/maskTrios/BBA1.jpg","null","",NA,NA,NA,NA,""
"image-keyboard-response",46,103145,"0.0-3.11-2.11","b312u5z1cp08zr7",936,"99.csv","","null","resources/images/fishbone.png","null","",NA,NA,NA,NA,""
"image-keyboard-response",47,103869,"0.0-3.12-0.12","b312u5z1cp08zr7",936,"99.csv","","723","resources/trios/L4T1A1.jpg","37","restless",0.7,0.2,0.8,0.197719874387724,"true"
"image-keyboard-response",48,104271,"0.0-3.12-1.12","b312u5z1cp08zr7",936,"99.csv","","null","resources/maskTrios/L4BB.jpg","null","",NA,NA,NA,NA,""
"image-keyboard-response",49,105474,"0.0-3.12-2.12","b312u5z1cp08zr7",936,"99.csv","","null","resources/images/coin2.png","null","",NA,NA,NA,NA,""
"image-keyboard-response",50,105797,"0.0-3.13-0.13","b312u5z1cp08zr7",936,"99.csv","","322","resources/trios/L2T2A1.jpg","38","restless",0.7,0.2,0.8,0.411259506369553,"false"
"image-keyboard-response",51,106199,"0.0-3.13-1.13","b312u5z1cp08zr7",936,"99.csv","","null","resources/maskTrios/BT2B.jpg","null","",NA,NA,NA,NA,""
"image-keyboard-response",52,107401,"0.0-3.13-2.13","b312u5z1cp08zr7",936,"99.csv","","null","resources/images/fishbone.png","null","",NA,NA,NA,NA,""
"image-keyboard-response",53,107725,"0.0-3.14-0.14","b312u5z1cp08zr7",936,"99.csv","","323","resources/trios/L4T1A2.jpg","37","restless",0.7,0.2,0.8,0.722529674898857,"false"
"image-keyboard-response",54,108127,"0.0-3.14-1.14","b312u5z1cp08zr7",936,"99.csv","","null","resources/maskTrios/L4BB.jpg","null","",NA,NA,NA,NA,""
"image-keyboard-response",55,109328,"0.0-3.14-2.14","b312u5z1cp08zr7",936,"99.csv","","null","resources/images/fishbone.png","null","",NA,NA,NA,NA,""
"image-keyboard-response",56,109754,"0.0-3.15-0.15","b312u5z1cp08zr7",936,"99.csv","","424","resources/trios/L4T1A1.jpg","39","restless",0.7,0.2,0.8,0.523251227082778,"true"
"image-keyboard-response",57,110156,"0.0-3.15-1.15","b312u5z1cp08zr7",936,"99.csv","","null","resources/maskTrios/BBA1.jpg","null","",NA,NA,NA,NA,""
"image-keyboard-response",58,111358,"0.0-3.15-2.15","b312u5z1cp08zr7",936,"99.csv","","null","resources/images/coin2.png","null","",NA,NA,NA,NA,""
"image-keyboard-response",59,111779,"0.0-3.16-0.16","b312u5z1cp08zr7",936,"99.csv","","420","resources/trios/L4T1A2.jpg","39","restless",0.7,0.2,0.8,0.334387270106687,"true"
"image-keyboard-response",60,112182,"0.0-3.16-1.16","b312u5z1cp08zr7",936,"99.csv","","null","resources/maskTrios/BBA2.jpg","null","",NA,NA,NA,NA,""
"image-keyboard-response",61,113384,"0.0-3.16-2.16","b312u5z1cp08zr7",936,"99.csv","","null","resources/images/coin2.png","null","",NA,NA,NA,NA,""
"image-keyboard-response",62,113690,"0.0-3.17-0.17","b312u5z1cp08zr7",936,"99.csv","","305","resources/trios/L4T1A1.jpg","39","restless",0.7,0.2,0.8,0.0303936072866762,"true"
"image-keyboard-response",63,114093,"0.0-3.17-1.17","b312u5z1cp08zr7",936,"99.csv","","null","resources/maskTrios/BBA1.jpg","null","",NA,NA,NA,NA,""
"image-keyboard-response",64,115296,"0.0-3.17-2.17","b312u5z1cp08zr7",936,"99.csv","","null","resources/images/coin2.png","null","",NA,NA,NA,NA,""
"image-keyboard-response",65,115642,"0.0-3.18-0.18","b312u5z1cp08zr7",936,"99.csv","","346","resources/trios/L2T2A2.jpg","39","restless",0.7,0.2,0.8,0.434066962647236,"true"
"image-keyboard-response",66,116045,"0.0-3.18-1.18","b312u5z1cp08zr7",936,"99.csv","","null","resources/maskTrios/BBA2.jpg","null","",NA,NA,NA,NA,""
"image-keyboard-response",67,117247,"0.0-3.18-2.18","b312u5z1cp08zr7",936,"99.csv","","null","resources/images/coin2.png","null","",NA,NA,NA,NA,""
"image-keyboard-response",68,117485,"0.0-3.19-0.19","b312u5z1cp08zr7",936,"99.csv","","237","resources/trios/L2T2A1.jpg","39","restless",0.7,0.2,0.8,0.435898195996761,"true"
"image-keyboard-response",69,117888,"0.0-3.19-1.19","b312u5z1cp08zr7",936,"99.csv","","null","resources/maskTrios/BBA1.jpg","null","",NA,NA,NA,NA,""
"image-keyboard-response",70,119090,"0.0-3.19-2.19","b312u5z1cp08zr7",936,"99.csv","","null","resources/images/coin2.png","null","",NA,NA,NA,NA,""
"image-keyboard-response",71,119218,"0.0-3.20-0.20","b312u5z1cp08zr7",936,"99.csv","","127.00000000001455","resources/trios/L2T2A2.jpg","38","restless",0.7,0.2,0.8,0.0998761479240186,"true"
"image-keyboard-response",72,119621,"0.0-3.20-1.20","b312u5z1cp08zr7",936,"99.csv","","null","resources/maskTrios/BT2B.jpg","null","",NA,NA,NA,NA,""
"image-keyboard-response",73,120822,"0.0-3.20-2.20","b312u5z1cp08zr7",936,"99.csv","","null","resources/images/coin2.png","null","",NA,NA,NA,NA,""
"image-keyboard-response",74,120897,"0.0-3.21-0.21","b312u5z1cp08zr7",936,"99.csv","","74","resources/trios/L2T1A2.jpg","38","restless",0.7,0.2,0.8,0.557779565245267,"false"
"image-keyboard-response",75,121300,"0.0-3.21-1.21","b312u5z1cp08zr7",936,"99.csv","","null","resources/maskTrios/BT1B.jpg","null","",NA,NA,NA,NA,""
"image-keyboard-response",76,122502,"0.0-3.21-2.21","b312u5z1cp08zr7",936,"99.csv","","null","resources/images/fishbone.png","null","",NA,NA,NA,NA,""
"image-keyboard-response",77,122522,"0.0-3.22-0.22","b312u5z1cp08zr7",936,"99.csv","","18","resources/trios/L2T2A2.jpg","37","restless",0.7,0.3,0.9,0.12830773264583,"true"
"image-keyboard-response",78,122924,"0.0-3.22-1.22","b312u5z1cp08zr7",936,"99.csv","","null","resources/maskTrios/L2BB.jpg","null","",NA,NA,NA,NA,""
"image-keyboard-response",79,124128,"0.0-3.22-2.22","b312u5z1cp08zr7",936,"99.csv","","null","resources/images/coin2.png","null","",NA,NA,NA,NA,""
"image-keyboard-response",80,124194,"0.0-3.23-0.23","b312u5z1cp08zr7",936,"99.csv","","65.00000000001455","resources/trios/L2T1A2.jpg","37","restless",0.6,0.3,0.8,0.9376048932669,"false"
"image-keyboard-response",81,124597,"0.0-3.23-1.23","b312u5z1cp08zr7",936,"99.csv","","null","resources/maskTrios/L2BB.jpg","null","",NA,NA,NA,NA,""
"image-keyboard-response",82,125799,"0.0-3.23-2.23","b312u5z1cp08zr7",936,"99.csv","","null","resources/images/fishbone.png","null","",NA,NA,NA,NA,""
"image-keyboard-response",83,126273,"0.0-3.24-0.24","b312u5z1cp08zr7",936,"99.csv","","472.00000000001455","resources/trios/L2T2A2.jpg","39","restless",0.6,0.3,0.8,0.492952166358542,"true"
"image-keyboard-response",84,126675,"0.0-3.24-1.24","b312u5z1cp08zr7",936,"99.csv","","null","resources/maskTrios/BBA2.jpg","null","",NA,NA,NA,NA,""
"image-keyboard-response",85,127877,"0.0-3.24-2.24","b312u5z1cp08zr7",936,"99.csv","","null","resources/images/coin2.png","null","",NA,NA,NA,NA,""
"image-keyboard-response",86,128158,"0.0-3.25-0.25","b312u5z1cp08zr7",936,"99.csv","","280","resources/trios/L2T2A2.jpg","39","restless",0.6,0.3,0.8,0.00761226253543157,"true"
"image-keyboard-response",87,128560,"0.0-3.25-1.25","b312u5z1cp08zr7",936,"99.csv","","null","resources/maskTrios/BBA2.jpg","null","",NA,NA,NA,NA,""
"image-keyboard-response",88,129763,"0.0-3.25-2.25","b312u5z1cp08zr7",936,"99.csv","","null","resources/images/coin2.png","null","",NA,NA,NA,NA,""
"image-keyboard-response",89,129821,"0.0-3.26-0.26","b312u5z1cp08zr7",936,"99.csv","","57","resources/trios/L2T2A1.jpg","39","restless",0.6,0.3,0.8,0.945144443571218,"false"
"image-keyboard-response",90,130223,"0.0-3.26-1.26","b312u5z1cp08zr7",936,"99.csv","","null","resources/maskTrios/BBA1.jpg","null","",NA,NA,NA,NA,""
"image-keyboard-response",91,131425,"0.0-3.26-2.26","b312u5z1cp08zr7",936,"99.csv","","null","resources/images/fishbone.png","null","",NA,NA,NA,NA,""
"image-keyboard-response",92,131730,"0.0-3.27-0.27","b312u5z1cp08zr7",936,"99.csv","","303","resources/trios/L2T2A2.jpg","38","restless",0.6,0.4,0.7,0.322678987249136,"true"
"image-keyboard-response",93,132133,"0.0-3.27-1.27","b312u5z1cp08zr7",936,"99.csv","","null","resources/maskTrios/BT2B.jpg","null","",NA,NA,NA,NA,""
"image-keyboard-response",94,133335,"0.0-3.27-2.27","b312u5z1cp08zr7",936,"99.csv","","null","resources/images/coin2.png","null","",NA,NA,NA,NA,""
"image-keyboard-response",95,134011,"0.0-3.28-0.28","b312u5z1cp08zr7",936,"99.csv","","676.0000000000291","resources/trios/L4T1A2.jpg","38","restless",0.6,0.4,0.7,0.404306677668834,"false"
"image-keyboard-response",96,134414,"0.0-3.28-1.28","b312u5z1cp08zr7",936,"99.csv","","null","resources/maskTrios/BT1B.jpg","null","",NA,NA,NA,NA,""
"image-keyboard-response",97,135616,"0.0-3.28-2.28","b312u5z1cp08zr7",936,"99.csv","","null","resources/images/fishbone.png","null","",NA,NA,NA,NA,""
"image-keyboard-response",98,135959,"0.0-3.29-0.29","b312u5z1cp08zr7",936,"99.csv","","342","resources/trios/L4T1A1.jpg","37","restless",0.6,0.4,0.7,0.878559597059569,"false"
"image-keyboard-response",99,136360,"0.0-3.29-1.29","b312u5z1cp08zr7",936,"99.csv","","null","resources/maskTrios/L4BB.jpg","null","",NA,NA,NA,NA,""
"image-keyboard-response",100,137562,"0.0-3.29-2.29","b312u5z1cp08zr7",936,"99.csv","","null","resources/images/fishbone.png","null","",NA,NA,NA,NA,""
"image-keyboard-response",101,137845,"0.0-3.30-0.30","b312u5z1cp08zr7",936,"99.csv","","282","resources/trios/L2T1A2.jpg","39","restless",0.5,0.4,0.7,0.0240119314719712,"true"
"image-keyboard-response",102,138248,"0.0-3.30-1.30","b312u5z1cp08zr7",936,"99.csv","","null","resources/maskTrios/BBA2.jpg","null","",NA,NA,NA,NA,""
"image-keyboard-response",103,139450,"0.0-3.30-2.30","b312u5z1cp08zr7",936,"99.csv","","null","resources/images/coin2.png","null","",NA,NA,NA,NA,""
"image-keyboard-response",104,139784,"0.0-3.31-0.31","b312u5z1cp08zr7",936,"99.csv","","333","resources/trios/L2T2A2.jpg","38","restless",0.4,0.4,0.7,0.805970537861224,"false"
"image-keyboard-response",105,140187,"0.0-3.31-1.31","b312u5z1cp08zr7",936,"99.csv","","null","resources/maskTrios/BT2B.jpg","null","",NA,NA,NA,NA,""
"image-keyboard-response",106,141389,"0.0-3.31-2.31","b312u5z1cp08zr7",936,"99.csv","","null","resources/images/fishbone.png","null","",NA,NA,NA,NA,""
"image-keyboard-response",107,141957,"0.0-3.32-0.32","b312u5z1cp08zr7",936,"99.csv","","567","resources/trios/L2T2A1.jpg","39","restless",0.4,0.4,0.7,0.847332314948643,"false"
"image-keyboard-response",108,142360,"0.0-3.32-1.32","b312u5z1cp08zr7",936,"99.csv","","null","resources/maskTrios/BBA1.jpg","null","",NA,NA,NA,NA,""
"image-keyboard-response",109,143562,"0.0-3.32-2.32","b312u5z1cp08zr7",936,"99.csv","","null","resources/images/fishbone.png","null","",NA,NA,NA,NA,""
"image-keyboard-response",110,143872,"0.0-3.33-0.33","b312u5z1cp08zr7",936,"99.csv","","309","resources/trios/L2T1A1.jpg","37","restless",0.4,0.4,0.7,0.240641490773722,"true"
"image-keyboard-response",111,144275,"0.0-3.33-1.33","b312u5z1cp08zr7",936,"99.csv","","null","resources/maskTrios/L2BB.jpg","null","",NA,NA,NA,NA,""
"image-keyboard-response",112,145477,"0.0-3.33-2.33","b312u5z1cp08zr7",936,"99.csv","","null","resources/images/coin2.png","null","",NA,NA,NA,NA,""
"image-keyboard-response",113,145727,"0.0-3.34-0.34","b312u5z1cp08zr7",936,"99.csv","","249","resources/trios/L4T2A1.jpg","37","restless",0.4,0.4,0.7,0.0272464984559952,"true"
"image-keyboard-response",114,146129,"0.0-3.34-1.34","b312u5z1cp08zr7",936,"99.csv","","null","resources/maskTrios/L4BB.jpg","null","",NA,NA,NA,NA,""
"image-keyboard-response",115,147332,"0.0-3.34-2.34","b312u5z1cp08zr7",936,"99.csv","","null","resources/images/coin2.png","null","",NA,NA,NA,NA,""
"image-keyboard-response",116,147600,"0.0-3.35-0.35","b312u5z1cp08zr7",936,"99.csv","","266","resources/trios/L2T1A2.jpg","37","restless",0.4,0.4,0.7,0.916508104411705,"false"
"image-keyboard-response",117,148001,"0.0-3.35-1.35","b312u5z1cp08zr7",936,"99.csv","","null","resources/maskTrios/L2BB.jpg","null","",NA,NA,NA,NA,""
"image-keyboard-response",118,149203,"0.0-3.35-2.35","b312u5z1cp08zr7",936,"99.csv","","null","resources/images/fishbone.png","null","",NA,NA,NA,NA,""
"image-keyboard-response",119,149407,"0.0-3.36-0.36","b312u5z1cp08zr7",936,"99.csv","","203","resources/trios/L4T2A1.jpg","38","restless",0.4,0.4,0.7,0.856724459567553,"false"
"image-keyboard-response",120,149810,"0.0-3.36-1.36","b312u5z1cp08zr7",936,"99.csv","","null","resources/maskTrios/BT2B.jpg","null","",NA,NA,NA,NA,""
"image-keyboard-response",121,151011,"0.0-3.36-2.36","b312u5z1cp08zr7",936,"99.csv","","null","resources/images/fishbone.png","null","",NA,NA,NA,NA,""
"image-keyboard-response",122,151602,"0.0-3.37-0.37","b312u5z1cp08zr7",936,"99.csv","","589.9999999999709","resources/trios/L2T2A2.jpg","39","restless",0.4,0.4,0.7,0.6785065456391,"true"
"image-keyboard-response",123,152004,"0.0-3.37-1.37","b312u5z1cp08zr7",936,"99.csv","","null","resources/maskTrios/BBA2.jpg","null","",NA,NA,NA,NA,""
"image-keyboard-response",124,153207,"0.0-3.37-2.37","b312u5z1cp08zr7",936,"99.csv","","null","resources/images/coin2.png","null","",NA,NA,NA,NA,""
"image-keyboard-response",125,154184,"0.0-3.38-0.38","b312u5z1cp08zr7",936,"99.csv","","976","resources/trios/L2T1A2.jpg","39","restless",0.4,0.4,0.8,0.955122408395991,"false"
"image-keyboard-response",126,154586,"0.0-3.38-1.38","b312u5z1cp08zr7",936,"99.csv","","null","resources/maskTrios/BBA2.jpg","null","",NA,NA,NA,NA,""
"image-keyboard-response",127,155788,"0.0-3.38-2.38","b312u5z1cp08zr7",936,"99.csv","","null","resources/images/fishbone.png","null","",NA,NA,NA,NA,""
"image-keyboard-response",128,158240,"0.0-3.39-0.39","b312u5z1cp08zr7",936,"99.csv","","2451","resources/trios/L4T1A1.jpg","38","restless",0.4,0.4,0.8,0.0669198524731286,"true"
"image-keyboard-response",129,158641,"0.0-3.39-1.39","b312u5z1cp08zr7",936,"99.csv","","null","resources/maskTrios/BT1B.jpg","null","",NA,NA,NA,NA,""
"image-keyboard-response",130,159843,"0.0-3.39-2.39","b312u5z1cp08zr7",936,"99.csv","","null","resources/images/coin2.png","null","",NA,NA,NA,NA,""
"image-keyboard-response",131,160161,"0.0-3.40-0.40","b312u5z1cp08zr7",936,"99.csv","","317","resources/trios/L2T1A2.jpg","38","restless",0.4,0.4,0.8,0.0984269617074881,"true"
"image-keyboard-response",132,160563,"0.0-3.40-1.40","b312u5z1cp08zr7",936,"99.csv","","null","resources/maskTrios/BT1B.jpg","null","",NA,NA,NA,NA,""
"image-keyboard-response",133,161766,"0.0-3.40-2.40","b312u5z1cp08zr7",936,"99.csv","","null","resources/images/coin2.png","null","",NA,NA,NA,NA,""
"image-keyboard-response",134,162031,"0.0-3.41-0.41","b312u5z1cp08zr7",936,"99.csv","","265","resources/trios/L4T1A1.jpg","38","restless",0.4,0.4,0.8,0.564131439198625,"false"
"image-keyboard-response",135,162434,"0.0-3.41-1.41","b312u5z1cp08zr7",936,"99.csv","","null","resources/maskTrios/BT1B.jpg","null","",NA,NA,NA,NA,""
"image-keyboard-response",136,163636,"0.0-3.41-2.41","b312u5z1cp08zr7",936,"99.csv","","null","resources/images/fishbone.png","null","",NA,NA,NA,NA,""
"image-keyboard-response",137,163939,"0.0-3.42-0.42","b312u5z1cp08zr7",936,"99.csv","","302","resources/trios/L4T1A1.jpg","37","restless",0.4,0.4,0.9,0.337969411267396,"true"
"image-keyboard-response",138,164341,"0.0-3.42-1.42","b312u5z1cp08zr7",936,"99.csv","","null","resources/maskTrios/L4BB.jpg","null","",NA,NA,NA,NA,""
"image-keyboard-response",139,165543,"0.0-3.42-2.42","b312u5z1cp08zr7",936,"99.csv","","null","resources/images/coin2.png","null","",NA,NA,NA,NA,""
"image-keyboard-response",140,165713,"0.0-3.43-0.43","b312u5z1cp08zr7",936,"99.csv","","168","resources/trios/L4T1A2.jpg","37","restless",0.5,0.4,0.8,0.873025351264825,"false"
"image-keyboard-response",141,166115,"0.0-3.43-1.43","b312u5z1cp08zr7",936,"99.csv","","null","resources/maskTrios/L4BB.jpg","null","",NA,NA,NA,NA,""
"image-keyboard-response",142,167318,"0.0-3.43-2.43","b312u5z1cp08zr7",936,"99.csv","","null","resources/images/fishbone.png","null","",NA,NA,NA,NA,""
"image-keyboard-response",143,167487,"0.0-3.44-0.44","b312u5z1cp08zr7",936,"99.csv","","168","resources/trios/L2T2A1.jpg","39","restless",0.5,0.4,0.8,0.598707632782066,"true"
"image-keyboard-response",144,167889,"0.0-3.44-1.44","b312u5z1cp08zr7",936,"99.csv","","null","resources/maskTrios/BBA1.jpg","null","",NA,NA,NA,NA,""
"image-keyboard-response",145,169091,"0.0-3.44-2.44","b312u5z1cp08zr7",936,"99.csv","","null","resources/images/coin2.png","null","",NA,NA,NA,NA,""
"image-keyboard-response",146,169404,"0.0-3.45-0.45","b312u5z1cp08zr7",936,"99.csv","","312","resources/trios/L2T1A2.jpg","39","restless",0.5,0.4,0.8,0.812037537374806,"false"
"image-keyboard-response",147,169806,"0.0-3.45-1.45","b312u5z1cp08zr7",936,"99.csv","","null","resources/maskTrios/BBA2.jpg","null","",NA,NA,NA,NA,""
"image-keyboard-response",148,171008,"0.0-3.45-2.45","b312u5z1cp08zr7",936,"99.csv","","null","resources/images/fishbone.png","null","",NA,NA,NA,NA,""
"image-keyboard-response",149,171342,"0.0-3.46-0.46","b312u5z1cp08zr7",936,"99.csv","","333","resources/trios/L4T1A1.jpg","38","restless",0.5,0.4,0.8,0.362151227965471,"true"
"image-keyboard-response",150,171744,"0.0-3.46-1.46","b312u5z1cp08zr7",936,"99.csv","","null","resources/maskTrios/BT1B.jpg","null","",NA,NA,NA,NA,""
"image-keyboard-response",151,172947,"0.0-3.46-2.46","b312u5z1cp08zr7",936,"99.csv","","null","resources/images/coin2.png","null","",NA,NA,NA,NA,""
"image-keyboard-response",152,173144,"0.0-3.47-0.47","b312u5z1cp08zr7",936,"99.csv","","196.0000000000291","resources/trios/L4T2A1.jpg","38","restless",0.5,0.4,0.8,0.216519328361595,"true"
"image-keyboard-response",153,173546,"0.0-3.47-1.47","b312u5z1cp08zr7",936,"99.csv","","null","resources/maskTrios/BT2B.jpg","null","",NA,NA,NA,NA,""
"image-keyboard-response",154,174748,"0.0-3.47-2.47","b312u5z1cp08zr7",936,"99.csv","","null","resources/images/coin2.png","null","",NA,NA,NA,NA,""
"image-keyboard-response",155,174912,"0.0-3.48-0.48","b312u5z1cp08zr7",936,"99.csv","","163.0000000000291","resources/trios/L4T2A2.jpg","38","restless",0.5,0.4,0.8,0.369174037006848,"true"
"image-keyboard-response",156,175314,"0.0-3.48-1.48","b312u5z1cp08zr7",936,"99.csv","","null","resources/maskTrios/BT2B.jpg","null","",NA,NA,NA,NA,""
"image-keyboard-response",157,176517,"0.0-3.48-2.48","b312u5z1cp08zr7",936,"99.csv","","null","resources/images/coin2.png","null","",NA,NA,NA,NA,""
"image-keyboard-response",158,176704,"0.0-3.49-0.49","b312u5z1cp08zr7",936,"99.csv","","186","resources/trios/L2T1A2.jpg","38","restless",0.5,0.4,0.8,0.11271369521567,"true"
"image-keyboard-response",159,177107,"0.0-3.49-1.49","b312u5z1cp08zr7",936,"99.csv","","null","resources/maskTrios/BT1B.jpg","null","",NA,NA,NA,NA,""
"image-keyboard-response",160,178309,"0.0-3.49-2.49","b312u5z1cp08zr7",936,"99.csv","","null","resources/images/coin2.png","null","",NA,NA,NA,NA,""
"image-keyboard-response",161,178605,"0.0-3.50-0.50","b312u5z1cp08zr7",936,"99.csv","","295","resources/trios/L4T2A2.jpg","38","restless",0.6,0.4,0.8,0.991013900679771,"false"
"image-keyboard-response",162,179008,"0.0-3.50-1.50","b312u5z1cp08zr7",936,"99.csv","","null","resources/maskTrios/BT2B.jpg","null","",NA,NA,NA,NA,""
"image-keyboard-response",163,180210,"0.0-3.50-2.50","b312u5z1cp08zr7",936,"99.csv","","null","resources/images/fishbone.png","null","",NA,NA,NA,NA,""
"image-keyboard-response",164,180684,"0.0-3.51-0.51","b312u5z1cp08zr7",936,"99.csv","","473","resources/trios/L4T2A2.jpg","37","restless",0.6,0.4,0.8,0.915334167742155,"false"
"image-keyboard-response",165,181087,"0.0-3.51-1.51","b312u5z1cp08zr7",936,"99.csv","","null","resources/maskTrios/L4BB.jpg","null","",NA,NA,NA,NA,""
"image-keyboard-response",166,182289,"0.0-3.51-2.51","b312u5z1cp08zr7",936,"99.csv","","null","resources/images/fishbone.png","null","",NA,NA,NA,NA,""
"image-keyboard-response",167,182606,"0.0-3.52-0.52","b312u5z1cp08zr7",936,"99.csv","","316","resources/trios/L4T1A1.jpg","39","restless",0.6,0.4,0.8,0.949808982567973,"false"
"image-keyboard-response",168,183008,"0.0-3.52-1.52","b312u5z1cp08zr7",936,"99.csv","","null","resources/maskTrios/BBA1.jpg","null","",NA,NA,NA,NA,""
"image-keyboard-response",169,184211,"0.0-3.52-2.52","b312u5z1cp08zr7",936,"99.csv","","null","resources/images/fishbone.png","null","",NA,NA,NA,NA,""
"image-keyboard-response",170,184507,"0.0-3.53-0.53","b312u5z1cp08zr7",936,"99.csv","","296.0000000000291","resources/trios/L2T2A1.jpg","38","restless",0.6,0.4,0.8,0.941196536673764,"false"
"image-keyboard-response",171,184910,"0.0-3.53-1.53","b312u5z1cp08zr7",936,"99.csv","","null","resources/maskTrios/BT2B.jpg","null","",NA,NA,NA,NA,""
"image-keyboard-response",172,186111,"0.0-3.53-2.53","b312u5z1cp08zr7",936,"99.csv","","null","resources/images/fishbone.png","null","",NA,NA,NA,NA,""
"image-keyboard-response",173,186402,"0.0-3.54-0.54","b312u5z1cp08zr7",936,"99.csv","","290","resources/trios/L2T1A1.jpg","39","restless",0.6,0.4,0.8,0.237869873503582,"true"
"image-keyboard-response",174,186804,"0.0-3.54-1.54","b312u5z1cp08zr7",936,"99.csv","","null","resources/maskTrios/BBA1.jpg","null","",NA,NA,NA,NA,""
"image-keyboard-response",175,188007,"0.0-3.54-2.54","b312u5z1cp08zr7",936,"99.csv","","null","resources/images/coin2.png","null","",NA,NA,NA,NA,""
"image-keyboard-response",176,188352,"0.0-3.55-0.55","b312u5z1cp08zr7",936,"99.csv","","344","resources/trios/L4T1A1.jpg","39","restless",0.6,0.4,0.8,0.0250867683291296,"true"
"image-keyboard-response",177,188755,"0.0-3.55-1.55","b312u5z1cp08zr7",936,"99.csv","","null","resources/maskTrios/BBA1.jpg","null","",NA,NA,NA,NA,""
"image-keyboard-response",178,189957,"0.0-3.55-2.55","b312u5z1cp08zr7",936,"99.csv","","null","resources/images/coin2.png","null","",NA,NA,NA,NA,""
"image-keyboard-response",179,190120,"0.0-3.56-0.56","b312u5z1cp08zr7",936,"99.csv","","162.0000000000291","resources/trios/L4T2A1.jpg","39","restless",0.6,0.4,0.8,0.973592030331684,"false"
"image-keyboard-response",180,190522,"0.0-3.56-1.56","b312u5z1cp08zr7",936,"99.csv","","null","resources/maskTrios/BBA1.jpg","null","",NA,NA,NA,NA,""
"image-keyboard-response",181,191724,"0.0-3.56-2.56","b312u5z1cp08zr7",936,"99.csv","","null","resources/images/fishbone.png","null","",NA,NA,NA,NA,""
"image-keyboard-response",182,192038,"0.0-3.57-0.57","b312u5z1cp08zr7",936,"99.csv","","313","resources/trios/L2T2A2.jpg","37","restless",0.6,0.4,0.8,0.745506747664954,"false"
"image-keyboard-response",183,192440,"0.0-3.57-1.57","b312u5z1cp08zr7",936,"99.csv","","null","resources/maskTrios/L2BB.jpg","null","",NA,NA,NA,NA,""
"image-keyboard-response",184,193643,"0.0-3.57-2.57","b312u5z1cp08zr7",936,"99.csv","","null","resources/images/fishbone.png","null","",NA,NA,NA,NA,""
"image-keyboard-response",185,193878,"0.0-3.58-0.58","b312u5z1cp08zr7",936,"99.csv","","235","resources/trios/L4T2A2.jpg","39","restless",0.6,0.4,0.8,0.169902830789835,"true"
"image-keyboard-response",186,194280,"0.0-3.58-1.58","b312u5z1cp08zr7",936,"99.csv","","null","resources/maskTrios/BBA2.jpg","null","",NA,NA,NA,NA,""
"image-keyboard-response",187,195483,"0.0-3.58-2.58","b312u5z1cp08zr7",936,"99.csv","","null","resources/images/coin2.png","null","",NA,NA,NA,NA,""
"image-keyboard-response",188,195782,"0.0-3.59-0.59","b312u5z1cp08zr7",936,"99.csv","","298.0000000000291","resources/trios/L2T2A1.jpg","39","restless",0.6,0.4,0.8,0.74930063334129,"true"
"image-keyboard-response",189,196183,"0.0-3.59-1.59","b312u5z1cp08zr7",936,"99.csv","","null","resources/maskTrios/BBA1.jpg","null","",NA,NA,NA,NA,""
"image-keyboard-response",190,197384,"0.0-3.59-2.59","b312u5z1cp08zr7",936,"99.csv","","null","resources/images/coin2.png","null","",NA,NA,NA,NA,""
"image-keyboard-response",191,197580,"0.0-3.60-0.60","b312u5z1cp08zr7",936,"99.csv","","195.0000000000291","resources/trios/L2T2A1.jpg","39","restless",0.6,0.4,0.8,0.627245828408516,"true"
"image-keyboard-response",192,197982,"0.0-3.60-1.60","b312u5z1cp08zr7",936,"99.csv","","null","resources/maskTrios/BBA1.jpg","null","",NA,NA,NA,NA,""
"image-keyboard-response",193,199187,"0.0-3.60-2.60","b312u5z1cp08zr7",936,"99.csv","","null","resources/images/coin2.png","null","",NA,NA,NA,NA,""
"image-keyboard-response",194,199427,"0.0-3.61-0.61","b312u5z1cp08zr7",936,"99.csv","","238","resources/trios/L4T2A1.jpg","39","restless",0.5,0.4,0.9,0.680634973670174,"true"
"image-keyboard-response",195,199829,"0.0-3.61-1.61","b312u5z1cp08zr7",936,"99.csv","","null","resources/maskTrios/BBA1.jpg","null","",NA,NA,NA,NA,""
"image-keyboard-response",196,201032,"0.0-3.61-2.61","b312u5z1cp08zr7",936,"99.csv","","null","resources/images/coin2.png","null","",NA,NA,NA,NA,""
"image-keyboard-response",197,201336,"0.0-3.62-0.62","b312u5z1cp08zr7",936,"99.csv","","303.0000000000291","resources/trios/L2T1A2.jpg","39","restless",0.5,0.4,0.9,0.0720638105722075,"true"
"image-keyboard-response",198,201738,"0.0-3.62-1.62","b312u5z1cp08zr7",936,"99.csv","","null","resources/maskTrios/BBA2.jpg","null","",NA,NA,NA,NA,""
"image-keyboard-response",199,202941,"0.0-3.62-2.62","b312u5z1cp08zr7",936,"99.csv","","null","resources/images/coin2.png","null","",NA,NA,NA,NA,""
"image-keyboard-response",200,203175,"0.0-3.63-0.63","b312u5z1cp08zr7",936,"99.csv","","234","resources/trios/L2T2A2.jpg","39","restless",0.5,0.4,0.9,0.522485734737949,"true"
"image-keyboard-response",201,203578,"0.0-3.63-1.63","b312u5z1cp08zr7",936,"99.csv","","null","resources/maskTrios/BBA2.jpg","null","",NA,NA,NA,NA,""
"image-keyboard-response",202,204780,"0.0-3.63-2.63","b312u5z1cp08zr7",936,"99.csv","","null","resources/images/coin2.png","null","",NA,NA,NA,NA,""
"image-keyboard-response",203,205062,"0.0-3.64-0.64","b312u5z1cp08zr7",936,"99.csv","","280","resources/trios/L2T2A2.jpg","39","restless",0.5,0.4,0.8,0.110913243997801,"true"
"image-keyboard-response",204,205463,"0.0-3.64-1.64","b312u5z1cp08zr7",936,"99.csv","","null","resources/maskTrios/BBA2.jpg","null","",NA,NA,NA,NA,""
"image-keyboard-response",205,206666,"0.0-3.64-2.64","b312u5z1cp08zr7",936,"99.csv","","null","resources/images/coin2.png","null","",NA,NA,NA,NA,""
"image-keyboard-response",206,206944,"0.0-3.65-0.65","b312u5z1cp08zr7",936,"99.csv","","277","resources/trios/L2T2A1.jpg","39","restless",0.5,0.4,0.9,0.742705690793655,"true"
"image-keyboard-response",207,207347,"0.0-3.65-1.65","b312u5z1cp08zr7",936,"99.csv","","null","resources/maskTrios/BBA1.jpg","null","",NA,NA,NA,NA,""
"image-keyboard-response",208,208549,"0.0-3.65-2.65","b312u5z1cp08zr7",936,"99.csv","","null","resources/images/coin2.png","null","",NA,NA,NA,NA,""
"image-keyboard-response",209,208842,"0.0-3.66-0.66","b312u5z1cp08zr7",936,"99.csv","","291.9999999999709","resources/trios/L4T1A1.jpg","39","restless",0.5,0.4,0.9,0.677179359196508,"true"
"image-keyboard-response",210,209245,"0.0-3.66-1.66","b312u5z1cp08zr7",936,"99.csv","","null","resources/maskTrios/BBA1.jpg","null","",NA,NA,NA,NA,""
"image-keyboard-response",211,210446,"0.0-3.66-2.66","b312u5z1cp08zr7",936,"99.csv","","null","resources/images/coin2.png","null","",NA,NA,NA,NA,""
"image-keyboard-response",212,210740,"0.0-3.67-0.67","b312u5z1cp08zr7",936,"99.csv","","293.0000000000291","resources/trios/L4T1A2.jpg","39","restless",0.5,0.4,0.8,0.889627152330184,"false"
"image-keyboard-response",213,211143,"0.0-3.67-1.67","b312u5z1cp08zr7",936,"99.csv","","null","resources/maskTrios/BBA2.jpg","null","",NA,NA,NA,NA,""
"image-keyboard-response",214,212344,"0.0-3.67-2.67","b312u5z1cp08zr7",936,"99.csv","","null","resources/images/fishbone.png","null","",NA,NA,NA,NA,""
"image-keyboard-response",215,212727,"0.0-3.68-0.68","b312u5z1cp08zr7",936,"99.csv","","381","resources/trios/L4T2A2.jpg","38","restless",0.5,0.4,0.8,0.251676893151473,"true"
"image-keyboard-response",216,213129,"0.0-3.68-1.68","b312u5z1cp08zr7",936,"99.csv","","null","resources/maskTrios/BT2B.jpg","null","",NA,NA,NA,NA,""
"image-keyboard-response",217,214331,"0.0-3.68-2.68","b312u5z1cp08zr7",936,"99.csv","","null","resources/images/coin2.png","null","",NA,NA,NA,NA,""
"image-keyboard-response",218,214489,"0.0-3.69-0.69","b312u5z1cp08zr7",936,"99.csv","","157","resources/trios/L4T1A1.jpg","38","restless",0.5,0.4,0.8,0.956867063901171,"false"
"image-keyboard-response",219,214892,"0.0-3.69-1.69","b312u5z1cp08zr7",936,"99.csv","","null","resources/maskTrios/BT1B.jpg","null","",NA,NA,NA,NA,""
"image-keyboard-response",220,216094,"0.0-3.69-2.69","b312u5z1cp08zr7",936,"99.csv","","null","resources/images/fishbone.png","null","",NA,NA,NA,NA,""
"image-keyboard-response",221,216111,"0.0-3.70-0.70","b312u5z1cp08zr7",936,"99.csv","","16","resources/trios/L4T2A2.jpg","37","restless",0.5,0.4,0.8,0.409164811799251,"true"
"image-keyboard-response",222,216514,"0.0-3.70-1.70","b312u5z1cp08zr7",936,"99.csv","","null","resources/maskTrios/L4BB.jpg","null","",NA,NA,NA,NA,""
"image-keyboard-response",223,217716,"0.0-3.70-2.70","b312u5z1cp08zr7",936,"99.csv","","null","resources/images/coin2.png","null","",NA,NA,NA,NA,""
"image-keyboard-response",224,217960,"0.0-3.71-0.71","b312u5z1cp08zr7",936,"99.csv","","242.9999999999709","resources/trios/L4T2A2.jpg","37","restless",0.6,0.4,0.8,0.842699539049255,"false"
"image-keyboard-response",225,218362,"0.0-3.71-1.71","b312u5z1cp08zr7",936,"99.csv","","null","resources/maskTrios/L4BB.jpg","null","",NA,NA,NA,NA,""
"image-keyboard-response",226,219564,"0.0-3.71-2.71","b312u5z1cp08zr7",936,"99.csv","","null","resources/images/fishbone.png","null","",NA,NA,NA,NA,""
"image-keyboard-response",227,219894,"0.0-3.72-0.72","b312u5z1cp08zr7",936,"99.csv","","329","resources/trios/L2T2A1.jpg","38","restless",0.6,0.4,0.9,0.0965337264798409,"true"
"image-keyboard-response",228,220296,"0.0-3.72-1.72","b312u5z1cp08zr7",936,"99.csv","","null","resources/maskTrios/BT2B.jpg","null","",NA,NA,NA,NA,""
"image-keyboard-response",229,221499,"0.0-3.72-2.72","b312u5z1cp08zr7",936,"99.csv","","null","resources/images/coin2.png","null","",NA,NA,NA,NA,""
"image-keyboard-response",230,221779,"0.0-3.73-0.73","b312u5z1cp08zr7",936,"99.csv","","280","resources/trios/L2T2A1.jpg","38","restless",0.5,0.4,0.9,0.959544560818917,"false"
"image-keyboard-response",231,222181,"0.0-3.73-1.73","b312u5z1cp08zr7",936,"99.csv","","null","resources/maskTrios/BT2B.jpg","null","",NA,NA,NA,NA,""
"image-keyboard-response",232,223383,"0.0-3.73-2.73","b312u5z1cp08zr7",936,"99.csv","","null","resources/images/fishbone.png","null","",NA,NA,NA,NA,""
"image-keyboard-response",233,224028,"0.0-3.74-0.74","b312u5z1cp08zr7",936,"99.csv","","643","resources/trios/L4T2A1.jpg","39","restless",0.5,0.4,0.9,0.775812504673605,"true"
"image-keyboard-response",234,224430,"0.0-3.74-1.74","b312u5z1cp08zr7",936,"99.csv","","null","resources/maskTrios/BBA1.jpg","null","",NA,NA,NA,NA,""
"image-keyboard-response",235,225633,"0.0-3.74-2.74","b312u5z1cp08zr7",936,"99.csv","","null","resources/images/coin2.png","null","",NA,NA,NA,NA,""
"image-keyboard-response",236,225745,"0.0-3.75-0.75","b312u5z1cp08zr7",936,"99.csv","","110.9999999999709","resources/trios/L2T2A1.jpg","39","restless",0.5,0.4,0.9,0.9393809613876,"false"
"image-keyboard-response",237,226147,"0.0-3.75-1.75","b312u5z1cp08zr7",936,"99.csv","","null","resources/maskTrios/BBA1.jpg","null","",NA,NA,NA,NA,""
"image-keyboard-response",238,227349,"0.0-3.75-2.75","b312u5z1cp08zr7",936,"99.csv","","null","resources/images/fishbone.png","null","",NA,NA,NA,NA,""
"image-keyboard-response",239,227427,"0.0-3.76-0.76","b312u5z1cp08zr7",936,"99.csv","","76","resources/trios/L4T2A2.jpg","37","restless",0.5,0.4,0.8,0.662268317170185,"false"
"image-keyboard-response",240,227828,"0.0-3.76-1.76","b312u5z1cp08zr7",936,"99.csv","","null","resources/maskTrios/L4BB.jpg","null","",NA,NA,NA,NA,""
"image-keyboard-response",241,229030,"0.0-3.76-2.76","b312u5z1cp08zr7",936,"99.csv","","null","resources/images/fishbone.png","null","",NA,NA,NA,NA,""
"image-keyboard-response",242,229464,"0.0-3.77-0.77","b312u5z1cp08zr7",936,"99.csv","","433","resources/trios/L2T2A1.jpg","38","restless",0.5,0.4,0.8,0.861859504649853,"false"
"image-keyboard-response",243,229866,"0.0-3.77-1.77","b312u5z1cp08zr7",936,"99.csv","","null","resources/maskTrios/BT2B.jpg","null","",NA,NA,NA,NA,""
"image-keyboard-response",244,231067,"0.0-3.77-2.77","b312u5z1cp08zr7",936,"99.csv","","null","resources/images/fishbone.png","null","",NA,NA,NA,NA,""
"image-keyboard-response",245,231769,"0.0-3.78-0.78","b312u5z1cp08zr7",936,"99.csv","","700.9999999999709","resources/trios/L2T1A1.jpg","39","restless",0.5,0.4,0.8,0.305845284421374,"true"
"image-keyboard-response",246,232172,"0.0-3.78-1.78","b312u5z1cp08zr7",936,"99.csv","","null","resources/maskTrios/BBA1.jpg","null","",NA,NA,NA,NA,""
"image-keyboard-response",247,233374,"0.0-3.78-2.78","b312u5z1cp08zr7",936,"99.csv","","null","resources/images/coin2.png","null","",NA,NA,NA,NA,""
"image-keyboard-response",248,233745,"0.0-3.79-0.79","b312u5z1cp08zr7",936,"99.csv","","370","resources/trios/L4T1A1.jpg","39","restless",0.5,0.4,0.8,0.78845529330517,"true"
"image-keyboard-response",249,234147,"0.0-3.79-1.79","b312u5z1cp08zr7",936,"99.csv","","null","resources/maskTrios/BBA1.jpg","null","",NA,NA,NA,NA,""
"image-keyboard-response",250,235349,"0.0-3.79-2.79","b312u5z1cp08zr7",936,"99.csv","","null","resources/images/coin2.png","null","",NA,NA,NA,NA,""
"image-keyboard-response",251,235667,"0.0-3.80-0.80","b312u5z1cp08zr7",936,"99.csv","","317","resources/trios/L4T2A1.jpg","39","restless",0.5,0.4,0.8,0.78219123690503,"true"
"image-keyboard-response",252,236070,"0.0-3.80-1.80","b312u5z1cp08zr7",936,"99.csv","","null","resources/maskTrios/BBA1.jpg","null","",NA,NA,NA,NA,""
"image-keyboard-response",253,237272,"0.0-3.80-2.80","b312u5z1cp08zr7",936,"99.csv","","null","resources/images/coin2.png","null","",NA,NA,NA,NA,""
"image-keyboard-response",254,237495,"0.0-3.81-0.81","b312u5z1cp08zr7",936,"99.csv","","222","resources/trios/L4T2A2.jpg","39","restless",0.5,0.4,0.8,0.955591470038448,"false"
"image-keyboard-response",255,237897,"0.0-3.81-1.81","b312u5z1cp08zr7",936,"99.csv","","null","resources/maskTrios/BBA2.jpg","null","",NA,NA,NA,NA,""
"image-keyboard-response",256,239099,"0.0-3.81-2.81","b312u5z1cp08zr7",936,"99.csv","","null","resources/images/fishbone.png","null","",NA,NA,NA,NA,""
"image-keyboard-response",257,239354,"0.0-3.82-0.82","b312u5z1cp08zr7",936,"99.csv","","255.0000000000291","resources/trios/L2T1A2.jpg","37","restless",0.5,0.4,0.8,0.116969453679361,"true"
"image-keyboard-response",258,239757,"0.0-3.82-1.82","b312u5z1cp08zr7",936,"99.csv","","null","resources/maskTrios/L2BB.jpg","null","",NA,NA,NA,NA,""
"image-keyboard-response",259,240959,"0.0-3.82-2.82","b312u5z1cp08zr7",936,"99.csv","","null","resources/images/coin2.png","null","",NA,NA,NA,NA,""
"image-keyboard-response",260,241022,"0.0-3.83-0.83","b312u5z1cp08zr7",936,"99.csv","","62","resources/trios/L4T1A1.jpg","37","restless",0.5,0.4,0.8,0.485273608833888,"true"
"image-keyboard-response",261,241425,"0.0-3.83-1.83","b312u5z1cp08zr7",936,"99.csv","","null","resources/maskTrios/L4BB.jpg","null","",NA,NA,NA,NA,""
"image-keyboard-response",262,242627,"0.0-3.83-2.83","b312u5z1cp08zr7",936,"99.csv","","null","resources/images/coin2.png","null","",NA,NA,NA,NA,""
"image-keyboard-response",263,242729,"0.0-3.84-0.84","b312u5z1cp08zr7",936,"99.csv","","100.9999999999709","resources/trios/L4T2A2.jpg","37","restless",0.5,0.5,0.8,0.384741813984538,"true"
"image-keyboard-response",264,243131,"0.0-3.84-1.84","b312u5z1cp08zr7",936,"99.csv","","null","resources/maskTrios/L4BB.jpg","null","",NA,NA,NA,NA,""
"image-keyboard-response",265,244333,"0.0-3.84-2.84","b312u5z1cp08zr7",936,"99.csv","","null","resources/images/coin2.png","null","",NA,NA,NA,NA,""
"image-keyboard-response",266,244520,"0.0-3.85-0.85","b312u5z1cp08zr7",936,"99.csv","","186","resources/trios/L4T1A1.jpg","37","restless",0.5,0.5,0.8,0.301867770011021,"true"
"image-keyboard-response",267,244923,"0.0-3.85-1.85","b312u5z1cp08zr7",936,"99.csv","","null","resources/maskTrios/L4BB.jpg","null","",NA,NA,NA,NA,""
"image-keyboard-response",268,246125,"0.0-3.85-2.85","b312u5z1cp08zr7",936,"99.csv","","null","resources/images/coin2.png","null","",NA,NA,NA,NA,""
"image-keyboard-response",269,246132,"0.0-3.86-0.86","b312u5z1cp08zr7",936,"99.csv","","6","resources/trios/L4T1A2.jpg","37","restless",0.5,0.5,0.8,0.511229044857149,"false"
"image-keyboard-response",270,246535,"0.0-3.86-1.86","b312u5z1cp08zr7",936,"99.csv","","null","resources/maskTrios/L4BB.jpg","null","",NA,NA,NA,NA,""
"image-keyboard-response",271,247737,"0.0-3.86-2.86","b312u5z1cp08zr7",936,"99.csv","","null","resources/images/fishbone.png","null","",NA,NA,NA,NA,""
"image-keyboard-response",272,248036,"0.0-3.87-0.87","b312u5z1cp08zr7",936,"99.csv","","298","resources/trios/L4T1A2.jpg","38","restless",0.5,0.5,0.8,0.0179418524200416,"true"
"image-keyboard-response",273,248437,"0.0-3.87-1.87","b312u5z1cp08zr7",936,"99.csv","","null","resources/maskTrios/BT1B.jpg","null","",NA,NA,NA,NA,""
"image-keyboard-response",274,249640,"0.0-3.87-2.87","b312u5z1cp08zr7",936,"99.csv","","null","resources/images/coin2.png","null","",NA,NA,NA,NA,""
"image-keyboard-response",275,249693,"0.0-3.88-0.88","b312u5z1cp08zr7",936,"99.csv","","51","resources/trios/L2T1A1.jpg","38","restless",0.5,0.5,0.7,0.8510289649017,"false"
"image-keyboard-response",276,250095,"0.0-3.88-1.88","b312u5z1cp08zr7",936,"99.csv","","null","resources/maskTrios/BT1B.jpg","null","",NA,NA,NA,NA,""
"image-keyboard-response",277,251297,"0.0-3.88-2.88","b312u5z1cp08zr7",936,"99.csv","","null","resources/images/fishbone.png","null","",NA,NA,NA,NA,""
"image-keyboard-response",278,251557,"0.0-3.89-0.89","b312u5z1cp08zr7",936,"99.csv","","259.0000000000291","resources/trios/L2T2A1.jpg","39","restless",0.5,0.5,0.7,0.710879727923137,"false"
"image-keyboard-response",279,251960,"0.0-3.89-1.89","b312u5z1cp08zr7",936,"99.csv","","null","resources/maskTrios/BBA1.jpg","null","",NA,NA,NA,NA,""
"image-keyboard-response",280,253162,"0.0-3.89-2.89","b312u5z1cp08zr7",936,"99.csv","","null","resources/images/fishbone.png","null","",NA,NA,NA,NA,""
"image-keyboard-response",281,253427,"0.0-3.90-0.90","b312u5z1cp08zr7",936,"99.csv","","264.0000000000291","resources/trios/L4T1A2.jpg","38","restless",0.5,0.5,0.6,0.278455917028789,"true"
"image-keyboard-response",282,253830,"0.0-3.90-1.90","b312u5z1cp08zr7",936,"99.csv","","null","resources/maskTrios/BT1B.jpg","null","",NA,NA,NA,NA,""
"image-keyboard-response",283,255032,"0.0-3.90-2.90","b312u5z1cp08zr7",936,"99.csv","","null","resources/images/coin2.png","null","",NA,NA,NA,NA,""
"image-keyboard-response",284,255290,"0.0-3.91-0.91","b312u5z1cp08zr7",936,"99.csv","","257","resources/trios/L2T1A2.jpg","38","restless",0.4,0.6,0.6,0.0712645462266231,"true"
"image-keyboard-response",285,255692,"0.0-3.91-1.91","b312u5z1cp08zr7",936,"99.csv","","null","resources/maskTrios/BT1B.jpg","null","",NA,NA,NA,NA,""
"image-keyboard-response",286,256894,"0.0-3.91-2.91","b312u5z1cp08zr7",936,"99.csv","","null","resources/images/coin2.png","null","",NA,NA,NA,NA,""
"image-keyboard-response",287,257072,"0.0-3.92-0.92","b312u5z1cp08zr7",936,"99.csv","","178","resources/trios/L2T2A2.jpg","38","restless",0.4,0.6,0.6,0.705080350855489,"false"
"image-keyboard-response",288,257475,"0.0-3.92-1.92","b312u5z1cp08zr7",936,"99.csv","","null","resources/maskTrios/BT2B.jpg","null","",NA,NA,NA,NA,""
"image-keyboard-response",289,258677,"0.0-3.92-2.92","b312u5z1cp08zr7",936,"99.csv","","null","resources/images/fishbone.png","null","",NA,NA,NA,NA,""
"image-keyboard-response",290,260642,"0.0-3.93-0.93","b312u5z1cp08zr7",936,"99.csv","","1963","resources/trios/L2T1A2.jpg","37","restless",0.4,0.6,0.6,0.0334821816592834,"true"
"image-keyboard-response",291,261044,"0.0-3.93-1.93","b312u5z1cp08zr7",936,"99.csv","","null","resources/maskTrios/L2BB.jpg","null","",NA,NA,NA,NA,""
"image-keyboard-response",292,262246,"0.0-3.93-2.93","b312u5z1cp08zr7",936,"99.csv","","null","resources/images/coin2.png","null","",NA,NA,NA,NA,""
"image-keyboard-response",293,262309,"0.0-3.94-0.94","b312u5z1cp08zr7",936,"99.csv","","60","resources/trios/L2T2A1.jpg","37","restless",0.4,0.6,0.6,0.469935181555106,"false"
"image-keyboard-response",294,262713,"0.0-3.94-1.94","b312u5z1cp08zr7",936,"99.csv","","null","resources/maskTrios/L2BB.jpg","null","",NA,NA,NA,NA,""
"image-keyboard-response",295,263915,"0.0-3.94-2.94","b312u5z1cp08zr7",936,"99.csv","","null","resources/images/fishbone.png","null","",NA,NA,NA,NA,""
"image-keyboard-response",296,264132,"0.0-3.95-0.95","b312u5z1cp08zr7",936,"99.csv","","214","resources/trios/L4T2A1.jpg","38","restless",0.4,0.6,0.6,0.744972371560465,"false"
"image-keyboard-response",297,264534,"0.0-3.95-1.95","b312u5z1cp08zr7",936,"99.csv","","null","resources/maskTrios/BT2B.jpg","null","",NA,NA,NA,NA,""
"image-keyboard-response",298,265736,"0.0-3.95-2.95","b312u5z1cp08zr7",936,"99.csv","","null","resources/images/fishbone.png","null","",NA,NA,NA,NA,""
"image-keyboard-response",299,265851,"0.0-3.96-0.96","b312u5z1cp08zr7",936,"99.csv","","113","resources/trios/L4T1A1.jpg","39","restless",0.4,0.6,0.6,0.0772015899091514,"true"
"image-keyboard-response",300,266253,"0.0-3.96-1.96","b312u5z1cp08zr7",936,"99.csv","","null","resources/maskTrios/BBA1.jpg","null","",NA,NA,NA,NA,""
"image-keyboard-response",301,267456,"0.0-3.96-2.96","b312u5z1cp08zr7",936,"99.csv","","null","resources/images/coin2.png","null","",NA,NA,NA,NA,""
"image-keyboard-response",302,267709,"0.0-3.97-0.97","b312u5z1cp08zr7",936,"99.csv","","252","resources/trios/L4T1A2.jpg","39","restless",0.4,0.6,0.6,0.396121186817253,"true"
"image-keyboard-response",303,268111,"0.0-3.97-1.97","b312u5z1cp08zr7",936,"99.csv","","null","resources/maskTrios/BBA2.jpg","null","",NA,NA,NA,NA,""
"image-keyboard-response",304,269314,"0.0-3.97-2.97","b312u5z1cp08zr7",936,"99.csv","","null","resources/images/coin2.png","null","",NA,NA,NA,NA,""
"image-keyboard-response",305,269590,"0.0-3.98-0.98","b312u5z1cp08zr7",936,"99.csv","","275","resources/trios/L4T1A2.jpg","39","restless",0.4,0.6,0.6,0.324754519709124,"true"
"image-keyboard-response",306,269991,"0.0-3.98-1.98","b312u5z1cp08zr7",936,"99.csv","","null","resources/maskTrios/BBA2.jpg","null","",NA,NA,NA,NA,""
"image-keyboard-response",307,271194,"0.0-3.98-2.98","b312u5z1cp08zr7",936,"99.csv","","null","resources/images/coin2.png","null","",NA,NA,NA,NA,""
"image-keyboard-response",308,271290,"0.0-3.99-0.99","b312u5z1cp08zr7",936,"99.csv","","94","resources/trios/L2T2A2.jpg","39","restless",0.3,0.6,0.6,0.0669524943872508,"true"
"image-keyboard-response",309,271693,"0.0-3.99-1.99","b312u5z1cp08zr7",936,"99.csv","","null","resources/maskTrios/BBA2.jpg","null","",NA,NA,NA,NA,""
"image-keyboard-response",310,272895,"0.0-3.99-2.99","b312u5z1cp08zr7",936,"99.csv","","null","resources/images/coin2.png","null","",NA,NA,NA,NA,""
"image-keyboard-response",311,273071,"0.0-3.100-0.100","b312u5z1cp08zr7",936,"99.csv","","175","resources/trios/L4T1A1.jpg","39","restless",0.3,0.6,0.6,0.0206994442722621,"true"
"image-keyboard-response",312,273474,"0.0-3.100-1.100","b312u5z1cp08zr7",936,"99.csv","","null","resources/maskTrios/BBA1.jpg","null","",NA,NA,NA,NA,""
"image-keyboard-response",313,274676,"0.0-3.100-2.100","b312u5z1cp08zr7",936,"99.csv","","null","resources/images/coin2.png","null","",NA,NA,NA,NA,""
"image-keyboard-response",314,274712,"0.0-3.101-0.101","b312u5z1cp08zr7",936,"99.csv","","35","resources/trios/L4T2A1.jpg","39","restless",0.4,0.6,0.6,0.695312157039813,"false"
"image-keyboard-response",315,275114,"0.0-3.101-1.101","b312u5z1cp08zr7",936,"99.csv","","null","resources/maskTrios/BBA1.jpg","null","",NA,NA,NA,NA,""
"image-keyboard-response",316,276317,"0.0-3.101-2.101","b312u5z1cp08zr7",936,"99.csv","","null","resources/images/fishbone.png","null","",NA,NA,NA,NA,""
"image-keyboard-response",317,276539,"0.0-3.102-0.102","b312u5z1cp08zr7",936,"99.csv","","221","resources/trios/L4T1A1.jpg","38","restless",0.4,0.6,0.6,0.595962936353257,"true"
"image-keyboard-response",318,276942,"0.0-3.102-1.102","b312u5z1cp08zr7",936,"99.csv","","null","resources/maskTrios/BT1B.jpg","null","",NA,NA,NA,NA,""
"image-keyboard-response",319,278144,"0.0-3.102-2.102","b312u5z1cp08zr7",936,"99.csv","","null","resources/images/coin2.png","null","",NA,NA,NA,NA,""
"image-keyboard-response",320,278663,"0.0-3.103-0.103","b312u5z1cp08zr7",936,"99.csv","","517","resources/trios/L2T2A2.jpg","38","restless",0.4,0.6,0.6,0.0370435831488217,"true"
"image-keyboard-response",321,279065,"0.0-3.103-1.103","b312u5z1cp08zr7",936,"99.csv","","null","resources/maskTrios/BT2B.jpg","null","",NA,NA,NA,NA,""
"image-keyboard-response",322,280268,"0.0-3.103-2.103","b312u5z1cp08zr7",936,"99.csv","","null","resources/images/coin2.png","null","",NA,NA,NA,NA,""
"image-keyboard-response",323,280444,"0.0-3.104-0.104","b312u5z1cp08zr7",936,"99.csv","","172","resources/trios/L4T2A1.jpg","38","restless",0.4,0.6,0.6,0.22722416996469,"true"
"image-keyboard-response",324,280847,"0.0-3.104-1.104","b312u5z1cp08zr7",936,"99.csv","","null","resources/maskTrios/BT2B.jpg","null","",NA,NA,NA,NA,""
"image-keyboard-response",325,282049,"0.0-3.104-2.104","b312u5z1cp08zr7",936,"99.csv","","null","resources/images/coin2.png","null","",NA,NA,NA,NA,""
"image-keyboard-response",326,282170,"0.0-3.105-0.105","b312u5z1cp08zr7",936,"99.csv","","118","resources/trios/L2T2A1.jpg","38","restless",0.4,0.6,0.6,0.0648590122334755,"true"
"image-keyboard-response",327,282571,"0.0-3.105-1.105","b312u5z1cp08zr7",936,"99.csv","","null","resources/maskTrios/BT2B.jpg","null","",NA,NA,NA,NA,""
"image-keyboard-response",328,283774,"0.0-3.105-2.105","b312u5z1cp08zr7",936,"99.csv","","null","resources/images/coin2.png","null","",NA,NA,NA,NA,""
"image-keyboard-response",329,283862,"0.0-3.106-0.106","b312u5z1cp08zr7",936,"99.csv","","87","resources/trios/L2T2A1.jpg","38","restless",0.4,0.6,0.6,0.941265586628165,"false"
"image-keyboard-response",330,284265,"0.0-3.106-1.106","b312u5z1cp08zr7",936,"99.csv","","null","resources/maskTrios/BT2B.jpg","null","",NA,NA,NA,NA,""
"image-keyboard-response",331,285466,"0.0-3.106-2.106","b312u5z1cp08zr7",936,"99.csv","","null","resources/images/fishbone.png","null","",NA,NA,NA,NA,""
"image-keyboard-response",332,285697,"0.0-3.107-0.107","b312u5z1cp08zr7",936,"99.csv","","230","resources/trios/L2T1A1.jpg","37","restless",0.4,0.6,0.6,0.738399101347756,"false"
"image-keyboard-response",333,286100,"0.0-3.107-1.107","b312u5z1cp08zr7",936,"99.csv","","null","resources/maskTrios/L2BB.jpg","null","",NA,NA,NA,NA,""
"image-keyboard-response",334,287302,"0.0-3.107-2.107","b312u5z1cp08zr7",936,"99.csv","","null","resources/images/fishbone.png","null","",NA,NA,NA,NA,""
"image-keyboard-response",335,287517,"0.0-3.108-0.108","b312u5z1cp08zr7",936,"99.csv","","213","resources/trios/L2T2A1.jpg","39","restless",0.4,0.6,0.6,0.344281564562387,"true"
"image-keyboard-response",336,287919,"0.0-3.108-1.108","b312u5z1cp08zr7",936,"99.csv","","null","resources/maskTrios/BBA1.jpg","null","",NA,NA,NA,NA,""
"image-keyboard-response",337,289122,"0.0-3.108-2.108","b312u5z1cp08zr7",936,"99.csv","","null","resources/images/coin2.png","null","",NA,NA,NA,NA,""
"image-keyboard-response",338,289428,"0.0-3.109-0.109","b312u5z1cp08zr7",936,"99.csv","","304","resources/trios/L4T1A1.jpg","39","restless",0.4,0.6,0.6,0.951572826516704,"false"
"image-keyboard-response",339,289830,"0.0-3.109-1.109","b312u5z1cp08zr7",936,"99.csv","","null","resources/maskTrios/BBA1.jpg","null","",NA,NA,NA,NA,""
"image-keyboard-response",340,291032,"0.0-3.109-2.109","b312u5z1cp08zr7",936,"99.csv","","null","resources/images/fishbone.png","null","",NA,NA,NA,NA,""
"image-keyboard-response",341,291324,"0.0-3.110-0.110","b312u5z1cp08zr7",936,"99.csv","","291","resources/trios/L2T2A1.jpg","38","restless",0.4,0.6,0.6,0.703241683839277,"false"
"image-keyboard-response",342,291726,"0.0-3.110-1.110","b312u5z1cp08zr7",936,"99.csv","","null","resources/maskTrios/BT2B.jpg","null","",NA,NA,NA,NA,""
"image-keyboard-response",343,292928,"0.0-3.110-2.110","b312u5z1cp08zr7",936,"99.csv","","null","resources/images/fishbone.png","null","",NA,NA,NA,NA,""
"image-keyboard-response",344,293492,"0.0-3.111-0.111","b312u5z1cp08zr7",936,"99.csv","","563","resources/trios/L4T1A2.jpg","37","restless",0.4,0.6,0.6,0.774543540008627,"false"
"image-keyboard-response",345,293894,"0.0-3.111-1.111","b312u5z1cp08zr7",936,"99.csv","","null","resources/maskTrios/L4BB.jpg","null","",NA,NA,NA,NA,""
"image-keyboard-response",346,295096,"0.0-3.111-2.111","b312u5z1cp08zr7",936,"99.csv","","null","resources/images/fishbone.png","null","",NA,NA,NA,NA,""
"image-keyboard-response",347,295437,"0.0-3.112-0.112","b312u5z1cp08zr7",936,"99.csv","","339","resources/trios/L4T2A2.jpg","38","restless",0.4,0.6,0.6,0.0836645728225377,"true"
"image-keyboard-response",348,295839,"0.0-3.112-1.112","b312u5z1cp08zr7",936,"99.csv","","null","resources/maskTrios/BT2B.jpg","null","",NA,NA,NA,NA,""
"image-keyboard-response",349,297041,"0.0-3.112-2.112","b312u5z1cp08zr7",936,"99.csv","","null","resources/images/coin2.png","null","",NA,NA,NA,NA,""
"image-keyboard-response",350,297289,"0.0-3.113-0.113","b312u5z1cp08zr7",936,"99.csv","","244.9999999999418","resources/trios/L4T2A2.jpg","38","restless",0.4,0.6,0.7,0.443229236284769,"true"
"image-keyboard-response",351,297691,"0.0-3.113-1.113","b312u5z1cp08zr7",936,"99.csv","","null","resources/maskTrios/BT2B.jpg","null","",NA,NA,NA,NA,""
"image-keyboard-response",352,298894,"0.0-3.113-2.113","b312u5z1cp08zr7",936,"99.csv","","null","resources/images/coin2.png","null","",NA,NA,NA,NA,""
"image-keyboard-response",353,299198,"0.0-3.114-0.114","b312u5z1cp08zr7",936,"99.csv","","302","resources/trios/L2T2A2.jpg","38","restless",0.4,0.6,0.7,0.575891974456083,"true"
"image-keyboard-response",354,299600,"0.0-3.114-1.114","b312u5z1cp08zr7",936,"99.csv","","null","resources/maskTrios/BT2B.jpg","null","",NA,NA,NA,NA,""
"image-keyboard-response",355,300803,"0.0-3.114-2.114","b312u5z1cp08zr7",936,"99.csv","","null","resources/images/coin2.png","null","",NA,NA,NA,NA,""
"image-keyboard-response",356,300869,"0.0-3.115-0.115","b312u5z1cp08zr7",936,"99.csv","","65","resources/trios/L2T1A1.jpg","38","restless",0.4,0.6,0.7,0.418190279355827,"true"
"image-keyboard-response",357,301271,"0.0-3.115-1.115","b312u5z1cp08zr7",936,"99.csv","","null","resources/maskTrios/BT1B.jpg","null","",NA,NA,NA,NA,""
"image-keyboard-response",358,302476,"0.0-3.115-2.115","b312u5z1cp08zr7",936,"99.csv","","null","resources/images/coin2.png","null","",NA,NA,NA,NA,""
"image-keyboard-response",359,303278,"0.0-3.116-0.116","b312u5z1cp08zr7",936,"99.csv","","801","resources/trios/L4T1A1.jpg","38","restless",0.4,0.6,0.6,0.846020334129798,"false"
"image-keyboard-response",360,303681,"0.0-3.116-1.116","b312u5z1cp08zr7",936,"99.csv","","null","resources/maskTrios/BT1B.jpg","null","",NA,NA,NA,NA,""
"image-keyboard-response",361,304883,"0.0-3.116-2.116","b312u5z1cp08zr7",936,"99.csv","","null","resources/images/fishbone.png","null","",NA,NA,NA,NA,""
"image-keyboard-response",362,305071,"0.0-3.117-0.117","b312u5z1cp08zr7",936,"99.csv","","187","resources/trios/L4T1A1.jpg","38","restless",0.4,0.6,0.5,0.554054009818381,"true"
"image-keyboard-response",363,305474,"0.0-3.117-1.117","b312u5z1cp08zr7",936,"99.csv","","null","resources/maskTrios/BT1B.jpg","null","",NA,NA,NA,NA,""
"image-keyboard-response",364,306677,"0.0-3.117-2.117","b312u5z1cp08zr7",936,"99.csv","","null","resources/images/coin2.png","null","",NA,NA,NA,NA,""
"image-keyboard-response",365,306841,"0.0-3.118-0.118","b312u5z1cp08zr7",936,"99.csv","","163","resources/trios/L4T2A2.jpg","38","restless",0.4,0.6,0.5,0.882704566514613,"false"
"image-keyboard-response",366,307243,"0.0-3.118-1.118","b312u5z1cp08zr7",936,"99.csv","","null","resources/maskTrios/BT2B.jpg","null","",NA,NA,NA,NA,""
"image-keyboard-response",367,308445,"0.0-3.118-2.118","b312u5z1cp08zr7",936,"99.csv","","null","resources/images/fishbone.png","null","",NA,NA,NA,NA,""
"image-keyboard-response",368,308867,"0.0-3.119-0.119","b312u5z1cp08zr7",936,"99.csv","","420","resources/trios/L4T2A1.jpg","39","restless",0.4,0.6,0.5,0.841183540518551,"false"
"image-keyboard-response",369,309270,"0.0-3.119-1.119","b312u5z1cp08zr7",936,"99.csv","","null","resources/maskTrios/BBA1.jpg","null","",NA,NA,NA,NA,""
"image-keyboard-response",370,310472,"0.0-3.119-2.119","b312u5z1cp08zr7",936,"99.csv","","null","resources/images/fishbone.png","null","",NA,NA,NA,NA,""
"image-keyboard-response",371,310818,"0.0-3.120-0.120","b312u5z1cp08zr7",936,"99.csv","","345.0000000000582","resources/trios/L2T1A2.jpg","37","restless",0.5,0.6,0.5,0.964911033417873,"false"
"image-keyboard-response",372,311220,"0.0-3.120-1.120","b312u5z1cp08zr7",936,"99.csv","","null","resources/maskTrios/L2BB.jpg","null","",NA,NA,NA,NA,""
"image-keyboard-response",373,312422,"0.0-3.120-2.120","b312u5z1cp08zr7",936,"99.csv","","null","resources/images/fishbone.png","null","",NA,NA,NA,NA,""
"image-keyboard-response",374,312694,"0.0-3.121-0.121","b312u5z1cp08zr7",936,"99.csv","","269.0000000000582","resources/trios/L4T2A2.jpg","38","restless",0.5,0.6,0.5,0.712974679051489,"false"
"image-keyboard-response",375,313096,"0.0-3.121-1.121","b312u5z1cp08zr7",936,"99.csv","","null","resources/maskTrios/BT2B.jpg","null","",NA,NA,NA,NA,""
"image-keyboard-response",376,314298,"0.0-3.121-2.121","b312u5z1cp08zr7",936,"99.csv","","null","resources/images/fishbone.png","null","",NA,NA,NA,NA,""
"image-keyboard-response",377,314632,"0.0-3.122-0.122","b312u5z1cp08zr7",936,"99.csv","","333","resources/trios/L4T2A2.jpg","38","restless",0.5,0.6,0.5,0.446005650824574,"true"
"image-keyboard-response",378,315035,"0.0-3.122-1.122","b312u5z1cp08zr7",936,"99.csv","","null","resources/maskTrios/BT2B.jpg","null","",NA,NA,NA,NA,""
"image-keyboard-response",379,316237,"0.0-3.122-2.122","b312u5z1cp08zr7",936,"99.csv","","null","resources/images/coin2.png","null","",NA,NA,NA,NA,""
"image-keyboard-response",380,316619,"0.0-3.123-0.123","b312u5z1cp08zr7",936,"99.csv","","380","resources/trios/L4T1A1.jpg","38","restless",0.5,0.6,0.5,0.659006917313111,"false"
"image-keyboard-response",381,317021,"0.0-3.123-1.123","b312u5z1cp08zr7",936,"99.csv","","null","resources/maskTrios/BT1B.jpg","null","",NA,NA,NA,NA,""
"image-keyboard-response",382,318223,"0.0-3.123-2.123","b312u5z1cp08zr7",936,"99.csv","","null","resources/images/fishbone.png","null","",NA,NA,NA,NA,""
"image-keyboard-response",383,318386,"0.0-3.124-0.124","b312u5z1cp08zr7",936,"99.csv","","162","resources/trios/L2T1A1.jpg","37","restless",0.4,0.6,0.5,0.953893025098675,"false"
"image-keyboard-response",384,318788,"0.0-3.124-1.124","b312u5z1cp08zr7",936,"99.csv","","null","resources/maskTrios/L2BB.jpg","null","",NA,NA,NA,NA,""
"image-keyboard-response",385,319990,"0.0-3.124-2.124","b312u5z1cp08zr7",936,"99.csv","","null","resources/images/fishbone.png","null","",NA,NA,NA,NA,""
"image-keyboard-response",386,320249,"0.0-3.125-0.125","b312u5z1cp08zr7",936,"99.csv","","257.9999999999418","resources/trios/L2T1A2.jpg","39","restless",0.4,0.5,0.5,0.00958917249409663,"true"
"image-keyboard-response",387,320651,"0.0-3.125-1.125","b312u5z1cp08zr7",936,"99.csv","","null","resources/maskTrios/BBA2.jpg","null","",NA,NA,NA,NA,""
"image-keyboard-response",388,321854,"0.0-3.125-2.125","b312u5z1cp08zr7",936,"99.csv","","null","resources/images/coin2.png","null","",NA,NA,NA,NA,""
"image-keyboard-response",389,322121,"0.0-3.126-0.126","b312u5z1cp08zr7",936,"99.csv","","265","resources/trios/L2T1A2.jpg","39","restless",0.4,0.5,0.5,0.602161046064236,"false"
"image-keyboard-response",390,322523,"0.0-3.126-1.126","b312u5z1cp08zr7",936,"99.csv","","null","resources/maskTrios/BBA2.jpg","null","",NA,NA,NA,NA,""
"image-keyboard-response",391,323725,"0.0-3.126-2.126","b312u5z1cp08zr7",936,"99.csv","","null","resources/images/fishbone.png","null","",NA,NA,NA,NA,""
"image-keyboard-response",392,323962,"0.0-3.127-0.127","b312u5z1cp08zr7",936,"99.csv","","235","resources/trios/L4T2A1.jpg","38","restless",0.4,0.5,0.5,0.59092402607747,"false"
"image-keyboard-response",393,324365,"0.0-3.127-1.127","b312u5z1cp08zr7",936,"99.csv","","null","resources/maskTrios/BT2B.jpg","null","",NA,NA,NA,NA,""
"image-keyboard-response",394,325567,"0.0-3.127-2.127","b312u5z1cp08zr7",936,"99.csv","","null","resources/images/fishbone.png","null","",NA,NA,NA,NA,""
"image-keyboard-response",395,325808,"0.0-3.128-0.128","b312u5z1cp08zr7",936,"99.csv","","238.9999999999418","resources/trios/L2T1A1.jpg","37","restless",0.4,0.5,0.5,0.34532032503929,"true"
"image-keyboard-response",396,326210,"0.0-3.128-1.128","b312u5z1cp08zr7",936,"99.csv","","null","resources/maskTrios/L2BB.jpg","null","",NA,NA,NA,NA,""
"image-keyboard-response",397,327412,"0.0-3.128-2.128","b312u5z1cp08zr7",936,"99.csv","","null","resources/images/coin2.png","null","",NA,NA,NA,NA,""
"image-keyboard-response",398,327672,"0.0-3.129-0.129","b312u5z1cp08zr7",936,"99.csv","","259","resources/trios/L4T1A2.jpg","37","restless",0.4,0.5,0.4,0.269058350462394,"true"
"image-keyboard-response",399,328076,"0.0-3.129-1.129","b312u5z1cp08zr7",936,"99.csv","","null","resources/maskTrios/L4BB.jpg","null","",NA,NA,NA,NA,""
"image-keyboard-response",400,329278,"0.0-3.129-2.129","b312u5z1cp08zr7",936,"99.csv","","null","resources/images/coin2.png","null","",NA,NA,NA,NA,""
"image-keyboard-response",401,329548,"0.0-3.130-0.130","b312u5z1cp08zr7",936,"99.csv","","268","resources/trios/L4T2A2.jpg","37","restless",0.4,0.5,0.4,0.408384703880193,"false"
"image-keyboard-response",402,329950,"0.0-3.130-1.130","b312u5z1cp08zr7",936,"99.csv","","null","resources/maskTrios/L4BB.jpg","null","",NA,NA,NA,NA,""
"image-keyboard-response",403,331152,"0.0-3.130-2.130","b312u5z1cp08zr7",936,"99.csv","","null","resources/images/fishbone.png","null","",NA,NA,NA,NA,""
"image-keyboard-response",404,331833,"0.0-3.131-0.131","b312u5z1cp08zr7",936,"99.csv","","678","resources/trios/L2T2A2.jpg","37","restless",0.4,0.5,0.4,0.195300377797624,"true"
"image-keyboard-response",405,332236,"0.0-3.131-1.131","b312u5z1cp08zr7",936,"99.csv","","null","resources/maskTrios/L2BB.jpg","null","",NA,NA,NA,NA,""
"image-keyboard-response",406,333438,"0.0-3.131-2.131","b312u5z1cp08zr7",936,"99.csv","","null","resources/images/coin2.png","null","",NA,NA,NA,NA,""
"image-keyboard-response",407,333800,"0.0-3.132-0.132","b312u5z1cp08zr7",936,"99.csv","","360","resources/trios/L4T1A2.jpg","37","restless",0.4,0.5,0.4,0.809048218635793,"false"
"image-keyboard-response",408,334203,"0.0-3.132-1.132","b312u5z1cp08zr7",936,"99.csv","","null","resources/maskTrios/L4BB.jpg","null","",NA,NA,NA,NA,""
"image-keyboard-response",409,335405,"0.0-3.132-2.132","b312u5z1cp08zr7",936,"99.csv","","null","resources/images/fishbone.png","null","",NA,NA,NA,NA,""
"image-keyboard-response",410,335674,"0.0-3.133-0.133","b312u5z1cp08zr7",936,"99.csv","","268","resources/trios/L4T1A1.jpg","38","restless",0.4,0.5,0.4,0.613299719276334,"false"
"image-keyboard-response",411,336076,"0.0-3.133-1.133","b312u5z1cp08zr7",936,"99.csv","","null","resources/maskTrios/BT1B.jpg","null","",NA,NA,NA,NA,""
"image-keyboard-response",412,337278,"0.0-3.133-2.133","b312u5z1cp08zr7",936,"99.csv","","null","resources/images/fishbone.png","null","",NA,NA,NA,NA,""
"image-keyboard-response",413,337371,"0.0-3.134-0.134","b312u5z1cp08zr7",936,"99.csv","","89","resources/trios/L2T2A2.jpg","39","restless",0.4,0.5,0.3,0.46710662982091,"false"
"image-keyboard-response",414,337772,"0.0-3.134-1.134","b312u5z1cp08zr7",936,"99.csv","","null","resources/maskTrios/BBA2.jpg","null","",NA,NA,NA,NA,""
"image-keyboard-response",415,338974,"0.0-3.134-2.134","b312u5z1cp08zr7",936,"99.csv","","null","resources/images/fishbone.png","null","",NA,NA,NA,NA,""
"image-keyboard-response",416,339233,"0.0-3.135-0.135","b312u5z1cp08zr7",936,"99.csv","","258","resources/trios/L4T1A1.jpg","38","restless",0.4,0.5,0.3,0.406920049412888,"true"
"image-keyboard-response",417,339634,"0.0-3.135-1.135","b312u5z1cp08zr7",936,"99.csv","","null","resources/maskTrios/BT1B.jpg","null","",NA,NA,NA,NA,""
"image-keyboard-response",418,340837,"0.0-3.135-2.135","b312u5z1cp08zr7",936,"99.csv","","null","resources/images/coin2.png","null","",NA,NA,NA,NA,""
"image-keyboard-response",419,341087,"0.0-3.136-0.136","b312u5z1cp08zr7",936,"99.csv","","249","resources/trios/L4T2A1.jpg","38","restless",0.4,0.5,0.3,0.775704537800181,"false"
"image-keyboard-response",420,341489,"0.0-3.136-1.136","b312u5z1cp08zr7",936,"99.csv","","null","resources/maskTrios/BT2B.jpg","null","",NA,NA,NA,NA,""
"image-keyboard-response",421,342691,"0.0-3.136-2.136","b312u5z1cp08zr7",936,"99.csv","","null","resources/images/fishbone.png","null","",NA,NA,NA,NA,""
"image-keyboard-response",422,342976,"0.0-3.137-0.137","b312u5z1cp08zr7",936,"99.csv","","284","resources/trios/L2T2A1.jpg","37","restless",0.4,0.5,0.3,0.696268263328166,"false"
"image-keyboard-response",423,343379,"0.0-3.137-1.137","b312u5z1cp08zr7",936,"99.csv","","null","resources/maskTrios/L2BB.jpg","null","",NA,NA,NA,NA,""
"image-keyboard-response",424,344581,"0.0-3.137-2.137","b312u5z1cp08zr7",936,"99.csv","","null","resources/images/fishbone.png","null","",NA,NA,NA,NA,""
"image-keyboard-response",425,344832,"0.0-3.138-0.138","b312u5z1cp08zr7",936,"99.csv","","250","resources/trios/L2T2A1.jpg","39","restless",0.4,0.5,0.3,0.517048674467178,"false"
"image-keyboard-response",426,345235,"0.0-3.138-1.138","b312u5z1cp08zr7",936,"99.csv","","null","resources/maskTrios/BBA1.jpg","null","",NA,NA,NA,NA,""
"image-keyboard-response",427,346436,"0.0-3.138-2.138","b312u5z1cp08zr7",936,"99.csv","","null","resources/images/fishbone.png","null","",NA,NA,NA,NA,""
"image-keyboard-response",428,347628,"0.0-3.139-0.139","b312u5z1cp08zr7",936,"99.csv","","1191","resources/trios/L4T1A2.jpg","38","restless",0.3,0.4,0.3,0.996412126241628,"false"
"image-keyboard-response",429,348030,"0.0-3.139-1.139","b312u5z1cp08zr7",936,"99.csv","","null","resources/maskTrios/BT1B.jpg","null","",NA,NA,NA,NA,""
"image-keyboard-response",430,349232,"0.0-3.139-2.139","b312u5z1cp08zr7",936,"99.csv","","null","resources/images/fishbone.png","null","",NA,NA,NA,NA,""
"image-keyboard-response",431,349507,"0.0-3.140-0.140","b312u5z1cp08zr7",936,"99.csv","","274","resources/trios/L4T1A1.jpg","37","restless",0.3,0.4,0.3,0.790819802252745,"false"
"image-keyboard-response",432,349910,"0.0-3.140-1.140","b312u5z1cp08zr7",936,"99.csv","","null","resources/maskTrios/L4BB.jpg","null","",NA,NA,NA,NA,""
"image-keyboard-response",433,351112,"0.0-3.140-2.140","b312u5z1cp08zr7",936,"99.csv","","null","resources/images/fishbone.png","null","",NA,NA,NA,NA,""
"image-keyboard-response",434,351420,"0.0-3.141-0.141","b312u5z1cp08zr7",936,"99.csv","","307.0000000000582","resources/trios/L4T2A1.jpg","38","restless",0.3,0.4,0.3,0.160991485123785,"true"
"image-keyboard-response",435,351823,"0.0-3.141-1.141","b312u5z1cp08zr7",936,"99.csv","","null","resources/maskTrios/BT2B.jpg","null","",NA,NA,NA,NA,""
"image-keyboard-response",436,353025,"0.0-3.141-2.141","b312u5z1cp08zr7",936,"99.csv","","null","resources/images/coin2.png","null","",NA,NA,NA,NA,""
"image-keyboard-response",437,353470,"0.0-3.142-0.142","b312u5z1cp08zr7",936,"99.csv","","443","resources/trios/L4T1A1.jpg","38","restless",0.3,0.4,0.3,0.829955809383472,"false"
"image-keyboard-response",438,353873,"0.0-3.142-1.142","b312u5z1cp08zr7",936,"99.csv","","null","resources/maskTrios/BT1B.jpg","null","",NA,NA,NA,NA,""
"image-keyboard-response",439,355075,"0.0-3.142-2.142","b312u5z1cp08zr7",936,"99.csv","","null","resources/images/fishbone.png","null","",NA,NA,NA,NA,""
"image-keyboard-response",440,355531,"0.0-3.143-0.143","b312u5z1cp08zr7",936,"99.csv","","455","resources/trios/L4T2A2.jpg","37","restless",0.3,0.4,0.3,0.0542146913828717,"true"
"image-keyboard-response",441,355933,"0.0-3.143-1.143","b312u5z1cp08zr7",936,"99.csv","","null","resources/maskTrios/L4BB.jpg","null","",NA,NA,NA,NA,""
"image-keyboard-response",442,357136,"0.0-3.143-2.143","b312u5z1cp08zr7",936,"99.csv","","null","resources/images/coin2.png","null","",NA,NA,NA,NA,""
"image-keyboard-response",443,357466,"0.0-3.144-0.144","b312u5z1cp08zr7",936,"99.csv","","329","resources/trios/L2T2A1.jpg","37","restless",0.2,0.4,0.3,0.475453246687508,"false"
"image-keyboard-response",444,357868,"0.0-3.144-1.144","b312u5z1cp08zr7",936,"99.csv","","null","resources/maskTrios/L2BB.jpg","null","",NA,NA,NA,NA,""
"image-keyboard-response",445,359071,"0.0-3.144-2.144","b312u5z1cp08zr7",936,"99.csv","","null","resources/images/fishbone.png","null","",NA,NA,NA,NA,""
"image-keyboard-response",446,359210,"0.0-3.145-0.145","b312u5z1cp08zr7",936,"99.csv","","138","resources/trios/L2T2A1.jpg","37","restless",0.2,0.4,0.3,0.493281923153738,"false"
"image-keyboard-response",447,359612,"0.0-3.145-1.145","b312u5z1cp08zr7",936,"99.csv","","null","resources/maskTrios/L2BB.jpg","null","",NA,NA,NA,NA,""
"image-keyboard-response",448,360814,"0.0-3.145-2.145","b312u5z1cp08zr7",936,"99.csv","","null","resources/images/fishbone.png","null","",NA,NA,NA,NA,""
"image-keyboard-response",449,361279,"0.0-3.146-0.146","b312u5z1cp08zr7",936,"99.csv","","464","resources/trios/L4T2A1.jpg","39","restless",0.2,0.3,0.3,0.849864794293375,"false"
"image-keyboard-response",450,361682,"0.0-3.146-1.146","b312u5z1cp08zr7",936,"99.csv","","null","resources/maskTrios/BBA1.jpg","null","",NA,NA,NA,NA,""
"image-keyboard-response",451,362884,"0.0-3.146-2.146","b312u5z1cp08zr7",936,"99.csv","","null","resources/images/fishbone.png","null","",NA,NA,NA,NA,""
"image-keyboard-response",452,363024,"0.0-3.147-0.147","b312u5z1cp08zr7",936,"99.csv","","138","resources/trios/L2T2A2.jpg","38","restless",0.2,0.3,0.3,0.310951839301556,"false"
"image-keyboard-response",453,363426,"0.0-3.147-1.147","b312u5z1cp08zr7",936,"99.csv","","null","resources/maskTrios/BT2B.jpg","null","",NA,NA,NA,NA,""
"image-keyboard-response",454,364628,"0.0-3.147-2.147","b312u5z1cp08zr7",936,"99.csv","","null","resources/images/fishbone.png","null","",NA,NA,NA,NA,""
"image-keyboard-response",455,364910,"0.0-3.148-0.148","b312u5z1cp08zr7",936,"99.csv","","279","resources/trios/L4T1A1.jpg","37","restless",0.2,0.3,0.3,0.154241311636947,"true"
"image-keyboard-response",456,365313,"0.0-3.148-1.148","b312u5z1cp08zr7",936,"99.csv","","null","resources/maskTrios/L4BB.jpg","null","",NA,NA,NA,NA,""
"image-keyboard-response",457,366515,"0.0-3.148-2.148","b312u5z1cp08zr7",936,"99.csv","","null","resources/images/coin2.png","null","",NA,NA,NA,NA,""
"image-keyboard-response",458,366810,"0.0-3.149-0.149","b312u5z1cp08zr7",936,"99.csv","","292.9999999999418","resources/trios/L2T2A1.jpg","37","restless",0.2,0.4,0.3,0.343203882235925,"false"
"image-keyboard-response",459,367212,"0.0-3.149-1.149","b312u5z1cp08zr7",936,"99.csv","","null","resources/maskTrios/L2BB.jpg","null","",NA,NA,NA,NA,""
"image-keyboard-response",460,368414,"0.0-3.149-2.149","b312u5z1cp08zr7",936,"99.csv","","null","resources/images/fishbone.png","null","",NA,NA,NA,NA,""
"image-keyboard-response",461,368511,"0.0-3.150-0.150","b312u5z1cp08zr7",936,"99.csv","","96","resources/trios/L4T1A1.jpg","38","restless",0.2,0.4,0.3,0.00296070429566775,"true"
"image-keyboard-response",462,368913,"0.0-3.150-1.150","b312u5z1cp08zr7",936,"99.csv","","null","resources/maskTrios/BT1B.jpg","null","",NA,NA,NA,NA,""
"image-keyboard-response",463,370115,"0.0-3.150-2.150","b312u5z1cp08zr7",936,"99.csv","","null","resources/images/coin2.png","null","",NA,NA,NA,NA,""
"image-keyboard-response",464,370397,"0.0-3.151-0.151","b312u5z1cp08zr7",936,"99.csv","","280.0000000000582","resources/trios/L4T1A2.jpg","38","restless",0.2,0.4,0.3,0.909267656510553,"false"
"image-keyboard-response",465,370800,"0.0-3.151-1.151","b312u5z1cp08zr7",936,"99.csv","","null","resources/maskTrios/BT1B.jpg","null","",NA,NA,NA,NA,""
"image-keyboard-response",466,372003,"0.0-3.151-2.151","b312u5z1cp08zr7",936,"99.csv","","null","resources/images/fishbone.png","null","",NA,NA,NA,NA,""
"image-keyboard-response",467,372053,"0.0-3.152-0.152","b312u5z1cp08zr7",936,"99.csv","","48","resources/trios/L4T1A2.jpg","39","restless",0.2,0.4,0.4,0.61889928509317,"false"
"image-keyboard-response",468,372456,"0.0-3.152-1.152","b312u5z1cp08zr7",936,"99.csv","","null","resources/maskTrios/BBA2.jpg","null","",NA,NA,NA,NA,""
"image-keyboard-response",469,373658,"0.0-3.152-2.152","b312u5z1cp08zr7",936,"99.csv","","null","resources/images/fishbone.png","null","",NA,NA,NA,NA,""
"image-keyboard-response",470,373993,"0.0-3.153-0.153","b312u5z1cp08zr7",936,"99.csv","","334","resources/trios/L4T2A1.jpg","39","restless",0.2,0.4,0.4,0.339541843576561,"true"
"image-keyboard-response",471,374395,"0.0-3.153-1.153","b312u5z1cp08zr7",936,"99.csv","","null","resources/maskTrios/BBA1.jpg","null","",NA,NA,NA,NA,""
"image-keyboard-response",472,375596,"0.0-3.153-2.153","b312u5z1cp08zr7",936,"99.csv","","null","resources/images/coin2.png","null","",NA,NA,NA,NA,""
"image-keyboard-response",473,375971,"0.0-3.154-0.154","b312u5z1cp08zr7",936,"99.csv","","374","resources/trios/L2T1A2.jpg","39","restless",0.2,0.4,0.4,0.192730381306096,"true"
"image-keyboard-response",474,376372,"0.0-3.154-1.154","b312u5z1cp08zr7",936,"99.csv","","null","resources/maskTrios/BBA2.jpg","null","",NA,NA,NA,NA,""
"image-keyboard-response",475,377574,"0.0-3.154-2.154","b312u5z1cp08zr7",936,"99.csv","","null","resources/images/coin2.png","null","",NA,NA,NA,NA,""
"image-keyboard-response",476,377853,"0.0-3.155-0.155","b312u5z1cp08zr7",936,"99.csv","","278","resources/trios/L4T2A2.jpg","39","restless",0.2,0.4,0.4,0.544588350928574,"false"
"image-keyboard-response",477,378255,"0.0-3.155-1.155","b312u5z1cp08zr7",936,"99.csv","","null","resources/maskTrios/BBA2.jpg","null","",NA,NA,NA,NA,""
"image-keyboard-response",478,379457,"0.0-3.155-2.155","b312u5z1cp08zr7",936,"99.csv","","null","resources/images/fishbone.png","null","",NA,NA,NA,NA,""
"image-keyboard-response",479,379653,"0.0-3.156-0.156","b312u5z1cp08zr7",936,"99.csv","","195","resources/trios/L4T1A1.jpg","38","restless",0.2,0.4,0.4,0.702250879032412,"false"
"image-keyboard-response",480,380056,"0.0-3.156-1.156","b312u5z1cp08zr7",936,"99.csv","","null","resources/maskTrios/BT1B.jpg","null","",NA,NA,NA,NA,""
"image-keyboard-response",481,381257,"0.0-3.156-2.156","b312u5z1cp08zr7",936,"99.csv","","null","resources/images/fishbone.png","null","",NA,NA,NA,NA,""
"image-keyboard-response",482,381369,"0.0-3.157-0.157","b312u5z1cp08zr7",936,"99.csv","","111","resources/trios/L4T1A1.jpg","37","restless",0.2,0.3,0.4,0.113687691114497,"true"
"image-keyboard-response",483,381774,"0.0-3.157-1.157","b312u5z1cp08zr7",936,"99.csv","","null","resources/maskTrios/L4BB.jpg","null","",NA,NA,NA,NA,""
"image-keyboard-response",484,382977,"0.0-3.157-2.157","b312u5z1cp08zr7",936,"99.csv","","null","resources/images/coin2.png","null","",NA,NA,NA,NA,""
"image-keyboard-response",485,383296,"0.0-3.158-0.158","b312u5z1cp08zr7",936,"99.csv","","318.0000000000582","resources/trios/L2T1A1.jpg","37","restless",0.2,0.3,0.4,0.280050528764154,"false"
"image-keyboard-response",486,383698,"0.0-3.158-1.158","b312u5z1cp08zr7",936,"99.csv","","null","resources/maskTrios/L2BB.jpg","null","",NA,NA,NA,NA,""
"image-keyboard-response",487,384901,"0.0-3.158-2.158","b312u5z1cp08zr7",936,"99.csv","","null","resources/images/fishbone.png","null","",NA,NA,NA,NA,""
"image-keyboard-response",488,385096,"0.0-3.159-0.159","b312u5z1cp08zr7",936,"99.csv","","194","resources/trios/L4T1A2.jpg","38","restless",0.2,0.3,0.4,0.892051736232277,"false"
"image-keyboard-response",489,385498,"0.0-3.159-1.159","b312u5z1cp08zr7",936,"99.csv","","null","resources/maskTrios/BT1B.jpg","null","",NA,NA,NA,NA,""
"image-keyboard-response",490,386700,"0.0-3.159-2.159","b312u5z1cp08zr7",936,"99.csv","","null","resources/images/fishbone.png","null","",NA,NA,NA,NA,""
"image-keyboard-response",491,386758,"0.0-3.160-0.160","b312u5z1cp08zr7",936,"99.csv","","56","resources/trios/L4T2A1.jpg","39","restless",0.2,0.3,0.4,0.631870995602153,"false"
"image-keyboard-response",492,387160,"0.0-3.160-1.160","b312u5z1cp08zr7",936,"99.csv","","null","resources/maskTrios/BBA1.jpg","null","",NA,NA,NA,NA,""
"image-keyboard-response",493,388362,"0.0-3.160-2.160","b312u5z1cp08zr7",936,"99.csv","","null","resources/images/fishbone.png","null","",NA,NA,NA,NA,""
"image-keyboard-response",494,388421,"0.0-3.161-0.161","b312u5z1cp08zr7",936,"99.csv","","57","resources/trios/L2T1A1.jpg","37","restless",0.2,0.3,0.4,0.896425052598307,"false"
"image-keyboard-response",495,388823,"0.0-3.161-1.161","b312u5z1cp08zr7",936,"99.csv","","null","resources/maskTrios/L2BB.jpg","null","",NA,NA,NA,NA,""
"image-keyboard-response",496,390027,"0.0-3.161-2.161","b312u5z1cp08zr7",936,"99.csv","","null","resources/images/fishbone.png","null","",NA,NA,NA,NA,""
"image-keyboard-response",497,390161,"0.0-3.162-0.162","b312u5z1cp08zr7",936,"99.csv","","133","resources/trios/L2T1A1.jpg","38","restless",0.3,0.2,0.4,0.467648195501609,"false"
"image-keyboard-response",498,390564,"0.0-3.162-1.162","b312u5z1cp08zr7",936,"99.csv","","null","resources/maskTrios/BT1B.jpg","null","",NA,NA,NA,NA,""
"image-keyboard-response",499,391766,"0.0-3.162-2.162","b312u5z1cp08zr7",936,"99.csv","","null","resources/images/fishbone.png","null","",NA,NA,NA,NA,""
"image-keyboard-response",500,391997,"0.0-3.163-0.163","b312u5z1cp08zr7",936,"99.csv","","229.9999999999418","resources/trios/L4T1A2.jpg","39","restless",0.3,0.3,0.4,0.445420753245553,"false"
"image-keyboard-response",501,392400,"0.0-3.163-1.163","b312u5z1cp08zr7",936,"99.csv","","null","resources/maskTrios/BBA2.jpg","null","",NA,NA,NA,NA,""
"image-keyboard-response",502,393602,"0.0-3.163-2.163","b312u5z1cp08zr7",936,"99.csv","","null","resources/images/fishbone.png","null","",NA,NA,NA,NA,""
"image-keyboard-response",503,393709,"0.0-3.164-0.164","b312u5z1cp08zr7",936,"99.csv","","106","resources/trios/L4T2A1.jpg","37","restless",0.3,0.4,0.5,0.186150770821564,"true"
"image-keyboard-response",504,394112,"0.0-3.164-1.164","b312u5z1cp08zr7",936,"99.csv","","null","resources/maskTrios/L4BB.jpg","null","",NA,NA,NA,NA,""
"image-keyboard-response",505,395313,"0.0-3.164-2.164","b312u5z1cp08zr7",936,"99.csv","","null","resources/images/coin2.png","null","",NA,NA,NA,NA,""
"image-keyboard-response",506,395513,"0.0-3.165-0.165","b312u5z1cp08zr7",936,"99.csv","","198","resources/trios/L2T2A1.jpg","37","restless",0.3,0.4,0.6,0.0464518991287881,"true"
"image-keyboard-response",507,395915,"0.0-3.165-1.165","b312u5z1cp08zr7",936,"99.csv","","null","resources/maskTrios/L2BB.jpg","null","",NA,NA,NA,NA,""
"image-keyboard-response",508,397118,"0.0-3.165-2.165","b312u5z1cp08zr7",936,"99.csv","","null","resources/images/coin2.png","null","",NA,NA,NA,NA,""
"image-keyboard-response",509,397206,"0.0-3.166-0.166","b312u5z1cp08zr7",936,"99.csv","","86.99999999994179","resources/trios/L2T1A1.jpg","37","restless",0.3,0.4,0.6,0.64190999431429,"false"
"image-keyboard-response",510,397608,"0.0-3.166-1.166","b312u5z1cp08zr7",936,"99.csv","","null","resources/maskTrios/L2BB.jpg","null","",NA,NA,NA,NA,""
"image-keyboard-response",511,398810,"0.0-3.166-2.166","b312u5z1cp08zr7",936,"99.csv","","null","resources/images/fishbone.png","null","",NA,NA,NA,NA,""
"image-keyboard-response",512,399084,"0.0-3.167-0.167","b312u5z1cp08zr7",936,"99.csv","","272","resources/trios/L4T2A2.jpg","38","restless",0.3,0.4,0.7,0.36183704611977,"true"
"image-keyboard-response",513,399486,"0.0-3.167-1.167","b312u5z1cp08zr7",936,"99.csv","","null","resources/maskTrios/BT2B.jpg","null","",NA,NA,NA,NA,""
"image-keyboard-response",514,400689,"0.0-3.167-2.167","b312u5z1cp08zr7",936,"99.csv","","null","resources/images/coin2.png","null","",NA,NA,NA,NA,""
"image-keyboard-response",515,400858,"0.0-3.168-0.168","b312u5z1cp08zr7",936,"99.csv","","168","resources/trios/L2T1A1.jpg","38","restless",0.3,0.4,0.7,0.160181948784898,"true"
"image-keyboard-response",516,401262,"0.0-3.168-1.168","b312u5z1cp08zr7",936,"99.csv","","null","resources/maskTrios/BT1B.jpg","null","",NA,NA,NA,NA,""
"image-keyboard-response",517,402464,"0.0-3.168-2.168","b312u5z1cp08zr7",936,"99.csv","","null","resources/images/coin2.png","null","",NA,NA,NA,NA,""
"image-keyboard-response",518,402775,"0.0-3.169-0.169","b312u5z1cp08zr7",936,"99.csv","","309","resources/trios/L4T1A1.jpg","38","restless",0.3,0.4,0.7,0.878495267233123,"false"
"image-keyboard-response",519,403177,"0.0-3.169-1.169","b312u5z1cp08zr7",936,"99.csv","","null","resources/maskTrios/BT1B.jpg","null","",NA,NA,NA,NA,""
"image-keyboard-response",520,404379,"0.0-3.169-2.169","b312u5z1cp08zr7",936,"99.csv","","null","resources/images/fishbone.png","null","",NA,NA,NA,NA,""
"image-keyboard-response",521,405004,"0.0-3.170-0.170","b312u5z1cp08zr7",936,"99.csv","","622.9999999999418","resources/trios/L4T1A1.jpg","37","restless",0.3,0.4,0.7,0.638690909588148,"false"
"image-keyboard-response",522,405407,"0.0-3.170-1.170","b312u5z1cp08zr7",936,"99.csv","","null","resources/maskTrios/L4BB.jpg","null","",NA,NA,NA,NA,""
"image-keyboard-response",523,406609,"0.0-3.170-2.170","b312u5z1cp08zr7",936,"99.csv","","null","resources/images/fishbone.png","null","",NA,NA,NA,NA,""
"image-keyboard-response",524,407280,"0.0-3.171-0.171","b312u5z1cp08zr7",936,"99.csv","","670.0000000000582","resources/trios/L4T2A2.jpg","39","restless",0.3,0.4,0.7,0.618048983522471,"true"
"image-keyboard-response",525,407682,"0.0-3.171-1.171","b312u5z1cp08zr7",936,"99.csv","","null","resources/maskTrios/BBA2.jpg","null","",NA,NA,NA,NA,""
"image-keyboard-response",526,408884,"0.0-3.171-2.171","b312u5z1cp08zr7",936,"99.csv","","null","resources/images/coin2.png","null","",NA,NA,NA,NA,""
"image-keyboard-response",527,409182,"0.0-3.172-0.172","b312u5z1cp08zr7",936,"99.csv","","294","resources/trios/L4T1A2.jpg","39","restless",0.3,0.4,0.7,0.294290702931599,"true"
"image-keyboard-response",528,409585,"0.0-3.172-1.172","b312u5z1cp08zr7",936,"99.csv","","null","resources/maskTrios/BBA2.jpg","null","",NA,NA,NA,NA,""
"image-keyboard-response",529,410787,"0.0-3.172-2.172","b312u5z1cp08zr7",936,"99.csv","","null","resources/images/coin2.png","null","",NA,NA,NA,NA,""
"image-keyboard-response",530,411686,"0.0-3.173-0.173","b312u5z1cp08zr7",936,"99.csv","","897","resources/trios/L4T1A2.jpg","39","restless",0.3,0.4,0.7,0.418511511759015,"true"
"image-keyboard-response",531,412089,"0.0-3.173-1.173","b312u5z1cp08zr7",936,"99.csv","","null","resources/maskTrios/BBA2.jpg","null","",NA,NA,NA,NA,""
"image-keyboard-response",532,413291,"0.0-3.173-2.173","b312u5z1cp08zr7",936,"99.csv","","null","resources/images/coin2.png","null","",NA,NA,NA,NA,""
"image-keyboard-response",533,413512,"0.0-3.174-0.174","b312u5z1cp08zr7",936,"99.csv","","219","resources/trios/L2T1A2.jpg","39","restless",0.3,0.5,0.7,0.226581374733506,"true"
"image-keyboard-response",534,413915,"0.0-3.174-1.174","b312u5z1cp08zr7",936,"99.csv","","null","resources/maskTrios/BBA2.jpg","null","",NA,NA,NA,NA,""
"image-keyboard-response",535,415117,"0.0-3.174-2.174","b312u5z1cp08zr7",936,"99.csv","","null","resources/images/coin2.png","null","",NA,NA,NA,NA,""
"image-keyboard-response",536,415588,"0.0-3.175-0.175","b312u5z1cp08zr7",936,"99.csv","","468.9999999999418","resources/trios/L2T2A1.jpg","39","restless",0.3,0.5,0.6,0.93388305783942,"false"
"image-keyboard-response",537,415990,"0.0-3.175-1.175","b312u5z1cp08zr7",936,"99.csv","","null","resources/maskTrios/BBA1.jpg","null","",NA,NA,NA,NA,""
"image-keyboard-response",538,417193,"0.0-3.175-2.175","b312u5z1cp08zr7",936,"99.csv","","null","resources/images/fishbone.png","null","",NA,NA,NA,NA,""
"image-keyboard-response",539,417476,"0.0-3.176-0.176","b312u5z1cp08zr7",936,"99.csv","","282","resources/trios/L2T2A1.jpg","38","restless",0.3,0.5,0.6,0.566041928471074,"false"
"image-keyboard-response",540,417879,"0.0-3.176-1.176","b312u5z1cp08zr7",936,"99.csv","","null","resources/maskTrios/BT2B.jpg","null","",NA,NA,NA,NA,""
"image-keyboard-response",541,419081,"0.0-3.176-2.176","b312u5z1cp08zr7",936,"99.csv","","null","resources/images/fishbone.png","null","",NA,NA,NA,NA,""
"image-keyboard-response",542,419502,"0.0-3.177-0.177","b312u5z1cp08zr7",936,"99.csv","","419","resources/trios/L4T2A1.jpg","37","restless",0.4,0.5,0.5,0.271284636025477,"true"
"image-keyboard-response",543,419904,"0.0-3.177-1.177","b312u5z1cp08zr7",936,"99.csv","","null","resources/maskTrios/L4BB.jpg","null","",NA,NA,NA,NA,""
"image-keyboard-response",544,421106,"0.0-3.177-2.177","b312u5z1cp08zr7",936,"99.csv","","null","resources/images/coin2.png","null","",NA,NA,NA,NA,""
"image-keyboard-response",545,421467,"0.0-3.178-0.178","b312u5z1cp08zr7",936,"99.csv","","359.9999999999418","resources/trios/L2T1A1.jpg","37","restless",0.4,0.5,0.5,0.557292894091491,"false"
"image-keyboard-response",546,421869,"0.0-3.178-1.178","b312u5z1cp08zr7",936,"99.csv","","null","resources/maskTrios/L2BB.jpg","null","",NA,NA,NA,NA,""
"image-keyboard-response",547,423072,"0.0-3.178-2.178","b312u5z1cp08zr7",936,"99.csv","","null","resources/images/fishbone.png","null","",NA,NA,NA,NA,""
"image-keyboard-response",548,423326,"0.0-3.179-0.179","b312u5z1cp08zr7",936,"99.csv","","254","resources/trios/L2T2A2.jpg","38","restless",0.4,0.5,0.5,0.133336371362765,"true"
"image-keyboard-response",549,423729,"0.0-3.179-1.179","b312u5z1cp08zr7",936,"99.csv","","null","resources/maskTrios/BT2B.jpg","null","",NA,NA,NA,NA,""
"image-keyboard-response",550,424933,"0.0-3.179-2.179","b312u5z1cp08zr7",936,"99.csv","","null","resources/images/coin2.png","null","",NA,NA,NA,NA,""
"image-keyboard-response",551,425153,"0.0-3.180-0.180","b312u5z1cp08zr7",936,"99.csv","","217.9999999999418","resources/trios/L4T2A2.jpg","37","restless",0.4,0.5,0.5,0.46885044321542,"false"
"image-keyboard-response",552,425555,"0.0-3.180-1.180","b312u5z1cp08zr7",936,"99.csv","","null","resources/maskTrios/L4BB.jpg","null","",NA,NA,NA,NA,""
"image-keyboard-response",553,426758,"0.0-3.180-2.180","b312u5z1cp08zr7",936,"99.csv","","null","resources/images/fishbone.png","null","",NA,NA,NA,NA,""
"image-keyboard-response",554,427018,"0.0-3.181-0.181","b312u5z1cp08zr7",936,"99.csv","","260.0000000000582","resources/trios/L4T2A2.jpg","38","restless",0.4,0.5,0.5,0.0344499762666576,"true"
"image-keyboard-response",555,427421,"0.0-3.181-1.181","b312u5z1cp08zr7",936,"99.csv","","null","resources/maskTrios/BT2B.jpg","null","",NA,NA,NA,NA,""
"image-keyboard-response",556,428623,"0.0-3.181-2.181","b312u5z1cp08zr7",936,"99.csv","","null","resources/images/coin2.png","null","",NA,NA,NA,NA,""
"image-keyboard-response",557,428911,"0.0-3.182-0.182","b312u5z1cp08zr7",936,"99.csv","","286.0000000000582","resources/trios/L2T2A2.jpg","38","restless",0.5,0.5,0.5,0.940467803700161,"false"
"image-keyboard-response",558,429312,"0.0-3.182-1.182","b312u5z1cp08zr7",936,"99.csv","","null","resources/maskTrios/BT2B.jpg","null","",NA,NA,NA,NA,""
"image-keyboard-response",559,430514,"0.0-3.182-2.182","b312u5z1cp08zr7",936,"99.csv","","null","resources/images/fishbone.png","null","",NA,NA,NA,NA,""
"image-keyboard-response",560,430864,"0.0-3.183-0.183","b312u5z1cp08zr7",936,"99.csv","","348","resources/trios/L2T1A2.jpg","39","restless",0.5,0.5,0.5,0.957845873178684,"false"
"image-keyboard-response",561,431265,"0.0-3.183-1.183","b312u5z1cp08zr7",936,"99.csv","","null","resources/maskTrios/BBA2.jpg","null","",NA,NA,NA,NA,""
"image-keyboard-response",562,432467,"0.0-3.183-2.183","b312u5z1cp08zr7",936,"99.csv","","null","resources/images/fishbone.png","null","",NA,NA,NA,NA,""
"image-keyboard-response",563,432696,"0.0-3.184-0.184","b312u5z1cp08zr7",936,"99.csv","","227","resources/trios/L4T2A1.jpg","39","restless",0.6,0.5,0.5,0.681905674516647,"false"
"image-keyboard-response",564,433098,"0.0-3.184-1.184","b312u5z1cp08zr7",936,"99.csv","","null","resources/maskTrios/BBA1.jpg","null","",NA,NA,NA,NA,""
"image-keyboard-response",565,434300,"0.0-3.184-2.184","b312u5z1cp08zr7",936,"99.csv","","null","resources/images/fishbone.png","null","",NA,NA,NA,NA,""
"image-keyboard-response",566,434698,"0.0-3.185-0.185","b312u5z1cp08zr7",936,"99.csv","","397","resources/trios/L2T1A1.jpg","38","restless",0.6,0.5,0.5,0.683990324812593,"false"
"image-keyboard-response",567,435100,"0.0-3.185-1.185","b312u5z1cp08zr7",936,"99.csv","","null","resources/maskTrios/BT1B.jpg","null","",NA,NA,NA,NA,""
"image-keyboard-response",568,436302,"0.0-3.185-2.185","b312u5z1cp08zr7",936,"99.csv","","null","resources/images/fishbone.png","null","",NA,NA,NA,NA,""
"image-keyboard-response",569,436734,"0.0-3.186-0.186","b312u5z1cp08zr7",936,"99.csv","","430","resources/trios/L2T2A1.jpg","37","restless",0.6,0.5,0.5,0.688425685409388,"false"
"image-keyboard-response",570,437136,"0.0-3.186-1.186","b312u5z1cp08zr7",936,"99.csv","","null","resources/maskTrios/L2BB.jpg","null","",NA,NA,NA,NA,""
"image-keyboard-response",571,438337,"0.0-3.186-2.186","b312u5z1cp08zr7",936,"99.csv","","null","resources/images/fishbone.png","null","",NA,NA,NA,NA,""
"image-keyboard-response",572,438553,"0.0-3.187-0.187","b312u5z1cp08zr7",936,"99.csv","","214","resources/trios/L2T2A2.jpg","38","restless",0.6,0.5,0.5,0.623423527612288,"false"
"image-keyboard-response",573,438955,"0.0-3.187-1.187","b312u5z1cp08zr7",936,"99.csv","","null","resources/maskTrios/BT2B.jpg","null","",NA,NA,NA,NA,""
"image-keyboard-response",574,440155,"0.0-3.187-2.187","b312u5z1cp08zr7",936,"99.csv","","null","resources/images/fishbone.png","null","",NA,NA,NA,NA,""
"image-keyboard-response",575,440395,"0.0-3.188-0.188","b312u5z1cp08zr7",936,"99.csv","","238.9999999999418","resources/trios/L2T1A2.jpg","39","restless",0.6,0.5,0.5,0.00130921133463591,"true"
"image-keyboard-response",576,440797,"0.0-3.188-1.188","b312u5z1cp08zr7",936,"99.csv","","null","resources/maskTrios/BBA2.jpg","null","",NA,NA,NA,NA,""
"image-keyboard-response",577,441999,"0.0-3.188-2.188","b312u5z1cp08zr7",936,"99.csv","","null","resources/images/coin2.png","null","",NA,NA,NA,NA,""
"image-keyboard-response",578,442292,"0.0-3.189-0.189","b312u5z1cp08zr7",936,"99.csv","","292","resources/trios/L4T1A2.jpg","39","restless",0.7,0.5,0.5,0.761978510822148,"false"
"image-keyboard-response",579,442697,"0.0-3.189-1.189","b312u5z1cp08zr7",936,"99.csv","","null","resources/maskTrios/BBA2.jpg","null","",NA,NA,NA,NA,""
"image-keyboard-response",580,443899,"0.0-3.189-2.189","b312u5z1cp08zr7",936,"99.csv","","null","resources/images/fishbone.png","null","",NA,NA,NA,NA,""
"image-keyboard-response",581,444149,"0.0-3.190-0.190","b312u5z1cp08zr7",936,"99.csv","","249.0000000000582","resources/trios/L2T1A2.jpg","37","restless",0.7,0.5,0.4,0.957798643079028,"false"
"image-keyboard-response",582,444552,"0.0-3.190-1.190","b312u5z1cp08zr7",936,"99.csv","","null","resources/maskTrios/L2BB.jpg","null","",NA,NA,NA,NA,""
"image-keyboard-response",583,445754,"0.0-3.190-2.190","b312u5z1cp08zr7",936,"99.csv","","null","resources/images/fishbone.png","null","",NA,NA,NA,NA,""
"image-keyboard-response",584,446022,"0.0-3.191-0.191","b312u5z1cp08zr7",936,"99.csv","","267","resources/trios/L4T1A2.jpg","38","restless",0.7,0.5,0.4,0.141852188519621,"true"
"image-keyboard-response",585,446425,"0.0-3.191-1.191","b312u5z1cp08zr7",936,"99.csv","","null","resources/maskTrios/BT1B.jpg","null","",NA,NA,NA,NA,""
"image-keyboard-response",586,447627,"0.0-3.191-2.191","b312u5z1cp08zr7",936,"99.csv","","null","resources/images/coin2.png","null","",NA,NA,NA,NA,""
"image-keyboard-response",587,447904,"0.0-3.192-0.192","b312u5z1cp08zr7",936,"99.csv","","276","resources/trios/L4T1A2.jpg","38","restless",0.7,0.5,0.4,0.251325934562383,"true"
"image-keyboard-response",588,448307,"0.0-3.192-1.192","b312u5z1cp08zr7",936,"99.csv","","null","resources/maskTrios/BT1B.jpg","null","",NA,NA,NA,NA,""
"image-keyboard-response",589,449508,"0.0-3.192-2.192","b312u5z1cp08zr7",936,"99.csv","","null","resources/images/coin2.png","null","",NA,NA,NA,NA,""
"image-keyboard-response",590,449783,"0.0-3.193-0.193","b312u5z1cp08zr7",936,"99.csv","","274","resources/trios/L2T1A2.jpg","38","restless",0.7,0.4,0.4,0.283433211983502,"true"
"image-keyboard-response",591,450186,"0.0-3.193-1.193","b312u5z1cp08zr7",936,"99.csv","","null","resources/maskTrios/BT1B.jpg","null","",NA,NA,NA,NA,""
"image-keyboard-response",592,451388,"0.0-3.193-2.193","b312u5z1cp08zr7",936,"99.csv","","null","resources/images/coin2.png","null","",NA,NA,NA,NA,""
"image-keyboard-response",593,451605,"0.0-3.194-0.194","b312u5z1cp08zr7",936,"99.csv","","216","resources/trios/L4T2A2.jpg","38","restless",0.7,0.4,0.4,0.596050396886453,"false"
"image-keyboard-response",594,452010,"0.0-3.194-1.194","b312u5z1cp08zr7",936,"99.csv","","null","resources/maskTrios/BT2B.jpg","null","",NA,NA,NA,NA,""
"image-keyboard-response",595,453213,"0.0-3.194-2.194","b312u5z1cp08zr7",936,"99.csv","","null","resources/images/fishbone.png","null","",NA,NA,NA,NA,""
"image-keyboard-response",596,453421,"0.0-3.195-0.195","b312u5z1cp08zr7",936,"99.csv","","207","resources/trios/L4T1A1.jpg","37","restless",0.7,0.4,0.4,0.974291078832255,"false"
"image-keyboard-response",597,453824,"0.0-3.195-1.195","b312u5z1cp08zr7",936,"99.csv","","null","resources/maskTrios/L4BB.jpg","null","",NA,NA,NA,NA,""
"image-keyboard-response",598,455026,"0.0-3.195-2.195","b312u5z1cp08zr7",936,"99.csv","","null","resources/images/fishbone.png","null","",NA,NA,NA,NA,""
"image-keyboard-response",599,455226,"0.0-3.196-0.196","b312u5z1cp08zr7",936,"99.csv","","199","resources/trios/L4T1A2.jpg","39","restless",0.7,0.4,0.4,0.527785955216098,"false"
"image-keyboard-response",600,455629,"0.0-3.196-1.196","b312u5z1cp08zr7",936,"99.csv","","null","resources/maskTrios/BBA2.jpg","null","",NA,NA,NA,NA,""
"image-keyboard-response",601,456831,"0.0-3.196-2.196","b312u5z1cp08zr7",936,"99.csv","","null","resources/images/fishbone.png","null","",NA,NA,NA,NA,""
"image-keyboard-response",602,457091,"0.0-3.197-0.197","b312u5z1cp08zr7",936,"99.csv","","259.0000000000582","resources/trios/L4T2A2.jpg","38","restless",0.7,0.5,0.4,0.680477420976191,"false"
"image-keyboard-response",603,457494,"0.0-3.197-1.197","b312u5z1cp08zr7",936,"99.csv","","null","resources/maskTrios/BT2B.jpg","null","",NA,NA,NA,NA,""
"image-keyboard-response",604,458694,"0.0-3.197-2.197","b312u5z1cp08zr7",936,"99.csv","","null","resources/images/fishbone.png","null","",NA,NA,NA,NA,""
"image-keyboard-response",605,458933,"0.0-3.198-0.198","b312u5z1cp08zr7",936,"99.csv","","238","resources/trios/L2T1A2.jpg","37","restless",0.7,0.5,0.4,0.304448881349257,"true"
"image-keyboard-response",606,459335,"0.0-3.198-1.198","b312u5z1cp08zr7",936,"99.csv","","null","resources/maskTrios/L2BB.jpg","null","",NA,NA,NA,NA,""
"image-keyboard-response",607,460536,"0.0-3.198-2.198","b312u5z1cp08zr7",936,"99.csv","","null","resources/images/coin2.png","null","",NA,NA,NA,NA,""
"image-keyboard-response",608,460885,"0.0-3.199-0.199","b312u5z1cp08zr7",936,"99.csv","","348","resources/trios/L4T2A1.jpg","37","restless",0.7,0.5,0.4,0.873731575521706,"false"
"image-keyboard-response",609,461287,"0.0-3.199-1.199","b312u5z1cp08zr7",936,"99.csv","","null","resources/maskTrios/L4BB.jpg","null","",NA,NA,NA,NA,""
"image-keyboard-response",610,462487,"0.0-3.199-2.199","b312u5z1cp08zr7",936,"99.csv","","null","resources/images/fishbone.png","null","",NA,NA,NA,NA,""
"image-keyboard-response",611,462779,"0.0-3.200-0.200","b312u5z1cp08zr7",936,"99.csv","","290.0000000000582","resources/trios/L4T2A2.jpg","38","restless",0.7,0.5,0.4,0.702809975765395,"false"
"image-keyboard-response",612,463181,"0.0-3.200-1.200","b312u5z1cp08zr7",936,"99.csv","","null","resources/maskTrios/BT2B.jpg","null","",NA,NA,NA,NA,""
"image-keyboard-response",613,464381,"0.0-3.200-2.200","b312u5z1cp08zr7",936,"99.csv","","null","resources/images/fishbone.png","null","",NA,NA,NA,NA,""
"image-keyboard-response",614,464615,"0.0-3.201-0.201","b312u5z1cp08zr7",936,"99.csv","","232","resources/trios/L4T1A1.jpg","39","restless",0.7,0.5,0.4,0.425694151619986,"false"
"image-keyboard-response",615,465017,"0.0-3.201-1.201","b312u5z1cp08zr7",936,"99.csv","","null","resources/maskTrios/BBA1.jpg","null","",NA,NA,NA,NA,""
"image-keyboard-response",616,466218,"0.0-3.201-2.201","b312u5z1cp08zr7",936,"99.csv","","null","resources/images/fishbone.png","null","",NA,NA,NA,NA,""
"image-keyboard-response",617,466401,"0.0-3.202-0.202","b312u5z1cp08zr7",936,"99.csv","","180","resources/trios/L4T2A1.jpg","37","restless",0.7,0.6,0.4,0.334164252310104,"true"
"image-keyboard-response",618,466801,"0.0-3.202-1.202","b312u5z1cp08zr7",936,"99.csv","","null","resources/maskTrios/L4BB.jpg","null","",NA,NA,NA,NA,""
"image-keyboard-response",619,468003,"0.0-3.202-2.202","b312u5z1cp08zr7",936,"99.csv","","null","resources/images/coin2.png","null","",NA,NA,NA,NA,""
"image-keyboard-response",620,468301,"0.0-3.203-0.203","b312u5z1cp08zr7",936,"99.csv","","297","resources/trios/L2T2A2.jpg","37","restless",0.7,0.6,0.4,0.248366042601248,"true"
