"trial_type","trial_index","time_elapsed","internal_node_id","subject","participantCode","walkNumber","success","rt","stimulus","key_press","test_part","leftProb","midProb","rightProb","generatedNum","correct"
"pavlovia",0,1072,"0.0-0.0","s58upcbrgv4br5k",321,"55.csv","","","","","",NA,NA,NA,NA,""
"fullscreen",1,4091,"0.0-1.0","s58upcbrgv4br5k",321,"55.csv","true","","","","",NA,NA,NA,NA,""
"html-keyboard-response",2,22468,"0.0-2.0-0.0","s58upcbrgv4br5k",321,"55.csv","","18368.700000047684","<p><font size='6'>Arrrgh!</p></font><p>Can you be the best pirate? Try to find lots of gold! But beware, some islands have more gold than others, and over time, the island with the most gold may change. Can YOU figure it out? </p><font size='6'>GOOD LUCK, CAPTAIN!!!</font><p>Press any key to begin</p>","32","",NA,NA,NA,NA,""
"image-keyboard-response",3,25472,"0.0-2.0-1.0","s58upcbrgv4br5k",321,"55.csv","","null","resources/image_sets/111.png","null","",NA,NA,NA,NA,""
"image-keyboard-response",4,33171,"0.0-2.0-2.0","s58upcbrgv4br5k",321,"55.csv","","7697.700000047684","resources/image_sets/left_highlight.png","37","",NA,NA,NA,NA,""
"image-keyboard-response",5,34185,"0.0-2.0-3.0","s58upcbrgv4br5k",321,"55.csv","","1011.8000001907349","resources/image_sets/mid_highlight.png","38","",NA,NA,NA,NA,""
"image-keyboard-response",6,37742,"0.0-2.0-4.0","s58upcbrgv4br5k",321,"55.csv","","3556.2000000476837","resources/image_sets/right_highlight.png","39","",NA,NA,NA,NA,""
"image-keyboard-response",7,45470,"0.0-2.0-5.0","s58upcbrgv4br5k",321,"55.csv","","7726.799999952316","resources/image_sets/111.png","13","",NA,NA,NA,NA,""
"image-keyboard-response",8,48540,"0.0-2.0-6.0","s58upcbrgv4br5k",321,"55.csv","","3068.4000000953674","resources/images/coin2.png","13","",NA,NA,NA,NA,""
"image-keyboard-response",9,51795,"0.0-2.0-7.0","s58upcbrgv4br5k",321,"55.csv","","3254.2000000476837","resources/images/fishbone.png","13","",NA,NA,NA,NA,""
"html-keyboard-response",10,57838,"0.0-2.0-8.0","s58upcbrgv4br5k",321,"55.csv","","6041.899999856949","<p>Your first journey will be a long one, but you will get a well deserved break at the end</p><p>After the break you will have four more journeys, but each will be much shorter than the first, and you will have breaks in between each</p><p>Press Enter to begin</p>","13","",NA,NA,NA,NA,""
"image-keyboard-response",11,60181,"0.0-3.0-0.0","s58upcbrgv4br5k",321,"55.csv","","2340.100000143051","resources/trios/L4T4A2.jpg","37","restless",0.3,0.9,0.7,0.685554886342154,"false"
"image-keyboard-response",12,60584,"0.0-3.0-1.0","s58upcbrgv4br5k",321,"55.csv","","null","resources/maskTrios/L4BB.jpg","null","",NA,NA,NA,NA,""
"image-keyboard-response",13,61790,"0.0-3.0-2.0","s58upcbrgv4br5k",321,"55.csv","","null","resources/images/fishbone.png","null","",NA,NA,NA,NA,""
"image-keyboard-response",14,64160,"0.0-3.1-0.1","s58upcbrgv4br5k",321,"55.csv","","2368.7000000476837","resources/trios/L4T2A1.jpg","37","restless",0.3,0.9,0.7,0.793168282039474,"false"
"image-keyboard-response",15,64562,"0.0-3.1-1.1","s58upcbrgv4br5k",321,"55.csv","","null","resources/maskTrios/L4BB.jpg","null","",NA,NA,NA,NA,""
"image-keyboard-response",16,65765,"0.0-3.1-2.1","s58upcbrgv4br5k",321,"55.csv","","null","resources/images/fishbone.png","null","",NA,NA,NA,NA,""
"image-keyboard-response",17,68130,"0.0-3.2-0.2","s58upcbrgv4br5k",321,"55.csv","","2363.7000000476837","resources/trios/L4T2A1.jpg","39","restless",0.3,0.9,0.7,0.272272245322667,"true"
"image-keyboard-response",18,68534,"0.0-3.2-1.2","s58upcbrgv4br5k",321,"55.csv","","null","resources/maskTrios/BBA1.jpg","null","",NA,NA,NA,NA,""
"image-keyboard-response",19,69742,"0.0-3.2-2.2","s58upcbrgv4br5k",321,"55.csv","","null","resources/images/coin2.png","null","",NA,NA,NA,NA,""
"image-keyboard-response",20,73483,"0.0-3.3-0.3","s58upcbrgv4br5k",321,"55.csv","","3739.9000000953674","resources/trios/L1T2A2.jpg","39","restless",0.3,0.9,0.7,0.104741617781101,"true"
"image-keyboard-response",21,73890,"0.0-3.3-1.3","s58upcbrgv4br5k",321,"55.csv","","null","resources/maskTrios/BBA2.jpg","null","",NA,NA,NA,NA,""
"image-keyboard-response",22,75096,"0.0-3.3-2.3","s58upcbrgv4br5k",321,"55.csv","","null","resources/images/coin2.png","null","",NA,NA,NA,NA,""
"image-keyboard-response",23,76518,"0.0-3.4-0.4","s58upcbrgv4br5k",321,"55.csv","","1420.5999999046326","resources/trios/L1T4A1.jpg","39","restless",0.3,0.9,0.7,0.719733449151743,"false"
"image-keyboard-response",24,76923,"0.0-3.4-1.4","s58upcbrgv4br5k",321,"55.csv","","null","resources/maskTrios/BBA1.jpg","null","",NA,NA,NA,NA,""
"image-keyboard-response",25,78129,"0.0-3.4-2.4","s58upcbrgv4br5k",321,"55.csv","","null","resources/images/fishbone.png","null","",NA,NA,NA,NA,""
"image-keyboard-response",26,83893,"0.0-3.5-0.5","s58upcbrgv4br5k",321,"55.csv","","5762.5","resources/trios/L1T2A1.jpg","37","restless",0.3,0.9,0.7,0.599194052526145,"false"
"image-keyboard-response",27,84299,"0.0-3.5-1.5","s58upcbrgv4br5k",321,"55.csv","","null","resources/maskTrios/L1BB.jpg","null","",NA,NA,NA,NA,""
"image-keyboard-response",28,85501,"0.0-3.5-2.5","s58upcbrgv4br5k",321,"55.csv","","null","resources/images/fishbone.png","null","",NA,NA,NA,NA,""
"image-keyboard-response",29,86150,"0.0-3.6-0.6","s58upcbrgv4br5k",321,"55.csv","","646.8999998569489","resources/trios/L1T2A2.jpg","38","restless",0.3,0.9,0.7,0.806811968235642,"true"
"image-keyboard-response",30,86551,"0.0-3.6-1.6","s58upcbrgv4br5k",321,"55.csv","","null","resources/maskTrios/BT2B.jpg","null","",NA,NA,NA,NA,""
"image-keyboard-response",31,87755,"0.0-3.6-2.6","s58upcbrgv4br5k",321,"55.csv","","null","resources/images/coin2.png","null","",NA,NA,NA,NA,""
"image-keyboard-response",32,88469,"0.0-3.7-0.7","s58upcbrgv4br5k",321,"55.csv","","712.6000001430511","resources/trios/L4T2A1.jpg","38","restless",0.3,0.9,0.7,0.260417715162086,"true"
"image-keyboard-response",33,88875,"0.0-3.7-1.7","s58upcbrgv4br5k",321,"55.csv","","null","resources/maskTrios/BT2B.jpg","null","",NA,NA,NA,NA,""
"image-keyboard-response",34,90081,"0.0-3.7-2.7","s58upcbrgv4br5k",321,"55.csv","","null","resources/images/coin2.png","null","",NA,NA,NA,NA,""
"image-keyboard-response",35,91378,"0.0-3.8-0.8","s58upcbrgv4br5k",321,"55.csv","","1295.6000001430511","resources/trios/L1T2A2.jpg","37","restless",0.3,0.9,0.7,0.0453324646297908,"true"
"image-keyboard-response",36,91785,"0.0-3.8-1.8","s58upcbrgv4br5k",321,"55.csv","","null","resources/maskTrios/L1BB.jpg","null","",NA,NA,NA,NA,""
"image-keyboard-response",37,92988,"0.0-3.8-2.8","s58upcbrgv4br5k",321,"55.csv","","null","resources/images/coin2.png","null","",NA,NA,NA,NA,""
"image-keyboard-response",38,93432,"0.0-3.9-0.9","s58upcbrgv4br5k",321,"55.csv","","442.2999999523163","resources/trios/L4T2A1.jpg","37","restless",0.3,0.9,0.7,0.878075522862606,"false"
"image-keyboard-response",39,93838,"0.0-3.9-1.9","s58upcbrgv4br5k",321,"55.csv","","null","resources/maskTrios/L4BB.jpg","null","",NA,NA,NA,NA,""
"image-keyboard-response",40,95039,"0.0-3.9-2.9","s58upcbrgv4br5k",321,"55.csv","","null","resources/images/fishbone.png","null","",NA,NA,NA,NA,""
"image-keyboard-response",41,96755,"0.0-3.10-0.10","s58upcbrgv4br5k",321,"55.csv","","1714.8999998569489","resources/trios/L4T2A1.jpg","38","restless",0.3,0.8,0.7,0.0632309155608177,"true"
"image-keyboard-response",42,97158,"0.0-3.10-1.10","s58upcbrgv4br5k",321,"55.csv","","null","resources/maskTrios/BT2B.jpg","null","",NA,NA,NA,NA,""
"image-keyboard-response",43,98363,"0.0-3.10-2.10","s58upcbrgv4br5k",321,"55.csv","","null","resources/images/coin2.png","null","",NA,NA,NA,NA,""
"image-keyboard-response",44,99353,"0.0-3.11-0.11","s58upcbrgv4br5k",321,"55.csv","","989.0999999046326","resources/trios/L4T4A1.jpg","39","restless",0.3,0.8,0.7,0.223526099487735,"true"
"image-keyboard-response",45,99758,"0.0-3.11-1.11","s58upcbrgv4br5k",321,"55.csv","","null","resources/maskTrios/BBA1.jpg","null","",NA,NA,NA,NA,""
"image-keyboard-response",46,100960,"0.0-3.11-2.11","s58upcbrgv4br5k",321,"55.csv","","null","resources/images/coin2.png","null","",NA,NA,NA,NA,""
"image-keyboard-response",47,103650,"0.0-3.12-0.12","s58upcbrgv4br5k",321,"55.csv","","2689.2999999523163","resources/trios/L4T2A2.jpg","39","restless",0.3,0.8,0.7,0.116346923133533,"true"
"image-keyboard-response",48,104057,"0.0-3.12-1.12","s58upcbrgv4br5k",321,"55.csv","","null","resources/maskTrios/BBA2.jpg","null","",NA,NA,NA,NA,""
"image-keyboard-response",49,105259,"0.0-3.12-2.12","s58upcbrgv4br5k",321,"55.csv","","null","resources/images/coin2.png","null","",NA,NA,NA,NA,""
"image-keyboard-response",50,106503,"0.0-3.13-0.13","s58upcbrgv4br5k",321,"55.csv","","1242.9000000953674","resources/trios/L4T2A1.jpg","38","restless",0.3,0.8,0.7,0.197392882362442,"true"
"image-keyboard-response",51,106905,"0.0-3.13-1.13","s58upcbrgv4br5k",321,"55.csv","","null","resources/maskTrios/BT2B.jpg","null","",NA,NA,NA,NA,""
"image-keyboard-response",52,108111,"0.0-3.13-2.13","s58upcbrgv4br5k",321,"55.csv","","null","resources/images/coin2.png","null","",NA,NA,NA,NA,""
"image-keyboard-response",53,108663,"0.0-3.14-0.14","s58upcbrgv4br5k",321,"55.csv","","548.0999999046326","resources/trios/L1T2A1.jpg","38","restless",0.3,0.8,0.7,0.43476300282784,"true"
"image-keyboard-response",54,109066,"0.0-3.14-1.14","s58upcbrgv4br5k",321,"55.csv","","null","resources/maskTrios/BT2B.jpg","null","",NA,NA,NA,NA,""
"image-keyboard-response",55,110268,"0.0-3.14-2.14","s58upcbrgv4br5k",321,"55.csv","","null","resources/images/coin2.png","null","",NA,NA,NA,NA,""
"image-keyboard-response",56,111543,"0.0-3.15-0.15","s58upcbrgv4br5k",321,"55.csv","","1273.2000000476837","resources/trios/L1T4A1.jpg","37","restless",0.3,0.8,0.7,0.526501958400004,"false"
"image-keyboard-response",57,111950,"0.0-3.15-1.15","s58upcbrgv4br5k",321,"55.csv","","null","resources/maskTrios/L1BB.jpg","null","",NA,NA,NA,NA,""
"image-keyboard-response",58,113156,"0.0-3.15-2.15","s58upcbrgv4br5k",321,"55.csv","","null","resources/images/fishbone.png","null","",NA,NA,NA,NA,""
"image-keyboard-response",59,114544,"0.0-3.16-0.16","s58upcbrgv4br5k",321,"55.csv","","1386.2000000476837","resources/trios/L1T2A2.jpg","38","restless",0.3,0.8,0.7,0.390326732982976,"true"
"image-keyboard-response",60,114946,"0.0-3.16-1.16","s58upcbrgv4br5k",321,"55.csv","","null","resources/maskTrios/BT2B.jpg","null","",NA,NA,NA,NA,""
"image-keyboard-response",61,116148,"0.0-3.16-2.16","s58upcbrgv4br5k",321,"55.csv","","null","resources/images/coin2.png","null","",NA,NA,NA,NA,""
"image-keyboard-response",62,116671,"0.0-3.17-0.17","s58upcbrgv4br5k",321,"55.csv","","521.5999999046326","resources/trios/L1T4A2.jpg","37","restless",0.4,0.8,0.7,0.822610482740736,"false"
"image-keyboard-response",63,117076,"0.0-3.17-1.17","s58upcbrgv4br5k",321,"55.csv","","null","resources/maskTrios/L1BB.jpg","null","",NA,NA,NA,NA,""
"image-keyboard-response",64,118279,"0.0-3.17-2.17","s58upcbrgv4br5k",321,"55.csv","","null","resources/images/fishbone.png","null","",NA,NA,NA,NA,""
"image-keyboard-response",65,118757,"0.0-3.18-0.18","s58upcbrgv4br5k",321,"55.csv","","477.5","resources/trios/L1T2A1.jpg","38","restless",0.4,0.7,0.7,0.661313686179037,"true"
"image-keyboard-response",66,119163,"0.0-3.18-1.18","s58upcbrgv4br5k",321,"55.csv","","null","resources/maskTrios/BT2B.jpg","null","",NA,NA,NA,NA,""
"image-keyboard-response",67,120370,"0.0-3.18-2.18","s58upcbrgv4br5k",321,"55.csv","","null","resources/images/coin2.png","null","",NA,NA,NA,NA,""
"image-keyboard-response",68,122338,"0.0-3.19-0.19","s58upcbrgv4br5k",321,"55.csv","","1966.5","resources/trios/L4T4A2.jpg","38","restless",0.4,0.6,0.7,0.703257664217039,"false"
"image-keyboard-response",69,122744,"0.0-3.19-1.19","s58upcbrgv4br5k",321,"55.csv","","null","resources/maskTrios/BT4B.jpg","null","",NA,NA,NA,NA,""
"image-keyboard-response",70,123950,"0.0-3.19-2.19","s58upcbrgv4br5k",321,"55.csv","","null","resources/images/fishbone.png","null","",NA,NA,NA,NA,""
"image-keyboard-response",71,125067,"0.0-3.20-0.20","s58upcbrgv4br5k",321,"55.csv","","1115.3999998569489","resources/trios/L4T4A2.jpg","39","restless",0.4,0.6,0.7,0.39292815968652,"true"
"image-keyboard-response",72,125474,"0.0-3.20-1.20","s58upcbrgv4br5k",321,"55.csv","","null","resources/maskTrios/BBA2.jpg","null","",NA,NA,NA,NA,""
"image-keyboard-response",73,126677,"0.0-3.20-2.20","s58upcbrgv4br5k",321,"55.csv","","null","resources/images/coin2.png","null","",NA,NA,NA,NA,""
"image-keyboard-response",74,127404,"0.0-3.21-0.21","s58upcbrgv4br5k",321,"55.csv","","726.2999999523163","resources/trios/L4T2A2.jpg","39","restless",0.4,0.6,0.7,0.874125148787732,"false"
"image-keyboard-response",75,127810,"0.0-3.21-1.21","s58upcbrgv4br5k",321,"55.csv","","null","resources/maskTrios/BBA2.jpg","null","",NA,NA,NA,NA,""
"image-keyboard-response",76,129012,"0.0-3.21-2.21","s58upcbrgv4br5k",321,"55.csv","","null","resources/images/fishbone.png","null","",NA,NA,NA,NA,""
"image-keyboard-response",77,129042,"0.0-3.22-0.22","s58upcbrgv4br5k",321,"55.csv","","28.799999952316284","resources/trios/L4T2A2.jpg","37","restless",0.4,0.6,0.7,0.767244165862813,"false"
"image-keyboard-response",78,129444,"0.0-3.22-1.22","s58upcbrgv4br5k",321,"55.csv","","null","resources/maskTrios/L4BB.jpg","null","",NA,NA,NA,NA,""
"image-keyboard-response",79,130650,"0.0-3.22-2.22","s58upcbrgv4br5k",321,"55.csv","","null","resources/images/fishbone.png","null","",NA,NA,NA,NA,""
"image-keyboard-response",80,130691,"0.0-3.23-0.23","s58upcbrgv4br5k",321,"55.csv","","39.59999990463257","resources/trios/L1T4A2.jpg","38","restless",0.4,0.6,0.7,0.670872834422797,"false"
"image-keyboard-response",81,131094,"0.0-3.23-1.23","s58upcbrgv4br5k",321,"55.csv","","null","resources/maskTrios/BT4B.jpg","null","",NA,NA,NA,NA,""
"image-keyboard-response",82,132300,"0.0-3.23-2.23","s58upcbrgv4br5k",321,"55.csv","","null","resources/images/fishbone.png","null","",NA,NA,NA,NA,""
"image-keyboard-response",83,132410,"0.0-3.24-0.24","s58upcbrgv4br5k",321,"55.csv","","109.20000004768372","resources/trios/L1T2A2.jpg","39","restless",0.4,0.6,0.7,0.92480794499412,"false"
"image-keyboard-response",84,132816,"0.0-3.24-1.24","s58upcbrgv4br5k",321,"55.csv","","null","resources/maskTrios/BBA2.jpg","null","",NA,NA,NA,NA,""
"image-keyboard-response",85,134022,"0.0-3.24-2.24","s58upcbrgv4br5k",321,"55.csv","","null","resources/images/fishbone.png","null","",NA,NA,NA,NA,""
"image-keyboard-response",86,134896,"0.0-3.25-0.25","s58upcbrgv4br5k",321,"55.csv","","872.4000000953674","resources/trios/L1T4A2.jpg","37","restless",0.4,0.6,0.7,0.620516793265492,"false"
"image-keyboard-response",87,135300,"0.0-3.25-1.25","s58upcbrgv4br5k",321,"55.csv","","null","resources/maskTrios/L1BB.jpg","null","",NA,NA,NA,NA,""
"image-keyboard-response",88,136507,"0.0-3.25-2.25","s58upcbrgv4br5k",321,"55.csv","","null","resources/images/fishbone.png","null","",NA,NA,NA,NA,""
"image-keyboard-response",89,136986,"0.0-3.26-0.26","s58upcbrgv4br5k",321,"55.csv","","478","resources/trios/L4T4A1.jpg","38","restless",0.4,0.6,0.7,0.572873231273156,"true"
"image-keyboard-response",90,137392,"0.0-3.26-1.26","s58upcbrgv4br5k",321,"55.csv","","null","resources/maskTrios/BT4B.jpg","null","",NA,NA,NA,NA,""
"image-keyboard-response",91,138598,"0.0-3.26-2.26","s58upcbrgv4br5k",321,"55.csv","","null","resources/images/coin2.png","null","",NA,NA,NA,NA,""
"image-keyboard-response",92,138968,"0.0-3.27-0.27","s58upcbrgv4br5k",321,"55.csv","","369.7999999523163","resources/trios/L1T4A2.jpg","38","restless",0.4,0.6,0.7,0.486842483029925,"true"
"image-keyboard-response",93,139371,"0.0-3.27-1.27","s58upcbrgv4br5k",321,"55.csv","","null","resources/maskTrios/BT4B.jpg","null","",NA,NA,NA,NA,""
"image-keyboard-response",94,140577,"0.0-3.27-2.27","s58upcbrgv4br5k",321,"55.csv","","null","resources/images/coin2.png","null","",NA,NA,NA,NA,""
"image-keyboard-response",95,140730,"0.0-3.28-0.28","s58upcbrgv4br5k",321,"55.csv","","151.29999995231628","resources/trios/L4T2A1.jpg","38","restless",0.4,0.6,0.8,0.592723161719901,"true"
"image-keyboard-response",96,141136,"0.0-3.28-1.28","s58upcbrgv4br5k",321,"55.csv","","null","resources/maskTrios/BT2B.jpg","null","",NA,NA,NA,NA,""
"image-keyboard-response",97,142339,"0.0-3.28-2.28","s58upcbrgv4br5k",321,"55.csv","","null","resources/images/coin2.png","null","",NA,NA,NA,NA,""
"image-keyboard-response",98,142540,"0.0-3.29-0.29","s58upcbrgv4br5k",321,"55.csv","","200.09999990463257","resources/trios/L1T2A1.jpg","38","restless",0.4,0.6,0.8,0.179037876293639,"true"
"image-keyboard-response",99,142947,"0.0-3.29-1.29","s58upcbrgv4br5k",321,"55.csv","","null","resources/maskTrios/BT2B.jpg","null","",NA,NA,NA,NA,""
"image-keyboard-response",100,144153,"0.0-3.29-2.29","s58upcbrgv4br5k",321,"55.csv","","null","resources/images/coin2.png","null","",NA,NA,NA,NA,""
"image-keyboard-response",101,144202,"0.0-3.30-0.30","s58upcbrgv4br5k",321,"55.csv","","46.90000009536743","resources/trios/L4T2A2.jpg","38","restless",0.4,0.6,0.8,0.177789642806421,"true"
"image-keyboard-response",102,144606,"0.0-3.30-1.30","s58upcbrgv4br5k",321,"55.csv","","null","resources/maskTrios/BT2B.jpg","null","",NA,NA,NA,NA,""
"image-keyboard-response",103,145808,"0.0-3.30-2.30","s58upcbrgv4br5k",321,"55.csv","","null","resources/images/coin2.png","null","",NA,NA,NA,NA,""
"image-keyboard-response",104,145932,"0.0-3.31-0.31","s58upcbrgv4br5k",321,"55.csv","","122.5","resources/trios/L4T2A1.jpg","38","restless",0.4,0.6,0.7,0.603369361789086,"false"
"image-keyboard-response",105,146335,"0.0-3.31-1.31","s58upcbrgv4br5k",321,"55.csv","","null","resources/maskTrios/BT2B.jpg","null","",NA,NA,NA,NA,""
"image-keyboard-response",106,147540,"0.0-3.31-2.31","s58upcbrgv4br5k",321,"55.csv","","null","resources/images/fishbone.png","null","",NA,NA,NA,NA,""
"image-keyboard-response",107,148509,"0.0-3.32-0.32","s58upcbrgv4br5k",321,"55.csv","","967.9000000953674","resources/trios/L4T2A1.jpg","37","restless",0.4,0.6,0.7,0.194205535965434,"true"
"image-keyboard-response",108,148913,"0.0-3.32-1.32","s58upcbrgv4br5k",321,"55.csv","","null","resources/maskTrios/L4BB.jpg","null","",NA,NA,NA,NA,""
"image-keyboard-response",109,150116,"0.0-3.32-2.32","s58upcbrgv4br5k",321,"55.csv","","null","resources/images/coin2.png","null","",NA,NA,NA,NA,""
"image-keyboard-response",110,150125,"0.0-3.33-0.33","s58upcbrgv4br5k",321,"55.csv","","7.900000095367432","resources/trios/L4T4A2.jpg","37","restless",0.4,0.6,0.7,0.532375624724452,"false"
"image-keyboard-response",111,150531,"0.0-3.33-1.33","s58upcbrgv4br5k",321,"55.csv","","null","resources/maskTrios/L4BB.jpg","null","",NA,NA,NA,NA,""
"image-keyboard-response",112,151733,"0.0-3.33-2.33","s58upcbrgv4br5k",321,"55.csv","","null","resources/images/fishbone.png","null","",NA,NA,NA,NA,""
"image-keyboard-response",113,152484,"0.0-3.34-0.34","s58upcbrgv4br5k",321,"55.csv","","749.2999999523163","resources/trios/L4T4A1.jpg","38","restless",0.4,0.6,0.7,0.938463998272681,"false"
"image-keyboard-response",114,152888,"0.0-3.34-1.34","s58upcbrgv4br5k",321,"55.csv","","null","resources/maskTrios/BT4B.jpg","null","",NA,NA,NA,NA,""
"image-keyboard-response",115,154092,"0.0-3.34-2.34","s58upcbrgv4br5k",321,"55.csv","","null","resources/images/fishbone.png","null","",NA,NA,NA,NA,""
"image-keyboard-response",116,154102,"0.0-3.35-0.35","s58upcbrgv4br5k",321,"55.csv","","9.200000047683716","resources/trios/L1T4A2.jpg","39","restless",0.4,0.6,0.7,0.0459644444780549,"true"
"image-keyboard-response",117,154504,"0.0-3.35-1.35","s58upcbrgv4br5k",321,"55.csv","","null","resources/maskTrios/BBA2.jpg","null","",NA,NA,NA,NA,""
"image-keyboard-response",118,155707,"0.0-3.35-2.35","s58upcbrgv4br5k",321,"55.csv","","null","resources/images/coin2.png","null","",NA,NA,NA,NA,""
"image-keyboard-response",119,155857,"0.0-3.36-0.36","s58upcbrgv4br5k",321,"55.csv","","148.29999995231628","resources/trios/L1T4A2.jpg","39","restless",0.4,0.6,0.7,0.0804328087804669,"true"
"image-keyboard-response",120,156260,"0.0-3.36-1.36","s58upcbrgv4br5k",321,"55.csv","","null","resources/maskTrios/BBA2.jpg","null","",NA,NA,NA,NA,""
"image-keyboard-response",121,157462,"0.0-3.36-2.36","s58upcbrgv4br5k",321,"55.csv","","null","resources/images/coin2.png","null","",NA,NA,NA,NA,""
"image-keyboard-response",122,157571,"0.0-3.37-0.37","s58upcbrgv4br5k",321,"55.csv","","107.40000009536743","resources/trios/L4T4A1.jpg","39","restless",0.4,0.6,0.7,0.806380294461935,"false"
"image-keyboard-response",123,157977,"0.0-3.37-1.37","s58upcbrgv4br5k",321,"55.csv","","null","resources/maskTrios/BBA1.jpg","null","",NA,NA,NA,NA,""
"image-keyboard-response",124,159178,"0.0-3.37-2.37","s58upcbrgv4br5k",321,"55.csv","","null","resources/images/fishbone.png","null","",NA,NA,NA,NA,""
"image-keyboard-response",125,159830,"0.0-3.38-0.38","s58upcbrgv4br5k",321,"55.csv","","649.9000000953674","resources/trios/L1T4A2.jpg","37","restless",0.4,0.6,0.7,0.0910411569747953,"true"
"image-keyboard-response",126,160236,"0.0-3.38-1.38","s58upcbrgv4br5k",321,"55.csv","","null","resources/maskTrios/L1BB.jpg","null","",NA,NA,NA,NA,""
"image-keyboard-response",127,161441,"0.0-3.38-2.38","s58upcbrgv4br5k",321,"55.csv","","null","resources/images/coin2.png","null","",NA,NA,NA,NA,""
"image-keyboard-response",128,161883,"0.0-3.39-0.39","s58upcbrgv4br5k",321,"55.csv","","440.39999985694885","resources/trios/L1T2A2.jpg","37","restless",0.4,0.6,0.7,0.557737653596253,"false"
"image-keyboard-response",129,162289,"0.0-3.39-1.39","s58upcbrgv4br5k",321,"55.csv","","null","resources/maskTrios/L1BB.jpg","null","",NA,NA,NA,NA,""
"image-keyboard-response",130,163491,"0.0-3.39-2.39","s58upcbrgv4br5k",321,"55.csv","","null","resources/images/fishbone.png","null","",NA,NA,NA,NA,""
"image-keyboard-response",131,163638,"0.0-3.40-0.40","s58upcbrgv4br5k",321,"55.csv","","145.89999985694885","resources/trios/L4T4A1.jpg","38","restless",0.4,0.6,0.7,0.786378578864839,"false"
"image-keyboard-response",132,164043,"0.0-3.40-1.40","s58upcbrgv4br5k",321,"55.csv","","null","resources/maskTrios/BT4B.jpg","null","",NA,NA,NA,NA,""
"image-keyboard-response",133,165245,"0.0-3.40-2.40","s58upcbrgv4br5k",321,"55.csv","","null","resources/images/fishbone.png","null","",NA,NA,NA,NA,""
"image-keyboard-response",134,165254,"0.0-3.41-0.41","s58upcbrgv4br5k",321,"55.csv","","7.400000095367432","resources/trios/L1T4A1.jpg","39","restless",0.4,0.6,0.7,0.779717861161449,"false"
"image-keyboard-response",135,165657,"0.0-3.41-1.41","s58upcbrgv4br5k",321,"55.csv","","null","resources/maskTrios/BBA1.jpg","null","",NA,NA,NA,NA,""
"image-keyboard-response",136,166862,"0.0-3.41-2.41","s58upcbrgv4br5k",321,"55.csv","","null","resources/images/fishbone.png","null","",NA,NA,NA,NA,""
"image-keyboard-response",137,166963,"0.0-3.42-0.42","s58upcbrgv4br5k",321,"55.csv","","100.79999995231628","resources/trios/L4T2A2.jpg","37","restless",0.4,0.6,0.6,0.706888303249693,"false"
"image-keyboard-response",138,167370,"0.0-3.42-1.42","s58upcbrgv4br5k",321,"55.csv","","null","resources/maskTrios/L4BB.jpg","null","",NA,NA,NA,NA,""
"image-keyboard-response",139,168574,"0.0-3.42-2.42","s58upcbrgv4br5k",321,"55.csv","","null","resources/images/fishbone.png","null","",NA,NA,NA,NA,""
"image-keyboard-response",140,168796,"0.0-3.43-0.43","s58upcbrgv4br5k",321,"55.csv","","221","resources/trios/L1T4A2.jpg","38","restless",0.4,0.6,0.6,0.0759400032799589,"true"
"image-keyboard-response",141,169201,"0.0-3.43-1.43","s58upcbrgv4br5k",321,"55.csv","","null","resources/maskTrios/BT4B.jpg","null","",NA,NA,NA,NA,""
"image-keyboard-response",142,170404,"0.0-3.43-2.43","s58upcbrgv4br5k",321,"55.csv","","null","resources/images/coin2.png","null","",NA,NA,NA,NA,""
"image-keyboard-response",143,170669,"0.0-3.44-0.44","s58upcbrgv4br5k",321,"55.csv","","264","resources/trios/L1T4A1.jpg","38","restless",0.4,0.6,0.6,0.932495537263498,"false"
"image-keyboard-response",144,171073,"0.0-3.44-1.44","s58upcbrgv4br5k",321,"55.csv","","null","resources/maskTrios/BT4B.jpg","null","",NA,NA,NA,NA,""
"image-keyboard-response",145,172276,"0.0-3.44-2.44","s58upcbrgv4br5k",321,"55.csv","","null","resources/images/fishbone.png","null","",NA,NA,NA,NA,""
"image-keyboard-response",146,172487,"0.0-3.45-0.45","s58upcbrgv4br5k",321,"55.csv","","209.80000019073486","resources/trios/L1T4A1.jpg","37","restless",0.5,0.6,0.6,0.0867847872471903,"true"
"image-keyboard-response",147,172891,"0.0-3.45-1.45","s58upcbrgv4br5k",321,"55.csv","","null","resources/maskTrios/L1BB.jpg","null","",NA,NA,NA,NA,""
"image-keyboard-response",148,174095,"0.0-3.45-2.45","s58upcbrgv4br5k",321,"55.csv","","null","resources/images/coin2.png","null","",NA,NA,NA,NA,""
"image-keyboard-response",149,174331,"0.0-3.46-0.46","s58upcbrgv4br5k",321,"55.csv","","234.90000009536743","resources/trios/L4T4A2.jpg","37","restless",0.5,0.6,0.6,0.634081411896179,"false"
"image-keyboard-response",150,174732,"0.0-3.46-1.46","s58upcbrgv4br5k",321,"55.csv","","null","resources/maskTrios/L4BB.jpg","null","",NA,NA,NA,NA,""
"image-keyboard-response",151,175935,"0.0-3.46-2.46","s58upcbrgv4br5k",321,"55.csv","","null","resources/images/fishbone.png","null","",NA,NA,NA,NA,""
"image-keyboard-response",152,176293,"0.0-3.47-0.47","s58upcbrgv4br5k",321,"55.csv","","356.90000009536743","resources/trios/L1T2A2.jpg","39","restless",0.5,0.6,0.6,0.268873562588979,"true"
"image-keyboard-response",153,176700,"0.0-3.47-1.47","s58upcbrgv4br5k",321,"55.csv","","null","resources/maskTrios/BBA2.jpg","null","",NA,NA,NA,NA,""
"image-keyboard-response",154,177902,"0.0-3.47-2.47","s58upcbrgv4br5k",321,"55.csv","","null","resources/images/coin2.png","null","",NA,NA,NA,NA,""
"image-keyboard-response",155,177971,"0.0-3.48-0.48","s58upcbrgv4br5k",321,"55.csv","","68.70000004768372","resources/trios/L1T4A1.jpg","39","restless",0.5,0.6,0.6,0.339781809433644,"true"
"image-keyboard-response",156,178374,"0.0-3.48-1.48","s58upcbrgv4br5k",321,"55.csv","","null","resources/maskTrios/BBA1.jpg","null","",NA,NA,NA,NA,""
"image-keyboard-response",157,179581,"0.0-3.48-2.48","s58upcbrgv4br5k",321,"55.csv","","null","resources/images/coin2.png","null","",NA,NA,NA,NA,""
"image-keyboard-response",158,179860,"0.0-3.49-0.49","s58upcbrgv4br5k",321,"55.csv","","277.89999985694885","resources/trios/L4T4A2.jpg","39","restless",0.5,0.6,0.6,0.24071188718226,"true"
"image-keyboard-response",159,180262,"0.0-3.49-1.49","s58upcbrgv4br5k",321,"55.csv","","null","resources/maskTrios/BBA2.jpg","null","",NA,NA,NA,NA,""
"image-keyboard-response",160,181464,"0.0-3.49-2.49","s58upcbrgv4br5k",321,"55.csv","","null","resources/images/coin2.png","null","",NA,NA,NA,NA,""
"image-keyboard-response",161,181926,"0.0-3.50-0.50","s58upcbrgv4br5k",321,"55.csv","","460","resources/trios/L1T4A1.jpg","39","restless",0.5,0.6,0.6,0.856865474107037,"false"
"image-keyboard-response",162,182328,"0.0-3.50-1.50","s58upcbrgv4br5k",321,"55.csv","","null","resources/maskTrios/BBA1.jpg","null","",NA,NA,NA,NA,""
"image-keyboard-response",163,183530,"0.0-3.50-2.50","s58upcbrgv4br5k",321,"55.csv","","null","resources/images/fishbone.png","null","",NA,NA,NA,NA,""
"image-keyboard-response",164,183813,"0.0-3.51-0.51","s58upcbrgv4br5k",321,"55.csv","","281.7999999523163","resources/trios/L4T2A2.jpg","38","restless",0.5,0.6,0.5,0.814899268049604,"false"
"image-keyboard-response",165,184215,"0.0-3.51-1.51","s58upcbrgv4br5k",321,"55.csv","","null","resources/maskTrios/BT2B.jpg","null","",NA,NA,NA,NA,""
"image-keyboard-response",166,185416,"0.0-3.51-2.51","s58upcbrgv4br5k",321,"55.csv","","null","resources/images/fishbone.png","null","",NA,NA,NA,NA,""
"image-keyboard-response",167,187721,"0.0-3.52-0.52","s58upcbrgv4br5k",321,"55.csv","","2302.899999856949","resources/trios/L1T4A1.jpg","37","restless",0.5,0.6,0.4,0.539560529249611,"false"
"image-keyboard-response",168,188124,"0.0-3.52-1.52","s58upcbrgv4br5k",321,"55.csv","","null","resources/maskTrios/L1BB.jpg","null","",NA,NA,NA,NA,""
"image-keyboard-response",169,189326,"0.0-3.52-2.52","s58upcbrgv4br5k",321,"55.csv","","null","resources/images/fishbone.png","null","",NA,NA,NA,NA,""
"image-keyboard-response",170,189612,"0.0-3.53-0.53","s58upcbrgv4br5k",321,"55.csv","","284.2999999523163","resources/trios/L1T2A1.jpg","38","restless",0.5,0.6,0.4,0.418412183306294,"true"
"image-keyboard-response",171,190013,"0.0-3.53-1.53","s58upcbrgv4br5k",321,"55.csv","","null","resources/maskTrios/BT2B.jpg","null","",NA,NA,NA,NA,""
"image-keyboard-response",172,191220,"0.0-3.53-2.53","s58upcbrgv4br5k",321,"55.csv","","null","resources/images/coin2.png","null","",NA,NA,NA,NA,""
"image-keyboard-response",173,191569,"0.0-3.54-0.54","s58upcbrgv4br5k",321,"55.csv","","347.40000009536743","resources/trios/L4T4A2.jpg","38","restless",0.5,0.6,0.4,0.241859259616845,"true"
"image-keyboard-response",174,191971,"0.0-3.54-1.54","s58upcbrgv4br5k",321,"55.csv","","null","resources/maskTrios/BT4B.jpg","null","",NA,NA,NA,NA,""
"image-keyboard-response",175,193178,"0.0-3.54-2.54","s58upcbrgv4br5k",321,"55.csv","","null","resources/images/coin2.png","null","",NA,NA,NA,NA,""
"image-keyboard-response",176,193757,"0.0-3.55-0.55","s58upcbrgv4br5k",321,"55.csv","","577.9000000953674","resources/trios/L1T2A2.jpg","38","restless",0.5,0.6,0.4,0.465311090544452,"true"
"image-keyboard-response",177,194160,"0.0-3.55-1.55","s58upcbrgv4br5k",321,"55.csv","","null","resources/maskTrios/BT2B.jpg","null","",NA,NA,NA,NA,""
"image-keyboard-response",178,195365,"0.0-3.55-2.55","s58upcbrgv4br5k",321,"55.csv","","null","resources/images/coin2.png","null","",NA,NA,NA,NA,""
"image-keyboard-response",179,195890,"0.0-3.56-0.56","s58upcbrgv4br5k",321,"55.csv","","523.7999999523163","resources/trios/L4T4A2.jpg","38","restless",0.5,0.5,0.4,0.0482952264765117,"true"
"image-keyboard-response",180,196297,"0.0-3.56-1.56","s58upcbrgv4br5k",321,"55.csv","","null","resources/maskTrios/BT4B.jpg","null","",NA,NA,NA,NA,""
"image-keyboard-response",181,197503,"0.0-3.56-2.56","s58upcbrgv4br5k",321,"55.csv","","null","resources/images/coin2.png","null","",NA,NA,NA,NA,""
"image-keyboard-response",182,197897,"0.0-3.57-0.57","s58upcbrgv4br5k",321,"55.csv","","392.60000014305115","resources/trios/L1T2A2.jpg","38","restless",0.6,0.5,0.4,0.000970733460931239,"true"
"image-keyboard-response",183,198303,"0.0-3.57-1.57","s58upcbrgv4br5k",321,"55.csv","","null","resources/maskTrios/BT2B.jpg","null","",NA,NA,NA,NA,""
"image-keyboard-response",184,199507,"0.0-3.57-2.57","s58upcbrgv4br5k",321,"55.csv","","null","resources/images/coin2.png","null","",NA,NA,NA,NA,""
"image-keyboard-response",185,199796,"0.0-3.58-0.58","s58upcbrgv4br5k",321,"55.csv","","287.10000014305115","resources/trios/L4T4A1.jpg","38","restless",0.5,0.5,0.4,0.591689168635054,"false"
"image-keyboard-response",186,200197,"0.0-3.58-1.58","s58upcbrgv4br5k",321,"55.csv","","null","resources/maskTrios/BT4B.jpg","null","",NA,NA,NA,NA,""
"image-keyboard-response",187,201403,"0.0-3.58-2.58","s58upcbrgv4br5k",321,"55.csv","","null","resources/images/fishbone.png","null","",NA,NA,NA,NA,""
"image-keyboard-response",188,201487,"0.0-3.59-0.59","s58upcbrgv4br5k",321,"55.csv","","83.09999990463257","resources/trios/L1T4A1.jpg","37","restless",0.5,0.5,0.4,0.843622225215126,"false"
"image-keyboard-response",189,201893,"0.0-3.59-1.59","s58upcbrgv4br5k",321,"55.csv","","null","resources/maskTrios/L1BB.jpg","null","",NA,NA,NA,NA,""
"image-keyboard-response",190,203094,"0.0-3.59-2.59","s58upcbrgv4br5k",321,"55.csv","","null","resources/images/fishbone.png","null","",NA,NA,NA,NA,""
"image-keyboard-response",191,203095,"0.0-3.60-0.60","s58upcbrgv4br5k",321,"55.csv","","0.40000009536743164","resources/trios/L4T2A1.jpg","39","restless",0.5,0.5,0.4,0.320925021456212,"true"
"image-keyboard-response",192,203498,"0.0-3.60-1.60","s58upcbrgv4br5k",321,"55.csv","","null","resources/maskTrios/BBA1.jpg","null","",NA,NA,NA,NA,""
"image-keyboard-response",193,204705,"0.0-3.60-2.60","s58upcbrgv4br5k",321,"55.csv","","null","resources/images/coin2.png","null","",NA,NA,NA,NA,""
"image-keyboard-response",194,205088,"0.0-3.61-0.61","s58upcbrgv4br5k",321,"55.csv","","382.2999999523163","resources/trios/L4T2A1.jpg","39","restless",0.5,0.5,0.5,0.873600737948483,"false"
"image-keyboard-response",195,205493,"0.0-3.61-1.61","s58upcbrgv4br5k",321,"55.csv","","null","resources/maskTrios/BBA1.jpg","null","",NA,NA,NA,NA,""
"image-keyboard-response",196,206698,"0.0-3.61-2.61","s58upcbrgv4br5k",321,"55.csv","","null","resources/images/fishbone.png","null","",NA,NA,NA,NA,""
"image-keyboard-response",197,207153,"0.0-3.62-0.62","s58upcbrgv4br5k",321,"55.csv","","453.39999985694885","resources/trios/L4T2A2.jpg","38","restless",0.5,0.5,0.5,0.715792170140003,"false"
"image-keyboard-response",198,207557,"0.0-3.62-1.62","s58upcbrgv4br5k",321,"55.csv","","null","resources/maskTrios/BT2B.jpg","null","",NA,NA,NA,NA,""
"image-keyboard-response",199,208759,"0.0-3.62-2.62","s58upcbrgv4br5k",321,"55.csv","","null","resources/images/fishbone.png","null","",NA,NA,NA,NA,""
"image-keyboard-response",200,209031,"0.0-3.63-0.63","s58upcbrgv4br5k",321,"55.csv","","270.5","resources/trios/L4T4A2.jpg","37","restless",0.5,0.5,0.5,0.853761747891386,"false"
"image-keyboard-response",201,209433,"0.0-3.63-1.63","s58upcbrgv4br5k",321,"55.csv","","null","resources/maskTrios/L4BB.jpg","null","",NA,NA,NA,NA,""
"image-keyboard-response",202,210639,"0.0-3.63-2.63","s58upcbrgv4br5k",321,"55.csv","","null","resources/images/fishbone.png","null","",NA,NA,NA,NA,""
"image-keyboard-response",203,211177,"0.0-3.64-0.64","s58upcbrgv4br5k",321,"55.csv","","536.1999998092651","resources/trios/L1T2A2.jpg","39","restless",0.5,0.5,0.5,0.192061173513927,"true"
"image-keyboard-response",204,211582,"0.0-3.64-1.64","s58upcbrgv4br5k",321,"55.csv","","null","resources/maskTrios/BBA2.jpg","null","",NA,NA,NA,NA,""
"image-keyboard-response",205,212784,"0.0-3.64-2.64","s58upcbrgv4br5k",321,"55.csv","","null","resources/images/coin2.png","null","",NA,NA,NA,NA,""
"image-keyboard-response",206,213041,"0.0-3.65-0.65","s58upcbrgv4br5k",321,"55.csv","","255.89999985694885","resources/trios/L1T4A1.jpg","39","restless",0.5,0.5,0.5,0.935808984998628,"false"
"image-keyboard-response",207,213446,"0.0-3.65-1.65","s58upcbrgv4br5k",321,"55.csv","","null","resources/maskTrios/BBA1.jpg","null","",NA,NA,NA,NA,""
"image-keyboard-response",208,214647,"0.0-3.65-2.65","s58upcbrgv4br5k",321,"55.csv","","null","resources/images/fishbone.png","null","",NA,NA,NA,NA,""
"image-keyboard-response",209,214921,"0.0-3.66-0.66","s58upcbrgv4br5k",321,"55.csv","","272.10000014305115","resources/trios/L1T2A1.jpg","38","restless",0.5,0.5,0.5,0.55679193387561,"false"
"image-keyboard-response",210,215325,"0.0-3.66-1.66","s58upcbrgv4br5k",321,"55.csv","","null","resources/maskTrios/BT2B.jpg","null","",NA,NA,NA,NA,""
"image-keyboard-response",211,216531,"0.0-3.66-2.66","s58upcbrgv4br5k",321,"55.csv","","null","resources/images/fishbone.png","null","",NA,NA,NA,NA,""
"image-keyboard-response",212,216950,"0.0-3.67-0.67","s58upcbrgv4br5k",321,"55.csv","","417.59999990463257","resources/trios/L4T4A1.jpg","37","restless",0.4,0.5,0.5,0.928981375025798,"false"
"image-keyboard-response",213,217356,"0.0-3.67-1.67","s58upcbrgv4br5k",321,"55.csv","","null","resources/maskTrios/L4BB.jpg","null","",NA,NA,NA,NA,""
"image-keyboard-response",214,218561,"0.0-3.67-2.67","s58upcbrgv4br5k",321,"55.csv","","null","resources/images/fishbone.png","null","",NA,NA,NA,NA,""
"image-keyboard-response",215,218909,"0.0-3.68-0.68","s58upcbrgv4br5k",321,"55.csv","","346.7000000476837","resources/trios/L1T2A1.jpg","38","restless",0.4,0.5,0.5,0.169893023824403,"true"
"image-keyboard-response",216,219311,"0.0-3.68-1.68","s58upcbrgv4br5k",321,"55.csv","","null","resources/maskTrios/BT2B.jpg","null","",NA,NA,NA,NA,""
"image-keyboard-response",217,220517,"0.0-3.68-2.68","s58upcbrgv4br5k",321,"55.csv","","null","resources/images/coin2.png","null","",NA,NA,NA,NA,""
"image-keyboard-response",218,220741,"0.0-3.69-0.69","s58upcbrgv4br5k",321,"55.csv","","222.29999995231628","resources/trios/L4T2A1.jpg","38","restless",0.5,0.5,0.5,0.310549829803224,"true"
"image-keyboard-response",219,221144,"0.0-3.69-1.69","s58upcbrgv4br5k",321,"55.csv","","null","resources/maskTrios/BT2B.jpg","null","",NA,NA,NA,NA,""
"image-keyboard-response",220,222348,"0.0-3.69-2.69","s58upcbrgv4br5k",321,"55.csv","","null","resources/images/coin2.png","null","",NA,NA,NA,NA,""
"image-keyboard-response",221,222668,"0.0-3.70-0.70","s58upcbrgv4br5k",321,"55.csv","","318.2999999523163","resources/trios/L4T2A1.jpg","38","restless",0.5,0.5,0.5,0.921442991464876,"false"
"image-keyboard-response",222,223074,"0.0-3.70-1.70","s58upcbrgv4br5k",321,"55.csv","","null","resources/maskTrios/BT2B.jpg","null","",NA,NA,NA,NA,""
"image-keyboard-response",223,224278,"0.0-3.70-2.70","s58upcbrgv4br5k",321,"55.csv","","null","resources/images/fishbone.png","null","",NA,NA,NA,NA,""
"image-keyboard-response",224,224607,"0.0-3.71-0.71","s58upcbrgv4br5k",321,"55.csv","","327.40000009536743","resources/trios/L1T2A1.jpg","39","restless",0.5,0.5,0.5,0.923031709650226,"false"
"image-keyboard-response",225,225009,"0.0-3.71-1.71","s58upcbrgv4br5k",321,"55.csv","","null","resources/maskTrios/BBA1.jpg","null","",NA,NA,NA,NA,""
"image-keyboard-response",226,226211,"0.0-3.71-2.71","s58upcbrgv4br5k",321,"55.csv","","null","resources/images/fishbone.png","null","",NA,NA,NA,NA,""
"image-keyboard-response",227,226353,"0.0-3.72-0.72","s58upcbrgv4br5k",321,"55.csv","","140.59999990463257","resources/trios/L4T2A1.jpg","37","restless",0.6,0.5,0.5,0.92907889852937,"false"
"image-keyboard-response",228,226755,"0.0-3.72-1.72","s58upcbrgv4br5k",321,"55.csv","","null","resources/maskTrios/L4BB.jpg","null","",NA,NA,NA,NA,""
"image-keyboard-response",229,227956,"0.0-3.72-2.72","s58upcbrgv4br5k",321,"55.csv","","null","resources/images/fishbone.png","null","",NA,NA,NA,NA,""
"image-keyboard-response",230,230250,"0.0-3.73-0.73","s58upcbrgv4br5k",321,"55.csv","","2292.600000143051","resources/trios/L4T4A1.jpg","38","restless",0.7,0.5,0.5,0.233606601355416,"true"
"image-keyboard-response",231,230657,"0.0-3.73-1.73","s58upcbrgv4br5k",321,"55.csv","","null","resources/maskTrios/BT4B.jpg","null","",NA,NA,NA,NA,""
"image-keyboard-response",232,231862,"0.0-3.73-2.73","s58upcbrgv4br5k",321,"55.csv","","null","resources/images/coin2.png","null","",NA,NA,NA,NA,""
"image-keyboard-response",233,232052,"0.0-3.74-0.74","s58upcbrgv4br5k",321,"55.csv","","188.39999985694885","resources/trios/L4T2A2.jpg","38","restless",0.7,0.5,0.5,0.330924269064107,"true"
"image-keyboard-response",234,232454,"0.0-3.74-1.74","s58upcbrgv4br5k",321,"55.csv","","null","resources/maskTrios/BT2B.jpg","null","",NA,NA,NA,NA,""
"image-keyboard-response",235,233660,"0.0-3.74-2.74","s58upcbrgv4br5k",321,"55.csv","","null","resources/images/coin2.png","null","",NA,NA,NA,NA,""
"image-keyboard-response",236,233759,"0.0-3.75-0.75","s58upcbrgv4br5k",321,"55.csv","","98.20000004768372","resources/trios/L4T4A2.jpg","38","restless",0.7,0.5,0.4,0.416114437286649,"true"
"image-keyboard-response",237,234161,"0.0-3.75-1.75","s58upcbrgv4br5k",321,"55.csv","","null","resources/maskTrios/BT4B.jpg","null","",NA,NA,NA,NA,""
"image-keyboard-response",238,235368,"0.0-3.75-2.75","s58upcbrgv4br5k",321,"55.csv","","null","resources/images/coin2.png","null","",NA,NA,NA,NA,""
"image-keyboard-response",239,235673,"0.0-3.76-0.76","s58upcbrgv4br5k",321,"55.csv","","303.59999990463257","resources/trios/L1T2A2.jpg","38","restless",0.7,0.5,0.4,0.0370987018574247,"true"
"image-keyboard-response",240,236079,"0.0-3.76-1.76","s58upcbrgv4br5k",321,"55.csv","","null","resources/maskTrios/BT2B.jpg","null","",NA,NA,NA,NA,""
"image-keyboard-response",241,237282,"0.0-3.76-2.76","s58upcbrgv4br5k",321,"55.csv","","null","resources/images/coin2.png","null","",NA,NA,NA,NA,""
"image-keyboard-response",242,237685,"0.0-3.77-0.77","s58upcbrgv4br5k",321,"55.csv","","402.40000009536743","resources/trios/L4T4A2.jpg","38","restless",0.7,0.4,0.3,0.740431594732857,"false"
"image-keyboard-response",243,238090,"0.0-3.77-1.77","s58upcbrgv4br5k",321,"55.csv","","null","resources/maskTrios/BT4B.jpg","null","",NA,NA,NA,NA,""
"image-keyboard-response",244,239295,"0.0-3.77-2.77","s58upcbrgv4br5k",321,"55.csv","","null","resources/images/fishbone.png","null","",NA,NA,NA,NA,""
"image-keyboard-response",245,239651,"0.0-3.78-0.78","s58upcbrgv4br5k",321,"55.csv","","355","resources/trios/L4T2A1.jpg","37","restless",0.7,0.4,0.3,0.705975024815904,"false"
"image-keyboard-response",246,240058,"0.0-3.78-1.78","s58upcbrgv4br5k",321,"55.csv","","null","resources/maskTrios/L4BB.jpg","null","",NA,NA,NA,NA,""
"image-keyboard-response",247,241260,"0.0-3.78-2.78","s58upcbrgv4br5k",321,"55.csv","","null","resources/images/fishbone.png","null","",NA,NA,NA,NA,""
"image-keyboard-response",248,241575,"0.0-3.79-0.79","s58upcbrgv4br5k",321,"55.csv","","314","resources/trios/L1T2A2.jpg","37","restless",0.7,0.4,0.3,0.139203375278552,"true"
"image-keyboard-response",249,241982,"0.0-3.79-1.79","s58upcbrgv4br5k",321,"55.csv","","null","resources/maskTrios/L1BB.jpg","null","",NA,NA,NA,NA,""
"image-keyboard-response",250,243186,"0.0-3.79-2.79","s58upcbrgv4br5k",321,"55.csv","","null","resources/images/coin2.png","null","",NA,NA,NA,NA,""
"image-keyboard-response",251,243472,"0.0-3.80-0.80","s58upcbrgv4br5k",321,"55.csv","","284.10000014305115","resources/trios/L4T2A2.jpg","37","restless",0.7,0.4,0.3,0.54275705279395,"true"
"image-keyboard-response",252,243874,"0.0-3.80-1.80","s58upcbrgv4br5k",321,"55.csv","","null","resources/maskTrios/L4BB.jpg","null","",NA,NA,NA,NA,""
"image-keyboard-response",253,245076,"0.0-3.80-2.80","s58upcbrgv4br5k",321,"55.csv","","null","resources/images/coin2.png","null","",NA,NA,NA,NA,""
"image-keyboard-response",254,245163,"0.0-3.81-0.81","s58upcbrgv4br5k",321,"55.csv","","85.29999995231628","resources/trios/L4T2A1.jpg","37","restless",0.7,0.4,0.3,0.183184632089938,"true"
"image-keyboard-response",255,245565,"0.0-3.81-1.81","s58upcbrgv4br5k",321,"55.csv","","null","resources/maskTrios/L4BB.jpg","null","",NA,NA,NA,NA,""
"image-keyboard-response",256,246769,"0.0-3.81-2.81","s58upcbrgv4br5k",321,"55.csv","","null","resources/images/coin2.png","null","",NA,NA,NA,NA,""
"image-keyboard-response",257,247105,"0.0-3.82-0.82","s58upcbrgv4br5k",321,"55.csv","","334.90000009536743","resources/trios/L1T4A1.jpg","37","restless",0.7,0.3,0.3,0.781553691436876,"false"
"image-keyboard-response",258,247512,"0.0-3.82-1.82","s58upcbrgv4br5k",321,"55.csv","","null","resources/maskTrios/L1BB.jpg","null","",NA,NA,NA,NA,""
"image-keyboard-response",259,248718,"0.0-3.82-2.82","s58upcbrgv4br5k",321,"55.csv","","null","resources/images/fishbone.png","null","",NA,NA,NA,NA,""
"image-keyboard-response",260,249071,"0.0-3.83-0.83","s58upcbrgv4br5k",321,"55.csv","","351.5","resources/trios/L4T4A2.jpg","38","restless",0.7,0.4,0.3,0.88664995714711,"false"
"image-keyboard-response",261,249477,"0.0-3.83-1.83","s58upcbrgv4br5k",321,"55.csv","","null","resources/maskTrios/BT4B.jpg","null","",NA,NA,NA,NA,""
"image-keyboard-response",262,250679,"0.0-3.83-2.83","s58upcbrgv4br5k",321,"55.csv","","null","resources/images/fishbone.png","null","",NA,NA,NA,NA,""
"image-keyboard-response",263,250981,"0.0-3.84-0.84","s58upcbrgv4br5k",321,"55.csv","","300.2999999523163","resources/trios/L1T2A1.jpg","39","restless",0.7,0.4,0.4,0.770144767306531,"false"
"image-keyboard-response",264,251387,"0.0-3.84-1.84","s58upcbrgv4br5k",321,"55.csv","","null","resources/maskTrios/BBA1.jpg","null","",NA,NA,NA,NA,""
"image-keyboard-response",265,252590,"0.0-3.84-2.84","s58upcbrgv4br5k",321,"55.csv","","null","resources/images/fishbone.png","null","",NA,NA,NA,NA,""
"image-keyboard-response",266,255025,"0.0-3.85-0.85","s58upcbrgv4br5k",321,"55.csv","","2432.600000143051","resources/trios/L1T2A1.jpg","37","restless",0.7,0.5,0.4,0.482720326799824,"true"
"image-keyboard-response",267,255428,"0.0-3.85-1.85","s58upcbrgv4br5k",321,"55.csv","","null","resources/maskTrios/L1BB.jpg","null","",NA,NA,NA,NA,""
"image-keyboard-response",268,256634,"0.0-3.85-2.85","s58upcbrgv4br5k",321,"55.csv","","null","resources/images/coin2.png","null","",NA,NA,NA,NA,""
"image-keyboard-response",269,256802,"0.0-3.86-0.86","s58upcbrgv4br5k",321,"55.csv","","167","resources/trios/L4T4A1.jpg","37","restless",0.8,0.5,0.4,0.720922132811819,"true"
"image-keyboard-response",270,257208,"0.0-3.86-1.86","s58upcbrgv4br5k",321,"55.csv","","null","resources/maskTrios/L4BB.jpg","null","",NA,NA,NA,NA,""
"image-keyboard-response",271,258413,"0.0-3.86-2.86","s58upcbrgv4br5k",321,"55.csv","","null","resources/images/coin2.png","null","",NA,NA,NA,NA,""
"image-keyboard-response",272,258527,"0.0-3.87-0.87","s58upcbrgv4br5k",321,"55.csv","","112.79999995231628","resources/trios/L1T4A1.jpg","37","restless",0.8,0.5,0.4,0.417434411731154,"true"
"image-keyboard-response",273,258930,"0.0-3.87-1.87","s58upcbrgv4br5k",321,"55.csv","","null","resources/maskTrios/L1BB.jpg","null","",NA,NA,NA,NA,""
"image-keyboard-response",274,260135,"0.0-3.87-2.87","s58upcbrgv4br5k",321,"55.csv","","null","resources/images/coin2.png","null","",NA,NA,NA,NA,""
"image-keyboard-response",275,260213,"0.0-3.88-0.88","s58upcbrgv4br5k",321,"55.csv","","77.10000014305115","resources/trios/L1T4A1.jpg","37","restless",0.8,0.5,0.4,0.374518430853555,"true"
"image-keyboard-response",276,260619,"0.0-3.88-1.88","s58upcbrgv4br5k",321,"55.csv","","null","resources/maskTrios/L1BB.jpg","null","",NA,NA,NA,NA,""
"image-keyboard-response",277,261821,"0.0-3.88-2.88","s58upcbrgv4br5k",321,"55.csv","","null","resources/images/coin2.png","null","",NA,NA,NA,NA,""
"image-keyboard-response",278,262018,"0.0-3.89-0.89","s58upcbrgv4br5k",321,"55.csv","","195.39999985694885","resources/trios/L1T4A2.jpg","37","restless",0.8,0.5,0.4,0.757889966886677,"true"
"image-keyboard-response",279,262424,"0.0-3.89-1.89","s58upcbrgv4br5k",321,"55.csv","","null","resources/maskTrios/L1BB.jpg","null","",NA,NA,NA,NA,""
"image-keyboard-response",280,263630,"0.0-3.89-2.89","s58upcbrgv4br5k",321,"55.csv","","null","resources/images/coin2.png","null","",NA,NA,NA,NA,""
"image-keyboard-response",281,263634,"0.0-3.90-0.90","s58upcbrgv4br5k",321,"55.csv","","3.4000000953674316","resources/trios/L1T4A2.jpg","37","restless",0.8,0.5,0.4,0.156358441634546,"true"
"image-keyboard-response",282,264039,"0.0-3.90-1.90","s58upcbrgv4br5k",321,"55.csv","","null","resources/maskTrios/L1BB.jpg","null","",NA,NA,NA,NA,""
"image-keyboard-response",283,265244,"0.0-3.90-2.90","s58upcbrgv4br5k",321,"55.csv","","null","resources/images/coin2.png","null","",NA,NA,NA,NA,""
"image-keyboard-response",284,265356,"0.0-3.91-0.91","s58upcbrgv4br5k",321,"55.csv","","111.5","resources/trios/L1T4A2.jpg","37","restless",0.8,0.5,0.4,0.823401891915298,"false"
"image-keyboard-response",285,265758,"0.0-3.91-1.91","s58upcbrgv4br5k",321,"55.csv","","null","resources/maskTrios/L1BB.jpg","null","",NA,NA,NA,NA,""
"image-keyboard-response",286,266962,"0.0-3.91-2.91","s58upcbrgv4br5k",321,"55.csv","","null","resources/images/fishbone.png","null","",NA,NA,NA,NA,""
"image-keyboard-response",287,267339,"0.0-3.92-0.92","s58upcbrgv4br5k",321,"55.csv","","376.5","resources/trios/L1T2A2.jpg","38","restless",0.7,0.5,0.4,0.484426342006977,"true"
"image-keyboard-response",288,267744,"0.0-3.92-1.92","s58upcbrgv4br5k",321,"55.csv","","null","resources/maskTrios/BT2B.jpg","null","",NA,NA,NA,NA,""
"image-keyboard-response",289,268947,"0.0-3.92-2.92","s58upcbrgv4br5k",321,"55.csv","","null","resources/images/coin2.png","null","",NA,NA,NA,NA,""
"image-keyboard-response",290,269006,"0.0-3.93-0.93","s58upcbrgv4br5k",321,"55.csv","","57.700000047683716","resources/trios/L4T2A1.jpg","38","restless",0.7,0.5,0.4,0.240330330411088,"true"
"image-keyboard-response",291,269408,"0.0-3.93-1.93","s58upcbrgv4br5k",321,"55.csv","","null","resources/maskTrios/BT2B.jpg","null","",NA,NA,NA,NA,""
"image-keyboard-response",292,270612,"0.0-3.93-2.93","s58upcbrgv4br5k",321,"55.csv","","null","resources/images/coin2.png","null","",NA,NA,NA,NA,""
"image-keyboard-response",293,270694,"0.0-3.94-0.94","s58upcbrgv4br5k",321,"55.csv","","81.39999985694885","resources/trios/L1T4A2.jpg","38","restless",0.7,0.5,0.4,0.312448756521905,"true"
"image-keyboard-response",294,271097,"0.0-3.94-1.94","s58upcbrgv4br5k",321,"55.csv","","null","resources/maskTrios/BT4B.jpg","null","",NA,NA,NA,NA,""
"image-keyboard-response",295,272302,"0.0-3.94-2.94","s58upcbrgv4br5k",321,"55.csv","","null","resources/images/coin2.png","null","",NA,NA,NA,NA,""
"image-keyboard-response",296,272371,"0.0-3.95-0.95","s58upcbrgv4br5k",321,"55.csv","","68.20000004768372","resources/trios/L1T2A1.jpg","38","restless",0.7,0.4,0.4,0.381231558405403,"true"
"image-keyboard-response",297,272777,"0.0-3.95-1.95","s58upcbrgv4br5k",321,"55.csv","","null","resources/maskTrios/BT2B.jpg","null","",NA,NA,NA,NA,""
"image-keyboard-response",298,273982,"0.0-3.95-2.95","s58upcbrgv4br5k",321,"55.csv","","null","resources/images/coin2.png","null","",NA,NA,NA,NA,""
"image-keyboard-response",299,274118,"0.0-3.96-0.96","s58upcbrgv4br5k",321,"55.csv","","134.70000004768372","resources/trios/L1T4A2.jpg","38","restless",0.7,0.4,0.5,0.473123347830113,"false"
"image-keyboard-response",300,274525,"0.0-3.96-1.96","s58upcbrgv4br5k",321,"55.csv","","null","resources/maskTrios/BT4B.jpg","null","",NA,NA,NA,NA,""
"image-keyboard-response",301,275726,"0.0-3.96-2.96","s58upcbrgv4br5k",321,"55.csv","","null","resources/images/fishbone.png","null","",NA,NA,NA,NA,""
"image-keyboard-response",302,276226,"0.0-3.97-0.97","s58upcbrgv4br5k",321,"55.csv","","498.09999990463257","resources/trios/L4T2A1.jpg","37","restless",0.7,0.4,0.5,0.513858712612244,"true"
"image-keyboard-response",303,276627,"0.0-3.97-1.97","s58upcbrgv4br5k",321,"55.csv","","null","resources/maskTrios/L4BB.jpg","null","",NA,NA,NA,NA,""
"image-keyboard-response",304,277831,"0.0-3.97-2.97","s58upcbrgv4br5k",321,"55.csv","","null","resources/images/coin2.png","null","",NA,NA,NA,NA,""
"image-keyboard-response",305,277960,"0.0-3.98-0.98","s58upcbrgv4br5k",321,"55.csv","","127.30000019073486","resources/trios/L4T4A2.jpg","37","restless",0.7,0.4,0.6,0.747744081269848,"false"
"image-keyboard-response",306,278363,"0.0-3.98-1.98","s58upcbrgv4br5k",321,"55.csv","","null","resources/maskTrios/L4BB.jpg","null","",NA,NA,NA,NA,""
"image-keyboard-response",307,279570,"0.0-3.98-2.98","s58upcbrgv4br5k",321,"55.csv","","null","resources/images/fishbone.png","null","",NA,NA,NA,NA,""
"image-keyboard-response",308,280359,"0.0-3.99-0.99","s58upcbrgv4br5k",321,"55.csv","","787.7000000476837","resources/trios/L4T4A1.jpg","39","restless",0.8,0.4,0.6,0.789930773298476,"false"
"image-keyboard-response",309,280764,"0.0-3.99-1.99","s58upcbrgv4br5k",321,"55.csv","","null","resources/maskTrios/BBA1.jpg","null","",NA,NA,NA,NA,""
"image-keyboard-response",310,281971,"0.0-3.99-2.99","s58upcbrgv4br5k",321,"55.csv","","null","resources/images/fishbone.png","null","",NA,NA,NA,NA,""
"image-keyboard-response",311,282296,"0.0-3.100-0.100","s58upcbrgv4br5k",321,"55.csv","","324","resources/trios/L4T4A1.jpg","37","restless",0.8,0.4,0.6,0.0365768892652882,"true"
"image-keyboard-response",312,282703,"0.0-3.100-1.100","s58upcbrgv4br5k",321,"55.csv","","null","resources/maskTrios/L4BB.jpg","null","",NA,NA,NA,NA,""
"image-keyboard-response",313,283905,"0.0-3.100-2.100","s58upcbrgv4br5k",321,"55.csv","","null","resources/images/coin2.png","null","",NA,NA,NA,NA,""
"image-keyboard-response",314,284128,"0.0-3.101-0.101","s58upcbrgv4br5k",321,"55.csv","","221.20000004768372","resources/trios/L4T2A1.jpg","37","restless",0.8,0.4,0.6,0.756648470430819,"true"
"image-keyboard-response",315,284531,"0.0-3.101-1.101","s58upcbrgv4br5k",321,"55.csv","","null","resources/maskTrios/L4BB.jpg","null","",NA,NA,NA,NA,""
"image-keyboard-response",316,285734,"0.0-3.101-2.101","s58upcbrgv4br5k",321,"55.csv","","null","resources/images/coin2.png","null","",NA,NA,NA,NA,""
"image-keyboard-response",317,285896,"0.0-3.102-0.102","s58upcbrgv4br5k",321,"55.csv","","160.5","resources/trios/L4T4A2.jpg","37","restless",0.8,0.4,0.6,0.193198462657966,"true"
"image-keyboard-response",318,286299,"0.0-3.102-1.102","s58upcbrgv4br5k",321,"55.csv","","null","resources/maskTrios/L4BB.jpg","null","",NA,NA,NA,NA,""
"image-keyboard-response",319,287504,"0.0-3.102-2.102","s58upcbrgv4br5k",321,"55.csv","","null","resources/images/coin2.png","null","",NA,NA,NA,NA,""
"image-keyboard-response",320,287615,"0.0-3.103-0.103","s58upcbrgv4br5k",321,"55.csv","","110.19999980926514","resources/trios/L4T4A1.jpg","37","restless",0.8,0.4,0.6,0.73975579868149,"true"
"image-keyboard-response",321,288018,"0.0-3.103-1.103","s58upcbrgv4br5k",321,"55.csv","","null","resources/maskTrios/L4BB.jpg","null","",NA,NA,NA,NA,""
"image-keyboard-response",322,289221,"0.0-3.103-2.103","s58upcbrgv4br5k",321,"55.csv","","null","resources/images/coin2.png","null","",NA,NA,NA,NA,""
"image-keyboard-response",323,289387,"0.0-3.104-0.104","s58upcbrgv4br5k",321,"55.csv","","164.5","resources/trios/L4T2A2.jpg","37","restless",0.8,0.4,0.6,0.888747305679474,"false"
"image-keyboard-response",324,289793,"0.0-3.104-1.104","s58upcbrgv4br5k",321,"55.csv","","null","resources/maskTrios/L4BB.jpg","null","",NA,NA,NA,NA,""
"image-keyboard-response",325,291000,"0.0-3.104-2.104","s58upcbrgv4br5k",321,"55.csv","","null","resources/images/fishbone.png","null","",NA,NA,NA,NA,""
"image-keyboard-response",326,291383,"0.0-3.105-0.105","s58upcbrgv4br5k",321,"55.csv","","381.7999999523163","resources/trios/L4T4A2.jpg","37","restless",0.8,0.4,0.6,0.810138809159,"false"
"image-keyboard-response",327,291789,"0.0-3.105-1.105","s58upcbrgv4br5k",321,"55.csv","","null","resources/maskTrios/L4BB.jpg","null","",NA,NA,NA,NA,""
"image-keyboard-response",328,292992,"0.0-3.105-2.105","s58upcbrgv4br5k",321,"55.csv","","null","resources/images/fishbone.png","null","",NA,NA,NA,NA,""
"image-keyboard-response",329,293088,"0.0-3.106-0.106","s58upcbrgv4br5k",321,"55.csv","","94.10000014305115","resources/trios/L1T2A1.jpg","38","restless",0.8,0.4,0.6,0.385203910740972,"true"
"image-keyboard-response",330,293489,"0.0-3.106-1.106","s58upcbrgv4br5k",321,"55.csv","","null","resources/maskTrios/BT2B.jpg","null","",NA,NA,NA,NA,""
"image-keyboard-response",331,294691,"0.0-3.106-2.106","s58upcbrgv4br5k",321,"55.csv","","null","resources/images/coin2.png","null","",NA,NA,NA,NA,""
"image-keyboard-response",332,294814,"0.0-3.107-0.107","s58upcbrgv4br5k",321,"55.csv","","121.09999990463257","resources/trios/L1T4A1.jpg","38","restless",0.8,0.4,0.6,0.917120693513679,"false"
"image-keyboard-response",333,295220,"0.0-3.107-1.107","s58upcbrgv4br5k",321,"55.csv","","null","resources/maskTrios/BT4B.jpg","null","",NA,NA,NA,NA,""
"image-keyboard-response",334,296426,"0.0-3.107-2.107","s58upcbrgv4br5k",321,"55.csv","","null","resources/images/fishbone.png","null","",NA,NA,NA,NA,""
"image-keyboard-response",335,296843,"0.0-3.108-0.108","s58upcbrgv4br5k",321,"55.csv","","415.5","resources/trios/L4T2A1.jpg","37","restless",0.8,0.4,0.6,0.785451720914092,"true"
"image-keyboard-response",336,297246,"0.0-3.108-1.108","s58upcbrgv4br5k",321,"55.csv","","null","resources/maskTrios/L4BB.jpg","null","",NA,NA,NA,NA,""
"image-keyboard-response",337,298448,"0.0-3.108-2.108","s58upcbrgv4br5k",321,"55.csv","","null","resources/images/coin2.png","null","",NA,NA,NA,NA,""
"image-keyboard-response",338,298538,"0.0-3.109-0.109","s58upcbrgv4br5k",321,"55.csv","","88.29999995231628","resources/trios/L1T2A1.jpg","37","restless",0.8,0.4,0.6,0.0463136394979418,"true"
"image-keyboard-response",339,298939,"0.0-3.109-1.109","s58upcbrgv4br5k",321,"55.csv","","null","resources/maskTrios/L1BB.jpg","null","",NA,NA,NA,NA,""
"image-keyboard-response",340,300146,"0.0-3.109-2.109","s58upcbrgv4br5k",321,"55.csv","","null","resources/images/coin2.png","null","",NA,NA,NA,NA,""
"image-keyboard-response",341,300332,"0.0-3.110-0.110","s58upcbrgv4br5k",321,"55.csv","","184","resources/trios/L1T4A1.jpg","37","restless",0.7,0.4,0.6,0.484707237671288,"true"
"image-keyboard-response",342,300738,"0.0-3.110-1.110","s58upcbrgv4br5k",321,"55.csv","","null","resources/maskTrios/L1BB.jpg","null","",NA,NA,NA,NA,""
"image-keyboard-response",343,301942,"0.0-3.110-2.110","s58upcbrgv4br5k",321,"55.csv","","null","resources/images/coin2.png","null","",NA,NA,NA,NA,""
"image-keyboard-response",344,302125,"0.0-3.111-0.111","s58upcbrgv4br5k",321,"55.csv","","182.40000009536743","resources/trios/L1T4A2.jpg","37","restless",0.7,0.4,0.6,0.981366847969026,"false"
"image-keyboard-response",345,302528,"0.0-3.111-1.111","s58upcbrgv4br5k",321,"55.csv","","null","resources/maskTrios/L1BB.jpg","null","",NA,NA,NA,NA,""
"image-keyboard-response",346,303734,"0.0-3.111-2.111","s58upcbrgv4br5k",321,"55.csv","","null","resources/images/fishbone.png","null","",NA,NA,NA,NA,""
"image-keyboard-response",347,303973,"0.0-3.112-0.112","s58upcbrgv4br5k",321,"55.csv","","236.79999995231628","resources/trios/L4T2A1.jpg","38","restless",0.7,0.4,0.5,0.622604818496149,"false"
"image-keyboard-response",348,304379,"0.0-3.112-1.112","s58upcbrgv4br5k",321,"55.csv","","null","resources/maskTrios/BT2B.jpg","null","",NA,NA,NA,NA,""
"image-keyboard-response",349,305585,"0.0-3.112-2.112","s58upcbrgv4br5k",321,"55.csv","","null","resources/images/fishbone.png","null","",NA,NA,NA,NA,""
"image-keyboard-response",350,306686,"0.0-3.113-0.113","s58upcbrgv4br5k",321,"55.csv","","1099.0999999046326","resources/trios/L1T4A1.jpg","39","restless",0.7,0.4,0.5,0.420990885863377,"true"
"image-keyboard-response",351,307092,"0.0-3.113-1.113","s58upcbrgv4br5k",321,"55.csv","","null","resources/maskTrios/BBA1.jpg","null","",NA,NA,NA,NA,""
"image-keyboard-response",352,308296,"0.0-3.113-2.113","s58upcbrgv4br5k",321,"55.csv","","null","resources/images/coin2.png","null","",NA,NA,NA,NA,""
"image-keyboard-response",353,308430,"0.0-3.114-0.114","s58upcbrgv4br5k",321,"55.csv","","132.80000019073486","resources/trios/L1T4A2.jpg","39","restless",0.7,0.4,0.5,0.610865075284528,"false"
"image-keyboard-response",354,308833,"0.0-3.114-1.114","s58upcbrgv4br5k",321,"55.csv","","null","resources/maskTrios/BBA2.jpg","null","",NA,NA,NA,NA,""
"image-keyboard-response",355,310034,"0.0-3.114-2.114","s58upcbrgv4br5k",321,"55.csv","","null","resources/images/fishbone.png","null","",NA,NA,NA,NA,""
"image-keyboard-response",356,310093,"0.0-3.115-0.115","s58upcbrgv4br5k",321,"55.csv","","57.200000047683716","resources/trios/L4T4A2.jpg","38","restless",0.7,0.4,0.6,0.135132607102213,"true"
"image-keyboard-response",357,310498,"0.0-3.115-1.115","s58upcbrgv4br5k",321,"55.csv","","null","resources/maskTrios/BT4B.jpg","null","",NA,NA,NA,NA,""
"image-keyboard-response",358,311704,"0.0-3.115-2.115","s58upcbrgv4br5k",321,"55.csv","","null","resources/images/coin2.png","null","",NA,NA,NA,NA,""
"image-keyboard-response",359,311712,"0.0-3.116-0.116","s58upcbrgv4br5k",321,"55.csv","","6.1000001430511475","resources/trios/L1T2A1.jpg","38","restless",0.7,0.4,0.6,0.932742117391368,"false"
"image-keyboard-response",360,312117,"0.0-3.116-1.116","s58upcbrgv4br5k",321,"55.csv","","null","resources/maskTrios/BT2B.jpg","null","",NA,NA,NA,NA,""
"image-keyboard-response",361,313320,"0.0-3.116-2.116","s58upcbrgv4br5k",321,"55.csv","","null","resources/images/fishbone.png","null","",NA,NA,NA,NA,""
"image-keyboard-response",362,313659,"0.0-3.117-0.117","s58upcbrgv4br5k",321,"55.csv","","338.19999980926514","resources/trios/L4T4A2.jpg","37","restless",0.7,0.4,0.6,0.659382411895998,"true"
"image-keyboard-response",363,314064,"0.0-3.117-1.117","s58upcbrgv4br5k",321,"55.csv","","null","resources/maskTrios/L4BB.jpg","null","",NA,NA,NA,NA,""
"image-keyboard-response",364,315267,"0.0-3.117-2.117","s58upcbrgv4br5k",321,"55.csv","","null","resources/images/coin2.png","null","",NA,NA,NA,NA,""
"image-keyboard-response",365,315467,"0.0-3.118-0.118","s58upcbrgv4br5k",321,"55.csv","","198.10000014305115","resources/trios/L1T2A1.jpg","37","restless",0.7,0.4,0.6,0.757419630688874,"false"
"image-keyboard-response",366,315869,"0.0-3.118-1.118","s58upcbrgv4br5k",321,"55.csv","","null","resources/maskTrios/L1BB.jpg","null","",NA,NA,NA,NA,""
"image-keyboard-response",367,317075,"0.0-3.118-2.118","s58upcbrgv4br5k",321,"55.csv","","null","resources/images/fishbone.png","null","",NA,NA,NA,NA,""
"image-keyboard-response",368,317080,"0.0-3.119-0.119","s58upcbrgv4br5k",321,"55.csv","","3.5999999046325684","resources/trios/L1T2A1.jpg","38","restless",0.7,0.4,0.6,0.820803309649866,"false"
"image-keyboard-response",369,317483,"0.0-3.119-1.119","s58upcbrgv4br5k",321,"55.csv","","null","resources/maskTrios/BT2B.jpg","null","",NA,NA,NA,NA,""
"image-keyboard-response",370,318686,"0.0-3.119-2.119","s58upcbrgv4br5k",321,"55.csv","","null","resources/images/fishbone.png","null","",NA,NA,NA,NA,""
"image-keyboard-response",371,318932,"0.0-3.120-0.120","s58upcbrgv4br5k",321,"55.csv","","244.5","resources/trios/L1T2A2.jpg","39","restless",0.7,0.4,0.7,0.66619353512287,"true"
"image-keyboard-response",372,319334,"0.0-3.120-1.120","s58upcbrgv4br5k",321,"55.csv","","null","resources/maskTrios/BBA2.jpg","null","",NA,NA,NA,NA,""
"image-keyboard-response",373,320536,"0.0-3.120-2.120","s58upcbrgv4br5k",321,"55.csv","","null","resources/images/coin2.png","null","",NA,NA,NA,NA,""
"image-keyboard-response",374,320660,"0.0-3.121-0.121","s58upcbrgv4br5k",321,"55.csv","","122.40000009536743","resources/trios/L1T2A2.jpg","39","restless",0.6,0.4,0.7,0.57617201168967,"true"
"image-keyboard-response",375,321065,"0.0-3.121-1.121","s58upcbrgv4br5k",321,"55.csv","","null","resources/maskTrios/BBA2.jpg","null","",NA,NA,NA,NA,""
"image-keyboard-response",376,322266,"0.0-3.121-2.121","s58upcbrgv4br5k",321,"55.csv","","null","resources/images/coin2.png","null","",NA,NA,NA,NA,""
"image-keyboard-response",377,322268,"0.0-3.122-0.122","s58upcbrgv4br5k",321,"55.csv","","0.39999985694885254","resources/trios/L1T4A2.jpg","39","restless",0.6,0.4,0.7,0.534364855980443,"true"
"image-keyboard-response",378,322671,"0.0-3.122-1.122","s58upcbrgv4br5k",321,"55.csv","","null","resources/maskTrios/BBA2.jpg","null","",NA,NA,NA,NA,""
"image-keyboard-response",379,323875,"0.0-3.122-2.122","s58upcbrgv4br5k",321,"55.csv","","null","resources/images/coin2.png","null","",NA,NA,NA,NA,""
"image-keyboard-response",380,323899,"0.0-3.123-0.123","s58upcbrgv4br5k",321,"55.csv","","21.700000047683716","resources/trios/L1T4A2.jpg","39","restless",0.6,0.4,0.7,0.474185555977582,"true"
"image-keyboard-response",381,324300,"0.0-3.123-1.123","s58upcbrgv4br5k",321,"55.csv","","null","resources/maskTrios/BBA2.jpg","null","",NA,NA,NA,NA,""
"image-keyboard-response",382,325505,"0.0-3.123-2.123","s58upcbrgv4br5k",321,"55.csv","","null","resources/images/coin2.png","null","",NA,NA,NA,NA,""
"image-keyboard-response",383,325553,"0.0-3.124-0.124","s58upcbrgv4br5k",321,"55.csv","","46.5","resources/trios/L4T2A1.jpg","39","restless",0.6,0.4,0.7,0.0710533695661035,"true"
"image-keyboard-response",384,325959,"0.0-3.124-1.124","s58upcbrgv4br5k",321,"55.csv","","null","resources/maskTrios/BBA1.jpg","null","",NA,NA,NA,NA,""
"image-keyboard-response",385,327161,"0.0-3.124-2.124","s58upcbrgv4br5k",321,"55.csv","","null","resources/images/coin2.png","null","",NA,NA,NA,NA,""
"image-keyboard-response",386,327231,"0.0-3.125-0.125","s58upcbrgv4br5k",321,"55.csv","","68.59999990463257","resources/trios/L4T4A2.jpg","39","restless",0.6,0.4,0.7,0.312753029702725,"true"
"image-keyboard-response",387,327633,"0.0-3.125-1.125","s58upcbrgv4br5k",321,"55.csv","","null","resources/maskTrios/BBA2.jpg","null","",NA,NA,NA,NA,""
"image-keyboard-response",388,328836,"0.0-3.125-2.125","s58upcbrgv4br5k",321,"55.csv","","null","resources/images/coin2.png","null","",NA,NA,NA,NA,""
"image-keyboard-response",389,328926,"0.0-3.126-0.126","s58upcbrgv4br5k",321,"55.csv","","88.5","resources/trios/L4T4A2.jpg","39","restless",0.6,0.4,0.7,0.117452451800008,"true"
"image-keyboard-response",390,329333,"0.0-3.126-1.126","s58upcbrgv4br5k",321,"55.csv","","null","resources/maskTrios/BBA2.jpg","null","",NA,NA,NA,NA,""
"image-keyboard-response",391,330540,"0.0-3.126-2.126","s58upcbrgv4br5k",321,"55.csv","","null","resources/images/coin2.png","null","",NA,NA,NA,NA,""
"image-keyboard-response",392,330566,"0.0-3.127-0.127","s58upcbrgv4br5k",321,"55.csv","","25.300000190734863","resources/trios/L1T4A2.jpg","39","restless",0.6,0.4,0.7,0.78131216799623,"false"
"image-keyboard-response",393,330968,"0.0-3.127-1.127","s58upcbrgv4br5k",321,"55.csv","","null","resources/maskTrios/BBA2.jpg","null","",NA,NA,NA,NA,""
"image-keyboard-response",394,333022,"0.0-3.127-2.127","s58upcbrgv4br5k",321,"55.csv","","null","resources/images/fishbone.png","null","",NA,NA,NA,NA,""
"image-keyboard-response",395,337044,"0.0-3.128-0.128","s58upcbrgv4br5k",321,"55.csv","","4016.7000000476837","resources/trios/L1T2A1.jpg","38","restless",0.6,0.4,0.6,0.795655153786313,"false"
"image-keyboard-response",396,337449,"0.0-3.128-1.128","s58upcbrgv4br5k",321,"55.csv","","null","resources/maskTrios/BT2B.jpg","null","",NA,NA,NA,NA,""
"image-keyboard-response",397,338655,"0.0-3.128-2.128","s58upcbrgv4br5k",321,"55.csv","","null","resources/images/fishbone.png","null","",NA,NA,NA,NA,""
"image-keyboard-response",398,338759,"0.0-3.129-0.129","s58upcbrgv4br5k",321,"55.csv","","102.59999990463257","resources/trios/L1T2A2.jpg","37","restless",0.6,0.4,0.6,0.0530030452706876,"true"
"image-keyboard-response",399,339164,"0.0-3.129-1.129","s58upcbrgv4br5k",321,"55.csv","","null","resources/maskTrios/L1BB.jpg","null","",NA,NA,NA,NA,""
"image-keyboard-response",400,340370,"0.0-3.129-2.129","s58upcbrgv4br5k",321,"55.csv","","null","resources/images/coin2.png","null","",NA,NA,NA,NA,""
"image-keyboard-response",401,340420,"0.0-3.130-0.130","s58upcbrgv4br5k",321,"55.csv","","48.90000009536743","resources/trios/L4T2A1.jpg","37","restless",0.6,0.5,0.6,0.0676390804289662,"true"
"image-keyboard-response",402,340823,"0.0-3.130-1.130","s58upcbrgv4br5k",321,"55.csv","","null","resources/maskTrios/L4BB.jpg","null","",NA,NA,NA,NA,""
"image-keyboard-response",403,342030,"0.0-3.130-2.130","s58upcbrgv4br5k",321,"55.csv","","null","resources/images/coin2.png","null","",NA,NA,NA,NA,""
"image-keyboard-response",404,342082,"0.0-3.131-0.131","s58upcbrgv4br5k",321,"55.csv","","50.299999952316284","resources/trios/L1T2A1.jpg","37","restless",0.6,0.5,0.6,0.14206410944318,"true"
"image-keyboard-response",405,342485,"0.0-3.131-1.131","s58upcbrgv4br5k",321,"55.csv","","null","resources/maskTrios/L1BB.jpg","null","",NA,NA,NA,NA,""
"image-keyboard-response",406,343687,"0.0-3.131-2.131","s58upcbrgv4br5k",321,"55.csv","","null","resources/images/coin2.png","null","",NA,NA,NA,NA,""
"image-keyboard-response",407,343839,"0.0-3.132-0.132","s58upcbrgv4br5k",321,"55.csv","","150.70000004768372","resources/trios/L4T4A1.jpg","37","restless",0.6,0.5,0.5,0.436093887763257,"true"
"image-keyboard-response",408,344245,"0.0-3.132-1.132","s58upcbrgv4br5k",321,"55.csv","","null","resources/maskTrios/L4BB.jpg","null","",NA,NA,NA,NA,""
"image-keyboard-response",409,345450,"0.0-3.132-2.132","s58upcbrgv4br5k",321,"55.csv","","null","resources/images/coin2.png","null","",NA,NA,NA,NA,""
"image-keyboard-response",410,345543,"0.0-3.133-0.133","s58upcbrgv4br5k",321,"55.csv","","91.79999995231628","resources/trios/L4T2A2.jpg","37","restless",0.6,0.5,0.5,0.973303569673447,"false"
"image-keyboard-response",411,345945,"0.0-3.133-1.133","s58upcbrgv4br5k",321,"55.csv","","null","resources/maskTrios/L4BB.jpg","null","",NA,NA,NA,NA,""
"image-keyboard-response",412,347150,"0.0-3.133-2.133","s58upcbrgv4br5k",321,"55.csv","","null","resources/images/fishbone.png","null","",NA,NA,NA,NA,""
"image-keyboard-response",413,347286,"0.0-3.134-0.134","s58upcbrgv4br5k",321,"55.csv","","134.40000009536743","resources/trios/L1T2A1.jpg","38","restless",0.5,0.5,0.5,0.245470278474903,"true"
"image-keyboard-response",414,347689,"0.0-3.134-1.134","s58upcbrgv4br5k",321,"55.csv","","null","resources/maskTrios/BT2B.jpg","null","",NA,NA,NA,NA,""
"image-keyboard-response",415,348894,"0.0-3.134-2.134","s58upcbrgv4br5k",321,"55.csv","","null","resources/images/coin2.png","null","",NA,NA,NA,NA,""
"image-keyboard-response",416,349039,"0.0-3.135-0.135","s58upcbrgv4br5k",321,"55.csv","","142.79999995231628","resources/trios/L4T2A1.jpg","38","restless",0.5,0.5,0.5,0.58614970243189,"false"
"image-keyboard-response",417,349441,"0.0-3.135-1.135","s58upcbrgv4br5k",321,"55.csv","","null","resources/maskTrios/BT2B.jpg","null","",NA,NA,NA,NA,""
"image-keyboard-response",418,350644,"0.0-3.135-2.135","s58upcbrgv4br5k",321,"55.csv","","null","resources/images/fishbone.png","null","",NA,NA,NA,NA,""
"image-keyboard-response",419,350714,"0.0-3.136-0.136","s58upcbrgv4br5k",321,"55.csv","","68.59999990463257","resources/trios/L4T2A2.jpg","39","restless",0.6,0.5,0.5,0.178032181193253,"true"
"image-keyboard-response",420,351120,"0.0-3.136-1.136","s58upcbrgv4br5k",321,"55.csv","","null","resources/maskTrios/BBA2.jpg","null","",NA,NA,NA,NA,""
"image-keyboard-response",421,352326,"0.0-3.136-2.136","s58upcbrgv4br5k",321,"55.csv","","null","resources/images/coin2.png","null","",NA,NA,NA,NA,""
"image-keyboard-response",422,355639,"0.0-3.137-0.137","s58upcbrgv4br5k",321,"55.csv","","3310.199999809265","resources/trios/L4T2A1.jpg","39","restless",0.6,0.5,0.5,0.585624709003083,"false"
"image-keyboard-response",423,356042,"0.0-3.137-1.137","s58upcbrgv4br5k",321,"55.csv","","null","resources/maskTrios/BBA1.jpg","null","",NA,NA,NA,NA,""
"image-keyboard-response",424,357248,"0.0-3.137-2.137","s58upcbrgv4br5k",321,"55.csv","","null","resources/images/fishbone.png","null","",NA,NA,NA,NA,""
"image-keyboard-response",425,357326,"0.0-3.138-0.138","s58upcbrgv4br5k",321,"55.csv","","77.20000004768372","resources/trios/L1T2A1.jpg","38","restless",0.6,0.5,0.4,0.653279437447801,"false"
"image-keyboard-response",426,357731,"0.0-3.138-1.138","s58upcbrgv4br5k",321,"55.csv","","null","resources/maskTrios/BT2B.jpg","null","",NA,NA,NA,NA,""
"image-keyboard-response",427,358934,"0.0-3.138-2.138","s58upcbrgv4br5k",321,"55.csv","","null","resources/images/fishbone.png","null","",NA,NA,NA,NA,""
"image-keyboard-response",428,358995,"0.0-3.139-0.139","s58upcbrgv4br5k",321,"55.csv","","60.30000019073486","resources/trios/L4T4A2.jpg","37","restless",0.6,0.5,0.4,0.53171299440792,"true"
"image-keyboard-response",429,359401,"0.0-3.139-1.139","s58upcbrgv4br5k",321,"55.csv","","null","resources/maskTrios/L4BB.jpg","null","",NA,NA,NA,NA,""
"image-keyboard-response",430,360607,"0.0-3.139-2.139","s58upcbrgv4br5k",321,"55.csv","","null","resources/images/coin2.png","null","",NA,NA,NA,NA,""
"image-keyboard-response",431,360794,"0.0-3.140-0.140","s58upcbrgv4br5k",321,"55.csv","","185.10000014305115","resources/trios/L1T4A2.jpg","37","restless",0.6,0.5,0.4,0.395406334469959,"true"
"image-keyboard-response",432,361197,"0.0-3.140-1.140","s58upcbrgv4br5k",321,"55.csv","","null","resources/maskTrios/L1BB.jpg","null","",NA,NA,NA,NA,""
"image-keyboard-response",433,362402,"0.0-3.140-2.140","s58upcbrgv4br5k",321,"55.csv","","null","resources/images/coin2.png","null","",NA,NA,NA,NA,""
"image-keyboard-response",434,362679,"0.0-3.141-0.141","s58upcbrgv4br5k",321,"55.csv","","275.7999999523163","resources/trios/L1T4A2.jpg","37","restless",0.6,0.5,0.4,0.255704936649003,"true"
"image-keyboard-response",435,363085,"0.0-3.141-1.141","s58upcbrgv4br5k",321,"55.csv","","null","resources/maskTrios/L1BB.jpg","null","",NA,NA,NA,NA,""
"image-keyboard-response",436,364288,"0.0-3.141-2.141","s58upcbrgv4br5k",321,"55.csv","","null","resources/images/coin2.png","null","",NA,NA,NA,NA,""
"image-keyboard-response",437,364691,"0.0-3.142-0.142","s58upcbrgv4br5k",321,"55.csv","","402.7999999523163","resources/trios/L1T4A2.jpg","37","restless",0.6,0.5,0.3,0.290369554330887,"true"
"image-keyboard-response",438,365097,"0.0-3.142-1.142","s58upcbrgv4br5k",321,"55.csv","","null","resources/maskTrios/L1BB.jpg","null","",NA,NA,NA,NA,""
"image-keyboard-response",439,366300,"0.0-3.142-2.142","s58upcbrgv4br5k",321,"55.csv","","null","resources/images/coin2.png","null","",NA,NA,NA,NA,""
"image-keyboard-response",440,366971,"0.0-3.143-0.143","s58upcbrgv4br5k",321,"55.csv","","669.7000000476837","resources/trios/L1T4A1.jpg","38","restless",0.6,0.5,0.3,0.501480542104039,"false"
"image-keyboard-response",441,367376,"0.0-3.143-1.143","s58upcbrgv4br5k",321,"55.csv","","null","resources/maskTrios/BT4B.jpg","null","",NA,NA,NA,NA,""
"image-keyboard-response",442,368581,"0.0-3.143-2.143","s58upcbrgv4br5k",321,"55.csv","","null","resources/images/fishbone.png","null","",NA,NA,NA,NA,""
"image-keyboard-response",443,369032,"0.0-3.144-0.144","s58upcbrgv4br5k",321,"55.csv","","449.2999999523163","resources/trios/L4T2A1.jpg","37","restless",0.6,0.5,0.3,0.863040432376397,"false"
"image-keyboard-response",444,369433,"0.0-3.144-1.144","s58upcbrgv4br5k",321,"55.csv","","null","resources/maskTrios/L4BB.jpg","null","",NA,NA,NA,NA,""
"image-keyboard-response",445,370640,"0.0-3.144-2.144","s58upcbrgv4br5k",321,"55.csv","","null","resources/images/fishbone.png","null","",NA,NA,NA,NA,""
"image-keyboard-response",446,370967,"0.0-3.145-0.145","s58upcbrgv4br5k",321,"55.csv","","325.09999990463257","resources/trios/L4T2A1.jpg","39","restless",0.6,0.5,0.3,0.169686954386979,"true"
"image-keyboard-response",447,371371,"0.0-3.145-1.145","s58upcbrgv4br5k",321,"55.csv","","null","resources/maskTrios/BBA1.jpg","null","",NA,NA,NA,NA,""
"image-keyboard-response",448,372577,"0.0-3.145-2.145","s58upcbrgv4br5k",321,"55.csv","","null","resources/images/coin2.png","null","",NA,NA,NA,NA,""
"image-keyboard-response",449,372973,"0.0-3.146-0.146","s58upcbrgv4br5k",321,"55.csv","","395.09999990463257","resources/trios/L4T4A2.jpg","39","restless",0.6,0.5,0.2,0.710122377038446,"false"
"image-keyboard-response",450,373380,"0.0-3.146-1.146","s58upcbrgv4br5k",321,"55.csv","","null","resources/maskTrios/BBA2.jpg","null","",NA,NA,NA,NA,""
"image-keyboard-response",451,374584,"0.0-3.146-2.146","s58upcbrgv4br5k",321,"55.csv","","null","resources/images/fishbone.png","null","",NA,NA,NA,NA,""
"image-keyboard-response",452,374751,"0.0-3.147-0.147","s58upcbrgv4br5k",321,"55.csv","","165.70000004768372","resources/trios/L1T4A2.jpg","38","restless",0.6,0.5,0.2,0.490901660191405,"true"
"image-keyboard-response",453,375153,"0.0-3.147-1.147","s58upcbrgv4br5k",321,"55.csv","","null","resources/maskTrios/BT4B.jpg","null","",NA,NA,NA,NA,""
"image-keyboard-response",454,376359,"0.0-3.147-2.147","s58upcbrgv4br5k",321,"55.csv","","null","resources/images/coin2.png","null","",NA,NA,NA,NA,""
"image-keyboard-response",455,376572,"0.0-3.148-0.148","s58upcbrgv4br5k",321,"55.csv","","211.70000004768372","resources/trios/L1T4A1.jpg","38","restless",0.6,0.5,0.1,0.924476789561316,"false"
"image-keyboard-response",456,376973,"0.0-3.148-1.148","s58upcbrgv4br5k",321,"55.csv","","null","resources/maskTrios/BT4B.jpg","null","",NA,NA,NA,NA,""
"image-keyboard-response",457,378177,"0.0-3.148-2.148","s58upcbrgv4br5k",321,"55.csv","","null","resources/images/fishbone.png","null","",NA,NA,NA,NA,""
"image-keyboard-response",458,378588,"0.0-3.149-0.149","s58upcbrgv4br5k",321,"55.csv","","409.2999999523163","resources/trios/L1T2A1.jpg","37","restless",0.6,0.5,0.1,0.0673668222794681,"true"
"image-keyboard-response",459,378996,"0.0-3.149-1.149","s58upcbrgv4br5k",321,"55.csv","","null","resources/maskTrios/L1BB.jpg","null","",NA,NA,NA,NA,""
"image-keyboard-response",460,380199,"0.0-3.149-2.149","s58upcbrgv4br5k",321,"55.csv","","null","resources/images/coin2.png","null","",NA,NA,NA,NA,""
"image-keyboard-response",461,380390,"0.0-3.150-0.150","s58upcbrgv4br5k",321,"55.csv","","190.29999995231628","resources/trios/L1T4A1.jpg","37","restless",0.6,0.5,0.2,0.401722325086612,"true"
"image-keyboard-response",462,380793,"0.0-3.150-1.150","s58upcbrgv4br5k",321,"55.csv","","null","resources/maskTrios/L1BB.jpg","null","",NA,NA,NA,NA,""
"image-keyboard-response",463,381998,"0.0-3.150-2.150","s58upcbrgv4br5k",321,"55.csv","","null","resources/images/coin2.png","null","",NA,NA,NA,NA,""
"image-keyboard-response",464,382034,"0.0-3.151-0.151","s58upcbrgv4br5k",321,"55.csv","","34.799999952316284","resources/trios/L4T4A2.jpg","37","restless",0.6,0.5,0.2,0.651523119722782,"false"
"image-keyboard-response",465,382441,"0.0-3.151-1.151","s58upcbrgv4br5k",321,"55.csv","","null","resources/maskTrios/L4BB.jpg","null","",NA,NA,NA,NA,""
"image-keyboard-response",466,383644,"0.0-3.151-2.151","s58upcbrgv4br5k",321,"55.csv","","null","resources/images/fishbone.png","null","",NA,NA,NA,NA,""
"image-keyboard-response",467,383779,"0.0-3.152-0.152","s58upcbrgv4br5k",321,"55.csv","","133.79999995231628","resources/trios/L1T4A2.jpg","38","restless",0.6,0.5,0.2,0.50633030495079,"false"
"image-keyboard-response",468,384183,"0.0-3.152-1.152","s58upcbrgv4br5k",321,"55.csv","","null","resources/maskTrios/BT4B.jpg","null","",NA,NA,NA,NA,""
"image-keyboard-response",469,385388,"0.0-3.152-2.152","s58upcbrgv4br5k",321,"55.csv","","null","resources/images/fishbone.png","null","",NA,NA,NA,NA,""
"image-keyboard-response",470,385480,"0.0-3.153-0.153","s58upcbrgv4br5k",321,"55.csv","","90.59999990463257","resources/trios/L4T2A1.jpg","39","restless",0.6,0.5,0.2,0.114550023711115,"true"
"image-keyboard-response",471,385884,"0.0-3.153-1.153","s58upcbrgv4br5k",321,"55.csv","","null","resources/maskTrios/BBA1.jpg","null","",NA,NA,NA,NA,""
"image-keyboard-response",472,387087,"0.0-3.153-2.153","s58upcbrgv4br5k",321,"55.csv","","null","resources/images/coin2.png","null","",NA,NA,NA,NA,""
"image-keyboard-response",473,387196,"0.0-3.154-0.154","s58upcbrgv4br5k",321,"55.csv","","107.29999995231628","resources/trios/L1T4A2.jpg","39","restless",0.6,0.5,0.2,0.0710068159958865,"true"
"image-keyboard-response",474,387600,"0.0-3.154-1.154","s58upcbrgv4br5k",321,"55.csv","","null","resources/maskTrios/BBA2.jpg","null","",NA,NA,NA,NA,""
"image-keyboard-response",475,388803,"0.0-3.154-2.154","s58upcbrgv4br5k",321,"55.csv","","null","resources/images/coin2.png","null","",NA,NA,NA,NA,""
"image-keyboard-response",476,388978,"0.0-3.155-0.155","s58upcbrgv4br5k",321,"55.csv","","172.89999985694885","resources/trios/L4T2A2.jpg","39","restless",0.6,0.5,0.2,0.521358978660212,"false"
"image-keyboard-response",477,389384,"0.0-3.155-1.155","s58upcbrgv4br5k",321,"55.csv","","null","resources/maskTrios/BBA2.jpg","null","",NA,NA,NA,NA,""
"image-keyboard-response",478,390885,"0.0-3.155-2.155","s58upcbrgv4br5k",321,"55.csv","","null","resources/images/fishbone.png","null","",NA,NA,NA,NA,""
"image-keyboard-response",479,396449,"0.0-3.156-0.156","s58upcbrgv4br5k",321,"55.csv","","5562.799999952316","resources/trios/L4T4A2.jpg","38","restless",0.6,0.5,0.2,0.633517017028397,"false"
"image-keyboard-response",480,396855,"0.0-3.156-1.156","s58upcbrgv4br5k",321,"55.csv","","null","resources/maskTrios/BT4B.jpg","null","",NA,NA,NA,NA,""
"image-keyboard-response",481,398059,"0.0-3.156-2.156","s58upcbrgv4br5k",321,"55.csv","","null","resources/images/fishbone.png","null","",NA,NA,NA,NA,""
"image-keyboard-response",482,398906,"0.0-3.157-0.157","s58upcbrgv4br5k",321,"55.csv","","847","resources/trios/L1T4A1.jpg","37","restless",0.6,0.5,0.2,0.222796909665139,"true"
"image-keyboard-response",483,399311,"0.0-3.157-1.157","s58upcbrgv4br5k",321,"55.csv","","null","resources/maskTrios/L1BB.jpg","null","",NA,NA,NA,NA,""
"image-keyboard-response",484,400516,"0.0-3.157-2.157","s58upcbrgv4br5k",321,"55.csv","","null","resources/images/coin2.png","null","",NA,NA,NA,NA,""
"image-keyboard-response",485,400742,"0.0-3.158-0.158","s58upcbrgv4br5k",321,"55.csv","","224.89999985694885","resources/trios/L4T2A2.jpg","37","restless",0.6,0.5,0.2,0.567915587289847,"true"
"image-keyboard-response",486,401148,"0.0-3.158-1.158","s58upcbrgv4br5k",321,"55.csv","","null","resources/maskTrios/L4BB.jpg","null","",NA,NA,NA,NA,""
"image-keyboard-response",487,402351,"0.0-3.158-2.158","s58upcbrgv4br5k",321,"55.csv","","null","resources/images/coin2.png","null","",NA,NA,NA,NA,""
"image-keyboard-response",488,402548,"0.0-3.159-0.159","s58upcbrgv4br5k",321,"55.csv","","196.09999990463257","resources/trios/L1T2A2.jpg","37","restless",0.6,0.5,0.2,0.36679838091224,"true"
"image-keyboard-response",489,402950,"0.0-3.159-1.159","s58upcbrgv4br5k",321,"55.csv","","null","resources/maskTrios/L1BB.jpg","null","",NA,NA,NA,NA,""
"image-keyboard-response",490,404155,"0.0-3.159-2.159","s58upcbrgv4br5k",321,"55.csv","","null","resources/images/coin2.png","null","",NA,NA,NA,NA,""
"image-keyboard-response",491,404325,"0.0-3.160-0.160","s58upcbrgv4br5k",321,"55.csv","","168.70000004768372","resources/trios/L1T4A2.jpg","37","restless",0.6,0.5,0.2,0.890387887267235,"false"
"image-keyboard-response",492,404730,"0.0-3.160-1.160","s58upcbrgv4br5k",321,"55.csv","","null","resources/maskTrios/L1BB.jpg","null","",NA,NA,NA,NA,""
"image-keyboard-response",493,405932,"0.0-3.160-2.160","s58upcbrgv4br5k",321,"55.csv","","null","resources/images/fishbone.png","null","",NA,NA,NA,NA,""
"image-keyboard-response",494,406055,"0.0-3.161-0.161","s58upcbrgv4br5k",321,"55.csv","","122","resources/trios/L1T2A2.jpg","39","restless",0.6,0.5,0.3,0.624305420723349,"false"
"image-keyboard-response",495,406460,"0.0-3.161-1.161","s58upcbrgv4br5k",321,"55.csv","","null","resources/maskTrios/BBA2.jpg","null","",NA,NA,NA,NA,""
"image-keyboard-response",496,407662,"0.0-3.161-2.161","s58upcbrgv4br5k",321,"55.csv","","null","resources/images/fishbone.png","null","",NA,NA,NA,NA,""
"image-keyboard-response",497,407741,"0.0-3.162-0.162","s58upcbrgv4br5k",321,"55.csv","","77.89999985694885","resources/trios/L4T2A1.jpg","38","restless",0.5,0.4,0.3,0.17933119417492,"true"
"image-keyboard-response",498,408145,"0.0-3.162-1.162","s58upcbrgv4br5k",321,"55.csv","","null","resources/maskTrios/BT2B.jpg","null","",NA,NA,NA,NA,""
"image-keyboard-response",499,409347,"0.0-3.162-2.162","s58upcbrgv4br5k",321,"55.csv","","null","resources/images/coin2.png","null","",NA,NA,NA,NA,""
"image-keyboard-response",500,409507,"0.0-3.163-0.163","s58upcbrgv4br5k",321,"55.csv","","158","resources/trios/L1T2A1.jpg","38","restless",0.5,0.4,0.4,0.915251718557415,"false"
"image-keyboard-response",501,409911,"0.0-3.163-1.163","s58upcbrgv4br5k",321,"55.csv","","null","resources/maskTrios/BT2B.jpg","null","",NA,NA,NA,NA,""
"image-keyboard-response",502,411112,"0.0-3.163-2.163","s58upcbrgv4br5k",321,"55.csv","","null","resources/images/fishbone.png","null","",NA,NA,NA,NA,""
"image-keyboard-response",503,411157,"0.0-3.164-0.164","s58upcbrgv4br5k",321,"55.csv","","43.5","resources/trios/L1T2A2.jpg","37","restless",0.5,0.4,0.4,0.471807541507709,"true"
"image-keyboard-response",504,411562,"0.0-3.164-1.164","s58upcbrgv4br5k",321,"55.csv","","null","resources/maskTrios/L1BB.jpg","null","",NA,NA,NA,NA,""
"image-keyboard-response",505,412764,"0.0-3.164-2.164","s58upcbrgv4br5k",321,"55.csv","","null","resources/images/coin2.png","null","",NA,NA,NA,NA,""
"image-keyboard-response",506,412920,"0.0-3.165-0.165","s58upcbrgv4br5k",321,"55.csv","","154.70000004768372","resources/trios/L1T4A2.jpg","37","restless",0.5,0.4,0.4,0.203832393317814,"true"
"image-keyboard-response",507,413323,"0.0-3.165-1.165","s58upcbrgv4br5k",321,"55.csv","","null","resources/maskTrios/L1BB.jpg","null","",NA,NA,NA,NA,""
"image-keyboard-response",508,414527,"0.0-3.165-2.165","s58upcbrgv4br5k",321,"55.csv","","null","resources/images/coin2.png","null","",NA,NA,NA,NA,""
"image-keyboard-response",509,414609,"0.0-3.166-0.166","s58upcbrgv4br5k",321,"55.csv","","80.40000009536743","resources/trios/L1T2A1.jpg","37","restless",0.5,0.4,0.4,0.727290598519454,"false"
"image-keyboard-response",510,415014,"0.0-3.166-1.166","s58upcbrgv4br5k",321,"55.csv","","null","resources/maskTrios/L1BB.jpg","null","",NA,NA,NA,NA,""
"image-keyboard-response",511,416215,"0.0-3.166-2.166","s58upcbrgv4br5k",321,"55.csv","","null","resources/images/fishbone.png","null","",NA,NA,NA,NA,""
"image-keyboard-response",512,416335,"0.0-3.167-0.167","s58upcbrgv4br5k",321,"55.csv","","119.20000004768372","resources/trios/L1T2A2.jpg","38","restless",0.5,0.4,0.4,0.759420325404241,"false"
"image-keyboard-response",513,416742,"0.0-3.167-1.167","s58upcbrgv4br5k",321,"55.csv","","null","resources/maskTrios/BT2B.jpg","null","",NA,NA,NA,NA,""
"image-keyboard-response",514,417945,"0.0-3.167-2.167","s58upcbrgv4br5k",321,"55.csv","","null","resources/images/fishbone.png","null","",NA,NA,NA,NA,""
"image-keyboard-response",515,418113,"0.0-3.168-0.168","s58upcbrgv4br5k",321,"55.csv","","166.29999995231628","resources/trios/L1T2A1.jpg","37","restless",0.5,0.4,0.4,0.984323621852083,"false"
"image-keyboard-response",516,418515,"0.0-3.168-1.168","s58upcbrgv4br5k",321,"55.csv","","null","resources/maskTrios/L1BB.jpg","null","",NA,NA,NA,NA,""
"image-keyboard-response",517,419721,"0.0-3.168-2.168","s58upcbrgv4br5k",321,"55.csv","","null","resources/images/fishbone.png","null","",NA,NA,NA,NA,""
"image-keyboard-response",518,419877,"0.0-3.169-0.169","s58upcbrgv4br5k",321,"55.csv","","154.90000009536743","resources/trios/L4T2A2.jpg","39","restless",0.5,0.4,0.4,0.641043516670093,"false"
"image-keyboard-response",519,420279,"0.0-3.169-1.169","s58upcbrgv4br5k",321,"55.csv","","null","resources/maskTrios/BBA2.jpg","null","",NA,NA,NA,NA,""
"image-keyboard-response",520,421480,"0.0-3.169-2.169","s58upcbrgv4br5k",321,"55.csv","","null","resources/images/fishbone.png","null","",NA,NA,NA,NA,""
"image-keyboard-response",521,421552,"0.0-3.170-0.170","s58upcbrgv4br5k",321,"55.csv","","66.79999995231628","resources/trios/L4T4A1.jpg","38","restless",0.5,0.4,0.4,0.911213593168642,"false"
"image-keyboard-response",522,421953,"0.0-3.170-1.170","s58upcbrgv4br5k",321,"55.csv","","null","resources/maskTrios/BT4B.jpg","null","",NA,NA,NA,NA,""
"image-keyboard-response",523,423158,"0.0-3.170-2.170","s58upcbrgv4br5k",321,"55.csv","","null","resources/images/fishbone.png","null","",NA,NA,NA,NA,""
"image-keyboard-response",524,423336,"0.0-3.171-0.171","s58upcbrgv4br5k",321,"55.csv","","177.20000004768372","resources/trios/L1T4A1.jpg","39","restless",0.6,0.4,0.4,0.576598530146207,"false"
"image-keyboard-response",525,423739,"0.0-3.171-1.171","s58upcbrgv4br5k",321,"55.csv","","null","resources/maskTrios/BBA1.jpg","null","",NA,NA,NA,NA,""
"image-keyboard-response",526,424941,"0.0-3.171-2.171","s58upcbrgv4br5k",321,"55.csv","","null","resources/images/fishbone.png","null","",NA,NA,NA,NA,""
"image-keyboard-response",527,424951,"0.0-3.172-0.172","s58upcbrgv4br5k",321,"55.csv","","9.600000143051147","resources/trios/L4T4A2.jpg","37","restless",0.6,0.4,0.4,0.40121497605423,"true"
"image-keyboard-response",528,425356,"0.0-3.172-1.172","s58upcbrgv4br5k",321,"55.csv","","null","resources/maskTrios/L4BB.jpg","null","",NA,NA,NA,NA,""
"image-keyboard-response",529,426562,"0.0-3.172-2.172","s58upcbrgv4br5k",321,"55.csv","","null","resources/images/coin2.png","null","",NA,NA,NA,NA,""
"image-keyboard-response",530,426639,"0.0-3.173-0.173","s58upcbrgv4br5k",321,"55.csv","","75.30000019073486","resources/trios/L4T2A2.jpg","37","restless",0.6,0.4,0.4,0.0122013023044958,"true"
"image-keyboard-response",531,427042,"0.0-3.173-1.173","s58upcbrgv4br5k",321,"55.csv","","null","resources/maskTrios/L4BB.jpg","null","",NA,NA,NA,NA,""
"image-keyboard-response",532,428246,"0.0-3.173-2.173","s58upcbrgv4br5k",321,"55.csv","","null","resources/images/coin2.png","null","",NA,NA,NA,NA,""
"image-keyboard-response",533,428306,"0.0-3.174-0.174","s58upcbrgv4br5k",321,"55.csv","","58","resources/trios/L4T4A1.jpg","37","restless",0.6,0.4,0.4,0.780045654377511,"false"
"image-keyboard-response",534,428710,"0.0-3.174-1.174","s58upcbrgv4br5k",321,"55.csv","","null","resources/maskTrios/L4BB.jpg","null","",NA,NA,NA,NA,""
"image-keyboard-response",535,429914,"0.0-3.174-2.174","s58upcbrgv4br5k",321,"55.csv","","null","resources/images/fishbone.png","null","",NA,NA,NA,NA,""
"image-keyboard-response",536,430049,"0.0-3.175-0.175","s58upcbrgv4br5k",321,"55.csv","","134.30000019073486","resources/trios/L1T2A2.jpg","38","restless",0.6,0.4,0.4,0.843061214709746,"false"
"image-keyboard-response",537,430455,"0.0-3.175-1.175","s58upcbrgv4br5k",321,"55.csv","","null","resources/maskTrios/BT2B.jpg","null","",NA,NA,NA,NA,""
"image-keyboard-response",538,431660,"0.0-3.175-2.175","s58upcbrgv4br5k",321,"55.csv","","null","resources/images/fishbone.png","null","",NA,NA,NA,NA,""
"image-keyboard-response",539,431671,"0.0-3.176-0.176","s58upcbrgv4br5k",321,"55.csv","","9.200000047683716","resources/trios/L1T4A2.jpg","37","restless",0.6,0.4,0.4,0.72152628245976,"false"
"image-keyboard-response",540,432074,"0.0-3.176-1.176","s58upcbrgv4br5k",321,"55.csv","","null","resources/maskTrios/L1BB.jpg","null","",NA,NA,NA,NA,""
"image-keyboard-response",541,433276,"0.0-3.176-2.176","s58upcbrgv4br5k",321,"55.csv","","null","resources/images/fishbone.png","null","",NA,NA,NA,NA,""
"image-keyboard-response",542,433326,"0.0-3.177-0.177","s58upcbrgv4br5k",321,"55.csv","","48.40000009536743","resources/trios/L1T4A1.jpg","39","restless",0.6,0.4,0.4,0.371636809968037,"true"
"image-keyboard-response",543,433729,"0.0-3.177-1.177","s58upcbrgv4br5k",321,"55.csv","","null","resources/maskTrios/BBA1.jpg","null","",NA,NA,NA,NA,""
"image-keyboard-response",544,434931,"0.0-3.177-2.177","s58upcbrgv4br5k",321,"55.csv","","null","resources/images/coin2.png","null","",NA,NA,NA,NA,""
"image-keyboard-response",545,434939,"0.0-3.178-0.178","s58upcbrgv4br5k",321,"55.csv","","7.200000047683716","resources/trios/L4T2A2.jpg","39","restless",0.6,0.3,0.4,0.529307409247893,"false"
"image-keyboard-response",546,435342,"0.0-3.178-1.178","s58upcbrgv4br5k",321,"55.csv","","null","resources/maskTrios/BBA2.jpg","null","",NA,NA,NA,NA,""
"image-keyboard-response",547,436548,"0.0-3.178-2.178","s58upcbrgv4br5k",321,"55.csv","","null","resources/images/fishbone.png","null","",NA,NA,NA,NA,""
"image-keyboard-response",548,436614,"0.0-3.179-0.179","s58upcbrgv4br5k",321,"55.csv","","64.20000004768372","resources/trios/L1T2A1.jpg","38","restless",0.6,0.3,0.3,0.166230978682896,"true"
"image-keyboard-response",549,437020,"0.0-3.179-1.179","s58upcbrgv4br5k",321,"55.csv","","null","resources/maskTrios/BT2B.jpg","null","",NA,NA,NA,NA,""
"image-keyboard-response",550,438222,"0.0-3.179-2.179","s58upcbrgv4br5k",321,"55.csv","","null","resources/images/coin2.png","null","",NA,NA,NA,NA,""
"image-keyboard-response",551,438350,"0.0-3.180-0.180","s58upcbrgv4br5k",321,"55.csv","","127.20000004768372","resources/trios/L4T4A2.jpg","38","restless",0.6,0.3,0.3,0.512202734905819,"false"
"image-keyboard-response",552,438756,"0.0-3.180-1.180","s58upcbrgv4br5k",321,"55.csv","","null","resources/maskTrios/BT4B.jpg","null","",NA,NA,NA,NA,""
"image-keyboard-response",553,439960,"0.0-3.180-2.180","s58upcbrgv4br5k",321,"55.csv","","null","resources/images/fishbone.png","null","",NA,NA,NA,NA,""
"image-keyboard-response",554,440121,"0.0-3.181-0.181","s58upcbrgv4br5k",321,"55.csv","","159.29999995231628","resources/trios/L4T4A2.jpg","37","restless",0.6,0.2,0.3,0.872777889657664,"false"
"image-keyboard-response",555,440526,"0.0-3.181-1.181","s58upcbrgv4br5k",321,"55.csv","","null","resources/maskTrios/L4BB.jpg","null","",NA,NA,NA,NA,""
"image-keyboard-response",556,441731,"0.0-3.181-2.181","s58upcbrgv4br5k",321,"55.csv","","null","resources/images/fishbone.png","null","",NA,NA,NA,NA,""
"image-keyboard-response",557,441918,"0.0-3.182-0.182","s58upcbrgv4br5k",321,"55.csv","","186.20000004768372","resources/trios/L1T4A1.jpg","39","restless",0.6,0.2,0.3,0.396605708648349,"false"
"image-keyboard-response",558,442322,"0.0-3.182-1.182","s58upcbrgv4br5k",321,"55.csv","","null","resources/maskTrios/BBA1.jpg","null","",NA,NA,NA,NA,""
"image-keyboard-response",559,443528,"0.0-3.182-2.182","s58upcbrgv4br5k",321,"55.csv","","null","resources/images/fishbone.png","null","",NA,NA,NA,NA,""
"image-keyboard-response",560,443613,"0.0-3.183-0.183","s58upcbrgv4br5k",321,"55.csv","","83.5","resources/trios/L1T4A1.jpg","38","restless",0.6,0.2,0.4,0.0606820587962373,"true"
"image-keyboard-response",561,444020,"0.0-3.183-1.183","s58upcbrgv4br5k",321,"55.csv","","null","resources/maskTrios/BT4B.jpg","null","",NA,NA,NA,NA,""
"image-keyboard-response",562,445222,"0.0-3.183-2.183","s58upcbrgv4br5k",321,"55.csv","","null","resources/images/coin2.png","null","",NA,NA,NA,NA,""
"image-keyboard-response",563,445345,"0.0-3.184-0.184","s58upcbrgv4br5k",321,"55.csv","","122.70000004768372","resources/trios/L1T4A1.jpg","38","restless",0.6,0.2,0.4,0.0131350072513623,"true"
"image-keyboard-response",564,445749,"0.0-3.184-1.184","s58upcbrgv4br5k",321,"55.csv","","null","resources/maskTrios/BT4B.jpg","null","",NA,NA,NA,NA,""
"image-keyboard-response",565,446951,"0.0-3.184-2.184","s58upcbrgv4br5k",321,"55.csv","","null","resources/images/coin2.png","null","",NA,NA,NA,NA,""
"image-keyboard-response",566,447140,"0.0-3.185-0.185","s58upcbrgv4br5k",321,"55.csv","","187.09999990463257","resources/trios/L1T2A2.jpg","38","restless",0.6,0.1,0.4,0.7341514453307,"false"
"image-keyboard-response",567,447546,"0.0-3.185-1.185","s58upcbrgv4br5k",321,"55.csv","","null","resources/maskTrios/BT2B.jpg","null","",NA,NA,NA,NA,""
"image-keyboard-response",568,448748,"0.0-3.185-2.185","s58upcbrgv4br5k",321,"55.csv","","null","resources/images/fishbone.png","null","",NA,NA,NA,NA,""
"image-keyboard-response",569,448960,"0.0-3.186-0.186","s58upcbrgv4br5k",321,"55.csv","","211.69999980926514","resources/trios/L1T4A2.jpg","37","restless",0.7,0.1,0.4,0.302849494733223,"true"
"image-keyboard-response",570,449365,"0.0-3.186-1.186","s58upcbrgv4br5k",321,"55.csv","","null","resources/maskTrios/L1BB.jpg","null","",NA,NA,NA,NA,""
"image-keyboard-response",571,450566,"0.0-3.186-2.186","s58upcbrgv4br5k",321,"55.csv","","null","resources/images/coin2.png","null","",NA,NA,NA,NA,""
"image-keyboard-response",572,450698,"0.0-3.187-0.187","s58upcbrgv4br5k",321,"55.csv","","130.20000004768372","resources/trios/L4T2A1.jpg","37","restless",0.7,0.1,0.4,0.00131725397801108,"true"
"image-keyboard-response",573,451101,"0.0-3.187-1.187","s58upcbrgv4br5k",321,"55.csv","","null","resources/maskTrios/L4BB.jpg","null","",NA,NA,NA,NA,""
"image-keyboard-response",574,452303,"0.0-3.187-2.187","s58upcbrgv4br5k",321,"55.csv","","null","resources/images/coin2.png","null","",NA,NA,NA,NA,""
"image-keyboard-response",575,452435,"0.0-3.188-0.188","s58upcbrgv4br5k",321,"55.csv","","131.20000004768372","resources/trios/L4T2A1.jpg","37","restless",0.7,0.2,0.4,0.661939503462083,"true"
"image-keyboard-response",576,452842,"0.0-3.188-1.188","s58upcbrgv4br5k",321,"55.csv","","null","resources/maskTrios/L4BB.jpg","null","",NA,NA,NA,NA,""
"image-keyboard-response",577,454046,"0.0-3.188-2.188","s58upcbrgv4br5k",321,"55.csv","","null","resources/images/coin2.png","null","",NA,NA,NA,NA,""
"image-keyboard-response",578,454205,"0.0-3.189-0.189","s58upcbrgv4br5k",321,"55.csv","","157.70000004768372","resources/trios/L1T2A2.jpg","37","restless",0.7,0.2,0.4,0.306951512566503,"true"
"image-keyboard-response",579,454610,"0.0-3.189-1.189","s58upcbrgv4br5k",321,"55.csv","","null","resources/maskTrios/L1BB.jpg","null","",NA,NA,NA,NA,""
"image-keyboard-response",580,455812,"0.0-3.189-2.189","s58upcbrgv4br5k",321,"55.csv","","null","resources/images/coin2.png","null","",NA,NA,NA,NA,""
"image-keyboard-response",581,456077,"0.0-3.190-0.190","s58upcbrgv4br5k",321,"55.csv","","263","resources/trios/L4T4A1.jpg","37","restless",0.7,0.3,0.4,0.617773799063741,"true"
"image-keyboard-response",582,456479,"0.0-3.190-1.190","s58upcbrgv4br5k",321,"55.csv","","null","resources/maskTrios/L4BB.jpg","null","",NA,NA,NA,NA,""
"image-keyboard-response",583,457683,"0.0-3.190-2.190","s58upcbrgv4br5k",321,"55.csv","","null","resources/images/coin2.png","null","",NA,NA,NA,NA,""
"image-keyboard-response",584,457714,"0.0-3.191-0.191","s58upcbrgv4br5k",321,"55.csv","","29.40000009536743","resources/trios/L4T4A2.jpg","37","restless",0.6,0.3,0.4,0.0878850551665231,"true"
"image-keyboard-response",585,458116,"0.0-3.191-1.191","s58upcbrgv4br5k",321,"55.csv","","null","resources/maskTrios/L4BB.jpg","null","",NA,NA,NA,NA,""
"image-keyboard-response",586,459323,"0.0-3.191-2.191","s58upcbrgv4br5k",321,"55.csv","","null","resources/images/coin2.png","null","",NA,NA,NA,NA,""
"image-keyboard-response",587,459483,"0.0-3.192-0.192","s58upcbrgv4br5k",321,"55.csv","","158.30000019073486","resources/trios/L4T4A2.jpg","37","restless",0.5,0.3,0.4,0.806086433586373,"false"
"image-keyboard-response",588,459886,"0.0-3.192-1.192","s58upcbrgv4br5k",321,"55.csv","","null","resources/maskTrios/L4BB.jpg","null","",NA,NA,NA,NA,""
"image-keyboard-response",589,461088,"0.0-3.192-2.192","s58upcbrgv4br5k",321,"55.csv","","null","resources/images/fishbone.png","null","",NA,NA,NA,NA,""
"image-keyboard-response",590,461232,"0.0-3.193-0.193","s58upcbrgv4br5k",321,"55.csv","","142.5","resources/trios/L4T4A2.jpg","38","restless",0.5,0.3,0.4,0.695023503714769,"false"
"image-keyboard-response",591,461634,"0.0-3.193-1.193","s58upcbrgv4br5k",321,"55.csv","","null","resources/maskTrios/BT4B.jpg","null","",NA,NA,NA,NA,""
"image-keyboard-response",592,462840,"0.0-3.193-2.193","s58upcbrgv4br5k",321,"55.csv","","null","resources/images/fishbone.png","null","",NA,NA,NA,NA,""
"image-keyboard-response",593,462928,"0.0-3.194-0.194","s58upcbrgv4br5k",321,"55.csv","","86.29999995231628","resources/trios/L1T2A1.jpg","39","restless",0.4,0.3,0.4,0.476992843118086,"false"
"image-keyboard-response",594,463330,"0.0-3.194-1.194","s58upcbrgv4br5k",321,"55.csv","","null","resources/maskTrios/BBA1.jpg","null","",NA,NA,NA,NA,""
"image-keyboard-response",595,464536,"0.0-3.194-2.194","s58upcbrgv4br5k",321,"55.csv","","null","resources/images/fishbone.png","null","",NA,NA,NA,NA,""
"image-keyboard-response",596,464595,"0.0-3.195-0.195","s58upcbrgv4br5k",321,"55.csv","","58","resources/trios/L1T2A2.jpg","37","restless",0.4,0.3,0.4,0.0540810102490492,"true"
"image-keyboard-response",597,465000,"0.0-3.195-1.195","s58upcbrgv4br5k",321,"55.csv","","null","resources/maskTrios/L1BB.jpg","null","",NA,NA,NA,NA,""
"image-keyboard-response",598,466202,"0.0-3.195-2.195","s58upcbrgv4br5k",321,"55.csv","","null","resources/images/coin2.png","null","",NA,NA,NA,NA,""
"image-keyboard-response",599,466393,"0.0-3.196-0.196","s58upcbrgv4br5k",321,"55.csv","","190.40000009536743","resources/trios/L1T4A1.jpg","37","restless",0.4,0.3,0.4,0.0926077818029507,"true"
"image-keyboard-response",600,466799,"0.0-3.196-1.196","s58upcbrgv4br5k",321,"55.csv","","null","resources/maskTrios/L1BB.jpg","null","",NA,NA,NA,NA,""
"image-keyboard-response",601,468001,"0.0-3.196-2.196","s58upcbrgv4br5k",321,"55.csv","","null","resources/images/coin2.png","null","",NA,NA,NA,NA,""
"image-keyboard-response",602,468082,"0.0-3.197-0.197","s58upcbrgv4br5k",321,"55.csv","","78.59999990463257","resources/trios/L4T2A1.jpg","37","restless",0.4,0.3,0.5,0.0859845572179585,"true"
"image-keyboard-response",603,468484,"0.0-3.197-1.197","s58upcbrgv4br5k",321,"55.csv","","null","resources/maskTrios/L4BB.jpg","null","",NA,NA,NA,NA,""
"image-keyboard-response",604,469686,"0.0-3.197-2.197","s58upcbrgv4br5k",321,"55.csv","","null","resources/images/coin2.png","null","",NA,NA,NA,NA,""
"image-keyboard-response",605,469809,"0.0-3.198-0.198","s58upcbrgv4br5k",321,"55.csv","","122.5","resources/trios/L1T2A2.jpg","37","restless",0.4,0.3,0.5,0.15033319508257,"true"
"image-keyboard-response",606,470213,"0.0-3.198-1.198","s58upcbrgv4br5k",321,"55.csv","","null","resources/maskTrios/L1BB.jpg","null","",NA,NA,NA,NA,""
"image-keyboard-response",607,471418,"0.0-3.198-2.198","s58upcbrgv4br5k",321,"55.csv","","null","resources/images/coin2.png","null","",NA,NA,NA,NA,""
"image-keyboard-response",608,471556,"0.0-3.199-0.199","s58upcbrgv4br5k",321,"55.csv","","136.5","resources/trios/L4T2A2.jpg","37","restless",0.4,0.3,0.6,0.723389275729984,"false"
