"trial_type","trial_index","time_elapsed","internal_node_id","subject","walkNumber","success","rt","stimulus","key_press","test_part","leftProb","midProb","rightProb","generatedNum","correct"
"pavlovia",0,1924,"0.0-0.0","1j7u245pzpotkv4","121.csv","","","","","",NA,NA,NA,NA,""
"fullscreen",1,6936,"0.0-1.0","1j7u245pzpotkv4","121.csv","true","","","","",NA,NA,NA,NA,""
"html-keyboard-response",2,16540,"0.0-2.0-0.0","1j7u245pzpotkv4","121.csv","","9602.899999976158","<p><font size='6'>Arrrgh!</p></font><p>Can you be the best pirate? Try to find lots of gold! But beware, some islands have more gold than others, and over time, the island with the most gold may change. Can YOU figure it out? </p><font size='6'>GOOD LUCK, CAPTAIN!!!</font><p>Press any key to begin</p>","32","",NA,NA,NA,NA,""
"image-keyboard-response",3,19544,"0.0-2.0-1.0","1j7u245pzpotkv4","121.csv","","null","resources/image_sets/111.png","null","",NA,NA,NA,NA,""
"image-keyboard-response",4,34598,"0.0-2.0-2.0","1j7u245pzpotkv4","121.csv","","15053.600000023842","resources/image_sets/left_highlight.png","37","",NA,NA,NA,NA,""
"image-keyboard-response",5,38047,"0.0-2.0-3.0","1j7u245pzpotkv4","121.csv","","3448.199999988079","resources/image_sets/mid_highlight.png","38","",NA,NA,NA,NA,""
"image-keyboard-response",6,39991,"0.0-2.0-4.0","1j7u245pzpotkv4","121.csv","","1943.5","resources/image_sets/right_highlight.png","39","",NA,NA,NA,NA,""
"image-keyboard-response",7,45905,"0.0-2.0-5.0","1j7u245pzpotkv4","121.csv","","5913.5","resources/image_sets/111.png","13","",NA,NA,NA,NA,""
"image-keyboard-response",8,48550,"0.0-2.0-6.0","1j7u245pzpotkv4","121.csv","","2644.4000000059605","resources/images/coin2.png","13","",NA,NA,NA,NA,""
"image-keyboard-response",9,50302,"0.0-2.0-7.0","1j7u245pzpotkv4","121.csv","","1751.699999988079","resources/images/fishbone.png","13","",NA,NA,NA,NA,""
"html-keyboard-response",10,60578,"0.0-2.0-8.0","1j7u245pzpotkv4","121.csv","","10275.700000017881","<p>Your first journey will be a long one, but you will get a well deserved break at the end</p><p>After the break you will have four more journeys, but each will be much shorter than the first, and you will have breaks in between each</p><p>Press Enter to begin</p>","13","",NA,NA,NA,NA,""
"image-keyboard-response",11,62986,"0.0-3.0-0.0","1j7u245pzpotkv4","121.csv","","2407.199999988079","resources/trios/L2T2A3.jpg","38","restless",0.3,0.9,0.7,0.340894615130256,"true"
"image-keyboard-response",12,63389,"0.0-3.0-1.0","1j7u245pzpotkv4","121.csv","","null","resources/maskTrios/BT2B.jpg","null","",NA,NA,NA,NA,""
"image-keyboard-response",13,64593,"0.0-3.0-2.0","1j7u245pzpotkv4","121.csv","","null","resources/images/coin2.png","null","",NA,NA,NA,NA,""
"image-keyboard-response",14,68022,"0.0-3.1-0.1","1j7u245pzpotkv4","121.csv","","3428.199999988079","resources/trios/L1T1A3.jpg","38","restless",0.3,0.9,0.7,0.398255637410466,"true"
"image-keyboard-response",15,68436,"0.0-3.1-1.1","1j7u245pzpotkv4","121.csv","","null","resources/maskTrios/BT1B.jpg","null","",NA,NA,NA,NA,""
"image-keyboard-response",16,69640,"0.0-3.1-2.1","1j7u245pzpotkv4","121.csv","","null","resources/images/coin2.png","null","",NA,NA,NA,NA,""
"image-keyboard-response",17,72970,"0.0-3.2-0.2","1j7u245pzpotkv4","121.csv","","3329.9000000059605","resources/trios/L2T2A3.jpg","38","restless",0.2,0.9,0.7,0.463764610896481,"true"
"image-keyboard-response",18,73381,"0.0-3.2-1.2","1j7u245pzpotkv4","121.csv","","null","resources/maskTrios/BT2B.jpg","null","",NA,NA,NA,NA,""
"image-keyboard-response",19,74593,"0.0-3.2-2.2","1j7u245pzpotkv4","121.csv","","null","resources/images/coin2.png","null","",NA,NA,NA,NA,""
"image-keyboard-response",20,76639,"0.0-3.3-0.3","1j7u245pzpotkv4","121.csv","","2045.0999999940395","resources/trios/L2T1A1.jpg","38","restless",0.2,0.9,0.7,0.205427248738679,"true"
"image-keyboard-response",21,77044,"0.0-3.3-1.3","1j7u245pzpotkv4","121.csv","","null","resources/maskTrios/BT1B.jpg","null","",NA,NA,NA,NA,""
"image-keyboard-response",22,78247,"0.0-3.3-2.3","1j7u245pzpotkv4","121.csv","","null","resources/images/coin2.png","null","",NA,NA,NA,NA,""
"image-keyboard-response",23,78996,"0.0-3.4-0.4","1j7u245pzpotkv4","121.csv","","749","resources/trios/L1T2A3.jpg","38","restless",0.2,0.8,0.7,0.610397422597646,"true"
"image-keyboard-response",24,79404,"0.0-3.4-1.4","1j7u245pzpotkv4","121.csv","","null","resources/maskTrios/BT2B.jpg","null","",NA,NA,NA,NA,""
"image-keyboard-response",25,80620,"0.0-3.4-2.4","1j7u245pzpotkv4","121.csv","","null","resources/images/coin2.png","null","",NA,NA,NA,NA,""
"image-keyboard-response",26,81752,"0.0-3.5-0.5","1j7u245pzpotkv4","121.csv","","1131.0999999940395","resources/trios/L1T2A1.jpg","38","restless",0.2,0.8,0.6,0.978906907225749,"false"
"image-keyboard-response",27,82162,"0.0-3.5-1.5","1j7u245pzpotkv4","121.csv","","null","resources/maskTrios/BT2B.jpg","null","",NA,NA,NA,NA,""
"image-keyboard-response",28,83364,"0.0-3.5-2.5","1j7u245pzpotkv4","121.csv","","null","resources/images/fishbone.png","null","",NA,NA,NA,NA,""
"image-keyboard-response",29,85405,"0.0-3.6-0.6","1j7u245pzpotkv4","121.csv","","2040","resources/trios/L2T1A1.jpg","38","restless",0.2,0.8,0.6,0.229367282999555,"true"
"image-keyboard-response",30,85812,"0.0-3.6-1.6","1j7u245pzpotkv4","121.csv","","null","resources/maskTrios/BT1B.jpg","null","",NA,NA,NA,NA,""
"image-keyboard-response",31,87013,"0.0-3.6-2.6","1j7u245pzpotkv4","121.csv","","null","resources/images/coin2.png","null","",NA,NA,NA,NA,""
"image-keyboard-response",32,89961,"0.0-3.7-0.7","1j7u245pzpotkv4","121.csv","","2946.7000000178814","resources/trios/L1T2A3.jpg","38","restless",0.2,0.8,0.6,0.60251887381437,"true"
"image-keyboard-response",33,90376,"0.0-3.7-1.7","1j7u245pzpotkv4","121.csv","","null","resources/maskTrios/BT2B.jpg","null","",NA,NA,NA,NA,""
"image-keyboard-response",34,91578,"0.0-3.7-2.7","1j7u245pzpotkv4","121.csv","","null","resources/images/coin2.png","null","",NA,NA,NA,NA,""
"image-keyboard-response",35,92846,"0.0-3.8-0.8","1j7u245pzpotkv4","121.csv","","1267.2999999821186","resources/trios/L1T2A3.jpg","38","restless",0.2,0.8,0.6,0.0819622878728226,"true"
"image-keyboard-response",36,93256,"0.0-3.8-1.8","1j7u245pzpotkv4","121.csv","","null","resources/maskTrios/BT2B.jpg","null","",NA,NA,NA,NA,""
"image-keyboard-response",37,94473,"0.0-3.8-2.8","1j7u245pzpotkv4","121.csv","","null","resources/images/coin2.png","null","",NA,NA,NA,NA,""
"image-keyboard-response",38,96554,"0.0-3.9-0.9","1j7u245pzpotkv4","121.csv","","2080.600000023842","resources/trios/L2T1A1.jpg","38","restless",0.2,0.8,0.6,0.423825684157286,"true"
"image-keyboard-response",39,96970,"0.0-3.9-1.9","1j7u245pzpotkv4","121.csv","","null","resources/maskTrios/BT1B.jpg","null","",NA,NA,NA,NA,""
"image-keyboard-response",40,98177,"0.0-3.9-2.9","1j7u245pzpotkv4","121.csv","","null","resources/images/coin2.png","null","",NA,NA,NA,NA,""
"image-keyboard-response",41,100399,"0.0-3.10-0.10","1j7u245pzpotkv4","121.csv","","2221.4000000059605","resources/trios/L1T2A3.jpg","38","restless",0.2,0.8,0.6,0.824929196254609,"false"
"image-keyboard-response",42,100813,"0.0-3.10-1.10","1j7u245pzpotkv4","121.csv","","null","resources/maskTrios/BT2B.jpg","null","",NA,NA,NA,NA,""
"image-keyboard-response",43,102027,"0.0-3.10-2.10","1j7u245pzpotkv4","121.csv","","null","resources/images/fishbone.png","null","",NA,NA,NA,NA,""
"image-keyboard-response",44,103311,"0.0-3.11-0.11","1j7u245pzpotkv4","121.csv","","1283.5999999940395","resources/trios/L1T1A3.jpg","38","restless",0.1,0.8,0.6,0.728093760039292,"true"
"image-keyboard-response",45,103720,"0.0-3.11-1.11","1j7u245pzpotkv4","121.csv","","null","resources/maskTrios/BT1B.jpg","null","",NA,NA,NA,NA,""
"image-keyboard-response",46,104922,"0.0-3.11-2.11","1j7u245pzpotkv4","121.csv","","null","resources/images/coin2.png","null","",NA,NA,NA,NA,""
"image-keyboard-response",47,105792,"0.0-3.12-0.12","1j7u245pzpotkv4","121.csv","","868.8000000119209","resources/trios/L1T2A1.jpg","38","restless",0.1,0.8,0.6,0.441471812681754,"true"
"image-keyboard-response",48,106202,"0.0-3.12-1.12","1j7u245pzpotkv4","121.csv","","null","resources/maskTrios/BT2B.jpg","null","",NA,NA,NA,NA,""
"image-keyboard-response",49,107404,"0.0-3.12-2.12","1j7u245pzpotkv4","121.csv","","null","resources/images/coin2.png","null","",NA,NA,NA,NA,""
"image-keyboard-response",50,108608,"0.0-3.13-0.13","1j7u245pzpotkv4","121.csv","","1203.4000000059605","resources/trios/L2T1A1.jpg","38","restless",0.1,0.8,0.6,0.23532386926433,"true"
"image-keyboard-response",51,109023,"0.0-3.13-1.13","1j7u245pzpotkv4","121.csv","","null","resources/maskTrios/BT1B.jpg","null","",NA,NA,NA,NA,""
"image-keyboard-response",52,110225,"0.0-3.13-2.13","1j7u245pzpotkv4","121.csv","","null","resources/images/coin2.png","null","",NA,NA,NA,NA,""
"image-keyboard-response",53,113977,"0.0-3.14-0.14","1j7u245pzpotkv4","121.csv","","3750.7000000178814","resources/trios/L1T1A3.jpg","38","restless",0.1,0.7,0.6,0.13034323479288,"true"
"image-keyboard-response",54,114379,"0.0-3.14-1.14","1j7u245pzpotkv4","121.csv","","null","resources/maskTrios/BT1B.jpg","null","",NA,NA,NA,NA,""
"image-keyboard-response",55,115581,"0.0-3.14-2.14","1j7u245pzpotkv4","121.csv","","null","resources/images/coin2.png","null","",NA,NA,NA,NA,""
"image-keyboard-response",56,117229,"0.0-3.15-0.15","1j7u245pzpotkv4","121.csv","","1647.4000000059605","resources/trios/L2T1A1.jpg","38","restless",0.1,0.7,0.6,0.911655333239105,"false"
"image-keyboard-response",57,117643,"0.0-3.15-1.15","1j7u245pzpotkv4","121.csv","","null","resources/maskTrios/BT1B.jpg","null","",NA,NA,NA,NA,""
"image-keyboard-response",58,118859,"0.0-3.15-2.15","1j7u245pzpotkv4","121.csv","","null","resources/images/fishbone.png","null","",NA,NA,NA,NA,""
"image-keyboard-response",59,123214,"0.0-3.16-0.16","1j7u245pzpotkv4","121.csv","","4354.700000017881","resources/trios/L2T2A1.jpg","38","restless",0.1,0.7,0.6,0.647561300573387,"true"
"image-keyboard-response",60,123617,"0.0-3.16-1.16","1j7u245pzpotkv4","121.csv","","null","resources/maskTrios/BT2B.jpg","null","",NA,NA,NA,NA,""
"image-keyboard-response",61,124820,"0.0-3.16-2.16","1j7u245pzpotkv4","121.csv","","null","resources/images/coin2.png","null","",NA,NA,NA,NA,""
"image-keyboard-response",62,125398,"0.0-3.17-0.17","1j7u245pzpotkv4","121.csv","","577.2000000178814","resources/trios/L2T1A1.jpg","39","restless",0.1,0.7,0.6,0.31567765348131,"true"
"image-keyboard-response",63,125808,"0.0-3.17-1.17","1j7u245pzpotkv4","121.csv","","null","resources/maskTrios/BBA1.jpg","null","",NA,NA,NA,NA,""
"image-keyboard-response",64,127009,"0.0-3.17-2.17","1j7u245pzpotkv4","121.csv","","null","resources/images/coin2.png","null","",NA,NA,NA,NA,""
"image-keyboard-response",65,130739,"0.0-3.18-0.18","1j7u245pzpotkv4","121.csv","","3729.5","resources/trios/L1T2A1.jpg","38","restless",0.1,0.7,0.6,0.363443399252913,"true"
"image-keyboard-response",66,131155,"0.0-3.18-1.18","1j7u245pzpotkv4","121.csv","","null","resources/maskTrios/BT2B.jpg","null","",NA,NA,NA,NA,""
"image-keyboard-response",67,132359,"0.0-3.18-2.18","1j7u245pzpotkv4","121.csv","","null","resources/images/coin2.png","null","",NA,NA,NA,NA,""
"image-keyboard-response",68,133388,"0.0-3.19-0.19","1j7u245pzpotkv4","121.csv","","1028.199999988079","resources/trios/L1T2A3.jpg","38","restless",0.1,0.6,0.6,0.708577141615363,"false"
"image-keyboard-response",69,133789,"0.0-3.19-1.19","1j7u245pzpotkv4","121.csv","","null","resources/maskTrios/BT2B.jpg","null","",NA,NA,NA,NA,""
"image-keyboard-response",70,134994,"0.0-3.19-2.19","1j7u245pzpotkv4","121.csv","","null","resources/images/fishbone.png","null","",NA,NA,NA,NA,""
"image-keyboard-response",71,135793,"0.0-3.20-0.20","1j7u245pzpotkv4","121.csv","","799","resources/trios/L2T1A3.jpg","38","restless",0.1,0.6,0.6,0.394316979744797,"true"
"image-keyboard-response",72,136198,"0.0-3.20-1.20","1j7u245pzpotkv4","121.csv","","null","resources/maskTrios/BT1B.jpg","null","",NA,NA,NA,NA,""
"image-keyboard-response",73,137402,"0.0-3.20-2.20","1j7u245pzpotkv4","121.csv","","null","resources/images/coin2.png","null","",NA,NA,NA,NA,""
"image-keyboard-response",74,138218,"0.0-3.21-0.21","1j7u245pzpotkv4","121.csv","","815.5999999940395","resources/trios/L2T2A1.jpg","38","restless",0.1,0.6,0.6,0.987816597055423,"false"
"image-keyboard-response",75,138633,"0.0-3.21-1.21","1j7u245pzpotkv4","121.csv","","null","resources/maskTrios/BT2B.jpg","null","",NA,NA,NA,NA,""
"image-keyboard-response",76,139848,"0.0-3.21-2.21","1j7u245pzpotkv4","121.csv","","null","resources/images/fishbone.png","null","",NA,NA,NA,NA,""
"image-keyboard-response",77,141387,"0.0-3.22-0.22","1j7u245pzpotkv4","121.csv","","1538","resources/trios/L2T1A1.jpg","39","restless",0.1,0.5,0.7,0.884123559256358,"false"
"image-keyboard-response",78,141792,"0.0-3.22-1.22","1j7u245pzpotkv4","121.csv","","null","resources/maskTrios/BBA1.jpg","null","",NA,NA,NA,NA,""
"image-keyboard-response",79,142995,"0.0-3.22-2.22","1j7u245pzpotkv4","121.csv","","null","resources/images/fishbone.png","null","",NA,NA,NA,NA,""
"image-keyboard-response",80,144260,"0.0-3.23-0.23","1j7u245pzpotkv4","121.csv","","1264.9000000059605","resources/trios/L1T1A1.jpg","38","restless",0.1,0.5,0.7,0.835893317581267,"false"
"image-keyboard-response",81,144673,"0.0-3.23-1.23","1j7u245pzpotkv4","121.csv","","null","resources/maskTrios/BT1B.jpg","null","",NA,NA,NA,NA,""
"image-keyboard-response",82,145887,"0.0-3.23-2.23","1j7u245pzpotkv4","121.csv","","null","resources/images/fishbone.png","null","",NA,NA,NA,NA,""
"image-keyboard-response",83,146545,"0.0-3.24-0.24","1j7u245pzpotkv4","121.csv","","657.4000000059605","resources/trios/L2T2A3.jpg","37","restless",0.1,0.5,0.7,0.905032352741837,"false"
"image-keyboard-response",84,146948,"0.0-3.24-1.24","1j7u245pzpotkv4","121.csv","","null","resources/maskTrios/L2BB.jpg","null","",NA,NA,NA,NA,""
"image-keyboard-response",85,148154,"0.0-3.24-2.24","1j7u245pzpotkv4","121.csv","","null","resources/images/fishbone.png","null","",NA,NA,NA,NA,""
"image-keyboard-response",86,150014,"0.0-3.25-0.25","1j7u245pzpotkv4","121.csv","","1859.9000000059605","resources/trios/L1T2A1.jpg","39","restless",0.1,0.5,0.7,0.315469210412955,"true"
"image-keyboard-response",87,150417,"0.0-3.25-1.25","1j7u245pzpotkv4","121.csv","","null","resources/maskTrios/BBA1.jpg","null","",NA,NA,NA,NA,""
"image-keyboard-response",88,151632,"0.0-3.25-2.25","1j7u245pzpotkv4","121.csv","","null","resources/images/coin2.png","null","",NA,NA,NA,NA,""
"image-keyboard-response",89,153074,"0.0-3.26-0.26","1j7u245pzpotkv4","121.csv","","1441.199999988079","resources/trios/L1T2A3.jpg","38","restless",0.1,0.4,0.7,0.437490242845279,"false"
"image-keyboard-response",90,153482,"0.0-3.26-1.26","1j7u245pzpotkv4","121.csv","","null","resources/maskTrios/BT2B.jpg","null","",NA,NA,NA,NA,""
"image-keyboard-response",91,154699,"0.0-3.26-2.26","1j7u245pzpotkv4","121.csv","","null","resources/images/fishbone.png","null","",NA,NA,NA,NA,""
"image-keyboard-response",92,155747,"0.0-3.27-0.27","1j7u245pzpotkv4","121.csv","","1047.699999988079","resources/trios/L1T1A1.jpg","37","restless",0.1,0.4,0.6,0.835964061956918,"false"
"image-keyboard-response",93,156149,"0.0-3.27-1.27","1j7u245pzpotkv4","121.csv","","null","resources/maskTrios/L1BB.jpg","null","",NA,NA,NA,NA,""
"image-keyboard-response",94,157350,"0.0-3.27-2.27","1j7u245pzpotkv4","121.csv","","null","resources/images/fishbone.png","null","",NA,NA,NA,NA,""
"image-keyboard-response",95,158064,"0.0-3.28-0.28","1j7u245pzpotkv4","121.csv","","712.9000000059605","resources/trios/L2T2A1.jpg","39","restless",0.1,0.4,0.6,0.825646006575754,"false"
"image-keyboard-response",96,158472,"0.0-3.28-1.28","1j7u245pzpotkv4","121.csv","","null","resources/maskTrios/BBA1.jpg","null","",NA,NA,NA,NA,""
"image-keyboard-response",97,159679,"0.0-3.28-2.28","1j7u245pzpotkv4","121.csv","","null","resources/images/fishbone.png","null","",NA,NA,NA,NA,""
"image-keyboard-response",98,159940,"0.0-3.29-0.29","1j7u245pzpotkv4","121.csv","","259.90000000596046","resources/trios/L2T1A1.jpg","38","restless",0.2,0.4,0.6,0.858215926290742,"false"
"image-keyboard-response",99,160343,"0.0-3.29-1.29","1j7u245pzpotkv4","121.csv","","null","resources/maskTrios/BT1B.jpg","null","",NA,NA,NA,NA,""
"image-keyboard-response",100,161545,"0.0-3.29-2.29","1j7u245pzpotkv4","121.csv","","null","resources/images/fishbone.png","null","",NA,NA,NA,NA,""
"image-keyboard-response",101,161772,"0.0-3.30-0.30","1j7u245pzpotkv4","121.csv","","226","resources/trios/L2T2A1.jpg","37","restless",0.2,0.4,0.6,0.8121096783618,"false"
"image-keyboard-response",102,162176,"0.0-3.30-1.30","1j7u245pzpotkv4","121.csv","","null","resources/maskTrios/L2BB.jpg","null","",NA,NA,NA,NA,""
"image-keyboard-response",103,163391,"0.0-3.30-2.30","1j7u245pzpotkv4","121.csv","","null","resources/images/fishbone.png","null","",NA,NA,NA,NA,""
"image-keyboard-response",104,163853,"0.0-3.31-0.31","1j7u245pzpotkv4","121.csv","","460.7000000178814","resources/trios/L1T1A3.jpg","39","restless",0.2,0.4,0.6,0.978573975991959,"false"
"image-keyboard-response",105,164267,"0.0-3.31-1.31","1j7u245pzpotkv4","121.csv","","null","resources/maskTrios/BBA3.jpg","null","",NA,NA,NA,NA,""
"image-keyboard-response",106,165483,"0.0-3.31-2.31","1j7u245pzpotkv4","121.csv","","null","resources/images/fishbone.png","null","",NA,NA,NA,NA,""
"image-keyboard-response",107,165985,"0.0-3.32-0.32","1j7u245pzpotkv4","121.csv","","501.2999999821186","resources/trios/L1T1A3.jpg","37","restless",0.2,0.4,0.6,0.295612443761681,"false"
"image-keyboard-response",108,166390,"0.0-3.32-1.32","1j7u245pzpotkv4","121.csv","","null","resources/maskTrios/L1BB.jpg","null","",NA,NA,NA,NA,""
"image-keyboard-response",109,167606,"0.0-3.32-2.32","1j7u245pzpotkv4","121.csv","","null","resources/images/fishbone.png","null","",NA,NA,NA,NA,""
"image-keyboard-response",110,167894,"0.0-3.33-0.33","1j7u245pzpotkv4","121.csv","","287.5","resources/trios/L1T1A3.jpg","38","restless",0.2,0.4,0.6,0.858873348900879,"false"
"image-keyboard-response",111,168298,"0.0-3.33-1.33","1j7u245pzpotkv4","121.csv","","null","resources/maskTrios/BT1B.jpg","null","",NA,NA,NA,NA,""
"image-keyboard-response",112,169515,"0.0-3.33-2.33","1j7u245pzpotkv4","121.csv","","null","resources/images/fishbone.png","null","",NA,NA,NA,NA,""
"image-keyboard-response",113,169738,"0.0-3.34-0.34","1j7u245pzpotkv4","121.csv","","222.90000000596046","resources/trios/L2T2A1.jpg","39","restless",0.1,0.4,0.6,0.756786426176033,"false"
"image-keyboard-response",114,170147,"0.0-3.34-1.34","1j7u245pzpotkv4","121.csv","","null","resources/maskTrios/BBA1.jpg","null","",NA,NA,NA,NA,""
"image-keyboard-response",115,171352,"0.0-3.34-2.34","1j7u245pzpotkv4","121.csv","","null","resources/images/fishbone.png","null","",NA,NA,NA,NA,""
"image-keyboard-response",116,171603,"0.0-3.35-0.35","1j7u245pzpotkv4","121.csv","","250.59999999403954","resources/trios/L1T2A1.jpg","37","restless",0.1,0.4,0.6,0.203648312069151,"false"
"image-keyboard-response",117,172011,"0.0-3.35-1.35","1j7u245pzpotkv4","121.csv","","null","resources/maskTrios/L1BB.jpg","null","",NA,NA,NA,NA,""
"image-keyboard-response",118,173212,"0.0-3.35-2.35","1j7u245pzpotkv4","121.csv","","null","resources/images/fishbone.png","null","",NA,NA,NA,NA,""
"image-keyboard-response",119,173407,"0.0-3.36-0.36","1j7u245pzpotkv4","121.csv","","194.69999998807907","resources/trios/L1T1A1.jpg","38","restless",0.1,0.4,0.6,0.249663994070944,"true"
"image-keyboard-response",120,173812,"0.0-3.36-1.36","1j7u245pzpotkv4","121.csv","","null","resources/maskTrios/BT1B.jpg","null","",NA,NA,NA,NA,""
"image-keyboard-response",121,175015,"0.0-3.36-2.36","1j7u245pzpotkv4","121.csv","","null","resources/images/coin2.png","null","",NA,NA,NA,NA,""
"image-keyboard-response",122,175451,"0.0-3.37-0.37","1j7u245pzpotkv4","121.csv","","435.5","resources/trios/L1T2A1.jpg","38","restless",0.1,0.4,0.6,0.858596423954126,"false"
"image-keyboard-response",123,175863,"0.0-3.37-1.37","1j7u245pzpotkv4","121.csv","","null","resources/maskTrios/BT2B.jpg","null","",NA,NA,NA,NA,""
"image-keyboard-response",124,177064,"0.0-3.37-2.37","1j7u245pzpotkv4","121.csv","","null","resources/images/fishbone.png","null","",NA,NA,NA,NA,""
"image-keyboard-response",125,177484,"0.0-3.38-0.38","1j7u245pzpotkv4","121.csv","","420","resources/trios/L2T1A1.jpg","37","restless",0.1,0.4,0.6,0.120954778937319,"false"
"image-keyboard-response",126,177894,"0.0-3.38-1.38","1j7u245pzpotkv4","121.csv","","null","resources/maskTrios/L2BB.jpg","null","",NA,NA,NA,NA,""
"image-keyboard-response",127,179110,"0.0-3.38-2.38","1j7u245pzpotkv4","121.csv","","null","resources/images/fishbone.png","null","",NA,NA,NA,NA,""
"image-keyboard-response",128,179332,"0.0-3.39-0.39","1j7u245pzpotkv4","121.csv","","221.10000002384186","resources/trios/L1T1A3.jpg","39","restless",0.1,0.4,0.6,0.0397301159568122,"true"
"image-keyboard-response",129,179745,"0.0-3.39-1.39","1j7u245pzpotkv4","121.csv","","null","resources/maskTrios/BBA3.jpg","null","",NA,NA,NA,NA,""
"image-keyboard-response",130,180948,"0.0-3.39-2.39","1j7u245pzpotkv4","121.csv","","null","resources/images/coin2.png","null","",NA,NA,NA,NA,""
"image-keyboard-response",131,181509,"0.0-3.40-0.40","1j7u245pzpotkv4","121.csv","","560.7000000178814","resources/trios/L1T1A3.jpg","39","restless",0.1,0.4,0.7,0.640826220252264,"true"
"image-keyboard-response",132,181919,"0.0-3.40-1.40","1j7u245pzpotkv4","121.csv","","null","resources/maskTrios/BBA3.jpg","null","",NA,NA,NA,NA,""
"image-keyboard-response",133,183123,"0.0-3.40-2.40","1j7u245pzpotkv4","121.csv","","null","resources/images/coin2.png","null","",NA,NA,NA,NA,""
"image-keyboard-response",134,183490,"0.0-3.41-0.41","1j7u245pzpotkv4","121.csv","","366.40000000596046","resources/trios/L1T2A3.jpg","39","restless",0.1,0.4,0.7,0.0474698124362167,"true"
"image-keyboard-response",135,183893,"0.0-3.41-1.41","1j7u245pzpotkv4","121.csv","","null","resources/maskTrios/BBA3.jpg","null","",NA,NA,NA,NA,""
"image-keyboard-response",136,185096,"0.0-3.41-2.41","1j7u245pzpotkv4","121.csv","","null","resources/images/coin2.png","null","",NA,NA,NA,NA,""
"image-keyboard-response",137,185426,"0.0-3.42-0.42","1j7u245pzpotkv4","121.csv","","329.2000000178814","resources/trios/L1T1A3.jpg","39","restless",0.1,0.4,0.7,0.533991436072345,"true"
"image-keyboard-response",138,185835,"0.0-3.42-1.42","1j7u245pzpotkv4","121.csv","","null","resources/maskTrios/BBA3.jpg","null","",NA,NA,NA,NA,""
"image-keyboard-response",139,187037,"0.0-3.42-2.42","1j7u245pzpotkv4","121.csv","","null","resources/images/coin2.png","null","",NA,NA,NA,NA,""
"image-keyboard-response",140,187310,"0.0-3.43-0.43","1j7u245pzpotkv4","121.csv","","272.40000000596046","resources/trios/L2T1A1.jpg","39","restless",0.1,0.4,0.7,0.387575036312157,"true"
"image-keyboard-response",141,187715,"0.0-3.43-1.43","1j7u245pzpotkv4","121.csv","","null","resources/maskTrios/BBA1.jpg","null","",NA,NA,NA,NA,""
"image-keyboard-response",142,188917,"0.0-3.43-2.43","1j7u245pzpotkv4","121.csv","","null","resources/images/coin2.png","null","",NA,NA,NA,NA,""
"image-keyboard-response",143,189410,"0.0-3.44-0.44","1j7u245pzpotkv4","121.csv","","492.59999999403954","resources/trios/L2T2A3.jpg","39","restless",0.1,0.4,0.7,0.577154454747655,"true"
"image-keyboard-response",144,189824,"0.0-3.44-1.44","1j7u245pzpotkv4","121.csv","","null","resources/maskTrios/BBA3.jpg","null","",NA,NA,NA,NA,""
"image-keyboard-response",145,191040,"0.0-3.44-2.44","1j7u245pzpotkv4","121.csv","","null","resources/images/coin2.png","null","",NA,NA,NA,NA,""
"image-keyboard-response",146,191711,"0.0-3.45-0.45","1j7u245pzpotkv4","121.csv","","670.1999999880791","resources/trios/L1T1A1.jpg","39","restless",0.1,0.4,0.7,0.313142625813807,"true"
"image-keyboard-response",147,192120,"0.0-3.45-1.45","1j7u245pzpotkv4","121.csv","","null","resources/maskTrios/BBA1.jpg","null","",NA,NA,NA,NA,""
"image-keyboard-response",148,193334,"0.0-3.45-2.45","1j7u245pzpotkv4","121.csv","","null","resources/images/coin2.png","null","",NA,NA,NA,NA,""
"image-keyboard-response",149,193798,"0.0-3.46-0.46","1j7u245pzpotkv4","121.csv","","464.19999998807907","resources/trios/L2T1A3.jpg","39","restless",0.1,0.4,0.7,0.930710604575391,"false"
"image-keyboard-response",150,194212,"0.0-3.46-1.46","1j7u245pzpotkv4","121.csv","","null","resources/maskTrios/BBA3.jpg","null","",NA,NA,NA,NA,""
"image-keyboard-response",151,195427,"0.0-3.46-2.46","1j7u245pzpotkv4","121.csv","","null","resources/images/fishbone.png","null","",NA,NA,NA,NA,""
"image-keyboard-response",152,195647,"0.0-3.47-0.47","1j7u245pzpotkv4","121.csv","","219.5","resources/trios/L1T2A1.jpg","38","restless",0.1,0.4,0.7,0.897160791739783,"false"
"image-keyboard-response",153,196060,"0.0-3.47-1.47","1j7u245pzpotkv4","121.csv","","null","resources/maskTrios/BT2B.jpg","null","",NA,NA,NA,NA,""
"image-keyboard-response",154,197275,"0.0-3.47-2.47","1j7u245pzpotkv4","121.csv","","null","resources/images/fishbone.png","null","",NA,NA,NA,NA,""
"image-keyboard-response",155,197435,"0.0-3.48-0.48","1j7u245pzpotkv4","121.csv","","159.5","resources/trios/L1T1A3.jpg","37","restless",0.1,0.3,0.7,0.164202393451874,"false"
"image-keyboard-response",156,197844,"0.0-3.48-1.48","1j7u245pzpotkv4","121.csv","","null","resources/maskTrios/L1BB.jpg","null","",NA,NA,NA,NA,""
"image-keyboard-response",157,199049,"0.0-3.48-2.48","1j7u245pzpotkv4","121.csv","","null","resources/images/fishbone.png","null","",NA,NA,NA,NA,""
"image-keyboard-response",158,199304,"0.0-3.49-0.49","1j7u245pzpotkv4","121.csv","","254.19999998807907","resources/trios/L2T2A1.jpg","38","restless",0.1,0.3,0.7,0.346230129655422,"false"
"image-keyboard-response",159,199709,"0.0-3.49-1.49","1j7u245pzpotkv4","121.csv","","null","resources/maskTrios/BT2B.jpg","null","",NA,NA,NA,NA,""
"image-keyboard-response",160,200910,"0.0-3.49-2.49","1j7u245pzpotkv4","121.csv","","null","resources/images/fishbone.png","null","",NA,NA,NA,NA,""
"image-keyboard-response",161,201151,"0.0-3.50-0.50","1j7u245pzpotkv4","121.csv","","240.7000000178814","resources/trios/L1T1A1.jpg","39","restless",0.2,0.3,0.7,0.292476713369586,"true"
"image-keyboard-response",162,201557,"0.0-3.50-1.50","1j7u245pzpotkv4","121.csv","","null","resources/maskTrios/BBA1.jpg","null","",NA,NA,NA,NA,""
"image-keyboard-response",163,202761,"0.0-3.50-2.50","1j7u245pzpotkv4","121.csv","","null","resources/images/coin2.png","null","",NA,NA,NA,NA,""
"image-keyboard-response",164,203043,"0.0-3.51-0.51","1j7u245pzpotkv4","121.csv","","281.09999999403954","resources/trios/L1T2A3.jpg","39","restless",0.2,0.2,0.7,0.750108553838426,"false"
"image-keyboard-response",165,203455,"0.0-3.51-1.51","1j7u245pzpotkv4","121.csv","","null","resources/maskTrios/BBA3.jpg","null","",NA,NA,NA,NA,""
"image-keyboard-response",166,204657,"0.0-3.51-2.51","1j7u245pzpotkv4","121.csv","","null","resources/images/fishbone.png","null","",NA,NA,NA,NA,""
"image-keyboard-response",167,204843,"0.0-3.52-0.52","1j7u245pzpotkv4","121.csv","","186.19999998807907","resources/trios/L1T2A1.jpg","38","restless",0.2,0.2,0.7,0.377366855642957,"false"
"image-keyboard-response",168,205255,"0.0-3.52-1.52","1j7u245pzpotkv4","121.csv","","null","resources/maskTrios/BT2B.jpg","null","",NA,NA,NA,NA,""
"image-keyboard-response",169,206456,"0.0-3.52-2.52","1j7u245pzpotkv4","121.csv","","null","resources/images/fishbone.png","null","",NA,NA,NA,NA,""
"image-keyboard-response",170,206684,"0.0-3.53-0.53","1j7u245pzpotkv4","121.csv","","227","resources/trios/L1T1A1.jpg","37","restless",0.2,0.2,0.8,0.890857686705665,"false"
"image-keyboard-response",171,207087,"0.0-3.53-1.53","1j7u245pzpotkv4","121.csv","","null","resources/maskTrios/L1BB.jpg","null","",NA,NA,NA,NA,""
"image-keyboard-response",172,208303,"0.0-3.53-2.53","1j7u245pzpotkv4","121.csv","","null","resources/images/fishbone.png","null","",NA,NA,NA,NA,""
"image-keyboard-response",173,208527,"0.0-3.54-0.54","1j7u245pzpotkv4","121.csv","","224.2999999821186","resources/trios/L2T1A1.jpg","38","restless",0.2,0.2,0.8,0.054390197165193,"true"
"image-keyboard-response",174,208933,"0.0-3.54-1.54","1j7u245pzpotkv4","121.csv","","null","resources/maskTrios/BT1B.jpg","null","",NA,NA,NA,NA,""
"image-keyboard-response",175,210134,"0.0-3.54-2.54","1j7u245pzpotkv4","121.csv","","null","resources/images/coin2.png","null","",NA,NA,NA,NA,""
"image-keyboard-response",176,210185,"0.0-3.55-0.55","1j7u245pzpotkv4","121.csv","","49.89999997615814","resources/trios/L1T1A1.jpg","39","restless",0.3,0.2,0.8,0.0732278114065357,"true"
"image-keyboard-response",177,210596,"0.0-3.55-1.55","1j7u245pzpotkv4","121.csv","","null","resources/maskTrios/BBA1.jpg","null","",NA,NA,NA,NA,""
"image-keyboard-response",178,211799,"0.0-3.55-2.55","1j7u245pzpotkv4","121.csv","","null","resources/images/coin2.png","null","",NA,NA,NA,NA,""
"image-keyboard-response",179,212013,"0.0-3.56-0.56","1j7u245pzpotkv4","121.csv","","213.40000000596046","resources/trios/L1T2A3.jpg","38","restless",0.3,0.2,0.8,0.649985155176383,"false"
"image-keyboard-response",180,212414,"0.0-3.56-1.56","1j7u245pzpotkv4","121.csv","","null","resources/maskTrios/BT2B.jpg","null","",NA,NA,NA,NA,""
"image-keyboard-response",181,213618,"0.0-3.56-2.56","1j7u245pzpotkv4","121.csv","","null","resources/images/fishbone.png","null","",NA,NA,NA,NA,""
"image-keyboard-response",182,213901,"0.0-3.57-0.57","1j7u245pzpotkv4","121.csv","","282.19999998807907","resources/trios/L2T2A1.jpg","37","restless",0.3,0.3,0.8,0.71604820959636,"false"
"image-keyboard-response",183,214310,"0.0-3.57-1.57","1j7u245pzpotkv4","121.csv","","null","resources/maskTrios/L2BB.jpg","null","",NA,NA,NA,NA,""
"image-keyboard-response",184,215513,"0.0-3.57-2.57","1j7u245pzpotkv4","121.csv","","null","resources/images/fishbone.png","null","",NA,NA,NA,NA,""
"image-keyboard-response",185,215865,"0.0-3.58-0.58","1j7u245pzpotkv4","121.csv","","351.30000001192093","resources/trios/L2T1A1.jpg","39","restless",0.3,0.4,0.8,0.777087165886442,"true"
"image-keyboard-response",186,216270,"0.0-3.58-1.58","1j7u245pzpotkv4","121.csv","","null","resources/maskTrios/BBA1.jpg","null","",NA,NA,NA,NA,""
"image-keyboard-response",187,217472,"0.0-3.58-2.58","1j7u245pzpotkv4","121.csv","","null","resources/images/coin2.png","null","",NA,NA,NA,NA,""
"image-keyboard-response",188,217696,"0.0-3.59-0.59","1j7u245pzpotkv4","121.csv","","224.40000000596046","resources/trios/L1T2A3.jpg","38","restless",0.3,0.4,0.8,0.145883669902288,"true"
"image-keyboard-response",189,218102,"0.0-3.59-1.59","1j7u245pzpotkv4","121.csv","","null","resources/maskTrios/BT2B.jpg","null","",NA,NA,NA,NA,""
"image-keyboard-response",190,219309,"0.0-3.59-2.59","1j7u245pzpotkv4","121.csv","","null","resources/images/coin2.png","null","",NA,NA,NA,NA,""
"image-keyboard-response",191,219482,"0.0-3.60-0.60","1j7u245pzpotkv4","121.csv","","171.5","resources/trios/L1T2A1.jpg","38","restless",0.3,0.4,0.8,0.302149093784841,"true"
"image-keyboard-response",192,219896,"0.0-3.60-1.60","1j7u245pzpotkv4","121.csv","","null","resources/maskTrios/BT2B.jpg","null","",NA,NA,NA,NA,""
"image-keyboard-response",193,221111,"0.0-3.60-2.60","1j7u245pzpotkv4","121.csv","","null","resources/images/coin2.png","null","",NA,NA,NA,NA,""
"image-keyboard-response",194,221342,"0.0-3.61-0.61","1j7u245pzpotkv4","121.csv","","230.40000000596046","resources/trios/L1T1A1.jpg","38","restless",0.3,0.4,0.8,0.336985160275261,"true"
"image-keyboard-response",195,221757,"0.0-3.61-1.61","1j7u245pzpotkv4","121.csv","","null","resources/maskTrios/BT1B.jpg","null","",NA,NA,NA,NA,""
"image-keyboard-response",196,222961,"0.0-3.61-2.61","1j7u245pzpotkv4","121.csv","","null","resources/images/coin2.png","null","",NA,NA,NA,NA,""
"image-keyboard-response",197,223174,"0.0-3.62-0.62","1j7u245pzpotkv4","121.csv","","212.30000001192093","resources/trios/L1T1A1.jpg","38","restless",0.4,0.4,0.8,0.0248457464122118,"true"
"image-keyboard-response",198,223579,"0.0-3.62-1.62","1j7u245pzpotkv4","121.csv","","null","resources/maskTrios/BT1B.jpg","null","",NA,NA,NA,NA,""
"image-keyboard-response",199,224795,"0.0-3.62-2.62","1j7u245pzpotkv4","121.csv","","null","resources/images/coin2.png","null","",NA,NA,NA,NA,""
"image-keyboard-response",200,224982,"0.0-3.63-0.63","1j7u245pzpotkv4","121.csv","","186.40000000596046","resources/trios/L2T2A1.jpg","38","restless",0.4,0.4,0.8,0.637999898064295,"false"
"image-keyboard-response",201,225396,"0.0-3.63-1.63","1j7u245pzpotkv4","121.csv","","null","resources/maskTrios/BT2B.jpg","null","",NA,NA,NA,NA,""
"image-keyboard-response",202,226599,"0.0-3.63-2.63","1j7u245pzpotkv4","121.csv","","null","resources/images/fishbone.png","null","",NA,NA,NA,NA,""
"image-keyboard-response",203,226879,"0.0-3.64-0.64","1j7u245pzpotkv4","121.csv","","278.80000001192093","resources/trios/L1T1A1.jpg","37","restless",0.3,0.4,0.8,0.515489022448482,"false"
"image-keyboard-response",204,227293,"0.0-3.64-1.64","1j7u245pzpotkv4","121.csv","","null","resources/maskTrios/L1BB.jpg","null","",NA,NA,NA,NA,""
"image-keyboard-response",205,228499,"0.0-3.64-2.64","1j7u245pzpotkv4","121.csv","","null","resources/images/fishbone.png","null","",NA,NA,NA,NA,""
"image-keyboard-response",206,228578,"0.0-3.65-0.65","1j7u245pzpotkv4","121.csv","","78.39999997615814","resources/trios/L2T1A1.jpg","39","restless",0.3,0.4,0.8,0.216278954534933,"true"
"image-keyboard-response",207,228991,"0.0-3.65-1.65","1j7u245pzpotkv4","121.csv","","null","resources/maskTrios/BBA1.jpg","null","",NA,NA,NA,NA,""
"image-keyboard-response",208,230193,"0.0-3.65-2.65","1j7u245pzpotkv4","121.csv","","null","resources/images/coin2.png","null","",NA,NA,NA,NA,""
"image-keyboard-response",209,230392,"0.0-3.66-0.66","1j7u245pzpotkv4","121.csv","","198.30000001192093","resources/trios/L2T1A3.jpg","38","restless",0.3,0.3,0.8,0.083072409683278,"true"
"image-keyboard-response",210,230793,"0.0-3.66-1.66","1j7u245pzpotkv4","121.csv","","null","resources/maskTrios/BT1B.jpg","null","",NA,NA,NA,NA,""
"image-keyboard-response",211,231997,"0.0-3.66-2.66","1j7u245pzpotkv4","121.csv","","null","resources/images/coin2.png","null","",NA,NA,NA,NA,""
"image-keyboard-response",212,232197,"0.0-3.67-0.67","1j7u245pzpotkv4","121.csv","","199.5","resources/trios/L1T1A1.jpg","38","restless",0.3,0.3,0.8,0.767101137357681,"false"
"image-keyboard-response",213,232611,"0.0-3.67-1.67","1j7u245pzpotkv4","121.csv","","null","resources/maskTrios/BT1B.jpg","null","",NA,NA,NA,NA,""
"image-keyboard-response",214,233812,"0.0-3.67-2.67","1j7u245pzpotkv4","121.csv","","null","resources/images/fishbone.png","null","",NA,NA,NA,NA,""
"image-keyboard-response",215,234054,"0.0-3.68-0.68","1j7u245pzpotkv4","121.csv","","241","resources/trios/L2T1A3.jpg","37","restless",0.3,0.3,0.8,0.751515005268677,"false"
"image-keyboard-response",216,234460,"0.0-3.68-1.68","1j7u245pzpotkv4","121.csv","","null","resources/maskTrios/L2BB.jpg","null","",NA,NA,NA,NA,""
"image-keyboard-response",217,235663,"0.0-3.68-2.68","1j7u245pzpotkv4","121.csv","","null","resources/images/fishbone.png","null","",NA,NA,NA,NA,""
"image-keyboard-response",218,235897,"0.0-3.69-0.69","1j7u245pzpotkv4","121.csv","","234.09999999403954","resources/trios/L2T1A1.jpg","39","restless",0.3,0.3,0.8,0.921897395915213,"false"
"image-keyboard-response",219,236310,"0.0-3.69-1.69","1j7u245pzpotkv4","121.csv","","null","resources/maskTrios/BBA1.jpg","null","",NA,NA,NA,NA,""
"image-keyboard-response",220,237511,"0.0-3.69-2.69","1j7u245pzpotkv4","121.csv","","null","resources/images/fishbone.png","null","",NA,NA,NA,NA,""
"image-keyboard-response",221,237718,"0.0-3.70-0.70","1j7u245pzpotkv4","121.csv","","205.80000001192093","resources/trios/L1T1A1.jpg","38","restless",0.3,0.4,0.8,0.11774916000977,"true"
"image-keyboard-response",222,238127,"0.0-3.70-1.70","1j7u245pzpotkv4","121.csv","","null","resources/maskTrios/BT1B.jpg","null","",NA,NA,NA,NA,""
"image-keyboard-response",223,239342,"0.0-3.70-2.70","1j7u245pzpotkv4","121.csv","","null","resources/images/coin2.png","null","",NA,NA,NA,NA,""
"image-keyboard-response",224,239551,"0.0-3.71-0.71","1j7u245pzpotkv4","121.csv","","207.7000000178814","resources/trios/L1T2A3.jpg","37","restless",0.3,0.4,0.8,0.554229804088072,"false"
"image-keyboard-response",225,239957,"0.0-3.71-1.71","1j7u245pzpotkv4","121.csv","","null","resources/maskTrios/L1BB.jpg","null","",NA,NA,NA,NA,""
"image-keyboard-response",226,241161,"0.0-3.71-2.71","1j7u245pzpotkv4","121.csv","","null","resources/images/fishbone.png","null","",NA,NA,NA,NA,""
"image-keyboard-response",227,241378,"0.0-3.72-0.72","1j7u245pzpotkv4","121.csv","","216.5","resources/trios/L2T2A3.jpg","39","restless",0.4,0.4,0.8,0.748642287501091,"true"
"image-keyboard-response",228,241794,"0.0-3.72-1.72","1j7u245pzpotkv4","121.csv","","null","resources/maskTrios/BBA3.jpg","null","",NA,NA,NA,NA,""
"image-keyboard-response",229,242999,"0.0-3.72-2.72","1j7u245pzpotkv4","121.csv","","null","resources/images/coin2.png","null","",NA,NA,NA,NA,""
"image-keyboard-response",230,243230,"0.0-3.73-0.73","1j7u245pzpotkv4","121.csv","","230.59999999403954","resources/trios/L1T2A3.jpg","38","restless",0.5,0.5,0.9,0.318541991215047,"true"
"image-keyboard-response",231,243646,"0.0-3.73-1.73","1j7u245pzpotkv4","121.csv","","null","resources/maskTrios/BT2B.jpg","null","",NA,NA,NA,NA,""
"image-keyboard-response",232,244849,"0.0-3.73-2.73","1j7u245pzpotkv4","121.csv","","null","resources/images/coin2.png","null","",NA,NA,NA,NA,""
"image-keyboard-response",233,245248,"0.0-3.74-0.74","1j7u245pzpotkv4","121.csv","","398.40000000596046","resources/trios/L2T2A1.jpg","38","restless",0.5,0.4,0.9,0.932695043910107,"false"
"image-keyboard-response",234,245649,"0.0-3.74-1.74","1j7u245pzpotkv4","121.csv","","null","resources/maskTrios/BT2B.jpg","null","",NA,NA,NA,NA,""
"image-keyboard-response",235,246853,"0.0-3.74-2.74","1j7u245pzpotkv4","121.csv","","null","resources/images/fishbone.png","null","",NA,NA,NA,NA,""
"image-keyboard-response",236,247016,"0.0-3.75-0.75","1j7u245pzpotkv4","121.csv","","162.40000000596046","resources/trios/L1T2A3.jpg","37","restless",0.6,0.5,0.9,0.569241336671138,"true"
"image-keyboard-response",237,247421,"0.0-3.75-1.75","1j7u245pzpotkv4","121.csv","","null","resources/maskTrios/L1BB.jpg","null","",NA,NA,NA,NA,""
"image-keyboard-response",238,248625,"0.0-3.75-2.75","1j7u245pzpotkv4","121.csv","","null","resources/images/coin2.png","null","",NA,NA,NA,NA,""
"image-keyboard-response",239,248808,"0.0-3.76-0.76","1j7u245pzpotkv4","121.csv","","182.30000001192093","resources/trios/L1T1A1.jpg","39","restless",0.6,0.5,0.9,0.95237149165715,"false"
"image-keyboard-response",240,249210,"0.0-3.76-1.76","1j7u245pzpotkv4","121.csv","","null","resources/maskTrios/BBA1.jpg","null","",NA,NA,NA,NA,""
"image-keyboard-response",241,250425,"0.0-3.76-2.76","1j7u245pzpotkv4","121.csv","","null","resources/images/fishbone.png","null","",NA,NA,NA,NA,""
"image-keyboard-response",242,250656,"0.0-3.77-0.77","1j7u245pzpotkv4","121.csv","","230.2000000178814","resources/trios/L2T2A1.jpg","38","restless",0.6,0.5,0.9,0.647777067626375,"false"
"image-keyboard-response",243,251057,"0.0-3.77-1.77","1j7u245pzpotkv4","121.csv","","null","resources/maskTrios/BT2B.jpg","null","",NA,NA,NA,NA,""
"image-keyboard-response",244,252262,"0.0-3.77-2.77","1j7u245pzpotkv4","121.csv","","null","resources/images/fishbone.png","null","",NA,NA,NA,NA,""
"image-keyboard-response",245,252469,"0.0-3.78-0.78","1j7u245pzpotkv4","121.csv","","206.5","resources/trios/L1T2A3.jpg","37","restless",0.6,0.5,0.9,0.612919943824462,"false"
"image-keyboard-response",246,252878,"0.0-3.78-1.78","1j7u245pzpotkv4","121.csv","","null","resources/maskTrios/L1BB.jpg","null","",NA,NA,NA,NA,""
"image-keyboard-response",247,254093,"0.0-3.78-2.78","1j7u245pzpotkv4","121.csv","","null","resources/images/fishbone.png","null","",NA,NA,NA,NA,""
"image-keyboard-response",248,254301,"0.0-3.79-0.79","1j7u245pzpotkv4","121.csv","","207.2000000178814","resources/trios/L1T1A1.jpg","39","restless",0.7,0.5,0.9,0.643420378854446,"true"
"image-keyboard-response",249,254709,"0.0-3.79-1.79","1j7u245pzpotkv4","121.csv","","null","resources/maskTrios/BBA1.jpg","null","",NA,NA,NA,NA,""
"image-keyboard-response",250,255911,"0.0-3.79-2.79","1j7u245pzpotkv4","121.csv","","null","resources/images/coin2.png","null","",NA,NA,NA,NA,""
"image-keyboard-response",251,256068,"0.0-3.80-0.80","1j7u245pzpotkv4","121.csv","","157","resources/trios/L2T2A1.jpg","38","restless",0.7,0.5,0.9,0.03271723829891,"true"
"image-keyboard-response",252,256481,"0.0-3.80-1.80","1j7u245pzpotkv4","121.csv","","null","resources/maskTrios/BT2B.jpg","null","",NA,NA,NA,NA,""
"image-keyboard-response",253,257696,"0.0-3.80-2.80","1j7u245pzpotkv4","121.csv","","null","resources/images/coin2.png","null","",NA,NA,NA,NA,""
"image-keyboard-response",254,257989,"0.0-3.81-0.81","1j7u245pzpotkv4","121.csv","","292.7999999821186","resources/trios/L2T2A3.jpg","38","restless",0.7,0.5,0.9,0.739646941167515,"false"
"image-keyboard-response",255,258404,"0.0-3.81-1.81","1j7u245pzpotkv4","121.csv","","null","resources/maskTrios/BT2B.jpg","null","",NA,NA,NA,NA,""
"image-keyboard-response",256,259619,"0.0-3.81-2.81","1j7u245pzpotkv4","121.csv","","null","resources/images/fishbone.png","null","",NA,NA,NA,NA,""
"image-keyboard-response",257,260002,"0.0-3.82-0.82","1j7u245pzpotkv4","121.csv","","382.40000000596046","resources/trios/L2T2A1.jpg","38","restless",0.7,0.5,0.9,0.219901220091545,"true"
"image-keyboard-response",258,260405,"0.0-3.82-1.82","1j7u245pzpotkv4","121.csv","","null","resources/maskTrios/BT2B.jpg","null","",NA,NA,NA,NA,""
"image-keyboard-response",259,261607,"0.0-3.82-2.82","1j7u245pzpotkv4","121.csv","","null","resources/images/coin2.png","null","",NA,NA,NA,NA,""
"image-keyboard-response",260,262054,"0.0-3.83-0.83","1j7u245pzpotkv4","121.csv","","446.30000001192093","resources/trios/L1T1A1.jpg","38","restless",0.7,0.5,0.9,0.280609615320361,"true"
"image-keyboard-response",261,262455,"0.0-3.83-1.83","1j7u245pzpotkv4","121.csv","","null","resources/maskTrios/BT1B.jpg","null","",NA,NA,NA,NA,""
"image-keyboard-response",262,263657,"0.0-3.83-2.83","1j7u245pzpotkv4","121.csv","","null","resources/images/coin2.png","null","",NA,NA,NA,NA,""
"image-keyboard-response",263,263853,"0.0-3.84-0.84","1j7u245pzpotkv4","121.csv","","196","resources/trios/L2T2A1.jpg","38","restless",0.7,0.5,0.9,0.938463503589904,"false"
"image-keyboard-response",264,264256,"0.0-3.84-1.84","1j7u245pzpotkv4","121.csv","","null","resources/maskTrios/BT2B.jpg","null","",NA,NA,NA,NA,""
"image-keyboard-response",265,265458,"0.0-3.84-2.84","1j7u245pzpotkv4","121.csv","","null","resources/images/fishbone.png","null","",NA,NA,NA,NA,""
"image-keyboard-response",266,265714,"0.0-3.85-0.85","1j7u245pzpotkv4","121.csv","","255.2000000178814","resources/trios/L2T1A1.jpg","38","restless",0.7,0.5,0.9,0.547358225582155,"false"
"image-keyboard-response",267,266122,"0.0-3.85-1.85","1j7u245pzpotkv4","121.csv","","null","resources/maskTrios/BT1B.jpg","null","",NA,NA,NA,NA,""
"image-keyboard-response",268,267326,"0.0-3.85-2.85","1j7u245pzpotkv4","121.csv","","null","resources/images/fishbone.png","null","",NA,NA,NA,NA,""
"image-keyboard-response",269,267470,"0.0-3.86-0.86","1j7u245pzpotkv4","121.csv","","143.19999998807907","resources/trios/L2T1A3.jpg","37","restless",0.7,0.5,0.9,0.682660335132437,"true"
"image-keyboard-response",270,267879,"0.0-3.86-1.86","1j7u245pzpotkv4","121.csv","","null","resources/maskTrios/L2BB.jpg","null","",NA,NA,NA,NA,""
"image-keyboard-response",271,269096,"0.0-3.86-2.86","1j7u245pzpotkv4","121.csv","","null","resources/images/coin2.png","null","",NA,NA,NA,NA,""
"image-keyboard-response",272,269377,"0.0-3.87-0.87","1j7u245pzpotkv4","121.csv","","280.7999999821186","resources/trios/L2T1A3.jpg","37","restless",0.7,0.5,0.9,0.242919486905023,"true"
"image-keyboard-response",273,269788,"0.0-3.87-1.87","1j7u245pzpotkv4","121.csv","","null","resources/maskTrios/L2BB.jpg","null","",NA,NA,NA,NA,""
"image-keyboard-response",274,270993,"0.0-3.87-2.87","1j7u245pzpotkv4","121.csv","","null","resources/images/coin2.png","null","",NA,NA,NA,NA,""
"image-keyboard-response",275,271222,"0.0-3.88-0.88","1j7u245pzpotkv4","121.csv","","227.90000000596046","resources/trios/L1T2A1.jpg","37","restless",0.8,0.5,0.9,0.907634490597798,"false"
"image-keyboard-response",276,271624,"0.0-3.88-1.88","1j7u245pzpotkv4","121.csv","","null","resources/maskTrios/L1BB.jpg","null","",NA,NA,NA,NA,""
"image-keyboard-response",277,272825,"0.0-3.88-2.88","1j7u245pzpotkv4","121.csv","","null","resources/images/fishbone.png","null","",NA,NA,NA,NA,""
"image-keyboard-response",278,273057,"0.0-3.89-0.89","1j7u245pzpotkv4","121.csv","","231.90000000596046","resources/trios/L1T2A3.jpg","38","restless",0.8,0.5,0.9,0.533865618118174,"false"
"image-keyboard-response",279,273471,"0.0-3.89-1.89","1j7u245pzpotkv4","121.csv","","null","resources/maskTrios/BT2B.jpg","null","",NA,NA,NA,NA,""
"image-keyboard-response",280,274672,"0.0-3.89-2.89","1j7u245pzpotkv4","121.csv","","null","resources/images/fishbone.png","null","",NA,NA,NA,NA,""
"image-keyboard-response",281,274918,"0.0-3.90-0.90","1j7u245pzpotkv4","121.csv","","244.80000001192093","resources/trios/L2T1A1.jpg","37","restless",0.8,0.5,0.9,0.316633368625504,"true"
"image-keyboard-response",282,275319,"0.0-3.90-1.90","1j7u245pzpotkv4","121.csv","","null","resources/maskTrios/L2BB.jpg","null","",NA,NA,NA,NA,""
"image-keyboard-response",283,276521,"0.0-3.90-2.90","1j7u245pzpotkv4","121.csv","","null","resources/images/coin2.png","null","",NA,NA,NA,NA,""
"image-keyboard-response",284,276779,"0.0-3.91-0.91","1j7u245pzpotkv4","121.csv","","257.40000000596046","resources/trios/L2T2A3.jpg","37","restless",0.8,0.5,0.9,0.357129042039258,"true"
"image-keyboard-response",285,277180,"0.0-3.91-1.91","1j7u245pzpotkv4","121.csv","","null","resources/maskTrios/L2BB.jpg","null","",NA,NA,NA,NA,""
"image-keyboard-response",286,278395,"0.0-3.91-2.91","1j7u245pzpotkv4","121.csv","","null","resources/images/coin2.png","null","",NA,NA,NA,NA,""
"image-keyboard-response",287,278639,"0.0-3.92-0.92","1j7u245pzpotkv4","121.csv","","243.40000000596046","resources/trios/L1T1A3.jpg","37","restless",0.8,0.5,0.9,0.646561470640871,"true"
"image-keyboard-response",288,279055,"0.0-3.92-1.92","1j7u245pzpotkv4","121.csv","","null","resources/maskTrios/L1BB.jpg","null","",NA,NA,NA,NA,""
"image-keyboard-response",289,280260,"0.0-3.92-2.92","1j7u245pzpotkv4","121.csv","","null","resources/images/coin2.png","null","",NA,NA,NA,NA,""
"image-keyboard-response",290,280479,"0.0-3.93-0.93","1j7u245pzpotkv4","121.csv","","218.40000000596046","resources/trios/L1T1A1.jpg","37","restless",0.8,0.5,0.8,0.300440848402556,"true"
"image-keyboard-response",291,280890,"0.0-3.93-1.93","1j7u245pzpotkv4","121.csv","","null","resources/maskTrios/L1BB.jpg","null","",NA,NA,NA,NA,""
"image-keyboard-response",292,282096,"0.0-3.93-2.93","1j7u245pzpotkv4","121.csv","","null","resources/images/coin2.png","null","",NA,NA,NA,NA,""
"image-keyboard-response",293,282371,"0.0-3.94-0.94","1j7u245pzpotkv4","121.csv","","274.5","resources/trios/L1T2A1.jpg","37","restless",0.8,0.5,0.8,0.24677149697332,"true"
"image-keyboard-response",294,282772,"0.0-3.94-1.94","1j7u245pzpotkv4","121.csv","","null","resources/maskTrios/L1BB.jpg","null","",NA,NA,NA,NA,""
"image-keyboard-response",295,283988,"0.0-3.94-2.94","1j7u245pzpotkv4","121.csv","","null","resources/images/coin2.png","null","",NA,NA,NA,NA,""
"image-keyboard-response",296,284223,"0.0-3.95-0.95","1j7u245pzpotkv4","121.csv","","233.7000000178814","resources/trios/L2T1A1.jpg","37","restless",0.8,0.5,0.8,0.100480299741736,"true"
"image-keyboard-response",297,284634,"0.0-3.95-1.95","1j7u245pzpotkv4","121.csv","","null","resources/maskTrios/L2BB.jpg","null","",NA,NA,NA,NA,""
"image-keyboard-response",298,285837,"0.0-3.95-2.95","1j7u245pzpotkv4","121.csv","","null","resources/images/coin2.png","null","",NA,NA,NA,NA,""
"image-keyboard-response",299,286090,"0.0-3.96-0.96","1j7u245pzpotkv4","121.csv","","252.40000000596046","resources/trios/L1T1A1.jpg","37","restless",0.8,0.5,0.8,0.716196390445887,"true"
"image-keyboard-response",300,286500,"0.0-3.96-1.96","1j7u245pzpotkv4","121.csv","","null","resources/maskTrios/L1BB.jpg","null","",NA,NA,NA,NA,""
"image-keyboard-response",301,287701,"0.0-3.96-2.96","1j7u245pzpotkv4","121.csv","","null","resources/images/coin2.png","null","",NA,NA,NA,NA,""
"image-keyboard-response",302,287915,"0.0-3.97-0.97","1j7u245pzpotkv4","121.csv","","213","resources/trios/L1T2A3.jpg","37","restless",0.8,0.5,0.8,0.705750945154231,"true"
"image-keyboard-response",303,288318,"0.0-3.97-1.97","1j7u245pzpotkv4","121.csv","","null","resources/maskTrios/L1BB.jpg","null","",NA,NA,NA,NA,""
"image-keyboard-response",304,289521,"0.0-3.97-2.97","1j7u245pzpotkv4","121.csv","","null","resources/images/coin2.png","null","",NA,NA,NA,NA,""
"image-keyboard-response",305,289755,"0.0-3.98-0.98","1j7u245pzpotkv4","121.csv","","233","resources/trios/L1T2A1.jpg","37","restless",0.8,0.5,0.8,0.711711912425667,"true"
"image-keyboard-response",306,290168,"0.0-3.98-1.98","1j7u245pzpotkv4","121.csv","","null","resources/maskTrios/L1BB.jpg","null","",NA,NA,NA,NA,""
"image-keyboard-response",307,291371,"0.0-3.98-2.98","1j7u245pzpotkv4","121.csv","","null","resources/images/coin2.png","null","",NA,NA,NA,NA,""
"image-keyboard-response",308,291579,"0.0-3.99-0.99","1j7u245pzpotkv4","121.csv","","206.80000001192093","resources/trios/L2T1A1.jpg","37","restless",0.8,0.5,0.8,0.780332868127711,"true"
"image-keyboard-response",309,291989,"0.0-3.99-1.99","1j7u245pzpotkv4","121.csv","","null","resources/maskTrios/L2BB.jpg","null","",NA,NA,NA,NA,""
"image-keyboard-response",310,293192,"0.0-3.99-2.99","1j7u245pzpotkv4","121.csv","","null","resources/images/coin2.png","null","",NA,NA,NA,NA,""
"image-keyboard-response",311,293372,"0.0-3.100-0.100","1j7u245pzpotkv4","121.csv","","179.10000002384186","resources/trios/L1T1A3.jpg","38","restless",0.8,0.5,0.8,0.583865412718654,"false"
"image-keyboard-response",312,293777,"0.0-3.100-1.100","1j7u245pzpotkv4","121.csv","","null","resources/maskTrios/BT1B.jpg","null","",NA,NA,NA,NA,""
"image-keyboard-response",313,294979,"0.0-3.100-2.100","1j7u245pzpotkv4","121.csv","","null","resources/images/fishbone.png","null","",NA,NA,NA,NA,""
"image-keyboard-response",314,295428,"0.0-3.101-0.101","1j7u245pzpotkv4","121.csv","","448.19999998807907","resources/trios/L1T2A1.jpg","37","restless",0.8,0.5,0.7,0.479290099758891,"true"
"image-keyboard-response",315,295842,"0.0-3.101-1.101","1j7u245pzpotkv4","121.csv","","null","resources/maskTrios/L1BB.jpg","null","",NA,NA,NA,NA,""
"image-keyboard-response",316,297044,"0.0-3.101-2.101","1j7u245pzpotkv4","121.csv","","null","resources/images/coin2.png","null","",NA,NA,NA,NA,""
"image-keyboard-response",317,297241,"0.0-3.102-0.102","1j7u245pzpotkv4","121.csv","","196.40000000596046","resources/trios/L2T2A3.jpg","37","restless",0.8,0.5,0.7,0.807792917306638,"false"
"image-keyboard-response",318,297643,"0.0-3.102-1.102","1j7u245pzpotkv4","121.csv","","null","resources/maskTrios/L2BB.jpg","null","",NA,NA,NA,NA,""
"image-keyboard-response",319,298846,"0.0-3.102-2.102","1j7u245pzpotkv4","121.csv","","null","resources/images/fishbone.png","null","",NA,NA,NA,NA,""
"image-keyboard-response",320,299045,"0.0-3.103-0.103","1j7u245pzpotkv4","121.csv","","198.2999999821186","resources/trios/L1T1A3.jpg","38","restless",0.8,0.5,0.7,0.865564376371255,"false"
"image-keyboard-response",321,299447,"0.0-3.103-1.103","1j7u245pzpotkv4","121.csv","","null","resources/maskTrios/BT1B.jpg","null","",NA,NA,NA,NA,""
"image-keyboard-response",322,300649,"0.0-3.103-2.103","1j7u245pzpotkv4","121.csv","","null","resources/images/fishbone.png","null","",NA,NA,NA,NA,""
"image-keyboard-response",323,300820,"0.0-3.104-0.104","1j7u245pzpotkv4","121.csv","","171","resources/trios/L2T1A3.jpg","39","restless",0.9,0.5,0.7,0.845679739155601,"false"
"image-keyboard-response",324,301235,"0.0-3.104-1.104","1j7u245pzpotkv4","121.csv","","null","resources/maskTrios/BBA3.jpg","null","",NA,NA,NA,NA,""
"image-keyboard-response",325,302436,"0.0-3.104-2.104","1j7u245pzpotkv4","121.csv","","null","resources/images/fishbone.png","null","",NA,NA,NA,NA,""
"image-keyboard-response",326,303337,"0.0-3.105-0.105","1j7u245pzpotkv4","121.csv","","900.2999999821186","resources/trios/L1T2A1.jpg","38","restless",0.9,0.5,0.7,0.129510387059525,"true"
"image-keyboard-response",327,303748,"0.0-3.105-1.105","1j7u245pzpotkv4","121.csv","","null","resources/maskTrios/BT2B.jpg","null","",NA,NA,NA,NA,""
"image-keyboard-response",328,304963,"0.0-3.105-2.105","1j7u245pzpotkv4","121.csv","","null","resources/images/coin2.png","null","",NA,NA,NA,NA,""
"image-keyboard-response",329,305166,"0.0-3.106-0.106","1j7u245pzpotkv4","121.csv","","201.59999999403954","resources/trios/L2T2A1.jpg","38","restless",0.9,0.5,0.7,0.611715561977305,"false"
"image-keyboard-response",330,305579,"0.0-3.106-1.106","1j7u245pzpotkv4","121.csv","","null","resources/maskTrios/BT2B.jpg","null","",NA,NA,NA,NA,""
"image-keyboard-response",331,306781,"0.0-3.106-2.106","1j7u245pzpotkv4","121.csv","","null","resources/images/fishbone.png","null","",NA,NA,NA,NA,""
"image-keyboard-response",332,307065,"0.0-3.107-0.107","1j7u245pzpotkv4","121.csv","","283.90000000596046","resources/trios/L1T1A3.jpg","37","restless",0.9,0.5,0.7,0.704047493171583,"true"
"image-keyboard-response",333,307477,"0.0-3.107-1.107","1j7u245pzpotkv4","121.csv","","null","resources/maskTrios/L1BB.jpg","null","",NA,NA,NA,NA,""
"image-keyboard-response",334,308682,"0.0-3.107-2.107","1j7u245pzpotkv4","121.csv","","null","resources/images/coin2.png","null","",NA,NA,NA,NA,""
"image-keyboard-response",335,308935,"0.0-3.108-0.108","1j7u245pzpotkv4","121.csv","","252.7000000178814","resources/trios/L1T1A3.jpg","37","restless",0.9,0.5,0.7,0.42207330744053,"true"
"image-keyboard-response",336,309345,"0.0-3.108-1.108","1j7u245pzpotkv4","121.csv","","null","resources/maskTrios/L1BB.jpg","null","",NA,NA,NA,NA,""
"image-keyboard-response",337,310547,"0.0-3.108-2.108","1j7u245pzpotkv4","121.csv","","null","resources/images/coin2.png","null","",NA,NA,NA,NA,""
"image-keyboard-response",338,310803,"0.0-3.109-0.109","1j7u245pzpotkv4","121.csv","","254.7000000178814","resources/trios/L1T1A1.jpg","37","restless",0.9,0.5,0.7,0.0324688068612067,"true"
"image-keyboard-response",339,311211,"0.0-3.109-1.109","1j7u245pzpotkv4","121.csv","","null","resources/maskTrios/L1BB.jpg","null","",NA,NA,NA,NA,""
"image-keyboard-response",340,312426,"0.0-3.109-2.109","1j7u245pzpotkv4","121.csv","","null","resources/images/coin2.png","null","",NA,NA,NA,NA,""
"image-keyboard-response",341,312647,"0.0-3.110-0.110","1j7u245pzpotkv4","121.csv","","220.59999999403954","resources/trios/L2T1A3.jpg","37","restless",0.9,0.5,0.6,0.4757502934581,"true"
"image-keyboard-response",342,313056,"0.0-3.110-1.110","1j7u245pzpotkv4","121.csv","","null","resources/maskTrios/L2BB.jpg","null","",NA,NA,NA,NA,""
"image-keyboard-response",343,314257,"0.0-3.110-2.110","1j7u245pzpotkv4","121.csv","","null","resources/images/coin2.png","null","",NA,NA,NA,NA,""
"image-keyboard-response",344,314636,"0.0-3.111-0.111","1j7u245pzpotkv4","121.csv","","378","resources/trios/L2T2A3.jpg","37","restless",0.9,0.5,0.6,0.344827373613749,"true"
"image-keyboard-response",345,315040,"0.0-3.111-1.111","1j7u245pzpotkv4","121.csv","","null","resources/maskTrios/L2BB.jpg","null","",NA,NA,NA,NA,""
"image-keyboard-response",346,316244,"0.0-3.111-2.111","1j7u245pzpotkv4","121.csv","","null","resources/images/coin2.png","null","",NA,NA,NA,NA,""
"image-keyboard-response",347,316497,"0.0-3.112-0.112","1j7u245pzpotkv4","121.csv","","251.90000000596046","resources/trios/L2T1A1.jpg","37","restless",0.9,0.4,0.6,0.688669921373295,"true"
"image-keyboard-response",348,316906,"0.0-3.112-1.112","1j7u245pzpotkv4","121.csv","","null","resources/maskTrios/L2BB.jpg","null","",NA,NA,NA,NA,""
"image-keyboard-response",349,318122,"0.0-3.112-2.112","1j7u245pzpotkv4","121.csv","","null","resources/images/coin2.png","null","",NA,NA,NA,NA,""
"image-keyboard-response",350,318362,"0.0-3.113-0.113","1j7u245pzpotkv4","121.csv","","238.89999997615814","resources/trios/L1T2A1.jpg","37","restless",0.9,0.4,0.6,0.262838812679709,"true"
"image-keyboard-response",351,318769,"0.0-3.113-1.113","1j7u245pzpotkv4","121.csv","","null","resources/maskTrios/L1BB.jpg","null","",NA,NA,NA,NA,""
"image-keyboard-response",352,319972,"0.0-3.113-2.113","1j7u245pzpotkv4","121.csv","","null","resources/images/coin2.png","null","",NA,NA,NA,NA,""
"image-keyboard-response",353,320158,"0.0-3.114-0.114","1j7u245pzpotkv4","121.csv","","185.2999999821186","resources/trios/L1T2A1.jpg","37","restless",0.9,0.4,0.6,0.65119335961319,"true"
"image-keyboard-response",354,320572,"0.0-3.114-1.114","1j7u245pzpotkv4","121.csv","","null","resources/maskTrios/L1BB.jpg","null","",NA,NA,NA,NA,""
"image-keyboard-response",355,321773,"0.0-3.114-2.114","1j7u245pzpotkv4","121.csv","","null","resources/images/coin2.png","null","",NA,NA,NA,NA,""
"image-keyboard-response",356,321974,"0.0-3.115-0.115","1j7u245pzpotkv4","121.csv","","201.09999999403954","resources/trios/L2T1A1.jpg","37","restless",0.9,0.4,0.6,0.704663619996595,"true"
"image-keyboard-response",357,322388,"0.0-3.115-1.115","1j7u245pzpotkv4","121.csv","","null","resources/maskTrios/L2BB.jpg","null","",NA,NA,NA,NA,""
"image-keyboard-response",358,323590,"0.0-3.115-2.115","1j7u245pzpotkv4","121.csv","","null","resources/images/coin2.png","null","",NA,NA,NA,NA,""
"image-keyboard-response",359,323839,"0.0-3.116-0.116","1j7u245pzpotkv4","121.csv","","248.19999998807907","resources/trios/L1T1A3.jpg","37","restless",0.9,0.4,0.6,0.10099566903401,"true"
"image-keyboard-response",360,324251,"0.0-3.116-1.116","1j7u245pzpotkv4","121.csv","","null","resources/maskTrios/L1BB.jpg","null","",NA,NA,NA,NA,""
"image-keyboard-response",361,325467,"0.0-3.116-2.116","1j7u245pzpotkv4","121.csv","","null","resources/images/coin2.png","null","",NA,NA,NA,NA,""
"image-keyboard-response",362,325696,"0.0-3.117-0.117","1j7u245pzpotkv4","121.csv","","228.40000000596046","resources/trios/L1T2A3.jpg","37","restless",0.9,0.4,0.6,0.859126308007036,"true"
"image-keyboard-response",363,326097,"0.0-3.117-1.117","1j7u245pzpotkv4","121.csv","","null","resources/maskTrios/L1BB.jpg","null","",NA,NA,NA,NA,""
"image-keyboard-response",364,327298,"0.0-3.117-2.117","1j7u245pzpotkv4","121.csv","","null","resources/images/coin2.png","null","",NA,NA,NA,NA,""
"image-keyboard-response",365,327508,"0.0-3.118-0.118","1j7u245pzpotkv4","121.csv","","209","resources/trios/L2T2A3.jpg","37","restless",0.9,0.4,0.6,0.0473914576939305,"true"
"image-keyboard-response",366,327915,"0.0-3.118-1.118","1j7u245pzpotkv4","121.csv","","null","resources/maskTrios/L2BB.jpg","null","",NA,NA,NA,NA,""
"image-keyboard-response",367,329125,"0.0-3.118-2.118","1j7u245pzpotkv4","121.csv","","null","resources/images/coin2.png","null","",NA,NA,NA,NA,""
"image-keyboard-response",368,329336,"0.0-3.119-0.119","1j7u245pzpotkv4","121.csv","","210.7000000178814","resources/trios/L1T1A3.jpg","37","restless",0.9,0.4,0.6,0.721198434151466,"true"
"image-keyboard-response",369,329745,"0.0-3.119-1.119","1j7u245pzpotkv4","121.csv","","null","resources/maskTrios/L1BB.jpg","null","",NA,NA,NA,NA,""
"image-keyboard-response",370,330950,"0.0-3.119-2.119","1j7u245pzpotkv4","121.csv","","null","resources/images/coin2.png","null","",NA,NA,NA,NA,""
"image-keyboard-response",371,331181,"0.0-3.120-0.120","1j7u245pzpotkv4","121.csv","","229.80000001192093","resources/trios/L1T2A1.jpg","37","restless",0.9,0.4,0.6,0.0917698846849622,"true"
"image-keyboard-response",372,331597,"0.0-3.120-1.120","1j7u245pzpotkv4","121.csv","","null","resources/maskTrios/L1BB.jpg","null","",NA,NA,NA,NA,""
"image-keyboard-response",373,332804,"0.0-3.120-2.120","1j7u245pzpotkv4","121.csv","","null","resources/images/coin2.png","null","",NA,NA,NA,NA,""
"image-keyboard-response",374,333013,"0.0-3.121-0.121","1j7u245pzpotkv4","121.csv","","207.90000000596046","resources/trios/L2T1A1.jpg","37","restless",0.9,0.4,0.6,0.680916830203389,"true"
"image-keyboard-response",375,333421,"0.0-3.121-1.121","1j7u245pzpotkv4","121.csv","","null","resources/maskTrios/L2BB.jpg","null","",NA,NA,NA,NA,""
"image-keyboard-response",376,334631,"0.0-3.121-2.121","1j7u245pzpotkv4","121.csv","","null","resources/images/coin2.png","null","",NA,NA,NA,NA,""
"image-keyboard-response",377,334813,"0.0-3.122-0.122","1j7u245pzpotkv4","121.csv","","181.40000000596046","resources/trios/L2T1A1.jpg","37","restless",0.9,0.5,0.6,0.954357821350494,"false"
"image-keyboard-response",378,335216,"0.0-3.122-1.122","1j7u245pzpotkv4","121.csv","","null","resources/maskTrios/L2BB.jpg","null","",NA,NA,NA,NA,""
"image-keyboard-response",379,336425,"0.0-3.122-2.122","1j7u245pzpotkv4","121.csv","","null","resources/images/fishbone.png","null","",NA,NA,NA,NA,""
"image-keyboard-response",380,336596,"0.0-3.123-0.123","1j7u245pzpotkv4","121.csv","","170.90000000596046","resources/trios/L1T1A1.jpg","39","restless",0.9,0.5,0.6,0.654887452726798,"false"
"image-keyboard-response",381,336998,"0.0-3.123-1.123","1j7u245pzpotkv4","121.csv","","null","resources/maskTrios/BBA1.jpg","null","",NA,NA,NA,NA,""
"image-keyboard-response",382,338207,"0.0-3.123-2.123","1j7u245pzpotkv4","121.csv","","null","resources/images/fishbone.png","null","",NA,NA,NA,NA,""
"image-keyboard-response",383,338386,"0.0-3.124-0.124","1j7u245pzpotkv4","121.csv","","178","resources/trios/L1T1A3.jpg","38","restless",0.9,0.5,0.6,0.141098234554031,"true"
"image-keyboard-response",384,338793,"0.0-3.124-1.124","1j7u245pzpotkv4","121.csv","","null","resources/maskTrios/BT1B.jpg","null","",NA,NA,NA,NA,""
"image-keyboard-response",385,340002,"0.0-3.124-2.124","1j7u245pzpotkv4","121.csv","","null","resources/images/coin2.png","null","",NA,NA,NA,NA,""
"image-keyboard-response",386,340186,"0.0-3.125-0.125","1j7u245pzpotkv4","121.csv","","183.09999999403954","resources/trios/L2T2A3.jpg","38","restless",0.9,0.5,0.6,0.288726805985448,"true"
"image-keyboard-response",387,340587,"0.0-3.125-1.125","1j7u245pzpotkv4","121.csv","","null","resources/maskTrios/BT2B.jpg","null","",NA,NA,NA,NA,""
"image-keyboard-response",388,341797,"0.0-3.125-2.125","1j7u245pzpotkv4","121.csv","","null","resources/images/coin2.png","null","",NA,NA,NA,NA,""
"image-keyboard-response",389,342011,"0.0-3.126-0.126","1j7u245pzpotkv4","121.csv","","213.90000000596046","resources/trios/L2T2A3.jpg","38","restless",0.9,0.5,0.5,0.858638887531298,"false"
"image-keyboard-response",390,342414,"0.0-3.126-1.126","1j7u245pzpotkv4","121.csv","","null","resources/maskTrios/BT2B.jpg","null","",NA,NA,NA,NA,""
"image-keyboard-response",391,343618,"0.0-3.126-2.126","1j7u245pzpotkv4","121.csv","","null","resources/images/fishbone.png","null","",NA,NA,NA,NA,""
"image-keyboard-response",392,343811,"0.0-3.127-0.127","1j7u245pzpotkv4","121.csv","","192.30000001192093","resources/trios/L2T2A1.jpg","39","restless",0.8,0.5,0.5,0.28144349824972,"true"
"image-keyboard-response",393,344220,"0.0-3.127-1.127","1j7u245pzpotkv4","121.csv","","null","resources/maskTrios/BBA1.jpg","null","",NA,NA,NA,NA,""
"image-keyboard-response",394,345429,"0.0-3.127-2.127","1j7u245pzpotkv4","121.csv","","null","resources/images/coin2.png","null","",NA,NA,NA,NA,""
"image-keyboard-response",395,345632,"0.0-3.128-0.128","1j7u245pzpotkv4","121.csv","","202.59999999403954","resources/trios/L1T2A1.jpg","37","restless",0.7,0.5,0.5,0.349058298831915,"true"
"image-keyboard-response",396,346048,"0.0-3.128-1.128","1j7u245pzpotkv4","121.csv","","null","resources/maskTrios/L1BB.jpg","null","",NA,NA,NA,NA,""
"image-keyboard-response",397,347254,"0.0-3.128-2.128","1j7u245pzpotkv4","121.csv","","null","resources/images/coin2.png","null","",NA,NA,NA,NA,""
"image-keyboard-response",398,347457,"0.0-3.129-0.129","1j7u245pzpotkv4","121.csv","","202.59999999403954","resources/trios/L1T1A1.jpg","38","restless",0.7,0.5,0.5,0.358247814398773,"true"
"image-keyboard-response",399,347873,"0.0-3.129-1.129","1j7u245pzpotkv4","121.csv","","null","resources/maskTrios/BT1B.jpg","null","",NA,NA,NA,NA,""
"image-keyboard-response",400,349085,"0.0-3.129-2.129","1j7u245pzpotkv4","121.csv","","null","resources/images/coin2.png","null","",NA,NA,NA,NA,""
"image-keyboard-response",401,349265,"0.0-3.130-0.130","1j7u245pzpotkv4","121.csv","","178.7999999821186","resources/trios/L1T2A1.jpg","38","restless",0.7,0.5,0.5,0.803048091289164,"false"
"image-keyboard-response",402,349671,"0.0-3.130-1.130","1j7u245pzpotkv4","121.csv","","null","resources/maskTrios/BT2B.jpg","null","",NA,NA,NA,NA,""
"image-keyboard-response",403,350879,"0.0-3.130-2.130","1j7u245pzpotkv4","121.csv","","null","resources/images/fishbone.png","null","",NA,NA,NA,NA,""
"image-keyboard-response",404,351121,"0.0-3.131-0.131","1j7u245pzpotkv4","121.csv","","241.59999999403954","resources/trios/L2T2A3.jpg","39","restless",0.6,0.5,0.5,0.639549013642735,"false"
"image-keyboard-response",405,351526,"0.0-3.131-1.131","1j7u245pzpotkv4","121.csv","","null","resources/maskTrios/BBA3.jpg","null","",NA,NA,NA,NA,""
"image-keyboard-response",406,352731,"0.0-3.131-2.131","1j7u245pzpotkv4","121.csv","","null","resources/images/fishbone.png","null","",NA,NA,NA,NA,""
"image-keyboard-response",407,352977,"0.0-3.132-0.132","1j7u245pzpotkv4","121.csv","","244.59999999403954","resources/trios/L2T1A1.jpg","37","restless",0.6,0.5,0.5,0.592690680513458,"true"
"image-keyboard-response",408,353380,"0.0-3.132-1.132","1j7u245pzpotkv4","121.csv","","null","resources/maskTrios/L2BB.jpg","null","",NA,NA,NA,NA,""
"image-keyboard-response",409,354586,"0.0-3.132-2.132","1j7u245pzpotkv4","121.csv","","null","resources/images/coin2.png","null","",NA,NA,NA,NA,""
"image-keyboard-response",410,354853,"0.0-3.133-0.133","1j7u245pzpotkv4","121.csv","","266.80000001192093","resources/trios/L1T1A3.jpg","38","restless",0.6,0.6,0.5,0.791671398037155,"false"
"image-keyboard-response",411,355266,"0.0-3.133-1.133","1j7u245pzpotkv4","121.csv","","null","resources/maskTrios/BT1B.jpg","null","",NA,NA,NA,NA,""
"image-keyboard-response",412,356472,"0.0-3.133-2.133","1j7u245pzpotkv4","121.csv","","null","resources/images/fishbone.png","null","",NA,NA,NA,NA,""
"image-keyboard-response",413,356770,"0.0-3.134-0.134","1j7u245pzpotkv4","121.csv","","297.19999998807907","resources/trios/L2T1A3.jpg","37","restless",0.6,0.6,0.5,0.0558445520341493,"true"
"image-keyboard-response",414,357183,"0.0-3.134-1.134","1j7u245pzpotkv4","121.csv","","null","resources/maskTrios/L2BB.jpg","null","",NA,NA,NA,NA,""
"image-keyboard-response",415,358392,"0.0-3.134-2.134","1j7u245pzpotkv4","121.csv","","null","resources/images/coin2.png","null","",NA,NA,NA,NA,""
"image-keyboard-response",416,358514,"0.0-3.135-0.135","1j7u245pzpotkv4","121.csv","","121.19999998807907","resources/trios/L1T2A3.jpg","37","restless",0.6,0.6,0.5,0.0876350439764577,"true"
"image-keyboard-response",417,358915,"0.0-3.135-1.135","1j7u245pzpotkv4","121.csv","","null","resources/maskTrios/L1BB.jpg","null","",NA,NA,NA,NA,""
"image-keyboard-response",418,360122,"0.0-3.135-2.135","1j7u245pzpotkv4","121.csv","","null","resources/images/coin2.png","null","",NA,NA,NA,NA,""
"image-keyboard-response",419,360403,"0.0-3.136-0.136","1j7u245pzpotkv4","121.csv","","280.5","resources/trios/L1T1A1.jpg","37","restless",0.6,0.6,0.5,0.475490576287091,"true"
"image-keyboard-response",420,360805,"0.0-3.136-1.136","1j7u245pzpotkv4","121.csv","","null","resources/maskTrios/L1BB.jpg","null","",NA,NA,NA,NA,""
"image-keyboard-response",421,362015,"0.0-3.136-2.136","1j7u245pzpotkv4","121.csv","","null","resources/images/coin2.png","null","",NA,NA,NA,NA,""
"image-keyboard-response",422,362555,"0.0-3.137-0.137","1j7u245pzpotkv4","121.csv","","538.8000000119209","resources/trios/L1T2A1.jpg","37","restless",0.5,0.6,0.5,0.0538480623623243,"true"
"image-keyboard-response",423,362956,"0.0-3.137-1.137","1j7u245pzpotkv4","121.csv","","null","resources/maskTrios/L1BB.jpg","null","",NA,NA,NA,NA,""
"image-keyboard-response",424,364164,"0.0-3.137-2.137","1j7u245pzpotkv4","121.csv","","null","resources/images/coin2.png","null","",NA,NA,NA,NA,""
"image-keyboard-response",425,364535,"0.0-3.138-0.138","1j7u245pzpotkv4","121.csv","","370.90000000596046","resources/trios/L1T2A1.jpg","37","restless",0.5,0.6,0.5,0.427209410836586,"true"
"image-keyboard-response",426,364951,"0.0-3.138-1.138","1j7u245pzpotkv4","121.csv","","null","resources/maskTrios/L1BB.jpg","null","",NA,NA,NA,NA,""
"image-keyboard-response",427,366160,"0.0-3.138-2.138","1j7u245pzpotkv4","121.csv","","null","resources/images/coin2.png","null","",NA,NA,NA,NA,""
"image-keyboard-response",428,366392,"0.0-3.139-0.139","1j7u245pzpotkv4","121.csv","","230.7999999821186","resources/trios/L2T2A1.jpg","37","restless",0.5,0.6,0.5,0.7923923783364,"false"
"image-keyboard-response",429,366793,"0.0-3.139-1.139","1j7u245pzpotkv4","121.csv","","null","resources/maskTrios/L2BB.jpg","null","",NA,NA,NA,NA,""
"image-keyboard-response",430,368002,"0.0-3.139-2.139","1j7u245pzpotkv4","121.csv","","null","resources/images/fishbone.png","null","",NA,NA,NA,NA,""
"image-keyboard-response",431,368173,"0.0-3.140-0.140","1j7u245pzpotkv4","121.csv","","170.59999999403954","resources/trios/L2T1A3.jpg","39","restless",0.5,0.6,0.4,0.766082031851204,"false"
"image-keyboard-response",432,368576,"0.0-3.140-1.140","1j7u245pzpotkv4","121.csv","","null","resources/maskTrios/BBA3.jpg","null","",NA,NA,NA,NA,""
"image-keyboard-response",433,369787,"0.0-3.140-2.140","1j7u245pzpotkv4","121.csv","","null","resources/images/fishbone.png","null","",NA,NA,NA,NA,""
"image-keyboard-response",434,369822,"0.0-3.141-0.141","1j7u245pzpotkv4","121.csv","","33.89999997615814","resources/trios/L1T2A1.jpg","38","restless",0.5,0.6,0.4,0.819717306977957,"false"
"image-keyboard-response",435,370235,"0.0-3.141-1.141","1j7u245pzpotkv4","121.csv","","null","resources/maskTrios/BT2B.jpg","null","",NA,NA,NA,NA,""
"image-keyboard-response",436,371440,"0.0-3.141-2.141","1j7u245pzpotkv4","121.csv","","null","resources/images/fishbone.png","null","",NA,NA,NA,NA,""
"image-keyboard-response",437,372115,"0.0-3.142-0.142","1j7u245pzpotkv4","121.csv","","674.3000000119209","resources/trios/L2T2A1.jpg","37","restless",0.5,0.6,0.4,0.493516575045821,"true"
"image-keyboard-response",438,372524,"0.0-3.142-1.142","1j7u245pzpotkv4","121.csv","","null","resources/maskTrios/L2BB.jpg","null","",NA,NA,NA,NA,""
"image-keyboard-response",439,373727,"0.0-3.142-2.142","1j7u245pzpotkv4","121.csv","","null","resources/images/coin2.png","null","",NA,NA,NA,NA,""
"image-keyboard-response",440,374171,"0.0-3.143-0.143","1j7u245pzpotkv4","121.csv","","443.7999999821186","resources/trios/L2T2A1.jpg","37","restless",0.5,0.6,0.4,0.543098843117005,"false"
"image-keyboard-response",441,374575,"0.0-3.143-1.143","1j7u245pzpotkv4","121.csv","","null","resources/maskTrios/L2BB.jpg","null","",NA,NA,NA,NA,""
"image-keyboard-response",442,375781,"0.0-3.143-2.143","1j7u245pzpotkv4","121.csv","","null","resources/images/fishbone.png","null","",NA,NA,NA,NA,""
"image-keyboard-response",443,376103,"0.0-3.144-0.144","1j7u245pzpotkv4","121.csv","","321.59999999403954","resources/trios/L1T2A1.jpg","37","restless",0.5,0.6,0.4,0.302367198937137,"true"
"image-keyboard-response",444,376504,"0.0-3.144-1.144","1j7u245pzpotkv4","121.csv","","null","resources/maskTrios/L1BB.jpg","null","",NA,NA,NA,NA,""
"image-keyboard-response",445,377712,"0.0-3.144-2.144","1j7u245pzpotkv4","121.csv","","null","resources/images/coin2.png","null","",NA,NA,NA,NA,""
"image-keyboard-response",446,377999,"0.0-3.145-0.145","1j7u245pzpotkv4","121.csv","","285.89999997615814","resources/trios/L2T2A3.jpg","37","restless",0.5,0.5,0.4,0.431171378445612,"true"
"image-keyboard-response",447,378407,"0.0-3.145-1.145","1j7u245pzpotkv4","121.csv","","null","resources/maskTrios/L2BB.jpg","null","",NA,NA,NA,NA,""
"image-keyboard-response",448,379614,"0.0-3.145-2.145","1j7u245pzpotkv4","121.csv","","null","resources/images/coin2.png","null","",NA,NA,NA,NA,""
"image-keyboard-response",449,379932,"0.0-3.146-0.146","1j7u245pzpotkv4","121.csv","","317.09999999403954","resources/trios/L2T1A3.jpg","37","restless",0.5,0.5,0.4,0.741067890024113,"false"
"image-keyboard-response",450,380342,"0.0-3.146-1.146","1j7u245pzpotkv4","121.csv","","null","resources/maskTrios/L2BB.jpg","null","",NA,NA,NA,NA,""
"image-keyboard-response",451,381550,"0.0-3.146-2.146","1j7u245pzpotkv4","121.csv","","null","resources/images/fishbone.png","null","",NA,NA,NA,NA,""
"image-keyboard-response",452,381873,"0.0-3.147-0.147","1j7u245pzpotkv4","121.csv","","322.19999998807907","resources/trios/L1T1A1.jpg","37","restless",0.6,0.5,0.4,0.432767236416423,"true"
"image-keyboard-response",453,382274,"0.0-3.147-1.147","1j7u245pzpotkv4","121.csv","","null","resources/maskTrios/L1BB.jpg","null","",NA,NA,NA,NA,""
"image-keyboard-response",454,383479,"0.0-3.147-2.147","1j7u245pzpotkv4","121.csv","","null","resources/images/coin2.png","null","",NA,NA,NA,NA,""
"image-keyboard-response",455,383696,"0.0-3.148-0.148","1j7u245pzpotkv4","121.csv","","217.30000001192093","resources/trios/L2T1A1.jpg","38","restless",0.6,0.5,0.4,0.349442363894699,"true"
"image-keyboard-response",456,384110,"0.0-3.148-1.148","1j7u245pzpotkv4","121.csv","","null","resources/maskTrios/BT1B.jpg","null","",NA,NA,NA,NA,""
"image-keyboard-response",457,385314,"0.0-3.148-2.148","1j7u245pzpotkv4","121.csv","","null","resources/images/coin2.png","null","",NA,NA,NA,NA,""
"image-keyboard-response",458,385586,"0.0-3.149-0.149","1j7u245pzpotkv4","121.csv","","271","resources/trios/L1T2A1.jpg","39","restless",0.6,0.5,0.4,0.0233868815250318,"true"
"image-keyboard-response",459,385994,"0.0-3.149-1.149","1j7u245pzpotkv4","121.csv","","null","resources/maskTrios/BBA1.jpg","null","",NA,NA,NA,NA,""
"image-keyboard-response",460,387203,"0.0-3.149-2.149","1j7u245pzpotkv4","121.csv","","null","resources/images/coin2.png","null","",NA,NA,NA,NA,""
"image-keyboard-response",461,387210,"0.0-3.150-0.150","1j7u245pzpotkv4","121.csv","","6.200000017881393","resources/trios/L2T2A3.jpg","39","restless",0.6,0.5,0.4,0.673853412618881,"false"
"image-keyboard-response",462,387618,"0.0-3.150-1.150","1j7u245pzpotkv4","121.csv","","null","resources/maskTrios/BBA3.jpg","null","",NA,NA,NA,NA,""
"image-keyboard-response",463,388822,"0.0-3.150-2.150","1j7u245pzpotkv4","121.csv","","null","resources/images/fishbone.png","null","",NA,NA,NA,NA,""
"image-keyboard-response",464,389074,"0.0-3.151-0.151","1j7u245pzpotkv4","121.csv","","251.80000001192093","resources/trios/L1T1A1.jpg","37","restless",0.6,0.5,0.4,0.0549422299674687,"true"
"image-keyboard-response",465,389486,"0.0-3.151-1.151","1j7u245pzpotkv4","121.csv","","null","resources/maskTrios/L1BB.jpg","null","",NA,NA,NA,NA,""
"image-keyboard-response",466,390690,"0.0-3.151-2.151","1j7u245pzpotkv4","121.csv","","null","resources/images/coin2.png","null","",NA,NA,NA,NA,""
"image-keyboard-response",467,390868,"0.0-3.152-0.152","1j7u245pzpotkv4","121.csv","","177.2999999821186","resources/trios/L2T1A1.jpg","38","restless",0.6,0.5,0.4,0.276634777429684,"true"
"image-keyboard-response",468,391274,"0.0-3.152-1.152","1j7u245pzpotkv4","121.csv","","null","resources/maskTrios/BT1B.jpg","null","",NA,NA,NA,NA,""
"image-keyboard-response",469,392481,"0.0-3.152-2.152","1j7u245pzpotkv4","121.csv","","null","resources/images/coin2.png","null","",NA,NA,NA,NA,""
"image-keyboard-response",470,392716,"0.0-3.153-0.153","1j7u245pzpotkv4","121.csv","","234.40000000596046","resources/trios/L1T2A1.jpg","39","restless",0.6,0.5,0.4,0.215281647987596,"true"
"image-keyboard-response",471,393131,"0.0-3.153-1.153","1j7u245pzpotkv4","121.csv","","null","resources/maskTrios/BBA1.jpg","null","",NA,NA,NA,NA,""
"image-keyboard-response",472,394342,"0.0-3.153-2.153","1j7u245pzpotkv4","121.csv","","null","resources/images/coin2.png","null","",NA,NA,NA,NA,""
"image-keyboard-response",473,394761,"0.0-3.154-0.154","1j7u245pzpotkv4","121.csv","","418.30000001192093","resources/trios/L2T1A3.jpg","37","restless",0.6,0.5,0.4,0.221050953683735,"true"
"image-keyboard-response",474,395175,"0.0-3.154-1.154","1j7u245pzpotkv4","121.csv","","null","resources/maskTrios/L2BB.jpg","null","",NA,NA,NA,NA,""
"image-keyboard-response",475,396383,"0.0-3.154-2.154","1j7u245pzpotkv4","121.csv","","null","resources/images/coin2.png","null","",NA,NA,NA,NA,""
"image-keyboard-response",476,396594,"0.0-3.155-0.155","1j7u245pzpotkv4","121.csv","","210.09999999403954","resources/trios/L2T2A3.jpg","38","restless",0.6,0.5,0.4,0.143484782123434,"true"
"image-keyboard-response",477,397001,"0.0-3.155-1.155","1j7u245pzpotkv4","121.csv","","null","resources/maskTrios/BT2B.jpg","null","",NA,NA,NA,NA,""
"image-keyboard-response",478,398210,"0.0-3.155-2.155","1j7u245pzpotkv4","121.csv","","null","resources/images/coin2.png","null","",NA,NA,NA,NA,""
"image-keyboard-response",479,398418,"0.0-3.156-0.156","1j7u245pzpotkv4","121.csv","","207","resources/trios/L1T1A1.jpg","39","restless",0.6,0.5,0.4,0.0276201101904323,"true"
"image-keyboard-response",480,398830,"0.0-3.156-1.156","1j7u245pzpotkv4","121.csv","","null","resources/maskTrios/BBA1.jpg","null","",NA,NA,NA,NA,""
"image-keyboard-response",481,400035,"0.0-3.156-2.156","1j7u245pzpotkv4","121.csv","","null","resources/images/coin2.png","null","",NA,NA,NA,NA,""
"image-keyboard-response",482,400258,"0.0-3.157-0.157","1j7u245pzpotkv4","121.csv","","221.69999998807907","resources/trios/L1T1A3.jpg","37","restless",0.6,0.5,0.4,0.523922532939582,"true"
"image-keyboard-response",483,400669,"0.0-3.157-1.157","1j7u245pzpotkv4","121.csv","","null","resources/maskTrios/L1BB.jpg","null","",NA,NA,NA,NA,""
"image-keyboard-response",484,401873,"0.0-3.157-2.157","1j7u245pzpotkv4","121.csv","","null","resources/images/coin2.png","null","",NA,NA,NA,NA,""
"image-keyboard-response",485,402082,"0.0-3.158-0.158","1j7u245pzpotkv4","121.csv","","208.40000000596046","resources/trios/L1T1A3.jpg","38","restless",0.6,0.5,0.4,0.218837247513336,"true"
"image-keyboard-response",486,402489,"0.0-3.158-1.158","1j7u245pzpotkv4","121.csv","","null","resources/maskTrios/BT1B.jpg","null","",NA,NA,NA,NA,""
"image-keyboard-response",487,403694,"0.0-3.158-2.158","1j7u245pzpotkv4","121.csv","","null","resources/images/coin2.png","null","",NA,NA,NA,NA,""
"image-keyboard-response",488,403922,"0.0-3.159-0.159","1j7u245pzpotkv4","121.csv","","227.60000002384186","resources/trios/L1T2A1.jpg","39","restless",0.6,0.5,0.4,0.755206081562121,"false"
"image-keyboard-response",489,404327,"0.0-3.159-1.159","1j7u245pzpotkv4","121.csv","","null","resources/maskTrios/BBA1.jpg","null","",NA,NA,NA,NA,""
"image-keyboard-response",490,405532,"0.0-3.159-2.159","1j7u245pzpotkv4","121.csv","","null","resources/images/fishbone.png","null","",NA,NA,NA,NA,""
"image-keyboard-response",491,405771,"0.0-3.160-0.160","1j7u245pzpotkv4","121.csv","","237.80000001192093","resources/trios/L2T1A1.jpg","38","restless",0.6,0.5,0.4,0.846066707890757,"false"
"image-keyboard-response",492,406182,"0.0-3.160-1.160","1j7u245pzpotkv4","121.csv","","null","resources/maskTrios/BT1B.jpg","null","",NA,NA,NA,NA,""
"image-keyboard-response",493,407385,"0.0-3.160-2.160","1j7u245pzpotkv4","121.csv","","null","resources/images/fishbone.png","null","",NA,NA,NA,NA,""
"image-keyboard-response",494,407542,"0.0-3.161-0.161","1j7u245pzpotkv4","121.csv","","156.7000000178814","resources/trios/L2T1A3.jpg","37","restless",0.6,0.5,0.4,0.0745954514246969,"true"
"image-keyboard-response",495,407955,"0.0-3.161-1.161","1j7u245pzpotkv4","121.csv","","null","resources/maskTrios/L2BB.jpg","null","",NA,NA,NA,NA,""
"image-keyboard-response",496,409165,"0.0-3.161-2.161","1j7u245pzpotkv4","121.csv","","null","resources/images/coin2.png","null","",NA,NA,NA,NA,""
"image-keyboard-response",497,409367,"0.0-3.162-0.162","1j7u245pzpotkv4","121.csv","","201.30000001192093","resources/trios/L2T2A1.jpg","39","restless",0.6,0.5,0.4,0.540848275366415,"false"
"image-keyboard-response",498,409782,"0.0-3.162-1.162","1j7u245pzpotkv4","121.csv","","null","resources/maskTrios/BBA1.jpg","null","",NA,NA,NA,NA,""
"image-keyboard-response",499,410990,"0.0-3.162-2.162","1j7u245pzpotkv4","121.csv","","null","resources/images/fishbone.png","null","",NA,NA,NA,NA,""
"image-keyboard-response",500,411183,"0.0-3.163-0.163","1j7u245pzpotkv4","121.csv","","191.59999999403954","resources/trios/L2T2A1.jpg","37","restless",0.6,0.5,0.4,0.396832257592202,"true"
"image-keyboard-response",501,411588,"0.0-3.163-1.163","1j7u245pzpotkv4","121.csv","","null","resources/maskTrios/L2BB.jpg","null","",NA,NA,NA,NA,""
"image-keyboard-response",502,412795,"0.0-3.163-2.163","1j7u245pzpotkv4","121.csv","","null","resources/images/coin2.png","null","",NA,NA,NA,NA,""
"image-keyboard-response",503,413032,"0.0-3.164-0.164","1j7u245pzpotkv4","121.csv","","236.5","resources/trios/L1T1A3.jpg","37","restless",0.6,0.5,0.4,0.45438483546706,"true"
"image-keyboard-response",504,413443,"0.0-3.164-1.164","1j7u245pzpotkv4","121.csv","","null","resources/maskTrios/L1BB.jpg","null","",NA,NA,NA,NA,""
"image-keyboard-response",505,414652,"0.0-3.164-2.164","1j7u245pzpotkv4","121.csv","","null","resources/images/coin2.png","null","",NA,NA,NA,NA,""
"image-keyboard-response",506,414904,"0.0-3.165-0.165","1j7u245pzpotkv4","121.csv","","251.5","resources/trios/L2T1A1.jpg","37","restless",0.6,0.5,0.4,0.486664760559442,"true"
"image-keyboard-response",507,415316,"0.0-3.165-1.165","1j7u245pzpotkv4","121.csv","","null","resources/maskTrios/L2BB.jpg","null","",NA,NA,NA,NA,""
"image-keyboard-response",508,416532,"0.0-3.165-2.165","1j7u245pzpotkv4","121.csv","","null","resources/images/coin2.png","null","",NA,NA,NA,NA,""
"image-keyboard-response",509,416755,"0.0-3.166-0.166","1j7u245pzpotkv4","121.csv","","222.5","resources/trios/L1T1A3.jpg","37","restless",0.6,0.5,0.4,0.776601423676381,"false"
"image-keyboard-response",510,417164,"0.0-3.166-1.166","1j7u245pzpotkv4","121.csv","","null","resources/maskTrios/L1BB.jpg","null","",NA,NA,NA,NA,""
"image-keyboard-response",511,418380,"0.0-3.166-2.166","1j7u245pzpotkv4","121.csv","","null","resources/images/fishbone.png","null","",NA,NA,NA,NA,""
"image-keyboard-response",512,418617,"0.0-3.167-0.167","1j7u245pzpotkv4","121.csv","","236.19999998807907","resources/trios/L2T1A1.jpg","39","restless",0.6,0.5,0.4,0.245367651849792,"true"
"image-keyboard-response",513,419029,"0.0-3.167-1.167","1j7u245pzpotkv4","121.csv","","null","resources/maskTrios/BBA1.jpg","null","",NA,NA,NA,NA,""
"image-keyboard-response",514,420234,"0.0-3.167-2.167","1j7u245pzpotkv4","121.csv","","null","resources/images/coin2.png","null","",NA,NA,NA,NA,""
"image-keyboard-response",515,420433,"0.0-3.168-0.168","1j7u245pzpotkv4","121.csv","","198.40000000596046","resources/trios/L1T1A3.jpg","38","restless",0.6,0.5,0.4,0.29517164691015,"true"
"image-keyboard-response",516,420849,"0.0-3.168-1.168","1j7u245pzpotkv4","121.csv","","null","resources/maskTrios/BT1B.jpg","null","",NA,NA,NA,NA,""
"image-keyboard-response",517,422066,"0.0-3.168-2.168","1j7u245pzpotkv4","121.csv","","null","resources/images/coin2.png","null","",NA,NA,NA,NA,""
"image-keyboard-response",518,422225,"0.0-3.169-0.169","1j7u245pzpotkv4","121.csv","","158.39999997615814","resources/trios/L1T2A1.jpg","37","restless",0.6,0.5,0.4,0.689570529881985,"false"
"image-keyboard-response",519,422634,"0.0-3.169-1.169","1j7u245pzpotkv4","121.csv","","null","resources/maskTrios/L1BB.jpg","null","",NA,NA,NA,NA,""
"image-keyboard-response",520,423840,"0.0-3.169-2.169","1j7u245pzpotkv4","121.csv","","null","resources/images/fishbone.png","null","",NA,NA,NA,NA,""
"image-keyboard-response",521,424122,"0.0-3.170-0.170","1j7u245pzpotkv4","121.csv","","281.90000000596046","resources/trios/L2T2A1.jpg","39","restless",0.6,0.5,0.4,0.971841927929461,"false"
"image-keyboard-response",522,424534,"0.0-3.170-1.170","1j7u245pzpotkv4","121.csv","","null","resources/maskTrios/BBA1.jpg","null","",NA,NA,NA,NA,""
"image-keyboard-response",523,425736,"0.0-3.170-2.170","1j7u245pzpotkv4","121.csv","","null","resources/images/fishbone.png","null","",NA,NA,NA,NA,""
"image-keyboard-response",524,425926,"0.0-3.171-0.171","1j7u245pzpotkv4","121.csv","","189.19999998807907","resources/trios/L1T1A3.jpg","38","restless",0.5,0.5,0.4,8.55595587436753e-05,"true"
"image-keyboard-response",525,426336,"0.0-3.171-1.171","1j7u245pzpotkv4","121.csv","","null","resources/maskTrios/BT1B.jpg","null","",NA,NA,NA,NA,""
"image-keyboard-response",526,427550,"0.0-3.171-2.171","1j7u245pzpotkv4","121.csv","","null","resources/images/coin2.png","null","",NA,NA,NA,NA,""
"image-keyboard-response",527,427991,"0.0-3.172-0.172","1j7u245pzpotkv4","121.csv","","440.09999999403954","resources/trios/L1T1A1.jpg","38","restless",0.5,0.5,0.4,0.232341925341704,"true"
"image-keyboard-response",528,428394,"0.0-3.172-1.172","1j7u245pzpotkv4","121.csv","","null","resources/maskTrios/BT1B.jpg","null","",NA,NA,NA,NA,""
"image-keyboard-response",529,429599,"0.0-3.172-2.172","1j7u245pzpotkv4","121.csv","","null","resources/images/coin2.png","null","",NA,NA,NA,NA,""
"image-keyboard-response",530,429840,"0.0-3.173-0.173","1j7u245pzpotkv4","121.csv","","239.7999999821186","resources/trios/L1T1A1.jpg","38","restless",0.5,0.5,0.4,0.734771847279366,"false"
"image-keyboard-response",531,430247,"0.0-3.173-1.173","1j7u245pzpotkv4","121.csv","","null","resources/maskTrios/BT1B.jpg","null","",NA,NA,NA,NA,""
"image-keyboard-response",532,431448,"0.0-3.173-2.173","1j7u245pzpotkv4","121.csv","","null","resources/images/fishbone.png","null","",NA,NA,NA,NA,""
"image-keyboard-response",533,431716,"0.0-3.174-0.174","1j7u245pzpotkv4","121.csv","","266.90000000596046","resources/trios/L1T2A1.jpg","37","restless",0.5,0.5,0.4,0.0548196492234625,"true"
"image-keyboard-response",534,432122,"0.0-3.174-1.174","1j7u245pzpotkv4","121.csv","","null","resources/maskTrios/L1BB.jpg","null","",NA,NA,NA,NA,""
"image-keyboard-response",535,433325,"0.0-3.174-2.174","1j7u245pzpotkv4","121.csv","","null","resources/images/coin2.png","null","",NA,NA,NA,NA,""
"image-keyboard-response",536,433544,"0.0-3.175-0.175","1j7u245pzpotkv4","121.csv","","218.2999999821186","resources/trios/L1T2A3.jpg","37","restless",0.5,0.6,0.4,0.446501545884025,"true"
"image-keyboard-response",537,433959,"0.0-3.175-1.175","1j7u245pzpotkv4","121.csv","","null","resources/maskTrios/L1BB.jpg","null","",NA,NA,NA,NA,""
"image-keyboard-response",538,435164,"0.0-3.175-2.175","1j7u245pzpotkv4","121.csv","","null","resources/images/coin2.png","null","",NA,NA,NA,NA,""
"image-keyboard-response",539,435409,"0.0-3.176-0.176","1j7u245pzpotkv4","121.csv","","244.09999999403954","resources/trios/L1T2A3.jpg","37","restless",0.6,0.6,0.4,0.637806151823048,"false"
"image-keyboard-response",540,435825,"0.0-3.176-1.176","1j7u245pzpotkv4","121.csv","","null","resources/maskTrios/L1BB.jpg","null","",NA,NA,NA,NA,""
"image-keyboard-response",541,437030,"0.0-3.176-2.176","1j7u245pzpotkv4","121.csv","","null","resources/images/fishbone.png","null","",NA,NA,NA,NA,""
"image-keyboard-response",542,437333,"0.0-3.177-0.177","1j7u245pzpotkv4","121.csv","","302.39999997615814","resources/trios/L1T2A1.jpg","39","restless",0.5,0.7,0.4,0.0903990954927687,"true"
"image-keyboard-response",543,437740,"0.0-3.177-1.177","1j7u245pzpotkv4","121.csv","","null","resources/maskTrios/BBA1.jpg","null","",NA,NA,NA,NA,""
"image-keyboard-response",544,438944,"0.0-3.177-2.177","1j7u245pzpotkv4","121.csv","","null","resources/images/coin2.png","null","",NA,NA,NA,NA,""
"image-keyboard-response",545,439161,"0.0-3.178-0.178","1j7u245pzpotkv4","121.csv","","216.7000000178814","resources/trios/L2T2A3.jpg","38","restless",0.5,0.7,0.4,0.398734915389396,"true"
"image-keyboard-response",546,439576,"0.0-3.178-1.178","1j7u245pzpotkv4","121.csv","","null","resources/maskTrios/BT2B.jpg","null","",NA,NA,NA,NA,""
"image-keyboard-response",547,440779,"0.0-3.178-2.178","1j7u245pzpotkv4","121.csv","","null","resources/images/coin2.png","null","",NA,NA,NA,NA,""
"image-keyboard-response",548,441335,"0.0-3.179-0.179","1j7u245pzpotkv4","121.csv","","554.9000000059605","resources/trios/L2T2A3.jpg","37","restless",0.5,0.6,0.4,0.646600281492503,"false"
"image-keyboard-response",549,441748,"0.0-3.179-1.179","1j7u245pzpotkv4","121.csv","","null","resources/maskTrios/L2BB.jpg","null","",NA,NA,NA,NA,""
"image-keyboard-response",550,442954,"0.0-3.179-2.179","1j7u245pzpotkv4","121.csv","","null","resources/images/fishbone.png","null","",NA,NA,NA,NA,""
"image-keyboard-response",551,443195,"0.0-3.180-0.180","1j7u245pzpotkv4","121.csv","","239.5","resources/trios/L2T2A1.jpg","38","restless",0.6,0.6,0.3,0.977195607540315,"false"
"image-keyboard-response",552,443601,"0.0-3.180-1.180","1j7u245pzpotkv4","121.csv","","null","resources/maskTrios/BT2B.jpg","null","",NA,NA,NA,NA,""
"image-keyboard-response",553,444817,"0.0-3.180-2.180","1j7u245pzpotkv4","121.csv","","null","resources/images/fishbone.png","null","",NA,NA,NA,NA,""
"image-keyboard-response",554,445050,"0.0-3.181-0.181","1j7u245pzpotkv4","121.csv","","232.80000001192093","resources/trios/L1T1A3.jpg","39","restless",0.6,0.6,0.4,0.963624508798212,"false"
"image-keyboard-response",555,445463,"0.0-3.181-1.181","1j7u245pzpotkv4","121.csv","","null","resources/maskTrios/BBA3.jpg","null","",NA,NA,NA,NA,""
"image-keyboard-response",556,446665,"0.0-3.181-2.181","1j7u245pzpotkv4","121.csv","","null","resources/images/fishbone.png","null","",NA,NA,NA,NA,""
"image-keyboard-response",557,446839,"0.0-3.182-0.182","1j7u245pzpotkv4","121.csv","","172.59999999403954","resources/trios/L2T1A1.jpg","38","restless",0.6,0.6,0.5,0.855828974770393,"false"
"image-keyboard-response",558,447251,"0.0-3.182-1.182","1j7u245pzpotkv4","121.csv","","null","resources/maskTrios/BT1B.jpg","null","",NA,NA,NA,NA,""
"image-keyboard-response",559,448467,"0.0-3.182-2.182","1j7u245pzpotkv4","121.csv","","null","resources/images/fishbone.png","null","",NA,NA,NA,NA,""
"image-keyboard-response",560,448672,"0.0-3.183-0.183","1j7u245pzpotkv4","121.csv","","203.59999999403954","resources/trios/L2T2A3.jpg","37","restless",0.7,0.6,0.5,0.606489518841051,"true"
"image-keyboard-response",561,449084,"0.0-3.183-1.183","1j7u245pzpotkv4","121.csv","","null","resources/maskTrios/L2BB.jpg","null","",NA,NA,NA,NA,""
"image-keyboard-response",562,450288,"0.0-3.183-2.183","1j7u245pzpotkv4","121.csv","","null","resources/images/coin2.png","null","",NA,NA,NA,NA,""
"image-keyboard-response",563,450592,"0.0-3.184-0.184","1j7u245pzpotkv4","121.csv","","302.59999999403954","resources/trios/L1T1A3.jpg","37","restless",0.7,0.5,0.5,0.879238152409816,"false"
"image-keyboard-response",564,450997,"0.0-3.184-1.184","1j7u245pzpotkv4","121.csv","","null","resources/maskTrios/L1BB.jpg","null","",NA,NA,NA,NA,""
"image-keyboard-response",565,452203,"0.0-3.184-2.184","1j7u245pzpotkv4","121.csv","","null","resources/images/fishbone.png","null","",NA,NA,NA,NA,""
"image-keyboard-response",566,452416,"0.0-3.185-0.185","1j7u245pzpotkv4","121.csv","","212.2000000178814","resources/trios/L2T2A3.jpg","39","restless",0.6,0.5,0.5,0.159681364843884,"true"
"image-keyboard-response",567,452819,"0.0-3.185-1.185","1j7u245pzpotkv4","121.csv","","null","resources/maskTrios/BBA3.jpg","null","",NA,NA,NA,NA,""
"image-keyboard-response",568,454024,"0.0-3.185-2.185","1j7u245pzpotkv4","121.csv","","null","resources/images/coin2.png","null","",NA,NA,NA,NA,""
"image-keyboard-response",569,454179,"0.0-3.186-0.186","1j7u245pzpotkv4","121.csv","","154.59999999403954","resources/trios/L2T2A3.jpg","39","restless",0.7,0.5,0.5,0.463016242845421,"true"
"image-keyboard-response",570,454590,"0.0-3.186-1.186","1j7u245pzpotkv4","121.csv","","null","resources/maskTrios/BBA3.jpg","null","",NA,NA,NA,NA,""
"image-keyboard-response",571,455798,"0.0-3.186-2.186","1j7u245pzpotkv4","121.csv","","null","resources/images/coin2.png","null","",NA,NA,NA,NA,""
"image-keyboard-response",572,456004,"0.0-3.187-0.187","1j7u245pzpotkv4","121.csv","","205.7000000178814","resources/trios/L2T2A1.jpg","39","restless",0.7,0.5,0.5,0.286296440819116,"true"
"image-keyboard-response",573,456415,"0.0-3.187-1.187","1j7u245pzpotkv4","121.csv","","null","resources/maskTrios/BBA1.jpg","null","",NA,NA,NA,NA,""
"image-keyboard-response",574,457619,"0.0-3.187-2.187","1j7u245pzpotkv4","121.csv","","null","resources/images/coin2.png","null","",NA,NA,NA,NA,""
"image-keyboard-response",575,457821,"0.0-3.188-0.188","1j7u245pzpotkv4","121.csv","","201.5","resources/trios/L2T1A1.jpg","39","restless",0.6,0.5,0.6,0.335935701397949,"true"
"image-keyboard-response",576,458237,"0.0-3.188-1.188","1j7u245pzpotkv4","121.csv","","null","resources/maskTrios/BBA1.jpg","null","",NA,NA,NA,NA,""
"image-keyboard-response",577,459444,"0.0-3.188-2.188","1j7u245pzpotkv4","121.csv","","null","resources/images/coin2.png","null","",NA,NA,NA,NA,""
"image-keyboard-response",578,459658,"0.0-3.189-0.189","1j7u245pzpotkv4","121.csv","","213","resources/trios/L1T1A1.jpg","39","restless",0.5,0.4,0.6,0.922251437973548,"false"
"image-keyboard-response",579,460063,"0.0-3.189-1.189","1j7u245pzpotkv4","121.csv","","null","resources/maskTrios/BBA1.jpg","null","",NA,NA,NA,NA,""
"image-keyboard-response",580,461273,"0.0-3.189-2.189","1j7u245pzpotkv4","121.csv","","null","resources/images/fishbone.png","null","",NA,NA,NA,NA,""
"image-keyboard-response",581,461482,"0.0-3.190-0.190","1j7u245pzpotkv4","121.csv","","208.2999999821186","resources/trios/L1T2A1.jpg","38","restless",0.5,0.4,0.6,0.0517484843763893,"true"
"image-keyboard-response",582,461891,"0.0-3.190-1.190","1j7u245pzpotkv4","121.csv","","null","resources/maskTrios/BT2B.jpg","null","",NA,NA,NA,NA,""
"image-keyboard-response",583,463098,"0.0-3.190-2.190","1j7u245pzpotkv4","121.csv","","null","resources/images/coin2.png","null","",NA,NA,NA,NA,""
"image-keyboard-response",584,463319,"0.0-3.191-0.191","1j7u245pzpotkv4","121.csv","","219.69999998807907","resources/trios/L2T2A3.jpg","38","restless",0.5,0.4,0.6,0.934438643680366,"false"
"image-keyboard-response",585,463731,"0.0-3.191-1.191","1j7u245pzpotkv4","121.csv","","null","resources/maskTrios/BT2B.jpg","null","",NA,NA,NA,NA,""
"image-keyboard-response",586,464939,"0.0-3.191-2.191","1j7u245pzpotkv4","121.csv","","null","resources/images/fishbone.png","null","",NA,NA,NA,NA,""
"image-keyboard-response",587,465163,"0.0-3.192-0.192","1j7u245pzpotkv4","121.csv","","223.30000001192093","resources/trios/L2T1A3.jpg","37","restless",0.5,0.4,0.6,0.27214341701288,"true"
"image-keyboard-response",588,465574,"0.0-3.192-1.192","1j7u245pzpotkv4","121.csv","","null","resources/maskTrios/L2BB.jpg","null","",NA,NA,NA,NA,""
"image-keyboard-response",589,466775,"0.0-3.192-2.192","1j7u245pzpotkv4","121.csv","","null","resources/images/coin2.png","null","",NA,NA,NA,NA,""
"image-keyboard-response",590,467087,"0.0-3.193-0.193","1j7u245pzpotkv4","121.csv","","311.59999999403954","resources/trios/L2T1A1.jpg","37","restless",0.4,0.4,0.6,0.822008065136308,"false"
"image-keyboard-response",591,467499,"0.0-3.193-1.193","1j7u245pzpotkv4","121.csv","","null","resources/maskTrios/L2BB.jpg","null","",NA,NA,NA,NA,""
"image-keyboard-response",592,468703,"0.0-3.193-2.193","1j7u245pzpotkv4","121.csv","","null","resources/images/fishbone.png","null","",NA,NA,NA,NA,""
"image-keyboard-response",593,468988,"0.0-3.194-0.194","1j7u245pzpotkv4","121.csv","","284.5","resources/trios/L1T1A3.jpg","38","restless",0.4,0.4,0.6,0.174923496289331,"true"
"image-keyboard-response",594,469398,"0.0-3.194-1.194","1j7u245pzpotkv4","121.csv","","null","resources/maskTrios/BT1B.jpg","null","",NA,NA,NA,NA,""
"image-keyboard-response",595,470603,"0.0-3.194-2.194","1j7u245pzpotkv4","121.csv","","null","resources/images/coin2.png","null","",NA,NA,NA,NA,""
"image-keyboard-response",596,470833,"0.0-3.195-0.195","1j7u245pzpotkv4","121.csv","","229.39999997615814","resources/trios/L2T2A3.jpg","39","restless",0.4,0.4,0.6,0.183454942298231,"true"
"image-keyboard-response",597,471247,"0.0-3.195-1.195","1j7u245pzpotkv4","121.csv","","null","resources/maskTrios/BBA3.jpg","null","",NA,NA,NA,NA,""
"image-keyboard-response",598,472463,"0.0-3.195-2.195","1j7u245pzpotkv4","121.csv","","null","resources/images/coin2.png","null","",NA,NA,NA,NA,""
"image-keyboard-response",599,472717,"0.0-3.196-0.196","1j7u245pzpotkv4","121.csv","","252.5","resources/trios/L2T1A1.jpg","38","restless",0.4,0.4,0.6,0.421880803609038,"false"
"image-keyboard-response",600,473127,"0.0-3.196-1.196","1j7u245pzpotkv4","121.csv","","null","resources/maskTrios/BT1B.jpg","null","",NA,NA,NA,NA,""
"image-keyboard-response",601,474333,"0.0-3.196-2.196","1j7u245pzpotkv4","121.csv","","null","resources/images/fishbone.png","null","",NA,NA,NA,NA,""
"image-keyboard-response",602,474586,"0.0-3.197-0.197","1j7u245pzpotkv4","121.csv","","252.2999999821186","resources/trios/L1T1A3.jpg","37","restless",0.4,0.3,0.6,0.599408115506125,"false"
"image-keyboard-response",603,474995,"0.0-3.197-1.197","1j7u245pzpotkv4","121.csv","","null","resources/maskTrios/L1BB.jpg","null","",NA,NA,NA,NA,""
"image-keyboard-response",604,476211,"0.0-3.197-2.197","1j7u245pzpotkv4","121.csv","","null","resources/images/fishbone.png","null","",NA,NA,NA,NA,""
"image-keyboard-response",605,476491,"0.0-3.198-0.198","1j7u245pzpotkv4","121.csv","","278.59999999403954","resources/trios/L1T2A3.jpg","39","restless",0.4,0.3,0.6,0.61628915267257,"false"
"image-keyboard-response",606,476904,"0.0-3.198-1.198","1j7u245pzpotkv4","121.csv","","null","resources/maskTrios/BBA3.jpg","null","",NA,NA,NA,NA,""
"image-keyboard-response",607,478120,"0.0-3.198-2.198","1j7u245pzpotkv4","121.csv","","null","resources/images/fishbone.png","null","",NA,NA,NA,NA,""
"image-keyboard-response",608,478355,"0.0-3.199-0.199","1j7u245pzpotkv4","121.csv","","234.7000000178814","resources/trios/L2T2A3.jpg","38","restless",0.4,0.3,0.6,0.244777229293573,"true"
"image-keyboard-response",609,478766,"0.0-3.199-1.199","1j7u245pzpotkv4","121.csv","","null","resources/maskTrios/BT2B.jpg","null","",NA,NA,NA,NA,""
"image-keyboard-response",610,479972,"0.0-3.199-2.199","1j7u245pzpotkv4","121.csv","","null","resources/images/coin2.png","null","",NA,NA,NA,NA,""
"image-keyboard-response",611,480300,"0.0-3.200-0.200","1j7u245pzpotkv4","121.csv","","327.7000000178814","resources/trios/L2T2A1.jpg","38","restless",0.4,0.3,0.5,0.218127329972545,"true"
"image-keyboard-response",612,480714,"0.0-3.200-1.200","1j7u245pzpotkv4","121.csv","","null","resources/maskTrios/BT2B.jpg","null","",NA,NA,NA,NA,""
"image-keyboard-response",613,481915,"0.0-3.200-2.200","1j7u245pzpotkv4","121.csv","","null","resources/images/coin2.png","null","",NA,NA,NA,NA,""
"image-keyboard-response",614,482240,"0.0-3.201-0.201","1j7u245pzpotkv4","121.csv","","324.40000000596046","resources/trios/L1T1A1.jpg","38","restless",0.4,0.3,0.5,0.815226977511445,"false"
"image-keyboard-response",615,482654,"0.0-3.201-1.201","1j7u245pzpotkv4","121.csv","","null","resources/maskTrios/BT1B.jpg","null","",NA,NA,NA,NA,""
"image-keyboard-response",616,483856,"0.0-3.201-2.201","1j7u245pzpotkv4","121.csv","","null","resources/images/fishbone.png","null","",NA,NA,NA,NA,""
"image-keyboard-response",617,484106,"0.0-3.202-0.202","1j7u245pzpotkv4","121.csv","","249.19999998807907","resources/trios/L1T2A3.jpg","38","restless",0.4,0.3,0.5,0.290441228329188,"true"
"image-keyboard-response",618,484519,"0.0-3.202-1.202","1j7u245pzpotkv4","121.csv","","null","resources/maskTrios/BT2B.jpg","null","",NA,NA,NA,NA,""
"image-keyboard-response",619,485725,"0.0-3.202-2.202","1j7u245pzpotkv4","121.csv","","null","resources/images/coin2.png","null","",NA,NA,NA,NA,""
"image-keyboard-response",620,485929,"0.0-3.203-0.203","1j7u245pzpotkv4","121.csv","","203.7999999821186","resources/trios/L1T1A1.jpg","38","restless",0.4,0.3,0.5,0.894221405564021,"false"
