"trial_type","trial_index","time_elapsed","internal_node_id","subject","participantCode","walkNumber","success","rt","stimulus","key_press","test_part","leftProb","midProb","rightProb","generatedNum","correct"
"pavlovia",0,1288,"0.0-0.0","lpnfflf3dnecn2h",880,"65.csv","","","","","",NA,NA,NA,NA,""
"fullscreen",1,5018,"0.0-1.0","lpnfflf3dnecn2h",880,"65.csv","true","","","","",NA,NA,NA,NA,""
"html-keyboard-response",2,23386,"0.0-2.0-0.0","lpnfflf3dnecn2h",880,"65.csv","","18367","<p><font size='6'>Arrrgh!</p></font><p>Can you be the best pirate? Try to find lots of gold! But beware, some islands have more gold than others, and over time, the island with the most gold may change. Can YOU figure it out? </p><font size='6'>GOOD LUCK, CAPTAIN!!!</font><p>Press any key to begin</p>","32","",NA,NA,NA,NA,""
"image-keyboard-response",3,26402,"0.0-2.0-1.0","lpnfflf3dnecn2h",880,"65.csv","","null","resources/image_sets/111.png","null","",NA,NA,NA,NA,""
"image-keyboard-response",4,36527,"0.0-2.0-2.0","lpnfflf3dnecn2h",880,"65.csv","","10123.299999952316","resources/image_sets/left_highlight.png","37","",NA,NA,NA,NA,""
"image-keyboard-response",5,43791,"0.0-2.0-3.0","lpnfflf3dnecn2h",880,"65.csv","","7261.400000095367","resources/image_sets/mid_highlight.png","38","",NA,NA,NA,NA,""
"image-keyboard-response",6,46513,"0.0-2.0-4.0","lpnfflf3dnecn2h",880,"65.csv","","2720.5","resources/image_sets/right_highlight.png","39","",NA,NA,NA,NA,""
"image-keyboard-response",7,54920,"0.0-2.0-5.0","lpnfflf3dnecn2h",880,"65.csv","","8405.5","resources/image_sets/111.png","13","",NA,NA,NA,NA,""
"image-keyboard-response",8,62089,"0.0-2.0-6.0","lpnfflf3dnecn2h",880,"65.csv","","7168.300000190735","resources/images/coin2.png","13","",NA,NA,NA,NA,""
"image-keyboard-response",9,64482,"0.0-2.0-7.0","lpnfflf3dnecn2h",880,"65.csv","","2390.9000000953674","resources/images/fishbone.png","13","",NA,NA,NA,NA,""
"html-keyboard-response",10,104645,"0.0-2.0-8.0","lpnfflf3dnecn2h",880,"65.csv","","40162.60000014305","<p>Your first journey will be a long one, but you will get a well deserved break at the end</p><p>After the break you will have four more journeys, but each will be much shorter than the first, and you will have breaks in between each</p><p>Press Enter to begin</p>","13","",NA,NA,NA,NA,""
"image-keyboard-response",11,108042,"0.0-3.0-0.0","lpnfflf3dnecn2h",880,"65.csv","","3395","resources/trios/L2T4A3.jpg","37","restless",0.7,0.3,0.9,0.0233509008830344,"true"
"image-keyboard-response",12,108452,"0.0-3.0-1.0","lpnfflf3dnecn2h",880,"65.csv","","null","resources/maskTrios/L2BB.jpg","null","",NA,NA,NA,NA,""
"image-keyboard-response",13,109663,"0.0-3.0-2.0","lpnfflf3dnecn2h",880,"65.csv","","null","resources/images/coin2.png","null","",NA,NA,NA,NA,""
"image-keyboard-response",14,112276,"0.0-3.1-0.1","lpnfflf3dnecn2h",880,"65.csv","","2609.7000000476837","resources/trios/L4T4A3.jpg","37","restless",0.7,0.2,0.9,0.823641014990867,"false"
"image-keyboard-response",15,112679,"0.0-3.1-1.1","lpnfflf3dnecn2h",880,"65.csv","","null","resources/maskTrios/L4BB.jpg","null","",NA,NA,NA,NA,""
"image-keyboard-response",16,113885,"0.0-3.1-2.1","lpnfflf3dnecn2h",880,"65.csv","","null","resources/images/fishbone.png","null","",NA,NA,NA,NA,""
"image-keyboard-response",17,115068,"0.0-3.2-0.2","lpnfflf3dnecn2h",880,"65.csv","","1180.0999999046326","resources/trios/L4T4A3.jpg","39","restless",0.7,0.3,0.9,0.277528864045109,"true"
"image-keyboard-response",18,115475,"0.0-3.2-1.2","lpnfflf3dnecn2h",880,"65.csv","","null","resources/maskTrios/BBA3.jpg","null","",NA,NA,NA,NA,""
"image-keyboard-response",19,116687,"0.0-3.2-2.2","lpnfflf3dnecn2h",880,"65.csv","","null","resources/images/coin2.png","null","",NA,NA,NA,NA,""
"image-keyboard-response",20,120524,"0.0-3.3-0.3","lpnfflf3dnecn2h",880,"65.csv","","3835.100000143051","resources/trios/L2T4A1.jpg","38","restless",0.7,0.3,0.9,0.119823413574884,"true"
"image-keyboard-response",21,120935,"0.0-3.3-1.3","lpnfflf3dnecn2h",880,"65.csv","","null","resources/maskTrios/BT4B.jpg","null","",NA,NA,NA,NA,""
"image-keyboard-response",22,122143,"0.0-3.3-2.3","lpnfflf3dnecn2h",880,"65.csv","","null","resources/images/coin2.png","null","",NA,NA,NA,NA,""
"image-keyboard-response",23,122984,"0.0-3.4-0.4","lpnfflf3dnecn2h",880,"65.csv","","838.7999999523163","resources/trios/L2T4A3.jpg","37","restless",0.7,0.3,0.9,0.587539234017742,"true"
"image-keyboard-response",24,123399,"0.0-3.4-1.4","lpnfflf3dnecn2h",880,"65.csv","","null","resources/maskTrios/L2BB.jpg","null","",NA,NA,NA,NA,""
"image-keyboard-response",25,124607,"0.0-3.4-2.4","lpnfflf3dnecn2h",880,"65.csv","","null","resources/images/coin2.png","null","",NA,NA,NA,NA,""
"image-keyboard-response",26,128106,"0.0-3.5-0.5","lpnfflf3dnecn2h",880,"65.csv","","3497.0999999046326","resources/trios/L2T2A1.jpg","38","restless",0.7,0.3,0.9,0.0264339632283543,"true"
"image-keyboard-response",27,128518,"0.0-3.5-1.5","lpnfflf3dnecn2h",880,"65.csv","","null","resources/maskTrios/BT2B.jpg","null","",NA,NA,NA,NA,""
"image-keyboard-response",28,129722,"0.0-3.5-2.5","lpnfflf3dnecn2h",880,"65.csv","","null","resources/images/coin2.png","null","",NA,NA,NA,NA,""
"image-keyboard-response",29,131503,"0.0-3.6-0.6","lpnfflf3dnecn2h",880,"65.csv","","1778.2999999523163","resources/trios/L4T4A3.jpg","38","restless",0.7,0.3,0.8,0.00647059386384274,"true"
"image-keyboard-response",30,131907,"0.0-3.6-1.6","lpnfflf3dnecn2h",880,"65.csv","","null","resources/maskTrios/BT4B.jpg","null","",NA,NA,NA,NA,""
"image-keyboard-response",31,133117,"0.0-3.6-2.6","lpnfflf3dnecn2h",880,"65.csv","","null","resources/images/coin2.png","null","",NA,NA,NA,NA,""
"image-keyboard-response",32,134419,"0.0-3.7-0.7","lpnfflf3dnecn2h",880,"65.csv","","1300.3999998569489","resources/trios/L2T4A3.jpg","37","restless",0.7,0.3,0.8,0.453743060061656,"true"
"image-keyboard-response",33,134830,"0.0-3.7-1.7","lpnfflf3dnecn2h",880,"65.csv","","null","resources/maskTrios/L2BB.jpg","null","",NA,NA,NA,NA,""
"image-keyboard-response",34,136038,"0.0-3.7-2.7","lpnfflf3dnecn2h",880,"65.csv","","null","resources/images/coin2.png","null","",NA,NA,NA,NA,""
"image-keyboard-response",35,137065,"0.0-3.8-0.8","lpnfflf3dnecn2h",880,"65.csv","","1024.6000001430511","resources/trios/L2T4A1.jpg","38","restless",0.7,0.3,0.8,0.332925888023657,"false"
"image-keyboard-response",36,137478,"0.0-3.8-1.8","lpnfflf3dnecn2h",880,"65.csv","","null","resources/maskTrios/BT4B.jpg","null","",NA,NA,NA,NA,""
"image-keyboard-response",37,138683,"0.0-3.8-2.8","lpnfflf3dnecn2h",880,"65.csv","","null","resources/images/fishbone.png","null","",NA,NA,NA,NA,""
"image-keyboard-response",38,140043,"0.0-3.9-0.9","lpnfflf3dnecn2h",880,"65.csv","","1357.5","resources/trios/L4T2A1.jpg","38","restless",0.7,0.3,0.8,0.75551852237657,"false"
"image-keyboard-response",39,140454,"0.0-3.9-1.9","lpnfflf3dnecn2h",880,"65.csv","","null","resources/maskTrios/BT2B.jpg","null","",NA,NA,NA,NA,""
"image-keyboard-response",40,141662,"0.0-3.9-2.9","lpnfflf3dnecn2h",880,"65.csv","","null","resources/images/fishbone.png","null","",NA,NA,NA,NA,""
"image-keyboard-response",41,142108,"0.0-3.10-0.10","lpnfflf3dnecn2h",880,"65.csv","","443.5","resources/trios/L4T2A3.jpg","37","restless",0.6,0.3,0.8,0.518731514521767,"true"
"image-keyboard-response",42,142518,"0.0-3.10-1.10","lpnfflf3dnecn2h",880,"65.csv","","null","resources/maskTrios/L4BB.jpg","null","",NA,NA,NA,NA,""
"image-keyboard-response",43,143726,"0.0-3.10-2.10","lpnfflf3dnecn2h",880,"65.csv","","null","resources/images/coin2.png","null","",NA,NA,NA,NA,""
"image-keyboard-response",44,145472,"0.0-3.11-0.11","lpnfflf3dnecn2h",880,"65.csv","","1744.2999999523163","resources/trios/L4T2A3.jpg","37","restless",0.6,0.3,0.8,0.401919483019654,"true"
"image-keyboard-response",45,145882,"0.0-3.11-1.11","lpnfflf3dnecn2h",880,"65.csv","","null","resources/maskTrios/L4BB.jpg","null","",NA,NA,NA,NA,""
"image-keyboard-response",46,147094,"0.0-3.11-2.11","lpnfflf3dnecn2h",880,"65.csv","","null","resources/images/coin2.png","null","",NA,NA,NA,NA,""
"image-keyboard-response",47,148433,"0.0-3.12-0.12","lpnfflf3dnecn2h",880,"65.csv","","1336.9000000953674","resources/trios/L4T2A3.jpg","39","restless",0.6,0.3,0.8,0.545649396730948,"true"
"image-keyboard-response",48,148846,"0.0-3.12-1.12","lpnfflf3dnecn2h",880,"65.csv","","null","resources/maskTrios/BBA3.jpg","null","",NA,NA,NA,NA,""
"image-keyboard-response",49,150050,"0.0-3.12-2.12","lpnfflf3dnecn2h",880,"65.csv","","null","resources/images/coin2.png","null","",NA,NA,NA,NA,""
"image-keyboard-response",50,150643,"0.0-3.13-0.13","lpnfflf3dnecn2h",880,"65.csv","","591.3999998569489","resources/trios/L2T4A1.jpg","39","restless",0.6,0.3,0.8,0.548941725012552,"true"
"image-keyboard-response",51,151052,"0.0-3.13-1.13","lpnfflf3dnecn2h",880,"65.csv","","null","resources/maskTrios/BBA1.jpg","null","",NA,NA,NA,NA,""
"image-keyboard-response",52,152262,"0.0-3.13-2.13","lpnfflf3dnecn2h",880,"65.csv","","null","resources/images/coin2.png","null","",NA,NA,NA,NA,""
"image-keyboard-response",53,153319,"0.0-3.14-0.14","lpnfflf3dnecn2h",880,"65.csv","","1055","resources/trios/L4T4A3.jpg","39","restless",0.6,0.3,0.8,0.307511876889409,"true"
"image-keyboard-response",54,153730,"0.0-3.14-1.14","lpnfflf3dnecn2h",880,"65.csv","","null","resources/maskTrios/BBA3.jpg","null","",NA,NA,NA,NA,""
"image-keyboard-response",55,154940,"0.0-3.14-2.14","lpnfflf3dnecn2h",880,"65.csv","","null","resources/images/coin2.png","null","",NA,NA,NA,NA,""
"image-keyboard-response",56,155383,"0.0-3.15-0.15","lpnfflf3dnecn2h",880,"65.csv","","441.10000014305115","resources/trios/L4T2A1.jpg","38","restless",0.6,0.3,0.8,0.479251865338697,"false"
"image-keyboard-response",57,155794,"0.0-3.15-1.15","lpnfflf3dnecn2h",880,"65.csv","","null","resources/maskTrios/BT2B.jpg","null","",NA,NA,NA,NA,""
"image-keyboard-response",58,157006,"0.0-3.15-2.15","lpnfflf3dnecn2h",880,"65.csv","","null","resources/images/fishbone.png","null","",NA,NA,NA,NA,""
"image-keyboard-response",59,158340,"0.0-3.16-0.16","lpnfflf3dnecn2h",880,"65.csv","","1332.7000000476837","resources/trios/L4T4A1.jpg","38","restless",0.6,0.4,0.8,0.926558847692889,"false"
"image-keyboard-response",60,158750,"0.0-3.16-1.16","lpnfflf3dnecn2h",880,"65.csv","","null","resources/maskTrios/BT4B.jpg","null","",NA,NA,NA,NA,""
"image-keyboard-response",61,159958,"0.0-3.16-2.16","lpnfflf3dnecn2h",880,"65.csv","","null","resources/images/fishbone.png","null","",NA,NA,NA,NA,""
"image-keyboard-response",62,160696,"0.0-3.17-0.17","lpnfflf3dnecn2h",880,"65.csv","","736","resources/trios/L2T4A1.jpg","37","restless",0.6,0.5,0.8,0.691413366061625,"false"
"image-keyboard-response",63,161110,"0.0-3.17-1.17","lpnfflf3dnecn2h",880,"65.csv","","null","resources/maskTrios/L2BB.jpg","null","",NA,NA,NA,NA,""
"image-keyboard-response",64,162318,"0.0-3.17-2.17","lpnfflf3dnecn2h",880,"65.csv","","null","resources/images/fishbone.png","null","",NA,NA,NA,NA,""
"image-keyboard-response",65,163036,"0.0-3.18-0.18","lpnfflf3dnecn2h",880,"65.csv","","717","resources/trios/L2T4A3.jpg","39","restless",0.6,0.5,0.8,0.136431608706131,"true"
"image-keyboard-response",66,163446,"0.0-3.18-1.18","lpnfflf3dnecn2h",880,"65.csv","","null","resources/maskTrios/BBA3.jpg","null","",NA,NA,NA,NA,""
"image-keyboard-response",67,164649,"0.0-3.18-2.18","lpnfflf3dnecn2h",880,"65.csv","","null","resources/images/coin2.png","null","",NA,NA,NA,NA,""
"image-keyboard-response",68,165064,"0.0-3.19-0.19","lpnfflf3dnecn2h",880,"65.csv","","412.5","resources/trios/L2T2A1.jpg","39","restless",0.6,0.5,0.8,0.819762749710494,"false"
"image-keyboard-response",69,165477,"0.0-3.19-1.19","lpnfflf3dnecn2h",880,"65.csv","","null","resources/maskTrios/BBA1.jpg","null","",NA,NA,NA,NA,""
"image-keyboard-response",70,166681,"0.0-3.19-2.19","lpnfflf3dnecn2h",880,"65.csv","","null","resources/images/fishbone.png","null","",NA,NA,NA,NA,""
"image-keyboard-response",71,167362,"0.0-3.20-0.20","lpnfflf3dnecn2h",880,"65.csv","","679.5999999046326","resources/trios/L4T4A3.jpg","38","restless",0.6,0.5,0.8,0.137396269102614,"true"
"image-keyboard-response",72,167773,"0.0-3.20-1.20","lpnfflf3dnecn2h",880,"65.csv","","null","resources/maskTrios/BT4B.jpg","null","",NA,NA,NA,NA,""
"image-keyboard-response",73,168981,"0.0-3.20-2.20","lpnfflf3dnecn2h",880,"65.csv","","null","resources/images/coin2.png","null","",NA,NA,NA,NA,""
"image-keyboard-response",74,169611,"0.0-3.21-0.21","lpnfflf3dnecn2h",880,"65.csv","","627","resources/trios/L2T2A3.jpg","37","restless",0.6,0.5,0.8,0.299091452469789,"true"
"image-keyboard-response",75,170021,"0.0-3.21-1.21","lpnfflf3dnecn2h",880,"65.csv","","null","resources/maskTrios/L2BB.jpg","null","",NA,NA,NA,NA,""
"image-keyboard-response",76,171225,"0.0-3.21-2.21","lpnfflf3dnecn2h",880,"65.csv","","null","resources/images/coin2.png","null","",NA,NA,NA,NA,""
"image-keyboard-response",77,171814,"0.0-3.22-0.22","lpnfflf3dnecn2h",880,"65.csv","","587","resources/trios/L4T4A3.jpg","38","restless",0.6,0.5,0.8,0.313553252481735,"true"
"image-keyboard-response",78,172229,"0.0-3.22-1.22","lpnfflf3dnecn2h",880,"65.csv","","null","resources/maskTrios/BT4B.jpg","null","",NA,NA,NA,NA,""
"image-keyboard-response",79,173437,"0.0-3.22-2.22","lpnfflf3dnecn2h",880,"65.csv","","null","resources/images/coin2.png","null","",NA,NA,NA,NA,""
"image-keyboard-response",80,174075,"0.0-3.23-0.23","lpnfflf3dnecn2h",880,"65.csv","","635.1000001430511","resources/trios/L4T2A1.jpg","37","restless",0.6,0.5,0.8,0.695872400963987,"false"
"image-keyboard-response",81,174483,"0.0-3.23-1.23","lpnfflf3dnecn2h",880,"65.csv","","null","resources/maskTrios/L4BB.jpg","null","",NA,NA,NA,NA,""
"image-keyboard-response",82,175693,"0.0-3.23-2.23","lpnfflf3dnecn2h",880,"65.csv","","null","resources/images/fishbone.png","null","",NA,NA,NA,NA,""
"image-keyboard-response",83,176277,"0.0-3.24-0.24","lpnfflf3dnecn2h",880,"65.csv","","581.7999999523163","resources/trios/L4T4A3.jpg","38","restless",0.6,0.4,0.8,0.632845911308056,"false"
"image-keyboard-response",84,176685,"0.0-3.24-1.24","lpnfflf3dnecn2h",880,"65.csv","","null","resources/maskTrios/BT4B.jpg","null","",NA,NA,NA,NA,""
"image-keyboard-response",85,177889,"0.0-3.24-2.24","lpnfflf3dnecn2h",880,"65.csv","","null","resources/images/fishbone.png","null","",NA,NA,NA,NA,""
"image-keyboard-response",86,178312,"0.0-3.25-0.25","lpnfflf3dnecn2h",880,"65.csv","","420.60000014305115","resources/trios/L2T2A3.jpg","39","restless",0.6,0.4,0.8,0.980831594157966,"false"
"image-keyboard-response",87,178721,"0.0-3.25-1.25","lpnfflf3dnecn2h",880,"65.csv","","null","resources/maskTrios/BBA3.jpg","null","",NA,NA,NA,NA,""
"image-keyboard-response",88,179929,"0.0-3.25-2.25","lpnfflf3dnecn2h",880,"65.csv","","null","resources/images/fishbone.png","null","",NA,NA,NA,NA,""
"image-keyboard-response",89,180248,"0.0-3.26-0.26","lpnfflf3dnecn2h",880,"65.csv","","317.2000000476837","resources/trios/L4T2A3.jpg","37","restless",0.5,0.4,0.8,0.959276677352114,"false"
"image-keyboard-response",90,180661,"0.0-3.26-1.26","lpnfflf3dnecn2h",880,"65.csv","","null","resources/maskTrios/L4BB.jpg","null","",NA,NA,NA,NA,""
"image-keyboard-response",91,181869,"0.0-3.26-2.26","lpnfflf3dnecn2h",880,"65.csv","","null","resources/images/fishbone.png","null","",NA,NA,NA,NA,""
"image-keyboard-response",92,182197,"0.0-3.27-0.27","lpnfflf3dnecn2h",880,"65.csv","","326.2999999523163","resources/trios/L2T4A1.jpg","38","restless",0.5,0.4,0.8,0.189588930813787,"true"
"image-keyboard-response",93,182601,"0.0-3.27-1.27","lpnfflf3dnecn2h",880,"65.csv","","null","resources/maskTrios/BT4B.jpg","null","",NA,NA,NA,NA,""
"image-keyboard-response",94,183809,"0.0-3.27-2.27","lpnfflf3dnecn2h",880,"65.csv","","null","resources/images/coin2.png","null","",NA,NA,NA,NA,""
"image-keyboard-response",95,184144,"0.0-3.28-0.28","lpnfflf3dnecn2h",880,"65.csv","","332.7000000476837","resources/trios/L4T4A3.jpg","38","restless",0.5,0.4,0.8,0.23552361214474,"true"
"image-keyboard-response",96,184557,"0.0-3.28-1.28","lpnfflf3dnecn2h",880,"65.csv","","null","resources/maskTrios/BT4B.jpg","null","",NA,NA,NA,NA,""
"image-keyboard-response",97,185765,"0.0-3.28-2.28","lpnfflf3dnecn2h",880,"65.csv","","null","resources/images/coin2.png","null","",NA,NA,NA,NA,""
"image-keyboard-response",98,186094,"0.0-3.29-0.29","lpnfflf3dnecn2h",880,"65.csv","","326.59999990463257","resources/trios/L4T2A1.jpg","38","restless",0.5,0.4,0.8,0.636601165003542,"false"
"image-keyboard-response",99,186501,"0.0-3.29-1.29","lpnfflf3dnecn2h",880,"65.csv","","null","resources/maskTrios/BT2B.jpg","null","",NA,NA,NA,NA,""
"image-keyboard-response",100,187709,"0.0-3.29-2.29","lpnfflf3dnecn2h",880,"65.csv","","null","resources/images/fishbone.png","null","",NA,NA,NA,NA,""
"image-keyboard-response",101,188843,"0.0-3.30-0.30","lpnfflf3dnecn2h",880,"65.csv","","1131.6000001430511","resources/trios/L4T2A3.jpg","38","restless",0.5,0.4,0.8,0.706133609498124,"false"
"image-keyboard-response",102,189252,"0.0-3.30-1.30","lpnfflf3dnecn2h",880,"65.csv","","null","resources/maskTrios/BT2B.jpg","null","",NA,NA,NA,NA,""
"image-keyboard-response",103,190461,"0.0-3.30-2.30","lpnfflf3dnecn2h",880,"65.csv","","null","resources/images/fishbone.png","null","",NA,NA,NA,NA,""
"image-keyboard-response",104,191199,"0.0-3.31-0.31","lpnfflf3dnecn2h",880,"65.csv","","735.6000001430511","resources/trios/L2T2A1.jpg","37","restless",0.5,0.4,0.8,0.339936175615194,"true"
"image-keyboard-response",105,191613,"0.0-3.31-1.31","lpnfflf3dnecn2h",880,"65.csv","","null","resources/maskTrios/L2BB.jpg","null","",NA,NA,NA,NA,""
"image-keyboard-response",106,192821,"0.0-3.31-2.31","lpnfflf3dnecn2h",880,"65.csv","","null","resources/images/coin2.png","null","",NA,NA,NA,NA,""
"image-keyboard-response",107,193339,"0.0-3.32-0.32","lpnfflf3dnecn2h",880,"65.csv","","516.3999998569489","resources/trios/L2T2A3.jpg","37","restless",0.5,0.4,0.8,0.653478916242935,"false"
"image-keyboard-response",108,193745,"0.0-3.32-1.32","lpnfflf3dnecn2h",880,"65.csv","","null","resources/maskTrios/L2BB.jpg","null","",NA,NA,NA,NA,""
"image-keyboard-response",109,194954,"0.0-3.32-2.32","lpnfflf3dnecn2h",880,"65.csv","","null","resources/images/fishbone.png","null","",NA,NA,NA,NA,""
"image-keyboard-response",110,196085,"0.0-3.33-0.33","lpnfflf3dnecn2h",880,"65.csv","","1128.5999999046326","resources/trios/L4T4A3.jpg","39","restless",0.5,0.4,0.8,0.511313139025653,"true"
"image-keyboard-response",111,196489,"0.0-3.33-1.33","lpnfflf3dnecn2h",880,"65.csv","","null","resources/maskTrios/BBA3.jpg","null","",NA,NA,NA,NA,""
"image-keyboard-response",112,197701,"0.0-3.33-2.33","lpnfflf3dnecn2h",880,"65.csv","","null","resources/images/coin2.png","null","",NA,NA,NA,NA,""
"image-keyboard-response",113,198507,"0.0-3.34-0.34","lpnfflf3dnecn2h",880,"65.csv","","804.7000000476837","resources/trios/L2T4A3.jpg","38","restless",0.5,0.4,0.8,0.108467728228717,"true"
"image-keyboard-response",114,198916,"0.0-3.34-1.34","lpnfflf3dnecn2h",880,"65.csv","","null","resources/maskTrios/BT4B.jpg","null","",NA,NA,NA,NA,""
"image-keyboard-response",115,200124,"0.0-3.34-2.34","lpnfflf3dnecn2h",880,"65.csv","","null","resources/images/coin2.png","null","",NA,NA,NA,NA,""
"image-keyboard-response",116,200967,"0.0-3.35-0.35","lpnfflf3dnecn2h",880,"65.csv","","840.5","resources/trios/L2T4A3.jpg","38","restless",0.5,0.4,0.8,0.509390861937192,"false"
"image-keyboard-response",117,201380,"0.0-3.35-1.35","lpnfflf3dnecn2h",880,"65.csv","","null","resources/maskTrios/BT4B.jpg","null","",NA,NA,NA,NA,""
"image-keyboard-response",118,202588,"0.0-3.35-2.35","lpnfflf3dnecn2h",880,"65.csv","","null","resources/images/fishbone.png","null","",NA,NA,NA,NA,""
"image-keyboard-response",119,202980,"0.0-3.36-0.36","lpnfflf3dnecn2h",880,"65.csv","","389.09999990463257","resources/trios/L4T2A1.jpg","37","restless",0.5,0.4,0.8,0.242474268468818,"true"
"image-keyboard-response",120,203388,"0.0-3.36-1.36","lpnfflf3dnecn2h",880,"65.csv","","null","resources/maskTrios/L4BB.jpg","null","",NA,NA,NA,NA,""
"image-keyboard-response",121,204594,"0.0-3.36-2.36","lpnfflf3dnecn2h",880,"65.csv","","null","resources/images/coin2.png","null","",NA,NA,NA,NA,""
"image-keyboard-response",122,205695,"0.0-3.37-0.37","lpnfflf3dnecn2h",880,"65.csv","","1099.5999999046326","resources/trios/L2T4A3.jpg","39","restless",0.4,0.4,0.8,0.993917951202038,"false"
"image-keyboard-response",123,206108,"0.0-3.37-1.37","lpnfflf3dnecn2h",880,"65.csv","","null","resources/maskTrios/BBA3.jpg","null","",NA,NA,NA,NA,""
"image-keyboard-response",124,207312,"0.0-3.37-2.37","lpnfflf3dnecn2h",880,"65.csv","","null","resources/images/fishbone.png","null","",NA,NA,NA,NA,""
"image-keyboard-response",125,207627,"0.0-3.38-0.38","lpnfflf3dnecn2h",880,"65.csv","","312.5","resources/trios/L4T4A3.jpg","38","restless",0.4,0.4,0.8,0.354214301192028,"true"
"image-keyboard-response",126,208036,"0.0-3.38-1.38","lpnfflf3dnecn2h",880,"65.csv","","null","resources/maskTrios/BT4B.jpg","null","",NA,NA,NA,NA,""
"image-keyboard-response",127,209244,"0.0-3.38-2.38","lpnfflf3dnecn2h",880,"65.csv","","null","resources/images/coin2.png","null","",NA,NA,NA,NA,""
"image-keyboard-response",128,209496,"0.0-3.39-0.39","lpnfflf3dnecn2h",880,"65.csv","","249.90000009536743","resources/trios/L2T4A3.jpg","37","restless",0.4,0.4,0.8,0.146334841982932,"true"
"image-keyboard-response",129,209908,"0.0-3.39-1.39","lpnfflf3dnecn2h",880,"65.csv","","null","resources/maskTrios/L2BB.jpg","null","",NA,NA,NA,NA,""
"image-keyboard-response",130,211116,"0.0-3.39-2.39","lpnfflf3dnecn2h",880,"65.csv","","null","resources/images/coin2.png","null","",NA,NA,NA,NA,""
"image-keyboard-response",131,211429,"0.0-3.40-0.40","lpnfflf3dnecn2h",880,"65.csv","","311.09999990463257","resources/trios/L4T2A1.jpg","37","restless",0.4,0.4,0.7,0.474529443936277,"false"
"image-keyboard-response",132,211844,"0.0-3.40-1.40","lpnfflf3dnecn2h",880,"65.csv","","null","resources/maskTrios/L4BB.jpg","null","",NA,NA,NA,NA,""
"image-keyboard-response",133,213052,"0.0-3.40-2.40","lpnfflf3dnecn2h",880,"65.csv","","null","resources/images/fishbone.png","null","",NA,NA,NA,NA,""
"image-keyboard-response",134,213290,"0.0-3.41-0.41","lpnfflf3dnecn2h",880,"65.csv","","235.5","resources/trios/L4T4A3.jpg","38","restless",0.4,0.4,0.7,0.386759434648533,"true"
"image-keyboard-response",135,213700,"0.0-3.41-1.41","lpnfflf3dnecn2h",880,"65.csv","","null","resources/maskTrios/BT4B.jpg","null","",NA,NA,NA,NA,""
"image-keyboard-response",136,214904,"0.0-3.41-2.41","lpnfflf3dnecn2h",880,"65.csv","","null","resources/images/coin2.png","null","",NA,NA,NA,NA,""
"image-keyboard-response",137,215482,"0.0-3.42-0.42","lpnfflf3dnecn2h",880,"65.csv","","575.7999999523163","resources/trios/L4T2A3.jpg","39","restless",0.4,0.4,0.7,0.771567309227383,"false"
"image-keyboard-response",138,215888,"0.0-3.42-1.42","lpnfflf3dnecn2h",880,"65.csv","","null","resources/maskTrios/BBA3.jpg","null","",NA,NA,NA,NA,""
"image-keyboard-response",139,217098,"0.0-3.42-2.42","lpnfflf3dnecn2h",880,"65.csv","","null","resources/images/fishbone.png","null","",NA,NA,NA,NA,""
"image-keyboard-response",140,217396,"0.0-3.43-0.43","lpnfflf3dnecn2h",880,"65.csv","","295.90000009536743","resources/trios/L4T4A3.jpg","38","restless",0.3,0.5,0.7,0.76779416518552,"false"
"image-keyboard-response",141,217804,"0.0-3.43-1.43","lpnfflf3dnecn2h",880,"65.csv","","null","resources/maskTrios/BT4B.jpg","null","",NA,NA,NA,NA,""
"image-keyboard-response",142,219012,"0.0-3.43-2.43","lpnfflf3dnecn2h",880,"65.csv","","null","resources/images/fishbone.png","null","",NA,NA,NA,NA,""
"image-keyboard-response",143,219344,"0.0-3.44-0.44","lpnfflf3dnecn2h",880,"65.csv","","330.2000000476837","resources/trios/L2T2A3.jpg","37","restless",0.3,0.5,0.7,0.563729148334849,"false"
"image-keyboard-response",144,219756,"0.0-3.44-1.44","lpnfflf3dnecn2h",880,"65.csv","","null","resources/maskTrios/L2BB.jpg","null","",NA,NA,NA,NA,""
"image-keyboard-response",145,220960,"0.0-3.44-2.44","lpnfflf3dnecn2h",880,"65.csv","","null","resources/images/fishbone.png","null","",NA,NA,NA,NA,""
"image-keyboard-response",146,221281,"0.0-3.45-0.45","lpnfflf3dnecn2h",880,"65.csv","","319.60000014305115","resources/trios/L4T2A3.jpg","39","restless",0.3,0.4,0.7,0.233803360938524,"true"
"image-keyboard-response",147,221692,"0.0-3.45-1.45","lpnfflf3dnecn2h",880,"65.csv","","null","resources/maskTrios/BBA3.jpg","null","",NA,NA,NA,NA,""
"image-keyboard-response",148,222900,"0.0-3.45-2.45","lpnfflf3dnecn2h",880,"65.csv","","null","resources/images/coin2.png","null","",NA,NA,NA,NA,""
"image-keyboard-response",149,223265,"0.0-3.46-0.46","lpnfflf3dnecn2h",880,"65.csv","","363.7000000476837","resources/trios/L4T2A3.jpg","38","restless",0.4,0.4,0.7,0.593567698995132,"false"
"image-keyboard-response",150,223676,"0.0-3.46-1.46","lpnfflf3dnecn2h",880,"65.csv","","null","resources/maskTrios/BT2B.jpg","null","",NA,NA,NA,NA,""
"image-keyboard-response",151,224884,"0.0-3.46-2.46","lpnfflf3dnecn2h",880,"65.csv","","null","resources/images/fishbone.png","null","",NA,NA,NA,NA,""
"image-keyboard-response",152,225249,"0.0-3.47-0.47","lpnfflf3dnecn2h",880,"65.csv","","362.59999990463257","resources/trios/L4T4A3.jpg","37","restless",0.4,0.4,0.7,0.943398729093291,"false"
"image-keyboard-response",153,225660,"0.0-3.47-1.47","lpnfflf3dnecn2h",880,"65.csv","","null","resources/maskTrios/L4BB.jpg","null","",NA,NA,NA,NA,""
"image-keyboard-response",154,226864,"0.0-3.47-2.47","lpnfflf3dnecn2h",880,"65.csv","","null","resources/images/fishbone.png","null","",NA,NA,NA,NA,""
"image-keyboard-response",155,228089,"0.0-3.48-0.48","lpnfflf3dnecn2h",880,"65.csv","","1222.7000000476837","resources/trios/L2T2A3.jpg","39","restless",0.4,0.4,0.7,0.776678998733379,"false"
"image-keyboard-response",156,228500,"0.0-3.48-1.48","lpnfflf3dnecn2h",880,"65.csv","","null","resources/maskTrios/BBA3.jpg","null","",NA,NA,NA,NA,""
"image-keyboard-response",157,229708,"0.0-3.48-2.48","lpnfflf3dnecn2h",880,"65.csv","","null","resources/images/fishbone.png","null","",NA,NA,NA,NA,""
"image-keyboard-response",158,230156,"0.0-3.49-0.49","lpnfflf3dnecn2h",880,"65.csv","","445.7000000476837","resources/trios/L4T2A1.jpg","38","restless",0.4,0.4,0.7,0.649749671990207,"false"
"image-keyboard-response",159,230564,"0.0-3.49-1.49","lpnfflf3dnecn2h",880,"65.csv","","null","resources/maskTrios/BT2B.jpg","null","",NA,NA,NA,NA,""
"image-keyboard-response",160,231772,"0.0-3.49-2.49","lpnfflf3dnecn2h",880,"65.csv","","null","resources/images/fishbone.png","null","",NA,NA,NA,NA,""
"image-keyboard-response",161,232368,"0.0-3.50-0.50","lpnfflf3dnecn2h",880,"65.csv","","594.2999999523163","resources/trios/L4T2A3.jpg","37","restless",0.4,0.4,0.7,0.30881582938507,"true"
"image-keyboard-response",162,232780,"0.0-3.50-1.50","lpnfflf3dnecn2h",880,"65.csv","","null","resources/maskTrios/L4BB.jpg","null","",NA,NA,NA,NA,""
"image-keyboard-response",163,233988,"0.0-3.50-2.50","lpnfflf3dnecn2h",880,"65.csv","","null","resources/images/coin2.png","null","",NA,NA,NA,NA,""
"image-keyboard-response",164,235739,"0.0-3.51-0.51","lpnfflf3dnecn2h",880,"65.csv","","1749.7999999523163","resources/trios/L2T4A3.jpg","39","restless",0.4,0.4,0.7,0.460623380740763,"true"
"image-keyboard-response",165,236145,"0.0-3.51-1.51","lpnfflf3dnecn2h",880,"65.csv","","null","resources/maskTrios/BBA3.jpg","null","",NA,NA,NA,NA,""
"image-keyboard-response",166,237355,"0.0-3.51-2.51","lpnfflf3dnecn2h",880,"65.csv","","null","resources/images/coin2.png","null","",NA,NA,NA,NA,""
"image-keyboard-response",167,238713,"0.0-3.52-0.52","lpnfflf3dnecn2h",880,"65.csv","","1355.2000000476837","resources/trios/L2T2A3.jpg","39","restless",0.3,0.5,0.7,0.311559259094968,"true"
"image-keyboard-response",168,239119,"0.0-3.52-1.52","lpnfflf3dnecn2h",880,"65.csv","","null","resources/maskTrios/BBA3.jpg","null","",NA,NA,NA,NA,""
"image-keyboard-response",169,240331,"0.0-3.52-2.52","lpnfflf3dnecn2h",880,"65.csv","","null","resources/images/coin2.png","null","",NA,NA,NA,NA,""
"image-keyboard-response",170,242374,"0.0-3.53-0.53","lpnfflf3dnecn2h",880,"65.csv","","2040.7999999523163","resources/trios/L2T2A1.jpg","39","restless",0.3,0.5,0.7,0.270452588749891,"true"
"image-keyboard-response",171,242783,"0.0-3.53-1.53","lpnfflf3dnecn2h",880,"65.csv","","null","resources/maskTrios/BBA1.jpg","null","",NA,NA,NA,NA,""
"image-keyboard-response",172,243995,"0.0-3.53-2.53","lpnfflf3dnecn2h",880,"65.csv","","null","resources/images/coin2.png","null","",NA,NA,NA,NA,""
"image-keyboard-response",173,245537,"0.0-3.54-0.54","lpnfflf3dnecn2h",880,"65.csv","","1539.5999999046326","resources/trios/L4T2A1.jpg","37","restless",0.3,0.5,0.7,0.705493427402876,"false"
"image-keyboard-response",174,245943,"0.0-3.54-1.54","lpnfflf3dnecn2h",880,"65.csv","","null","resources/maskTrios/L4BB.jpg","null","",NA,NA,NA,NA,""
"image-keyboard-response",175,247151,"0.0-3.54-2.54","lpnfflf3dnecn2h",880,"65.csv","","null","resources/images/fishbone.png","null","",NA,NA,NA,NA,""
"image-keyboard-response",176,248218,"0.0-3.55-0.55","lpnfflf3dnecn2h",880,"65.csv","","1064.9000000953674","resources/trios/L2T4A3.jpg","39","restless",0.3,0.5,0.7,0.595292800087109,"true"
"image-keyboard-response",177,248627,"0.0-3.55-1.55","lpnfflf3dnecn2h",880,"65.csv","","null","resources/maskTrios/BBA3.jpg","null","",NA,NA,NA,NA,""
"image-keyboard-response",178,249835,"0.0-3.55-2.55","lpnfflf3dnecn2h",880,"65.csv","","null","resources/images/coin2.png","null","",NA,NA,NA,NA,""
"image-keyboard-response",179,250825,"0.0-3.56-0.56","lpnfflf3dnecn2h",880,"65.csv","","987.7999999523163","resources/trios/L4T4A3.jpg","38","restless",0.3,0.5,0.6,0.827541008000916,"false"
"image-keyboard-response",180,251233,"0.0-3.56-1.56","lpnfflf3dnecn2h",880,"65.csv","","null","resources/maskTrios/BT4B.jpg","null","",NA,NA,NA,NA,""
"image-keyboard-response",181,252443,"0.0-3.56-2.56","lpnfflf3dnecn2h",880,"65.csv","","null","resources/images/fishbone.png","null","",NA,NA,NA,NA,""
"image-keyboard-response",182,253129,"0.0-3.57-0.57","lpnfflf3dnecn2h",880,"65.csv","","684.2000000476837","resources/trios/L4T2A3.jpg","39","restless",0.3,0.5,0.6,0.958318022069798,"false"
"image-keyboard-response",183,253539,"0.0-3.57-1.57","lpnfflf3dnecn2h",880,"65.csv","","null","resources/maskTrios/BBA3.jpg","null","",NA,NA,NA,NA,""
"image-keyboard-response",184,254743,"0.0-3.57-2.57","lpnfflf3dnecn2h",880,"65.csv","","null","resources/images/fishbone.png","null","",NA,NA,NA,NA,""
"image-keyboard-response",185,255573,"0.0-3.58-0.58","lpnfflf3dnecn2h",880,"65.csv","","827.2000000476837","resources/trios/L2T2A1.jpg","37","restless",0.3,0.5,0.6,0.207221208028325,"true"
"image-keyboard-response",186,255987,"0.0-3.58-1.58","lpnfflf3dnecn2h",880,"65.csv","","null","resources/maskTrios/L2BB.jpg","null","",NA,NA,NA,NA,""
"image-keyboard-response",187,257190,"0.0-3.58-2.58","lpnfflf3dnecn2h",880,"65.csv","","null","resources/images/coin2.png","null","",NA,NA,NA,NA,""
"image-keyboard-response",188,257805,"0.0-3.59-0.59","lpnfflf3dnecn2h",880,"65.csv","","612.9000000953674","resources/trios/L2T2A1.jpg","37","restless",0.3,0.4,0.6,0.368629068876778,"false"
"image-keyboard-response",189,258219,"0.0-3.59-1.59","lpnfflf3dnecn2h",880,"65.csv","","null","resources/maskTrios/L2BB.jpg","null","",NA,NA,NA,NA,""
"image-keyboard-response",190,259423,"0.0-3.59-2.59","lpnfflf3dnecn2h",880,"65.csv","","null","resources/images/fishbone.png","null","",NA,NA,NA,NA,""
"image-keyboard-response",191,259768,"0.0-3.60-0.60","lpnfflf3dnecn2h",880,"65.csv","","342.80000019073486","resources/trios/L4T4A3.jpg","38","restless",0.3,0.4,0.6,0.614098611547306,"false"
"image-keyboard-response",192,260179,"0.0-3.60-1.60","lpnfflf3dnecn2h",880,"65.csv","","null","resources/maskTrios/BT4B.jpg","null","",NA,NA,NA,NA,""
"image-keyboard-response",193,261387,"0.0-3.60-2.60","lpnfflf3dnecn2h",880,"65.csv","","null","resources/images/fishbone.png","null","",NA,NA,NA,NA,""
"image-keyboard-response",194,261710,"0.0-3.61-0.61","lpnfflf3dnecn2h",880,"65.csv","","321","resources/trios/L2T2A1.jpg","39","restless",0.3,0.4,0.6,0.203832629231149,"true"
"image-keyboard-response",195,262123,"0.0-3.61-1.61","lpnfflf3dnecn2h",880,"65.csv","","null","resources/maskTrios/BBA1.jpg","null","",NA,NA,NA,NA,""
"image-keyboard-response",196,263331,"0.0-3.61-2.61","lpnfflf3dnecn2h",880,"65.csv","","null","resources/images/coin2.png","null","",NA,NA,NA,NA,""
"image-keyboard-response",197,263948,"0.0-3.62-0.62","lpnfflf3dnecn2h",880,"65.csv","","615.2999999523163","resources/trios/L2T2A3.jpg","39","restless",0.4,0.4,0.6,0.988596122676867,"false"
"image-keyboard-response",198,264363,"0.0-3.62-1.62","lpnfflf3dnecn2h",880,"65.csv","","null","resources/maskTrios/BBA3.jpg","null","",NA,NA,NA,NA,""
"image-keyboard-response",199,265571,"0.0-3.62-2.62","lpnfflf3dnecn2h",880,"65.csv","","null","resources/images/fishbone.png","null","",NA,NA,NA,NA,""
"image-keyboard-response",200,266175,"0.0-3.63-0.63","lpnfflf3dnecn2h",880,"65.csv","","602.5","resources/trios/L2T4A1.jpg","38","restless",0.5,0.5,0.6,0.682097271720629,"false"
"image-keyboard-response",201,266587,"0.0-3.63-1.63","lpnfflf3dnecn2h",880,"65.csv","","null","resources/maskTrios/BT4B.jpg","null","",NA,NA,NA,NA,""
"image-keyboard-response",202,267795,"0.0-3.63-2.63","lpnfflf3dnecn2h",880,"65.csv","","null","resources/images/fishbone.png","null","",NA,NA,NA,NA,""
"image-keyboard-response",203,268191,"0.0-3.64-0.64","lpnfflf3dnecn2h",880,"65.csv","","394.59999990463257","resources/trios/L2T4A1.jpg","37","restless",0.5,0.5,0.6,0.986686556672582,"false"
"image-keyboard-response",204,268603,"0.0-3.64-1.64","lpnfflf3dnecn2h",880,"65.csv","","null","resources/maskTrios/L2BB.jpg","null","",NA,NA,NA,NA,""
"image-keyboard-response",205,269806,"0.0-3.64-2.64","lpnfflf3dnecn2h",880,"65.csv","","null","resources/images/fishbone.png","null","",NA,NA,NA,NA,""
"image-keyboard-response",206,275440,"0.0-3.65-0.65","lpnfflf3dnecn2h",880,"65.csv","","5632.5","resources/trios/L2T2A1.jpg","38","restless",0.5,0.5,0.6,0.859354920917816,"false"
"image-keyboard-response",207,275848,"0.0-3.65-1.65","lpnfflf3dnecn2h",880,"65.csv","","null","resources/maskTrios/BT2B.jpg","null","",NA,NA,NA,NA,""
"image-keyboard-response",208,277057,"0.0-3.65-2.65","lpnfflf3dnecn2h",880,"65.csv","","null","resources/images/fishbone.png","null","",NA,NA,NA,NA,""
"image-keyboard-response",209,277562,"0.0-3.66-0.66","lpnfflf3dnecn2h",880,"65.csv","","502.39999985694885","resources/trios/L2T4A3.jpg","39","restless",0.4,0.5,0.6,0.265748061494838,"true"
"image-keyboard-response",210,277966,"0.0-3.66-1.66","lpnfflf3dnecn2h",880,"65.csv","","null","resources/maskTrios/BBA3.jpg","null","",NA,NA,NA,NA,""
"image-keyboard-response",211,279178,"0.0-3.66-2.66","lpnfflf3dnecn2h",880,"65.csv","","null","resources/images/coin2.png","null","",NA,NA,NA,NA,""
"image-keyboard-response",212,279584,"0.0-3.67-0.67","lpnfflf3dnecn2h",880,"65.csv","","403.7000000476837","resources/trios/L2T2A3.jpg","39","restless",0.4,0.5,0.5,0.81965125388004,"false"
"image-keyboard-response",213,279994,"0.0-3.67-1.67","lpnfflf3dnecn2h",880,"65.csv","","null","resources/maskTrios/BBA3.jpg","null","",NA,NA,NA,NA,""
"image-keyboard-response",214,281202,"0.0-3.67-2.67","lpnfflf3dnecn2h",880,"65.csv","","null","resources/images/fishbone.png","null","",NA,NA,NA,NA,""
"image-keyboard-response",215,281537,"0.0-3.68-0.68","lpnfflf3dnecn2h",880,"65.csv","","332.69999980926514","resources/trios/L4T2A3.jpg","37","restless",0.4,0.5,0.5,0.666342196631253,"false"
"image-keyboard-response",216,281946,"0.0-3.68-1.68","lpnfflf3dnecn2h",880,"65.csv","","null","resources/maskTrios/L4BB.jpg","null","",NA,NA,NA,NA,""
"image-keyboard-response",217,283154,"0.0-3.68-2.68","lpnfflf3dnecn2h",880,"65.csv","","null","resources/images/fishbone.png","null","",NA,NA,NA,NA,""
"image-keyboard-response",218,283570,"0.0-3.69-0.69","lpnfflf3dnecn2h",880,"65.csv","","413.69999980926514","resources/trios/L4T4A3.jpg","38","restless",0.4,0.5,0.6,0.997464190618401,"false"
"image-keyboard-response",219,283978,"0.0-3.69-1.69","lpnfflf3dnecn2h",880,"65.csv","","null","resources/maskTrios/BT4B.jpg","null","",NA,NA,NA,NA,""
"image-keyboard-response",220,285186,"0.0-3.69-2.69","lpnfflf3dnecn2h",880,"65.csv","","null","resources/images/fishbone.png","null","",NA,NA,NA,NA,""
"image-keyboard-response",221,285384,"0.0-3.70-0.70","lpnfflf3dnecn2h",880,"65.csv","","195.19999980926514","resources/trios/L2T2A1.jpg","37","restless",0.4,0.5,0.6,0.920062141067753,"false"
"image-keyboard-response",222,285792,"0.0-3.70-1.70","lpnfflf3dnecn2h",880,"65.csv","","null","resources/maskTrios/L2BB.jpg","null","",NA,NA,NA,NA,""
"image-keyboard-response",223,287002,"0.0-3.70-2.70","lpnfflf3dnecn2h",880,"65.csv","","null","resources/images/fishbone.png","null","",NA,NA,NA,NA,""
"image-keyboard-response",224,287366,"0.0-3.71-0.71","lpnfflf3dnecn2h",880,"65.csv","","361.2999999523163","resources/trios/L4T2A3.jpg","39","restless",0.4,0.5,0.6,0.718484074069796,"false"
"image-keyboard-response",225,287778,"0.0-3.71-1.71","lpnfflf3dnecn2h",880,"65.csv","","null","resources/maskTrios/BBA3.jpg","null","",NA,NA,NA,NA,""
"image-keyboard-response",226,288986,"0.0-3.71-2.71","lpnfflf3dnecn2h",880,"65.csv","","null","resources/images/fishbone.png","null","",NA,NA,NA,NA,""
"image-keyboard-response",227,289251,"0.0-3.72-0.72","lpnfflf3dnecn2h",880,"65.csv","","263.19999980926514","resources/trios/L4T4A1.jpg","38","restless",0.4,0.5,0.6,0.0451919800257798,"true"
"image-keyboard-response",228,289662,"0.0-3.72-1.72","lpnfflf3dnecn2h",880,"65.csv","","null","resources/maskTrios/BT4B.jpg","null","",NA,NA,NA,NA,""
"image-keyboard-response",229,290874,"0.0-3.72-2.72","lpnfflf3dnecn2h",880,"65.csv","","null","resources/images/coin2.png","null","",NA,NA,NA,NA,""
"image-keyboard-response",230,291205,"0.0-3.73-0.73","lpnfflf3dnecn2h",880,"65.csv","","328.60000014305115","resources/trios/L4T4A1.jpg","37","restless",0.4,0.5,0.6,0.528306599851986,"false"
"image-keyboard-response",231,291618,"0.0-3.73-1.73","lpnfflf3dnecn2h",880,"65.csv","","null","resources/maskTrios/L4BB.jpg","null","",NA,NA,NA,NA,""
"image-keyboard-response",232,292826,"0.0-3.73-2.73","lpnfflf3dnecn2h",880,"65.csv","","null","resources/images/fishbone.png","null","",NA,NA,NA,NA,""
"image-keyboard-response",233,293220,"0.0-3.74-0.74","lpnfflf3dnecn2h",880,"65.csv","","391.89999985694885","resources/trios/L2T2A3.jpg","38","restless",0.4,0.5,0.6,0.803027486032349,"false"
"image-keyboard-response",234,293634,"0.0-3.74-1.74","lpnfflf3dnecn2h",880,"65.csv","","null","resources/maskTrios/BT2B.jpg","null","",NA,NA,NA,NA,""
"image-keyboard-response",235,294842,"0.0-3.74-2.74","lpnfflf3dnecn2h",880,"65.csv","","null","resources/images/fishbone.png","null","",NA,NA,NA,NA,""
"image-keyboard-response",236,295342,"0.0-3.75-0.75","lpnfflf3dnecn2h",880,"65.csv","","498.10000014305115","resources/trios/L2T2A3.jpg","37","restless",0.4,0.5,0.6,0.319921263529025,"true"
"image-keyboard-response",237,295753,"0.0-3.75-1.75","lpnfflf3dnecn2h",880,"65.csv","","null","resources/maskTrios/L2BB.jpg","null","",NA,NA,NA,NA,""
"image-keyboard-response",238,296962,"0.0-3.75-2.75","lpnfflf3dnecn2h",880,"65.csv","","null","resources/images/coin2.png","null","",NA,NA,NA,NA,""
"image-keyboard-response",239,297629,"0.0-3.76-0.76","lpnfflf3dnecn2h",880,"65.csv","","664.7999999523163","resources/trios/L4T2A1.jpg","39","restless",0.4,0.5,0.6,0.139225998414431,"true"
"image-keyboard-response",240,298041,"0.0-3.76-1.76","lpnfflf3dnecn2h",880,"65.csv","","null","resources/maskTrios/BBA1.jpg","null","",NA,NA,NA,NA,""
"image-keyboard-response",241,299250,"0.0-3.76-2.76","lpnfflf3dnecn2h",880,"65.csv","","null","resources/images/coin2.png","null","",NA,NA,NA,NA,""
"image-keyboard-response",242,299546,"0.0-3.77-0.77","lpnfflf3dnecn2h",880,"65.csv","","293.89999985694885","resources/trios/L2T4A3.jpg","38","restless",0.4,0.5,0.5,0.231822590708819,"true"
"image-keyboard-response",243,299954,"0.0-3.77-1.77","lpnfflf3dnecn2h",880,"65.csv","","null","resources/maskTrios/BT4B.jpg","null","",NA,NA,NA,NA,""
"image-keyboard-response",244,301162,"0.0-3.77-2.77","lpnfflf3dnecn2h",880,"65.csv","","null","resources/images/coin2.png","null","",NA,NA,NA,NA,""
"image-keyboard-response",245,301586,"0.0-3.78-0.78","lpnfflf3dnecn2h",880,"65.csv","","421.7999999523163","resources/trios/L4T4A3.jpg","37","restless",0.4,0.6,0.5,0.0728330004831406,"true"
"image-keyboard-response",246,301990,"0.0-3.78-1.78","lpnfflf3dnecn2h",880,"65.csv","","null","resources/maskTrios/L4BB.jpg","null","",NA,NA,NA,NA,""
"image-keyboard-response",247,303202,"0.0-3.78-2.78","lpnfflf3dnecn2h",880,"65.csv","","null","resources/images/coin2.png","null","",NA,NA,NA,NA,""
"image-keyboard-response",248,303791,"0.0-3.79-0.79","lpnfflf3dnecn2h",880,"65.csv","","586.8999998569489","resources/trios/L2T4A1.jpg","37","restless",0.4,0.6,0.5,0.032021153588756,"true"
"image-keyboard-response",249,304199,"0.0-3.79-1.79","lpnfflf3dnecn2h",880,"65.csv","","null","resources/maskTrios/L2BB.jpg","null","",NA,NA,NA,NA,""
"image-keyboard-response",250,305405,"0.0-3.79-2.79","lpnfflf3dnecn2h",880,"65.csv","","null","resources/images/coin2.png","null","",NA,NA,NA,NA,""
"image-keyboard-response",251,306153,"0.0-3.80-0.80","lpnfflf3dnecn2h",880,"65.csv","","745.3000001907349","resources/trios/L2T4A1.jpg","38","restless",0.4,0.6,0.5,0.920278438817117,"false"
"image-keyboard-response",252,306562,"0.0-3.80-1.80","lpnfflf3dnecn2h",880,"65.csv","","null","resources/maskTrios/BT4B.jpg","null","",NA,NA,NA,NA,""
"image-keyboard-response",253,307769,"0.0-3.80-2.80","lpnfflf3dnecn2h",880,"65.csv","","null","resources/images/fishbone.png","null","",NA,NA,NA,NA,""
"image-keyboard-response",254,308105,"0.0-3.81-0.81","lpnfflf3dnecn2h",880,"65.csv","","333.5","resources/trios/L4T4A3.jpg","39","restless",0.4,0.6,0.5,0.962348027231364,"false"
"image-keyboard-response",255,308513,"0.0-3.81-1.81","lpnfflf3dnecn2h",880,"65.csv","","null","resources/maskTrios/BBA3.jpg","null","",NA,NA,NA,NA,""
"image-keyboard-response",256,309717,"0.0-3.81-2.81","lpnfflf3dnecn2h",880,"65.csv","","null","resources/images/fishbone.png","null","",NA,NA,NA,NA,""
"image-keyboard-response",257,310036,"0.0-3.82-0.82","lpnfflf3dnecn2h",880,"65.csv","","316.2000000476837","resources/trios/L2T2A3.jpg","37","restless",0.4,0.6,0.5,0.938808862273632,"false"
"image-keyboard-response",258,310445,"0.0-3.82-1.82","lpnfflf3dnecn2h",880,"65.csv","","null","resources/maskTrios/L2BB.jpg","null","",NA,NA,NA,NA,""
"image-keyboard-response",259,311653,"0.0-3.82-2.82","lpnfflf3dnecn2h",880,"65.csv","","null","resources/images/fishbone.png","null","",NA,NA,NA,NA,""
"image-keyboard-response",260,312001,"0.0-3.83-0.83","lpnfflf3dnecn2h",880,"65.csv","","346.59999990463257","resources/trios/L4T4A1.jpg","38","restless",0.4,0.6,0.5,0.0245714817861438,"true"
"image-keyboard-response",261,312409,"0.0-3.83-1.83","lpnfflf3dnecn2h",880,"65.csv","","null","resources/maskTrios/BT4B.jpg","null","",NA,NA,NA,NA,""
"image-keyboard-response",262,313617,"0.0-3.83-2.83","lpnfflf3dnecn2h",880,"65.csv","","null","resources/images/coin2.png","null","",NA,NA,NA,NA,""
"image-keyboard-response",263,313951,"0.0-3.84-0.84","lpnfflf3dnecn2h",880,"65.csv","","331.2999999523163","resources/trios/L2T4A3.jpg","38","restless",0.4,0.7,0.5,0.902262235900982,"false"
"image-keyboard-response",264,314361,"0.0-3.84-1.84","lpnfflf3dnecn2h",880,"65.csv","","null","resources/maskTrios/BT4B.jpg","null","",NA,NA,NA,NA,""
"image-keyboard-response",265,315569,"0.0-3.84-2.84","lpnfflf3dnecn2h",880,"65.csv","","null","resources/images/fishbone.png","null","",NA,NA,NA,NA,""
"image-keyboard-response",266,316209,"0.0-3.85-0.85","lpnfflf3dnecn2h",880,"65.csv","","637.9000000953674","resources/trios/L2T2A3.jpg","37","restless",0.4,0.7,0.5,0.464290633448839,"false"
"image-keyboard-response",267,316617,"0.0-3.85-1.85","lpnfflf3dnecn2h",880,"65.csv","","null","resources/maskTrios/L2BB.jpg","null","",NA,NA,NA,NA,""
"image-keyboard-response",268,317821,"0.0-3.85-2.85","lpnfflf3dnecn2h",880,"65.csv","","null","resources/images/fishbone.png","null","",NA,NA,NA,NA,""
"image-keyboard-response",269,318180,"0.0-3.86-0.86","lpnfflf3dnecn2h",880,"65.csv","","356.40000009536743","resources/trios/L4T2A3.jpg","39","restless",0.4,0.7,0.5,0.887280649045052,"false"
"image-keyboard-response",270,318590,"0.0-3.86-1.86","lpnfflf3dnecn2h",880,"65.csv","","null","resources/maskTrios/BBA3.jpg","null","",NA,NA,NA,NA,""
"image-keyboard-response",271,319801,"0.0-3.86-2.86","lpnfflf3dnecn2h",880,"65.csv","","null","resources/images/fishbone.png","null","",NA,NA,NA,NA,""
"image-keyboard-response",272,320744,"0.0-3.87-0.87","lpnfflf3dnecn2h",880,"65.csv","","940.0999999046326","resources/trios/L4T2A3.jpg","38","restless",0.4,0.7,0.5,0.944689517898483,"false"
"image-keyboard-response",273,321153,"0.0-3.87-1.87","lpnfflf3dnecn2h",880,"65.csv","","null","resources/maskTrios/BT2B.jpg","null","",NA,NA,NA,NA,""
"image-keyboard-response",274,322361,"0.0-3.87-2.87","lpnfflf3dnecn2h",880,"65.csv","","null","resources/images/fishbone.png","null","",NA,NA,NA,NA,""
"image-keyboard-response",275,322732,"0.0-3.88-0.88","lpnfflf3dnecn2h",880,"65.csv","","368.60000014305115","resources/trios/L4T2A3.jpg","37","restless",0.4,0.7,0.5,0.0147305586010524,"true"
"image-keyboard-response",276,323145,"0.0-3.88-1.88","lpnfflf3dnecn2h",880,"65.csv","","null","resources/maskTrios/L4BB.jpg","null","",NA,NA,NA,NA,""
"image-keyboard-response",277,324349,"0.0-3.88-2.88","lpnfflf3dnecn2h",880,"65.csv","","null","resources/images/coin2.png","null","",NA,NA,NA,NA,""
"image-keyboard-response",278,325136,"0.0-3.89-0.89","lpnfflf3dnecn2h",880,"65.csv","","784.1999998092651","resources/trios/L2T4A1.jpg","39","restless",0.4,0.8,0.5,0.959922805068412,"false"
"image-keyboard-response",279,325541,"0.0-3.89-1.89","lpnfflf3dnecn2h",880,"65.csv","","null","resources/maskTrios/BBA1.jpg","null","",NA,NA,NA,NA,""
"image-keyboard-response",280,326749,"0.0-3.89-2.89","lpnfflf3dnecn2h",880,"65.csv","","null","resources/images/fishbone.png","null","",NA,NA,NA,NA,""
"image-keyboard-response",281,327172,"0.0-3.90-0.90","lpnfflf3dnecn2h",880,"65.csv","","421.09999990463257","resources/trios/L4T4A3.jpg","37","restless",0.4,0.8,0.5,0.0642547162057794,"true"
"image-keyboard-response",282,327585,"0.0-3.90-1.90","lpnfflf3dnecn2h",880,"65.csv","","null","resources/maskTrios/L4BB.jpg","null","",NA,NA,NA,NA,""
"image-keyboard-response",283,328791,"0.0-3.90-2.90","lpnfflf3dnecn2h",880,"65.csv","","null","resources/images/coin2.png","null","",NA,NA,NA,NA,""
"image-keyboard-response",284,329646,"0.0-3.91-0.91","lpnfflf3dnecn2h",880,"65.csv","","853","resources/trios/L2T4A1.jpg","37","restless",0.4,0.8,0.5,0.0592403317956749,"true"
"image-keyboard-response",285,330057,"0.0-3.91-1.91","lpnfflf3dnecn2h",880,"65.csv","","null","resources/maskTrios/L2BB.jpg","null","",NA,NA,NA,NA,""
"image-keyboard-response",286,331265,"0.0-3.91-2.91","lpnfflf3dnecn2h",880,"65.csv","","null","resources/images/coin2.png","null","",NA,NA,NA,NA,""
"image-keyboard-response",287,331592,"0.0-3.92-0.92","lpnfflf3dnecn2h",880,"65.csv","","325","resources/trios/L2T4A1.jpg","38","restless",0.4,0.8,0.5,0.875325210336941,"false"
"image-keyboard-response",288,332001,"0.0-3.92-1.92","lpnfflf3dnecn2h",880,"65.csv","","null","resources/maskTrios/BT4B.jpg","null","",NA,NA,NA,NA,""
"image-keyboard-response",289,333209,"0.0-3.92-2.92","lpnfflf3dnecn2h",880,"65.csv","","null","resources/images/fishbone.png","null","",NA,NA,NA,NA,""
"image-keyboard-response",290,333609,"0.0-3.93-0.93","lpnfflf3dnecn2h",880,"65.csv","","397.69999980926514","resources/trios/L4T2A3.jpg","37","restless",0.4,0.7,0.5,0.661479267392105,"false"
"image-keyboard-response",291,334017,"0.0-3.93-1.93","lpnfflf3dnecn2h",880,"65.csv","","null","resources/maskTrios/L4BB.jpg","null","",NA,NA,NA,NA,""
"image-keyboard-response",292,335225,"0.0-3.93-2.93","lpnfflf3dnecn2h",880,"65.csv","","null","resources/images/fishbone.png","null","",NA,NA,NA,NA,""
"image-keyboard-response",293,335522,"0.0-3.94-0.94","lpnfflf3dnecn2h",880,"65.csv","","295.09999990463257","resources/trios/L2T2A3.jpg","39","restless",0.4,0.7,0.5,0.274139696046962,"true"
"image-keyboard-response",294,335934,"0.0-3.94-1.94","lpnfflf3dnecn2h",880,"65.csv","","null","resources/maskTrios/BBA3.jpg","null","",NA,NA,NA,NA,""
"image-keyboard-response",295,337145,"0.0-3.94-2.94","lpnfflf3dnecn2h",880,"65.csv","","null","resources/images/coin2.png","null","",NA,NA,NA,NA,""
"image-keyboard-response",296,337778,"0.0-3.95-0.95","lpnfflf3dnecn2h",880,"65.csv","","630.6999998092651","resources/trios/L2T2A3.jpg","39","restless",0.4,0.7,0.5,0.628417537081494,"false"
"image-keyboard-response",297,338193,"0.0-3.95-1.95","lpnfflf3dnecn2h",880,"65.csv","","null","resources/maskTrios/BBA3.jpg","null","",NA,NA,NA,NA,""
"image-keyboard-response",298,339400,"0.0-3.95-2.95","lpnfflf3dnecn2h",880,"65.csv","","null","resources/images/fishbone.png","null","",NA,NA,NA,NA,""
"image-keyboard-response",299,340885,"0.0-3.96-0.96","lpnfflf3dnecn2h",880,"65.csv","","1482.1000001430511","resources/trios/L2T4A3.jpg","38","restless",0.4,0.7,0.5,0.207177675877009,"true"
"image-keyboard-response",300,341296,"0.0-3.96-1.96","lpnfflf3dnecn2h",880,"65.csv","","null","resources/maskTrios/BT4B.jpg","null","",NA,NA,NA,NA,""
"image-keyboard-response",301,342505,"0.0-3.96-2.96","lpnfflf3dnecn2h",880,"65.csv","","null","resources/images/coin2.png","null","",NA,NA,NA,NA,""
"image-keyboard-response",302,343147,"0.0-3.97-0.97","lpnfflf3dnecn2h",880,"65.csv","","640.1000001430511","resources/trios/L4T4A3.jpg","37","restless",0.5,0.7,0.5,0.02076309833247,"true"
"image-keyboard-response",303,343556,"0.0-3.97-1.97","lpnfflf3dnecn2h",880,"65.csv","","null","resources/maskTrios/L4BB.jpg","null","",NA,NA,NA,NA,""
"image-keyboard-response",304,344764,"0.0-3.97-2.97","lpnfflf3dnecn2h",880,"65.csv","","null","resources/images/coin2.png","null","",NA,NA,NA,NA,""
"image-keyboard-response",305,345334,"0.0-3.98-0.98","lpnfflf3dnecn2h",880,"65.csv","","567.2999999523163","resources/trios/L4T4A1.jpg","39","restless",0.6,0.7,0.5,0.959127976325348,"false"
"image-keyboard-response",306,345744,"0.0-3.98-1.98","lpnfflf3dnecn2h",880,"65.csv","","null","resources/maskTrios/BBA1.jpg","null","",NA,NA,NA,NA,""
"image-keyboard-response",307,346948,"0.0-3.98-2.98","lpnfflf3dnecn2h",880,"65.csv","","null","resources/images/fishbone.png","null","",NA,NA,NA,NA,""
"image-keyboard-response",308,347493,"0.0-3.99-0.99","lpnfflf3dnecn2h",880,"65.csv","","541.9000000953674","resources/trios/L2T4A3.jpg","38","restless",0.6,0.7,0.5,0.900736434198554,"false"
"image-keyboard-response",309,347904,"0.0-3.99-1.99","lpnfflf3dnecn2h",880,"65.csv","","null","resources/maskTrios/BT4B.jpg","null","",NA,NA,NA,NA,""
"image-keyboard-response",310,349108,"0.0-3.99-2.99","lpnfflf3dnecn2h",880,"65.csv","","null","resources/images/fishbone.png","null","",NA,NA,NA,NA,""
"image-keyboard-response",311,349493,"0.0-3.100-0.100","lpnfflf3dnecn2h",880,"65.csv","","382.89999985694885","resources/trios/L2T4A1.jpg","37","restless",0.6,0.8,0.5,0.777150130146031,"false"
"image-keyboard-response",312,349900,"0.0-3.100-1.100","lpnfflf3dnecn2h",880,"65.csv","","null","resources/maskTrios/L2BB.jpg","null","",NA,NA,NA,NA,""
"image-keyboard-response",313,351108,"0.0-3.100-2.100","lpnfflf3dnecn2h",880,"65.csv","","null","resources/images/fishbone.png","null","",NA,NA,NA,NA,""
"image-keyboard-response",314,351451,"0.0-3.101-0.101","lpnfflf3dnecn2h",880,"65.csv","","340.5","resources/trios/L4T4A1.jpg","39","restless",0.6,0.8,0.5,0.255609748120301,"true"
"image-keyboard-response",315,351864,"0.0-3.101-1.101","lpnfflf3dnecn2h",880,"65.csv","","null","resources/maskTrios/BBA1.jpg","null","",NA,NA,NA,NA,""
"image-keyboard-response",316,353072,"0.0-3.101-2.101","lpnfflf3dnecn2h",880,"65.csv","","null","resources/images/coin2.png","null","",NA,NA,NA,NA,""
"image-keyboard-response",317,353464,"0.0-3.102-0.102","lpnfflf3dnecn2h",880,"65.csv","","389.89999985694885","resources/trios/L4T2A3.jpg","38","restless",0.6,0.9,0.5,0.0162560111519241,"true"
"image-keyboard-response",318,353872,"0.0-3.102-1.102","lpnfflf3dnecn2h",880,"65.csv","","null","resources/maskTrios/BT2B.jpg","null","",NA,NA,NA,NA,""
"image-keyboard-response",319,355076,"0.0-3.102-2.102","lpnfflf3dnecn2h",880,"65.csv","","null","resources/images/coin2.png","null","",NA,NA,NA,NA,""
"image-keyboard-response",320,355409,"0.0-3.103-0.103","lpnfflf3dnecn2h",880,"65.csv","","330.40000009536743","resources/trios/L4T2A3.jpg","37","restless",0.6,0.9,0.5,0.497013268753153,"true"
"image-keyboard-response",321,355824,"0.0-3.103-1.103","lpnfflf3dnecn2h",880,"65.csv","","null","resources/maskTrios/L4BB.jpg","null","",NA,NA,NA,NA,""
"image-keyboard-response",322,357032,"0.0-3.103-2.103","lpnfflf3dnecn2h",880,"65.csv","","null","resources/images/coin2.png","null","",NA,NA,NA,NA,""
"image-keyboard-response",323,357366,"0.0-3.104-0.104","lpnfflf3dnecn2h",880,"65.csv","","331.89999985694885","resources/trios/L2T4A3.jpg","39","restless",0.6,0.9,0.5,0.195309347717434,"true"
"image-keyboard-response",324,357773,"0.0-3.104-1.104","lpnfflf3dnecn2h",880,"65.csv","","null","resources/maskTrios/BBA3.jpg","null","",NA,NA,NA,NA,""
"image-keyboard-response",325,358984,"0.0-3.104-2.104","lpnfflf3dnecn2h",880,"65.csv","","null","resources/images/coin2.png","null","",NA,NA,NA,NA,""
"image-keyboard-response",326,359357,"0.0-3.105-0.105","lpnfflf3dnecn2h",880,"65.csv","","370.5","resources/trios/L2T4A3.jpg","38","restless",0.6,0.9,0.5,0.860345617239512,"true"
"image-keyboard-response",327,359765,"0.0-3.105-1.105","lpnfflf3dnecn2h",880,"65.csv","","null","resources/maskTrios/BT4B.jpg","null","",NA,NA,NA,NA,""
"image-keyboard-response",328,360975,"0.0-3.105-2.105","lpnfflf3dnecn2h",880,"65.csv","","null","resources/images/coin2.png","null","",NA,NA,NA,NA,""
"image-keyboard-response",329,361342,"0.0-3.106-0.106","lpnfflf3dnecn2h",880,"65.csv","","364.7999999523163","resources/trios/L4T2A1.jpg","37","restless",0.6,0.9,0.5,0.54324453704785,"true"
"image-keyboard-response",330,361752,"0.0-3.106-1.106","lpnfflf3dnecn2h",880,"65.csv","","null","resources/maskTrios/L4BB.jpg","null","",NA,NA,NA,NA,""
"image-keyboard-response",331,362960,"0.0-3.106-2.106","lpnfflf3dnecn2h",880,"65.csv","","null","resources/images/coin2.png","null","",NA,NA,NA,NA,""
"image-keyboard-response",332,363341,"0.0-3.107-0.107","lpnfflf3dnecn2h",880,"65.csv","","378.5","resources/trios/L2T4A1.jpg","39","restless",0.6,0.9,0.5,0.190656342320653,"true"
"image-keyboard-response",333,363748,"0.0-3.107-1.107","lpnfflf3dnecn2h",880,"65.csv","","null","resources/maskTrios/BBA1.jpg","null","",NA,NA,NA,NA,""
"image-keyboard-response",334,364960,"0.0-3.107-2.107","lpnfflf3dnecn2h",880,"65.csv","","null","resources/images/coin2.png","null","",NA,NA,NA,NA,""
"image-keyboard-response",335,365282,"0.0-3.108-0.108","lpnfflf3dnecn2h",880,"65.csv","","319.7999999523163","resources/trios/L2T4A1.jpg","38","restless",0.6,0.9,0.5,0.0552017393349475,"true"
"image-keyboard-response",336,365696,"0.0-3.108-1.108","lpnfflf3dnecn2h",880,"65.csv","","null","resources/maskTrios/BT4B.jpg","null","",NA,NA,NA,NA,""
"image-keyboard-response",337,366900,"0.0-3.108-2.108","lpnfflf3dnecn2h",880,"65.csv","","null","resources/images/coin2.png","null","",NA,NA,NA,NA,""
"image-keyboard-response",338,367299,"0.0-3.109-0.109","lpnfflf3dnecn2h",880,"65.csv","","397.10000014305115","resources/trios/L4T2A1.jpg","37","restless",0.6,0.9,0.5,0.68234795651744,"false"
"image-keyboard-response",339,367712,"0.0-3.109-1.109","lpnfflf3dnecn2h",880,"65.csv","","null","resources/maskTrios/L4BB.jpg","null","",NA,NA,NA,NA,""
"image-keyboard-response",340,368920,"0.0-3.109-2.109","lpnfflf3dnecn2h",880,"65.csv","","null","resources/images/fishbone.png","null","",NA,NA,NA,NA,""
"image-keyboard-response",341,369683,"0.0-3.110-0.110","lpnfflf3dnecn2h",880,"65.csv","","761.7000000476837","resources/trios/L4T4A3.jpg","38","restless",0.6,0.9,0.5,0.318267903465941,"true"
"image-keyboard-response",342,370096,"0.0-3.110-1.110","lpnfflf3dnecn2h",880,"65.csv","","null","resources/maskTrios/BT4B.jpg","null","",NA,NA,NA,NA,""
"image-keyboard-response",343,371303,"0.0-3.110-2.110","lpnfflf3dnecn2h",880,"65.csv","","null","resources/images/coin2.png","null","",NA,NA,NA,NA,""
"image-keyboard-response",344,371903,"0.0-3.111-0.111","lpnfflf3dnecn2h",880,"65.csv","","597.9000000953674","resources/trios/L4T4A1.jpg","37","restless",0.6,0.9,0.5,0.712507428863162,"false"
"image-keyboard-response",345,372311,"0.0-3.111-1.111","lpnfflf3dnecn2h",880,"65.csv","","null","resources/maskTrios/L4BB.jpg","null","",NA,NA,NA,NA,""
"image-keyboard-response",346,373519,"0.0-3.111-2.111","lpnfflf3dnecn2h",880,"65.csv","","null","resources/images/fishbone.png","null","",NA,NA,NA,NA,""
"image-keyboard-response",347,373949,"0.0-3.112-0.112","lpnfflf3dnecn2h",880,"65.csv","","427.2999999523163","resources/trios/L2T2A1.jpg","39","restless",0.6,0.9,0.5,0.90934204860798,"false"
"image-keyboard-response",348,374359,"0.0-3.112-1.112","lpnfflf3dnecn2h",880,"65.csv","","null","resources/maskTrios/BBA1.jpg","null","",NA,NA,NA,NA,""
"image-keyboard-response",349,375567,"0.0-3.112-2.112","lpnfflf3dnecn2h",880,"65.csv","","null","resources/images/fishbone.png","null","",NA,NA,NA,NA,""
"image-keyboard-response",350,375837,"0.0-3.113-0.113","lpnfflf3dnecn2h",880,"65.csv","","267.59999990463257","resources/trios/L4T4A1.jpg","38","restless",0.6,0.9,0.5,0.899756004388486,"true"
"image-keyboard-response",351,376247,"0.0-3.113-1.113","lpnfflf3dnecn2h",880,"65.csv","","null","resources/maskTrios/BT4B.jpg","null","",NA,NA,NA,NA,""
"image-keyboard-response",352,377451,"0.0-3.113-2.113","lpnfflf3dnecn2h",880,"65.csv","","null","resources/images/coin2.png","null","",NA,NA,NA,NA,""
"image-keyboard-response",353,377832,"0.0-3.114-0.114","lpnfflf3dnecn2h",880,"65.csv","","378.60000014305115","resources/trios/L4T2A3.jpg","37","restless",0.6,0.9,0.5,0.83992697368388,"false"
"image-keyboard-response",354,378239,"0.0-3.114-1.114","lpnfflf3dnecn2h",880,"65.csv","","null","resources/maskTrios/L4BB.jpg","null","",NA,NA,NA,NA,""
"image-keyboard-response",355,379447,"0.0-3.114-2.114","lpnfflf3dnecn2h",880,"65.csv","","null","resources/images/fishbone.png","null","",NA,NA,NA,NA,""
"image-keyboard-response",356,379727,"0.0-3.115-0.115","lpnfflf3dnecn2h",880,"65.csv","","277.7000000476837","resources/trios/L2T4A1.jpg","39","restless",0.6,0.9,0.5,0.748987858370724,"false"
"image-keyboard-response",357,380135,"0.0-3.115-1.115","lpnfflf3dnecn2h",880,"65.csv","","null","resources/maskTrios/BBA1.jpg","null","",NA,NA,NA,NA,""
"image-keyboard-response",358,381343,"0.0-3.115-2.115","lpnfflf3dnecn2h",880,"65.csv","","null","resources/images/fishbone.png","null","",NA,NA,NA,NA,""
"image-keyboard-response",359,381644,"0.0-3.116-0.116","lpnfflf3dnecn2h",880,"65.csv","","298.30000019073486","resources/trios/L2T4A3.jpg","38","restless",0.6,0.9,0.5,0.204967160115452,"true"
"image-keyboard-response",360,382055,"0.0-3.116-1.116","lpnfflf3dnecn2h",880,"65.csv","","null","resources/maskTrios/BT4B.jpg","null","",NA,NA,NA,NA,""
"image-keyboard-response",361,383263,"0.0-3.116-2.116","lpnfflf3dnecn2h",880,"65.csv","","null","resources/images/coin2.png","null","",NA,NA,NA,NA,""
"image-keyboard-response",362,383734,"0.0-3.117-0.117","lpnfflf3dnecn2h",880,"65.csv","","469.40000009536743","resources/trios/L2T2A3.jpg","38","restless",0.6,0.9,0.5,0.590477965210098,"true"
"image-keyboard-response",363,384143,"0.0-3.117-1.117","lpnfflf3dnecn2h",880,"65.csv","","null","resources/maskTrios/BT2B.jpg","null","",NA,NA,NA,NA,""
"image-keyboard-response",364,385351,"0.0-3.117-2.117","lpnfflf3dnecn2h",880,"65.csv","","null","resources/images/coin2.png","null","",NA,NA,NA,NA,""
"image-keyboard-response",365,385868,"0.0-3.118-0.118","lpnfflf3dnecn2h",880,"65.csv","","514.8999998569489","resources/trios/L4T4A1.jpg","37","restless",0.6,0.9,0.5,0.853685167929747,"false"
"image-keyboard-response",366,386279,"0.0-3.118-1.118","lpnfflf3dnecn2h",880,"65.csv","","null","resources/maskTrios/L4BB.jpg","null","",NA,NA,NA,NA,""
"image-keyboard-response",367,387487,"0.0-3.118-2.118","lpnfflf3dnecn2h",880,"65.csv","","null","resources/images/fishbone.png","null","",NA,NA,NA,NA,""
"image-keyboard-response",368,387829,"0.0-3.119-0.119","lpnfflf3dnecn2h",880,"65.csv","","340.09999990463257","resources/trios/L2T2A3.jpg","39","restless",0.6,0.8,0.5,0.531914803458967,"false"
"image-keyboard-response",369,388235,"0.0-3.119-1.119","lpnfflf3dnecn2h",880,"65.csv","","null","resources/maskTrios/BBA3.jpg","null","",NA,NA,NA,NA,""
"image-keyboard-response",370,389446,"0.0-3.119-2.119","lpnfflf3dnecn2h",880,"65.csv","","null","resources/images/fishbone.png","null","",NA,NA,NA,NA,""
"image-keyboard-response",371,389786,"0.0-3.120-0.120","lpnfflf3dnecn2h",880,"65.csv","","337.7999999523163","resources/trios/L4T4A3.jpg","38","restless",0.6,0.8,0.5,0.011225086821532,"true"
"image-keyboard-response",372,390199,"0.0-3.120-1.120","lpnfflf3dnecn2h",880,"65.csv","","null","resources/maskTrios/BT4B.jpg","null","",NA,NA,NA,NA,""
"image-keyboard-response",373,391407,"0.0-3.120-2.120","lpnfflf3dnecn2h",880,"65.csv","","null","resources/images/coin2.png","null","",NA,NA,NA,NA,""
"image-keyboard-response",374,391777,"0.0-3.121-0.121","lpnfflf3dnecn2h",880,"65.csv","","368.09999990463257","resources/trios/L2T2A3.jpg","38","restless",0.6,0.8,0.5,0.14250632510364,"true"
"image-keyboard-response",375,392187,"0.0-3.121-1.121","lpnfflf3dnecn2h",880,"65.csv","","null","resources/maskTrios/BT2B.jpg","null","",NA,NA,NA,NA,""
"image-keyboard-response",376,393396,"0.0-3.121-2.121","lpnfflf3dnecn2h",880,"65.csv","","null","resources/images/coin2.png","null","",NA,NA,NA,NA,""
"image-keyboard-response",377,393680,"0.0-3.122-0.122","lpnfflf3dnecn2h",880,"65.csv","","281.40000009536743","resources/trios/L4T2A3.jpg","37","restless",0.6,0.8,0.5,0.247057319573069,"true"
"image-keyboard-response",378,394087,"0.0-3.122-1.122","lpnfflf3dnecn2h",880,"65.csv","","null","resources/maskTrios/L4BB.jpg","null","",NA,NA,NA,NA,""
"image-keyboard-response",379,395295,"0.0-3.122-2.122","lpnfflf3dnecn2h",880,"65.csv","","null","resources/images/coin2.png","null","",NA,NA,NA,NA,""
"image-keyboard-response",380,395673,"0.0-3.123-0.123","lpnfflf3dnecn2h",880,"65.csv","","375.90000009536743","resources/trios/L4T2A3.jpg","37","restless",0.7,0.8,0.5,0.295063912040593,"true"
"image-keyboard-response",381,396087,"0.0-3.123-1.123","lpnfflf3dnecn2h",880,"65.csv","","null","resources/maskTrios/L4BB.jpg","null","",NA,NA,NA,NA,""
"image-keyboard-response",382,397295,"0.0-3.123-2.123","lpnfflf3dnecn2h",880,"65.csv","","null","resources/images/coin2.png","null","",NA,NA,NA,NA,""
"image-keyboard-response",383,398474,"0.0-3.124-0.124","lpnfflf3dnecn2h",880,"65.csv","","1176.8999998569489","resources/trios/L4T2A3.jpg","37","restless",0.6,0.8,0.5,0.189032256254372,"true"
"image-keyboard-response",384,398887,"0.0-3.124-1.124","lpnfflf3dnecn2h",880,"65.csv","","null","resources/maskTrios/L4BB.jpg","null","",NA,NA,NA,NA,""
"image-keyboard-response",385,400091,"0.0-3.124-2.124","lpnfflf3dnecn2h",880,"65.csv","","null","resources/images/coin2.png","null","",NA,NA,NA,NA,""
"image-keyboard-response",386,400662,"0.0-3.125-0.125","lpnfflf3dnecn2h",880,"65.csv","","569.6000001430511","resources/trios/L2T4A1.jpg","37","restless",0.6,0.8,0.5,0.0992785395262552,"true"
"image-keyboard-response",387,401071,"0.0-3.125-1.125","lpnfflf3dnecn2h",880,"65.csv","","null","resources/maskTrios/L2BB.jpg","null","",NA,NA,NA,NA,""
"image-keyboard-response",388,402275,"0.0-3.125-2.125","lpnfflf3dnecn2h",880,"65.csv","","null","resources/images/coin2.png","null","",NA,NA,NA,NA,""
"image-keyboard-response",389,402563,"0.0-3.126-0.126","lpnfflf3dnecn2h",880,"65.csv","","285.7999999523163","resources/trios/L4T4A3.jpg","37","restless",0.6,0.8,0.4,0.629154079241709,"false"
"image-keyboard-response",390,402975,"0.0-3.126-1.126","lpnfflf3dnecn2h",880,"65.csv","","null","resources/maskTrios/L4BB.jpg","null","",NA,NA,NA,NA,""
"image-keyboard-response",391,404183,"0.0-3.126-2.126","lpnfflf3dnecn2h",880,"65.csv","","null","resources/images/fishbone.png","null","",NA,NA,NA,NA,""
"image-keyboard-response",392,404668,"0.0-3.127-0.127","lpnfflf3dnecn2h",880,"65.csv","","483.5","resources/trios/L4T2A3.jpg","38","restless",0.7,0.8,0.4,0.8774447752924,"false"
"image-keyboard-response",393,405078,"0.0-3.127-1.127","lpnfflf3dnecn2h",880,"65.csv","","null","resources/maskTrios/BT2B.jpg","null","",NA,NA,NA,NA,""
"image-keyboard-response",394,406286,"0.0-3.127-2.127","lpnfflf3dnecn2h",880,"65.csv","","null","resources/images/fishbone.png","null","",NA,NA,NA,NA,""
"image-keyboard-response",395,406609,"0.0-3.128-0.128","lpnfflf3dnecn2h",880,"65.csv","","320.5","resources/trios/L4T4A3.jpg","38","restless",0.7,0.8,0.4,0.976813110425955,"false"
"image-keyboard-response",396,407022,"0.0-3.128-1.128","lpnfflf3dnecn2h",880,"65.csv","","null","resources/maskTrios/BT4B.jpg","null","",NA,NA,NA,NA,""
"image-keyboard-response",397,408230,"0.0-3.128-2.128","lpnfflf3dnecn2h",880,"65.csv","","null","resources/images/fishbone.png","null","",NA,NA,NA,NA,""
"image-keyboard-response",398,408511,"0.0-3.129-0.129","lpnfflf3dnecn2h",880,"65.csv","","278.2999999523163","resources/trios/L4T4A3.jpg","38","restless",0.7,0.8,0.4,0.887338319380063,"false"
"image-keyboard-response",399,408918,"0.0-3.129-1.129","lpnfflf3dnecn2h",880,"65.csv","","null","resources/maskTrios/BT4B.jpg","null","",NA,NA,NA,NA,""
"image-keyboard-response",400,410126,"0.0-3.129-2.129","lpnfflf3dnecn2h",880,"65.csv","","null","resources/images/fishbone.png","null","",NA,NA,NA,NA,""
"image-keyboard-response",401,410425,"0.0-3.130-0.130","lpnfflf3dnecn2h",880,"65.csv","","296.09999990463257","resources/trios/L2T2A3.jpg","38","restless",0.7,0.8,0.4,0.630916690265709,"true"
"image-keyboard-response",402,410838,"0.0-3.130-1.130","lpnfflf3dnecn2h",880,"65.csv","","null","resources/maskTrios/BT2B.jpg","null","",NA,NA,NA,NA,""
"image-keyboard-response",403,412046,"0.0-3.130-2.130","lpnfflf3dnecn2h",880,"65.csv","","null","resources/images/coin2.png","null","",NA,NA,NA,NA,""
"image-keyboard-response",404,412286,"0.0-3.131-0.131","lpnfflf3dnecn2h",880,"65.csv","","238","resources/trios/L2T4A1.jpg","38","restless",0.7,0.7,0.4,0.518595552948079,"true"
"image-keyboard-response",405,412694,"0.0-3.131-1.131","lpnfflf3dnecn2h",880,"65.csv","","null","resources/maskTrios/BT4B.jpg","null","",NA,NA,NA,NA,""
"image-keyboard-response",406,413902,"0.0-3.131-2.131","lpnfflf3dnecn2h",880,"65.csv","","null","resources/images/coin2.png","null","",NA,NA,NA,NA,""
"image-keyboard-response",407,414202,"0.0-3.132-0.132","lpnfflf3dnecn2h",880,"65.csv","","298","resources/trios/L4T4A3.jpg","38","restless",0.7,0.8,0.4,0.829345239953238,"false"
"image-keyboard-response",408,414614,"0.0-3.132-1.132","lpnfflf3dnecn2h",880,"65.csv","","null","resources/maskTrios/BT4B.jpg","null","",NA,NA,NA,NA,""
"image-keyboard-response",409,415822,"0.0-3.132-2.132","lpnfflf3dnecn2h",880,"65.csv","","null","resources/images/fishbone.png","null","",NA,NA,NA,NA,""
"image-keyboard-response",410,416111,"0.0-3.133-0.133","lpnfflf3dnecn2h",880,"65.csv","","286.40000009536743","resources/trios/L2T4A1.jpg","39","restless",0.7,0.8,0.4,0.491881289399219,"false"
"image-keyboard-response",411,416514,"0.0-3.133-1.133","lpnfflf3dnecn2h",880,"65.csv","","null","resources/maskTrios/BBA1.jpg","null","",NA,NA,NA,NA,""
"image-keyboard-response",412,417726,"0.0-3.133-2.133","lpnfflf3dnecn2h",880,"65.csv","","null","resources/images/fishbone.png","null","",NA,NA,NA,NA,""
"image-keyboard-response",413,418162,"0.0-3.134-0.134","lpnfflf3dnecn2h",880,"65.csv","","433.60000014305115","resources/trios/L2T4A1.jpg","39","restless",0.6,0.8,0.4,0.380416268440434,"true"
"image-keyboard-response",414,418574,"0.0-3.134-1.134","lpnfflf3dnecn2h",880,"65.csv","","null","resources/maskTrios/BBA1.jpg","null","",NA,NA,NA,NA,""
"image-keyboard-response",415,419777,"0.0-3.134-2.134","lpnfflf3dnecn2h",880,"65.csv","","null","resources/images/coin2.png","null","",NA,NA,NA,NA,""
"image-keyboard-response",416,420393,"0.0-3.135-0.135","lpnfflf3dnecn2h",880,"65.csv","","613.2999999523163","resources/trios/L2T4A1.jpg","39","restless",0.7,0.8,0.4,0.45922350125852,"false"
"image-keyboard-response",417,420806,"0.0-3.135-1.135","lpnfflf3dnecn2h",880,"65.csv","","null","resources/maskTrios/BBA1.jpg","null","",NA,NA,NA,NA,""
"image-keyboard-response",418,422010,"0.0-3.135-2.135","lpnfflf3dnecn2h",880,"65.csv","","null","resources/images/fishbone.png","null","",NA,NA,NA,NA,""
"image-keyboard-response",419,422644,"0.0-3.136-0.136","lpnfflf3dnecn2h",880,"65.csv","","631.9000000953674","resources/trios/L4T2A3.jpg","39","restless",0.6,0.8,0.4,0.159198314987215,"true"
"image-keyboard-response",420,423054,"0.0-3.136-1.136","lpnfflf3dnecn2h",880,"65.csv","","null","resources/maskTrios/BBA3.jpg","null","",NA,NA,NA,NA,""
"image-keyboard-response",421,424262,"0.0-3.136-2.136","lpnfflf3dnecn2h",880,"65.csv","","null","resources/images/coin2.png","null","",NA,NA,NA,NA,""
"image-keyboard-response",422,424587,"0.0-3.137-0.137","lpnfflf3dnecn2h",880,"65.csv","","323.39999985694885","resources/trios/L4T4A1.jpg","39","restless",0.6,0.8,0.5,0.660154340546926,"false"
"image-keyboard-response",423,424998,"0.0-3.137-1.137","lpnfflf3dnecn2h",880,"65.csv","","null","resources/maskTrios/BBA1.jpg","null","",NA,NA,NA,NA,""
"image-keyboard-response",424,426206,"0.0-3.137-2.137","lpnfflf3dnecn2h",880,"65.csv","","null","resources/images/fishbone.png","null","",NA,NA,NA,NA,""
"image-keyboard-response",425,426491,"0.0-3.138-0.138","lpnfflf3dnecn2h",880,"65.csv","","283.40000009536743","resources/trios/L4T2A3.jpg","39","restless",0.6,0.8,0.5,0.63281619796939,"false"
"image-keyboard-response",426,426902,"0.0-3.138-1.138","lpnfflf3dnecn2h",880,"65.csv","","null","resources/maskTrios/BBA3.jpg","null","",NA,NA,NA,NA,""
"image-keyboard-response",427,428110,"0.0-3.138-2.138","lpnfflf3dnecn2h",880,"65.csv","","null","resources/images/fishbone.png","null","",NA,NA,NA,NA,""
"image-keyboard-response",428,428402,"0.0-3.139-0.139","lpnfflf3dnecn2h",880,"65.csv","","289.7000000476837","resources/trios/L4T4A1.jpg","39","restless",0.6,0.8,0.5,0.884915852337513,"false"
"image-keyboard-response",429,428814,"0.0-3.139-1.139","lpnfflf3dnecn2h",880,"65.csv","","null","resources/maskTrios/BBA1.jpg","null","",NA,NA,NA,NA,""
"image-keyboard-response",430,430022,"0.0-3.139-2.139","lpnfflf3dnecn2h",880,"65.csv","","null","resources/images/fishbone.png","null","",NA,NA,NA,NA,""
"image-keyboard-response",431,431432,"0.0-3.140-0.140","lpnfflf3dnecn2h",880,"65.csv","","1408.2000000476837","resources/trios/L4T2A3.jpg","38","restless",0.6,0.8,0.5,0.574728542996199,"true"
"image-keyboard-response",432,431846,"0.0-3.140-1.140","lpnfflf3dnecn2h",880,"65.csv","","null","resources/maskTrios/BT2B.jpg","null","",NA,NA,NA,NA,""
"image-keyboard-response",433,433050,"0.0-3.140-2.140","lpnfflf3dnecn2h",880,"65.csv","","null","resources/images/coin2.png","null","",NA,NA,NA,NA,""
"image-keyboard-response",434,433386,"0.0-3.141-0.141","lpnfflf3dnecn2h",880,"65.csv","","334","resources/trios/L2T2A1.jpg","37","restless",0.6,0.8,0.5,0.362898400270937,"true"
"image-keyboard-response",435,433793,"0.0-3.141-1.141","lpnfflf3dnecn2h",880,"65.csv","","null","resources/maskTrios/L2BB.jpg","null","",NA,NA,NA,NA,""
"image-keyboard-response",436,435006,"0.0-3.141-2.141","lpnfflf3dnecn2h",880,"65.csv","","null","resources/images/coin2.png","null","",NA,NA,NA,NA,""
"image-keyboard-response",437,435526,"0.0-3.142-0.142","lpnfflf3dnecn2h",880,"65.csv","","517.9000000953674","resources/trios/L4T4A3.jpg","38","restless",0.6,0.7,0.5,0.560463489447317,"true"
"image-keyboard-response",438,435929,"0.0-3.142-1.142","lpnfflf3dnecn2h",880,"65.csv","","null","resources/maskTrios/BT4B.jpg","null","",NA,NA,NA,NA,""
"image-keyboard-response",439,437142,"0.0-3.142-2.142","lpnfflf3dnecn2h",880,"65.csv","","null","resources/images/coin2.png","null","",NA,NA,NA,NA,""
"image-keyboard-response",440,437417,"0.0-3.143-0.143","lpnfflf3dnecn2h",880,"65.csv","","273.10000014305115","resources/trios/L2T4A1.jpg","37","restless",0.6,0.7,0.5,0.37094321788522,"true"
"image-keyboard-response",441,437830,"0.0-3.143-1.143","lpnfflf3dnecn2h",880,"65.csv","","null","resources/maskTrios/L2BB.jpg","null","",NA,NA,NA,NA,""
"image-keyboard-response",442,439037,"0.0-3.143-2.143","lpnfflf3dnecn2h",880,"65.csv","","null","resources/images/coin2.png","null","",NA,NA,NA,NA,""
"image-keyboard-response",443,439449,"0.0-3.144-0.144","lpnfflf3dnecn2h",880,"65.csv","","410.10000014305115","resources/trios/L2T2A1.jpg","38","restless",0.6,0.7,0.5,0.776566760979939,"false"
"image-keyboard-response",444,439859,"0.0-3.144-1.144","lpnfflf3dnecn2h",880,"65.csv","","null","resources/maskTrios/BT2B.jpg","null","",NA,NA,NA,NA,""
"image-keyboard-response",445,441070,"0.0-3.144-2.144","lpnfflf3dnecn2h",880,"65.csv","","null","resources/images/fishbone.png","null","",NA,NA,NA,NA,""
"image-keyboard-response",446,441380,"0.0-3.145-0.145","lpnfflf3dnecn2h",880,"65.csv","","308.89999985694885","resources/trios/L2T4A3.jpg","37","restless",0.6,0.7,0.5,0.453234841181718,"true"
"image-keyboard-response",447,441785,"0.0-3.145-1.145","lpnfflf3dnecn2h",880,"65.csv","","null","resources/maskTrios/L2BB.jpg","null","",NA,NA,NA,NA,""
"image-keyboard-response",448,442997,"0.0-3.145-2.145","lpnfflf3dnecn2h",880,"65.csv","","null","resources/images/coin2.png","null","",NA,NA,NA,NA,""
"image-keyboard-response",449,445022,"0.0-3.146-0.146","lpnfflf3dnecn2h",880,"65.csv","","2022.2999999523163","resources/trios/L4T2A3.jpg","37","restless",0.6,0.7,0.5,0.490515602011956,"true"
"image-keyboard-response",450,445425,"0.0-3.146-1.146","lpnfflf3dnecn2h",880,"65.csv","","null","resources/maskTrios/L4BB.jpg","null","",NA,NA,NA,NA,""
"image-keyboard-response",451,446637,"0.0-3.146-2.146","lpnfflf3dnecn2h",880,"65.csv","","null","resources/images/coin2.png","null","",NA,NA,NA,NA,""
"image-keyboard-response",452,448976,"0.0-3.147-0.147","lpnfflf3dnecn2h",880,"65.csv","","2336.2999999523163","resources/trios/L2T2A3.jpg","38","restless",0.5,0.7,0.5,0.070625296949332,"true"
"image-keyboard-response",453,449389,"0.0-3.147-1.147","lpnfflf3dnecn2h",880,"65.csv","","null","resources/maskTrios/BT2B.jpg","null","",NA,NA,NA,NA,""
"image-keyboard-response",454,450597,"0.0-3.147-2.147","lpnfflf3dnecn2h",880,"65.csv","","null","resources/images/coin2.png","null","",NA,NA,NA,NA,""
"image-keyboard-response",455,451011,"0.0-3.148-0.148","lpnfflf3dnecn2h",880,"65.csv","","412","resources/trios/L4T2A3.jpg","37","restless",0.4,0.7,0.5,0.687588204541285,"false"
"image-keyboard-response",456,451421,"0.0-3.148-1.148","lpnfflf3dnecn2h",880,"65.csv","","null","resources/maskTrios/L4BB.jpg","null","",NA,NA,NA,NA,""
"image-keyboard-response",457,452629,"0.0-3.148-2.148","lpnfflf3dnecn2h",880,"65.csv","","null","resources/images/fishbone.png","null","",NA,NA,NA,NA,""
"image-keyboard-response",458,452760,"0.0-3.149-0.149","lpnfflf3dnecn2h",880,"65.csv","","128.40000009536743","resources/trios/L4T2A3.jpg","38","restless",0.4,0.7,0.5,0.104786005742202,"true"
"image-keyboard-response",459,453173,"0.0-3.149-1.149","lpnfflf3dnecn2h",880,"65.csv","","null","resources/maskTrios/BT2B.jpg","null","",NA,NA,NA,NA,""
"image-keyboard-response",460,454381,"0.0-3.149-2.149","lpnfflf3dnecn2h",880,"65.csv","","null","resources/images/coin2.png","null","",NA,NA,NA,NA,""
"image-keyboard-response",461,454754,"0.0-3.150-0.150","lpnfflf3dnecn2h",880,"65.csv","","371.5","resources/trios/L4T2A1.jpg","38","restless",0.4,0.6,0.5,0.543320741942848,"true"
"image-keyboard-response",462,455165,"0.0-3.150-1.150","lpnfflf3dnecn2h",880,"65.csv","","null","resources/maskTrios/BT2B.jpg","null","",NA,NA,NA,NA,""
"image-keyboard-response",463,456373,"0.0-3.150-2.150","lpnfflf3dnecn2h",880,"65.csv","","null","resources/images/coin2.png","null","",NA,NA,NA,NA,""
"image-keyboard-response",464,456858,"0.0-3.151-0.151","lpnfflf3dnecn2h",880,"65.csv","","482.39999985694885","resources/trios/L4T4A3.jpg","38","restless",0.4,0.6,0.5,0.657648378868186,"false"
"image-keyboard-response",465,457269,"0.0-3.151-1.151","lpnfflf3dnecn2h",880,"65.csv","","null","resources/maskTrios/BT4B.jpg","null","",NA,NA,NA,NA,""
"image-keyboard-response",466,458475,"0.0-3.151-2.151","lpnfflf3dnecn2h",880,"65.csv","","null","resources/images/fishbone.png","null","",NA,NA,NA,NA,""
"image-keyboard-response",467,458994,"0.0-3.152-0.152","lpnfflf3dnecn2h",880,"65.csv","","517","resources/trios/L4T4A3.jpg","39","restless",0.4,0.6,0.5,0.943478828932625,"false"
"image-keyboard-response",468,459405,"0.0-3.152-1.152","lpnfflf3dnecn2h",880,"65.csv","","null","resources/maskTrios/BBA3.jpg","null","",NA,NA,NA,NA,""
"image-keyboard-response",469,460609,"0.0-3.152-2.152","lpnfflf3dnecn2h",880,"65.csv","","null","resources/images/fishbone.png","null","",NA,NA,NA,NA,""
"image-keyboard-response",470,462559,"0.0-3.153-0.153","lpnfflf3dnecn2h",880,"65.csv","","1947.7999999523163","resources/trios/L4T4A3.jpg","37","restless",0.4,0.6,0.5,0.373687743336226,"true"
"image-keyboard-response",471,462973,"0.0-3.153-1.153","lpnfflf3dnecn2h",880,"65.csv","","null","resources/maskTrios/L4BB.jpg","null","",NA,NA,NA,NA,""
"image-keyboard-response",472,464181,"0.0-3.153-2.153","lpnfflf3dnecn2h",880,"65.csv","","null","resources/images/coin2.png","null","",NA,NA,NA,NA,""
"image-keyboard-response",473,464658,"0.0-3.154-0.154","lpnfflf3dnecn2h",880,"65.csv","","474.7999999523163","resources/trios/L4T4A1.jpg","38","restless",0.4,0.6,0.5,0.602570851337875,"false"
"image-keyboard-response",474,465069,"0.0-3.154-1.154","lpnfflf3dnecn2h",880,"65.csv","","null","resources/maskTrios/BT4B.jpg","null","",NA,NA,NA,NA,""
"image-keyboard-response",475,466277,"0.0-3.154-2.154","lpnfflf3dnecn2h",880,"65.csv","","null","resources/images/fishbone.png","null","",NA,NA,NA,NA,""
"image-keyboard-response",476,466612,"0.0-3.155-0.155","lpnfflf3dnecn2h",880,"65.csv","","332.60000014305115","resources/trios/L4T4A3.jpg","39","restless",0.4,0.6,0.5,0.611180339942959,"false"
"image-keyboard-response",477,467021,"0.0-3.155-1.155","lpnfflf3dnecn2h",880,"65.csv","","null","resources/maskTrios/BBA3.jpg","null","",NA,NA,NA,NA,""
"image-keyboard-response",478,468229,"0.0-3.155-2.155","lpnfflf3dnecn2h",880,"65.csv","","null","resources/images/fishbone.png","null","",NA,NA,NA,NA,""
"image-keyboard-response",479,468536,"0.0-3.156-0.156","lpnfflf3dnecn2h",880,"65.csv","","304.7999999523163","resources/trios/L2T4A3.jpg","37","restless",0.4,0.6,0.5,0.798331201967027,"false"
"image-keyboard-response",480,468949,"0.0-3.156-1.156","lpnfflf3dnecn2h",880,"65.csv","","null","resources/maskTrios/L2BB.jpg","null","",NA,NA,NA,NA,""
"image-keyboard-response",481,470157,"0.0-3.156-2.156","lpnfflf3dnecn2h",880,"65.csv","","null","resources/images/fishbone.png","null","",NA,NA,NA,NA,""
"image-keyboard-response",482,470430,"0.0-3.157-0.157","lpnfflf3dnecn2h",880,"65.csv","","271","resources/trios/L2T4A3.jpg","38","restless",0.4,0.6,0.5,0.119548206741971,"true"
"image-keyboard-response",483,470845,"0.0-3.157-1.157","lpnfflf3dnecn2h",880,"65.csv","","null","resources/maskTrios/BT4B.jpg","null","",NA,NA,NA,NA,""
"image-keyboard-response",484,472049,"0.0-3.157-2.157","lpnfflf3dnecn2h",880,"65.csv","","null","resources/images/coin2.png","null","",NA,NA,NA,NA,""
"image-keyboard-response",485,473151,"0.0-3.158-0.158","lpnfflf3dnecn2h",880,"65.csv","","1099.7999999523163","resources/trios/L4T4A1.jpg","37","restless",0.4,0.6,0.5,0.47475409774574,"false"
"image-keyboard-response",486,473565,"0.0-3.158-1.158","lpnfflf3dnecn2h",880,"65.csv","","null","resources/maskTrios/L4BB.jpg","null","",NA,NA,NA,NA,""
"image-keyboard-response",487,474770,"0.0-3.158-2.158","lpnfflf3dnecn2h",880,"65.csv","","null","resources/images/fishbone.png","null","",NA,NA,NA,NA,""
"image-keyboard-response",488,475103,"0.0-3.159-0.159","lpnfflf3dnecn2h",880,"65.csv","","331.60000014305115","resources/trios/L4T4A1.jpg","39","restless",0.4,0.5,0.5,0.294434935555409,"true"
"image-keyboard-response",489,475517,"0.0-3.159-1.159","lpnfflf3dnecn2h",880,"65.csv","","null","resources/maskTrios/BBA1.jpg","null","",NA,NA,NA,NA,""
"image-keyboard-response",490,476723,"0.0-3.159-2.159","lpnfflf3dnecn2h",880,"65.csv","","null","resources/images/coin2.png","null","",NA,NA,NA,NA,""
"image-keyboard-response",491,477001,"0.0-3.160-0.160","lpnfflf3dnecn2h",880,"65.csv","","275.90000009536743","resources/trios/L4T4A3.jpg","38","restless",0.4,0.5,0.5,0.442673142895301,"true"
"image-keyboard-response",492,477412,"0.0-3.160-1.160","lpnfflf3dnecn2h",880,"65.csv","","null","resources/maskTrios/BT4B.jpg","null","",NA,NA,NA,NA,""
"image-keyboard-response",493,478620,"0.0-3.160-2.160","lpnfflf3dnecn2h",880,"65.csv","","null","resources/images/coin2.png","null","",NA,NA,NA,NA,""
"image-keyboard-response",494,478932,"0.0-3.161-0.161","lpnfflf3dnecn2h",880,"65.csv","","309.39999985694885","resources/trios/L2T2A1.jpg","37","restless",0.4,0.4,0.5,0.544576330667783,"false"
"image-keyboard-response",495,479340,"0.0-3.161-1.161","lpnfflf3dnecn2h",880,"65.csv","","null","resources/maskTrios/L2BB.jpg","null","",NA,NA,NA,NA,""
"image-keyboard-response",496,480548,"0.0-3.161-2.161","lpnfflf3dnecn2h",880,"65.csv","","null","resources/images/fishbone.png","null","",NA,NA,NA,NA,""
"image-keyboard-response",497,480949,"0.0-3.162-0.162","lpnfflf3dnecn2h",880,"65.csv","","398.2999999523163","resources/trios/L4T2A1.jpg","38","restless",0.3,0.4,0.5,0.0833878174690614,"true"
"image-keyboard-response",498,481356,"0.0-3.162-1.162","lpnfflf3dnecn2h",880,"65.csv","","null","resources/maskTrios/BT2B.jpg","null","",NA,NA,NA,NA,""
"image-keyboard-response",499,482560,"0.0-3.162-2.162","lpnfflf3dnecn2h",880,"65.csv","","null","resources/images/coin2.png","null","",NA,NA,NA,NA,""
"image-keyboard-response",500,482879,"0.0-3.163-0.163","lpnfflf3dnecn2h",880,"65.csv","","316.90000009536743","resources/trios/L2T2A1.jpg","37","restless",0.3,0.4,0.5,0.00798067385538093,"true"
"image-keyboard-response",501,483292,"0.0-3.163-1.163","lpnfflf3dnecn2h",880,"65.csv","","null","resources/maskTrios/L2BB.jpg","null","",NA,NA,NA,NA,""
"image-keyboard-response",502,484500,"0.0-3.163-2.163","lpnfflf3dnecn2h",880,"65.csv","","null","resources/images/coin2.png","null","",NA,NA,NA,NA,""
"image-keyboard-response",503,490370,"0.0-3.164-0.164","lpnfflf3dnecn2h",880,"65.csv","","5867.5","resources/trios/L4T4A3.jpg","38","restless",0.3,0.4,0.6,0.304771186047038,"true"
"image-keyboard-response",504,490780,"0.0-3.164-1.164","lpnfflf3dnecn2h",880,"65.csv","","null","resources/maskTrios/BT4B.jpg","null","",NA,NA,NA,NA,""
"image-keyboard-response",505,491987,"0.0-3.164-2.164","lpnfflf3dnecn2h",880,"65.csv","","null","resources/images/coin2.png","null","",NA,NA,NA,NA,""
"image-keyboard-response",506,495626,"0.0-3.165-0.165","lpnfflf3dnecn2h",880,"65.csv","","3636.7000000476837","resources/trios/L2T4A3.jpg","37","restless",0.3,0.4,0.6,0.0238568286755556,"true"
"image-keyboard-response",507,496036,"0.0-3.165-1.165","lpnfflf3dnecn2h",880,"65.csv","","null","resources/maskTrios/L2BB.jpg","null","",NA,NA,NA,NA,""
"image-keyboard-response",508,497244,"0.0-3.165-2.165","lpnfflf3dnecn2h",880,"65.csv","","null","resources/images/coin2.png","null","",NA,NA,NA,NA,""
"image-keyboard-response",509,499150,"0.0-3.166-0.166","lpnfflf3dnecn2h",880,"65.csv","","1904.1000001430511","resources/trios/L2T2A1.jpg","39","restless",0.3,0.4,0.6,0.541300922181033,"true"
"image-keyboard-response",510,499564,"0.0-3.166-1.166","lpnfflf3dnecn2h",880,"65.csv","","null","resources/maskTrios/BBA1.jpg","null","",NA,NA,NA,NA,""
"image-keyboard-response",511,500771,"0.0-3.166-2.166","lpnfflf3dnecn2h",880,"65.csv","","null","resources/images/coin2.png","null","",NA,NA,NA,NA,""
"image-keyboard-response",512,503444,"0.0-3.167-0.167","lpnfflf3dnecn2h",880,"65.csv","","2671","resources/trios/L4T2A1.jpg","39","restless",0.3,0.4,0.6,0.442422844081582,"true"
"image-keyboard-response",513,503852,"0.0-3.167-1.167","lpnfflf3dnecn2h",880,"65.csv","","null","resources/maskTrios/BBA1.jpg","null","",NA,NA,NA,NA,""
"image-keyboard-response",514,505060,"0.0-3.167-2.167","lpnfflf3dnecn2h",880,"65.csv","","null","resources/images/coin2.png","null","",NA,NA,NA,NA,""
"image-keyboard-response",515,506382,"0.0-3.168-0.168","lpnfflf3dnecn2h",880,"65.csv","","1320.2000000476837","resources/trios/L2T4A3.jpg","39","restless",0.3,0.4,0.6,0.286940450347497,"true"
"image-keyboard-response",516,506796,"0.0-3.168-1.168","lpnfflf3dnecn2h",880,"65.csv","","null","resources/maskTrios/BBA3.jpg","null","",NA,NA,NA,NA,""
"image-keyboard-response",517,508003,"0.0-3.168-2.168","lpnfflf3dnecn2h",880,"65.csv","","null","resources/images/coin2.png","null","",NA,NA,NA,NA,""
"image-keyboard-response",518,509494,"0.0-3.169-0.169","lpnfflf3dnecn2h",880,"65.csv","","1489.5999999046326","resources/trios/L2T2A3.jpg","37","restless",0.3,0.4,0.5,0.786509990861584,"false"
"image-keyboard-response",519,509903,"0.0-3.169-1.169","lpnfflf3dnecn2h",880,"65.csv","","null","resources/maskTrios/L2BB.jpg","null","",NA,NA,NA,NA,""
"image-keyboard-response",520,511116,"0.0-3.169-2.169","lpnfflf3dnecn2h",880,"65.csv","","null","resources/images/fishbone.png","null","",NA,NA,NA,NA,""
"image-keyboard-response",521,512834,"0.0-3.170-0.170","lpnfflf3dnecn2h",880,"65.csv","","1716.7000000476837","resources/trios/L2T2A3.jpg","38","restless",0.3,0.3,0.5,0.23268918936715,"true"
"image-keyboard-response",522,513243,"0.0-3.170-1.170","lpnfflf3dnecn2h",880,"65.csv","","null","resources/maskTrios/BT2B.jpg","null","",NA,NA,NA,NA,""
"image-keyboard-response",523,514451,"0.0-3.170-2.170","lpnfflf3dnecn2h",880,"65.csv","","null","resources/images/coin2.png","null","",NA,NA,NA,NA,""
"image-keyboard-response",524,518306,"0.0-3.171-0.171","lpnfflf3dnecn2h",880,"65.csv","","3852.899999856949","resources/trios/L2T4A3.jpg","39","restless",0.3,0.3,0.5,0.319968072603589,"true"
"image-keyboard-response",525,518715,"0.0-3.171-1.171","lpnfflf3dnecn2h",880,"65.csv","","null","resources/maskTrios/BBA3.jpg","null","",NA,NA,NA,NA,""
"image-keyboard-response",526,519923,"0.0-3.171-2.171","lpnfflf3dnecn2h",880,"65.csv","","null","resources/images/coin2.png","null","",NA,NA,NA,NA,""
"image-keyboard-response",527,520389,"0.0-3.172-0.172","lpnfflf3dnecn2h",880,"65.csv","","463.59999990463257","resources/trios/L2T2A1.jpg","38","restless",0.3,0.3,0.5,0.555472186321328,"false"
"image-keyboard-response",528,520803,"0.0-3.172-1.172","lpnfflf3dnecn2h",880,"65.csv","","null","resources/maskTrios/BT2B.jpg","null","",NA,NA,NA,NA,""
"image-keyboard-response",529,522011,"0.0-3.172-2.172","lpnfflf3dnecn2h",880,"65.csv","","null","resources/images/fishbone.png","null","",NA,NA,NA,NA,""
"image-keyboard-response",530,522455,"0.0-3.173-0.173","lpnfflf3dnecn2h",880,"65.csv","","441.39999985694885","resources/trios/L2T4A1.jpg","37","restless",0.3,0.3,0.5,0.11921327612875,"true"
"image-keyboard-response",531,522863,"0.0-3.173-1.173","lpnfflf3dnecn2h",880,"65.csv","","null","resources/maskTrios/L2BB.jpg","null","",NA,NA,NA,NA,""
"image-keyboard-response",532,524070,"0.0-3.173-2.173","lpnfflf3dnecn2h",880,"65.csv","","null","resources/images/coin2.png","null","",NA,NA,NA,NA,""
"image-keyboard-response",533,524536,"0.0-3.174-0.174","lpnfflf3dnecn2h",880,"65.csv","","463.59999990463257","resources/trios/L4T2A1.jpg","39","restless",0.3,0.3,0.5,0.290311025881713,"true"
"image-keyboard-response",534,524947,"0.0-3.174-1.174","lpnfflf3dnecn2h",880,"65.csv","","null","resources/maskTrios/BBA1.jpg","null","",NA,NA,NA,NA,""
"image-keyboard-response",535,526155,"0.0-3.174-2.174","lpnfflf3dnecn2h",880,"65.csv","","null","resources/images/coin2.png","null","",NA,NA,NA,NA,""
"image-keyboard-response",536,526927,"0.0-3.175-0.175","lpnfflf3dnecn2h",880,"65.csv","","769.8999998569489","resources/trios/L2T4A1.jpg","38","restless",0.3,0.3,0.5,0.435568313000526,"false"
"image-keyboard-response",537,527339,"0.0-3.175-1.175","lpnfflf3dnecn2h",880,"65.csv","","null","resources/maskTrios/BT4B.jpg","null","",NA,NA,NA,NA,""
"image-keyboard-response",538,528547,"0.0-3.175-2.175","lpnfflf3dnecn2h",880,"65.csv","","null","resources/images/fishbone.png","null","",NA,NA,NA,NA,""
"image-keyboard-response",539,528992,"0.0-3.176-0.176","lpnfflf3dnecn2h",880,"65.csv","","442.2999999523163","resources/trios/L2T4A3.jpg","37","restless",0.3,0.3,0.5,0.976280016063941,"false"
"image-keyboard-response",540,529402,"0.0-3.176-1.176","lpnfflf3dnecn2h",880,"65.csv","","null","resources/maskTrios/L2BB.jpg","null","",NA,NA,NA,NA,""
"image-keyboard-response",541,530607,"0.0-3.176-2.176","lpnfflf3dnecn2h",880,"65.csv","","null","resources/images/fishbone.png","null","",NA,NA,NA,NA,""
"image-keyboard-response",542,531266,"0.0-3.177-0.177","lpnfflf3dnecn2h",880,"65.csv","","656.2999999523163","resources/trios/L4T2A1.jpg","39","restless",0.3,0.3,0.5,0.718612955231187,"false"
"image-keyboard-response",543,531675,"0.0-3.177-1.177","lpnfflf3dnecn2h",880,"65.csv","","null","resources/maskTrios/BBA1.jpg","null","",NA,NA,NA,NA,""
"image-keyboard-response",544,532883,"0.0-3.177-2.177","lpnfflf3dnecn2h",880,"65.csv","","null","resources/images/fishbone.png","null","",NA,NA,NA,NA,""
"image-keyboard-response",545,533301,"0.0-3.178-0.178","lpnfflf3dnecn2h",880,"65.csv","","415.40000009536743","resources/trios/L4T4A1.jpg","38","restless",0.3,0.3,0.5,0.312917771392369,"false"
"image-keyboard-response",546,533715,"0.0-3.178-1.178","lpnfflf3dnecn2h",880,"65.csv","","null","resources/maskTrios/BT4B.jpg","null","",NA,NA,NA,NA,""
"image-keyboard-response",547,534923,"0.0-3.178-2.178","lpnfflf3dnecn2h",880,"65.csv","","null","resources/images/fishbone.png","null","",NA,NA,NA,NA,""
"image-keyboard-response",548,535296,"0.0-3.179-0.179","lpnfflf3dnecn2h",880,"65.csv","","370.60000014305115","resources/trios/L2T2A3.jpg","39","restless",0.3,0.3,0.5,0.794400216815064,"false"
"image-keyboard-response",549,535703,"0.0-3.179-1.179","lpnfflf3dnecn2h",880,"65.csv","","null","resources/maskTrios/BBA3.jpg","null","",NA,NA,NA,NA,""
"image-keyboard-response",550,536915,"0.0-3.179-2.179","lpnfflf3dnecn2h",880,"65.csv","","null","resources/images/fishbone.png","null","",NA,NA,NA,NA,""
"image-keyboard-response",551,537828,"0.0-3.180-0.180","lpnfflf3dnecn2h",880,"65.csv","","910.8999998569489","resources/trios/L4T2A3.jpg","37","restless",0.3,0.3,0.5,0.500548226313224,"false"
"image-keyboard-response",552,538243,"0.0-3.180-1.180","lpnfflf3dnecn2h",880,"65.csv","","null","resources/maskTrios/L4BB.jpg","null","",NA,NA,NA,NA,""
"image-keyboard-response",553,539447,"0.0-3.180-2.180","lpnfflf3dnecn2h",880,"65.csv","","null","resources/images/fishbone.png","null","",NA,NA,NA,NA,""
"image-keyboard-response",554,539746,"0.0-3.181-0.181","lpnfflf3dnecn2h",880,"65.csv","","296.69999980926514","resources/trios/L2T2A1.jpg","38","restless",0.3,0.3,0.5,0.526435815921849,"false"
"image-keyboard-response",555,540151,"0.0-3.181-1.181","lpnfflf3dnecn2h",880,"65.csv","","null","resources/maskTrios/BT2B.jpg","null","",NA,NA,NA,NA,""
"image-keyboard-response",556,541363,"0.0-3.181-2.181","lpnfflf3dnecn2h",880,"65.csv","","null","resources/images/fishbone.png","null","",NA,NA,NA,NA,""
"image-keyboard-response",557,541705,"0.0-3.182-0.182","lpnfflf3dnecn2h",880,"65.csv","","340.40000009536743","resources/trios/L2T4A3.jpg","39","restless",0.4,0.3,0.5,0.0434124775413625,"true"
"image-keyboard-response",558,542115,"0.0-3.182-1.182","lpnfflf3dnecn2h",880,"65.csv","","null","resources/maskTrios/BBA3.jpg","null","",NA,NA,NA,NA,""
"image-keyboard-response",559,543322,"0.0-3.182-2.182","lpnfflf3dnecn2h",880,"65.csv","","null","resources/images/coin2.png","null","",NA,NA,NA,NA,""
"image-keyboard-response",560,543757,"0.0-3.183-0.183","lpnfflf3dnecn2h",880,"65.csv","","432.59999990463257","resources/trios/L4T4A1.jpg","37","restless",0.3,0.3,0.5,0.735266309281161,"false"
"image-keyboard-response",561,544167,"0.0-3.183-1.183","lpnfflf3dnecn2h",880,"65.csv","","null","resources/maskTrios/L4BB.jpg","null","",NA,NA,NA,NA,""
"image-keyboard-response",562,545375,"0.0-3.183-2.183","lpnfflf3dnecn2h",880,"65.csv","","null","resources/images/fishbone.png","null","",NA,NA,NA,NA,""
"image-keyboard-response",563,545681,"0.0-3.184-0.184","lpnfflf3dnecn2h",880,"65.csv","","304.2000000476837","resources/trios/L2T2A3.jpg","38","restless",0.3,0.3,0.5,0.660720654730543,"false"
"image-keyboard-response",564,546091,"0.0-3.184-1.184","lpnfflf3dnecn2h",880,"65.csv","","null","resources/maskTrios/BT2B.jpg","null","",NA,NA,NA,NA,""
"image-keyboard-response",565,547299,"0.0-3.184-2.184","lpnfflf3dnecn2h",880,"65.csv","","null","resources/images/fishbone.png","null","",NA,NA,NA,NA,""
"image-keyboard-response",566,547585,"0.0-3.185-0.185","lpnfflf3dnecn2h",880,"65.csv","","284.39999985694885","resources/trios/L4T2A3.jpg","39","restless",0.3,0.3,0.5,0.509790446046999,"false"
"image-keyboard-response",567,547994,"0.0-3.185-1.185","lpnfflf3dnecn2h",880,"65.csv","","null","resources/maskTrios/BBA3.jpg","null","",NA,NA,NA,NA,""
"image-keyboard-response",568,549203,"0.0-3.185-2.185","lpnfflf3dnecn2h",880,"65.csv","","null","resources/images/fishbone.png","null","",NA,NA,NA,NA,""
"image-keyboard-response",569,549488,"0.0-3.186-0.186","lpnfflf3dnecn2h",880,"65.csv","","283.39999985694885","resources/trios/L4T2A3.jpg","38","restless",0.3,0.3,0.5,0.945622263923275,"false"
"image-keyboard-response",570,549898,"0.0-3.186-1.186","lpnfflf3dnecn2h",880,"65.csv","","null","resources/maskTrios/BT2B.jpg","null","",NA,NA,NA,NA,""
"image-keyboard-response",571,551106,"0.0-3.186-2.186","lpnfflf3dnecn2h",880,"65.csv","","null","resources/images/fishbone.png","null","",NA,NA,NA,NA,""
"image-keyboard-response",572,551231,"0.0-3.187-0.187","lpnfflf3dnecn2h",880,"65.csv","","122","resources/trios/L4T4A3.jpg","37","restless",0.4,0.3,0.5,0.917153634449307,"false"
"image-keyboard-response",573,551642,"0.0-3.187-1.187","lpnfflf3dnecn2h",880,"65.csv","","null","resources/maskTrios/L4BB.jpg","null","",NA,NA,NA,NA,""
"image-keyboard-response",574,552850,"0.0-3.187-2.187","lpnfflf3dnecn2h",880,"65.csv","","null","resources/images/fishbone.png","null","",NA,NA,NA,NA,""
"image-keyboard-response",575,553116,"0.0-3.188-0.188","lpnfflf3dnecn2h",880,"65.csv","","263.19999980926514","resources/trios/L4T2A1.jpg","39","restless",0.4,0.3,0.5,0.809626579611875,"false"
"image-keyboard-response",576,553530,"0.0-3.188-1.188","lpnfflf3dnecn2h",880,"65.csv","","null","resources/maskTrios/BBA1.jpg","null","",NA,NA,NA,NA,""
"image-keyboard-response",577,554733,"0.0-3.188-2.188","lpnfflf3dnecn2h",880,"65.csv","","null","resources/images/fishbone.png","null","",NA,NA,NA,NA,""
"image-keyboard-response",578,555234,"0.0-3.189-0.189","lpnfflf3dnecn2h",880,"65.csv","","498.69999980926514","resources/trios/L4T2A1.jpg","37","restless",0.4,0.3,0.5,0.68965974843709,"false"
"image-keyboard-response",579,555642,"0.0-3.189-1.189","lpnfflf3dnecn2h",880,"65.csv","","null","resources/maskTrios/L4BB.jpg","null","",NA,NA,NA,NA,""
"image-keyboard-response",580,556850,"0.0-3.189-2.189","lpnfflf3dnecn2h",880,"65.csv","","null","resources/images/fishbone.png","null","",NA,NA,NA,NA,""
"image-keyboard-response",581,557130,"0.0-3.190-0.190","lpnfflf3dnecn2h",880,"65.csv","","278.90000009536743","resources/trios/L2T4A1.jpg","38","restless",0.4,0.3,0.5,0.729533787145993,"false"
"image-keyboard-response",582,557534,"0.0-3.190-1.190","lpnfflf3dnecn2h",880,"65.csv","","null","resources/maskTrios/BT4B.jpg","null","",NA,NA,NA,NA,""
"image-keyboard-response",583,558746,"0.0-3.190-2.190","lpnfflf3dnecn2h",880,"65.csv","","null","resources/images/fishbone.png","null","",NA,NA,NA,NA,""
"image-keyboard-response",584,558944,"0.0-3.191-0.191","lpnfflf3dnecn2h",880,"65.csv","","195.79999995231628","resources/trios/L2T2A3.jpg","39","restless",0.4,0.3,0.5,0.866337773394693,"false"
"image-keyboard-response",585,559350,"0.0-3.191-1.191","lpnfflf3dnecn2h",880,"65.csv","","null","resources/maskTrios/BBA3.jpg","null","",NA,NA,NA,NA,""
"image-keyboard-response",586,560558,"0.0-3.191-2.191","lpnfflf3dnecn2h",880,"65.csv","","null","resources/images/fishbone.png","null","",NA,NA,NA,NA,""
"image-keyboard-response",587,560821,"0.0-3.192-0.192","lpnfflf3dnecn2h",880,"65.csv","","260.2999999523163","resources/trios/L2T4A1.jpg","38","restless",0.4,0.3,0.5,0.591512756517904,"false"
"image-keyboard-response",588,561234,"0.0-3.192-1.192","lpnfflf3dnecn2h",880,"65.csv","","null","resources/maskTrios/BT4B.jpg","null","",NA,NA,NA,NA,""
"image-keyboard-response",589,562442,"0.0-3.192-2.192","lpnfflf3dnecn2h",880,"65.csv","","null","resources/images/fishbone.png","null","",NA,NA,NA,NA,""
"image-keyboard-response",590,562738,"0.0-3.193-0.193","lpnfflf3dnecn2h",880,"65.csv","","293.59999990463257","resources/trios/L4T4A1.jpg","37","restless",0.4,0.3,0.5,0.687110932436509,"false"
"image-keyboard-response",591,563146,"0.0-3.193-1.193","lpnfflf3dnecn2h",880,"65.csv","","null","resources/maskTrios/L4BB.jpg","null","",NA,NA,NA,NA,""
"image-keyboard-response",592,564351,"0.0-3.193-2.193","lpnfflf3dnecn2h",880,"65.csv","","null","resources/images/fishbone.png","null","",NA,NA,NA,NA,""
"image-keyboard-response",593,564834,"0.0-3.194-0.194","lpnfflf3dnecn2h",880,"65.csv","","480.90000009536743","resources/trios/L2T2A3.jpg","39","restless",0.5,0.3,0.5,0.658823918734494,"false"
"image-keyboard-response",594,565238,"0.0-3.194-1.194","lpnfflf3dnecn2h",880,"65.csv","","null","resources/maskTrios/BBA3.jpg","null","",NA,NA,NA,NA,""
"image-keyboard-response",595,566449,"0.0-3.194-2.194","lpnfflf3dnecn2h",880,"65.csv","","null","resources/images/fishbone.png","null","",NA,NA,NA,NA,""
"image-keyboard-response",596,566734,"0.0-3.195-0.195","lpnfflf3dnecn2h",880,"65.csv","","282.90000009536743","resources/trios/L2T4A1.jpg","38","restless",0.5,0.3,0.5,0.891772592015089,"false"
"image-keyboard-response",597,567146,"0.0-3.195-1.195","lpnfflf3dnecn2h",880,"65.csv","","null","resources/maskTrios/BT4B.jpg","null","",NA,NA,NA,NA,""
"image-keyboard-response",598,568354,"0.0-3.195-2.195","lpnfflf3dnecn2h",880,"65.csv","","null","resources/images/fishbone.png","null","",NA,NA,NA,NA,""
"image-keyboard-response",599,568912,"0.0-3.196-0.196","lpnfflf3dnecn2h",880,"65.csv","","555.7999999523163","resources/trios/L4T2A3.jpg","38","restless",0.5,0.3,0.5,0.151541808739946,"true"
"image-keyboard-response",600,569322,"0.0-3.196-1.196","lpnfflf3dnecn2h",880,"65.csv","","null","resources/maskTrios/BT2B.jpg","null","",NA,NA,NA,NA,""
"image-keyboard-response",601,570530,"0.0-3.196-2.196","lpnfflf3dnecn2h",880,"65.csv","","null","resources/images/coin2.png","null","",NA,NA,NA,NA,""
"image-keyboard-response",602,570809,"0.0-3.197-0.197","lpnfflf3dnecn2h",880,"65.csv","","276.40000009536743","resources/trios/L4T4A1.jpg","38","restless",0.5,0.3,0.5,0.974915947523237,"false"
"image-keyboard-response",603,571218,"0.0-3.197-1.197","lpnfflf3dnecn2h",880,"65.csv","","null","resources/maskTrios/BT4B.jpg","null","",NA,NA,NA,NA,""
"image-keyboard-response",604,572426,"0.0-3.197-2.197","lpnfflf3dnecn2h",880,"65.csv","","null","resources/images/fishbone.png","null","",NA,NA,NA,NA,""
"image-keyboard-response",605,572728,"0.0-3.198-0.198","lpnfflf3dnecn2h",880,"65.csv","","300","resources/trios/L4T4A1.jpg","38","restless",0.6,0.3,0.6,0.838649186722322,"false"
"image-keyboard-response",606,573138,"0.0-3.198-1.198","lpnfflf3dnecn2h",880,"65.csv","","null","resources/maskTrios/BT4B.jpg","null","",NA,NA,NA,NA,""
"image-keyboard-response",607,574346,"0.0-3.198-2.198","lpnfflf3dnecn2h",880,"65.csv","","null","resources/images/fishbone.png","null","",NA,NA,NA,NA,""
"image-keyboard-response",608,574609,"0.0-3.199-0.199","lpnfflf3dnecn2h",880,"65.csv","","261.09999990463257","resources/trios/L2T4A3.jpg","37","restless",0.6,0.3,0.5,0.569911433992211,"true"
