"trial_type","trial_index","time_elapsed","internal_node_id","subject","participantCode","walkNumber","success","rt","stimulus","key_press","test_part","leftProb","midProb","rightProb","generatedNum","correct"
"pavlovia",0,1014,"0.0-0.0","yu4mdznnhs70jhh",772,"102.csv","","","","","",NA,NA,NA,NA,""
"fullscreen",1,4942,"0.0-1.0","yu4mdznnhs70jhh",772,"102.csv","true","","","","",NA,NA,NA,NA,""
"html-keyboard-response",2,20606,"0.0-2.0-0.0","yu4mdznnhs70jhh",772,"102.csv","","15661.599999904633","<p><font size='6'>Arrrgh!</p></font><p>Can you be the best pirate? Try to find lots of gold! But beware, some islands have more gold than others, and over time, the island with the most gold may change. Can YOU figure it out? </p><font size='6'>GOOD LUCK, CAPTAIN!!!</font><p>Press any key to begin</p>","32","",NA,NA,NA,NA,""
"image-keyboard-response",3,23613,"0.0-2.0-1.0","yu4mdznnhs70jhh",772,"102.csv","","null","resources/image_sets/111.png","null","",NA,NA,NA,NA,""
"image-keyboard-response",4,34067,"0.0-2.0-2.0","yu4mdznnhs70jhh",772,"102.csv","","10451.700000047684","resources/image_sets/left_highlight.png","37","",NA,NA,NA,NA,""
"image-keyboard-response",5,35706,"0.0-2.0-3.0","yu4mdznnhs70jhh",772,"102.csv","","1636.3000001907349","resources/image_sets/mid_highlight.png","38","",NA,NA,NA,NA,""
"image-keyboard-response",6,36841,"0.0-2.0-4.0","yu4mdznnhs70jhh",772,"102.csv","","1132.7999999523163","resources/image_sets/right_highlight.png","39","",NA,NA,NA,NA,""
"image-keyboard-response",7,40004,"0.0-2.0-5.0","yu4mdznnhs70jhh",772,"102.csv","","3161.9000000953674","resources/image_sets/111.png","13","",NA,NA,NA,NA,""
"image-keyboard-response",8,44338,"0.0-2.0-6.0","yu4mdznnhs70jhh",772,"102.csv","","4331.600000143051","resources/images/coin2.png","13","",NA,NA,NA,NA,""
"image-keyboard-response",9,46596,"0.0-2.0-7.0","yu4mdznnhs70jhh",772,"102.csv","","2255.7999999523163","resources/images/fishbone.png","13","",NA,NA,NA,NA,""
"html-keyboard-response",10,54574,"0.0-2.0-8.0","yu4mdznnhs70jhh",772,"102.csv","","7976.900000095367","<p>Your first journey will be a long one, but you will get a well deserved break at the end</p><p>After the break you will have four more journeys, but each will be much shorter than the first, and you will have breaks in between each</p><p>Press Enter to begin</p>","13","",NA,NA,NA,NA,""
"image-keyboard-response",11,57336,"0.0-3.0-0.0","yu4mdznnhs70jhh",772,"102.csv","","2757.4000000953674","resources/trios/L1T1A1.jpg","39","restless",0.3,0.9,0.7,0.242221458244465,"true"
"image-keyboard-response",12,57746,"0.0-3.0-1.0","yu4mdznnhs70jhh",772,"102.csv","","null","resources/maskTrios/BBA1.jpg","null","",NA,NA,NA,NA,""
"image-keyboard-response",13,58950,"0.0-3.0-2.0","yu4mdznnhs70jhh",772,"102.csv","","null","resources/images/coin2.png","null","",NA,NA,NA,NA,""
"image-keyboard-response",14,62246,"0.0-3.1-0.1","yu4mdznnhs70jhh",772,"102.csv","","3292.7000000476837","resources/trios/L4T2A1.jpg","37","restless",0.3,0.9,0.7,0.511291040292982,"false"
"image-keyboard-response",15,62650,"0.0-3.1-1.1","yu4mdznnhs70jhh",772,"102.csv","","null","resources/maskTrios/L4BB.jpg","null","",NA,NA,NA,NA,""
"image-keyboard-response",16,63857,"0.0-3.1-2.1","yu4mdznnhs70jhh",772,"102.csv","","null","resources/images/fishbone.png","null","",NA,NA,NA,NA,""
"image-keyboard-response",17,67969,"0.0-3.2-0.2","yu4mdznnhs70jhh",772,"102.csv","","4109.900000095367","resources/trios/L1T2A2.jpg","38","restless",0.3,0.9,0.6,0.163502542489709,"true"
"image-keyboard-response",18,68377,"0.0-3.2-1.2","yu4mdznnhs70jhh",772,"102.csv","","null","resources/maskTrios/BT2B.jpg","null","",NA,NA,NA,NA,""
"image-keyboard-response",19,69584,"0.0-3.2-2.2","yu4mdznnhs70jhh",772,"102.csv","","null","resources/images/coin2.png","null","",NA,NA,NA,NA,""
"image-keyboard-response",20,73397,"0.0-3.3-0.3","yu4mdznnhs70jhh",772,"102.csv","","3810.899999856949","resources/trios/L1T2A1.jpg","37","restless",0.3,0.9,0.6,0.185064221931182,"true"
"image-keyboard-response",21,73803,"0.0-3.3-1.3","yu4mdznnhs70jhh",772,"102.csv","","null","resources/maskTrios/L1BB.jpg","null","",NA,NA,NA,NA,""
"image-keyboard-response",22,75010,"0.0-3.3-2.3","yu4mdznnhs70jhh",772,"102.csv","","null","resources/images/coin2.png","null","",NA,NA,NA,NA,""
"image-keyboard-response",23,78164,"0.0-3.4-0.4","yu4mdznnhs70jhh",772,"102.csv","","3152.2000000476837","resources/trios/L4T1A2.jpg","38","restless",0.3,0.8,0.6,0.824589149327516,"false"
"image-keyboard-response",24,78567,"0.0-3.4-1.4","yu4mdznnhs70jhh",772,"102.csv","","null","resources/maskTrios/BT1B.jpg","null","",NA,NA,NA,NA,""
"image-keyboard-response",25,79774,"0.0-3.4-2.4","yu4mdznnhs70jhh",772,"102.csv","","null","resources/images/fishbone.png","null","",NA,NA,NA,NA,""
"image-keyboard-response",26,80765,"0.0-3.5-0.5","yu4mdznnhs70jhh",772,"102.csv","","989.0999999046326","resources/trios/L4T1A2.jpg","39","restless",0.3,0.8,0.6,0.667975394086021,"false"
"image-keyboard-response",27,81170,"0.0-3.5-1.5","yu4mdznnhs70jhh",772,"102.csv","","null","resources/maskTrios/BBA2.jpg","null","",NA,NA,NA,NA,""
"image-keyboard-response",28,82380,"0.0-3.5-2.5","yu4mdznnhs70jhh",772,"102.csv","","null","resources/images/fishbone.png","null","",NA,NA,NA,NA,""
"image-keyboard-response",29,84289,"0.0-3.6-0.6","yu4mdznnhs70jhh",772,"102.csv","","1906.9000000953674","resources/trios/L1T1A2.jpg","38","restless",0.3,0.8,0.6,0.35837193114752,"true"
"image-keyboard-response",30,84697,"0.0-3.6-1.6","yu4mdznnhs70jhh",772,"102.csv","","null","resources/maskTrios/BT1B.jpg","null","",NA,NA,NA,NA,""
"image-keyboard-response",31,85904,"0.0-3.6-2.6","yu4mdznnhs70jhh",772,"102.csv","","null","resources/images/coin2.png","null","",NA,NA,NA,NA,""
"image-keyboard-response",32,89623,"0.0-3.7-0.7","yu4mdznnhs70jhh",772,"102.csv","","3716.7000000476837","resources/trios/L4T2A1.jpg","37","restless",0.3,0.7,0.6,0.273660505874538,"true"
"image-keyboard-response",33,90027,"0.0-3.7-1.7","yu4mdznnhs70jhh",772,"102.csv","","null","resources/maskTrios/L4BB.jpg","null","",NA,NA,NA,NA,""
"image-keyboard-response",34,91234,"0.0-3.7-2.7","yu4mdznnhs70jhh",772,"102.csv","","null","resources/images/coin2.png","null","",NA,NA,NA,NA,""
"image-keyboard-response",35,94393,"0.0-3.8-0.8","yu4mdznnhs70jhh",772,"102.csv","","3157","resources/trios/L4T1A1.jpg","37","restless",0.3,0.7,0.6,0.542454262359906,"false"
"image-keyboard-response",36,94797,"0.0-3.8-1.8","yu4mdznnhs70jhh",772,"102.csv","","null","resources/maskTrios/L4BB.jpg","null","",NA,NA,NA,NA,""
"image-keyboard-response",37,96004,"0.0-3.8-2.8","yu4mdznnhs70jhh",772,"102.csv","","null","resources/images/fishbone.png","null","",NA,NA,NA,NA,""
"image-keyboard-response",38,99091,"0.0-3.9-0.9","yu4mdznnhs70jhh",772,"102.csv","","3084.7999999523163","resources/trios/L4T2A1.jpg","39","restless",0.3,0.7,0.5,0.710876530618524,"false"
"image-keyboard-response",39,99496,"0.0-3.9-1.9","yu4mdznnhs70jhh",772,"102.csv","","null","resources/maskTrios/BBA1.jpg","null","",NA,NA,NA,NA,""
"image-keyboard-response",40,100701,"0.0-3.9-2.9","yu4mdznnhs70jhh",772,"102.csv","","null","resources/images/fishbone.png","null","",NA,NA,NA,NA,""
"image-keyboard-response",41,102579,"0.0-3.10-0.10","yu4mdznnhs70jhh",772,"102.csv","","1875.5","resources/trios/L4T2A2.jpg","38","restless",0.3,0.7,0.5,0.950765831821417,"false"
"image-keyboard-response",42,102983,"0.0-3.10-1.10","yu4mdznnhs70jhh",772,"102.csv","","null","resources/maskTrios/BT2B.jpg","null","",NA,NA,NA,NA,""
"image-keyboard-response",43,104188,"0.0-3.10-2.10","yu4mdznnhs70jhh",772,"102.csv","","null","resources/images/fishbone.png","null","",NA,NA,NA,NA,""
"image-keyboard-response",44,105082,"0.0-3.11-0.11","yu4mdznnhs70jhh",772,"102.csv","","891.7999999523163","resources/trios/L4T1A2.jpg","39","restless",0.3,0.7,0.5,0.0684313994854044,"true"
"image-keyboard-response",45,105489,"0.0-3.11-1.11","yu4mdznnhs70jhh",772,"102.csv","","null","resources/maskTrios/BBA2.jpg","null","",NA,NA,NA,NA,""
"image-keyboard-response",46,106696,"0.0-3.11-2.11","yu4mdznnhs70jhh",772,"102.csv","","null","resources/images/coin2.png","null","",NA,NA,NA,NA,""
"image-keyboard-response",47,108178,"0.0-3.12-0.12","yu4mdznnhs70jhh",772,"102.csv","","1480.1000001430511","resources/trios/L4T1A2.jpg","38","restless",0.3,0.7,0.5,0.311116650324188,"true"
"image-keyboard-response",48,108585,"0.0-3.12-1.12","yu4mdznnhs70jhh",772,"102.csv","","null","resources/maskTrios/BT1B.jpg","null","",NA,NA,NA,NA,""
"image-keyboard-response",49,109788,"0.0-3.12-2.12","yu4mdznnhs70jhh",772,"102.csv","","null","resources/images/coin2.png","null","",NA,NA,NA,NA,""
"image-keyboard-response",50,110392,"0.0-3.13-0.13","yu4mdznnhs70jhh",772,"102.csv","","603.4000000953674","resources/trios/L1T1A1.jpg","37","restless",0.3,0.7,0.5,0.451231873618088,"false"
"image-keyboard-response",51,110794,"0.0-3.13-1.13","yu4mdznnhs70jhh",772,"102.csv","","null","resources/maskTrios/L1BB.jpg","null","",NA,NA,NA,NA,""
"image-keyboard-response",52,112000,"0.0-3.13-2.13","yu4mdznnhs70jhh",772,"102.csv","","null","resources/images/fishbone.png","null","",NA,NA,NA,NA,""
"image-keyboard-response",53,115526,"0.0-3.14-0.14","yu4mdznnhs70jhh",772,"102.csv","","3524","resources/trios/L1T2A2.jpg","39","restless",0.3,0.7,0.5,0.0703256692557035,"true"
"image-keyboard-response",54,115934,"0.0-3.14-1.14","yu4mdznnhs70jhh",772,"102.csv","","null","resources/maskTrios/BBA2.jpg","null","",NA,NA,NA,NA,""
"image-keyboard-response",55,117137,"0.0-3.14-2.14","yu4mdznnhs70jhh",772,"102.csv","","null","resources/images/coin2.png","null","",NA,NA,NA,NA,""
"image-keyboard-response",56,119167,"0.0-3.15-0.15","yu4mdznnhs70jhh",772,"102.csv","","2028.3000001907349","resources/trios/L4T2A1.jpg","38","restless",0.3,0.7,0.4,0.444500542793587,"true"
"image-keyboard-response",57,119574,"0.0-3.15-1.15","yu4mdznnhs70jhh",772,"102.csv","","null","resources/maskTrios/BT2B.jpg","null","",NA,NA,NA,NA,""
"image-keyboard-response",58,120781,"0.0-3.15-2.15","yu4mdznnhs70jhh",772,"102.csv","","null","resources/images/coin2.png","null","",NA,NA,NA,NA,""
"image-keyboard-response",59,121789,"0.0-3.16-0.16","yu4mdznnhs70jhh",772,"102.csv","","1005.4000000953674","resources/trios/L4T2A1.jpg","37","restless",0.3,0.7,0.4,0.993549137947224,"false"
"image-keyboard-response",60,122193,"0.0-3.16-1.16","yu4mdznnhs70jhh",772,"102.csv","","null","resources/maskTrios/L4BB.jpg","null","",NA,NA,NA,NA,""
"image-keyboard-response",61,123397,"0.0-3.16-2.16","yu4mdznnhs70jhh",772,"102.csv","","null","resources/images/fishbone.png","null","",NA,NA,NA,NA,""
"image-keyboard-response",62,126455,"0.0-3.17-0.17","yu4mdznnhs70jhh",772,"102.csv","","3055.5999999046326","resources/trios/L4T2A2.jpg","38","restless",0.3,0.7,0.4,0.316901586873178,"true"
"image-keyboard-response",63,126862,"0.0-3.17-1.17","yu4mdznnhs70jhh",772,"102.csv","","null","resources/maskTrios/BT2B.jpg","null","",NA,NA,NA,NA,""
"image-keyboard-response",64,128070,"0.0-3.17-2.17","yu4mdznnhs70jhh",772,"102.csv","","null","resources/images/coin2.png","null","",NA,NA,NA,NA,""
"image-keyboard-response",65,129335,"0.0-3.18-0.18","yu4mdznnhs70jhh",772,"102.csv","","1263.2999999523163","resources/trios/L1T1A2.jpg","38","restless",0.3,0.7,0.4,0.442617468687708,"true"
"image-keyboard-response",66,129738,"0.0-3.18-1.18","yu4mdznnhs70jhh",772,"102.csv","","null","resources/maskTrios/BT1B.jpg","null","",NA,NA,NA,NA,""
"image-keyboard-response",67,130945,"0.0-3.18-2.18","yu4mdznnhs70jhh",772,"102.csv","","null","resources/images/coin2.png","null","",NA,NA,NA,NA,""
"image-keyboard-response",68,132852,"0.0-3.19-0.19","yu4mdznnhs70jhh",772,"102.csv","","1905","resources/trios/L4T1A2.jpg","37","restless",0.3,0.7,0.4,0.196886132935762,"true"
"image-keyboard-response",69,133254,"0.0-3.19-1.19","yu4mdznnhs70jhh",772,"102.csv","","null","resources/maskTrios/L4BB.jpg","null","",NA,NA,NA,NA,""
"image-keyboard-response",70,134460,"0.0-3.19-2.19","yu4mdznnhs70jhh",772,"102.csv","","null","resources/images/coin2.png","null","",NA,NA,NA,NA,""
"image-keyboard-response",71,136640,"0.0-3.20-0.20","yu4mdznnhs70jhh",772,"102.csv","","2178.100000143051","resources/trios/L1T2A2.jpg","38","restless",0.3,0.7,0.3,0.15282446256766,"true"
"image-keyboard-response",72,137048,"0.0-3.20-1.20","yu4mdznnhs70jhh",772,"102.csv","","null","resources/maskTrios/BT2B.jpg","null","",NA,NA,NA,NA,""
"image-keyboard-response",73,138254,"0.0-3.20-2.20","yu4mdznnhs70jhh",772,"102.csv","","null","resources/images/coin2.png","null","",NA,NA,NA,NA,""
"image-keyboard-response",74,140932,"0.0-3.21-0.21","yu4mdznnhs70jhh",772,"102.csv","","2675.7000000476837","resources/trios/L4T2A1.jpg","39","restless",0.3,0.7,0.3,0.126208987583097,"true"
"image-keyboard-response",75,141335,"0.0-3.21-1.21","yu4mdznnhs70jhh",772,"102.csv","","null","resources/maskTrios/BBA1.jpg","null","",NA,NA,NA,NA,""
"image-keyboard-response",76,142537,"0.0-3.21-2.21","yu4mdznnhs70jhh",772,"102.csv","","null","resources/images/coin2.png","null","",NA,NA,NA,NA,""
"image-keyboard-response",77,145076,"0.0-3.22-0.22","yu4mdznnhs70jhh",772,"102.csv","","2537.7000000476837","resources/trios/L4T1A1.jpg","37","restless",0.3,0.6,0.3,0.360117743936781,"false"
"image-keyboard-response",78,145482,"0.0-3.22-1.22","yu4mdznnhs70jhh",772,"102.csv","","null","resources/maskTrios/L4BB.jpg","null","",NA,NA,NA,NA,""
"image-keyboard-response",79,146689,"0.0-3.22-2.22","yu4mdznnhs70jhh",772,"102.csv","","null","resources/images/fishbone.png","null","",NA,NA,NA,NA,""
"image-keyboard-response",80,148577,"0.0-3.23-0.23","yu4mdznnhs70jhh",772,"102.csv","","1885.2000000476837","resources/trios/L4T1A2.jpg","37","restless",0.3,0.6,0.3,0.16538366348439,"true"
"image-keyboard-response",81,148979,"0.0-3.23-1.23","yu4mdznnhs70jhh",772,"102.csv","","null","resources/maskTrios/L4BB.jpg","null","",NA,NA,NA,NA,""
"image-keyboard-response",82,150186,"0.0-3.23-2.23","yu4mdznnhs70jhh",772,"102.csv","","null","resources/images/coin2.png","null","",NA,NA,NA,NA,""
"image-keyboard-response",83,153138,"0.0-3.24-0.24","yu4mdznnhs70jhh",772,"102.csv","","2949.0999999046326","resources/trios/L1T1A2.jpg","38","restless",0.3,0.6,0.3,0.0250548672056756,"true"
"image-keyboard-response",84,153542,"0.0-3.24-1.24","yu4mdznnhs70jhh",772,"102.csv","","null","resources/maskTrios/BT1B.jpg","null","",NA,NA,NA,NA,""
"image-keyboard-response",85,154749,"0.0-3.24-2.24","yu4mdznnhs70jhh",772,"102.csv","","null","resources/images/coin2.png","null","",NA,NA,NA,NA,""
"image-keyboard-response",86,156651,"0.0-3.25-0.25","yu4mdznnhs70jhh",772,"102.csv","","1899.6000001430511","resources/trios/L1T2A1.jpg","37","restless",0.3,0.6,0.3,0.417823108772375,"false"
"image-keyboard-response",87,157058,"0.0-3.25-1.25","yu4mdznnhs70jhh",772,"102.csv","","null","resources/maskTrios/L1BB.jpg","null","",NA,NA,NA,NA,""
"image-keyboard-response",88,158265,"0.0-3.25-2.25","yu4mdznnhs70jhh",772,"102.csv","","null","resources/images/fishbone.png","null","",NA,NA,NA,NA,""
"image-keyboard-response",89,158876,"0.0-3.26-0.26","yu4mdznnhs70jhh",772,"102.csv","","609.5","resources/trios/L4T2A2.jpg","39","restless",0.3,0.5,0.3,0.0403907178936496,"true"
"image-keyboard-response",90,159284,"0.0-3.26-1.26","yu4mdznnhs70jhh",772,"102.csv","","null","resources/maskTrios/BBA2.jpg","null","",NA,NA,NA,NA,""
"image-keyboard-response",91,160491,"0.0-3.26-2.26","yu4mdznnhs70jhh",772,"102.csv","","null","resources/images/coin2.png","null","",NA,NA,NA,NA,""
"image-keyboard-response",92,161304,"0.0-3.27-0.27","yu4mdznnhs70jhh",772,"102.csv","","810.7000000476837","resources/trios/L4T1A1.jpg","39","restless",0.3,0.5,0.2,0.327645735021083,"false"
"image-keyboard-response",93,161709,"0.0-3.27-1.27","yu4mdznnhs70jhh",772,"102.csv","","null","resources/maskTrios/BBA1.jpg","null","",NA,NA,NA,NA,""
"image-keyboard-response",94,162912,"0.0-3.27-2.27","yu4mdznnhs70jhh",772,"102.csv","","null","resources/images/fishbone.png","null","",NA,NA,NA,NA,""
"image-keyboard-response",95,163202,"0.0-3.28-0.28","yu4mdznnhs70jhh",772,"102.csv","","288.09999990463257","resources/trios/L1T2A1.jpg","37","restless",0.3,0.5,0.2,0.0845031021417473,"true"
"image-keyboard-response",96,163609,"0.0-3.28-1.28","yu4mdznnhs70jhh",772,"102.csv","","null","resources/maskTrios/L1BB.jpg","null","",NA,NA,NA,NA,""
"image-keyboard-response",97,164816,"0.0-3.28-2.28","yu4mdznnhs70jhh",772,"102.csv","","null","resources/images/coin2.png","null","",NA,NA,NA,NA,""
"image-keyboard-response",98,165101,"0.0-3.29-0.29","yu4mdznnhs70jhh",772,"102.csv","","283","resources/trios/L1T1A2.jpg","38","restless",0.3,0.5,0.2,0.224304258801848,"true"
"image-keyboard-response",99,165506,"0.0-3.29-1.29","yu4mdznnhs70jhh",772,"102.csv","","null","resources/maskTrios/BT1B.jpg","null","",NA,NA,NA,NA,""
"image-keyboard-response",100,166710,"0.0-3.29-2.29","yu4mdznnhs70jhh",772,"102.csv","","null","resources/images/coin2.png","null","",NA,NA,NA,NA,""
"image-keyboard-response",101,167310,"0.0-3.30-0.30","yu4mdznnhs70jhh",772,"102.csv","","598.7999999523163","resources/trios/L1T2A2.jpg","39","restless",0.3,0.5,0.2,0.441898865162796,"false"
"image-keyboard-response",102,167714,"0.0-3.30-1.30","yu4mdznnhs70jhh",772,"102.csv","","null","resources/maskTrios/BBA2.jpg","null","",NA,NA,NA,NA,""
"image-keyboard-response",103,168916,"0.0-3.30-2.30","yu4mdznnhs70jhh",772,"102.csv","","null","resources/images/fishbone.png","null","",NA,NA,NA,NA,""
"image-keyboard-response",104,169204,"0.0-3.31-0.31","yu4mdznnhs70jhh",772,"102.csv","","286.2999999523163","resources/trios/L4T2A1.jpg","39","restless",0.3,0.5,0.2,0.456882796802388,"false"
"image-keyboard-response",105,169612,"0.0-3.31-1.31","yu4mdznnhs70jhh",772,"102.csv","","null","resources/maskTrios/BBA1.jpg","null","",NA,NA,NA,NA,""
"image-keyboard-response",106,170818,"0.0-3.31-2.31","yu4mdznnhs70jhh",772,"102.csv","","null","resources/images/fishbone.png","null","",NA,NA,NA,NA,""
"image-keyboard-response",107,172102,"0.0-3.32-0.32","yu4mdznnhs70jhh",772,"102.csv","","1281.7999999523163","resources/trios/L1T1A1.jpg","39","restless",0.3,0.5,0.2,0.146833914200402,"true"
"image-keyboard-response",108,172509,"0.0-3.32-1.32","yu4mdznnhs70jhh",772,"102.csv","","null","resources/maskTrios/BBA1.jpg","null","",NA,NA,NA,NA,""
"image-keyboard-response",109,173716,"0.0-3.32-2.32","yu4mdznnhs70jhh",772,"102.csv","","null","resources/images/coin2.png","null","",NA,NA,NA,NA,""
"image-keyboard-response",110,174082,"0.0-3.33-0.33","yu4mdznnhs70jhh",772,"102.csv","","363.7000000476837","resources/trios/L4T2A2.jpg","38","restless",0.3,0.5,0.2,0.689428935358516,"false"
"image-keyboard-response",111,174487,"0.0-3.33-1.33","yu4mdznnhs70jhh",772,"102.csv","","null","resources/maskTrios/BT2B.jpg","null","",NA,NA,NA,NA,""
"image-keyboard-response",112,175691,"0.0-3.33-2.33","yu4mdznnhs70jhh",772,"102.csv","","null","resources/images/fishbone.png","null","",NA,NA,NA,NA,""
"image-keyboard-response",113,176272,"0.0-3.34-0.34","yu4mdznnhs70jhh",772,"102.csv","","578.7999999523163","resources/trios/L1T2A1.jpg","38","restless",0.2,0.6,0.2,0.281545373146779,"true"
"image-keyboard-response",114,176677,"0.0-3.34-1.34","yu4mdznnhs70jhh",772,"102.csv","","null","resources/maskTrios/BT2B.jpg","null","",NA,NA,NA,NA,""
"image-keyboard-response",115,177884,"0.0-3.34-2.34","yu4mdznnhs70jhh",772,"102.csv","","null","resources/images/coin2.png","null","",NA,NA,NA,NA,""
"image-keyboard-response",116,178197,"0.0-3.35-0.35","yu4mdznnhs70jhh",772,"102.csv","","310.69999980926514","resources/trios/L4T2A1.jpg","37","restless",0.2,0.6,0.2,0.763204832083244,"false"
"image-keyboard-response",117,178603,"0.0-3.35-1.35","yu4mdznnhs70jhh",772,"102.csv","","null","resources/maskTrios/L4BB.jpg","null","",NA,NA,NA,NA,""
"image-keyboard-response",118,179806,"0.0-3.35-2.35","yu4mdznnhs70jhh",772,"102.csv","","null","resources/images/fishbone.png","null","",NA,NA,NA,NA,""
"image-keyboard-response",119,180082,"0.0-3.36-0.36","yu4mdznnhs70jhh",772,"102.csv","","275.7000000476837","resources/trios/L1T1A2.jpg","37","restless",0.2,0.6,0.2,0.364884599090032,"false"
"image-keyboard-response",120,180488,"0.0-3.36-1.36","yu4mdznnhs70jhh",772,"102.csv","","null","resources/maskTrios/L1BB.jpg","null","",NA,NA,NA,NA,""
"image-keyboard-response",121,181695,"0.0-3.36-2.36","yu4mdznnhs70jhh",772,"102.csv","","null","resources/images/fishbone.png","null","",NA,NA,NA,NA,""
"image-keyboard-response",122,182030,"0.0-3.37-0.37","yu4mdznnhs70jhh",772,"102.csv","","332.7000000476837","resources/trios/L1T2A2.jpg","37","restless",0.2,0.6,0.2,0.549608572236285,"false"
"image-keyboard-response",123,182436,"0.0-3.37-1.37","yu4mdznnhs70jhh",772,"102.csv","","null","resources/maskTrios/L1BB.jpg","null","",NA,NA,NA,NA,""
"image-keyboard-response",124,183640,"0.0-3.37-2.37","yu4mdznnhs70jhh",772,"102.csv","","null","resources/images/fishbone.png","null","",NA,NA,NA,NA,""
"image-keyboard-response",125,184005,"0.0-3.38-0.38","yu4mdznnhs70jhh",772,"102.csv","","362.10000014305115","resources/trios/L4T1A2.jpg","38","restless",0.2,0.6,0.2,0.617220972180077,"false"
"image-keyboard-response",126,184408,"0.0-3.38-1.38","yu4mdznnhs70jhh",772,"102.csv","","null","resources/maskTrios/BT1B.jpg","null","",NA,NA,NA,NA,""
"image-keyboard-response",127,185615,"0.0-3.38-2.38","yu4mdznnhs70jhh",772,"102.csv","","null","resources/images/fishbone.png","null","",NA,NA,NA,NA,""
"image-keyboard-response",128,186851,"0.0-3.39-0.39","yu4mdznnhs70jhh",772,"102.csv","","1234.1999998092651","resources/trios/L4T2A2.jpg","37","restless",0.3,0.6,0.3,0.682077724468825,"false"
"image-keyboard-response",129,187254,"0.0-3.39-1.39","yu4mdznnhs70jhh",772,"102.csv","","null","resources/maskTrios/L4BB.jpg","null","",NA,NA,NA,NA,""
"image-keyboard-response",130,188458,"0.0-3.39-2.39","yu4mdznnhs70jhh",772,"102.csv","","null","resources/images/fishbone.png","null","",NA,NA,NA,NA,""
"image-keyboard-response",131,189035,"0.0-3.40-0.40","yu4mdznnhs70jhh",772,"102.csv","","575.2000000476837","resources/trios/L4T1A2.jpg","38","restless",0.3,0.6,0.3,0.621193284172427,"false"
"image-keyboard-response",132,189442,"0.0-3.40-1.40","yu4mdznnhs70jhh",772,"102.csv","","null","resources/maskTrios/BT1B.jpg","null","",NA,NA,NA,NA,""
"image-keyboard-response",133,190647,"0.0-3.40-2.40","yu4mdznnhs70jhh",772,"102.csv","","null","resources/images/fishbone.png","null","",NA,NA,NA,NA,""
"image-keyboard-response",134,191063,"0.0-3.41-0.41","yu4mdznnhs70jhh",772,"102.csv","","414","resources/trios/L1T2A2.jpg","39","restless",0.3,0.5,0.3,0.938796933228253,"false"
"image-keyboard-response",135,191467,"0.0-3.41-1.41","yu4mdznnhs70jhh",772,"102.csv","","null","resources/maskTrios/BBA2.jpg","null","",NA,NA,NA,NA,""
"image-keyboard-response",136,192674,"0.0-3.41-2.41","yu4mdznnhs70jhh",772,"102.csv","","null","resources/images/fishbone.png","null","",NA,NA,NA,NA,""
"image-keyboard-response",137,194267,"0.0-3.42-0.42","yu4mdznnhs70jhh",772,"102.csv","","1590.5","resources/trios/L1T2A1.jpg","38","restless",0.3,0.5,0.3,0.406706646201159,"true"
"image-keyboard-response",138,194673,"0.0-3.42-1.42","yu4mdznnhs70jhh",772,"102.csv","","null","resources/maskTrios/BT2B.jpg","null","",NA,NA,NA,NA,""
"image-keyboard-response",139,195875,"0.0-3.42-2.42","yu4mdznnhs70jhh",772,"102.csv","","null","resources/images/coin2.png","null","",NA,NA,NA,NA,""
"image-keyboard-response",140,198384,"0.0-3.43-0.43","yu4mdznnhs70jhh",772,"102.csv","","2506.4000000953674","resources/trios/L4T1A1.jpg","39","restless",0.3,0.5,0.3,0.612579227632376,"false"
"image-keyboard-response",141,198786,"0.0-3.43-1.43","yu4mdznnhs70jhh",772,"102.csv","","null","resources/maskTrios/BBA1.jpg","null","",NA,NA,NA,NA,""
"image-keyboard-response",142,199993,"0.0-3.43-2.43","yu4mdznnhs70jhh",772,"102.csv","","null","resources/images/fishbone.png","null","",NA,NA,NA,NA,""
"image-keyboard-response",143,200947,"0.0-3.44-0.44","yu4mdznnhs70jhh",772,"102.csv","","952.2000000476837","resources/trios/L4T1A2.jpg","38","restless",0.3,0.5,0.3,0.62625418645654,"false"
"image-keyboard-response",144,201354,"0.0-3.44-1.44","yu4mdznnhs70jhh",772,"102.csv","","null","resources/maskTrios/BT1B.jpg","null","",NA,NA,NA,NA,""
"image-keyboard-response",145,202561,"0.0-3.44-2.44","yu4mdznnhs70jhh",772,"102.csv","","null","resources/images/fishbone.png","null","",NA,NA,NA,NA,""
"image-keyboard-response",146,202865,"0.0-3.45-0.45","yu4mdznnhs70jhh",772,"102.csv","","302.40000009536743","resources/trios/L4T1A1.jpg","39","restless",0.3,0.5,0.3,0.214832233356186,"true"
"image-keyboard-response",147,203271,"0.0-3.45-1.45","yu4mdznnhs70jhh",772,"102.csv","","null","resources/maskTrios/BBA1.jpg","null","",NA,NA,NA,NA,""
"image-keyboard-response",148,204478,"0.0-3.45-2.45","yu4mdznnhs70jhh",772,"102.csv","","null","resources/images/coin2.png","null","",NA,NA,NA,NA,""
"image-keyboard-response",149,205444,"0.0-3.46-0.46","yu4mdznnhs70jhh",772,"102.csv","","963.9000000953674","resources/trios/L4T2A1.jpg","37","restless",0.3,0.5,0.3,0.173880066378393,"true"
"image-keyboard-response",150,205852,"0.0-3.46-1.46","yu4mdznnhs70jhh",772,"102.csv","","null","resources/maskTrios/L4BB.jpg","null","",NA,NA,NA,NA,""
"image-keyboard-response",151,207057,"0.0-3.46-2.46","yu4mdznnhs70jhh",772,"102.csv","","null","resources/images/coin2.png","null","",NA,NA,NA,NA,""
"image-keyboard-response",152,208070,"0.0-3.47-0.47","yu4mdznnhs70jhh",772,"102.csv","","1010.7999999523163","resources/trios/L4T2A1.jpg","39","restless",0.3,0.5,0.4,0.0962550087701062,"true"
"image-keyboard-response",153,208474,"0.0-3.47-1.47","yu4mdznnhs70jhh",772,"102.csv","","null","resources/maskTrios/BBA1.jpg","null","",NA,NA,NA,NA,""
"image-keyboard-response",154,209681,"0.0-3.47-2.47","yu4mdznnhs70jhh",772,"102.csv","","null","resources/images/coin2.png","null","",NA,NA,NA,NA,""
"image-keyboard-response",155,210277,"0.0-3.48-0.48","yu4mdznnhs70jhh",772,"102.csv","","593.7000000476837","resources/trios/L1T1A2.jpg","37","restless",0.3,0.5,0.4,0.708137271937969,"false"
"image-keyboard-response",156,210685,"0.0-3.48-1.48","yu4mdznnhs70jhh",772,"102.csv","","null","resources/maskTrios/L1BB.jpg","null","",NA,NA,NA,NA,""
"image-keyboard-response",157,211887,"0.0-3.48-2.48","yu4mdznnhs70jhh",772,"102.csv","","null","resources/images/fishbone.png","null","",NA,NA,NA,NA,""
"image-keyboard-response",158,212201,"0.0-3.49-0.49","yu4mdznnhs70jhh",772,"102.csv","","312.39999985694885","resources/trios/L1T2A2.jpg","38","restless",0.3,0.5,0.4,0.201642698606094,"true"
"image-keyboard-response",159,212607,"0.0-3.49-1.49","yu4mdznnhs70jhh",772,"102.csv","","null","resources/maskTrios/BT2B.jpg","null","",NA,NA,NA,NA,""
"image-keyboard-response",160,213814,"0.0-3.49-2.49","yu4mdznnhs70jhh",772,"102.csv","","null","resources/images/coin2.png","null","",NA,NA,NA,NA,""
"image-keyboard-response",161,214421,"0.0-3.50-0.50","yu4mdznnhs70jhh",772,"102.csv","","604.7000000476837","resources/trios/L1T1A1.jpg","39","restless",0.2,0.5,0.4,0.603696805030807,"false"
"image-keyboard-response",162,214824,"0.0-3.50-1.50","yu4mdznnhs70jhh",772,"102.csv","","null","resources/maskTrios/BBA1.jpg","null","",NA,NA,NA,NA,""
"image-keyboard-response",163,216027,"0.0-3.50-2.50","yu4mdznnhs70jhh",772,"102.csv","","null","resources/images/fishbone.png","null","",NA,NA,NA,NA,""
"image-keyboard-response",164,216817,"0.0-3.51-0.51","yu4mdznnhs70jhh",772,"102.csv","","788.8000001907349","resources/trios/L4T1A1.jpg","39","restless",0.2,0.5,0.4,0.638200504871376,"false"
"image-keyboard-response",165,217223,"0.0-3.51-1.51","yu4mdznnhs70jhh",772,"102.csv","","null","resources/maskTrios/BBA1.jpg","null","",NA,NA,NA,NA,""
"image-keyboard-response",166,218428,"0.0-3.51-2.51","yu4mdznnhs70jhh",772,"102.csv","","null","resources/images/fishbone.png","null","",NA,NA,NA,NA,""
"image-keyboard-response",167,218710,"0.0-3.52-0.52","yu4mdznnhs70jhh",772,"102.csv","","280.59999990463257","resources/trios/L1T2A1.jpg","38","restless",0.2,0.5,0.4,0.308732291277902,"true"
"image-keyboard-response",168,219117,"0.0-3.52-1.52","yu4mdznnhs70jhh",772,"102.csv","","null","resources/maskTrios/BT2B.jpg","null","",NA,NA,NA,NA,""
"image-keyboard-response",169,220320,"0.0-3.52-2.52","yu4mdznnhs70jhh",772,"102.csv","","null","resources/images/coin2.png","null","",NA,NA,NA,NA,""
"image-keyboard-response",170,220787,"0.0-3.53-0.53","yu4mdznnhs70jhh",772,"102.csv","","464.59999990463257","resources/trios/L1T2A1.jpg","37","restless",0.2,0.4,0.3,0.626138064115894,"false"
"image-keyboard-response",171,221194,"0.0-3.53-1.53","yu4mdznnhs70jhh",772,"102.csv","","null","resources/maskTrios/L1BB.jpg","null","",NA,NA,NA,NA,""
"image-keyboard-response",172,222399,"0.0-3.53-2.53","yu4mdznnhs70jhh",772,"102.csv","","null","resources/images/fishbone.png","null","",NA,NA,NA,NA,""
"image-keyboard-response",173,222681,"0.0-3.54-0.54","yu4mdznnhs70jhh",772,"102.csv","","279.7000000476837","resources/trios/L1T1A1.jpg","38","restless",0.2,0.4,0.3,0.819628247182121,"false"
"image-keyboard-response",174,223089,"0.0-3.54-1.54","yu4mdznnhs70jhh",772,"102.csv","","null","resources/maskTrios/BT1B.jpg","null","",NA,NA,NA,NA,""
"image-keyboard-response",175,224295,"0.0-3.54-2.54","yu4mdznnhs70jhh",772,"102.csv","","null","resources/images/fishbone.png","null","",NA,NA,NA,NA,""
"image-keyboard-response",176,224584,"0.0-3.55-0.55","yu4mdznnhs70jhh",772,"102.csv","","286.5","resources/trios/L4T2A2.jpg","39","restless",0.2,0.4,0.3,0.101877488281559,"true"
"image-keyboard-response",177,224991,"0.0-3.55-1.55","yu4mdznnhs70jhh",772,"102.csv","","null","resources/maskTrios/BBA2.jpg","null","",NA,NA,NA,NA,""
"image-keyboard-response",178,226195,"0.0-3.55-2.55","yu4mdznnhs70jhh",772,"102.csv","","null","resources/images/coin2.png","null","",NA,NA,NA,NA,""
"image-keyboard-response",179,226535,"0.0-3.56-0.56","yu4mdznnhs70jhh",772,"102.csv","","337.90000009536743","resources/trios/L1T2A2.jpg","37","restless",0.2,0.4,0.3,0.907616722168375,"false"
"image-keyboard-response",180,226943,"0.0-3.56-1.56","yu4mdznnhs70jhh",772,"102.csv","","null","resources/maskTrios/L1BB.jpg","null","",NA,NA,NA,NA,""
"image-keyboard-response",181,228149,"0.0-3.56-2.56","yu4mdznnhs70jhh",772,"102.csv","","null","resources/images/fishbone.png","null","",NA,NA,NA,NA,""
"image-keyboard-response",182,228467,"0.0-3.57-0.57","yu4mdznnhs70jhh",772,"102.csv","","315.7999999523163","resources/trios/L1T1A1.jpg","38","restless",0.2,0.4,0.3,0.0996866962419176,"true"
"image-keyboard-response",183,228870,"0.0-3.57-1.57","yu4mdznnhs70jhh",772,"102.csv","","null","resources/maskTrios/BT1B.jpg","null","",NA,NA,NA,NA,""
"image-keyboard-response",184,230077,"0.0-3.57-2.57","yu4mdznnhs70jhh",772,"102.csv","","null","resources/images/coin2.png","null","",NA,NA,NA,NA,""
"image-keyboard-response",185,230571,"0.0-3.58-0.58","yu4mdznnhs70jhh",772,"102.csv","","491.59999990463257","resources/trios/L4T2A2.jpg","37","restless",0.1,0.4,0.3,0.456574549640357,"false"
"image-keyboard-response",186,230977,"0.0-3.58-1.58","yu4mdznnhs70jhh",772,"102.csv","","null","resources/maskTrios/L4BB.jpg","null","",NA,NA,NA,NA,""
"image-keyboard-response",187,232179,"0.0-3.58-2.58","yu4mdznnhs70jhh",772,"102.csv","","null","resources/images/fishbone.png","null","",NA,NA,NA,NA,""
"image-keyboard-response",188,232686,"0.0-3.59-0.59","yu4mdznnhs70jhh",772,"102.csv","","504.69999980926514","resources/trios/L1T1A2.jpg","37","restless",0.1,0.4,0.3,0.332756567294918,"false"
"image-keyboard-response",189,233093,"0.0-3.59-1.59","yu4mdznnhs70jhh",772,"102.csv","","null","resources/maskTrios/L1BB.jpg","null","",NA,NA,NA,NA,""
"image-keyboard-response",190,234297,"0.0-3.59-2.59","yu4mdznnhs70jhh",772,"102.csv","","null","resources/images/fishbone.png","null","",NA,NA,NA,NA,""
"image-keyboard-response",191,234604,"0.0-3.60-0.60","yu4mdznnhs70jhh",772,"102.csv","","304.40000009536743","resources/trios/L1T2A1.jpg","39","restless",0.1,0.5,0.3,0.840145066570275,"false"
"image-keyboard-response",192,235011,"0.0-3.60-1.60","yu4mdznnhs70jhh",772,"102.csv","","null","resources/maskTrios/BBA1.jpg","null","",NA,NA,NA,NA,""
"image-keyboard-response",193,236215,"0.0-3.60-2.60","yu4mdznnhs70jhh",772,"102.csv","","null","resources/images/fishbone.png","null","",NA,NA,NA,NA,""
"image-keyboard-response",194,236845,"0.0-3.61-0.61","yu4mdznnhs70jhh",772,"102.csv","","628.2999999523163","resources/trios/L1T1A2.jpg","37","restless",0.1,0.5,0.3,0.776123672812388,"false"
"image-keyboard-response",195,237249,"0.0-3.61-1.61","yu4mdznnhs70jhh",772,"102.csv","","null","resources/maskTrios/L1BB.jpg","null","",NA,NA,NA,NA,""
"image-keyboard-response",196,238456,"0.0-3.61-2.61","yu4mdznnhs70jhh",772,"102.csv","","null","resources/images/fishbone.png","null","",NA,NA,NA,NA,""
"image-keyboard-response",197,238864,"0.0-3.62-0.62","yu4mdznnhs70jhh",772,"102.csv","","405.7000000476837","resources/trios/L4T2A1.jpg","38","restless",0.1,0.5,0.4,0.605508682494186,"false"
"image-keyboard-response",198,239270,"0.0-3.62-1.62","yu4mdznnhs70jhh",772,"102.csv","","null","resources/maskTrios/BT2B.jpg","null","",NA,NA,NA,NA,""
"image-keyboard-response",199,240476,"0.0-3.62-2.62","yu4mdznnhs70jhh",772,"102.csv","","null","resources/images/fishbone.png","null","",NA,NA,NA,NA,""
"image-keyboard-response",200,240938,"0.0-3.63-0.63","yu4mdznnhs70jhh",772,"102.csv","","459.19999980926514","resources/trios/L4T2A1.jpg","39","restless",0.1,0.6,0.4,0.952078919570902,"false"
"image-keyboard-response",201,241342,"0.0-3.63-1.63","yu4mdznnhs70jhh",772,"102.csv","","null","resources/maskTrios/BBA1.jpg","null","",NA,NA,NA,NA,""
"image-keyboard-response",202,242545,"0.0-3.63-2.63","yu4mdznnhs70jhh",772,"102.csv","","null","resources/images/fishbone.png","null","",NA,NA,NA,NA,""
"image-keyboard-response",203,242893,"0.0-3.64-0.64","yu4mdznnhs70jhh",772,"102.csv","","346","resources/trios/L1T1A1.jpg","39","restless",0.1,0.6,0.4,0.541962395028563,"false"
"image-keyboard-response",204,243300,"0.0-3.64-1.64","yu4mdznnhs70jhh",772,"102.csv","","null","resources/maskTrios/BBA1.jpg","null","",NA,NA,NA,NA,""
"image-keyboard-response",205,244505,"0.0-3.64-2.64","yu4mdznnhs70jhh",772,"102.csv","","null","resources/images/fishbone.png","null","",NA,NA,NA,NA,""
"image-keyboard-response",206,244797,"0.0-3.65-0.65","yu4mdznnhs70jhh",772,"102.csv","","288.90000009536743","resources/trios/L1T2A2.jpg","39","restless",0.1,0.6,0.4,0.662726073582536,"false"
"image-keyboard-response",207,245204,"0.0-3.65-1.65","yu4mdznnhs70jhh",772,"102.csv","","null","resources/maskTrios/BBA2.jpg","null","",NA,NA,NA,NA,""
"image-keyboard-response",208,246410,"0.0-3.65-2.65","yu4mdznnhs70jhh",772,"102.csv","","null","resources/images/fishbone.png","null","",NA,NA,NA,NA,""
"image-keyboard-response",209,247264,"0.0-3.66-0.66","yu4mdznnhs70jhh",772,"102.csv","","851.0999999046326","resources/trios/L4T2A2.jpg","37","restless",0.1,0.6,0.5,0.350814745403004,"false"
"image-keyboard-response",210,247671,"0.0-3.66-1.66","yu4mdznnhs70jhh",772,"102.csv","","null","resources/maskTrios/L4BB.jpg","null","",NA,NA,NA,NA,""
"image-keyboard-response",211,248878,"0.0-3.66-2.66","yu4mdznnhs70jhh",772,"102.csv","","null","resources/images/fishbone.png","null","",NA,NA,NA,NA,""
"image-keyboard-response",212,249201,"0.0-3.67-0.67","yu4mdznnhs70jhh",772,"102.csv","","320.7999999523163","resources/trios/L1T2A2.jpg","38","restless",0.1,0.6,0.5,0.716682788013111,"false"
"image-keyboard-response",213,249606,"0.0-3.67-1.67","yu4mdznnhs70jhh",772,"102.csv","","null","resources/maskTrios/BT2B.jpg","null","",NA,NA,NA,NA,""
"image-keyboard-response",214,250809,"0.0-3.67-2.67","yu4mdznnhs70jhh",772,"102.csv","","null","resources/images/fishbone.png","null","",NA,NA,NA,NA,""
"image-keyboard-response",215,251084,"0.0-3.68-0.68","yu4mdznnhs70jhh",772,"102.csv","","273.10000014305115","resources/trios/L4T2A1.jpg","38","restless",0.1,0.6,0.5,0.735875096618917,"false"
"image-keyboard-response",216,251491,"0.0-3.68-1.68","yu4mdznnhs70jhh",772,"102.csv","","null","resources/maskTrios/BT2B.jpg","null","",NA,NA,NA,NA,""
"image-keyboard-response",217,252696,"0.0-3.68-2.68","yu4mdznnhs70jhh",772,"102.csv","","null","resources/images/fishbone.png","null","",NA,NA,NA,NA,""
"image-keyboard-response",218,253082,"0.0-3.69-0.69","yu4mdznnhs70jhh",772,"102.csv","","383.2999999523163","resources/trios/L1T2A2.jpg","38","restless",0.1,0.6,0.5,0.858853871672018,"false"
"image-keyboard-response",219,253489,"0.0-3.69-1.69","yu4mdznnhs70jhh",772,"102.csv","","null","resources/maskTrios/BT2B.jpg","null","",NA,NA,NA,NA,""
"image-keyboard-response",220,254694,"0.0-3.69-2.69","yu4mdznnhs70jhh",772,"102.csv","","null","resources/images/fishbone.png","null","",NA,NA,NA,NA,""
"image-keyboard-response",221,255438,"0.0-3.70-0.70","yu4mdznnhs70jhh",772,"102.csv","","742.5","resources/trios/L1T1A2.jpg","38","restless",0.1,0.6,0.5,0.318560814309801,"true"
"image-keyboard-response",222,255845,"0.0-3.70-1.70","yu4mdznnhs70jhh",772,"102.csv","","null","resources/maskTrios/BT1B.jpg","null","",NA,NA,NA,NA,""
"image-keyboard-response",223,257051,"0.0-3.70-2.70","yu4mdznnhs70jhh",772,"102.csv","","null","resources/images/coin2.png","null","",NA,NA,NA,NA,""
"image-keyboard-response",224,257431,"0.0-3.71-0.71","yu4mdznnhs70jhh",772,"102.csv","","377.40000009536743","resources/trios/L1T2A2.jpg","39","restless",0.1,0.6,0.5,0.739442814134358,"false"
"image-keyboard-response",225,257838,"0.0-3.71-1.71","yu4mdznnhs70jhh",772,"102.csv","","null","resources/maskTrios/BBA2.jpg","null","",NA,NA,NA,NA,""
"image-keyboard-response",226,259044,"0.0-3.71-2.71","yu4mdznnhs70jhh",772,"102.csv","","null","resources/images/fishbone.png","null","",NA,NA,NA,NA,""
"image-keyboard-response",227,259523,"0.0-3.72-0.72","yu4mdznnhs70jhh",772,"102.csv","","477.09999990463257","resources/trios/L1T2A1.jpg","39","restless",0.2,0.6,0.5,0.72649148025631,"false"
"image-keyboard-response",228,259926,"0.0-3.72-1.72","yu4mdznnhs70jhh",772,"102.csv","","null","resources/maskTrios/BBA1.jpg","null","",NA,NA,NA,NA,""
"image-keyboard-response",229,261133,"0.0-3.72-2.72","yu4mdznnhs70jhh",772,"102.csv","","null","resources/images/fishbone.png","null","",NA,NA,NA,NA,""
"image-keyboard-response",230,261168,"0.0-3.73-0.73","yu4mdznnhs70jhh",772,"102.csv","","33.299999952316284","resources/trios/L4T2A1.jpg","37","restless",0.3,0.6,0.5,0.349450026867622,"false"
"image-keyboard-response",231,261571,"0.0-3.73-1.73","yu4mdznnhs70jhh",772,"102.csv","","null","resources/maskTrios/L4BB.jpg","null","",NA,NA,NA,NA,""
"image-keyboard-response",232,262778,"0.0-3.73-2.73","yu4mdznnhs70jhh",772,"102.csv","","null","resources/images/fishbone.png","null","",NA,NA,NA,NA,""
"image-keyboard-response",233,263185,"0.0-3.74-0.74","yu4mdznnhs70jhh",772,"102.csv","","404.5","resources/trios/L1T2A2.jpg","38","restless",0.3,0.6,0.5,0.461902884865553,"true"
"image-keyboard-response",234,263587,"0.0-3.74-1.74","yu4mdznnhs70jhh",772,"102.csv","","null","resources/maskTrios/BT2B.jpg","null","",NA,NA,NA,NA,""
"image-keyboard-response",235,264794,"0.0-3.74-2.74","yu4mdznnhs70jhh",772,"102.csv","","null","resources/images/coin2.png","null","",NA,NA,NA,NA,""
"image-keyboard-response",236,265066,"0.0-3.75-0.75","yu4mdznnhs70jhh",772,"102.csv","","270.60000014305115","resources/trios/L1T1A1.jpg","37","restless",0.3,0.6,0.5,0.87262079624653,"false"
"image-keyboard-response",237,265474,"0.0-3.75-1.75","yu4mdznnhs70jhh",772,"102.csv","","null","resources/maskTrios/L1BB.jpg","null","",NA,NA,NA,NA,""
"image-keyboard-response",238,266677,"0.0-3.75-2.75","yu4mdznnhs70jhh",772,"102.csv","","null","resources/images/fishbone.png","null","",NA,NA,NA,NA,""
"image-keyboard-response",239,267412,"0.0-3.76-0.76","yu4mdznnhs70jhh",772,"102.csv","","732.9000000953674","resources/trios/L4T1A1.jpg","39","restless",0.3,0.6,0.5,0.383335029737699,"true"
"image-keyboard-response",240,267817,"0.0-3.76-1.76","yu4mdznnhs70jhh",772,"102.csv","","null","resources/maskTrios/BBA1.jpg","null","",NA,NA,NA,NA,""
"image-keyboard-response",241,269020,"0.0-3.76-2.76","yu4mdznnhs70jhh",772,"102.csv","","null","resources/images/coin2.png","null","",NA,NA,NA,NA,""
"image-keyboard-response",242,269661,"0.0-3.77-0.77","yu4mdznnhs70jhh",772,"102.csv","","638.9000000953674","resources/trios/L1T1A1.jpg","37","restless",0.3,0.6,0.5,0.050303228546833,"true"
"image-keyboard-response",243,270066,"0.0-3.77-1.77","yu4mdznnhs70jhh",772,"102.csv","","null","resources/maskTrios/L1BB.jpg","null","",NA,NA,NA,NA,""
"image-keyboard-response",244,271271,"0.0-3.77-2.77","yu4mdznnhs70jhh",772,"102.csv","","null","resources/images/coin2.png","null","",NA,NA,NA,NA,""
"image-keyboard-response",245,271854,"0.0-3.78-0.78","yu4mdznnhs70jhh",772,"102.csv","","580.8999998569489","resources/trios/L4T2A1.jpg","37","restless",0.3,0.6,0.5,0.531630306558703,"false"
"image-keyboard-response",246,272260,"0.0-3.78-1.78","yu4mdznnhs70jhh",772,"102.csv","","null","resources/maskTrios/L4BB.jpg","null","",NA,NA,NA,NA,""
"image-keyboard-response",247,273466,"0.0-3.78-2.78","yu4mdznnhs70jhh",772,"102.csv","","null","resources/images/fishbone.png","null","",NA,NA,NA,NA,""
"image-keyboard-response",248,273764,"0.0-3.79-0.79","yu4mdznnhs70jhh",772,"102.csv","","295.7000000476837","resources/trios/L1T1A2.jpg","38","restless",0.3,0.6,0.5,0.793502450857886,"false"
"image-keyboard-response",249,274166,"0.0-3.79-1.79","yu4mdznnhs70jhh",772,"102.csv","","null","resources/maskTrios/BT1B.jpg","null","",NA,NA,NA,NA,""
"image-keyboard-response",250,275368,"0.0-3.79-2.79","yu4mdznnhs70jhh",772,"102.csv","","null","resources/images/fishbone.png","null","",NA,NA,NA,NA,""
"image-keyboard-response",251,275634,"0.0-3.80-0.80","yu4mdznnhs70jhh",772,"102.csv","","263.59999990463257","resources/trios/L4T2A2.jpg","39","restless",0.3,0.6,0.5,0.385072854445271,"true"
"image-keyboard-response",252,276039,"0.0-3.80-1.80","yu4mdznnhs70jhh",772,"102.csv","","null","resources/maskTrios/BBA2.jpg","null","",NA,NA,NA,NA,""
"image-keyboard-response",253,277241,"0.0-3.80-2.80","yu4mdznnhs70jhh",772,"102.csv","","null","resources/images/coin2.png","null","",NA,NA,NA,NA,""
"image-keyboard-response",254,277741,"0.0-3.81-0.81","yu4mdznnhs70jhh",772,"102.csv","","497.10000014305115","resources/trios/L4T1A2.jpg","37","restless",0.3,0.6,0.5,0.925722636606115,"false"
"image-keyboard-response",255,278146,"0.0-3.81-1.81","yu4mdznnhs70jhh",772,"102.csv","","null","resources/maskTrios/L4BB.jpg","null","",NA,NA,NA,NA,""
"image-keyboard-response",256,279352,"0.0-3.81-2.81","yu4mdznnhs70jhh",772,"102.csv","","null","resources/images/fishbone.png","null","",NA,NA,NA,NA,""
"image-keyboard-response",257,279696,"0.0-3.82-0.82","yu4mdznnhs70jhh",772,"102.csv","","341.60000014305115","resources/trios/L4T2A1.jpg","39","restless",0.3,0.6,0.5,0.428932692923191,"true"
"image-keyboard-response",258,280103,"0.0-3.82-1.82","yu4mdznnhs70jhh",772,"102.csv","","null","resources/maskTrios/BBA1.jpg","null","",NA,NA,NA,NA,""
"image-keyboard-response",259,281310,"0.0-3.82-2.82","yu4mdznnhs70jhh",772,"102.csv","","null","resources/images/coin2.png","null","",NA,NA,NA,NA,""
"image-keyboard-response",260,281602,"0.0-3.83-0.83","yu4mdznnhs70jhh",772,"102.csv","","290.10000014305115","resources/trios/L1T2A2.jpg","38","restless",0.4,0.6,0.5,0.714303233326317,"false"
"image-keyboard-response",261,282008,"0.0-3.83-1.83","yu4mdznnhs70jhh",772,"102.csv","","null","resources/maskTrios/BT2B.jpg","null","",NA,NA,NA,NA,""
"image-keyboard-response",262,283212,"0.0-3.83-2.83","yu4mdznnhs70jhh",772,"102.csv","","null","resources/images/fishbone.png","null","",NA,NA,NA,NA,""
"image-keyboard-response",263,283610,"0.0-3.84-0.84","yu4mdznnhs70jhh",772,"102.csv","","396.5","resources/trios/L4T2A2.jpg","37","restless",0.4,0.6,0.5,0.953960964278751,"false"
"image-keyboard-response",264,284014,"0.0-3.84-1.84","yu4mdznnhs70jhh",772,"102.csv","","null","resources/maskTrios/L4BB.jpg","null","",NA,NA,NA,NA,""
"image-keyboard-response",265,285219,"0.0-3.84-2.84","yu4mdznnhs70jhh",772,"102.csv","","null","resources/images/fishbone.png","null","",NA,NA,NA,NA,""
"image-keyboard-response",266,285571,"0.0-3.85-0.85","yu4mdznnhs70jhh",772,"102.csv","","349.60000014305115","resources/trios/L4T1A1.jpg","37","restless",0.4,0.6,0.6,0.31975428414603,"true"
"image-keyboard-response",267,285977,"0.0-3.85-1.85","yu4mdznnhs70jhh",772,"102.csv","","null","resources/maskTrios/L4BB.jpg","null","",NA,NA,NA,NA,""
"image-keyboard-response",268,287184,"0.0-3.85-2.85","yu4mdznnhs70jhh",772,"102.csv","","null","resources/images/coin2.png","null","",NA,NA,NA,NA,""
"image-keyboard-response",269,287821,"0.0-3.86-0.86","yu4mdznnhs70jhh",772,"102.csv","","634.2000000476837","resources/trios/L4T1A2.jpg","37","restless",0.4,0.6,0.6,0.317722424847848,"true"
"image-keyboard-response",270,288224,"0.0-3.86-1.86","yu4mdznnhs70jhh",772,"102.csv","","null","resources/maskTrios/L4BB.jpg","null","",NA,NA,NA,NA,""
"image-keyboard-response",271,289431,"0.0-3.86-2.86","yu4mdznnhs70jhh",772,"102.csv","","null","resources/images/coin2.png","null","",NA,NA,NA,NA,""
"image-keyboard-response",272,290034,"0.0-3.87-0.87","yu4mdznnhs70jhh",772,"102.csv","","601","resources/trios/L1T2A1.jpg","38","restless",0.4,0.6,0.6,0.179463549160987,"true"
"image-keyboard-response",273,290437,"0.0-3.87-1.87","yu4mdznnhs70jhh",772,"102.csv","","null","resources/maskTrios/BT2B.jpg","null","",NA,NA,NA,NA,""
"image-keyboard-response",274,291644,"0.0-3.87-2.87","yu4mdznnhs70jhh",772,"102.csv","","null","resources/images/coin2.png","null","",NA,NA,NA,NA,""
"image-keyboard-response",275,292337,"0.0-3.88-0.88","yu4mdznnhs70jhh",772,"102.csv","","691.2999999523163","resources/trios/L1T2A1.jpg","38","restless",0.4,0.6,0.6,0.770681479672152,"false"
"image-keyboard-response",276,292741,"0.0-3.88-1.88","yu4mdznnhs70jhh",772,"102.csv","","null","resources/maskTrios/BT2B.jpg","null","",NA,NA,NA,NA,""
"image-keyboard-response",277,293948,"0.0-3.88-2.88","yu4mdznnhs70jhh",772,"102.csv","","null","resources/images/fishbone.png","null","",NA,NA,NA,NA,""
"image-keyboard-response",278,294255,"0.0-3.89-0.89","yu4mdznnhs70jhh",772,"102.csv","","304.5","resources/trios/L4T1A2.jpg","37","restless",0.4,0.6,0.5,0.0265829582300263,"true"
"image-keyboard-response",279,294660,"0.0-3.89-1.89","yu4mdznnhs70jhh",772,"102.csv","","null","resources/maskTrios/L4BB.jpg","null","",NA,NA,NA,NA,""
"image-keyboard-response",280,295867,"0.0-3.89-2.89","yu4mdznnhs70jhh",772,"102.csv","","null","resources/images/coin2.png","null","",NA,NA,NA,NA,""
"image-keyboard-response",281,296968,"0.0-3.90-0.90","yu4mdznnhs70jhh",772,"102.csv","","1098.5999999046326","resources/trios/L4T1A2.jpg","39","restless",0.5,0.6,0.5,0.448957045292648,"true"
"image-keyboard-response",282,297372,"0.0-3.90-1.90","yu4mdznnhs70jhh",772,"102.csv","","null","resources/maskTrios/BBA2.jpg","null","",NA,NA,NA,NA,""
"image-keyboard-response",283,298574,"0.0-3.90-2.90","yu4mdznnhs70jhh",772,"102.csv","","null","resources/images/coin2.png","null","",NA,NA,NA,NA,""
"image-keyboard-response",284,298916,"0.0-3.91-0.91","yu4mdznnhs70jhh",772,"102.csv","","339.89999985694885","resources/trios/L4T1A2.jpg","37","restless",0.5,0.6,0.5,0.0589213036198066,"true"
"image-keyboard-response",285,299323,"0.0-3.91-1.91","yu4mdznnhs70jhh",772,"102.csv","","null","resources/maskTrios/L4BB.jpg","null","",NA,NA,NA,NA,""
"image-keyboard-response",286,300531,"0.0-3.91-2.91","yu4mdznnhs70jhh",772,"102.csv","","null","resources/images/coin2.png","null","",NA,NA,NA,NA,""
"image-keyboard-response",287,300882,"0.0-3.92-0.92","yu4mdznnhs70jhh",772,"102.csv","","348.7999999523163","resources/trios/L4T1A1.jpg","38","restless",0.5,0.7,0.5,0.57470267823538,"true"
"image-keyboard-response",288,301289,"0.0-3.92-1.92","yu4mdznnhs70jhh",772,"102.csv","","null","resources/maskTrios/BT1B.jpg","null","",NA,NA,NA,NA,""
"image-keyboard-response",289,302493,"0.0-3.92-2.92","yu4mdznnhs70jhh",772,"102.csv","","null","resources/images/coin2.png","null","",NA,NA,NA,NA,""
"image-keyboard-response",290,302809,"0.0-3.93-0.93","yu4mdznnhs70jhh",772,"102.csv","","314.19999980926514","resources/trios/L1T2A2.jpg","39","restless",0.5,0.7,0.5,0.942845279791797,"false"
"image-keyboard-response",291,303213,"0.0-3.93-1.93","yu4mdznnhs70jhh",772,"102.csv","","null","resources/maskTrios/BBA2.jpg","null","",NA,NA,NA,NA,""
"image-keyboard-response",292,304419,"0.0-3.93-2.93","yu4mdznnhs70jhh",772,"102.csv","","null","resources/images/fishbone.png","null","",NA,NA,NA,NA,""
"image-keyboard-response",293,304719,"0.0-3.94-0.94","yu4mdznnhs70jhh",772,"102.csv","","297.2000000476837","resources/trios/L1T2A2.jpg","39","restless",0.5,0.7,0.5,0.954806697273822,"false"
"image-keyboard-response",294,305123,"0.0-3.94-1.94","yu4mdznnhs70jhh",772,"102.csv","","null","resources/maskTrios/BBA2.jpg","null","",NA,NA,NA,NA,""
"image-keyboard-response",295,306326,"0.0-3.94-2.94","yu4mdznnhs70jhh",772,"102.csv","","null","resources/images/fishbone.png","null","",NA,NA,NA,NA,""
"image-keyboard-response",296,307322,"0.0-3.95-0.95","yu4mdznnhs70jhh",772,"102.csv","","993.4000000953674","resources/trios/L1T2A2.jpg","37","restless",0.5,0.7,0.5,0.894052513528628,"false"
"image-keyboard-response",297,307727,"0.0-3.95-1.95","yu4mdznnhs70jhh",772,"102.csv","","null","resources/maskTrios/L1BB.jpg","null","",NA,NA,NA,NA,""
"image-keyboard-response",298,308934,"0.0-3.95-2.95","yu4mdznnhs70jhh",772,"102.csv","","null","resources/images/fishbone.png","null","",NA,NA,NA,NA,""
"image-keyboard-response",299,309238,"0.0-3.96-0.96","yu4mdznnhs70jhh",772,"102.csv","","301.60000014305115","resources/trios/L1T2A1.jpg","38","restless",0.5,0.6,0.5,0.62571006262694,"false"
"image-keyboard-response",300,309645,"0.0-3.96-1.96","yu4mdznnhs70jhh",772,"102.csv","","null","resources/maskTrios/BT2B.jpg","null","",NA,NA,NA,NA,""
"image-keyboard-response",301,310852,"0.0-3.96-2.96","yu4mdznnhs70jhh",772,"102.csv","","null","resources/images/fishbone.png","null","",NA,NA,NA,NA,""
"image-keyboard-response",302,311234,"0.0-3.97-0.97","yu4mdznnhs70jhh",772,"102.csv","","380.69999980926514","resources/trios/L1T2A1.jpg","37","restless",0.5,0.6,0.5,0.464611756267428,"true"
"image-keyboard-response",303,311640,"0.0-3.97-1.97","yu4mdznnhs70jhh",772,"102.csv","","null","resources/maskTrios/L1BB.jpg","null","",NA,NA,NA,NA,""
"image-keyboard-response",304,312847,"0.0-3.97-2.97","yu4mdznnhs70jhh",772,"102.csv","","null","resources/images/coin2.png","null","",NA,NA,NA,NA,""
"image-keyboard-response",305,313233,"0.0-3.98-0.98","yu4mdznnhs70jhh",772,"102.csv","","383.7000000476837","resources/trios/L4T1A2.jpg","39","restless",0.5,0.5,0.5,0.24117869636959,"true"
"image-keyboard-response",306,313640,"0.0-3.98-1.98","yu4mdznnhs70jhh",772,"102.csv","","null","resources/maskTrios/BBA2.jpg","null","",NA,NA,NA,NA,""
"image-keyboard-response",307,314845,"0.0-3.98-2.98","yu4mdznnhs70jhh",772,"102.csv","","null","resources/images/coin2.png","null","",NA,NA,NA,NA,""
"image-keyboard-response",308,315425,"0.0-3.99-0.99","yu4mdznnhs70jhh",772,"102.csv","","578.5","resources/trios/L1T2A1.jpg","39","restless",0.5,0.5,0.5,0.34754435338692,"true"
"image-keyboard-response",309,315833,"0.0-3.99-1.99","yu4mdznnhs70jhh",772,"102.csv","","null","resources/maskTrios/BBA1.jpg","null","",NA,NA,NA,NA,""
"image-keyboard-response",310,317036,"0.0-3.99-2.99","yu4mdznnhs70jhh",772,"102.csv","","null","resources/images/coin2.png","null","",NA,NA,NA,NA,""
"image-keyboard-response",311,317356,"0.0-3.100-0.100","yu4mdznnhs70jhh",772,"102.csv","","317.59999990463257","resources/trios/L1T2A1.jpg","37","restless",0.5,0.5,0.5,0.332710646715017,"true"
"image-keyboard-response",312,317759,"0.0-3.100-1.100","yu4mdznnhs70jhh",772,"102.csv","","null","resources/maskTrios/L1BB.jpg","null","",NA,NA,NA,NA,""
"image-keyboard-response",313,318964,"0.0-3.100-2.100","yu4mdznnhs70jhh",772,"102.csv","","null","resources/images/coin2.png","null","",NA,NA,NA,NA,""
"image-keyboard-response",314,319258,"0.0-3.101-0.101","yu4mdznnhs70jhh",772,"102.csv","","291","resources/trios/L4T1A2.jpg","38","restless",0.5,0.5,0.5,0.497410412886207,"true"
"image-keyboard-response",315,319665,"0.0-3.101-1.101","yu4mdznnhs70jhh",772,"102.csv","","null","resources/maskTrios/BT1B.jpg","null","",NA,NA,NA,NA,""
"image-keyboard-response",316,320872,"0.0-3.101-2.101","yu4mdznnhs70jhh",772,"102.csv","","null","resources/images/coin2.png","null","",NA,NA,NA,NA,""
"image-keyboard-response",317,321257,"0.0-3.102-0.102","yu4mdznnhs70jhh",772,"102.csv","","382.7999999523163","resources/trios/L4T2A1.jpg","37","restless",0.5,0.5,0.5,0.24660336694328,"true"
"image-keyboard-response",318,321663,"0.0-3.102-1.102","yu4mdznnhs70jhh",772,"102.csv","","null","resources/maskTrios/L4BB.jpg","null","",NA,NA,NA,NA,""
"image-keyboard-response",319,322870,"0.0-3.102-2.102","yu4mdznnhs70jhh",772,"102.csv","","null","resources/images/coin2.png","null","",NA,NA,NA,NA,""
"image-keyboard-response",320,323204,"0.0-3.103-0.103","yu4mdznnhs70jhh",772,"102.csv","","331.7000000476837","resources/trios/L1T2A1.jpg","39","restless",0.5,0.5,0.5,0.081629639173922,"true"
"image-keyboard-response",321,323608,"0.0-3.103-1.103","yu4mdznnhs70jhh",772,"102.csv","","null","resources/maskTrios/BBA1.jpg","null","",NA,NA,NA,NA,""
"image-keyboard-response",322,324815,"0.0-3.103-2.103","yu4mdznnhs70jhh",772,"102.csv","","null","resources/images/coin2.png","null","",NA,NA,NA,NA,""
"image-keyboard-response",323,325208,"0.0-3.104-0.104","yu4mdznnhs70jhh",772,"102.csv","","390.39999985694885","resources/trios/L4T1A2.jpg","38","restless",0.5,0.5,0.5,0.626648719118106,"false"
"image-keyboard-response",324,325615,"0.0-3.104-1.104","yu4mdznnhs70jhh",772,"102.csv","","null","resources/maskTrios/BT1B.jpg","null","",NA,NA,NA,NA,""
"image-keyboard-response",325,326821,"0.0-3.104-2.104","yu4mdznnhs70jhh",772,"102.csv","","null","resources/images/fishbone.png","null","",NA,NA,NA,NA,""
"image-keyboard-response",326,327103,"0.0-3.105-0.105","yu4mdznnhs70jhh",772,"102.csv","","280.59999990463257","resources/trios/L1T2A1.jpg","38","restless",0.5,0.5,0.5,0.353049143065662,"true"
"image-keyboard-response",327,327511,"0.0-3.105-1.105","yu4mdznnhs70jhh",772,"102.csv","","null","resources/maskTrios/BT2B.jpg","null","",NA,NA,NA,NA,""
"image-keyboard-response",328,328718,"0.0-3.105-2.105","yu4mdznnhs70jhh",772,"102.csv","","null","resources/images/coin2.png","null","",NA,NA,NA,NA,""
"image-keyboard-response",329,329098,"0.0-3.106-0.106","yu4mdznnhs70jhh",772,"102.csv","","377.7000000476837","resources/trios/L4T1A2.jpg","39","restless",0.5,0.4,0.5,0.482960933717344,"true"
"image-keyboard-response",330,329503,"0.0-3.106-1.106","yu4mdznnhs70jhh",772,"102.csv","","null","resources/maskTrios/BBA2.jpg","null","",NA,NA,NA,NA,""
"image-keyboard-response",331,330706,"0.0-3.106-2.106","yu4mdznnhs70jhh",772,"102.csv","","null","resources/images/coin2.png","null","",NA,NA,NA,NA,""
"image-keyboard-response",332,331386,"0.0-3.107-0.107","yu4mdznnhs70jhh",772,"102.csv","","677.7999999523163","resources/trios/L4T1A2.jpg","37","restless",0.5,0.5,0.5,0.171850743140636,"true"
"image-keyboard-response",333,331791,"0.0-3.107-1.107","yu4mdznnhs70jhh",772,"102.csv","","null","resources/maskTrios/L4BB.jpg","null","",NA,NA,NA,NA,""
"image-keyboard-response",334,332998,"0.0-3.107-2.107","yu4mdznnhs70jhh",772,"102.csv","","null","resources/images/coin2.png","null","",NA,NA,NA,NA,""
"image-keyboard-response",335,333298,"0.0-3.108-0.108","yu4mdznnhs70jhh",772,"102.csv","","297.69999980926514","resources/trios/L1T1A1.jpg","38","restless",0.5,0.5,0.5,0.0247284476632776,"true"
"image-keyboard-response",336,333704,"0.0-3.108-1.108","yu4mdznnhs70jhh",772,"102.csv","","null","resources/maskTrios/BT1B.jpg","null","",NA,NA,NA,NA,""
"image-keyboard-response",337,334907,"0.0-3.108-2.108","yu4mdznnhs70jhh",772,"102.csv","","null","resources/images/coin2.png","null","",NA,NA,NA,NA,""
"image-keyboard-response",338,335367,"0.0-3.109-0.109","yu4mdznnhs70jhh",772,"102.csv","","457.5","resources/trios/L1T2A2.jpg","39","restless",0.5,0.4,0.5,0.374068541542606,"true"
"image-keyboard-response",339,335770,"0.0-3.109-1.109","yu4mdznnhs70jhh",772,"102.csv","","null","resources/maskTrios/BBA2.jpg","null","",NA,NA,NA,NA,""
"image-keyboard-response",340,336977,"0.0-3.109-2.109","yu4mdznnhs70jhh",772,"102.csv","","null","resources/images/coin2.png","null","",NA,NA,NA,NA,""
"image-keyboard-response",341,337784,"0.0-3.110-0.110","yu4mdznnhs70jhh",772,"102.csv","","804.6000001430511","resources/trios/L1T1A2.jpg","39","restless",0.5,0.4,0.5,0.120037321262284,"true"
"image-keyboard-response",342,338186,"0.0-3.110-1.110","yu4mdznnhs70jhh",772,"102.csv","","null","resources/maskTrios/BBA2.jpg","null","",NA,NA,NA,NA,""
"image-keyboard-response",343,339394,"0.0-3.110-2.110","yu4mdznnhs70jhh",772,"102.csv","","null","resources/images/coin2.png","null","",NA,NA,NA,NA,""
"image-keyboard-response",344,339757,"0.0-3.111-0.111","yu4mdznnhs70jhh",772,"102.csv","","361.2000000476837","resources/trios/L1T1A2.jpg","37","restless",0.5,0.4,0.5,0.752614928083964,"false"
"image-keyboard-response",345,340164,"0.0-3.111-1.111","yu4mdznnhs70jhh",772,"102.csv","","null","resources/maskTrios/L1BB.jpg","null","",NA,NA,NA,NA,""
"image-keyboard-response",346,341370,"0.0-3.111-2.111","yu4mdznnhs70jhh",772,"102.csv","","null","resources/images/fishbone.png","null","",NA,NA,NA,NA,""
"image-keyboard-response",347,341641,"0.0-3.112-0.112","yu4mdznnhs70jhh",772,"102.csv","","269.2999999523163","resources/trios/L1T2A2.jpg","37","restless",0.5,0.4,0.5,0.0711445556927719,"true"
"image-keyboard-response",348,342048,"0.0-3.112-1.112","yu4mdznnhs70jhh",772,"102.csv","","null","resources/maskTrios/L1BB.jpg","null","",NA,NA,NA,NA,""
"image-keyboard-response",349,343253,"0.0-3.112-2.112","yu4mdznnhs70jhh",772,"102.csv","","null","resources/images/coin2.png","null","",NA,NA,NA,NA,""
"image-keyboard-response",350,343600,"0.0-3.113-0.113","yu4mdznnhs70jhh",772,"102.csv","","344.60000014305115","resources/trios/L1T2A1.jpg","38","restless",0.5,0.3,0.5,0.028571156384342,"true"
"image-keyboard-response",351,344007,"0.0-3.113-1.113","yu4mdznnhs70jhh",772,"102.csv","","null","resources/maskTrios/BT2B.jpg","null","",NA,NA,NA,NA,""
"image-keyboard-response",352,345211,"0.0-3.113-2.113","yu4mdznnhs70jhh",772,"102.csv","","null","resources/images/coin2.png","null","",NA,NA,NA,NA,""
"image-keyboard-response",353,345509,"0.0-3.114-0.114","yu4mdznnhs70jhh",772,"102.csv","","295.7999999523163","resources/trios/L4T1A1.jpg","39","restless",0.5,0.3,0.5,0.836895010932744,"false"
"image-keyboard-response",354,345915,"0.0-3.114-1.114","yu4mdznnhs70jhh",772,"102.csv","","null","resources/maskTrios/BBA1.jpg","null","",NA,NA,NA,NA,""
"image-keyboard-response",355,347121,"0.0-3.114-2.114","yu4mdznnhs70jhh",772,"102.csv","","null","resources/images/fishbone.png","null","",NA,NA,NA,NA,""
"image-keyboard-response",356,347457,"0.0-3.115-0.115","yu4mdznnhs70jhh",772,"102.csv","","333.7999999523163","resources/trios/L1T1A2.jpg","39","restless",0.6,0.3,0.4,0.336715196481529,"true"
"image-keyboard-response",357,347860,"0.0-3.115-1.115","yu4mdznnhs70jhh",772,"102.csv","","null","resources/maskTrios/BBA2.jpg","null","",NA,NA,NA,NA,""
"image-keyboard-response",358,349067,"0.0-3.115-2.115","yu4mdznnhs70jhh",772,"102.csv","","null","resources/images/coin2.png","null","",NA,NA,NA,NA,""
"image-keyboard-response",359,349527,"0.0-3.116-0.116","yu4mdznnhs70jhh",772,"102.csv","","457.5","resources/trios/L4T2A2.jpg","39","restless",0.6,0.4,0.4,0.178091657315522,"true"
"image-keyboard-response",360,349934,"0.0-3.116-1.116","yu4mdznnhs70jhh",772,"102.csv","","null","resources/maskTrios/BBA2.jpg","null","",NA,NA,NA,NA,""
"image-keyboard-response",361,351136,"0.0-3.116-2.116","yu4mdznnhs70jhh",772,"102.csv","","null","resources/images/coin2.png","null","",NA,NA,NA,NA,""
"image-keyboard-response",362,351505,"0.0-3.117-0.117","yu4mdznnhs70jhh",772,"102.csv","","365.89999985694885","resources/trios/L4T2A1.jpg","38","restless",0.6,0.4,0.4,0.980361867067863,"false"
"image-keyboard-response",363,351911,"0.0-3.117-1.117","yu4mdznnhs70jhh",772,"102.csv","","null","resources/maskTrios/BT2B.jpg","null","",NA,NA,NA,NA,""
"image-keyboard-response",364,353114,"0.0-3.117-2.117","yu4mdznnhs70jhh",772,"102.csv","","null","resources/images/fishbone.png","null","",NA,NA,NA,NA,""
"image-keyboard-response",365,353418,"0.0-3.118-0.118","yu4mdznnhs70jhh",772,"102.csv","","302.7999999523163","resources/trios/L4T2A2.jpg","38","restless",0.7,0.4,0.4,0.0252306953014201,"true"
"image-keyboard-response",366,353826,"0.0-3.118-1.118","yu4mdznnhs70jhh",772,"102.csv","","null","resources/maskTrios/BT2B.jpg","null","",NA,NA,NA,NA,""
"image-keyboard-response",367,355031,"0.0-3.118-2.118","yu4mdznnhs70jhh",772,"102.csv","","null","resources/images/coin2.png","null","",NA,NA,NA,NA,""
"image-keyboard-response",368,355330,"0.0-3.119-0.119","yu4mdznnhs70jhh",772,"102.csv","","297","resources/trios/L4T1A2.jpg","38","restless",0.7,0.4,0.4,0.254001211025058,"true"
"image-keyboard-response",369,355736,"0.0-3.119-1.119","yu4mdznnhs70jhh",772,"102.csv","","null","resources/maskTrios/BT1B.jpg","null","",NA,NA,NA,NA,""
"image-keyboard-response",370,356943,"0.0-3.119-2.119","yu4mdznnhs70jhh",772,"102.csv","","null","resources/images/coin2.png","null","",NA,NA,NA,NA,""
"image-keyboard-response",371,357242,"0.0-3.120-0.120","yu4mdznnhs70jhh",772,"102.csv","","297.2999999523163","resources/trios/L1T2A1.jpg","37","restless",0.7,0.4,0.4,0.405279160110476,"true"
"image-keyboard-response",372,357649,"0.0-3.120-1.120","yu4mdznnhs70jhh",772,"102.csv","","null","resources/maskTrios/L1BB.jpg","null","",NA,NA,NA,NA,""
"image-keyboard-response",373,358852,"0.0-3.120-2.120","yu4mdznnhs70jhh",772,"102.csv","","null","resources/images/coin2.png","null","",NA,NA,NA,NA,""
"image-keyboard-response",374,359209,"0.0-3.121-0.121","yu4mdznnhs70jhh",772,"102.csv","","354.5","resources/trios/L4T2A2.jpg","37","restless",0.7,0.4,0.4,0.718092605009484,"false"
"image-keyboard-response",375,359615,"0.0-3.121-1.121","yu4mdznnhs70jhh",772,"102.csv","","null","resources/maskTrios/L4BB.jpg","null","",NA,NA,NA,NA,""
"image-keyboard-response",376,360820,"0.0-3.121-2.121","yu4mdznnhs70jhh",772,"102.csv","","null","resources/images/fishbone.png","null","",NA,NA,NA,NA,""
"image-keyboard-response",377,361408,"0.0-3.122-0.122","yu4mdznnhs70jhh",772,"102.csv","","587.2000000476837","resources/trios/L1T1A2.jpg","37","restless",0.7,0.4,0.4,0.763392949857262,"false"
"image-keyboard-response",378,361815,"0.0-3.122-1.122","yu4mdznnhs70jhh",772,"102.csv","","null","resources/maskTrios/L1BB.jpg","null","",NA,NA,NA,NA,""
"image-keyboard-response",379,363017,"0.0-3.122-2.122","yu4mdznnhs70jhh",772,"102.csv","","null","resources/images/fishbone.png","null","",NA,NA,NA,NA,""
"image-keyboard-response",380,363459,"0.0-3.123-0.123","yu4mdznnhs70jhh",772,"102.csv","","439.60000014305115","resources/trios/L4T1A1.jpg","39","restless",0.7,0.4,0.4,0.506742679546932,"false"
"image-keyboard-response",381,363866,"0.0-3.123-1.123","yu4mdznnhs70jhh",772,"102.csv","","null","resources/maskTrios/BBA1.jpg","null","",NA,NA,NA,NA,""
"image-keyboard-response",382,365073,"0.0-3.123-2.123","yu4mdznnhs70jhh",772,"102.csv","","null","resources/images/fishbone.png","null","",NA,NA,NA,NA,""
"image-keyboard-response",383,366157,"0.0-3.124-0.124","yu4mdznnhs70jhh",772,"102.csv","","1082","resources/trios/L4T2A1.jpg","37","restless",0.8,0.4,0.4,0.982127646596014,"false"
"image-keyboard-response",384,366564,"0.0-3.124-1.124","yu4mdznnhs70jhh",772,"102.csv","","null","resources/maskTrios/L4BB.jpg","null","",NA,NA,NA,NA,""
"image-keyboard-response",385,367767,"0.0-3.124-2.124","yu4mdznnhs70jhh",772,"102.csv","","null","resources/images/fishbone.png","null","",NA,NA,NA,NA,""
"image-keyboard-response",386,368169,"0.0-3.125-0.125","yu4mdznnhs70jhh",772,"102.csv","","400.09999990463257","resources/trios/L4T1A2.jpg","39","restless",0.7,0.4,0.4,0.704308340667011,"false"
"image-keyboard-response",387,368576,"0.0-3.125-1.125","yu4mdznnhs70jhh",772,"102.csv","","null","resources/maskTrios/BBA2.jpg","null","",NA,NA,NA,NA,""
"image-keyboard-response",388,369782,"0.0-3.125-2.125","yu4mdznnhs70jhh",772,"102.csv","","null","resources/images/fishbone.png","null","",NA,NA,NA,NA,""
"image-keyboard-response",389,370144,"0.0-3.126-0.126","yu4mdznnhs70jhh",772,"102.csv","","359.2999999523163","resources/trios/L1T2A1.jpg","38","restless",0.7,0.3,0.4,0.73723091660752,"false"
"image-keyboard-response",390,370551,"0.0-3.126-1.126","yu4mdznnhs70jhh",772,"102.csv","","null","resources/maskTrios/BT2B.jpg","null","",NA,NA,NA,NA,""
"image-keyboard-response",391,371753,"0.0-3.126-2.126","yu4mdznnhs70jhh",772,"102.csv","","null","resources/images/fishbone.png","null","",NA,NA,NA,NA,""
"image-keyboard-response",392,372062,"0.0-3.127-0.127","yu4mdznnhs70jhh",772,"102.csv","","307.7999999523163","resources/trios/L4T2A1.jpg","38","restless",0.7,0.3,0.4,0.0528713609600644,"true"
"image-keyboard-response",393,372469,"0.0-3.127-1.127","yu4mdznnhs70jhh",772,"102.csv","","null","resources/maskTrios/BT2B.jpg","null","",NA,NA,NA,NA,""
"image-keyboard-response",394,373672,"0.0-3.127-2.127","yu4mdznnhs70jhh",772,"102.csv","","null","resources/images/coin2.png","null","",NA,NA,NA,NA,""
"image-keyboard-response",395,374276,"0.0-3.128-0.128","yu4mdznnhs70jhh",772,"102.csv","","602.4000000953674","resources/trios/L1T2A2.jpg","39","restless",0.7,0.4,0.4,0.436967309903992,"false"
"image-keyboard-response",396,374683,"0.0-3.128-1.128","yu4mdznnhs70jhh",772,"102.csv","","null","resources/maskTrios/BBA2.jpg","null","",NA,NA,NA,NA,""
"image-keyboard-response",397,375886,"0.0-3.128-2.128","yu4mdznnhs70jhh",772,"102.csv","","null","resources/images/fishbone.png","null","",NA,NA,NA,NA,""
"image-keyboard-response",398,376374,"0.0-3.129-0.129","yu4mdznnhs70jhh",772,"102.csv","","486.09999990463257","resources/trios/L4T1A2.jpg","39","restless",0.6,0.4,0.4,0.5990787984202,"false"
"image-keyboard-response",399,376782,"0.0-3.129-1.129","yu4mdznnhs70jhh",772,"102.csv","","null","resources/maskTrios/BBA2.jpg","null","",NA,NA,NA,NA,""
"image-keyboard-response",400,377986,"0.0-3.129-2.129","yu4mdznnhs70jhh",772,"102.csv","","null","resources/images/fishbone.png","null","",NA,NA,NA,NA,""
"image-keyboard-response",401,378628,"0.0-3.130-0.130","yu4mdznnhs70jhh",772,"102.csv","","640.6999998092651","resources/trios/L1T1A1.jpg","37","restless",0.6,0.4,0.4,0.342224918052332,"true"
"image-keyboard-response",402,379035,"0.0-3.130-1.130","yu4mdznnhs70jhh",772,"102.csv","","null","resources/maskTrios/L1BB.jpg","null","",NA,NA,NA,NA,""
"image-keyboard-response",403,380240,"0.0-3.130-2.130","yu4mdznnhs70jhh",772,"102.csv","","null","resources/images/coin2.png","null","",NA,NA,NA,NA,""
"image-keyboard-response",404,380605,"0.0-3.131-0.131","yu4mdznnhs70jhh",772,"102.csv","","363.09999990463257","resources/trios/L1T1A2.jpg","37","restless",0.6,0.4,0.4,0.698338954851299,"false"
"image-keyboard-response",405,381012,"0.0-3.131-1.131","yu4mdznnhs70jhh",772,"102.csv","","null","resources/maskTrios/L1BB.jpg","null","",NA,NA,NA,NA,""
"image-keyboard-response",406,382218,"0.0-3.131-2.131","yu4mdznnhs70jhh",772,"102.csv","","null","resources/images/fishbone.png","null","",NA,NA,NA,NA,""
"image-keyboard-response",407,382763,"0.0-3.132-0.132","yu4mdznnhs70jhh",772,"102.csv","","543.5999999046326","resources/trios/L1T1A2.jpg","38","restless",0.6,0.4,0.4,0.811488767558039,"false"
"image-keyboard-response",408,383170,"0.0-3.132-1.132","yu4mdznnhs70jhh",772,"102.csv","","null","resources/maskTrios/BT1B.jpg","null","",NA,NA,NA,NA,""
"image-keyboard-response",409,384374,"0.0-3.132-2.132","yu4mdznnhs70jhh",772,"102.csv","","null","resources/images/fishbone.png","null","",NA,NA,NA,NA,""
"image-keyboard-response",410,384761,"0.0-3.133-0.133","yu4mdznnhs70jhh",772,"102.csv","","384","resources/trios/L1T2A1.jpg","38","restless",0.6,0.4,0.4,0.349193660317945,"true"
"image-keyboard-response",411,385166,"0.0-3.133-1.133","yu4mdznnhs70jhh",772,"102.csv","","null","resources/maskTrios/BT2B.jpg","null","",NA,NA,NA,NA,""
"image-keyboard-response",412,386370,"0.0-3.133-2.133","yu4mdznnhs70jhh",772,"102.csv","","null","resources/images/coin2.png","null","",NA,NA,NA,NA,""
"image-keyboard-response",413,386755,"0.0-3.134-0.134","yu4mdznnhs70jhh",772,"102.csv","","383.09999990463257","resources/trios/L1T2A1.jpg","39","restless",0.6,0.4,0.4,0.778711645391237,"false"
"image-keyboard-response",414,387157,"0.0-3.134-1.134","yu4mdznnhs70jhh",772,"102.csv","","null","resources/maskTrios/BBA1.jpg","null","",NA,NA,NA,NA,""
"image-keyboard-response",415,388364,"0.0-3.134-2.134","yu4mdznnhs70jhh",772,"102.csv","","null","resources/images/fishbone.png","null","",NA,NA,NA,NA,""
"image-keyboard-response",416,388858,"0.0-3.135-0.135","yu4mdznnhs70jhh",772,"102.csv","","492.2000000476837","resources/trios/L4T1A1.jpg","39","restless",0.6,0.4,0.4,0.846398343364256,"false"
"image-keyboard-response",417,389265,"0.0-3.135-1.135","yu4mdznnhs70jhh",772,"102.csv","","null","resources/maskTrios/BBA1.jpg","null","",NA,NA,NA,NA,""
"image-keyboard-response",418,390470,"0.0-3.135-2.135","yu4mdznnhs70jhh",772,"102.csv","","null","resources/images/fishbone.png","null","",NA,NA,NA,NA,""
"image-keyboard-response",419,390782,"0.0-3.136-0.136","yu4mdznnhs70jhh",772,"102.csv","","310.09999990463257","resources/trios/L4T1A2.jpg","39","restless",0.6,0.4,0.5,0.396834665694739,"true"
"image-keyboard-response",420,391186,"0.0-3.136-1.136","yu4mdznnhs70jhh",772,"102.csv","","null","resources/maskTrios/BBA2.jpg","null","",NA,NA,NA,NA,""
"image-keyboard-response",421,392392,"0.0-3.136-2.136","yu4mdznnhs70jhh",772,"102.csv","","null","resources/images/coin2.png","null","",NA,NA,NA,NA,""
"image-keyboard-response",422,393328,"0.0-3.137-0.137","yu4mdznnhs70jhh",772,"102.csv","","933.5","resources/trios/L1T1A1.jpg","39","restless",0.6,0.4,0.5,0.0579475303688133,"true"
"image-keyboard-response",423,393735,"0.0-3.137-1.137","yu4mdznnhs70jhh",772,"102.csv","","null","resources/maskTrios/BBA1.jpg","null","",NA,NA,NA,NA,""
"image-keyboard-response",424,394942,"0.0-3.137-2.137","yu4mdznnhs70jhh",772,"102.csv","","null","resources/images/coin2.png","null","",NA,NA,NA,NA,""
"image-keyboard-response",425,395871,"0.0-3.138-0.138","yu4mdznnhs70jhh",772,"102.csv","","927.5999999046326","resources/trios/L4T2A1.jpg","37","restless",0.6,0.4,0.5,0.978853614857169,"false"
"image-keyboard-response",426,396277,"0.0-3.138-1.138","yu4mdznnhs70jhh",772,"102.csv","","null","resources/maskTrios/L4BB.jpg","null","",NA,NA,NA,NA,""
"image-keyboard-response",427,397479,"0.0-3.138-2.138","yu4mdznnhs70jhh",772,"102.csv","","null","resources/images/fishbone.png","null","",NA,NA,NA,NA,""
"image-keyboard-response",428,397768,"0.0-3.139-0.139","yu4mdznnhs70jhh",772,"102.csv","","286.39999985694885","resources/trios/L4T2A1.jpg","37","restless",0.6,0.4,0.5,0.336469059145267,"true"
"image-keyboard-response",429,398171,"0.0-3.139-1.139","yu4mdznnhs70jhh",772,"102.csv","","null","resources/maskTrios/L4BB.jpg","null","",NA,NA,NA,NA,""
"image-keyboard-response",430,399378,"0.0-3.139-2.139","yu4mdznnhs70jhh",772,"102.csv","","null","resources/images/coin2.png","null","",NA,NA,NA,NA,""
"image-keyboard-response",431,399751,"0.0-3.140-0.140","yu4mdznnhs70jhh",772,"102.csv","","370.90000009536743","resources/trios/L1T1A2.jpg","38","restless",0.7,0.5,0.5,0.73171384966615,"false"
"image-keyboard-response",432,400157,"0.0-3.140-1.140","yu4mdznnhs70jhh",772,"102.csv","","null","resources/maskTrios/BT1B.jpg","null","",NA,NA,NA,NA,""
"image-keyboard-response",433,401362,"0.0-3.140-2.140","yu4mdznnhs70jhh",772,"102.csv","","null","resources/images/fishbone.png","null","",NA,NA,NA,NA,""
"image-keyboard-response",434,401680,"0.0-3.141-0.141","yu4mdznnhs70jhh",772,"102.csv","","316.2000000476837","resources/trios/L1T2A2.jpg","38","restless",0.7,0.5,0.5,0.957177324082333,"false"
"image-keyboard-response",435,402084,"0.0-3.141-1.141","yu4mdznnhs70jhh",772,"102.csv","","null","resources/maskTrios/BT2B.jpg","null","",NA,NA,NA,NA,""
"image-keyboard-response",436,403290,"0.0-3.141-2.141","yu4mdznnhs70jhh",772,"102.csv","","null","resources/images/fishbone.png","null","",NA,NA,NA,NA,""
"image-keyboard-response",437,403751,"0.0-3.142-0.142","yu4mdznnhs70jhh",772,"102.csv","","458.7000000476837","resources/trios/L1T1A1.jpg","38","restless",0.7,0.5,0.5,0.511115444094286,"false"
"image-keyboard-response",438,404157,"0.0-3.142-1.142","yu4mdznnhs70jhh",772,"102.csv","","null","resources/maskTrios/BT1B.jpg","null","",NA,NA,NA,NA,""
"image-keyboard-response",439,405359,"0.0-3.142-2.142","yu4mdznnhs70jhh",772,"102.csv","","null","resources/images/fishbone.png","null","",NA,NA,NA,NA,""
"image-keyboard-response",440,408324,"0.0-3.143-0.143","yu4mdznnhs70jhh",772,"102.csv","","2962.5","resources/trios/L4T2A2.jpg","38","restless",0.7,0.5,0.5,0.610133718705256,"false"
"image-keyboard-response",441,408731,"0.0-3.143-1.143","yu4mdznnhs70jhh",772,"102.csv","","null","resources/maskTrios/BT2B.jpg","null","",NA,NA,NA,NA,""
"image-keyboard-response",442,409933,"0.0-3.143-2.143","yu4mdznnhs70jhh",772,"102.csv","","null","resources/images/fishbone.png","null","",NA,NA,NA,NA,""
"image-keyboard-response",443,410315,"0.0-3.144-0.144","yu4mdznnhs70jhh",772,"102.csv","","379.40000009536743","resources/trios/L1T2A1.jpg","39","restless",0.7,0.5,0.5,0.642553816214103,"false"
"image-keyboard-response",444,410719,"0.0-3.144-1.144","yu4mdznnhs70jhh",772,"102.csv","","null","resources/maskTrios/BBA1.jpg","null","",NA,NA,NA,NA,""
"image-keyboard-response",445,411922,"0.0-3.144-2.144","yu4mdznnhs70jhh",772,"102.csv","","null","resources/images/fishbone.png","null","",NA,NA,NA,NA,""
"image-keyboard-response",446,412320,"0.0-3.145-0.145","yu4mdznnhs70jhh",772,"102.csv","","395.7999999523163","resources/trios/L1T2A2.jpg","39","restless",0.7,0.5,0.5,0.220177596093645,"true"
"image-keyboard-response",447,412727,"0.0-3.145-1.145","yu4mdznnhs70jhh",772,"102.csv","","null","resources/maskTrios/BBA2.jpg","null","",NA,NA,NA,NA,""
"image-keyboard-response",448,413931,"0.0-3.145-2.145","yu4mdznnhs70jhh",772,"102.csv","","null","resources/images/coin2.png","null","",NA,NA,NA,NA,""
"image-keyboard-response",449,415187,"0.0-3.146-0.146","yu4mdznnhs70jhh",772,"102.csv","","1254","resources/trios/L1T2A2.jpg","37","restless",0.6,0.5,0.5,0.795132510587786,"false"
"image-keyboard-response",450,415592,"0.0-3.146-1.146","yu4mdznnhs70jhh",772,"102.csv","","null","resources/maskTrios/L1BB.jpg","null","",NA,NA,NA,NA,""
"image-keyboard-response",451,416799,"0.0-3.146-2.146","yu4mdznnhs70jhh",772,"102.csv","","null","resources/images/fishbone.png","null","",NA,NA,NA,NA,""
"image-keyboard-response",452,417077,"0.0-3.147-0.147","yu4mdznnhs70jhh",772,"102.csv","","276","resources/trios/L4T2A2.jpg","37","restless",0.7,0.6,0.5,0.897188987777987,"false"
"image-keyboard-response",453,417484,"0.0-3.147-1.147","yu4mdznnhs70jhh",772,"102.csv","","null","resources/maskTrios/L4BB.jpg","null","",NA,NA,NA,NA,""
"image-keyboard-response",454,418692,"0.0-3.147-2.147","yu4mdznnhs70jhh",772,"102.csv","","null","resources/images/fishbone.png","null","",NA,NA,NA,NA,""
"image-keyboard-response",455,419000,"0.0-3.148-0.148","yu4mdznnhs70jhh",772,"102.csv","","306","resources/trios/L4T1A2.jpg","39","restless",0.7,0.6,0.5,0.832085084130836,"false"
"image-keyboard-response",456,419404,"0.0-3.148-1.148","yu4mdznnhs70jhh",772,"102.csv","","null","resources/maskTrios/BBA2.jpg","null","",NA,NA,NA,NA,""
"image-keyboard-response",457,420611,"0.0-3.148-2.148","yu4mdznnhs70jhh",772,"102.csv","","null","resources/images/fishbone.png","null","",NA,NA,NA,NA,""
"image-keyboard-response",458,420921,"0.0-3.149-0.149","yu4mdznnhs70jhh",772,"102.csv","","307.80000019073486","resources/trios/L1T2A1.jpg","39","restless",0.7,0.6,0.5,0.50428443913542,"false"
"image-keyboard-response",459,421326,"0.0-3.149-1.149","yu4mdznnhs70jhh",772,"102.csv","","null","resources/maskTrios/BBA1.jpg","null","",NA,NA,NA,NA,""
"image-keyboard-response",460,422529,"0.0-3.149-2.149","yu4mdznnhs70jhh",772,"102.csv","","null","resources/images/fishbone.png","null","",NA,NA,NA,NA,""
"image-keyboard-response",461,422814,"0.0-3.150-0.150","yu4mdznnhs70jhh",772,"102.csv","","282.09999990463257","resources/trios/L4T1A2.jpg","38","restless",0.7,0.6,0.5,0.375678327323556,"true"
"image-keyboard-response",462,423218,"0.0-3.150-1.150","yu4mdznnhs70jhh",772,"102.csv","","null","resources/maskTrios/BT1B.jpg","null","",NA,NA,NA,NA,""
"image-keyboard-response",463,424425,"0.0-3.150-2.150","yu4mdznnhs70jhh",772,"102.csv","","null","resources/images/coin2.png","null","",NA,NA,NA,NA,""
"image-keyboard-response",464,424680,"0.0-3.151-0.151","yu4mdznnhs70jhh",772,"102.csv","","252.59999990463257","resources/trios/L1T1A1.jpg","38","restless",0.7,0.6,0.5,0.159076112847716,"true"
"image-keyboard-response",465,425084,"0.0-3.151-1.151","yu4mdznnhs70jhh",772,"102.csv","","null","resources/maskTrios/BT1B.jpg","null","",NA,NA,NA,NA,""
"image-keyboard-response",466,426291,"0.0-3.151-2.151","yu4mdznnhs70jhh",772,"102.csv","","null","resources/images/coin2.png","null","",NA,NA,NA,NA,""
"image-keyboard-response",467,426569,"0.0-3.152-0.152","yu4mdznnhs70jhh",772,"102.csv","","275.7000000476837","resources/trios/L1T2A2.jpg","37","restless",0.7,0.6,0.4,0.146461845225237,"true"
"image-keyboard-response",468,426977,"0.0-3.152-1.152","yu4mdznnhs70jhh",772,"102.csv","","null","resources/maskTrios/L1BB.jpg","null","",NA,NA,NA,NA,""
"image-keyboard-response",469,428180,"0.0-3.152-2.152","yu4mdznnhs70jhh",772,"102.csv","","null","resources/images/coin2.png","null","",NA,NA,NA,NA,""
"image-keyboard-response",470,428500,"0.0-3.153-0.153","yu4mdznnhs70jhh",772,"102.csv","","318.2000000476837","resources/trios/L4T2A1.jpg","39","restless",0.7,0.6,0.4,0.945193341518956,"false"
"image-keyboard-response",471,428907,"0.0-3.153-1.153","yu4mdznnhs70jhh",772,"102.csv","","null","resources/maskTrios/BBA1.jpg","null","",NA,NA,NA,NA,""
"image-keyboard-response",472,430110,"0.0-3.153-2.153","yu4mdznnhs70jhh",772,"102.csv","","null","resources/images/fishbone.png","null","",NA,NA,NA,NA,""
"image-keyboard-response",473,430378,"0.0-3.154-0.154","yu4mdznnhs70jhh",772,"102.csv","","266.09999990463257","resources/trios/L1T2A1.jpg","39","restless",0.7,0.6,0.4,0.502378497153126,"false"
"image-keyboard-response",474,430785,"0.0-3.154-1.154","yu4mdznnhs70jhh",772,"102.csv","","null","resources/maskTrios/BBA1.jpg","null","",NA,NA,NA,NA,""
"image-keyboard-response",475,431989,"0.0-3.154-2.154","yu4mdznnhs70jhh",772,"102.csv","","null","resources/images/fishbone.png","null","",NA,NA,NA,NA,""
"image-keyboard-response",476,432041,"0.0-3.155-0.155","yu4mdznnhs70jhh",772,"102.csv","","50.40000009536743","resources/trios/L1T2A1.jpg","39","restless",0.7,0.6,0.4,0.502149134813253,"false"
"image-keyboard-response",477,432446,"0.0-3.155-1.155","yu4mdznnhs70jhh",772,"102.csv","","null","resources/maskTrios/BBA1.jpg","null","",NA,NA,NA,NA,""
"image-keyboard-response",478,433648,"0.0-3.155-2.155","yu4mdznnhs70jhh",772,"102.csv","","null","resources/images/fishbone.png","null","",NA,NA,NA,NA,""
"image-keyboard-response",479,434245,"0.0-3.156-0.156","yu4mdznnhs70jhh",772,"102.csv","","594.3999998569489","resources/trios/L4T2A2.jpg","38","restless",0.7,0.6,0.4,0.0140148511578828,"true"
"image-keyboard-response",480,434649,"0.0-3.156-1.156","yu4mdznnhs70jhh",772,"102.csv","","null","resources/maskTrios/BT2B.jpg","null","",NA,NA,NA,NA,""
"image-keyboard-response",481,435856,"0.0-3.156-2.156","yu4mdznnhs70jhh",772,"102.csv","","null","resources/images/coin2.png","null","",NA,NA,NA,NA,""
"image-keyboard-response",482,436281,"0.0-3.157-0.157","yu4mdznnhs70jhh",772,"102.csv","","423.2999999523163","resources/trios/L1T1A2.jpg","38","restless",0.7,0.6,0.4,0.705109116780513,"false"
"image-keyboard-response",483,436686,"0.0-3.157-1.157","yu4mdznnhs70jhh",772,"102.csv","","null","resources/maskTrios/BT1B.jpg","null","",NA,NA,NA,NA,""
"image-keyboard-response",484,437890,"0.0-3.157-2.157","yu4mdznnhs70jhh",772,"102.csv","","null","resources/images/fishbone.png","null","",NA,NA,NA,NA,""
"image-keyboard-response",485,438805,"0.0-3.158-0.158","yu4mdznnhs70jhh",772,"102.csv","","913.6000001430511","resources/trios/L4T1A2.jpg","37","restless",0.7,0.6,0.4,0.116254865815337,"true"
"image-keyboard-response",486,439209,"0.0-3.158-1.158","yu4mdznnhs70jhh",772,"102.csv","","null","resources/maskTrios/L4BB.jpg","null","",NA,NA,NA,NA,""
"image-keyboard-response",487,440416,"0.0-3.158-2.158","yu4mdznnhs70jhh",772,"102.csv","","null","resources/images/coin2.png","null","",NA,NA,NA,NA,""
"image-keyboard-response",488,440667,"0.0-3.159-0.159","yu4mdznnhs70jhh",772,"102.csv","","248.29999995231628","resources/trios/L4T2A2.jpg","38","restless",0.7,0.6,0.4,0.388305414416152,"true"
"image-keyboard-response",489,441069,"0.0-3.159-1.159","yu4mdznnhs70jhh",772,"102.csv","","null","resources/maskTrios/BT2B.jpg","null","",NA,NA,NA,NA,""
"image-keyboard-response",490,442276,"0.0-3.159-2.159","yu4mdznnhs70jhh",772,"102.csv","","null","resources/images/coin2.png","null","",NA,NA,NA,NA,""
"image-keyboard-response",491,442573,"0.0-3.160-0.160","yu4mdznnhs70jhh",772,"102.csv","","294.59999990463257","resources/trios/L1T2A1.jpg","39","restless",0.7,0.6,0.4,0.963900411224939,"false"
"image-keyboard-response",492,442979,"0.0-3.160-1.160","yu4mdznnhs70jhh",772,"102.csv","","null","resources/maskTrios/BBA1.jpg","null","",NA,NA,NA,NA,""
"image-keyboard-response",493,444185,"0.0-3.160-2.160","yu4mdznnhs70jhh",772,"102.csv","","null","resources/images/fishbone.png","null","",NA,NA,NA,NA,""
"image-keyboard-response",494,444236,"0.0-3.161-0.161","yu4mdznnhs70jhh",772,"102.csv","","49","resources/trios/L1T2A1.jpg","39","restless",0.7,0.6,0.3,0.545231260887074,"false"
"image-keyboard-response",495,444638,"0.0-3.161-1.161","yu4mdznnhs70jhh",772,"102.csv","","null","resources/maskTrios/BBA1.jpg","null","",NA,NA,NA,NA,""
"image-keyboard-response",496,445845,"0.0-3.161-2.161","yu4mdznnhs70jhh",772,"102.csv","","null","resources/images/fishbone.png","null","",NA,NA,NA,NA,""
"image-keyboard-response",497,446125,"0.0-3.162-0.162","yu4mdznnhs70jhh",772,"102.csv","","277.7999999523163","resources/trios/L4T2A1.jpg","38","restless",0.7,0.7,0.3,0.286643085296815,"true"
"image-keyboard-response",498,446532,"0.0-3.162-1.162","yu4mdznnhs70jhh",772,"102.csv","","null","resources/maskTrios/BT2B.jpg","null","",NA,NA,NA,NA,""
"image-keyboard-response",499,447736,"0.0-3.162-2.162","yu4mdznnhs70jhh",772,"102.csv","","null","resources/images/coin2.png","null","",NA,NA,NA,NA,""
"image-keyboard-response",500,448045,"0.0-3.163-0.163","yu4mdznnhs70jhh",772,"102.csv","","306.59999990463257","resources/trios/L4T1A2.jpg","38","restless",0.7,0.7,0.3,0.894467293039019,"false"
"image-keyboard-response",501,448448,"0.0-3.163-1.163","yu4mdznnhs70jhh",772,"102.csv","","null","resources/maskTrios/BT1B.jpg","null","",NA,NA,NA,NA,""
"image-keyboard-response",502,449653,"0.0-3.163-2.163","yu4mdznnhs70jhh",772,"102.csv","","null","resources/images/fishbone.png","null","",NA,NA,NA,NA,""
"image-keyboard-response",503,450228,"0.0-3.164-0.164","yu4mdznnhs70jhh",772,"102.csv","","573.2000000476837","resources/trios/L1T1A2.jpg","37","restless",0.7,0.7,0.3,0.0810621540025103,"true"
"image-keyboard-response",504,450635,"0.0-3.164-1.164","yu4mdznnhs70jhh",772,"102.csv","","null","resources/maskTrios/L1BB.jpg","null","",NA,NA,NA,NA,""
"image-keyboard-response",505,451839,"0.0-3.164-2.164","yu4mdznnhs70jhh",772,"102.csv","","null","resources/images/coin2.png","null","",NA,NA,NA,NA,""
"image-keyboard-response",506,452141,"0.0-3.165-0.165","yu4mdznnhs70jhh",772,"102.csv","","299.30000019073486","resources/trios/L4T1A2.jpg","37","restless",0.7,0.7,0.3,0.748065161212436,"false"
"image-keyboard-response",507,452548,"0.0-3.165-1.165","yu4mdznnhs70jhh",772,"102.csv","","null","resources/maskTrios/L4BB.jpg","null","",NA,NA,NA,NA,""
"image-keyboard-response",508,453755,"0.0-3.165-2.165","yu4mdznnhs70jhh",772,"102.csv","","null","resources/images/fishbone.png","null","",NA,NA,NA,NA,""
"image-keyboard-response",509,454092,"0.0-3.166-0.166","yu4mdznnhs70jhh",772,"102.csv","","334.60000014305115","resources/trios/L1T2A1.jpg","38","restless",0.7,0.7,0.3,0.233030883789061,"true"
"image-keyboard-response",510,454499,"0.0-3.166-1.166","yu4mdznnhs70jhh",772,"102.csv","","null","resources/maskTrios/BT2B.jpg","null","",NA,NA,NA,NA,""
"image-keyboard-response",511,455703,"0.0-3.166-2.166","yu4mdznnhs70jhh",772,"102.csv","","null","resources/images/coin2.png","null","",NA,NA,NA,NA,""
"image-keyboard-response",512,456293,"0.0-3.167-0.167","yu4mdznnhs70jhh",772,"102.csv","","587.2000000476837","resources/trios/L1T2A1.jpg","38","restless",0.7,0.7,0.3,0.0622253545948106,"true"
"image-keyboard-response",513,456700,"0.0-3.167-1.167","yu4mdznnhs70jhh",772,"102.csv","","null","resources/maskTrios/BT2B.jpg","null","",NA,NA,NA,NA,""
"image-keyboard-response",514,457902,"0.0-3.167-2.167","yu4mdznnhs70jhh",772,"102.csv","","null","resources/images/coin2.png","null","",NA,NA,NA,NA,""
"image-keyboard-response",515,459060,"0.0-3.168-0.168","yu4mdznnhs70jhh",772,"102.csv","","1155.2000000476837","resources/trios/L4T1A1.jpg","39","restless",0.7,0.6,0.4,0.770730877721725,"false"
"image-keyboard-response",516,459467,"0.0-3.168-1.168","yu4mdznnhs70jhh",772,"102.csv","","null","resources/maskTrios/BBA1.jpg","null","",NA,NA,NA,NA,""
"image-keyboard-response",517,460672,"0.0-3.168-2.168","yu4mdznnhs70jhh",772,"102.csv","","null","resources/images/fishbone.png","null","",NA,NA,NA,NA,""
"image-keyboard-response",518,460944,"0.0-3.169-0.169","yu4mdznnhs70jhh",772,"102.csv","","269","resources/trios/L1T1A2.jpg","39","restless",0.7,0.6,0.4,0.904424481080727,"false"
"image-keyboard-response",519,461351,"0.0-3.169-1.169","yu4mdznnhs70jhh",772,"102.csv","","null","resources/maskTrios/BBA2.jpg","null","",NA,NA,NA,NA,""
"image-keyboard-response",520,462555,"0.0-3.169-2.169","yu4mdznnhs70jhh",772,"102.csv","","null","resources/images/fishbone.png","null","",NA,NA,NA,NA,""
"image-keyboard-response",521,462937,"0.0-3.170-0.170","yu4mdznnhs70jhh",772,"102.csv","","379.7999999523163","resources/trios/L4T2A2.jpg","37","restless",0.7,0.6,0.4,0.815130910771554,"false"
"image-keyboard-response",522,463344,"0.0-3.170-1.170","yu4mdznnhs70jhh",772,"102.csv","","null","resources/maskTrios/L4BB.jpg","null","",NA,NA,NA,NA,""
"image-keyboard-response",523,464551,"0.0-3.170-2.170","yu4mdznnhs70jhh",772,"102.csv","","null","resources/images/fishbone.png","null","",NA,NA,NA,NA,""
"image-keyboard-response",524,465375,"0.0-3.171-0.171","yu4mdznnhs70jhh",772,"102.csv","","822.1999998092651","resources/trios/L1T1A1.jpg","38","restless",0.7,0.6,0.4,0.75222652904113,"false"
"image-keyboard-response",525,465782,"0.0-3.171-1.171","yu4mdznnhs70jhh",772,"102.csv","","null","resources/maskTrios/BT1B.jpg","null","",NA,NA,NA,NA,""
"image-keyboard-response",526,466988,"0.0-3.171-2.171","yu4mdznnhs70jhh",772,"102.csv","","null","resources/images/fishbone.png","null","",NA,NA,NA,NA,""
"image-keyboard-response",527,467271,"0.0-3.172-0.172","yu4mdznnhs70jhh",772,"102.csv","","280.10000014305115","resources/trios/L4T2A2.jpg","38","restless",0.7,0.6,0.4,0.877665837510454,"false"
"image-keyboard-response",528,467677,"0.0-3.172-1.172","yu4mdznnhs70jhh",772,"102.csv","","null","resources/maskTrios/BT2B.jpg","null","",NA,NA,NA,NA,""
"image-keyboard-response",529,468879,"0.0-3.172-2.172","yu4mdznnhs70jhh",772,"102.csv","","null","resources/images/fishbone.png","null","",NA,NA,NA,NA,""
"image-keyboard-response",530,469180,"0.0-3.173-0.173","yu4mdznnhs70jhh",772,"102.csv","","299.30000019073486","resources/trios/L1T1A2.jpg","37","restless",0.7,0.5,0.4,0.0617385785279954,"true"
"image-keyboard-response",531,469584,"0.0-3.173-1.173","yu4mdznnhs70jhh",772,"102.csv","","null","resources/maskTrios/L1BB.jpg","null","",NA,NA,NA,NA,""
"image-keyboard-response",532,470791,"0.0-3.173-2.173","yu4mdznnhs70jhh",772,"102.csv","","null","resources/images/coin2.png","null","",NA,NA,NA,NA,""
"image-keyboard-response",533,471221,"0.0-3.174-0.174","yu4mdznnhs70jhh",772,"102.csv","","427.40000009536743","resources/trios/L1T2A1.jpg","39","restless",0.7,0.5,0.4,0.715518296192651,"false"
"image-keyboard-response",534,471626,"0.0-3.174-1.174","yu4mdznnhs70jhh",772,"102.csv","","null","resources/maskTrios/BBA1.jpg","null","",NA,NA,NA,NA,""
"image-keyboard-response",535,472832,"0.0-3.174-2.174","yu4mdznnhs70jhh",772,"102.csv","","null","resources/images/fishbone.png","null","",NA,NA,NA,NA,""
"image-keyboard-response",536,473816,"0.0-3.175-0.175","yu4mdznnhs70jhh",772,"102.csv","","982","resources/trios/L1T1A1.jpg","38","restless",0.7,0.5,0.3,0.109716872815685,"true"
"image-keyboard-response",537,474223,"0.0-3.175-1.175","yu4mdznnhs70jhh",772,"102.csv","","null","resources/maskTrios/BT1B.jpg","null","",NA,NA,NA,NA,""
"image-keyboard-response",538,475430,"0.0-3.175-2.175","yu4mdznnhs70jhh",772,"102.csv","","null","resources/images/coin2.png","null","",NA,NA,NA,NA,""
"image-keyboard-response",539,475834,"0.0-3.176-0.176","yu4mdznnhs70jhh",772,"102.csv","","400.90000009536743","resources/trios/L1T2A1.jpg","39","restless",0.7,0.5,0.3,0.268421463122613,"true"
"image-keyboard-response",540,476240,"0.0-3.176-1.176","yu4mdznnhs70jhh",772,"102.csv","","null","resources/maskTrios/BBA1.jpg","null","",NA,NA,NA,NA,""
"image-keyboard-response",541,477447,"0.0-3.176-2.176","yu4mdznnhs70jhh",772,"102.csv","","null","resources/images/coin2.png","null","",NA,NA,NA,NA,""
"image-keyboard-response",542,477772,"0.0-3.177-0.177","yu4mdznnhs70jhh",772,"102.csv","","322.90000009536743","resources/trios/L4T1A1.jpg","38","restless",0.7,0.5,0.3,0.301893219758844,"true"
"image-keyboard-response",543,478177,"0.0-3.177-1.177","yu4mdznnhs70jhh",772,"102.csv","","null","resources/maskTrios/BT1B.jpg","null","",NA,NA,NA,NA,""
"image-keyboard-response",544,479383,"0.0-3.177-2.177","yu4mdznnhs70jhh",772,"102.csv","","null","resources/images/coin2.png","null","",NA,NA,NA,NA,""
"image-keyboard-response",545,479639,"0.0-3.178-0.178","yu4mdznnhs70jhh",772,"102.csv","","254.20000004768372","resources/trios/L1T1A1.jpg","39","restless",0.7,0.5,0.3,0.731920434371595,"false"
"image-keyboard-response",546,480046,"0.0-3.178-1.178","yu4mdznnhs70jhh",772,"102.csv","","null","resources/maskTrios/BBA1.jpg","null","",NA,NA,NA,NA,""
"image-keyboard-response",547,481250,"0.0-3.178-2.178","yu4mdznnhs70jhh",772,"102.csv","","null","resources/images/fishbone.png","null","",NA,NA,NA,NA,""
"image-keyboard-response",548,481377,"0.0-3.179-0.179","yu4mdznnhs70jhh",772,"102.csv","","125.79999995231628","resources/trios/L4T1A2.jpg","39","restless",0.7,0.6,0.3,0.659621933744238,"false"
"image-keyboard-response",549,481781,"0.0-3.179-1.179","yu4mdznnhs70jhh",772,"102.csv","","null","resources/maskTrios/BBA2.jpg","null","",NA,NA,NA,NA,""
"image-keyboard-response",550,482985,"0.0-3.179-2.179","yu4mdznnhs70jhh",772,"102.csv","","null","resources/images/fishbone.png","null","",NA,NA,NA,NA,""
"image-keyboard-response",551,483619,"0.0-3.180-0.180","yu4mdznnhs70jhh",772,"102.csv","","631.5999999046326","resources/trios/L1T2A1.jpg","38","restless",0.7,0.6,0.3,0.268929119023709,"true"
"image-keyboard-response",552,484026,"0.0-3.180-1.180","yu4mdznnhs70jhh",772,"102.csv","","null","resources/maskTrios/BT2B.jpg","null","",NA,NA,NA,NA,""
"image-keyboard-response",553,485231,"0.0-3.180-2.180","yu4mdznnhs70jhh",772,"102.csv","","null","resources/images/coin2.png","null","",NA,NA,NA,NA,""
"image-keyboard-response",554,485617,"0.0-3.181-0.181","yu4mdznnhs70jhh",772,"102.csv","","383.60000014305115","resources/trios/L4T2A1.jpg","38","restless",0.7,0.6,0.3,0.963136329762067,"false"
"image-keyboard-response",555,486023,"0.0-3.181-1.181","yu4mdznnhs70jhh",772,"102.csv","","null","resources/maskTrios/BT2B.jpg","null","",NA,NA,NA,NA,""
"image-keyboard-response",556,487230,"0.0-3.181-2.181","yu4mdznnhs70jhh",772,"102.csv","","null","resources/images/fishbone.png","null","",NA,NA,NA,NA,""
"image-keyboard-response",557,487503,"0.0-3.182-0.182","yu4mdznnhs70jhh",772,"102.csv","","270.90000009536743","resources/trios/L4T2A2.jpg","38","restless",0.7,0.6,0.3,0.0183361123489165,"true"
"image-keyboard-response",558,487907,"0.0-3.182-1.182","yu4mdznnhs70jhh",772,"102.csv","","null","resources/maskTrios/BT2B.jpg","null","",NA,NA,NA,NA,""
"image-keyboard-response",559,489110,"0.0-3.182-2.182","yu4mdznnhs70jhh",772,"102.csv","","null","resources/images/coin2.png","null","",NA,NA,NA,NA,""
"image-keyboard-response",560,489677,"0.0-3.183-0.183","yu4mdznnhs70jhh",772,"102.csv","","565.2999999523163","resources/trios/L4T2A2.jpg","38","restless",0.7,0.6,0.2,0.899068880421442,"false"
"image-keyboard-response",561,490085,"0.0-3.183-1.183","yu4mdznnhs70jhh",772,"102.csv","","null","resources/maskTrios/BT2B.jpg","null","",NA,NA,NA,NA,""
"image-keyboard-response",562,491291,"0.0-3.183-2.183","yu4mdznnhs70jhh",772,"102.csv","","null","resources/images/fishbone.png","null","",NA,NA,NA,NA,""
"image-keyboard-response",563,491845,"0.0-3.184-0.184","yu4mdznnhs70jhh",772,"102.csv","","552.5999999046326","resources/trios/L4T2A2.jpg","38","restless",0.7,0.6,0.2,0.0506859317281203,"true"
"image-keyboard-response",564,492253,"0.0-3.184-1.184","yu4mdznnhs70jhh",772,"102.csv","","null","resources/maskTrios/BT2B.jpg","null","",NA,NA,NA,NA,""
"image-keyboard-response",565,493455,"0.0-3.184-2.184","yu4mdznnhs70jhh",772,"102.csv","","null","resources/images/coin2.png","null","",NA,NA,NA,NA,""
"image-keyboard-response",566,493920,"0.0-3.185-0.185","yu4mdznnhs70jhh",772,"102.csv","","462.39999985694885","resources/trios/L4T2A2.jpg","37","restless",0.7,0.6,0.2,0.422332273141439,"true"
"image-keyboard-response",567,494327,"0.0-3.185-1.185","yu4mdznnhs70jhh",772,"102.csv","","null","resources/maskTrios/L4BB.jpg","null","",NA,NA,NA,NA,""
"image-keyboard-response",568,495530,"0.0-3.185-2.185","yu4mdznnhs70jhh",772,"102.csv","","null","resources/images/coin2.png","null","",NA,NA,NA,NA,""
"image-keyboard-response",569,496022,"0.0-3.186-0.186","yu4mdznnhs70jhh",772,"102.csv","","489.5","resources/trios/L1T2A2.jpg","39","restless",0.7,0.6,0.2,0.369571707517127,"false"
"image-keyboard-response",570,496428,"0.0-3.186-1.186","yu4mdznnhs70jhh",772,"102.csv","","null","resources/maskTrios/BBA2.jpg","null","",NA,NA,NA,NA,""
"image-keyboard-response",571,497635,"0.0-3.186-2.186","yu4mdznnhs70jhh",772,"102.csv","","null","resources/images/fishbone.png","null","",NA,NA,NA,NA,""
"image-keyboard-response",572,497950,"0.0-3.187-0.187","yu4mdznnhs70jhh",772,"102.csv","","312.90000009536743","resources/trios/L1T2A2.jpg","39","restless",0.7,0.6,0.2,0.249471362034674,"false"
"image-keyboard-response",573,498354,"0.0-3.187-1.187","yu4mdznnhs70jhh",772,"102.csv","","null","resources/maskTrios/BBA2.jpg","null","",NA,NA,NA,NA,""
"image-keyboard-response",574,499559,"0.0-3.187-2.187","yu4mdznnhs70jhh",772,"102.csv","","null","resources/images/fishbone.png","null","",NA,NA,NA,NA,""
"image-keyboard-response",575,499941,"0.0-3.188-0.188","yu4mdznnhs70jhh",772,"102.csv","","379.7000000476837","resources/trios/L4T1A2.jpg","39","restless",0.6,0.6,0.2,0.451041763418903,"false"
"image-keyboard-response",576,500347,"0.0-3.188-1.188","yu4mdznnhs70jhh",772,"102.csv","","null","resources/maskTrios/BBA2.jpg","null","",NA,NA,NA,NA,""
"image-keyboard-response",577,501554,"0.0-3.188-2.188","yu4mdznnhs70jhh",772,"102.csv","","null","resources/images/fishbone.png","null","",NA,NA,NA,NA,""
"image-keyboard-response",578,501886,"0.0-3.189-0.189","yu4mdznnhs70jhh",772,"102.csv","","329.69999980926514","resources/trios/L4T1A2.jpg","38","restless",0.6,0.6,0.2,0.686848284558776,"false"
"image-keyboard-response",579,502292,"0.0-3.189-1.189","yu4mdznnhs70jhh",772,"102.csv","","null","resources/maskTrios/BT1B.jpg","null","",NA,NA,NA,NA,""
"image-keyboard-response",580,503494,"0.0-3.189-2.189","yu4mdznnhs70jhh",772,"102.csv","","null","resources/images/fishbone.png","null","",NA,NA,NA,NA,""
"image-keyboard-response",581,503833,"0.0-3.190-0.190","yu4mdznnhs70jhh",772,"102.csv","","337","resources/trios/L4T2A1.jpg","38","restless",0.6,0.6,0.2,0.988695500070813,"false"
"image-keyboard-response",582,504240,"0.0-3.190-1.190","yu4mdznnhs70jhh",772,"102.csv","","null","resources/maskTrios/BT2B.jpg","null","",NA,NA,NA,NA,""
"image-keyboard-response",583,505447,"0.0-3.190-2.190","yu4mdznnhs70jhh",772,"102.csv","","null","resources/images/fishbone.png","null","",NA,NA,NA,NA,""
"image-keyboard-response",584,505748,"0.0-3.191-0.191","yu4mdznnhs70jhh",772,"102.csv","","298.60000014305115","resources/trios/L1T2A2.jpg","38","restless",0.6,0.6,0.2,0.533193633088527,"true"
"image-keyboard-response",585,506154,"0.0-3.191-1.191","yu4mdznnhs70jhh",772,"102.csv","","null","resources/maskTrios/BT2B.jpg","null","",NA,NA,NA,NA,""
"image-keyboard-response",586,507357,"0.0-3.191-2.191","yu4mdznnhs70jhh",772,"102.csv","","null","resources/images/coin2.png","null","",NA,NA,NA,NA,""
"image-keyboard-response",587,507717,"0.0-3.192-0.192","yu4mdznnhs70jhh",772,"102.csv","","358.09999990463257","resources/trios/L4T2A2.jpg","37","restless",0.6,0.6,0.2,0.696244080685784,"false"
"image-keyboard-response",588,508124,"0.0-3.192-1.192","yu4mdznnhs70jhh",772,"102.csv","","null","resources/maskTrios/L4BB.jpg","null","",NA,NA,NA,NA,""
"image-keyboard-response",589,509328,"0.0-3.192-2.192","yu4mdznnhs70jhh",772,"102.csv","","null","resources/images/fishbone.png","null","",NA,NA,NA,NA,""
"image-keyboard-response",590,509638,"0.0-3.193-0.193","yu4mdznnhs70jhh",772,"102.csv","","308.10000014305115","resources/trios/L1T1A1.jpg","37","restless",0.6,0.6,0.3,0.934860730693701,"false"
"image-keyboard-response",591,510045,"0.0-3.193-1.193","yu4mdznnhs70jhh",772,"102.csv","","null","resources/maskTrios/L1BB.jpg","null","",NA,NA,NA,NA,""
"image-keyboard-response",592,511252,"0.0-3.193-2.193","yu4mdznnhs70jhh",772,"102.csv","","null","resources/images/fishbone.png","null","",NA,NA,NA,NA,""
"image-keyboard-response",593,511657,"0.0-3.194-0.194","yu4mdznnhs70jhh",772,"102.csv","","402.39999985694885","resources/trios/L4T1A2.jpg","39","restless",0.6,0.6,0.3,0.976635438832737,"false"
"image-keyboard-response",594,512064,"0.0-3.194-1.194","yu4mdznnhs70jhh",772,"102.csv","","null","resources/maskTrios/BBA2.jpg","null","",NA,NA,NA,NA,""
"image-keyboard-response",595,513270,"0.0-3.194-2.194","yu4mdznnhs70jhh",772,"102.csv","","null","resources/images/fishbone.png","null","",NA,NA,NA,NA,""
"image-keyboard-response",596,513531,"0.0-3.195-0.195","yu4mdznnhs70jhh",772,"102.csv","","258.40000009536743","resources/trios/L4T2A2.jpg","39","restless",0.6,0.6,0.3,0.878578376113222,"false"
"image-keyboard-response",597,513936,"0.0-3.195-1.195","yu4mdznnhs70jhh",772,"102.csv","","null","resources/maskTrios/BBA2.jpg","null","",NA,NA,NA,NA,""
"image-keyboard-response",598,515142,"0.0-3.195-2.195","yu4mdznnhs70jhh",772,"102.csv","","null","resources/images/fishbone.png","null","",NA,NA,NA,NA,""
"image-keyboard-response",599,515468,"0.0-3.196-0.196","yu4mdznnhs70jhh",772,"102.csv","","323.59999990463257","resources/trios/L4T1A1.jpg","38","restless",0.6,0.5,0.3,0.901068207531879,"false"
"image-keyboard-response",600,515875,"0.0-3.196-1.196","yu4mdznnhs70jhh",772,"102.csv","","null","resources/maskTrios/BT1B.jpg","null","",NA,NA,NA,NA,""
"image-keyboard-response",601,517078,"0.0-3.196-2.196","yu4mdznnhs70jhh",772,"102.csv","","null","resources/images/fishbone.png","null","",NA,NA,NA,NA,""
"image-keyboard-response",602,517387,"0.0-3.197-0.197","yu4mdznnhs70jhh",772,"102.csv","","306.89999985694885","resources/trios/L1T1A2.jpg","38","restless",0.6,0.5,0.3,0.894920621795077,"false"
"image-keyboard-response",603,517792,"0.0-3.197-1.197","yu4mdznnhs70jhh",772,"102.csv","","null","resources/maskTrios/BT1B.jpg","null","",NA,NA,NA,NA,""
"image-keyboard-response",604,518998,"0.0-3.197-2.197","yu4mdznnhs70jhh",772,"102.csv","","null","resources/images/fishbone.png","null","",NA,NA,NA,NA,""
