"trial_type","trial_index","time_elapsed","internal_node_id","subject","participantCode","walkNumber","success","rt","stimulus","key_press","test_part","leftProb","midProb","rightProb","generatedNum","correct"
"pavlovia",0,920,"0.0-0.0","ap81ay2br6cka12",213,"158.csv","","","","","",NA,NA,NA,NA,""
"fullscreen",1,6065,"0.0-1.0","ap81ay2br6cka12",213,"158.csv","true","","","","",NA,NA,NA,NA,""
"html-keyboard-response",2,23603,"0.0-2.0-0.0","ap81ay2br6cka12",213,"158.csv","","17536.70000000298","<p><font size='6'>Arrrgh!</p></font><p>Can you be the best pirate? Try to find lots of gold! But beware, some islands have more gold than others, and over time, the island with the most gold may change. Can YOU figure it out? </p><font size='6'>GOOD LUCK, CAPTAIN!!!</font><p>Press any key to begin</p>","32","",NA,NA,NA,NA,""
"image-keyboard-response",3,26609,"0.0-2.0-1.0","ap81ay2br6cka12",213,"158.csv","","null","resources/image_sets/111.png","null","",NA,NA,NA,NA,""
"image-keyboard-response",4,31390,"0.0-2.0-2.0","ap81ay2br6cka12",213,"158.csv","","4780.20000000298","resources/image_sets/left_highlight.png","37","",NA,NA,NA,NA,""
"image-keyboard-response",5,32744,"0.0-2.0-3.0","ap81ay2br6cka12",213,"158.csv","","1352.3999999910593","resources/image_sets/mid_highlight.png","38","",NA,NA,NA,NA,""
"image-keyboard-response",6,34686,"0.0-2.0-4.0","ap81ay2br6cka12",213,"158.csv","","1941.7999999970198","resources/image_sets/right_highlight.png","39","",NA,NA,NA,NA,""
"image-keyboard-response",7,41665,"0.0-2.0-5.0","ap81ay2br6cka12",213,"158.csv","","6977.5","resources/image_sets/111.png","13","",NA,NA,NA,NA,""
"image-keyboard-response",8,44387,"0.0-2.0-6.0","ap81ay2br6cka12",213,"158.csv","","2721.7999999970198","resources/images/coin2.png","13","",NA,NA,NA,NA,""
"image-keyboard-response",9,46205,"0.0-2.0-7.0","ap81ay2br6cka12",213,"158.csv","","1816.5999999940395","resources/images/fishbone.png","13","",NA,NA,NA,NA,""
"html-keyboard-response",10,56902,"0.0-2.0-8.0","ap81ay2br6cka12",213,"158.csv","","10696.70000000298","<p>Your first journey will be a long one, but you will get a well deserved break at the end</p><p>After the break you will have four more journeys, but each will be much shorter than the first, and you will have breaks in between each</p><p>Press Enter to begin</p>","13","",NA,NA,NA,NA,""
"image-keyboard-response",11,61328,"0.0-3.0-0.0","ap81ay2br6cka12",213,"158.csv","","4424.70000000298","resources/trios/L1T1A1.jpg","38","restless",0.7,0.9,0.3,0.970337908262763,"false"
"image-keyboard-response",12,61743,"0.0-3.0-1.0","ap81ay2br6cka12",213,"158.csv","","null","resources/maskTrios/BT1B.jpg","null","",NA,NA,NA,NA,""
"image-keyboard-response",13,62954,"0.0-3.0-2.0","ap81ay2br6cka12",213,"158.csv","","null","resources/images/fishbone.png","null","",NA,NA,NA,NA,""
"image-keyboard-response",14,69680,"0.0-3.1-0.1","ap81ay2br6cka12",213,"158.csv","","6724.20000000298","resources/trios/L1T4A2.jpg","37","restless",0.7,0.9,0.3,0.455723468799636,"true"
"image-keyboard-response",15,70093,"0.0-3.1-1.1","ap81ay2br6cka12",213,"158.csv","","null","resources/maskTrios/L1BB.jpg","null","",NA,NA,NA,NA,""
"image-keyboard-response",16,71304,"0.0-3.1-2.1","ap81ay2br6cka12",213,"158.csv","","null","resources/images/coin2.png","null","",NA,NA,NA,NA,""
"image-keyboard-response",17,74753,"0.0-3.2-0.2","ap81ay2br6cka12",213,"158.csv","","3447.699999988079","resources/trios/L4T1A1.jpg","39","restless",0.7,0.9,0.3,0.392170786571174,"false"
"image-keyboard-response",18,75171,"0.0-3.2-1.2","ap81ay2br6cka12",213,"158.csv","","null","resources/maskTrios/BBA1.jpg","null","",NA,NA,NA,NA,""
"image-keyboard-response",19,76381,"0.0-3.2-2.2","ap81ay2br6cka12",213,"158.csv","","null","resources/images/fishbone.png","null","",NA,NA,NA,NA,""
"image-keyboard-response",20,77451,"0.0-3.3-0.3","ap81ay2br6cka12",213,"158.csv","","1068.5999999940395","resources/trios/L4T1A1.jpg","38","restless",0.7,0.8,0.3,0.841454901916955,"false"
"image-keyboard-response",21,77857,"0.0-3.3-1.3","ap81ay2br6cka12",213,"158.csv","","null","resources/maskTrios/BT1B.jpg","null","",NA,NA,NA,NA,""
"image-keyboard-response",22,79074,"0.0-3.3-2.3","ap81ay2br6cka12",213,"158.csv","","null","resources/images/fishbone.png","null","",NA,NA,NA,NA,""
"image-keyboard-response",23,80038,"0.0-3.4-0.4","ap81ay2br6cka12",213,"158.csv","","963.0999999940395","resources/trios/L1T4A2.jpg","37","restless",0.7,0.8,0.3,0.601358212880632,"true"
"image-keyboard-response",24,80453,"0.0-3.4-1.4","ap81ay2br6cka12",213,"158.csv","","null","resources/maskTrios/L1BB.jpg","null","",NA,NA,NA,NA,""
"image-keyboard-response",25,81664,"0.0-3.4-2.4","ap81ay2br6cka12",213,"158.csv","","null","resources/images/coin2.png","null","",NA,NA,NA,NA,""
"image-keyboard-response",26,82823,"0.0-3.5-0.5","ap81ay2br6cka12",213,"158.csv","","1157.2999999970198","resources/trios/L1T1A2.jpg","37","restless",0.7,0.8,0.3,0.0115339513987176,"true"
"image-keyboard-response",27,83232,"0.0-3.5-1.5","ap81ay2br6cka12",213,"158.csv","","null","resources/maskTrios/L1BB.jpg","null","",NA,NA,NA,NA,""
"image-keyboard-response",28,84441,"0.0-3.5-2.5","ap81ay2br6cka12",213,"158.csv","","null","resources/images/coin2.png","null","",NA,NA,NA,NA,""
"image-keyboard-response",29,87048,"0.0-3.6-0.6","ap81ay2br6cka12",213,"158.csv","","2605.1000000089407","resources/trios/L4T1A2.jpg","38","restless",0.7,0.8,0.3,0.176594846412738,"true"
"image-keyboard-response",30,87465,"0.0-3.6-1.6","ap81ay2br6cka12",213,"158.csv","","null","resources/maskTrios/BT1B.jpg","null","",NA,NA,NA,NA,""
"image-keyboard-response",31,88686,"0.0-3.6-2.6","ap81ay2br6cka12",213,"158.csv","","null","resources/images/coin2.png","null","",NA,NA,NA,NA,""
"image-keyboard-response",32,89252,"0.0-3.7-0.7","ap81ay2br6cka12",213,"158.csv","","565.0999999940395","resources/trios/L1T4A2.jpg","37","restless",0.7,0.8,0.3,0.431973739419768,"true"
"image-keyboard-response",33,89670,"0.0-3.7-1.7","ap81ay2br6cka12",213,"158.csv","","null","resources/maskTrios/L1BB.jpg","null","",NA,NA,NA,NA,""
"image-keyboard-response",34,90895,"0.0-3.7-2.7","ap81ay2br6cka12",213,"158.csv","","null","resources/images/coin2.png","null","",NA,NA,NA,NA,""
"image-keyboard-response",35,92141,"0.0-3.8-0.8","ap81ay2br6cka12",213,"158.csv","","1245.4000000059605","resources/trios/L1T4A1.jpg","37","restless",0.7,0.8,0.3,0.696331250690761,"true"
"image-keyboard-response",36,92557,"0.0-3.8-1.8","ap81ay2br6cka12",213,"158.csv","","null","resources/maskTrios/L1BB.jpg","null","",NA,NA,NA,NA,""
"image-keyboard-response",37,93772,"0.0-3.8-2.8","ap81ay2br6cka12",213,"158.csv","","null","resources/images/coin2.png","null","",NA,NA,NA,NA,""
"image-keyboard-response",38,95041,"0.0-3.9-0.9","ap81ay2br6cka12",213,"158.csv","","1267.300000011921","resources/trios/L4T1A1.jpg","38","restless",0.7,0.8,0.3,0.266907335832149,"true"
"image-keyboard-response",39,95456,"0.0-3.9-1.9","ap81ay2br6cka12",213,"158.csv","","null","resources/maskTrios/BT1B.jpg","null","",NA,NA,NA,NA,""
"image-keyboard-response",40,96668,"0.0-3.9-2.9","ap81ay2br6cka12",213,"158.csv","","null","resources/images/coin2.png","null","",NA,NA,NA,NA,""
"image-keyboard-response",41,99774,"0.0-3.10-0.10","ap81ay2br6cka12",213,"158.csv","","3105.0999999940395","resources/trios/L4T4A2.jpg","37","restless",0.7,0.8,0.3,0.0527740527230853,"true"
"image-keyboard-response",42,100193,"0.0-3.10-1.10","ap81ay2br6cka12",213,"158.csv","","null","resources/maskTrios/L4BB.jpg","null","",NA,NA,NA,NA,""
"image-keyboard-response",43,101406,"0.0-3.10-2.10","ap81ay2br6cka12",213,"158.csv","","null","resources/images/coin2.png","null","",NA,NA,NA,NA,""
"image-keyboard-response",44,102291,"0.0-3.11-0.11","ap81ay2br6cka12",213,"158.csv","","883.9000000059605","resources/trios/L1T1A2.jpg","37","restless",0.7,0.7,0.3,0.52053603911626,"true"
"image-keyboard-response",45,102703,"0.0-3.11-1.11","ap81ay2br6cka12",213,"158.csv","","null","resources/maskTrios/L1BB.jpg","null","",NA,NA,NA,NA,""
"image-keyboard-response",46,103913,"0.0-3.11-2.11","ap81ay2br6cka12",213,"158.csv","","null","resources/images/coin2.png","null","",NA,NA,NA,NA,""
"image-keyboard-response",47,105231,"0.0-3.12-0.12","ap81ay2br6cka12",213,"158.csv","","1316.7000000029802","resources/trios/L4T4A2.jpg","37","restless",0.7,0.6,0.3,0.479662705057659,"true"
"image-keyboard-response",48,105642,"0.0-3.12-1.12","ap81ay2br6cka12",213,"158.csv","","null","resources/maskTrios/L4BB.jpg","null","",NA,NA,NA,NA,""
"image-keyboard-response",49,106853,"0.0-3.12-2.12","ap81ay2br6cka12",213,"158.csv","","null","resources/images/coin2.png","null","",NA,NA,NA,NA,""
"image-keyboard-response",50,108109,"0.0-3.13-0.13","ap81ay2br6cka12",213,"158.csv","","1254.8999999910593","resources/trios/L4T1A2.jpg","38","restless",0.7,0.6,0.3,0.107590397311535,"true"
"image-keyboard-response",51,108522,"0.0-3.13-1.13","ap81ay2br6cka12",213,"158.csv","","null","resources/maskTrios/BT1B.jpg","null","",NA,NA,NA,NA,""
"image-keyboard-response",52,109737,"0.0-3.13-2.13","ap81ay2br6cka12",213,"158.csv","","null","resources/images/coin2.png","null","",NA,NA,NA,NA,""
"image-keyboard-response",53,111003,"0.0-3.14-0.14","ap81ay2br6cka12",213,"158.csv","","1264.7999999970198","resources/trios/L4T1A1.jpg","38","restless",0.7,0.5,0.3,0.198373768770023,"true"
"image-keyboard-response",54,111415,"0.0-3.14-1.14","ap81ay2br6cka12",213,"158.csv","","null","resources/maskTrios/BT1B.jpg","null","",NA,NA,NA,NA,""
"image-keyboard-response",55,112625,"0.0-3.14-2.14","ap81ay2br6cka12",213,"158.csv","","null","resources/images/coin2.png","null","",NA,NA,NA,NA,""
"image-keyboard-response",56,113549,"0.0-3.15-0.15","ap81ay2br6cka12",213,"158.csv","","923.5","resources/trios/L1T4A2.jpg","37","restless",0.7,0.5,0.3,0.0263631620467115,"true"
"image-keyboard-response",57,113958,"0.0-3.15-1.15","ap81ay2br6cka12",213,"158.csv","","null","resources/maskTrios/L1BB.jpg","null","",NA,NA,NA,NA,""
"image-keyboard-response",58,115168,"0.0-3.15-2.15","ap81ay2br6cka12",213,"158.csv","","null","resources/images/coin2.png","null","",NA,NA,NA,NA,""
"image-keyboard-response",59,115865,"0.0-3.16-0.16","ap81ay2br6cka12",213,"158.csv","","696","resources/trios/L4T1A1.jpg","37","restless",0.7,0.6,0.3,0.432647293389366,"true"
"image-keyboard-response",60,116283,"0.0-3.16-1.16","ap81ay2br6cka12",213,"158.csv","","null","resources/maskTrios/L4BB.jpg","null","",NA,NA,NA,NA,""
"image-keyboard-response",61,117494,"0.0-3.16-2.16","ap81ay2br6cka12",213,"158.csv","","null","resources/images/coin2.png","null","",NA,NA,NA,NA,""
"image-keyboard-response",62,118411,"0.0-3.17-0.17","ap81ay2br6cka12",213,"158.csv","","916.1000000089407","resources/trios/L4T1A2.jpg","38","restless",0.7,0.6,0.4,0.248054817284616,"true"
"image-keyboard-response",63,118829,"0.0-3.17-1.17","ap81ay2br6cka12",213,"158.csv","","null","resources/maskTrios/BT1B.jpg","null","",NA,NA,NA,NA,""
"image-keyboard-response",64,120037,"0.0-3.17-2.17","ap81ay2br6cka12",213,"158.csv","","null","resources/images/coin2.png","null","",NA,NA,NA,NA,""
"image-keyboard-response",65,120745,"0.0-3.18-0.18","ap81ay2br6cka12",213,"158.csv","","707.6999999880791","resources/trios/L1T4A1.jpg","39","restless",0.7,0.6,0.4,0.820620867516063,"false"
"image-keyboard-response",66,121165,"0.0-3.18-1.18","ap81ay2br6cka12",213,"158.csv","","null","resources/maskTrios/BBA1.jpg","null","",NA,NA,NA,NA,""
"image-keyboard-response",67,122374,"0.0-3.18-2.18","ap81ay2br6cka12",213,"158.csv","","null","resources/images/fishbone.png","null","",NA,NA,NA,NA,""
"image-keyboard-response",68,124022,"0.0-3.19-0.19","ap81ay2br6cka12",213,"158.csv","","1646.199999988079","resources/trios/L4T4A2.jpg","37","restless",0.7,0.6,0.4,0.585349182049287,"true"
"image-keyboard-response",69,124429,"0.0-3.19-1.19","ap81ay2br6cka12",213,"158.csv","","null","resources/maskTrios/L4BB.jpg","null","",NA,NA,NA,NA,""
"image-keyboard-response",70,125638,"0.0-3.19-2.19","ap81ay2br6cka12",213,"158.csv","","null","resources/images/coin2.png","null","",NA,NA,NA,NA,""
"image-keyboard-response",71,127814,"0.0-3.20-0.20","ap81ay2br6cka12",213,"158.csv","","2174.800000011921","resources/trios/L1T1A1.jpg","38","restless",0.7,0.5,0.4,0.44149791303554,"true"
"image-keyboard-response",72,128225,"0.0-3.20-1.20","ap81ay2br6cka12",213,"158.csv","","null","resources/maskTrios/BT1B.jpg","null","",NA,NA,NA,NA,""
"image-keyboard-response",73,129444,"0.0-3.20-2.20","ap81ay2br6cka12",213,"158.csv","","null","resources/images/coin2.png","null","",NA,NA,NA,NA,""
"image-keyboard-response",74,130407,"0.0-3.21-0.21","ap81ay2br6cka12",213,"158.csv","","961.5","resources/trios/L1T1A1.jpg","37","restless",0.7,0.5,0.4,0.435833266748736,"true"
"image-keyboard-response",75,130821,"0.0-3.21-1.21","ap81ay2br6cka12",213,"158.csv","","null","resources/maskTrios/L1BB.jpg","null","",NA,NA,NA,NA,""
"image-keyboard-response",76,132031,"0.0-3.21-2.21","ap81ay2br6cka12",213,"158.csv","","null","resources/images/coin2.png","null","",NA,NA,NA,NA,""
"image-keyboard-response",77,132750,"0.0-3.22-0.22","ap81ay2br6cka12",213,"158.csv","","718.6000000089407","resources/trios/L1T4A2.jpg","37","restless",0.7,0.5,0.4,0.300691273329865,"true"
"image-keyboard-response",78,133161,"0.0-3.22-1.22","ap81ay2br6cka12",213,"158.csv","","null","resources/maskTrios/L1BB.jpg","null","",NA,NA,NA,NA,""
"image-keyboard-response",79,134382,"0.0-3.22-2.22","ap81ay2br6cka12",213,"158.csv","","null","resources/images/coin2.png","null","",NA,NA,NA,NA,""
"image-keyboard-response",80,134908,"0.0-3.23-0.23","ap81ay2br6cka12",213,"158.csv","","524.9000000059605","resources/trios/L4T1A1.jpg","38","restless",0.7,0.5,0.5,0.292044638020754,"true"
"image-keyboard-response",81,135318,"0.0-3.23-1.23","ap81ay2br6cka12",213,"158.csv","","null","resources/maskTrios/BT1B.jpg","null","",NA,NA,NA,NA,""
"image-keyboard-response",82,136528,"0.0-3.23-2.23","ap81ay2br6cka12",213,"158.csv","","null","resources/images/coin2.png","null","",NA,NA,NA,NA,""
"image-keyboard-response",83,137941,"0.0-3.24-0.24","ap81ay2br6cka12",213,"158.csv","","1411.2999999970198","resources/trios/L1T4A1.jpg","37","restless",0.6,0.5,0.5,0.243787207656881,"true"
"image-keyboard-response",84,138355,"0.0-3.24-1.24","ap81ay2br6cka12",213,"158.csv","","null","resources/maskTrios/L1BB.jpg","null","",NA,NA,NA,NA,""
"image-keyboard-response",85,139565,"0.0-3.24-2.24","ap81ay2br6cka12",213,"158.csv","","null","resources/images/coin2.png","null","",NA,NA,NA,NA,""
"image-keyboard-response",86,140182,"0.0-3.25-0.25","ap81ay2br6cka12",213,"158.csv","","615.7000000029802","resources/trios/L1T4A2.jpg","37","restless",0.6,0.5,0.5,0.53014882755796,"true"
"image-keyboard-response",87,140588,"0.0-3.25-1.25","ap81ay2br6cka12",213,"158.csv","","null","resources/maskTrios/L1BB.jpg","null","",NA,NA,NA,NA,""
"image-keyboard-response",88,141804,"0.0-3.25-2.25","ap81ay2br6cka12",213,"158.csv","","null","resources/images/coin2.png","null","",NA,NA,NA,NA,""
"image-keyboard-response",89,142467,"0.0-3.26-0.26","ap81ay2br6cka12",213,"158.csv","","661.2999999970198","resources/trios/L1T4A2.jpg","37","restless",0.6,0.5,0.5,0.0159828073738721,"true"
"image-keyboard-response",90,142883,"0.0-3.26-1.26","ap81ay2br6cka12",213,"158.csv","","null","resources/maskTrios/L1BB.jpg","null","",NA,NA,NA,NA,""
"image-keyboard-response",91,144090,"0.0-3.26-2.26","ap81ay2br6cka12",213,"158.csv","","null","resources/images/coin2.png","null","",NA,NA,NA,NA,""
"image-keyboard-response",92,144446,"0.0-3.27-0.27","ap81ay2br6cka12",213,"158.csv","","354.70000000298023","resources/trios/L1T4A1.jpg","37","restless",0.6,0.5,0.5,0.410618938066512,"true"
"image-keyboard-response",93,144858,"0.0-3.27-1.27","ap81ay2br6cka12",213,"158.csv","","null","resources/maskTrios/L1BB.jpg","null","",NA,NA,NA,NA,""
"image-keyboard-response",94,146070,"0.0-3.27-2.27","ap81ay2br6cka12",213,"158.csv","","null","resources/images/coin2.png","null","",NA,NA,NA,NA,""
"image-keyboard-response",95,146334,"0.0-3.28-0.28","ap81ay2br6cka12",213,"158.csv","","263.20000000298023","resources/trios/L1T4A2.jpg","37","restless",0.6,0.5,0.5,0.665045004337424,"false"
"image-keyboard-response",96,146742,"0.0-3.28-1.28","ap81ay2br6cka12",213,"158.csv","","null","resources/maskTrios/L1BB.jpg","null","",NA,NA,NA,NA,""
"image-keyboard-response",97,147948,"0.0-3.28-2.28","ap81ay2br6cka12",213,"158.csv","","null","resources/images/fishbone.png","null","",NA,NA,NA,NA,""
"image-keyboard-response",98,149066,"0.0-3.29-0.29","ap81ay2br6cka12",213,"158.csv","","1115.9000000059605","resources/trios/L4T4A1.jpg","37","restless",0.6,0.5,0.5,0.199230219829089,"true"
"image-keyboard-response",99,149481,"0.0-3.29-1.29","ap81ay2br6cka12",213,"158.csv","","null","resources/maskTrios/L4BB.jpg","null","",NA,NA,NA,NA,""
"image-keyboard-response",100,150702,"0.0-3.29-2.29","ap81ay2br6cka12",213,"158.csv","","null","resources/images/coin2.png","null","",NA,NA,NA,NA,""
"image-keyboard-response",101,151186,"0.0-3.30-0.30","ap81ay2br6cka12",213,"158.csv","","482.69999998807907","resources/trios/L1T4A2.jpg","37","restless",0.6,0.5,0.5,0.440170210114827,"true"
"image-keyboard-response",102,151592,"0.0-3.30-1.30","ap81ay2br6cka12",213,"158.csv","","null","resources/maskTrios/L1BB.jpg","null","",NA,NA,NA,NA,""
"image-keyboard-response",103,152814,"0.0-3.30-2.30","ap81ay2br6cka12",213,"158.csv","","null","resources/images/coin2.png","null","",NA,NA,NA,NA,""
"image-keyboard-response",104,153088,"0.0-3.31-0.31","ap81ay2br6cka12",213,"158.csv","","273.09999999403954","resources/trios/L1T1A1.jpg","37","restless",0.6,0.5,0.5,0.112378368432648,"true"
"image-keyboard-response",105,153500,"0.0-3.31-1.31","ap81ay2br6cka12",213,"158.csv","","null","resources/maskTrios/L1BB.jpg","null","",NA,NA,NA,NA,""
"image-keyboard-response",106,154718,"0.0-3.31-2.31","ap81ay2br6cka12",213,"158.csv","","null","resources/images/coin2.png","null","",NA,NA,NA,NA,""
"image-keyboard-response",107,155130,"0.0-3.32-0.32","ap81ay2br6cka12",213,"158.csv","","410.79999999701977","resources/trios/L1T4A1.jpg","37","restless",0.6,0.6,0.5,0.900626994697847,"false"
"image-keyboard-response",108,155548,"0.0-3.32-1.32","ap81ay2br6cka12",213,"158.csv","","null","resources/maskTrios/L1BB.jpg","null","",NA,NA,NA,NA,""
"image-keyboard-response",109,156758,"0.0-3.32-2.32","ap81ay2br6cka12",213,"158.csv","","null","resources/images/fishbone.png","null","",NA,NA,NA,NA,""
"image-keyboard-response",110,157300,"0.0-3.33-0.33","ap81ay2br6cka12",213,"158.csv","","540.3000000119209","resources/trios/L4T1A2.jpg","38","restless",0.6,0.6,0.5,0.555597036330006,"true"
"image-keyboard-response",111,157716,"0.0-3.33-1.33","ap81ay2br6cka12",213,"158.csv","","null","resources/maskTrios/BT1B.jpg","null","",NA,NA,NA,NA,""
"image-keyboard-response",112,158928,"0.0-3.33-2.33","ap81ay2br6cka12",213,"158.csv","","null","resources/images/coin2.png","null","",NA,NA,NA,NA,""
"image-keyboard-response",113,159446,"0.0-3.34-0.34","ap81ay2br6cka12",213,"158.csv","","517.5","resources/trios/L1T1A1.jpg","37","restless",0.6,0.6,0.5,0.0810859086859776,"true"
"image-keyboard-response",114,159853,"0.0-3.34-1.34","ap81ay2br6cka12",213,"158.csv","","null","resources/maskTrios/L1BB.jpg","null","",NA,NA,NA,NA,""
"image-keyboard-response",115,161062,"0.0-3.34-2.34","ap81ay2br6cka12",213,"158.csv","","null","resources/images/coin2.png","null","",NA,NA,NA,NA,""
"image-keyboard-response",116,161389,"0.0-3.35-0.35","ap81ay2br6cka12",213,"158.csv","","326.19999998807907","resources/trios/L1T4A1.jpg","37","restless",0.6,0.6,0.5,0.373471907354736,"true"
"image-keyboard-response",117,161800,"0.0-3.35-1.35","ap81ay2br6cka12",213,"158.csv","","null","resources/maskTrios/L1BB.jpg","null","",NA,NA,NA,NA,""
"image-keyboard-response",118,163008,"0.0-3.35-2.35","ap81ay2br6cka12",213,"158.csv","","null","resources/images/coin2.png","null","",NA,NA,NA,NA,""
"image-keyboard-response",119,163416,"0.0-3.36-0.36","ap81ay2br6cka12",213,"158.csv","","406.6000000089407","resources/trios/L4T1A1.jpg","38","restless",0.7,0.6,0.5,0.199726641432499,"true"
"image-keyboard-response",120,163827,"0.0-3.36-1.36","ap81ay2br6cka12",213,"158.csv","","null","resources/maskTrios/BT1B.jpg","null","",NA,NA,NA,NA,""
"image-keyboard-response",121,165033,"0.0-3.36-2.36","ap81ay2br6cka12",213,"158.csv","","null","resources/images/coin2.png","null","",NA,NA,NA,NA,""
"image-keyboard-response",122,165342,"0.0-3.37-0.37","ap81ay2br6cka12",213,"158.csv","","308.40000000596046","resources/trios/L1T4A2.jpg","37","restless",0.7,0.6,0.5,0.157264473712789,"true"
"image-keyboard-response",123,165756,"0.0-3.37-1.37","ap81ay2br6cka12",213,"158.csv","","null","resources/maskTrios/L1BB.jpg","null","",NA,NA,NA,NA,""
"image-keyboard-response",124,166970,"0.0-3.37-2.37","ap81ay2br6cka12",213,"158.csv","","null","resources/images/coin2.png","null","",NA,NA,NA,NA,""
"image-keyboard-response",125,167226,"0.0-3.38-0.38","ap81ay2br6cka12",213,"158.csv","","255.6000000089407","resources/trios/L4T4A1.jpg","37","restless",0.7,0.6,0.5,0.0113044414140608,"true"
"image-keyboard-response",126,167648,"0.0-3.38-1.38","ap81ay2br6cka12",213,"158.csv","","null","resources/maskTrios/L4BB.jpg","null","",NA,NA,NA,NA,""
"image-keyboard-response",127,168857,"0.0-3.38-2.38","ap81ay2br6cka12",213,"158.csv","","null","resources/images/coin2.png","null","",NA,NA,NA,NA,""
"image-keyboard-response",128,169185,"0.0-3.39-0.39","ap81ay2br6cka12",213,"158.csv","","327","resources/trios/L1T4A1.jpg","38","restless",0.7,0.6,0.6,0.203600056831607,"true"
"image-keyboard-response",129,169596,"0.0-3.39-1.39","ap81ay2br6cka12",213,"158.csv","","null","resources/maskTrios/BT4B.jpg","null","",NA,NA,NA,NA,""
"image-keyboard-response",130,170807,"0.0-3.39-2.39","ap81ay2br6cka12",213,"158.csv","","null","resources/images/coin2.png","null","",NA,NA,NA,NA,""
"image-keyboard-response",131,171245,"0.0-3.40-0.40","ap81ay2br6cka12",213,"158.csv","","436.20000000298023","resources/trios/L4T4A1.jpg","37","restless",0.7,0.6,0.6,0.17679281732848,"true"
"image-keyboard-response",132,171655,"0.0-3.40-1.40","ap81ay2br6cka12",213,"158.csv","","null","resources/maskTrios/L4BB.jpg","null","",NA,NA,NA,NA,""
"image-keyboard-response",133,172867,"0.0-3.40-2.40","ap81ay2br6cka12",213,"158.csv","","null","resources/images/coin2.png","null","",NA,NA,NA,NA,""
"image-keyboard-response",134,172943,"0.0-3.41-0.41","ap81ay2br6cka12",213,"158.csv","","74.79999999701977","resources/trios/L1T4A1.jpg","37","restless",0.7,0.6,0.6,0.757162316697316,"false"
"image-keyboard-response",135,173354,"0.0-3.41-1.41","ap81ay2br6cka12",213,"158.csv","","null","resources/maskTrios/L1BB.jpg","null","",NA,NA,NA,NA,""
"image-keyboard-response",136,174562,"0.0-3.41-2.41","ap81ay2br6cka12",213,"158.csv","","null","resources/images/fishbone.png","null","",NA,NA,NA,NA,""
"image-keyboard-response",137,175219,"0.0-3.42-0.42","ap81ay2br6cka12",213,"158.csv","","655.7000000029802","resources/trios/L1T4A1.jpg","37","restless",0.7,0.6,0.6,0.221236809505034,"true"
"image-keyboard-response",138,175635,"0.0-3.42-1.42","ap81ay2br6cka12",213,"158.csv","","null","resources/maskTrios/L1BB.jpg","null","",NA,NA,NA,NA,""
"image-keyboard-response",139,176845,"0.0-3.42-2.42","ap81ay2br6cka12",213,"158.csv","","null","resources/images/coin2.png","null","",NA,NA,NA,NA,""
"image-keyboard-response",140,177708,"0.0-3.43-0.43","ap81ay2br6cka12",213,"158.csv","","862.2000000029802","resources/trios/L4T4A2.jpg","38","restless",0.7,0.6,0.7,0.232938114580793,"true"
"image-keyboard-response",141,178115,"0.0-3.43-1.43","ap81ay2br6cka12",213,"158.csv","","null","resources/maskTrios/BT4B.jpg","null","",NA,NA,NA,NA,""
"image-keyboard-response",142,179323,"0.0-3.43-2.43","ap81ay2br6cka12",213,"158.csv","","null","resources/images/coin2.png","null","",NA,NA,NA,NA,""
"image-keyboard-response",143,179668,"0.0-3.44-0.44","ap81ay2br6cka12",213,"158.csv","","344.40000000596046","resources/trios/L4T4A1.jpg","37","restless",0.7,0.6,0.6,0.16410335846291,"true"
"image-keyboard-response",144,180073,"0.0-3.44-1.44","ap81ay2br6cka12",213,"158.csv","","null","resources/maskTrios/L4BB.jpg","null","",NA,NA,NA,NA,""
"image-keyboard-response",145,181294,"0.0-3.44-2.44","ap81ay2br6cka12",213,"158.csv","","null","resources/images/coin2.png","null","",NA,NA,NA,NA,""
"image-keyboard-response",146,181557,"0.0-3.45-0.45","ap81ay2br6cka12",213,"158.csv","","261.20000000298023","resources/trios/L4T4A2.jpg","38","restless",0.7,0.6,0.6,0.194359362273038,"true"
"image-keyboard-response",147,181973,"0.0-3.45-1.45","ap81ay2br6cka12",213,"158.csv","","null","resources/maskTrios/BT4B.jpg","null","",NA,NA,NA,NA,""
"image-keyboard-response",148,183184,"0.0-3.45-2.45","ap81ay2br6cka12",213,"158.csv","","null","resources/images/coin2.png","null","",NA,NA,NA,NA,""
"image-keyboard-response",149,183502,"0.0-3.46-0.46","ap81ay2br6cka12",213,"158.csv","","316.70000000298023","resources/trios/L4T4A2.jpg","37","restless",0.7,0.6,0.6,0.346616620513648,"true"
"image-keyboard-response",150,183906,"0.0-3.46-1.46","ap81ay2br6cka12",213,"158.csv","","null","resources/maskTrios/L4BB.jpg","null","",NA,NA,NA,NA,""
"image-keyboard-response",151,185114,"0.0-3.46-2.46","ap81ay2br6cka12",213,"158.csv","","null","resources/images/coin2.png","null","",NA,NA,NA,NA,""
"image-keyboard-response",152,185537,"0.0-3.47-0.47","ap81ay2br6cka12",213,"158.csv","","421.3999999910593","resources/trios/L1T4A1.jpg","38","restless",0.7,0.6,0.6,0.00848262844032721,"true"
"image-keyboard-response",153,185958,"0.0-3.47-1.47","ap81ay2br6cka12",213,"158.csv","","null","resources/maskTrios/BT4B.jpg","null","",NA,NA,NA,NA,""
"image-keyboard-response",154,187171,"0.0-3.47-2.47","ap81ay2br6cka12",213,"158.csv","","null","resources/images/coin2.png","null","",NA,NA,NA,NA,""
"image-keyboard-response",155,187454,"0.0-3.48-0.48","ap81ay2br6cka12",213,"158.csv","","281.59999999403954","resources/trios/L1T4A2.jpg","37","restless",0.8,0.6,0.6,0.532027552588751,"true"
"image-keyboard-response",156,187859,"0.0-3.48-1.48","ap81ay2br6cka12",213,"158.csv","","null","resources/maskTrios/L1BB.jpg","null","",NA,NA,NA,NA,""
"image-keyboard-response",157,189069,"0.0-3.48-2.48","ap81ay2br6cka12",213,"158.csv","","null","resources/images/coin2.png","null","",NA,NA,NA,NA,""
"image-keyboard-response",158,189421,"0.0-3.49-0.49","ap81ay2br6cka12",213,"158.csv","","351.29999999701977","resources/trios/L1T1A1.jpg","38","restless",0.8,0.6,0.6,0.973572374005889,"false"
"image-keyboard-response",159,189837,"0.0-3.49-1.49","ap81ay2br6cka12",213,"158.csv","","null","resources/maskTrios/BT1B.jpg","null","",NA,NA,NA,NA,""
"image-keyboard-response",160,191046,"0.0-3.49-2.49","ap81ay2br6cka12",213,"158.csv","","null","resources/images/fishbone.png","null","",NA,NA,NA,NA,""
"image-keyboard-response",161,191369,"0.0-3.50-0.50","ap81ay2br6cka12",213,"158.csv","","322.19999998807907","resources/trios/L1T4A1.jpg","37","restless",0.7,0.5,0.7,0.261139810565819,"true"
"image-keyboard-response",162,191780,"0.0-3.50-1.50","ap81ay2br6cka12",213,"158.csv","","null","resources/maskTrios/L1BB.jpg","null","",NA,NA,NA,NA,""
"image-keyboard-response",163,192985,"0.0-3.50-2.50","ap81ay2br6cka12",213,"158.csv","","null","resources/images/coin2.png","null","",NA,NA,NA,NA,""
"image-keyboard-response",164,193257,"0.0-3.51-0.51","ap81ay2br6cka12",213,"158.csv","","270.29999999701977","resources/trios/L4T4A2.jpg","37","restless",0.7,0.5,0.7,0.589891705875642,"true"
"image-keyboard-response",165,193676,"0.0-3.51-1.51","ap81ay2br6cka12",213,"158.csv","","null","resources/maskTrios/L4BB.jpg","null","",NA,NA,NA,NA,""
"image-keyboard-response",166,194886,"0.0-3.51-2.51","ap81ay2br6cka12",213,"158.csv","","null","resources/images/coin2.png","null","",NA,NA,NA,NA,""
"image-keyboard-response",167,195159,"0.0-3.52-0.52","ap81ay2br6cka12",213,"158.csv","","272.20000000298023","resources/trios/L1T1A1.jpg","38","restless",0.7,0.4,0.8,0.991486638312479,"false"
"image-keyboard-response",168,195576,"0.0-3.52-1.52","ap81ay2br6cka12",213,"158.csv","","null","resources/maskTrios/BT1B.jpg","null","",NA,NA,NA,NA,""
"image-keyboard-response",169,196791,"0.0-3.52-2.52","ap81ay2br6cka12",213,"158.csv","","null","resources/images/fishbone.png","null","",NA,NA,NA,NA,""
"image-keyboard-response",170,197065,"0.0-3.53-0.53","ap81ay2br6cka12",213,"158.csv","","272.5","resources/trios/L1T4A2.jpg","37","restless",0.7,0.3,0.8,0.766683362500956,"false"
"image-keyboard-response",171,197478,"0.0-3.53-1.53","ap81ay2br6cka12",213,"158.csv","","null","resources/maskTrios/L1BB.jpg","null","",NA,NA,NA,NA,""
"image-keyboard-response",172,198692,"0.0-3.53-2.53","ap81ay2br6cka12",213,"158.csv","","null","resources/images/fishbone.png","null","",NA,NA,NA,NA,""
"image-keyboard-response",173,199043,"0.0-3.54-0.54","ap81ay2br6cka12",213,"158.csv","","350.80000001192093","resources/trios/L1T1A2.jpg","38","restless",0.7,0.2,0.8,0.0434452978297959,"true"
"image-keyboard-response",174,199463,"0.0-3.54-1.54","ap81ay2br6cka12",213,"158.csv","","null","resources/maskTrios/BT1B.jpg","null","",NA,NA,NA,NA,""
"image-keyboard-response",175,200687,"0.0-3.54-2.54","ap81ay2br6cka12",213,"158.csv","","null","resources/images/coin2.png","null","",NA,NA,NA,NA,""
"image-keyboard-response",176,201602,"0.0-3.55-0.55","ap81ay2br6cka12",213,"158.csv","","914.4000000059605","resources/trios/L1T4A1.jpg","37","restless",0.7,0.2,0.8,0.35941605786896,"true"
"image-keyboard-response",177,202009,"0.0-3.55-1.55","ap81ay2br6cka12",213,"158.csv","","null","resources/maskTrios/L1BB.jpg","null","",NA,NA,NA,NA,""
"image-keyboard-response",178,203218,"0.0-3.55-2.55","ap81ay2br6cka12",213,"158.csv","","null","resources/images/coin2.png","null","",NA,NA,NA,NA,""
"image-keyboard-response",179,204168,"0.0-3.56-0.56","ap81ay2br6cka12",213,"158.csv","","948.6000000089407","resources/trios/L1T4A1.jpg","37","restless",0.7,0.2,0.8,0.480030663188735,"true"
"image-keyboard-response",180,204582,"0.0-3.56-1.56","ap81ay2br6cka12",213,"158.csv","","null","resources/maskTrios/L1BB.jpg","null","",NA,NA,NA,NA,""
"image-keyboard-response",181,205794,"0.0-3.56-2.56","ap81ay2br6cka12",213,"158.csv","","null","resources/images/coin2.png","null","",NA,NA,NA,NA,""
"image-keyboard-response",182,206418,"0.0-3.57-0.57","ap81ay2br6cka12",213,"158.csv","","623","resources/trios/L4T1A1.jpg","38","restless",0.7,0.2,0.8,0.259574993507408,"false"
"image-keyboard-response",183,206833,"0.0-3.57-1.57","ap81ay2br6cka12",213,"158.csv","","null","resources/maskTrios/BT1B.jpg","null","",NA,NA,NA,NA,""
"image-keyboard-response",184,208043,"0.0-3.57-2.57","ap81ay2br6cka12",213,"158.csv","","null","resources/images/fishbone.png","null","",NA,NA,NA,NA,""
"image-keyboard-response",185,208439,"0.0-3.58-0.58","ap81ay2br6cka12",213,"158.csv","","394.70000000298023","resources/trios/L4T4A1.jpg","37","restless",0.7,0.2,0.8,0.401393481056797,"true"
"image-keyboard-response",186,208856,"0.0-3.58-1.58","ap81ay2br6cka12",213,"158.csv","","null","resources/maskTrios/L4BB.jpg","null","",NA,NA,NA,NA,""
"image-keyboard-response",187,210066,"0.0-3.58-2.58","ap81ay2br6cka12",213,"158.csv","","null","resources/images/coin2.png","null","",NA,NA,NA,NA,""
"image-keyboard-response",188,210707,"0.0-3.59-0.59","ap81ay2br6cka12",213,"158.csv","","640.1000000089407","resources/trios/L1T1A2.jpg","37","restless",0.7,0.2,0.8,0.671391076640829,"true"
"image-keyboard-response",189,211114,"0.0-3.59-1.59","ap81ay2br6cka12",213,"158.csv","","null","resources/maskTrios/L1BB.jpg","null","",NA,NA,NA,NA,""
"image-keyboard-response",190,212327,"0.0-3.59-2.59","ap81ay2br6cka12",213,"158.csv","","null","resources/images/coin2.png","null","",NA,NA,NA,NA,""
"image-keyboard-response",191,213562,"0.0-3.60-0.60","ap81ay2br6cka12",213,"158.csv","","1233.800000011921","resources/trios/L1T1A2.jpg","39","restless",0.7,0.2,0.8,0.190533376712089,"true"
"image-keyboard-response",192,213983,"0.0-3.60-1.60","ap81ay2br6cka12",213,"158.csv","","null","resources/maskTrios/BBA2.jpg","null","",NA,NA,NA,NA,""
"image-keyboard-response",193,215195,"0.0-3.60-2.60","ap81ay2br6cka12",213,"158.csv","","null","resources/images/coin2.png","null","",NA,NA,NA,NA,""
"image-keyboard-response",194,216350,"0.0-3.61-0.61","ap81ay2br6cka12",213,"158.csv","","1153.800000011921","resources/trios/L1T1A2.jpg","37","restless",0.7,0.2,0.8,0.134794868277009,"true"
"image-keyboard-response",195,216762,"0.0-3.61-1.61","ap81ay2br6cka12",213,"158.csv","","null","resources/maskTrios/L1BB.jpg","null","",NA,NA,NA,NA,""
"image-keyboard-response",196,217972,"0.0-3.61-2.61","ap81ay2br6cka12",213,"158.csv","","null","resources/images/coin2.png","null","",NA,NA,NA,NA,""
"image-keyboard-response",197,218411,"0.0-3.62-0.62","ap81ay2br6cka12",213,"158.csv","","437.8999999910593","resources/trios/L1T1A1.jpg","38","restless",0.7,0.2,0.8,0.692031849938709,"false"
"image-keyboard-response",198,218822,"0.0-3.62-1.62","ap81ay2br6cka12",213,"158.csv","","null","resources/maskTrios/BT1B.jpg","null","",NA,NA,NA,NA,""
"image-keyboard-response",199,220029,"0.0-3.62-2.62","ap81ay2br6cka12",213,"158.csv","","null","resources/images/fishbone.png","null","",NA,NA,NA,NA,""
"image-keyboard-response",200,221341,"0.0-3.63-0.63","ap81ay2br6cka12",213,"158.csv","","1310.5","resources/trios/L4T4A1.jpg","37","restless",0.7,0.2,0.8,0.197061799948534,"true"
"image-keyboard-response",201,221756,"0.0-3.63-1.63","ap81ay2br6cka12",213,"158.csv","","null","resources/maskTrios/L4BB.jpg","null","",NA,NA,NA,NA,""
"image-keyboard-response",202,222961,"0.0-3.63-2.63","ap81ay2br6cka12",213,"158.csv","","null","resources/images/coin2.png","null","",NA,NA,NA,NA,""
"image-keyboard-response",203,223602,"0.0-3.64-0.64","ap81ay2br6cka12",213,"158.csv","","639.2000000029802","resources/trios/L1T4A1.jpg","37","restless",0.6,0.3,0.8,0.470298335689513,"true"
"image-keyboard-response",204,224012,"0.0-3.64-1.64","ap81ay2br6cka12",213,"158.csv","","null","resources/maskTrios/L1BB.jpg","null","",NA,NA,NA,NA,""
"image-keyboard-response",205,225221,"0.0-3.64-2.64","ap81ay2br6cka12",213,"158.csv","","null","resources/images/coin2.png","null","",NA,NA,NA,NA,""
"image-keyboard-response",206,225734,"0.0-3.65-0.65","ap81ay2br6cka12",213,"158.csv","","511.5","resources/trios/L4T1A2.jpg","39","restless",0.6,0.3,0.8,0.195711561908473,"true"
"image-keyboard-response",207,226148,"0.0-3.65-1.65","ap81ay2br6cka12",213,"158.csv","","null","resources/maskTrios/BBA2.jpg","null","",NA,NA,NA,NA,""
"image-keyboard-response",208,227355,"0.0-3.65-2.65","ap81ay2br6cka12",213,"158.csv","","null","resources/images/coin2.png","null","",NA,NA,NA,NA,""
"image-keyboard-response",209,227873,"0.0-3.66-0.66","ap81ay2br6cka12",213,"158.csv","","516.2999999970198","resources/trios/L4T4A1.jpg","38","restless",0.6,0.3,0.8,0.346221656304301,"false"
"image-keyboard-response",210,228295,"0.0-3.66-1.66","ap81ay2br6cka12",213,"158.csv","","null","resources/maskTrios/BT4B.jpg","null","",NA,NA,NA,NA,""
"image-keyboard-response",211,229509,"0.0-3.66-2.66","ap81ay2br6cka12",213,"158.csv","","null","resources/images/fishbone.png","null","",NA,NA,NA,NA,""
"image-keyboard-response",212,230013,"0.0-3.67-0.67","ap81ay2br6cka12",213,"158.csv","","503","resources/trios/L1T4A2.jpg","37","restless",0.6,0.3,0.8,0.9541265526819,"false"
"image-keyboard-response",213,230420,"0.0-3.67-1.67","ap81ay2br6cka12",213,"158.csv","","null","resources/maskTrios/L1BB.jpg","null","",NA,NA,NA,NA,""
"image-keyboard-response",214,231632,"0.0-3.67-2.67","ap81ay2br6cka12",213,"158.csv","","null","resources/images/fishbone.png","null","",NA,NA,NA,NA,""
"image-keyboard-response",215,231875,"0.0-3.68-0.68","ap81ay2br6cka12",213,"158.csv","","241.40000000596046","resources/trios/L4T1A2.jpg","37","restless",0.5,0.3,0.8,0.864930858449255,"false"
"image-keyboard-response",216,232291,"0.0-3.68-1.68","ap81ay2br6cka12",213,"158.csv","","null","resources/maskTrios/L4BB.jpg","null","",NA,NA,NA,NA,""
"image-keyboard-response",217,233503,"0.0-3.68-2.68","ap81ay2br6cka12",213,"158.csv","","null","resources/images/fishbone.png","null","",NA,NA,NA,NA,""
"image-keyboard-response",218,234075,"0.0-3.69-0.69","ap81ay2br6cka12",213,"158.csv","","570.5999999940395","resources/trios/L1T4A1.jpg","37","restless",0.5,0.3,0.8,0.152592872250547,"true"
"image-keyboard-response",219,234491,"0.0-3.69-1.69","ap81ay2br6cka12",213,"158.csv","","null","resources/maskTrios/L1BB.jpg","null","",NA,NA,NA,NA,""
"image-keyboard-response",220,235701,"0.0-3.69-2.69","ap81ay2br6cka12",213,"158.csv","","null","resources/images/coin2.png","null","",NA,NA,NA,NA,""
"image-keyboard-response",221,236338,"0.0-3.70-0.70","ap81ay2br6cka12",213,"158.csv","","635.2000000029802","resources/trios/L4T4A2.jpg","38","restless",0.5,0.3,0.8,0.946610131653475,"false"
"image-keyboard-response",222,236758,"0.0-3.70-1.70","ap81ay2br6cka12",213,"158.csv","","null","resources/maskTrios/BT4B.jpg","null","",NA,NA,NA,NA,""
"image-keyboard-response",223,237970,"0.0-3.70-2.70","ap81ay2br6cka12",213,"158.csv","","null","resources/images/fishbone.png","null","",NA,NA,NA,NA,""
"image-keyboard-response",224,238867,"0.0-3.71-0.71","ap81ay2br6cka12",213,"158.csv","","895.4000000059605","resources/trios/L4T1A1.jpg","37","restless",0.4,0.3,0.7,0.175986316412499,"true"
"image-keyboard-response",225,239274,"0.0-3.71-1.71","ap81ay2br6cka12",213,"158.csv","","null","resources/maskTrios/L4BB.jpg","null","",NA,NA,NA,NA,""
"image-keyboard-response",226,240488,"0.0-3.71-2.71","ap81ay2br6cka12",213,"158.csv","","null","resources/images/coin2.png","null","",NA,NA,NA,NA,""
"image-keyboard-response",227,240797,"0.0-3.72-0.72","ap81ay2br6cka12",213,"158.csv","","307.8999999910593","resources/trios/L4T4A1.jpg","37","restless",0.4,0.3,0.7,0.00815815614227167,"true"
"image-keyboard-response",228,241211,"0.0-3.72-1.72","ap81ay2br6cka12",213,"158.csv","","null","resources/maskTrios/L4BB.jpg","null","",NA,NA,NA,NA,""
"image-keyboard-response",229,242422,"0.0-3.72-2.72","ap81ay2br6cka12",213,"158.csv","","null","resources/images/coin2.png","null","",NA,NA,NA,NA,""
"image-keyboard-response",230,242764,"0.0-3.73-0.73","ap81ay2br6cka12",213,"158.csv","","340.69999998807907","resources/trios/L1T1A1.jpg","38","restless",0.4,0.3,0.7,0.490090861180485,"false"
"image-keyboard-response",231,243176,"0.0-3.73-1.73","ap81ay2br6cka12",213,"158.csv","","null","resources/maskTrios/BT1B.jpg","null","",NA,NA,NA,NA,""
"image-keyboard-response",232,244391,"0.0-3.73-2.73","ap81ay2br6cka12",213,"158.csv","","null","resources/images/fishbone.png","null","",NA,NA,NA,NA,""
"image-keyboard-response",233,244887,"0.0-3.74-0.74","ap81ay2br6cka12",213,"158.csv","","495.79999999701977","resources/trios/L1T4A2.jpg","37","restless",0.4,0.3,0.7,0.402713906111157,"false"
"image-keyboard-response",234,245300,"0.0-3.74-1.74","ap81ay2br6cka12",213,"158.csv","","null","resources/maskTrios/L1BB.jpg","null","",NA,NA,NA,NA,""
"image-keyboard-response",235,246513,"0.0-3.74-2.74","ap81ay2br6cka12",213,"158.csv","","null","resources/images/fishbone.png","null","",NA,NA,NA,NA,""
"image-keyboard-response",236,246774,"0.0-3.75-0.75","ap81ay2br6cka12",213,"158.csv","","260.29999999701977","resources/trios/L4T1A1.jpg","39","restless",0.4,0.3,0.7,0.499394289537948,"true"
"image-keyboard-response",237,247185,"0.0-3.75-1.75","ap81ay2br6cka12",213,"158.csv","","null","resources/maskTrios/BBA1.jpg","null","",NA,NA,NA,NA,""
"image-keyboard-response",238,248394,"0.0-3.75-2.75","ap81ay2br6cka12",213,"158.csv","","null","resources/images/coin2.png","null","",NA,NA,NA,NA,""
"image-keyboard-response",239,249917,"0.0-3.76-0.76","ap81ay2br6cka12",213,"158.csv","","1521.5","resources/trios/L1T1A2.jpg","39","restless",0.4,0.3,0.7,0.0754761906704504,"true"
"image-keyboard-response",240,250324,"0.0-3.76-1.76","ap81ay2br6cka12",213,"158.csv","","null","resources/maskTrios/BBA2.jpg","null","",NA,NA,NA,NA,""
"image-keyboard-response",241,251532,"0.0-3.76-2.76","ap81ay2br6cka12",213,"158.csv","","null","resources/images/coin2.png","null","",NA,NA,NA,NA,""
"image-keyboard-response",242,251839,"0.0-3.77-0.77","ap81ay2br6cka12",213,"158.csv","","305.79999999701977","resources/trios/L4T1A1.jpg","37","restless",0.4,0.3,0.7,0.589603827563576,"false"
"image-keyboard-response",243,252249,"0.0-3.77-1.77","ap81ay2br6cka12",213,"158.csv","","null","resources/maskTrios/L4BB.jpg","null","",NA,NA,NA,NA,""
"image-keyboard-response",244,253459,"0.0-3.77-2.77","ap81ay2br6cka12",213,"158.csv","","null","resources/images/fishbone.png","null","",NA,NA,NA,NA,""
"image-keyboard-response",245,254281,"0.0-3.78-0.78","ap81ay2br6cka12",213,"158.csv","","821","resources/trios/L1T4A1.jpg","37","restless",0.4,0.3,0.7,0.937354964753771,"false"
"image-keyboard-response",246,254702,"0.0-3.78-1.78","ap81ay2br6cka12",213,"158.csv","","null","resources/maskTrios/L1BB.jpg","null","",NA,NA,NA,NA,""
"image-keyboard-response",247,255914,"0.0-3.78-2.78","ap81ay2br6cka12",213,"158.csv","","null","resources/images/fishbone.png","null","",NA,NA,NA,NA,""
"image-keyboard-response",248,256189,"0.0-3.79-0.79","ap81ay2br6cka12",213,"158.csv","","274","resources/trios/L1T1A2.jpg","38","restless",0.4,0.3,0.7,0.988678367726951,"false"
"image-keyboard-response",249,256604,"0.0-3.79-1.79","ap81ay2br6cka12",213,"158.csv","","null","resources/maskTrios/BT1B.jpg","null","",NA,NA,NA,NA,""
"image-keyboard-response",250,257809,"0.0-3.79-2.79","ap81ay2br6cka12",213,"158.csv","","null","resources/images/fishbone.png","null","",NA,NA,NA,NA,""
"image-keyboard-response",251,257830,"0.0-3.80-0.80","ap81ay2br6cka12",213,"158.csv","","20.5","resources/trios/L4T4A1.jpg","39","restless",0.4,0.3,0.7,0.712178582420437,"false"
"image-keyboard-response",252,258246,"0.0-3.80-1.80","ap81ay2br6cka12",213,"158.csv","","null","resources/maskTrios/BBA1.jpg","null","",NA,NA,NA,NA,""
"image-keyboard-response",253,259472,"0.0-3.80-2.80","ap81ay2br6cka12",213,"158.csv","","null","resources/images/fishbone.png","null","",NA,NA,NA,NA,""
"image-keyboard-response",254,260922,"0.0-3.81-0.81","ap81ay2br6cka12",213,"158.csv","","1449.7000000029802","resources/trios/L4T4A2.jpg","38","restless",0.4,0.3,0.8,0.857546445711549,"false"
"image-keyboard-response",255,261335,"0.0-3.81-1.81","ap81ay2br6cka12",213,"158.csv","","null","resources/maskTrios/BT4B.jpg","null","",NA,NA,NA,NA,""
"image-keyboard-response",256,262558,"0.0-3.81-2.81","ap81ay2br6cka12",213,"158.csv","","null","resources/images/fishbone.png","null","",NA,NA,NA,NA,""
"image-keyboard-response",257,262860,"0.0-3.82-0.82","ap81ay2br6cka12",213,"158.csv","","300.8999999910593","resources/trios/L4T4A2.jpg","37","restless",0.4,0.3,0.8,0.548710682817107,"false"
"image-keyboard-response",258,263279,"0.0-3.82-1.82","ap81ay2br6cka12",213,"158.csv","","null","resources/maskTrios/L4BB.jpg","null","",NA,NA,NA,NA,""
"image-keyboard-response",259,264501,"0.0-3.82-2.82","ap81ay2br6cka12",213,"158.csv","","null","resources/images/fishbone.png","null","",NA,NA,NA,NA,""
"image-keyboard-response",260,264814,"0.0-3.83-0.83","ap81ay2br6cka12",213,"158.csv","","311.79999999701977","resources/trios/L1T4A1.jpg","39","restless",0.3,0.3,0.8,0.968891544164909,"false"
"image-keyboard-response",261,265219,"0.0-3.83-1.83","ap81ay2br6cka12",213,"158.csv","","null","resources/maskTrios/BBA1.jpg","null","",NA,NA,NA,NA,""
"image-keyboard-response",262,266430,"0.0-3.83-2.83","ap81ay2br6cka12",213,"158.csv","","null","resources/images/fishbone.png","null","",NA,NA,NA,NA,""
"image-keyboard-response",263,266835,"0.0-3.84-0.84","ap81ay2br6cka12",213,"158.csv","","404.20000000298023","resources/trios/L1T4A1.jpg","38","restless",0.3,0.3,0.8,0.932045000272399,"false"
"image-keyboard-response",264,267246,"0.0-3.84-1.84","ap81ay2br6cka12",213,"158.csv","","null","resources/maskTrios/BT4B.jpg","null","",NA,NA,NA,NA,""
"image-keyboard-response",265,268455,"0.0-3.84-2.84","ap81ay2br6cka12",213,"158.csv","","null","resources/images/fishbone.png","null","",NA,NA,NA,NA,""
"image-keyboard-response",266,268487,"0.0-3.85-0.85","ap81ay2br6cka12",213,"158.csv","","31","resources/trios/L1T1A2.jpg","39","restless",0.3,0.3,0.8,0.671004296146864,"true"
"image-keyboard-response",267,268909,"0.0-3.85-1.85","ap81ay2br6cka12",213,"158.csv","","null","resources/maskTrios/BBA2.jpg","null","",NA,NA,NA,NA,""
"image-keyboard-response",268,270111,"0.0-3.85-2.85","ap81ay2br6cka12",213,"158.csv","","null","resources/images/coin2.png","null","",NA,NA,NA,NA,""
"image-keyboard-response",269,271019,"0.0-3.86-0.86","ap81ay2br6cka12",213,"158.csv","","907.4000000059605","resources/trios/L1T1A2.jpg","37","restless",0.3,0.3,0.8,0.724409145017176,"false"
"image-keyboard-response",270,271437,"0.0-3.86-1.86","ap81ay2br6cka12",213,"158.csv","","null","resources/maskTrios/L1BB.jpg","null","",NA,NA,NA,NA,""
"image-keyboard-response",271,272645,"0.0-3.86-2.86","ap81ay2br6cka12",213,"158.csv","","null","resources/images/fishbone.png","null","",NA,NA,NA,NA,""
"image-keyboard-response",272,273018,"0.0-3.87-0.87","ap81ay2br6cka12",213,"158.csv","","372.3999999910593","resources/trios/L1T1A2.jpg","39","restless",0.3,0.3,0.8,0.60081713197676,"true"
"image-keyboard-response",273,273432,"0.0-3.87-1.87","ap81ay2br6cka12",213,"158.csv","","null","resources/maskTrios/BBA2.jpg","null","",NA,NA,NA,NA,""
"image-keyboard-response",274,274641,"0.0-3.87-2.87","ap81ay2br6cka12",213,"158.csv","","null","resources/images/coin2.png","null","",NA,NA,NA,NA,""
"image-keyboard-response",275,274853,"0.0-3.88-0.88","ap81ay2br6cka12",213,"158.csv","","211.59999999403954","resources/trios/L4T1A1.jpg","39","restless",0.3,0.3,0.8,0.799680307643425,"true"
"image-keyboard-response",276,275270,"0.0-3.88-1.88","ap81ay2br6cka12",213,"158.csv","","null","resources/maskTrios/BBA1.jpg","null","",NA,NA,NA,NA,""
"image-keyboard-response",277,276476,"0.0-3.88-2.88","ap81ay2br6cka12",213,"158.csv","","null","resources/images/coin2.png","null","",NA,NA,NA,NA,""
"image-keyboard-response",278,277061,"0.0-3.89-0.89","ap81ay2br6cka12",213,"158.csv","","584","resources/trios/L1T4A2.jpg","38","restless",0.3,0.3,0.8,0.833098650054095,"false"
"image-keyboard-response",279,277479,"0.0-3.89-1.89","ap81ay2br6cka12",213,"158.csv","","null","resources/maskTrios/BT4B.jpg","null","",NA,NA,NA,NA,""
"image-keyboard-response",280,278698,"0.0-3.89-2.89","ap81ay2br6cka12",213,"158.csv","","null","resources/images/fishbone.png","null","",NA,NA,NA,NA,""
"image-keyboard-response",281,279015,"0.0-3.90-0.90","ap81ay2br6cka12",213,"158.csv","","315.79999999701977","resources/trios/L4T1A2.jpg","39","restless",0.3,0.4,0.8,0.0884988335538106,"true"
"image-keyboard-response",282,279436,"0.0-3.90-1.90","ap81ay2br6cka12",213,"158.csv","","null","resources/maskTrios/BBA2.jpg","null","",NA,NA,NA,NA,""
"image-keyboard-response",283,280644,"0.0-3.90-2.90","ap81ay2br6cka12",213,"158.csv","","null","resources/images/coin2.png","null","",NA,NA,NA,NA,""
"image-keyboard-response",284,281104,"0.0-3.91-0.91","ap81ay2br6cka12",213,"158.csv","","458.5","resources/trios/L1T4A2.jpg","39","restless",0.3,0.5,0.8,0.980042451243933,"false"
"image-keyboard-response",285,281522,"0.0-3.91-1.91","ap81ay2br6cka12",213,"158.csv","","null","resources/maskTrios/BBA2.jpg","null","",NA,NA,NA,NA,""
"image-keyboard-response",286,282730,"0.0-3.91-2.91","ap81ay2br6cka12",213,"158.csv","","null","resources/images/fishbone.png","null","",NA,NA,NA,NA,""
"image-keyboard-response",287,283431,"0.0-3.92-0.92","ap81ay2br6cka12",213,"158.csv","","699.5","resources/trios/L1T4A1.jpg","39","restless",0.3,0.5,0.8,0.271031448919443,"true"
"image-keyboard-response",288,283845,"0.0-3.92-1.92","ap81ay2br6cka12",213,"158.csv","","null","resources/maskTrios/BBA1.jpg","null","",NA,NA,NA,NA,""
"image-keyboard-response",289,285055,"0.0-3.92-2.92","ap81ay2br6cka12",213,"158.csv","","null","resources/images/coin2.png","null","",NA,NA,NA,NA,""
"image-keyboard-response",290,285558,"0.0-3.93-0.93","ap81ay2br6cka12",213,"158.csv","","502.09999999403954","resources/trios/L1T1A2.jpg","39","restless",0.3,0.5,0.9,0.0430860595913514,"true"
"image-keyboard-response",291,285964,"0.0-3.93-1.93","ap81ay2br6cka12",213,"158.csv","","null","resources/maskTrios/BBA2.jpg","null","",NA,NA,NA,NA,""
"image-keyboard-response",292,287175,"0.0-3.93-2.93","ap81ay2br6cka12",213,"158.csv","","null","resources/images/coin2.png","null","",NA,NA,NA,NA,""
"image-keyboard-response",293,287599,"0.0-3.94-0.94","ap81ay2br6cka12",213,"158.csv","","422.90000000596046","resources/trios/L1T4A2.jpg","39","restless",0.3,0.5,0.9,0.414687086453794,"true"
"image-keyboard-response",294,288021,"0.0-3.94-1.94","ap81ay2br6cka12",213,"158.csv","","null","resources/maskTrios/BBA2.jpg","null","",NA,NA,NA,NA,""
"image-keyboard-response",295,289229,"0.0-3.94-2.94","ap81ay2br6cka12",213,"158.csv","","null","resources/images/coin2.png","null","",NA,NA,NA,NA,""
"image-keyboard-response",296,289846,"0.0-3.95-0.95","ap81ay2br6cka12",213,"158.csv","","615.3999999910593","resources/trios/L4T1A1.jpg","39","restless",0.3,0.5,0.9,0.524628047696524,"true"
"image-keyboard-response",297,290253,"0.0-3.95-1.95","ap81ay2br6cka12",213,"158.csv","","null","resources/maskTrios/BBA1.jpg","null","",NA,NA,NA,NA,""
"image-keyboard-response",298,291459,"0.0-3.95-2.95","ap81ay2br6cka12",213,"158.csv","","null","resources/images/coin2.png","null","",NA,NA,NA,NA,""
"image-keyboard-response",299,292110,"0.0-3.96-0.96","ap81ay2br6cka12",213,"158.csv","","649.6999999880791","resources/trios/L1T4A1.jpg","39","restless",0.3,0.5,0.9,0.228163898334492,"true"
"image-keyboard-response",300,292515,"0.0-3.96-1.96","ap81ay2br6cka12",213,"158.csv","","null","resources/maskTrios/BBA1.jpg","null","",NA,NA,NA,NA,""
"image-keyboard-response",301,293726,"0.0-3.96-2.96","ap81ay2br6cka12",213,"158.csv","","null","resources/images/coin2.png","null","",NA,NA,NA,NA,""
"image-keyboard-response",302,294074,"0.0-3.97-0.97","ap81ay2br6cka12",213,"158.csv","","346.6000000089407","resources/trios/L1T4A2.jpg","39","restless",0.3,0.5,0.9,0.186550627785888,"true"
"image-keyboard-response",303,294492,"0.0-3.97-1.97","ap81ay2br6cka12",213,"158.csv","","null","resources/maskTrios/BBA2.jpg","null","",NA,NA,NA,NA,""
"image-keyboard-response",304,295702,"0.0-3.97-2.97","ap81ay2br6cka12",213,"158.csv","","null","resources/images/coin2.png","null","",NA,NA,NA,NA,""
"image-keyboard-response",305,295993,"0.0-3.98-0.98","ap81ay2br6cka12",213,"158.csv","","289.29999999701977","resources/trios/L1T4A2.jpg","39","restless",0.3,0.5,0.9,0.127261885933433,"true"
"image-keyboard-response",306,296410,"0.0-3.98-1.98","ap81ay2br6cka12",213,"158.csv","","null","resources/maskTrios/BBA2.jpg","null","",NA,NA,NA,NA,""
"image-keyboard-response",307,297621,"0.0-3.98-2.98","ap81ay2br6cka12",213,"158.csv","","null","resources/images/coin2.png","null","",NA,NA,NA,NA,""
"image-keyboard-response",308,298073,"0.0-3.99-0.99","ap81ay2br6cka12",213,"158.csv","","451","resources/trios/L1T4A1.jpg","39","restless",0.3,0.5,0.9,0.258756916639372,"true"
"image-keyboard-response",309,298488,"0.0-3.99-1.99","ap81ay2br6cka12",213,"158.csv","","null","resources/maskTrios/BBA1.jpg","null","",NA,NA,NA,NA,""
"image-keyboard-response",310,299699,"0.0-3.99-2.99","ap81ay2br6cka12",213,"158.csv","","null","resources/images/coin2.png","null","",NA,NA,NA,NA,""
"image-keyboard-response",311,300208,"0.0-3.100-0.100","ap81ay2br6cka12",213,"158.csv","","507.70000000298023","resources/trios/L4T1A1.jpg","39","restless",0.3,0.5,0.9,0.947019851168253,"false"
"image-keyboard-response",312,300628,"0.0-3.100-1.100","ap81ay2br6cka12",213,"158.csv","","null","resources/maskTrios/BBA1.jpg","null","",NA,NA,NA,NA,""
"image-keyboard-response",313,301839,"0.0-3.100-2.100","ap81ay2br6cka12",213,"158.csv","","null","resources/images/fishbone.png","null","",NA,NA,NA,NA,""
"image-keyboard-response",314,302410,"0.0-3.101-0.101","ap81ay2br6cka12",213,"158.csv","","569.5","resources/trios/L4T1A1.jpg","38","restless",0.3,0.5,0.9,0.312339220295343,"true"
"image-keyboard-response",315,302831,"0.0-3.101-1.101","ap81ay2br6cka12",213,"158.csv","","null","resources/maskTrios/BT1B.jpg","null","",NA,NA,NA,NA,""
"image-keyboard-response",316,304053,"0.0-3.101-2.101","ap81ay2br6cka12",213,"158.csv","","null","resources/images/coin2.png","null","",NA,NA,NA,NA,""
"image-keyboard-response",317,304504,"0.0-3.102-0.102","ap81ay2br6cka12",213,"158.csv","","450.09999999403954","resources/trios/L1T1A2.jpg","38","restless",0.3,0.5,0.9,0.115507970551728,"true"
"image-keyboard-response",318,304917,"0.0-3.102-1.102","ap81ay2br6cka12",213,"158.csv","","null","resources/maskTrios/BT1B.jpg","null","",NA,NA,NA,NA,""
"image-keyboard-response",319,306125,"0.0-3.102-2.102","ap81ay2br6cka12",213,"158.csv","","null","resources/images/coin2.png","null","",NA,NA,NA,NA,""
"image-keyboard-response",320,306487,"0.0-3.103-0.103","ap81ay2br6cka12",213,"158.csv","","361.5","resources/trios/L4T4A2.jpg","38","restless",0.3,0.5,0.9,0.681885975367353,"false"
"image-keyboard-response",321,306906,"0.0-3.103-1.103","ap81ay2br6cka12",213,"158.csv","","null","resources/maskTrios/BT4B.jpg","null","",NA,NA,NA,NA,""
"image-keyboard-response",322,308126,"0.0-3.103-2.103","ap81ay2br6cka12",213,"158.csv","","null","resources/images/fishbone.png","null","",NA,NA,NA,NA,""
"image-keyboard-response",323,308392,"0.0-3.104-0.104","ap81ay2br6cka12",213,"158.csv","","264.5","resources/trios/L1T1A2.jpg","39","restless",0.3,0.5,0.9,0.751764195972213,"true"
"image-keyboard-response",324,308800,"0.0-3.104-1.104","ap81ay2br6cka12",213,"158.csv","","null","resources/maskTrios/BBA2.jpg","null","",NA,NA,NA,NA,""
"image-keyboard-response",325,310010,"0.0-3.104-2.104","ap81ay2br6cka12",213,"158.csv","","null","resources/images/coin2.png","null","",NA,NA,NA,NA,""
"image-keyboard-response",326,310078,"0.0-3.105-0.105","ap81ay2br6cka12",213,"158.csv","","66.40000000596046","resources/trios/L4T1A2.jpg","39","restless",0.3,0.5,0.9,0.227578896850989,"true"
"image-keyboard-response",327,310494,"0.0-3.105-1.105","ap81ay2br6cka12",213,"158.csv","","null","resources/maskTrios/BBA2.jpg","null","",NA,NA,NA,NA,""
"image-keyboard-response",328,311708,"0.0-3.105-2.105","ap81ay2br6cka12",213,"158.csv","","null","resources/images/coin2.png","null","",NA,NA,NA,NA,""
"image-keyboard-response",329,311925,"0.0-3.106-0.106","ap81ay2br6cka12",213,"158.csv","","216.59999999403954","resources/trios/L1T4A2.jpg","39","restless",0.3,0.5,0.9,0.192503812597266,"true"
"image-keyboard-response",330,312333,"0.0-3.106-1.106","ap81ay2br6cka12",213,"158.csv","","null","resources/maskTrios/BBA2.jpg","null","",NA,NA,NA,NA,""
"image-keyboard-response",331,313544,"0.0-3.106-2.106","ap81ay2br6cka12",213,"158.csv","","null","resources/images/coin2.png","null","",NA,NA,NA,NA,""
"image-keyboard-response",332,313774,"0.0-3.107-0.107","ap81ay2br6cka12",213,"158.csv","","228.59999999403954","resources/trios/L1T1A1.jpg","39","restless",0.3,0.5,0.8,0.131390511950637,"true"
"image-keyboard-response",333,314186,"0.0-3.107-1.107","ap81ay2br6cka12",213,"158.csv","","null","resources/maskTrios/BBA1.jpg","null","",NA,NA,NA,NA,""
"image-keyboard-response",334,315407,"0.0-3.107-2.107","ap81ay2br6cka12",213,"158.csv","","null","resources/images/coin2.png","null","",NA,NA,NA,NA,""
"image-keyboard-response",335,315646,"0.0-3.108-0.108","ap81ay2br6cka12",213,"158.csv","","238.19999998807907","resources/trios/L4T1A2.jpg","39","restless",0.3,0.5,0.8,0.252118429196591,"true"
"image-keyboard-response",336,316052,"0.0-3.108-1.108","ap81ay2br6cka12",213,"158.csv","","null","resources/maskTrios/BBA2.jpg","null","",NA,NA,NA,NA,""
"image-keyboard-response",337,317261,"0.0-3.108-2.108","ap81ay2br6cka12",213,"158.csv","","null","resources/images/coin2.png","null","",NA,NA,NA,NA,""
"image-keyboard-response",338,317452,"0.0-3.109-0.109","ap81ay2br6cka12",213,"158.csv","","189.69999998807907","resources/trios/L4T1A2.jpg","39","restless",0.3,0.5,0.8,0.798186933392248,"true"
"image-keyboard-response",339,317856,"0.0-3.109-1.109","ap81ay2br6cka12",213,"158.csv","","null","resources/maskTrios/BBA2.jpg","null","",NA,NA,NA,NA,""
"image-keyboard-response",340,319068,"0.0-3.109-2.109","ap81ay2br6cka12",213,"158.csv","","null","resources/images/coin2.png","null","",NA,NA,NA,NA,""
"image-keyboard-response",341,319211,"0.0-3.110-0.110","ap81ay2br6cka12",213,"158.csv","","141.40000000596046","resources/trios/L4T4A1.jpg","39","restless",0.3,0.5,0.7,0.232239397195706,"true"
"image-keyboard-response",342,319617,"0.0-3.110-1.110","ap81ay2br6cka12",213,"158.csv","","null","resources/maskTrios/BBA1.jpg","null","",NA,NA,NA,NA,""
"image-keyboard-response",343,320825,"0.0-3.110-2.110","ap81ay2br6cka12",213,"158.csv","","null","resources/images/coin2.png","null","",NA,NA,NA,NA,""
"image-keyboard-response",344,320977,"0.0-3.111-0.111","ap81ay2br6cka12",213,"158.csv","","151.09999999403954","resources/trios/L1T4A1.jpg","39","restless",0.3,0.5,0.7,0.890850292820463,"false"
"image-keyboard-response",345,321390,"0.0-3.111-1.111","ap81ay2br6cka12",213,"158.csv","","null","resources/maskTrios/BBA1.jpg","null","",NA,NA,NA,NA,""
"image-keyboard-response",346,322597,"0.0-3.111-2.111","ap81ay2br6cka12",213,"158.csv","","null","resources/images/fishbone.png","null","",NA,NA,NA,NA,""
"image-keyboard-response",347,323481,"0.0-3.112-0.112","ap81ay2br6cka12",213,"158.csv","","882.0999999940395","resources/trios/L4T1A2.jpg","38","restless",0.3,0.5,0.7,0.83703052904832,"false"
"image-keyboard-response",348,323902,"0.0-3.112-1.112","ap81ay2br6cka12",213,"158.csv","","null","resources/maskTrios/BT1B.jpg","null","",NA,NA,NA,NA,""
"image-keyboard-response",349,325111,"0.0-3.112-2.112","ap81ay2br6cka12",213,"158.csv","","null","resources/images/fishbone.png","null","",NA,NA,NA,NA,""
"image-keyboard-response",350,325498,"0.0-3.113-0.113","ap81ay2br6cka12",213,"158.csv","","386.29999999701977","resources/trios/L4T1A2.jpg","38","restless",0.3,0.5,0.7,0.660484640030245,"false"
"image-keyboard-response",351,325907,"0.0-3.113-1.113","ap81ay2br6cka12",213,"158.csv","","null","resources/maskTrios/BT1B.jpg","null","",NA,NA,NA,NA,""
"image-keyboard-response",352,327121,"0.0-3.113-2.113","ap81ay2br6cka12",213,"158.csv","","null","resources/images/fishbone.png","null","",NA,NA,NA,NA,""
"image-keyboard-response",353,327338,"0.0-3.114-0.114","ap81ay2br6cka12",213,"158.csv","","215.70000000298023","resources/trios/L1T1A2.jpg","38","restless",0.3,0.5,0.7,0.939169651435262,"false"
"image-keyboard-response",354,327747,"0.0-3.114-1.114","ap81ay2br6cka12",213,"158.csv","","null","resources/maskTrios/BT1B.jpg","null","",NA,NA,NA,NA,""
"image-keyboard-response",355,328958,"0.0-3.114-2.114","ap81ay2br6cka12",213,"158.csv","","null","resources/images/fishbone.png","null","",NA,NA,NA,NA,""
"image-keyboard-response",356,329704,"0.0-3.115-0.115","ap81ay2br6cka12",213,"158.csv","","744.3000000119209","resources/trios/L1T4A1.jpg","38","restless",0.3,0.4,0.7,0.150472994558797,"true"
"image-keyboard-response",357,330113,"0.0-3.115-1.115","ap81ay2br6cka12",213,"158.csv","","null","resources/maskTrios/BT4B.jpg","null","",NA,NA,NA,NA,""
"image-keyboard-response",358,331335,"0.0-3.115-2.115","ap81ay2br6cka12",213,"158.csv","","null","resources/images/coin2.png","null","",NA,NA,NA,NA,""
"image-keyboard-response",359,331829,"0.0-3.116-0.116","ap81ay2br6cka12",213,"158.csv","","492.40000000596046","resources/trios/L1T4A1.jpg","38","restless",0.3,0.4,0.7,0.204219512115623,"true"
"image-keyboard-response",360,332240,"0.0-3.116-1.116","ap81ay2br6cka12",213,"158.csv","","null","resources/maskTrios/BT4B.jpg","null","",NA,NA,NA,NA,""
"image-keyboard-response",361,333454,"0.0-3.116-2.116","ap81ay2br6cka12",213,"158.csv","","null","resources/images/coin2.png","null","",NA,NA,NA,NA,""
"image-keyboard-response",362,333913,"0.0-3.117-0.117","ap81ay2br6cka12",213,"158.csv","","457.40000000596046","resources/trios/L4T4A2.jpg","38","restless",0.3,0.4,0.7,0.920987400188383,"false"
"image-keyboard-response",363,334332,"0.0-3.117-1.117","ap81ay2br6cka12",213,"158.csv","","null","resources/maskTrios/BT4B.jpg","null","",NA,NA,NA,NA,""
"image-keyboard-response",364,335539,"0.0-3.117-2.117","ap81ay2br6cka12",213,"158.csv","","null","resources/images/fishbone.png","null","",NA,NA,NA,NA,""
"image-keyboard-response",365,335664,"0.0-3.118-0.118","ap81ay2br6cka12",213,"158.csv","","123","resources/trios/L1T1A1.jpg","39","restless",0.3,0.4,0.7,0.382855048242971,"true"
"image-keyboard-response",366,336072,"0.0-3.118-1.118","ap81ay2br6cka12",213,"158.csv","","null","resources/maskTrios/BBA1.jpg","null","",NA,NA,NA,NA,""
"image-keyboard-response",367,337282,"0.0-3.118-2.118","ap81ay2br6cka12",213,"158.csv","","null","resources/images/coin2.png","null","",NA,NA,NA,NA,""
"image-keyboard-response",368,337629,"0.0-3.119-0.119","ap81ay2br6cka12",213,"158.csv","","346","resources/trios/L1T4A1.jpg","39","restless",0.3,0.3,0.7,0.740498661323414,"false"
"image-keyboard-response",369,338037,"0.0-3.119-1.119","ap81ay2br6cka12",213,"158.csv","","null","resources/maskTrios/BBA1.jpg","null","",NA,NA,NA,NA,""
"image-keyboard-response",370,339246,"0.0-3.119-2.119","ap81ay2br6cka12",213,"158.csv","","null","resources/images/fishbone.png","null","",NA,NA,NA,NA,""
"image-keyboard-response",371,339507,"0.0-3.120-0.120","ap81ay2br6cka12",213,"158.csv","","259.59999999403954","resources/trios/L4T4A2.jpg","38","restless",0.3,0.3,0.7,0.505404677722344,"false"
"image-keyboard-response",372,339919,"0.0-3.120-1.120","ap81ay2br6cka12",213,"158.csv","","null","resources/maskTrios/BT4B.jpg","null","",NA,NA,NA,NA,""
"image-keyboard-response",373,341130,"0.0-3.120-2.120","ap81ay2br6cka12",213,"158.csv","","null","resources/images/fishbone.png","null","",NA,NA,NA,NA,""
"image-keyboard-response",374,341473,"0.0-3.121-0.121","ap81ay2br6cka12",213,"158.csv","","342","resources/trios/L4T4A2.jpg","39","restless",0.2,0.3,0.7,0.0769252858041729,"true"
"image-keyboard-response",375,341882,"0.0-3.121-1.121","ap81ay2br6cka12",213,"158.csv","","null","resources/maskTrios/BBA2.jpg","null","",NA,NA,NA,NA,""
"image-keyboard-response",376,343102,"0.0-3.121-2.121","ap81ay2br6cka12",213,"158.csv","","null","resources/images/coin2.png","null","",NA,NA,NA,NA,""
"image-keyboard-response",377,343224,"0.0-3.122-0.122","ap81ay2br6cka12",213,"158.csv","","120.69999998807907","resources/trios/L4T4A1.jpg","39","restless",0.2,0.3,0.7,0.640855207418902,"true"
"image-keyboard-response",378,343632,"0.0-3.122-1.122","ap81ay2br6cka12",213,"158.csv","","null","resources/maskTrios/BBA1.jpg","null","",NA,NA,NA,NA,""
"image-keyboard-response",379,344845,"0.0-3.122-2.122","ap81ay2br6cka12",213,"158.csv","","null","resources/images/coin2.png","null","",NA,NA,NA,NA,""
"image-keyboard-response",380,345115,"0.0-3.123-0.123","ap81ay2br6cka12",213,"158.csv","","269.3999999910593","resources/trios/L1T1A2.jpg","38","restless",0.2,0.3,0.6,0.128327821915496,"true"
"image-keyboard-response",381,345534,"0.0-3.123-1.123","ap81ay2br6cka12",213,"158.csv","","null","resources/maskTrios/BT1B.jpg","null","",NA,NA,NA,NA,""
"image-keyboard-response",382,346746,"0.0-3.123-2.123","ap81ay2br6cka12",213,"158.csv","","null","resources/images/coin2.png","null","",NA,NA,NA,NA,""
"image-keyboard-response",383,347283,"0.0-3.124-0.124","ap81ay2br6cka12",213,"158.csv","","536","resources/trios/L4T1A2.jpg","37","restless",0.2,0.3,0.6,0.961675291722884,"false"
"image-keyboard-response",384,347688,"0.0-3.124-1.124","ap81ay2br6cka12",213,"158.csv","","null","resources/maskTrios/L4BB.jpg","null","",NA,NA,NA,NA,""
"image-keyboard-response",385,348900,"0.0-3.124-2.124","ap81ay2br6cka12",213,"158.csv","","null","resources/images/fishbone.png","null","",NA,NA,NA,NA,""
"image-keyboard-response",386,349008,"0.0-3.125-0.125","ap81ay2br6cka12",213,"158.csv","","106.5","resources/trios/L4T1A1.jpg","37","restless",0.2,0.3,0.6,0.983984583027246,"false"
"image-keyboard-response",387,349415,"0.0-3.125-1.125","ap81ay2br6cka12",213,"158.csv","","null","resources/maskTrios/L4BB.jpg","null","",NA,NA,NA,NA,""
"image-keyboard-response",388,350629,"0.0-3.125-2.125","ap81ay2br6cka12",213,"158.csv","","null","resources/images/fishbone.png","null","",NA,NA,NA,NA,""
"image-keyboard-response",389,350832,"0.0-3.126-0.126","ap81ay2br6cka12",213,"158.csv","","201.70000000298023","resources/trios/L4T1A2.jpg","39","restless",0.2,0.3,0.6,0.818093644801375,"false"
"image-keyboard-response",390,351244,"0.0-3.126-1.126","ap81ay2br6cka12",213,"158.csv","","null","resources/maskTrios/BBA2.jpg","null","",NA,NA,NA,NA,""
"image-keyboard-response",391,352454,"0.0-3.126-2.126","ap81ay2br6cka12",213,"158.csv","","null","resources/images/fishbone.png","null","",NA,NA,NA,NA,""
"image-keyboard-response",392,352471,"0.0-3.127-0.127","ap81ay2br6cka12",213,"158.csv","","16.299999997019768","resources/trios/L1T1A2.jpg","38","restless",0.3,0.3,0.6,0.336389755894956,"false"
"image-keyboard-response",393,352891,"0.0-3.127-1.127","ap81ay2br6cka12",213,"158.csv","","null","resources/maskTrios/BT1B.jpg","null","",NA,NA,NA,NA,""
"image-keyboard-response",394,354097,"0.0-3.127-2.127","ap81ay2br6cka12",213,"158.csv","","null","resources/images/fishbone.png","null","",NA,NA,NA,NA,""
"image-keyboard-response",395,354709,"0.0-3.128-0.128","ap81ay2br6cka12",213,"158.csv","","610.5999999940395","resources/trios/L4T1A2.jpg","37","restless",0.3,0.3,0.6,0.408381578710551,"false"
"image-keyboard-response",396,355116,"0.0-3.128-1.128","ap81ay2br6cka12",213,"158.csv","","null","resources/maskTrios/L4BB.jpg","null","",NA,NA,NA,NA,""
"image-keyboard-response",397,356330,"0.0-3.128-2.128","ap81ay2br6cka12",213,"158.csv","","null","resources/images/fishbone.png","null","",NA,NA,NA,NA,""
"image-keyboard-response",398,356550,"0.0-3.129-0.129","ap81ay2br6cka12",213,"158.csv","","218.3999999910593","resources/trios/L1T1A1.jpg","39","restless",0.3,0.3,0.6,0.0796592294046847,"true"
"image-keyboard-response",399,356956,"0.0-3.129-1.129","ap81ay2br6cka12",213,"158.csv","","null","resources/maskTrios/BBA1.jpg","null","",NA,NA,NA,NA,""
"image-keyboard-response",400,358163,"0.0-3.129-2.129","ap81ay2br6cka12",213,"158.csv","","null","resources/images/coin2.png","null","",NA,NA,NA,NA,""
"image-keyboard-response",401,358378,"0.0-3.130-0.130","ap81ay2br6cka12",213,"158.csv","","213.90000000596046","resources/trios/L1T1A2.jpg","39","restless",0.2,0.3,0.6,0.190514258956007,"true"
"image-keyboard-response",402,358791,"0.0-3.130-1.130","ap81ay2br6cka12",213,"158.csv","","null","resources/maskTrios/BBA2.jpg","null","",NA,NA,NA,NA,""
"image-keyboard-response",403,360013,"0.0-3.130-2.130","ap81ay2br6cka12",213,"158.csv","","null","resources/images/coin2.png","null","",NA,NA,NA,NA,""
"image-keyboard-response",404,360248,"0.0-3.131-0.131","ap81ay2br6cka12",213,"158.csv","","233.59999999403954","resources/trios/L4T1A1.jpg","39","restless",0.2,0.3,0.6,0.729087169934629,"false"
"image-keyboard-response",405,360670,"0.0-3.131-1.131","ap81ay2br6cka12",213,"158.csv","","null","resources/maskTrios/BBA1.jpg","null","",NA,NA,NA,NA,""
"image-keyboard-response",406,361882,"0.0-3.131-2.131","ap81ay2br6cka12",213,"158.csv","","null","resources/images/fishbone.png","null","",NA,NA,NA,NA,""
"image-keyboard-response",407,362117,"0.0-3.132-0.132","ap81ay2br6cka12",213,"158.csv","","234.20000000298023","resources/trios/L1T1A2.jpg","38","restless",0.2,0.3,0.7,0.962420225206811,"false"
"image-keyboard-response",408,362524,"0.0-3.132-1.132","ap81ay2br6cka12",213,"158.csv","","null","resources/maskTrios/BT1B.jpg","null","",NA,NA,NA,NA,""
"image-keyboard-response",409,363728,"0.0-3.132-2.132","ap81ay2br6cka12",213,"158.csv","","null","resources/images/fishbone.png","null","",NA,NA,NA,NA,""
"image-keyboard-response",410,364450,"0.0-3.133-0.133","ap81ay2br6cka12",213,"158.csv","","719.8000000119209","resources/trios/L1T4A1.jpg","39","restless",0.2,0.3,0.7,0.946932103577285,"false"
"image-keyboard-response",411,364858,"0.0-3.133-1.133","ap81ay2br6cka12",213,"158.csv","","null","resources/maskTrios/BBA1.jpg","null","",NA,NA,NA,NA,""
"image-keyboard-response",412,366068,"0.0-3.133-2.133","ap81ay2br6cka12",213,"158.csv","","null","resources/images/fishbone.png","null","",NA,NA,NA,NA,""
"image-keyboard-response",413,367186,"0.0-3.134-0.134","ap81ay2br6cka12",213,"158.csv","","1115.9000000059605","resources/trios/L4T4A1.jpg","39","restless",0.2,0.3,0.7,0.696942440653949,"true"
"image-keyboard-response",414,367605,"0.0-3.134-1.134","ap81ay2br6cka12",213,"158.csv","","null","resources/maskTrios/BBA1.jpg","null","",NA,NA,NA,NA,""
"image-keyboard-response",415,368815,"0.0-3.134-2.134","ap81ay2br6cka12",213,"158.csv","","null","resources/images/coin2.png","null","",NA,NA,NA,NA,""
"image-keyboard-response",416,368953,"0.0-3.135-0.135","ap81ay2br6cka12",213,"158.csv","","136.70000000298023","resources/trios/L4T4A1.jpg","39","restless",0.2,0.3,0.6,0.316954883769281,"true"
"image-keyboard-response",417,369362,"0.0-3.135-1.135","ap81ay2br6cka12",213,"158.csv","","null","resources/maskTrios/BBA1.jpg","null","",NA,NA,NA,NA,""
"image-keyboard-response",418,370572,"0.0-3.135-2.135","ap81ay2br6cka12",213,"158.csv","","null","resources/images/coin2.png","null","",NA,NA,NA,NA,""
"image-keyboard-response",419,370826,"0.0-3.136-0.136","ap81ay2br6cka12",213,"158.csv","","251.70000000298023","resources/trios/L4T4A2.jpg","37","restless",0.2,0.2,0.6,0.21713255954173,"false"
"image-keyboard-response",420,371246,"0.0-3.136-1.136","ap81ay2br6cka12",213,"158.csv","","null","resources/maskTrios/L4BB.jpg","null","",NA,NA,NA,NA,""
"image-keyboard-response",421,372451,"0.0-3.136-2.136","ap81ay2br6cka12",213,"158.csv","","null","resources/images/fishbone.png","null","",NA,NA,NA,NA,""
"image-keyboard-response",422,373200,"0.0-3.137-0.137","ap81ay2br6cka12",213,"158.csv","","748.7999999970198","resources/trios/L1T4A2.jpg","39","restless",0.2,0.2,0.5,0.534335212109461,"false"
"image-keyboard-response",423,373612,"0.0-3.137-1.137","ap81ay2br6cka12",213,"158.csv","","null","resources/maskTrios/BBA2.jpg","null","",NA,NA,NA,NA,""
"image-keyboard-response",424,374822,"0.0-3.137-2.137","ap81ay2br6cka12",213,"158.csv","","null","resources/images/fishbone.png","null","",NA,NA,NA,NA,""
"image-keyboard-response",425,375181,"0.0-3.138-0.138","ap81ay2br6cka12",213,"158.csv","","358","resources/trios/L4T4A1.jpg","39","restless",0.2,0.2,0.5,0.403463764559833,"true"
"image-keyboard-response",426,375591,"0.0-3.138-1.138","ap81ay2br6cka12",213,"158.csv","","null","resources/maskTrios/BBA1.jpg","null","",NA,NA,NA,NA,""
"image-keyboard-response",427,376815,"0.0-3.138-2.138","ap81ay2br6cka12",213,"158.csv","","null","resources/images/coin2.png","null","",NA,NA,NA,NA,""
"image-keyboard-response",428,376993,"0.0-3.139-0.139","ap81ay2br6cka12",213,"158.csv","","177.09999999403954","resources/trios/L4T4A2.jpg","39","restless",0.2,0.2,0.5,0.651700773543017,"false"
"image-keyboard-response",429,377413,"0.0-3.139-1.139","ap81ay2br6cka12",213,"158.csv","","null","resources/maskTrios/BBA2.jpg","null","",NA,NA,NA,NA,""
"image-keyboard-response",430,378621,"0.0-3.139-2.139","ap81ay2br6cka12",213,"158.csv","","null","resources/images/fishbone.png","null","",NA,NA,NA,NA,""
"image-keyboard-response",431,380283,"0.0-3.140-0.140","ap81ay2br6cka12",213,"158.csv","","1661.2999999970198","resources/trios/L1T4A2.jpg","39","restless",0.2,0.2,0.5,0.907447258756809,"false"
"image-keyboard-response",432,380697,"0.0-3.140-1.140","ap81ay2br6cka12",213,"158.csv","","null","resources/maskTrios/BBA2.jpg","null","",NA,NA,NA,NA,""
"image-keyboard-response",433,381916,"0.0-3.140-2.140","ap81ay2br6cka12",213,"158.csv","","null","resources/images/fishbone.png","null","",NA,NA,NA,NA,""
"image-keyboard-response",434,382086,"0.0-3.141-0.141","ap81ay2br6cka12",213,"158.csv","","168.90000000596046","resources/trios/L1T1A2.jpg","37","restless",0.3,0.2,0.5,0.754924347139613,"false"
"image-keyboard-response",435,382496,"0.0-3.141-1.141","ap81ay2br6cka12",213,"158.csv","","null","resources/maskTrios/L1BB.jpg","null","",NA,NA,NA,NA,""
"image-keyboard-response",436,383718,"0.0-3.141-2.141","ap81ay2br6cka12",213,"158.csv","","null","resources/images/fishbone.png","null","",NA,NA,NA,NA,""
"image-keyboard-response",437,383860,"0.0-3.142-0.142","ap81ay2br6cka12",213,"158.csv","","140.79999999701977","resources/trios/L1T4A1.jpg","38","restless",0.4,0.2,0.5,0.274606785884521,"false"
"image-keyboard-response",438,384264,"0.0-3.142-1.142","ap81ay2br6cka12",213,"158.csv","","null","resources/maskTrios/BT4B.jpg","null","",NA,NA,NA,NA,""
"image-keyboard-response",439,385485,"0.0-3.142-2.142","ap81ay2br6cka12",213,"158.csv","","null","resources/images/fishbone.png","null","",NA,NA,NA,NA,""
"image-keyboard-response",440,386678,"0.0-3.143-0.143","ap81ay2br6cka12",213,"158.csv","","1192","resources/trios/L1T1A1.jpg","39","restless",0.4,0.2,0.5,0.828031412277381,"false"
"image-keyboard-response",441,387085,"0.0-3.143-1.143","ap81ay2br6cka12",213,"158.csv","","null","resources/maskTrios/BBA1.jpg","null","",NA,NA,NA,NA,""
"image-keyboard-response",442,388293,"0.0-3.143-2.143","ap81ay2br6cka12",213,"158.csv","","null","resources/images/fishbone.png","null","",NA,NA,NA,NA,""
"image-keyboard-response",443,388379,"0.0-3.144-0.144","ap81ay2br6cka12",213,"158.csv","","84.19999998807907","resources/trios/L4T1A2.jpg","37","restless",0.4,0.3,0.5,0.114586248456212,"true"
"image-keyboard-response",444,388795,"0.0-3.144-1.144","ap81ay2br6cka12",213,"158.csv","","null","resources/maskTrios/L4BB.jpg","null","",NA,NA,NA,NA,""
"image-keyboard-response",445,390005,"0.0-3.144-2.144","ap81ay2br6cka12",213,"158.csv","","null","resources/images/coin2.png","null","",NA,NA,NA,NA,""
"image-keyboard-response",446,390259,"0.0-3.145-0.145","ap81ay2br6cka12",213,"158.csv","","253.09999999403954","resources/trios/L1T4A1.jpg","37","restless",0.4,0.4,0.5,0.684990825135141,"false"
"image-keyboard-response",447,390662,"0.0-3.145-1.145","ap81ay2br6cka12",213,"158.csv","","null","resources/maskTrios/L1BB.jpg","null","",NA,NA,NA,NA,""
"image-keyboard-response",448,391870,"0.0-3.145-2.145","ap81ay2br6cka12",213,"158.csv","","null","resources/images/fishbone.png","null","",NA,NA,NA,NA,""
"image-keyboard-response",449,392125,"0.0-3.146-0.146","ap81ay2br6cka12",213,"158.csv","","253.8999999910593","resources/trios/L4T1A2.jpg","38","restless",0.4,0.4,0.5,0.836729731540499,"false"
"image-keyboard-response",450,392543,"0.0-3.146-1.146","ap81ay2br6cka12",213,"158.csv","","null","resources/maskTrios/BT1B.jpg","null","",NA,NA,NA,NA,""
"image-keyboard-response",451,393763,"0.0-3.146-2.146","ap81ay2br6cka12",213,"158.csv","","null","resources/images/fishbone.png","null","",NA,NA,NA,NA,""
"image-keyboard-response",452,394301,"0.0-3.147-0.147","ap81ay2br6cka12",213,"158.csv","","536.7999999970198","resources/trios/L1T1A1.jpg","37","restless",0.4,0.4,0.5,0.969664367722855,"false"
"image-keyboard-response",453,394716,"0.0-3.147-1.147","ap81ay2br6cka12",213,"158.csv","","null","resources/maskTrios/L1BB.jpg","null","",NA,NA,NA,NA,""
"image-keyboard-response",454,395922,"0.0-3.147-2.147","ap81ay2br6cka12",213,"158.csv","","null","resources/images/fishbone.png","null","",NA,NA,NA,NA,""
"image-keyboard-response",455,396589,"0.0-3.148-0.148","ap81ay2br6cka12",213,"158.csv","","666.5999999940395","resources/trios/L1T1A2.jpg","39","restless",0.4,0.4,0.5,0.840781150623559,"false"
"image-keyboard-response",456,397000,"0.0-3.148-1.148","ap81ay2br6cka12",213,"158.csv","","null","resources/maskTrios/BBA2.jpg","null","",NA,NA,NA,NA,""
"image-keyboard-response",457,398222,"0.0-3.148-2.148","ap81ay2br6cka12",213,"158.csv","","null","resources/images/fishbone.png","null","",NA,NA,NA,NA,""
"image-keyboard-response",458,399894,"0.0-3.149-0.149","ap81ay2br6cka12",213,"158.csv","","1671.4000000059605","resources/trios/L4T4A1.jpg","38","restless",0.4,0.5,0.5,0.670919278207985,"false"
"image-keyboard-response",459,400310,"0.0-3.149-1.149","ap81ay2br6cka12",213,"158.csv","","null","resources/maskTrios/BT4B.jpg","null","",NA,NA,NA,NA,""
"image-keyboard-response",460,401522,"0.0-3.149-2.149","ap81ay2br6cka12",213,"158.csv","","null","resources/images/fishbone.png","null","",NA,NA,NA,NA,""
"image-keyboard-response",461,402127,"0.0-3.150-0.150","ap81ay2br6cka12",213,"158.csv","","604.2999999970198","resources/trios/L4T1A1.jpg","37","restless",0.4,0.5,0.5,0.350744138446348,"true"
"image-keyboard-response",462,402537,"0.0-3.150-1.150","ap81ay2br6cka12",213,"158.csv","","null","resources/maskTrios/L4BB.jpg","null","",NA,NA,NA,NA,""
"image-keyboard-response",463,403759,"0.0-3.150-2.150","ap81ay2br6cka12",213,"158.csv","","null","resources/images/coin2.png","null","",NA,NA,NA,NA,""
"image-keyboard-response",464,405596,"0.0-3.151-0.151","ap81ay2br6cka12",213,"158.csv","","1836.5999999940395","resources/trios/L1T1A1.jpg","37","restless",0.4,0.5,0.5,0.356799779296944,"true"
"image-keyboard-response",465,406005,"0.0-3.151-1.151","ap81ay2br6cka12",213,"158.csv","","null","resources/maskTrios/L1BB.jpg","null","",NA,NA,NA,NA,""
"image-keyboard-response",466,407217,"0.0-3.151-2.151","ap81ay2br6cka12",213,"158.csv","","null","resources/images/coin2.png","null","",NA,NA,NA,NA,""
"image-keyboard-response",467,407773,"0.0-3.152-0.152","ap81ay2br6cka12",213,"158.csv","","554.7000000029802","resources/trios/L4T4A1.jpg","38","restless",0.4,0.5,0.6,0.287614664169016,"true"
"image-keyboard-response",468,408177,"0.0-3.152-1.152","ap81ay2br6cka12",213,"158.csv","","null","resources/maskTrios/BT4B.jpg","null","",NA,NA,NA,NA,""
"image-keyboard-response",469,409387,"0.0-3.152-2.152","ap81ay2br6cka12",213,"158.csv","","null","resources/images/coin2.png","null","",NA,NA,NA,NA,""
"image-keyboard-response",470,410858,"0.0-3.153-0.153","ap81ay2br6cka12",213,"158.csv","","1469.2999999970198","resources/trios/L4T1A1.jpg","38","restless",0.4,0.5,0.6,0.453607176695866,"true"
"image-keyboard-response",471,411276,"0.0-3.153-1.153","ap81ay2br6cka12",213,"158.csv","","null","resources/maskTrios/BT1B.jpg","null","",NA,NA,NA,NA,""
"image-keyboard-response",472,412487,"0.0-3.153-2.153","ap81ay2br6cka12",213,"158.csv","","null","resources/images/coin2.png","null","",NA,NA,NA,NA,""
"image-keyboard-response",473,412751,"0.0-3.154-0.154","ap81ay2br6cka12",213,"158.csv","","263","resources/trios/L1T4A1.jpg","37","restless",0.4,0.5,0.6,0.366755974950349,"true"
"image-keyboard-response",474,413163,"0.0-3.154-1.154","ap81ay2br6cka12",213,"158.csv","","null","resources/maskTrios/L1BB.jpg","null","",NA,NA,NA,NA,""
"image-keyboard-response",475,414376,"0.0-3.154-2.154","ap81ay2br6cka12",213,"158.csv","","null","resources/images/coin2.png","null","",NA,NA,NA,NA,""
"image-keyboard-response",476,414596,"0.0-3.155-0.155","ap81ay2br6cka12",213,"158.csv","","218.79999999701977","resources/trios/L1T1A1.jpg","37","restless",0.4,0.5,0.6,0.463339963904347,"false"
"image-keyboard-response",477,415007,"0.0-3.155-1.155","ap81ay2br6cka12",213,"158.csv","","null","resources/maskTrios/L1BB.jpg","null","",NA,NA,NA,NA,""
"image-keyboard-response",478,416219,"0.0-3.155-2.155","ap81ay2br6cka12",213,"158.csv","","null","resources/images/fishbone.png","null","",NA,NA,NA,NA,""
"image-keyboard-response",479,416691,"0.0-3.156-0.156","ap81ay2br6cka12",213,"158.csv","","471.09999999403954","resources/trios/L1T4A1.jpg","38","restless",0.4,0.5,0.6,0.363624943810308,"true"
"image-keyboard-response",480,417110,"0.0-3.156-1.156","ap81ay2br6cka12",213,"158.csv","","null","resources/maskTrios/BT4B.jpg","null","",NA,NA,NA,NA,""
"image-keyboard-response",481,418321,"0.0-3.156-2.156","ap81ay2br6cka12",213,"158.csv","","null","resources/images/coin2.png","null","",NA,NA,NA,NA,""
"image-keyboard-response",482,418828,"0.0-3.157-0.157","ap81ay2br6cka12",213,"158.csv","","505.40000000596046","resources/trios/L1T1A1.jpg","38","restless",0.4,0.5,0.6,0.980178577366625,"false"
"image-keyboard-response",483,419233,"0.0-3.157-1.157","ap81ay2br6cka12",213,"158.csv","","null","resources/maskTrios/BT1B.jpg","null","",NA,NA,NA,NA,""
"image-keyboard-response",484,420442,"0.0-3.157-2.157","ap81ay2br6cka12",213,"158.csv","","null","resources/images/fishbone.png","null","",NA,NA,NA,NA,""
"image-keyboard-response",485,420863,"0.0-3.158-0.158","ap81ay2br6cka12",213,"158.csv","","420.09999999403954","resources/trios/L4T4A2.jpg","37","restless",0.4,0.5,0.6,0.212054403125362,"true"
"image-keyboard-response",486,421274,"0.0-3.158-1.158","ap81ay2br6cka12",213,"158.csv","","null","resources/maskTrios/L4BB.jpg","null","",NA,NA,NA,NA,""
"image-keyboard-response",487,422488,"0.0-3.158-2.158","ap81ay2br6cka12",213,"158.csv","","null","resources/images/coin2.png","null","",NA,NA,NA,NA,""
"image-keyboard-response",488,423110,"0.0-3.159-0.159","ap81ay2br6cka12",213,"158.csv","","621.4000000059605","resources/trios/L4T1A2.jpg","37","restless",0.4,0.6,0.6,0.0617471856837255,"true"
"image-keyboard-response",489,423523,"0.0-3.159-1.159","ap81ay2br6cka12",213,"158.csv","","null","resources/maskTrios/L4BB.jpg","null","",NA,NA,NA,NA,""
"image-keyboard-response",490,424733,"0.0-3.159-2.159","ap81ay2br6cka12",213,"158.csv","","null","resources/images/coin2.png","null","",NA,NA,NA,NA,""
"image-keyboard-response",491,425189,"0.0-3.160-0.160","ap81ay2br6cka12",213,"158.csv","","455.5","resources/trios/L4T1A2.jpg","38","restless",0.4,0.6,0.6,0.767341385240154,"false"
"image-keyboard-response",492,425592,"0.0-3.160-1.160","ap81ay2br6cka12",213,"158.csv","","null","resources/maskTrios/BT1B.jpg","null","",NA,NA,NA,NA,""
"image-keyboard-response",493,426805,"0.0-3.160-2.160","ap81ay2br6cka12",213,"158.csv","","null","resources/images/fishbone.png","null","",NA,NA,NA,NA,""
"image-keyboard-response",494,429298,"0.0-3.161-0.161","ap81ay2br6cka12",213,"158.csv","","2491.699999988079","resources/trios/L4T4A1.jpg","37","restless",0.4,0.6,0.6,0.223615680923688,"true"
"image-keyboard-response",495,429717,"0.0-3.161-1.161","ap81ay2br6cka12",213,"158.csv","","null","resources/maskTrios/L4BB.jpg","null","",NA,NA,NA,NA,""
"image-keyboard-response",496,430924,"0.0-3.161-2.161","ap81ay2br6cka12",213,"158.csv","","null","resources/images/coin2.png","null","",NA,NA,NA,NA,""
"image-keyboard-response",497,431816,"0.0-3.162-0.162","ap81ay2br6cka12",213,"158.csv","","889.8999999910593","resources/trios/L1T1A1.jpg","37","restless",0.4,0.6,0.6,0.85419112999299,"false"
"image-keyboard-response",498,432230,"0.0-3.162-1.162","ap81ay2br6cka12",213,"158.csv","","null","resources/maskTrios/L1BB.jpg","null","",NA,NA,NA,NA,""
"image-keyboard-response",499,433434,"0.0-3.162-2.162","ap81ay2br6cka12",213,"158.csv","","null","resources/images/fishbone.png","null","",NA,NA,NA,NA,""
"image-keyboard-response",500,433713,"0.0-3.163-0.163","ap81ay2br6cka12",213,"158.csv","","277.8999999910593","resources/trios/L1T1A2.jpg","38","restless",0.4,0.6,0.6,0.946916996752323,"false"
"image-keyboard-response",501,434125,"0.0-3.163-1.163","ap81ay2br6cka12",213,"158.csv","","null","resources/maskTrios/BT1B.jpg","null","",NA,NA,NA,NA,""
"image-keyboard-response",502,435331,"0.0-3.163-2.163","ap81ay2br6cka12",213,"158.csv","","null","resources/images/fishbone.png","null","",NA,NA,NA,NA,""
"image-keyboard-response",503,441716,"0.0-3.164-0.164","ap81ay2br6cka12",213,"158.csv","","6383.5","resources/trios/L1T4A2.jpg","37","restless",0.4,0.6,0.6,0.568099906912959,"false"
"image-keyboard-response",504,442129,"0.0-3.164-1.164","ap81ay2br6cka12",213,"158.csv","","null","resources/maskTrios/L1BB.jpg","null","",NA,NA,NA,NA,""
"image-keyboard-response",505,443339,"0.0-3.164-2.164","ap81ay2br6cka12",213,"158.csv","","null","resources/images/fishbone.png","null","",NA,NA,NA,NA,""
"image-keyboard-response",506,443650,"0.0-3.165-0.165","ap81ay2br6cka12",213,"158.csv","","309.29999999701977","resources/trios/L1T1A2.jpg","38","restless",0.4,0.6,0.6,0.238166442278178,"true"
"image-keyboard-response",507,444058,"0.0-3.165-1.165","ap81ay2br6cka12",213,"158.csv","","null","resources/maskTrios/BT1B.jpg","null","",NA,NA,NA,NA,""
"image-keyboard-response",508,445268,"0.0-3.165-2.165","ap81ay2br6cka12",213,"158.csv","","null","resources/images/coin2.png","null","",NA,NA,NA,NA,""
"image-keyboard-response",509,445607,"0.0-3.166-0.166","ap81ay2br6cka12",213,"158.csv","","337.70000000298023","resources/trios/L1T4A1.jpg","38","restless",0.4,0.6,0.6,0.740916692892794,"false"
"image-keyboard-response",510,446023,"0.0-3.166-1.166","ap81ay2br6cka12",213,"158.csv","","null","resources/maskTrios/BT4B.jpg","null","",NA,NA,NA,NA,""
"image-keyboard-response",511,447234,"0.0-3.166-2.166","ap81ay2br6cka12",213,"158.csv","","null","resources/images/fishbone.png","null","",NA,NA,NA,NA,""
"image-keyboard-response",512,447482,"0.0-3.167-0.167","ap81ay2br6cka12",213,"158.csv","","246.79999999701977","resources/trios/L1T1A2.jpg","39","restless",0.4,0.6,0.6,0.0679758760013738,"true"
"image-keyboard-response",513,447896,"0.0-3.167-1.167","ap81ay2br6cka12",213,"158.csv","","null","resources/maskTrios/BBA2.jpg","null","",NA,NA,NA,NA,""
"image-keyboard-response",514,449118,"0.0-3.167-2.167","ap81ay2br6cka12",213,"158.csv","","null","resources/images/coin2.png","null","",NA,NA,NA,NA,""
"image-keyboard-response",515,449272,"0.0-3.168-0.168","ap81ay2br6cka12",213,"158.csv","","152.59999999403954","resources/trios/L4T1A1.jpg","39","restless",0.4,0.5,0.6,0.31307466871462,"true"
"image-keyboard-response",516,449681,"0.0-3.168-1.168","ap81ay2br6cka12",213,"158.csv","","null","resources/maskTrios/BBA1.jpg","null","",NA,NA,NA,NA,""
"image-keyboard-response",517,450890,"0.0-3.168-2.168","ap81ay2br6cka12",213,"158.csv","","null","resources/images/coin2.png","null","",NA,NA,NA,NA,""
"image-keyboard-response",518,451384,"0.0-3.169-0.169","ap81ay2br6cka12",213,"158.csv","","493","resources/trios/L1T4A2.jpg","39","restless",0.4,0.5,0.6,0.0207827512153007,"true"
"image-keyboard-response",519,451798,"0.0-3.169-1.169","ap81ay2br6cka12",213,"158.csv","","null","resources/maskTrios/BBA2.jpg","null","",NA,NA,NA,NA,""
"image-keyboard-response",520,453006,"0.0-3.169-2.169","ap81ay2br6cka12",213,"158.csv","","null","resources/images/coin2.png","null","",NA,NA,NA,NA,""
"image-keyboard-response",521,453619,"0.0-3.170-0.170","ap81ay2br6cka12",213,"158.csv","","611.5","resources/trios/L1T1A1.jpg","38","restless",0.5,0.5,0.6,0.104429653160918,"true"
"image-keyboard-response",522,454028,"0.0-3.170-1.170","ap81ay2br6cka12",213,"158.csv","","null","resources/maskTrios/BT1B.jpg","null","",NA,NA,NA,NA,""
"image-keyboard-response",523,455238,"0.0-3.170-2.170","ap81ay2br6cka12",213,"158.csv","","null","resources/images/coin2.png","null","",NA,NA,NA,NA,""
"image-keyboard-response",524,455712,"0.0-3.171-0.171","ap81ay2br6cka12",213,"158.csv","","473.5","resources/trios/L1T1A2.jpg","38","restless",0.5,0.5,0.6,0.510868527184602,"false"
"image-keyboard-response",525,456129,"0.0-3.171-1.171","ap81ay2br6cka12",213,"158.csv","","null","resources/maskTrios/BT1B.jpg","null","",NA,NA,NA,NA,""
"image-keyboard-response",526,457341,"0.0-3.171-2.171","ap81ay2br6cka12",213,"158.csv","","null","resources/images/fishbone.png","null","",NA,NA,NA,NA,""
"image-keyboard-response",527,457668,"0.0-3.172-0.172","ap81ay2br6cka12",213,"158.csv","","325.5","resources/trios/L4T1A2.jpg","39","restless",0.5,0.5,0.6,0.412372376646038,"true"
"image-keyboard-response",528,458075,"0.0-3.172-1.172","ap81ay2br6cka12",213,"158.csv","","null","resources/maskTrios/BBA2.jpg","null","",NA,NA,NA,NA,""
"image-keyboard-response",529,459282,"0.0-3.172-2.172","ap81ay2br6cka12",213,"158.csv","","null","resources/images/coin2.png","null","",NA,NA,NA,NA,""
"image-keyboard-response",530,459476,"0.0-3.173-0.173","ap81ay2br6cka12",213,"158.csv","","192.79999999701977","resources/trios/L1T4A1.jpg","39","restless",0.5,0.5,0.6,0.377318171659599,"true"
"image-keyboard-response",531,459893,"0.0-3.173-1.173","ap81ay2br6cka12",213,"158.csv","","null","resources/maskTrios/BBA1.jpg","null","",NA,NA,NA,NA,""
"image-keyboard-response",532,461101,"0.0-3.173-2.173","ap81ay2br6cka12",213,"158.csv","","null","resources/images/coin2.png","null","",NA,NA,NA,NA,""
"image-keyboard-response",533,461315,"0.0-3.174-0.174","ap81ay2br6cka12",213,"158.csv","","212.70000000298023","resources/trios/L4T4A1.jpg","39","restless",0.5,0.5,0.6,0.497811762732918,"true"
"image-keyboard-response",534,461726,"0.0-3.174-1.174","ap81ay2br6cka12",213,"158.csv","","null","resources/maskTrios/BBA1.jpg","null","",NA,NA,NA,NA,""
"image-keyboard-response",535,462933,"0.0-3.174-2.174","ap81ay2br6cka12",213,"158.csv","","null","resources/images/coin2.png","null","",NA,NA,NA,NA,""
"image-keyboard-response",536,463039,"0.0-3.175-0.175","ap81ay2br6cka12",213,"158.csv","","105","resources/trios/L1T1A2.jpg","38","restless",0.5,0.5,0.5,0.451264772483277,"true"
"image-keyboard-response",537,463448,"0.0-3.175-1.175","ap81ay2br6cka12",213,"158.csv","","null","resources/maskTrios/BT1B.jpg","null","",NA,NA,NA,NA,""
"image-keyboard-response",538,464658,"0.0-3.175-2.175","ap81ay2br6cka12",213,"158.csv","","null","resources/images/coin2.png","null","",NA,NA,NA,NA,""
"image-keyboard-response",539,464846,"0.0-3.176-0.176","ap81ay2br6cka12",213,"158.csv","","186.79999999701977","resources/trios/L4T4A2.jpg","37","restless",0.5,0.5,0.5,0.860072163977758,"false"
"image-keyboard-response",540,465266,"0.0-3.176-1.176","ap81ay2br6cka12",213,"158.csv","","null","resources/maskTrios/L4BB.jpg","null","",NA,NA,NA,NA,""
"image-keyboard-response",541,466487,"0.0-3.176-2.176","ap81ay2br6cka12",213,"158.csv","","null","resources/images/fishbone.png","null","",NA,NA,NA,NA,""
"image-keyboard-response",542,466768,"0.0-3.177-0.177","ap81ay2br6cka12",213,"158.csv","","279.70000000298023","resources/trios/L1T4A2.jpg","39","restless",0.5,0.5,0.5,0.985597635812068,"false"
"image-keyboard-response",543,467177,"0.0-3.177-1.177","ap81ay2br6cka12",213,"158.csv","","null","resources/maskTrios/BBA2.jpg","null","",NA,NA,NA,NA,""
"image-keyboard-response",544,468387,"0.0-3.177-2.177","ap81ay2br6cka12",213,"158.csv","","null","resources/images/fishbone.png","null","",NA,NA,NA,NA,""
"image-keyboard-response",545,468785,"0.0-3.178-0.178","ap81ay2br6cka12",213,"158.csv","","396.8999999910593","resources/trios/L4T4A1.jpg","38","restless",0.5,0.5,0.5,0.483191278117367,"true"
"image-keyboard-response",546,469201,"0.0-3.178-1.178","ap81ay2br6cka12",213,"158.csv","","null","resources/maskTrios/BT4B.jpg","null","",NA,NA,NA,NA,""
"image-keyboard-response",547,470415,"0.0-3.178-2.178","ap81ay2br6cka12",213,"158.csv","","null","resources/images/coin2.png","null","",NA,NA,NA,NA,""
"image-keyboard-response",548,470698,"0.0-3.179-0.179","ap81ay2br6cka12",213,"158.csv","","282","resources/trios/L1T4A2.jpg","38","restless",0.5,0.5,0.5,0.437732707546901,"true"
"image-keyboard-response",549,471105,"0.0-3.179-1.179","ap81ay2br6cka12",213,"158.csv","","null","resources/maskTrios/BT4B.jpg","null","",NA,NA,NA,NA,""
"image-keyboard-response",550,472317,"0.0-3.179-2.179","ap81ay2br6cka12",213,"158.csv","","null","resources/images/coin2.png","null","",NA,NA,NA,NA,""
"image-keyboard-response",551,472901,"0.0-3.180-0.180","ap81ay2br6cka12",213,"158.csv","","582.7999999970198","resources/trios/L1T1A1.jpg","39","restless",0.5,0.5,0.5,0.398362026454648,"true"
"image-keyboard-response",552,473304,"0.0-3.180-1.180","ap81ay2br6cka12",213,"158.csv","","null","resources/maskTrios/BBA1.jpg","null","",NA,NA,NA,NA,""
"image-keyboard-response",553,474513,"0.0-3.180-2.180","ap81ay2br6cka12",213,"158.csv","","null","resources/images/coin2.png","null","",NA,NA,NA,NA,""
"image-keyboard-response",554,474788,"0.0-3.181-0.181","ap81ay2br6cka12",213,"158.csv","","273.90000000596046","resources/trios/L1T1A2.jpg","39","restless",0.5,0.5,0.5,0.782720077032136,"false"
"image-keyboard-response",555,475202,"0.0-3.181-1.181","ap81ay2br6cka12",213,"158.csv","","null","resources/maskTrios/BBA2.jpg","null","",NA,NA,NA,NA,""
"image-keyboard-response",556,476408,"0.0-3.181-2.181","ap81ay2br6cka12",213,"158.csv","","null","resources/images/fishbone.png","null","",NA,NA,NA,NA,""
"image-keyboard-response",557,476713,"0.0-3.182-0.182","ap81ay2br6cka12",213,"158.csv","","304.5","resources/trios/L4T4A1.jpg","37","restless",0.5,0.6,0.5,0.742122504781243,"false"
"image-keyboard-response",558,477130,"0.0-3.182-1.182","ap81ay2br6cka12",213,"158.csv","","null","resources/maskTrios/L4BB.jpg","null","",NA,NA,NA,NA,""
"image-keyboard-response",559,478336,"0.0-3.182-2.182","ap81ay2br6cka12",213,"158.csv","","null","resources/images/fishbone.png","null","",NA,NA,NA,NA,""
"image-keyboard-response",560,478600,"0.0-3.183-0.183","ap81ay2br6cka12",213,"158.csv","","263.1000000089407","resources/trios/L1T4A2.jpg","39","restless",0.5,0.6,0.5,0.265474076712442,"true"
"image-keyboard-response",561,479022,"0.0-3.183-1.183","ap81ay2br6cka12",213,"158.csv","","null","resources/maskTrios/BBA2.jpg","null","",NA,NA,NA,NA,""
"image-keyboard-response",562,480235,"0.0-3.183-2.183","ap81ay2br6cka12",213,"158.csv","","null","resources/images/coin2.png","null","",NA,NA,NA,NA,""
"image-keyboard-response",563,480478,"0.0-3.184-0.184","ap81ay2br6cka12",213,"158.csv","","241.3999999910593","resources/trios/L1T4A1.jpg","39","restless",0.5,0.6,0.5,0.127412474716671,"true"
"image-keyboard-response",564,480893,"0.0-3.184-1.184","ap81ay2br6cka12",213,"158.csv","","null","resources/maskTrios/BBA1.jpg","null","",NA,NA,NA,NA,""
"image-keyboard-response",565,482105,"0.0-3.184-2.184","ap81ay2br6cka12",213,"158.csv","","null","resources/images/coin2.png","null","",NA,NA,NA,NA,""
"image-keyboard-response",566,482339,"0.0-3.185-0.185","ap81ay2br6cka12",213,"158.csv","","232.6000000089407","resources/trios/L4T4A1.jpg","39","restless",0.5,0.5,0.5,0.89018314912895,"false"
"image-keyboard-response",567,482746,"0.0-3.185-1.185","ap81ay2br6cka12",213,"158.csv","","null","resources/maskTrios/BBA1.jpg","null","",NA,NA,NA,NA,""
"image-keyboard-response",568,483954,"0.0-3.185-2.185","ap81ay2br6cka12",213,"158.csv","","null","resources/images/fishbone.png","null","",NA,NA,NA,NA,""
"image-keyboard-response",569,484168,"0.0-3.186-0.186","ap81ay2br6cka12",213,"158.csv","","212.6000000089407","resources/trios/L1T1A1.jpg","39","restless",0.5,0.5,0.5,0.795163670878278,"false"
"image-keyboard-response",570,484580,"0.0-3.186-1.186","ap81ay2br6cka12",213,"158.csv","","null","resources/maskTrios/BBA1.jpg","null","",NA,NA,NA,NA,""
"image-keyboard-response",571,485792,"0.0-3.186-2.186","ap81ay2br6cka12",213,"158.csv","","null","resources/images/fishbone.png","null","",NA,NA,NA,NA,""
"image-keyboard-response",572,486382,"0.0-3.187-0.187","ap81ay2br6cka12",213,"158.csv","","588.8999999910593","resources/trios/L4T1A2.jpg","38","restless",0.4,0.5,0.4,0.166763449368013,"true"
"image-keyboard-response",573,486794,"0.0-3.187-1.187","ap81ay2br6cka12",213,"158.csv","","null","resources/maskTrios/BT1B.jpg","null","",NA,NA,NA,NA,""
"image-keyboard-response",574,488001,"0.0-3.187-2.187","ap81ay2br6cka12",213,"158.csv","","null","resources/images/coin2.png","null","",NA,NA,NA,NA,""
"image-keyboard-response",575,488384,"0.0-3.188-0.188","ap81ay2br6cka12",213,"158.csv","","381.90000000596046","resources/trios/L4T4A2.jpg","38","restless",0.4,0.5,0.4,0.767225204630044,"false"
"image-keyboard-response",576,488796,"0.0-3.188-1.188","ap81ay2br6cka12",213,"158.csv","","null","resources/maskTrios/BT4B.jpg","null","",NA,NA,NA,NA,""
"image-keyboard-response",577,490015,"0.0-3.188-2.188","ap81ay2br6cka12",213,"158.csv","","null","resources/images/fishbone.png","null","",NA,NA,NA,NA,""
"image-keyboard-response",578,491199,"0.0-3.189-0.189","ap81ay2br6cka12",213,"158.csv","","1183","resources/trios/L4T1A1.jpg","39","restless",0.4,0.5,0.4,0.569097364382273,"false"
"image-keyboard-response",579,491613,"0.0-3.189-1.189","ap81ay2br6cka12",213,"158.csv","","null","resources/maskTrios/BBA1.jpg","null","",NA,NA,NA,NA,""
"image-keyboard-response",580,492832,"0.0-3.189-2.189","ap81ay2br6cka12",213,"158.csv","","null","resources/images/fishbone.png","null","",NA,NA,NA,NA,""
"image-keyboard-response",581,493279,"0.0-3.190-0.190","ap81ay2br6cka12",213,"158.csv","","445.80000001192093","resources/trios/L1T1A1.jpg","39","restless",0.4,0.5,0.4,0.877486831951404,"false"
"image-keyboard-response",582,493690,"0.0-3.190-1.190","ap81ay2br6cka12",213,"158.csv","","null","resources/maskTrios/BBA1.jpg","null","",NA,NA,NA,NA,""
"image-keyboard-response",583,494911,"0.0-3.190-2.190","ap81ay2br6cka12",213,"158.csv","","null","resources/images/fishbone.png","null","",NA,NA,NA,NA,""
"image-keyboard-response",584,495645,"0.0-3.191-0.191","ap81ay2br6cka12",213,"158.csv","","732.5999999940395","resources/trios/L4T4A1.jpg","37","restless",0.4,0.5,0.4,0.618449544724306,"false"
"image-keyboard-response",585,496054,"0.0-3.191-1.191","ap81ay2br6cka12",213,"158.csv","","null","resources/maskTrios/L4BB.jpg","null","",NA,NA,NA,NA,""
"image-keyboard-response",586,497267,"0.0-3.191-2.191","ap81ay2br6cka12",213,"158.csv","","null","resources/images/fishbone.png","null","",NA,NA,NA,NA,""
"image-keyboard-response",587,497526,"0.0-3.192-0.192","ap81ay2br6cka12",213,"158.csv","","257.79999999701977","resources/trios/L1T4A2.jpg","37","restless",0.4,0.5,0.4,0.724176197489172,"false"
"image-keyboard-response",588,497929,"0.0-3.192-1.192","ap81ay2br6cka12",213,"158.csv","","null","resources/maskTrios/L1BB.jpg","null","",NA,NA,NA,NA,""
"image-keyboard-response",589,499150,"0.0-3.192-2.192","ap81ay2br6cka12",213,"158.csv","","null","resources/images/fishbone.png","null","",NA,NA,NA,NA,""
"image-keyboard-response",590,500040,"0.0-3.193-0.193","ap81ay2br6cka12",213,"158.csv","","888.1000000089407","resources/trios/L4T4A2.jpg","38","restless",0.4,0.5,0.4,0.472897093198934,"true"
"image-keyboard-response",591,500457,"0.0-3.193-1.193","ap81ay2br6cka12",213,"158.csv","","null","resources/maskTrios/BT4B.jpg","null","",NA,NA,NA,NA,""
"image-keyboard-response",592,501667,"0.0-3.193-2.193","ap81ay2br6cka12",213,"158.csv","","null","resources/images/coin2.png","null","",NA,NA,NA,NA,""
"image-keyboard-response",593,501807,"0.0-3.194-0.194","ap81ay2br6cka12",213,"158.csv","","139.40000000596046","resources/trios/L4T1A2.jpg","38","restless",0.4,0.5,0.4,0.962033432845712,"false"
"image-keyboard-response",594,502230,"0.0-3.194-1.194","ap81ay2br6cka12",213,"158.csv","","null","resources/maskTrios/BT1B.jpg","null","",NA,NA,NA,NA,""
"image-keyboard-response",595,503438,"0.0-3.194-2.194","ap81ay2br6cka12",213,"158.csv","","null","resources/images/fishbone.png","null","",NA,NA,NA,NA,""
"image-keyboard-response",596,503858,"0.0-3.195-0.195","ap81ay2br6cka12",213,"158.csv","","419.40000000596046","resources/trios/L4T4A2.jpg","39","restless",0.4,0.5,0.4,0.0596168508293191,"true"
"image-keyboard-response",597,504269,"0.0-3.195-1.195","ap81ay2br6cka12",213,"158.csv","","null","resources/maskTrios/BBA2.jpg","null","",NA,NA,NA,NA,""
"image-keyboard-response",598,505478,"0.0-3.195-2.195","ap81ay2br6cka12",213,"158.csv","","null","resources/images/coin2.png","null","",NA,NA,NA,NA,""
"image-keyboard-response",599,505749,"0.0-3.196-0.196","ap81ay2br6cka12",213,"158.csv","","269.6000000089407","resources/trios/L1T4A2.jpg","39","restless",0.3,0.5,0.4,0.328344269130889,"true"
"image-keyboard-response",600,506166,"0.0-3.196-1.196","ap81ay2br6cka12",213,"158.csv","","null","resources/maskTrios/BBA2.jpg","null","",NA,NA,NA,NA,""
"image-keyboard-response",601,507374,"0.0-3.196-2.196","ap81ay2br6cka12",213,"158.csv","","null","resources/images/coin2.png","null","",NA,NA,NA,NA,""
"image-keyboard-response",602,508601,"0.0-3.197-0.197","ap81ay2br6cka12",213,"158.csv","","1225.7000000029802","resources/trios/L4T1A1.jpg","38","restless",0.3,0.5,0.4,0.134300652739655,"true"
"image-keyboard-response",603,509009,"0.0-3.197-1.197","ap81ay2br6cka12",213,"158.csv","","null","resources/maskTrios/BT1B.jpg","null","",NA,NA,NA,NA,""
"image-keyboard-response",604,510216,"0.0-3.197-2.197","ap81ay2br6cka12",213,"158.csv","","null","resources/images/coin2.png","null","",NA,NA,NA,NA,""
"image-keyboard-response",605,510563,"0.0-3.198-0.198","ap81ay2br6cka12",213,"158.csv","","346.20000000298023","resources/trios/L4T4A1.jpg","38","restless",0.3,0.5,0.4,0.97788397984752,"false"
"image-keyboard-response",606,510981,"0.0-3.198-1.198","ap81ay2br6cka12",213,"158.csv","","null","resources/maskTrios/BT4B.jpg","null","",NA,NA,NA,NA,""
