"trial_type","trial_index","time_elapsed","internal_node_id","subject","participantCode","walkNumber","success","rt","stimulus","key_press","test_part","leftProb","midProb","rightProb","generatedNum","correct"
"pavlovia",0,1002,"0.0-0.0","4hjremh3c2zqo86",620,"169.csv","","","","","",NA,NA,NA,NA,""
"fullscreen",1,5016,"0.0-1.0","4hjremh3c2zqo86",620,"169.csv","true","","","","",NA,NA,NA,NA,""
"html-keyboard-response",2,11385,"0.0-2.0-0.0","4hjremh3c2zqo86",620,"169.csv","","6365.899999856949","<p><font size='6'>Arrrgh!</p></font><p>Can you be the best pirate? Try to find lots of gold! But beware, some islands have more gold than others, and over time, the island with the most gold may change. Can YOU figure it out? </p><font size='6'>GOOD LUCK, CAPTAIN!!!</font><p>Press any key to begin</p>","32","",NA,NA,NA,NA,""
"image-keyboard-response",3,14387,"0.0-2.0-1.0","4hjremh3c2zqo86",620,"169.csv","","null","resources/image_sets/111.png","null","",NA,NA,NA,NA,""
"image-keyboard-response",4,18102,"0.0-2.0-2.0","4hjremh3c2zqo86",620,"169.csv","","3713.5","resources/image_sets/left_highlight.png","37","",NA,NA,NA,NA,""
"image-keyboard-response",5,20238,"0.0-2.0-3.0","4hjremh3c2zqo86",620,"169.csv","","2134.100000143051","resources/image_sets/mid_highlight.png","38","",NA,NA,NA,NA,""
"image-keyboard-response",6,22698,"0.0-2.0-4.0","4hjremh3c2zqo86",620,"169.csv","","2458.699999809265","resources/image_sets/right_highlight.png","39","",NA,NA,NA,NA,""
"image-keyboard-response",7,25987,"0.0-2.0-5.0","4hjremh3c2zqo86",620,"169.csv","","3286.7000000476837","resources/image_sets/111.png","13","",NA,NA,NA,NA,""
"image-keyboard-response",8,28557,"0.0-2.0-6.0","4hjremh3c2zqo86",620,"169.csv","","2568.7000000476837","resources/images/coin2.png","13","",NA,NA,NA,NA,""
"image-keyboard-response",9,31147,"0.0-2.0-7.0","4hjremh3c2zqo86",620,"169.csv","","2589.7999999523163","resources/images/fishbone.png","13","",NA,NA,NA,NA,""
"html-keyboard-response",10,36237,"0.0-2.0-8.0","4hjremh3c2zqo86",620,"169.csv","","5089.200000047684","<p>Your first journey will be a long one, but you will get a well deserved break at the end</p><p>After the break you will have four more journeys, but each will be much shorter than the first, and you will have breaks in between each</p><p>Press Enter to begin</p>","13","",NA,NA,NA,NA,""
"image-keyboard-response",11,37532,"0.0-3.0-0.0","4hjremh3c2zqo86",620,"169.csv","","1292.8000001907349","resources/trios/L2T1A3.jpg","39","restless",0.9,0.7,0.3,0.274543795555926,"true"
"image-keyboard-response",12,37941,"0.0-3.0-1.0","4hjremh3c2zqo86",620,"169.csv","","null","resources/maskTrios/BBA3.jpg","null","",NA,NA,NA,NA,""
"image-keyboard-response",13,39156,"0.0-3.0-2.0","4hjremh3c2zqo86",620,"169.csv","","null","resources/images/coin2.png","null","",NA,NA,NA,NA,""
"image-keyboard-response",14,42532,"0.0-3.1-0.1","4hjremh3c2zqo86",620,"169.csv","","3374","resources/trios/L4T4A3.jpg","38","restless",0.9,0.7,0.3,0.104043166903306,"true"
"image-keyboard-response",15,42943,"0.0-3.1-1.1","4hjremh3c2zqo86",620,"169.csv","","null","resources/maskTrios/BT4B.jpg","null","",NA,NA,NA,NA,""
"image-keyboard-response",16,44151,"0.0-3.1-2.1","4hjremh3c2zqo86",620,"169.csv","","null","resources/images/coin2.png","null","",NA,NA,NA,NA,""
"image-keyboard-response",17,46930,"0.0-3.2-0.2","4hjremh3c2zqo86",620,"169.csv","","2776.4000000953674","resources/trios/L2T4A1.jpg","38","restless",0.9,0.7,0.3,0.496047471044301,"true"
"image-keyboard-response",18,47346,"0.0-3.2-1.2","4hjremh3c2zqo86",620,"169.csv","","null","resources/maskTrios/BT4B.jpg","null","",NA,NA,NA,NA,""
"image-keyboard-response",19,48559,"0.0-3.2-2.2","4hjremh3c2zqo86",620,"169.csv","","null","resources/images/coin2.png","null","",NA,NA,NA,NA,""
"image-keyboard-response",20,51825,"0.0-3.3-0.3","4hjremh3c2zqo86",620,"169.csv","","3264.199999809265","resources/trios/L4T1A1.jpg","37","restless",0.9,0.7,0.3,0.729993550740548,"true"
"image-keyboard-response",21,52241,"0.0-3.3-1.3","4hjremh3c2zqo86",620,"169.csv","","null","resources/maskTrios/L4BB.jpg","null","",NA,NA,NA,NA,""
"image-keyboard-response",22,53444,"0.0-3.3-2.3","4hjremh3c2zqo86",620,"169.csv","","null","resources/images/coin2.png","null","",NA,NA,NA,NA,""
"image-keyboard-response",23,55103,"0.0-3.4-0.4","4hjremh3c2zqo86",620,"169.csv","","1655.7999999523163","resources/trios/L2T4A1.jpg","37","restless",0.9,0.7,0.3,0.531747771680194,"true"
"image-keyboard-response",24,55514,"0.0-3.4-1.4","4hjremh3c2zqo86",620,"169.csv","","null","resources/maskTrios/L2BB.jpg","null","",NA,NA,NA,NA,""
"image-keyboard-response",25,56728,"0.0-3.4-2.4","4hjremh3c2zqo86",620,"169.csv","","null","resources/images/coin2.png","null","",NA,NA,NA,NA,""
"image-keyboard-response",26,58002,"0.0-3.5-0.5","4hjremh3c2zqo86",620,"169.csv","","1271.4000000953674","resources/trios/L2T1A1.jpg","38","restless",0.9,0.8,0.3,0.160193487121571,"true"
"image-keyboard-response",27,58411,"0.0-3.5-1.5","4hjremh3c2zqo86",620,"169.csv","","null","resources/maskTrios/BT1B.jpg","null","",NA,NA,NA,NA,""
"image-keyboard-response",28,59629,"0.0-3.5-2.5","4hjremh3c2zqo86",620,"169.csv","","null","resources/images/coin2.png","null","",NA,NA,NA,NA,""
"image-keyboard-response",29,60481,"0.0-3.6-0.6","4hjremh3c2zqo86",620,"169.csv","","848.7999999523163","resources/trios/L2T1A1.jpg","37","restless",0.9,0.8,0.3,0.363513776696926,"true"
"image-keyboard-response",30,60883,"0.0-3.6-1.6","4hjremh3c2zqo86",620,"169.csv","","null","resources/maskTrios/L2BB.jpg","null","",NA,NA,NA,NA,""
"image-keyboard-response",31,62101,"0.0-3.6-2.6","4hjremh3c2zqo86",620,"169.csv","","null","resources/images/coin2.png","null","",NA,NA,NA,NA,""
"image-keyboard-response",32,62586,"0.0-3.7-0.7","4hjremh3c2zqo86",620,"169.csv","","483.19999980926514","resources/trios/L4T4A1.jpg","38","restless",0.9,0.8,0.3,0.63260768077919,"true"
"image-keyboard-response",33,63001,"0.0-3.7-1.7","4hjremh3c2zqo86",620,"169.csv","","null","resources/maskTrios/BT4B.jpg","null","",NA,NA,NA,NA,""
"image-keyboard-response",34,64212,"0.0-3.7-2.7","4hjremh3c2zqo86",620,"169.csv","","null","resources/images/coin2.png","null","",NA,NA,NA,NA,""
"image-keyboard-response",35,65525,"0.0-3.8-0.8","4hjremh3c2zqo86",620,"169.csv","","1310.1000001430511","resources/trios/L2T1A3.jpg","37","restless",0.9,0.8,0.3,0.753851023257713,"true"
"image-keyboard-response",36,65931,"0.0-3.8-1.8","4hjremh3c2zqo86",620,"169.csv","","null","resources/maskTrios/L2BB.jpg","null","",NA,NA,NA,NA,""
"image-keyboard-response",37,67148,"0.0-3.8-2.8","4hjremh3c2zqo86",620,"169.csv","","null","resources/images/coin2.png","null","",NA,NA,NA,NA,""
"image-keyboard-response",38,68493,"0.0-3.9-0.9","4hjremh3c2zqo86",620,"169.csv","","1343.6000001430511","resources/trios/L4T1A1.jpg","38","restless",0.8,0.8,0.3,0.341122741227348,"true"
"image-keyboard-response",39,68907,"0.0-3.9-1.9","4hjremh3c2zqo86",620,"169.csv","","null","resources/maskTrios/BT1B.jpg","null","",NA,NA,NA,NA,""
"image-keyboard-response",40,70119,"0.0-3.9-2.9","4hjremh3c2zqo86",620,"169.csv","","null","resources/images/coin2.png","null","",NA,NA,NA,NA,""
"image-keyboard-response",41,70931,"0.0-3.10-0.10","4hjremh3c2zqo86",620,"169.csv","","810","resources/trios/L2T4A3.jpg","37","restless",0.8,0.8,0.3,0.639508537128723,"true"
"image-keyboard-response",42,71349,"0.0-3.10-1.10","4hjremh3c2zqo86",620,"169.csv","","null","resources/maskTrios/L2BB.jpg","null","",NA,NA,NA,NA,""
"image-keyboard-response",43,72563,"0.0-3.10-2.10","4hjremh3c2zqo86",620,"169.csv","","null","resources/images/coin2.png","null","",NA,NA,NA,NA,""
"image-keyboard-response",44,73125,"0.0-3.11-0.11","4hjremh3c2zqo86",620,"169.csv","","559.7000000476837","resources/trios/L4T1A3.jpg","38","restless",0.8,0.8,0.3,0.692692072095189,"true"
"image-keyboard-response",45,73542,"0.0-3.11-1.11","4hjremh3c2zqo86",620,"169.csv","","null","resources/maskTrios/BT1B.jpg","null","",NA,NA,NA,NA,""
"image-keyboard-response",46,74757,"0.0-3.11-2.11","4hjremh3c2zqo86",620,"169.csv","","null","resources/images/coin2.png","null","",NA,NA,NA,NA,""
"image-keyboard-response",47,75747,"0.0-3.12-0.12","4hjremh3c2zqo86",620,"169.csv","","988.3999998569489","resources/trios/L4T1A3.jpg","37","restless",0.8,0.8,0.3,0.00252067646215326,"true"
"image-keyboard-response",48,76160,"0.0-3.12-1.12","4hjremh3c2zqo86",620,"169.csv","","null","resources/maskTrios/L4BB.jpg","null","",NA,NA,NA,NA,""
"image-keyboard-response",49,77373,"0.0-3.12-2.12","4hjremh3c2zqo86",620,"169.csv","","null","resources/images/coin2.png","null","",NA,NA,NA,NA,""
"image-keyboard-response",50,77799,"0.0-3.13-0.13","4hjremh3c2zqo86",620,"169.csv","","423.39999985694885","resources/trios/L4T1A1.jpg","38","restless",0.8,0.8,0.2,0.74199674223787,"true"
"image-keyboard-response",51,78212,"0.0-3.13-1.13","4hjremh3c2zqo86",620,"169.csv","","null","resources/maskTrios/BT1B.jpg","null","",NA,NA,NA,NA,""
"image-keyboard-response",52,79420,"0.0-3.13-2.13","4hjremh3c2zqo86",620,"169.csv","","null","resources/images/coin2.png","null","",NA,NA,NA,NA,""
"image-keyboard-response",53,79818,"0.0-3.14-0.14","4hjremh3c2zqo86",620,"169.csv","","396","resources/trios/L4T4A1.jpg","37","restless",0.8,0.8,0.2,0.391725411805422,"true"
"image-keyboard-response",54,80227,"0.0-3.14-1.14","4hjremh3c2zqo86",620,"169.csv","","null","resources/maskTrios/L4BB.jpg","null","",NA,NA,NA,NA,""
"image-keyboard-response",55,81439,"0.0-3.14-2.14","4hjremh3c2zqo86",620,"169.csv","","null","resources/images/coin2.png","null","",NA,NA,NA,NA,""
"image-keyboard-response",56,81681,"0.0-3.15-0.15","4hjremh3c2zqo86",620,"169.csv","","240.20000004768372","resources/trios/L2T1A1.jpg","38","restless",0.8,0.8,0.2,0.15804454494699,"true"
"image-keyboard-response",57,82085,"0.0-3.15-1.15","4hjremh3c2zqo86",620,"169.csv","","null","resources/maskTrios/BT1B.jpg","null","",NA,NA,NA,NA,""
"image-keyboard-response",58,83300,"0.0-3.15-2.15","4hjremh3c2zqo86",620,"169.csv","","null","resources/images/coin2.png","null","",NA,NA,NA,NA,""
"image-keyboard-response",59,83572,"0.0-3.16-0.16","4hjremh3c2zqo86",620,"169.csv","","269.89999985694885","resources/trios/L4T4A1.jpg","38","restless",0.8,0.8,0.2,0.443334388098196,"true"
"image-keyboard-response",60,83979,"0.0-3.16-1.16","4hjremh3c2zqo86",620,"169.csv","","null","resources/maskTrios/BT4B.jpg","null","",NA,NA,NA,NA,""
"image-keyboard-response",61,85193,"0.0-3.16-2.16","4hjremh3c2zqo86",620,"169.csv","","null","resources/images/coin2.png","null","",NA,NA,NA,NA,""
"image-keyboard-response",62,85350,"0.0-3.17-0.17","4hjremh3c2zqo86",620,"169.csv","","155.19999980926514","resources/trios/L2T4A3.jpg","38","restless",0.8,0.8,0.2,0.702474511188135,"true"
"image-keyboard-response",63,85766,"0.0-3.17-1.17","4hjremh3c2zqo86",620,"169.csv","","null","resources/maskTrios/BT4B.jpg","null","",NA,NA,NA,NA,""
"image-keyboard-response",64,86981,"0.0-3.17-2.17","4hjremh3c2zqo86",620,"169.csv","","null","resources/images/coin2.png","null","",NA,NA,NA,NA,""
"image-keyboard-response",65,87057,"0.0-3.18-0.18","4hjremh3c2zqo86",620,"169.csv","","74","resources/trios/L4T4A3.jpg","38","restless",0.8,0.8,0.2,0.813025295449503,"false"
"image-keyboard-response",66,87460,"0.0-3.18-1.18","4hjremh3c2zqo86",620,"169.csv","","null","resources/maskTrios/BT4B.jpg","null","",NA,NA,NA,NA,""
"image-keyboard-response",67,88673,"0.0-3.18-2.18","4hjremh3c2zqo86",620,"169.csv","","null","resources/images/fishbone.png","null","",NA,NA,NA,NA,""
"image-keyboard-response",68,89085,"0.0-3.19-0.19","4hjremh3c2zqo86",620,"169.csv","","410.2999999523163","resources/trios/L4T4A3.jpg","39","restless",0.8,0.7,0.2,0.560778418151028,"false"
"image-keyboard-response",69,89492,"0.0-3.19-1.19","4hjremh3c2zqo86",620,"169.csv","","null","resources/maskTrios/BBA3.jpg","null","",NA,NA,NA,NA,""
"image-keyboard-response",70,90726,"0.0-3.19-2.19","4hjremh3c2zqo86",620,"169.csv","","null","resources/images/fishbone.png","null","",NA,NA,NA,NA,""
"image-keyboard-response",71,91123,"0.0-3.20-0.20","4hjremh3c2zqo86",620,"169.csv","","395.59999990463257","resources/trios/L2T1A1.jpg","39","restless",0.8,0.7,0.2,0.979334430335318,"false"
"image-keyboard-response",72,91533,"0.0-3.20-1.20","4hjremh3c2zqo86",620,"169.csv","","null","resources/maskTrios/BBA1.jpg","null","",NA,NA,NA,NA,""
"image-keyboard-response",73,92745,"0.0-3.20-2.20","4hjremh3c2zqo86",620,"169.csv","","null","resources/images/fishbone.png","null","",NA,NA,NA,NA,""
"image-keyboard-response",74,93040,"0.0-3.21-0.21","4hjremh3c2zqo86",620,"169.csv","","293.5","resources/trios/L2T4A3.jpg","37","restless",0.8,0.7,0.2,0.703935956852061,"true"
"image-keyboard-response",75,93458,"0.0-3.21-1.21","4hjremh3c2zqo86",620,"169.csv","","null","resources/maskTrios/L2BB.jpg","null","",NA,NA,NA,NA,""
"image-keyboard-response",76,94671,"0.0-3.21-2.21","4hjremh3c2zqo86",620,"169.csv","","null","resources/images/coin2.png","null","",NA,NA,NA,NA,""
"image-keyboard-response",77,95368,"0.0-3.22-0.22","4hjremh3c2zqo86",620,"169.csv","","695.5999999046326","resources/trios/L4T4A3.jpg","37","restless",0.8,0.7,0.2,0.53494836761,"true"
"image-keyboard-response",78,95772,"0.0-3.22-1.22","4hjremh3c2zqo86",620,"169.csv","","null","resources/maskTrios/L4BB.jpg","null","",NA,NA,NA,NA,""
"image-keyboard-response",79,96986,"0.0-3.22-2.22","4hjremh3c2zqo86",620,"169.csv","","null","resources/images/coin2.png","null","",NA,NA,NA,NA,""
"image-keyboard-response",80,97501,"0.0-3.23-0.23","4hjremh3c2zqo86",620,"169.csv","","512.2999999523163","resources/trios/L4T1A3.jpg","37","restless",0.8,0.8,0.2,0.515465296644075,"true"
"image-keyboard-response",81,97905,"0.0-3.23-1.23","4hjremh3c2zqo86",620,"169.csv","","null","resources/maskTrios/L4BB.jpg","null","",NA,NA,NA,NA,""
"image-keyboard-response",82,99110,"0.0-3.23-2.23","4hjremh3c2zqo86",620,"169.csv","","null","resources/images/coin2.png","null","",NA,NA,NA,NA,""
"image-keyboard-response",83,99360,"0.0-3.24-0.24","4hjremh3c2zqo86",620,"169.csv","","248.5","resources/trios/L2T1A1.jpg","38","restless",0.8,0.9,0.2,0.467876796454376,"true"
"image-keyboard-response",84,99763,"0.0-3.24-1.24","4hjremh3c2zqo86",620,"169.csv","","null","resources/maskTrios/BT1B.jpg","null","",NA,NA,NA,NA,""
"image-keyboard-response",85,100977,"0.0-3.24-2.24","4hjremh3c2zqo86",620,"169.csv","","null","resources/images/coin2.png","null","",NA,NA,NA,NA,""
"image-keyboard-response",86,101247,"0.0-3.25-0.25","4hjremh3c2zqo86",620,"169.csv","","268.59999990463257","resources/trios/L4T1A3.jpg","37","restless",0.7,0.9,0.2,0.703821363059139,"false"
"image-keyboard-response",87,101662,"0.0-3.25-1.25","4hjremh3c2zqo86",620,"169.csv","","null","resources/maskTrios/L4BB.jpg","null","",NA,NA,NA,NA,""
"image-keyboard-response",88,102877,"0.0-3.25-2.25","4hjremh3c2zqo86",620,"169.csv","","null","resources/images/fishbone.png","null","",NA,NA,NA,NA,""
"image-keyboard-response",89,102905,"0.0-3.26-0.26","4hjremh3c2zqo86",620,"169.csv","","26.100000143051147","resources/trios/L4T1A1.jpg","38","restless",0.7,0.9,0.2,0.488429384302834,"true"
"image-keyboard-response",90,103314,"0.0-3.26-1.26","4hjremh3c2zqo86",620,"169.csv","","null","resources/maskTrios/BT1B.jpg","null","",NA,NA,NA,NA,""
"image-keyboard-response",91,104527,"0.0-3.26-2.26","4hjremh3c2zqo86",620,"169.csv","","null","resources/images/coin2.png","null","",NA,NA,NA,NA,""
"image-keyboard-response",92,104773,"0.0-3.27-0.27","4hjremh3c2zqo86",620,"169.csv","","242.90000009536743","resources/trios/L2T1A3.jpg","38","restless",0.7,0.8,0.2,0.468753793169979,"true"
"image-keyboard-response",93,105183,"0.0-3.27-1.27","4hjremh3c2zqo86",620,"169.csv","","null","resources/maskTrios/BT1B.jpg","null","",NA,NA,NA,NA,""
"image-keyboard-response",94,106397,"0.0-3.27-2.27","4hjremh3c2zqo86",620,"169.csv","","null","resources/images/coin2.png","null","",NA,NA,NA,NA,""
"image-keyboard-response",95,106644,"0.0-3.28-0.28","4hjremh3c2zqo86",620,"169.csv","","244.79999995231628","resources/trios/L4T4A3.jpg","38","restless",0.7,0.7,0.3,0.0616473452513098,"true"
"image-keyboard-response",96,107049,"0.0-3.28-1.28","4hjremh3c2zqo86",620,"169.csv","","null","resources/maskTrios/BT4B.jpg","null","",NA,NA,NA,NA,""
"image-keyboard-response",97,108261,"0.0-3.28-2.28","4hjremh3c2zqo86",620,"169.csv","","null","resources/images/coin2.png","null","",NA,NA,NA,NA,""
"image-keyboard-response",98,108487,"0.0-3.29-0.29","4hjremh3c2zqo86",620,"169.csv","","224.10000014305115","resources/trios/L4T4A3.jpg","39","restless",0.6,0.7,0.3,0.285855331591192,"true"
"image-keyboard-response",99,108895,"0.0-3.29-1.29","4hjremh3c2zqo86",620,"169.csv","","null","resources/maskTrios/BBA3.jpg","null","",NA,NA,NA,NA,""
"image-keyboard-response",100,110103,"0.0-3.29-2.29","4hjremh3c2zqo86",620,"169.csv","","null","resources/images/coin2.png","null","",NA,NA,NA,NA,""
"image-keyboard-response",101,110412,"0.0-3.30-0.30","4hjremh3c2zqo86",620,"169.csv","","307.2999999523163","resources/trios/L2T4A1.jpg","38","restless",0.7,0.6,0.3,0.339767894469772,"true"
"image-keyboard-response",102,110816,"0.0-3.30-1.30","4hjremh3c2zqo86",620,"169.csv","","null","resources/maskTrios/BT4B.jpg","null","",NA,NA,NA,NA,""
"image-keyboard-response",103,112021,"0.0-3.30-2.30","4hjremh3c2zqo86",620,"169.csv","","null","resources/images/coin2.png","null","",NA,NA,NA,NA,""
"image-keyboard-response",104,112261,"0.0-3.31-0.31","4hjremh3c2zqo86",620,"169.csv","","238.09999990463257","resources/trios/L2T1A3.jpg","38","restless",0.7,0.6,0.3,0.519422176244046,"true"
"image-keyboard-response",105,112674,"0.0-3.31-1.31","4hjremh3c2zqo86",620,"169.csv","","null","resources/maskTrios/BT1B.jpg","null","",NA,NA,NA,NA,""
"image-keyboard-response",106,113888,"0.0-3.31-2.31","4hjremh3c2zqo86",620,"169.csv","","null","resources/images/coin2.png","null","",NA,NA,NA,NA,""
"image-keyboard-response",107,113957,"0.0-3.32-0.32","4hjremh3c2zqo86",620,"169.csv","","67.09999990463257","resources/trios/L2T1A1.jpg","38","restless",0.7,0.5,0.3,0.128102579506111,"true"
"image-keyboard-response",108,114369,"0.0-3.32-1.32","4hjremh3c2zqo86",620,"169.csv","","null","resources/maskTrios/BT1B.jpg","null","",NA,NA,NA,NA,""
"image-keyboard-response",109,115571,"0.0-3.32-2.32","4hjremh3c2zqo86",620,"169.csv","","null","resources/images/coin2.png","null","",NA,NA,NA,NA,""
"image-keyboard-response",110,115651,"0.0-3.33-0.33","4hjremh3c2zqo86",620,"169.csv","","79.19999980926514","resources/trios/L2T4A3.jpg","39","restless",0.7,0.5,0.3,0.674884927521854,"false"
"image-keyboard-response",111,116068,"0.0-3.33-1.33","4hjremh3c2zqo86",620,"169.csv","","null","resources/maskTrios/BBA3.jpg","null","",NA,NA,NA,NA,""
"image-keyboard-response",112,117269,"0.0-3.33-2.33","4hjremh3c2zqo86",620,"169.csv","","null","resources/images/fishbone.png","null","",NA,NA,NA,NA,""
"image-keyboard-response",113,117696,"0.0-3.34-0.34","4hjremh3c2zqo86",620,"169.csv","","425.2999999523163","resources/trios/L4T4A3.jpg","37","restless",0.7,0.4,0.4,0.0767144854850377,"true"
"image-keyboard-response",114,118106,"0.0-3.34-1.34","4hjremh3c2zqo86",620,"169.csv","","null","resources/maskTrios/L4BB.jpg","null","",NA,NA,NA,NA,""
"image-keyboard-response",115,119320,"0.0-3.34-2.34","4hjremh3c2zqo86",620,"169.csv","","null","resources/images/coin2.png","null","",NA,NA,NA,NA,""
"image-keyboard-response",116,119523,"0.0-3.35-0.35","4hjremh3c2zqo86",620,"169.csv","","201.70000004768372","resources/trios/L4T4A3.jpg","37","restless",0.7,0.4,0.4,0.888979789149084,"false"
"image-keyboard-response",117,119926,"0.0-3.35-1.35","4hjremh3c2zqo86",620,"169.csv","","null","resources/maskTrios/L4BB.jpg","null","",NA,NA,NA,NA,""
"image-keyboard-response",118,121139,"0.0-3.35-2.35","4hjremh3c2zqo86",620,"169.csv","","null","resources/images/fishbone.png","null","",NA,NA,NA,NA,""
"image-keyboard-response",119,121176,"0.0-3.36-0.36","4hjremh3c2zqo86",620,"169.csv","","36.09999990463257","resources/trios/L2T4A1.jpg","38","restless",0.7,0.4,0.4,0.0350219422386964,"true"
"image-keyboard-response",120,121588,"0.0-3.36-1.36","4hjremh3c2zqo86",620,"169.csv","","null","resources/maskTrios/BT4B.jpg","null","",NA,NA,NA,NA,""
"image-keyboard-response",121,122799,"0.0-3.36-2.36","4hjremh3c2zqo86",620,"169.csv","","null","resources/images/coin2.png","null","",NA,NA,NA,NA,""
"image-keyboard-response",122,122911,"0.0-3.37-0.37","4hjremh3c2zqo86",620,"169.csv","","110.09999990463257","resources/trios/L2T4A1.jpg","38","restless",0.7,0.4,0.5,0.626651171496515,"false"
"image-keyboard-response",123,123316,"0.0-3.37-1.37","4hjremh3c2zqo86",620,"169.csv","","null","resources/maskTrios/BT4B.jpg","null","",NA,NA,NA,NA,""
"image-keyboard-response",124,124518,"0.0-3.37-2.37","4hjremh3c2zqo86",620,"169.csv","","null","resources/images/fishbone.png","null","",NA,NA,NA,NA,""
"image-keyboard-response",125,124783,"0.0-3.38-0.38","4hjremh3c2zqo86",620,"169.csv","","262.40000009536743","resources/trios/L2T1A3.jpg","37","restless",0.7,0.4,0.5,0.573951838005032,"true"
"image-keyboard-response",126,125186,"0.0-3.38-1.38","4hjremh3c2zqo86",620,"169.csv","","null","resources/maskTrios/L2BB.jpg","null","",NA,NA,NA,NA,""
"image-keyboard-response",127,126400,"0.0-3.38-2.38","4hjremh3c2zqo86",620,"169.csv","","null","resources/images/coin2.png","null","",NA,NA,NA,NA,""
"image-keyboard-response",128,126663,"0.0-3.39-0.39","4hjremh3c2zqo86",620,"169.csv","","261.2000000476837","resources/trios/L4T1A1.jpg","37","restless",0.7,0.4,0.5,0.256303265773412,"true"
"image-keyboard-response",129,127081,"0.0-3.39-1.39","4hjremh3c2zqo86",620,"169.csv","","null","resources/maskTrios/L4BB.jpg","null","",NA,NA,NA,NA,""
"image-keyboard-response",130,128284,"0.0-3.39-2.39","4hjremh3c2zqo86",620,"169.csv","","null","resources/images/coin2.png","null","",NA,NA,NA,NA,""
"image-keyboard-response",131,129076,"0.0-3.40-0.40","4hjremh3c2zqo86",620,"169.csv","","790.6999998092651","resources/trios/L2T4A3.jpg","39","restless",0.7,0.4,0.5,0.86111093564522,"false"
"image-keyboard-response",132,129492,"0.0-3.40-1.40","4hjremh3c2zqo86",620,"169.csv","","null","resources/maskTrios/BBA3.jpg","null","",NA,NA,NA,NA,""
"image-keyboard-response",133,130708,"0.0-3.40-2.40","4hjremh3c2zqo86",620,"169.csv","","null","resources/images/fishbone.png","null","",NA,NA,NA,NA,""
"image-keyboard-response",134,130989,"0.0-3.41-0.41","4hjremh3c2zqo86",620,"169.csv","","279.2999999523163","resources/trios/L4T4A1.jpg","37","restless",0.7,0.4,0.5,0.482463777699484,"true"
"image-keyboard-response",135,131392,"0.0-3.41-1.41","4hjremh3c2zqo86",620,"169.csv","","null","resources/maskTrios/L4BB.jpg","null","",NA,NA,NA,NA,""
"image-keyboard-response",136,132608,"0.0-3.41-2.41","4hjremh3c2zqo86",620,"169.csv","","null","resources/images/coin2.png","null","",NA,NA,NA,NA,""
"image-keyboard-response",137,132930,"0.0-3.42-0.42","4hjremh3c2zqo86",620,"169.csv","","320.09999990463257","resources/trios/L4T1A1.jpg","38","restless",0.7,0.4,0.5,0.80252633064936,"false"
"image-keyboard-response",138,133341,"0.0-3.42-1.42","4hjremh3c2zqo86",620,"169.csv","","null","resources/maskTrios/BT1B.jpg","null","",NA,NA,NA,NA,""
"image-keyboard-response",139,134555,"0.0-3.42-2.42","4hjremh3c2zqo86",620,"169.csv","","null","resources/images/fishbone.png","null","",NA,NA,NA,NA,""
"image-keyboard-response",140,134737,"0.0-3.43-0.43","4hjremh3c2zqo86",620,"169.csv","","179.29999995231628","resources/trios/L2T1A1.jpg","39","restless",0.7,0.4,0.5,0.964377145895301,"false"
"image-keyboard-response",141,135146,"0.0-3.43-1.43","4hjremh3c2zqo86",620,"169.csv","","null","resources/maskTrios/BBA1.jpg","null","",NA,NA,NA,NA,""
"image-keyboard-response",142,136354,"0.0-3.43-2.43","4hjremh3c2zqo86",620,"169.csv","","null","resources/images/fishbone.png","null","",NA,NA,NA,NA,""
"image-keyboard-response",143,136633,"0.0-3.44-0.44","4hjremh3c2zqo86",620,"169.csv","","277.7000000476837","resources/trios/L4T1A3.jpg","37","restless",0.7,0.4,0.5,0.669150234479132,"true"
"image-keyboard-response",144,137038,"0.0-3.44-1.44","4hjremh3c2zqo86",620,"169.csv","","null","resources/maskTrios/L4BB.jpg","null","",NA,NA,NA,NA,""
"image-keyboard-response",145,138254,"0.0-3.44-2.44","4hjremh3c2zqo86",620,"169.csv","","null","resources/images/coin2.png","null","",NA,NA,NA,NA,""
"image-keyboard-response",146,145433,"0.0-3.45-0.45","4hjremh3c2zqo86",620,"169.csv","","7177.100000143051","resources/trios/L2T1A3.jpg","37","restless",0.7,0.4,0.5,0.531898134383421,"true"
"image-keyboard-response",147,145841,"0.0-3.45-1.45","4hjremh3c2zqo86",620,"169.csv","","null","resources/maskTrios/L2BB.jpg","null","",NA,NA,NA,NA,""
"image-keyboard-response",148,147045,"0.0-3.45-2.45","4hjremh3c2zqo86",620,"169.csv","","null","resources/images/coin2.png","null","",NA,NA,NA,NA,""
"image-keyboard-response",149,159758,"0.0-3.46-0.46","4hjremh3c2zqo86",620,"169.csv","","12710.5","resources/trios/L2T1A1.jpg","37","restless",0.7,0.4,0.5,0.51659786166777,"true"
"image-keyboard-response",150,160166,"0.0-3.46-1.46","4hjremh3c2zqo86",620,"169.csv","","null","resources/maskTrios/L2BB.jpg","null","",NA,NA,NA,NA,""
"image-keyboard-response",151,161379,"0.0-3.46-2.46","4hjremh3c2zqo86",620,"169.csv","","null","resources/images/coin2.png","null","",NA,NA,NA,NA,""
"image-keyboard-response",152,161676,"0.0-3.47-0.47","4hjremh3c2zqo86",620,"169.csv","","295.40000009536743","resources/trios/L4T4A1.jpg","38","restless",0.7,0.3,0.5,0.660441285109668,"false"
"image-keyboard-response",153,162081,"0.0-3.47-1.47","4hjremh3c2zqo86",620,"169.csv","","null","resources/maskTrios/BT4B.jpg","null","",NA,NA,NA,NA,""
"image-keyboard-response",154,163295,"0.0-3.47-2.47","4hjremh3c2zqo86",620,"169.csv","","null","resources/images/fishbone.png","null","",NA,NA,NA,NA,""
"image-keyboard-response",155,163777,"0.0-3.48-0.48","4hjremh3c2zqo86",620,"169.csv","","479.89999985694885","resources/trios/L2T1A1.jpg","39","restless",0.7,0.3,0.5,0.6443036667524,"false"
"image-keyboard-response",156,164180,"0.0-3.48-1.48","4hjremh3c2zqo86",620,"169.csv","","null","resources/maskTrios/BBA1.jpg","null","",NA,NA,NA,NA,""
"image-keyboard-response",157,165388,"0.0-3.48-2.48","4hjremh3c2zqo86",620,"169.csv","","null","resources/images/fishbone.png","null","",NA,NA,NA,NA,""
"image-keyboard-response",158,165394,"0.0-3.49-0.49","4hjremh3c2zqo86",620,"169.csv","","4.699999809265137","resources/trios/L4T4A3.jpg","37","restless",0.7,0.3,0.5,0.970773253545576,"false"
"image-keyboard-response",159,165802,"0.0-3.49-1.49","4hjremh3c2zqo86",620,"169.csv","","null","resources/maskTrios/L4BB.jpg","null","",NA,NA,NA,NA,""
"image-keyboard-response",160,167003,"0.0-3.49-2.49","4hjremh3c2zqo86",620,"169.csv","","null","resources/images/fishbone.png","null","",NA,NA,NA,NA,""
"image-keyboard-response",161,167354,"0.0-3.50-0.50","4hjremh3c2zqo86",620,"169.csv","","348.69999980926514","resources/trios/L2T1A1.jpg","38","restless",0.7,0.3,0.5,0.569298573155671,"false"
"image-keyboard-response",162,167765,"0.0-3.50-1.50","4hjremh3c2zqo86",620,"169.csv","","null","resources/maskTrios/BT1B.jpg","null","",NA,NA,NA,NA,""
"image-keyboard-response",163,168976,"0.0-3.50-2.50","4hjremh3c2zqo86",620,"169.csv","","null","resources/images/fishbone.png","null","",NA,NA,NA,NA,""
"image-keyboard-response",164,169216,"0.0-3.51-0.51","4hjremh3c2zqo86",620,"169.csv","","239","resources/trios/L2T1A3.jpg","39","restless",0.8,0.3,0.5,0.576805087851405,"false"
"image-keyboard-response",165,169624,"0.0-3.51-1.51","4hjremh3c2zqo86",620,"169.csv","","null","resources/maskTrios/BBA3.jpg","null","",NA,NA,NA,NA,""
"image-keyboard-response",166,170840,"0.0-3.51-2.51","4hjremh3c2zqo86",620,"169.csv","","null","resources/images/fishbone.png","null","",NA,NA,NA,NA,""
"image-keyboard-response",167,171431,"0.0-3.52-0.52","4hjremh3c2zqo86",620,"169.csv","","589.1999998092651","resources/trios/L2T4A3.jpg","39","restless",0.8,0.3,0.5,0.940321668455149,"false"
"image-keyboard-response",168,171847,"0.0-3.52-1.52","4hjremh3c2zqo86",620,"169.csv","","null","resources/maskTrios/BBA3.jpg","null","",NA,NA,NA,NA,""
"image-keyboard-response",169,173060,"0.0-3.52-2.52","4hjremh3c2zqo86",620,"169.csv","","null","resources/images/fishbone.png","null","",NA,NA,NA,NA,""
"image-keyboard-response",170,173268,"0.0-3.53-0.53","4hjremh3c2zqo86",620,"169.csv","","206.70000004768372","resources/trios/L4T1A3.jpg","38","restless",0.8,0.3,0.5,0.615183371340082,"false"
"image-keyboard-response",171,173674,"0.0-3.53-1.53","4hjremh3c2zqo86",620,"169.csv","","null","resources/maskTrios/BT1B.jpg","null","",NA,NA,NA,NA,""
"image-keyboard-response",172,174891,"0.0-3.53-2.53","4hjremh3c2zqo86",620,"169.csv","","null","resources/images/fishbone.png","null","",NA,NA,NA,NA,""
"image-keyboard-response",173,175105,"0.0-3.54-0.54","4hjremh3c2zqo86",620,"169.csv","","212.40000009536743","resources/trios/L2T4A1.jpg","37","restless",0.8,0.3,0.5,0.487895294134613,"true"
"image-keyboard-response",174,175512,"0.0-3.54-1.54","4hjremh3c2zqo86",620,"169.csv","","null","resources/maskTrios/L2BB.jpg","null","",NA,NA,NA,NA,""
"image-keyboard-response",175,176723,"0.0-3.54-2.54","4hjremh3c2zqo86",620,"169.csv","","null","resources/images/coin2.png","null","",NA,NA,NA,NA,""
"image-keyboard-response",176,176937,"0.0-3.55-0.55","4hjremh3c2zqo86",620,"169.csv","","209.89999985694885","resources/trios/L2T4A3.jpg","37","restless",0.8,0.3,0.5,0.816422012385946,"false"
"image-keyboard-response",177,177341,"0.0-3.55-1.55","4hjremh3c2zqo86",620,"169.csv","","null","resources/maskTrios/L2BB.jpg","null","",NA,NA,NA,NA,""
"image-keyboard-response",178,178552,"0.0-3.55-2.55","4hjremh3c2zqo86",620,"169.csv","","null","resources/images/fishbone.png","null","",NA,NA,NA,NA,""
"image-keyboard-response",179,178760,"0.0-3.56-0.56","4hjremh3c2zqo86",620,"169.csv","","206.29999995231628","resources/trios/L4T1A1.jpg","37","restless",0.8,0.3,0.5,0.883743805448475,"false"
"image-keyboard-response",180,179173,"0.0-3.56-1.56","4hjremh3c2zqo86",620,"169.csv","","null","resources/maskTrios/L4BB.jpg","null","",NA,NA,NA,NA,""
"image-keyboard-response",181,180376,"0.0-3.56-2.56","4hjremh3c2zqo86",620,"169.csv","","null","resources/images/fishbone.png","null","",NA,NA,NA,NA,""
"image-keyboard-response",182,180423,"0.0-3.57-0.57","4hjremh3c2zqo86",620,"169.csv","","45.5","resources/trios/L2T1A1.jpg","37","restless",0.8,0.3,0.5,0.30040399103089,"true"
"image-keyboard-response",183,180841,"0.0-3.57-1.57","4hjremh3c2zqo86",620,"169.csv","","null","resources/maskTrios/L2BB.jpg","null","",NA,NA,NA,NA,""
"image-keyboard-response",184,182053,"0.0-3.57-2.57","4hjremh3c2zqo86",620,"169.csv","","null","resources/images/coin2.png","null","",NA,NA,NA,NA,""
"image-keyboard-response",185,182101,"0.0-3.58-0.58","4hjremh3c2zqo86",620,"169.csv","","46.200000047683716","resources/trios/L2T4A1.jpg","38","restless",0.8,0.3,0.5,0.658250136191565,"false"
"image-keyboard-response",186,182505,"0.0-3.58-1.58","4hjremh3c2zqo86",620,"169.csv","","null","resources/maskTrios/BT4B.jpg","null","",NA,NA,NA,NA,""
"image-keyboard-response",187,183716,"0.0-3.58-2.58","4hjremh3c2zqo86",620,"169.csv","","null","resources/images/fishbone.png","null","",NA,NA,NA,NA,""
"image-keyboard-response",188,183795,"0.0-3.59-0.59","4hjremh3c2zqo86",620,"169.csv","","77.29999995231628","resources/trios/L4T4A1.jpg","38","restless",0.8,0.3,0.5,0.629088781130131,"false"
"image-keyboard-response",189,184210,"0.0-3.59-1.59","4hjremh3c2zqo86",620,"169.csv","","null","resources/maskTrios/BT4B.jpg","null","",NA,NA,NA,NA,""
"image-keyboard-response",190,185420,"0.0-3.59-2.59","4hjremh3c2zqo86",620,"169.csv","","null","resources/images/fishbone.png","null","",NA,NA,NA,NA,""
"image-keyboard-response",191,185572,"0.0-3.60-0.60","4hjremh3c2zqo86",620,"169.csv","","150.69999980926514","resources/trios/L4T4A3.jpg","38","restless",0.8,0.3,0.5,0.846765813267404,"false"
"image-keyboard-response",192,185980,"0.0-3.60-1.60","4hjremh3c2zqo86",620,"169.csv","","null","resources/maskTrios/BT4B.jpg","null","",NA,NA,NA,NA,""
"image-keyboard-response",193,187191,"0.0-3.60-2.60","4hjremh3c2zqo86",620,"169.csv","","null","resources/images/fishbone.png","null","",NA,NA,NA,NA,""
"image-keyboard-response",194,187395,"0.0-3.61-0.61","4hjremh3c2zqo86",620,"169.csv","","201.79999995231628","resources/trios/L2T4A3.jpg","38","restless",0.8,0.3,0.5,0.0375724214222846,"true"
"image-keyboard-response",195,187803,"0.0-3.61-1.61","4hjremh3c2zqo86",620,"169.csv","","null","resources/maskTrios/BT4B.jpg","null","",NA,NA,NA,NA,""
"image-keyboard-response",196,189014,"0.0-3.61-2.61","4hjremh3c2zqo86",620,"169.csv","","null","resources/images/coin2.png","null","",NA,NA,NA,NA,""
"image-keyboard-response",197,189019,"0.0-3.62-0.62","4hjremh3c2zqo86",620,"169.csv","","3.1999998092651367","resources/trios/L4T4A1.jpg","39","restless",0.8,0.3,0.5,0.347415504061646,"true"
"image-keyboard-response",198,189432,"0.0-3.62-1.62","4hjremh3c2zqo86",620,"169.csv","","null","resources/maskTrios/BBA1.jpg","null","",NA,NA,NA,NA,""
"image-keyboard-response",199,190638,"0.0-3.62-2.62","4hjremh3c2zqo86",620,"169.csv","","null","resources/images/coin2.png","null","",NA,NA,NA,NA,""
"image-keyboard-response",200,190688,"0.0-3.63-0.63","4hjremh3c2zqo86",620,"169.csv","","48.09999990463257","resources/trios/L2T4A1.jpg","39","restless",0.8,0.3,0.5,0.361107903649534,"true"
"image-keyboard-response",201,191102,"0.0-3.63-1.63","4hjremh3c2zqo86",620,"169.csv","","null","resources/maskTrios/BBA1.jpg","null","",NA,NA,NA,NA,""
"image-keyboard-response",202,192316,"0.0-3.63-2.63","4hjremh3c2zqo86",620,"169.csv","","null","resources/images/coin2.png","null","",NA,NA,NA,NA,""
"image-keyboard-response",203,192454,"0.0-3.64-0.64","4hjremh3c2zqo86",620,"169.csv","","136.59999990463257","resources/trios/L4T1A1.jpg","39","restless",0.8,0.3,0.5,0.711146774381169,"false"
"image-keyboard-response",204,192858,"0.0-3.64-1.64","4hjremh3c2zqo86",620,"169.csv","","null","resources/maskTrios/BBA1.jpg","null","",NA,NA,NA,NA,""
"image-keyboard-response",205,194067,"0.0-3.64-2.64","4hjremh3c2zqo86",620,"169.csv","","null","resources/images/fishbone.png","null","",NA,NA,NA,NA,""
"image-keyboard-response",206,194222,"0.0-3.65-0.65","4hjremh3c2zqo86",620,"169.csv","","153.5","resources/trios/L2T4A1.jpg","38","restless",0.8,0.3,0.5,0.984715807335512,"false"
"image-keyboard-response",207,194629,"0.0-3.65-1.65","4hjremh3c2zqo86",620,"169.csv","","null","resources/maskTrios/BT4B.jpg","null","",NA,NA,NA,NA,""
"image-keyboard-response",208,195839,"0.0-3.65-2.65","4hjremh3c2zqo86",620,"169.csv","","null","resources/images/fishbone.png","null","",NA,NA,NA,NA,""
"image-keyboard-response",209,195930,"0.0-3.66-0.66","4hjremh3c2zqo86",620,"169.csv","","89.20000004768372","resources/trios/L4T4A1.jpg","37","restless",0.8,0.3,0.5,0.673458634210474,"true"
"image-keyboard-response",210,196339,"0.0-3.66-1.66","4hjremh3c2zqo86",620,"169.csv","","null","resources/maskTrios/L4BB.jpg","null","",NA,NA,NA,NA,""
"image-keyboard-response",211,197555,"0.0-3.66-2.66","4hjremh3c2zqo86",620,"169.csv","","null","resources/images/coin2.png","null","",NA,NA,NA,NA,""
"image-keyboard-response",212,197659,"0.0-3.67-0.67","4hjremh3c2zqo86",620,"169.csv","","101.90000009536743","resources/trios/L4T4A1.jpg","37","restless",0.8,0.3,0.5,0.498535630294885,"true"
"image-keyboard-response",213,198068,"0.0-3.67-1.67","4hjremh3c2zqo86",620,"169.csv","","null","resources/maskTrios/L4BB.jpg","null","",NA,NA,NA,NA,""
"image-keyboard-response",214,199292,"0.0-3.67-2.67","4hjremh3c2zqo86",620,"169.csv","","null","resources/images/coin2.png","null","",NA,NA,NA,NA,""
"image-keyboard-response",215,199589,"0.0-3.68-0.68","4hjremh3c2zqo86",620,"169.csv","","292.89999985694885","resources/trios/L4T1A1.jpg","37","restless",0.8,0.3,0.5,0.0268623918930431,"true"
"image-keyboard-response",216,199995,"0.0-3.68-1.68","4hjremh3c2zqo86",620,"169.csv","","null","resources/maskTrios/L4BB.jpg","null","",NA,NA,NA,NA,""
"image-keyboard-response",217,201208,"0.0-3.68-2.68","4hjremh3c2zqo86",620,"169.csv","","null","resources/images/coin2.png","null","",NA,NA,NA,NA,""
"image-keyboard-response",218,201725,"0.0-3.69-0.69","4hjremh3c2zqo86",620,"169.csv","","516","resources/trios/L2T1A1.jpg","38","restless",0.8,0.3,0.5,0.46970064266933,"false"
"image-keyboard-response",219,202145,"0.0-3.69-1.69","4hjremh3c2zqo86",620,"169.csv","","null","resources/maskTrios/BT1B.jpg","null","",NA,NA,NA,NA,""
"image-keyboard-response",220,203359,"0.0-3.69-2.69","4hjremh3c2zqo86",620,"169.csv","","null","resources/images/fishbone.png","null","",NA,NA,NA,NA,""
"image-keyboard-response",221,203508,"0.0-3.70-0.70","4hjremh3c2zqo86",620,"169.csv","","147.29999995231628","resources/trios/L4T1A3.jpg","39","restless",0.8,0.3,0.5,0.188007118062126,"true"
"image-keyboard-response",222,203915,"0.0-3.70-1.70","4hjremh3c2zqo86",620,"169.csv","","null","resources/maskTrios/BBA3.jpg","null","",NA,NA,NA,NA,""
"image-keyboard-response",223,205123,"0.0-3.70-2.70","4hjremh3c2zqo86",620,"169.csv","","null","resources/images/coin2.png","null","",NA,NA,NA,NA,""
"image-keyboard-response",224,205380,"0.0-3.71-0.71","4hjremh3c2zqo86",620,"169.csv","","255.20000004768372","resources/trios/L4T1A1.jpg","37","restless",0.8,0.3,0.5,0.825374550946459,"false"
"image-keyboard-response",225,205794,"0.0-3.71-1.71","4hjremh3c2zqo86",620,"169.csv","","null","resources/maskTrios/L4BB.jpg","null","",NA,NA,NA,NA,""
"image-keyboard-response",226,207009,"0.0-3.71-2.71","4hjremh3c2zqo86",620,"169.csv","","null","resources/images/fishbone.png","null","",NA,NA,NA,NA,""
"image-keyboard-response",227,207321,"0.0-3.72-0.72","4hjremh3c2zqo86",620,"169.csv","","309.7000000476837","resources/trios/L4T4A1.jpg","38","restless",0.8,0.3,0.5,0.780931971083793,"false"
"image-keyboard-response",228,207725,"0.0-3.72-1.72","4hjremh3c2zqo86",620,"169.csv","","null","resources/maskTrios/BT4B.jpg","null","",NA,NA,NA,NA,""
"image-keyboard-response",229,208936,"0.0-3.72-2.72","4hjremh3c2zqo86",620,"169.csv","","null","resources/images/fishbone.png","null","",NA,NA,NA,NA,""
"image-keyboard-response",230,209113,"0.0-3.73-0.73","4hjremh3c2zqo86",620,"169.csv","","174.69999980926514","resources/trios/L2T1A3.jpg","39","restless",0.7,0.3,0.5,0.40851847875021,"true"
"image-keyboard-response",231,209524,"0.0-3.73-1.73","4hjremh3c2zqo86",620,"169.csv","","null","resources/maskTrios/BBA3.jpg","null","",NA,NA,NA,NA,""
"image-keyboard-response",232,210730,"0.0-3.73-2.73","4hjremh3c2zqo86",620,"169.csv","","null","resources/images/coin2.png","null","",NA,NA,NA,NA,""
"image-keyboard-response",233,211054,"0.0-3.74-0.74","4hjremh3c2zqo86",620,"169.csv","","321.89999985694885","resources/trios/L4T4A3.jpg","39","restless",0.7,0.3,0.5,0.599474182152925,"false"
"image-keyboard-response",234,211461,"0.0-3.74-1.74","4hjremh3c2zqo86",620,"169.csv","","null","resources/maskTrios/BBA3.jpg","null","",NA,NA,NA,NA,""
"image-keyboard-response",235,212674,"0.0-3.74-2.74","4hjremh3c2zqo86",620,"169.csv","","null","resources/images/fishbone.png","null","",NA,NA,NA,NA,""
"image-keyboard-response",236,212886,"0.0-3.75-0.75","4hjremh3c2zqo86",620,"169.csv","","210.59999990463257","resources/trios/L2T4A3.jpg","38","restless",0.7,0.3,0.6,0.427630958623269,"false"
"image-keyboard-response",237,213292,"0.0-3.75-1.75","4hjremh3c2zqo86",620,"169.csv","","null","resources/maskTrios/BT4B.jpg","null","",NA,NA,NA,NA,""
"image-keyboard-response",238,214504,"0.0-3.75-2.75","4hjremh3c2zqo86",620,"169.csv","","null","resources/images/fishbone.png","null","",NA,NA,NA,NA,""
"image-keyboard-response",239,214551,"0.0-3.76-0.76","4hjremh3c2zqo86",620,"169.csv","","44.89999985694885","resources/trios/L2T4A3.jpg","37","restless",0.7,0.3,0.6,0.326333481866489,"true"
"image-keyboard-response",240,214954,"0.0-3.76-1.76","4hjremh3c2zqo86",620,"169.csv","","null","resources/maskTrios/L2BB.jpg","null","",NA,NA,NA,NA,""
"image-keyboard-response",241,216169,"0.0-3.76-2.76","4hjremh3c2zqo86",620,"169.csv","","null","resources/images/coin2.png","null","",NA,NA,NA,NA,""
"image-keyboard-response",242,216506,"0.0-3.77-0.77","4hjremh3c2zqo86",620,"169.csv","","334.90000009536743","resources/trios/L4T1A1.jpg","37","restless",0.7,0.3,0.6,0.0997797546030563,"true"
"image-keyboard-response",243,216916,"0.0-3.77-1.77","4hjremh3c2zqo86",620,"169.csv","","null","resources/maskTrios/L4BB.jpg","null","",NA,NA,NA,NA,""
"image-keyboard-response",244,218129,"0.0-3.77-2.77","4hjremh3c2zqo86",620,"169.csv","","null","resources/images/coin2.png","null","",NA,NA,NA,NA,""
"image-keyboard-response",245,218338,"0.0-3.78-0.78","4hjremh3c2zqo86",620,"169.csv","","207.10000014305115","resources/trios/L2T1A1.jpg","37","restless",0.7,0.3,0.6,0.383560121602982,"true"
"image-keyboard-response",246,218749,"0.0-3.78-1.78","4hjremh3c2zqo86",620,"169.csv","","null","resources/maskTrios/L2BB.jpg","null","",NA,NA,NA,NA,""
"image-keyboard-response",247,219962,"0.0-3.78-2.78","4hjremh3c2zqo86",620,"169.csv","","null","resources/images/coin2.png","null","",NA,NA,NA,NA,""
"image-keyboard-response",248,220165,"0.0-3.79-0.79","4hjremh3c2zqo86",620,"169.csv","","201.79999995231628","resources/trios/L4T1A3.jpg","37","restless",0.7,0.3,0.6,0.490428841072717,"true"
"image-keyboard-response",249,220582,"0.0-3.79-1.79","4hjremh3c2zqo86",620,"169.csv","","null","resources/maskTrios/L4BB.jpg","null","",NA,NA,NA,NA,""
"image-keyboard-response",250,221786,"0.0-3.79-2.79","4hjremh3c2zqo86",620,"169.csv","","null","resources/images/coin2.png","null","",NA,NA,NA,NA,""
"image-keyboard-response",251,222013,"0.0-3.80-0.80","4hjremh3c2zqo86",620,"169.csv","","225.90000009536743","resources/trios/L4T4A3.jpg","37","restless",0.7,0.3,0.6,0.928119719696409,"false"
"image-keyboard-response",252,222422,"0.0-3.80-1.80","4hjremh3c2zqo86",620,"169.csv","","null","resources/maskTrios/L4BB.jpg","null","",NA,NA,NA,NA,""
"image-keyboard-response",253,223638,"0.0-3.80-2.80","4hjremh3c2zqo86",620,"169.csv","","null","resources/images/fishbone.png","null","",NA,NA,NA,NA,""
"image-keyboard-response",254,224416,"0.0-3.81-0.81","4hjremh3c2zqo86",620,"169.csv","","777","resources/trios/L4T1A3.jpg","38","restless",0.7,0.3,0.6,0.752332622744293,"false"
"image-keyboard-response",255,224818,"0.0-3.81-1.81","4hjremh3c2zqo86",620,"169.csv","","null","resources/maskTrios/BT1B.jpg","null","",NA,NA,NA,NA,""
"image-keyboard-response",256,226035,"0.0-3.81-2.81","4hjremh3c2zqo86",620,"169.csv","","null","resources/images/fishbone.png","null","",NA,NA,NA,NA,""
"image-keyboard-response",257,226104,"0.0-3.82-0.82","4hjremh3c2zqo86",620,"169.csv","","66.79999995231628","resources/trios/L4T1A3.jpg","38","restless",0.7,0.3,0.6,0.38098930183136,"false"
"image-keyboard-response",258,226518,"0.0-3.82-1.82","4hjremh3c2zqo86",620,"169.csv","","null","resources/maskTrios/BT1B.jpg","null","",NA,NA,NA,NA,""
"image-keyboard-response",259,227719,"0.0-3.82-2.82","4hjremh3c2zqo86",620,"169.csv","","null","resources/images/fishbone.png","null","",NA,NA,NA,NA,""
"image-keyboard-response",260,227794,"0.0-3.83-0.83","4hjremh3c2zqo86",620,"169.csv","","72.59999990463257","resources/trios/L4T4A3.jpg","38","restless",0.7,0.3,0.5,0.721351719837365,"false"
"image-keyboard-response",261,228199,"0.0-3.83-1.83","4hjremh3c2zqo86",620,"169.csv","","null","resources/maskTrios/BT4B.jpg","null","",NA,NA,NA,NA,""
"image-keyboard-response",262,229414,"0.0-3.83-2.83","4hjremh3c2zqo86",620,"169.csv","","null","resources/images/fishbone.png","null","",NA,NA,NA,NA,""
"image-keyboard-response",263,229625,"0.0-3.84-0.84","4hjremh3c2zqo86",620,"169.csv","","208.90000009536743","resources/trios/L2T4A1.jpg","38","restless",0.7,0.4,0.5,0.970086579486372,"false"
"image-keyboard-response",264,230033,"0.0-3.84-1.84","4hjremh3c2zqo86",620,"169.csv","","null","resources/maskTrios/BT4B.jpg","null","",NA,NA,NA,NA,""
"image-keyboard-response",265,231241,"0.0-3.84-2.84","4hjremh3c2zqo86",620,"169.csv","","null","resources/images/fishbone.png","null","",NA,NA,NA,NA,""
"image-keyboard-response",266,231268,"0.0-3.85-0.85","4hjremh3c2zqo86",620,"169.csv","","25.59999990463257","resources/trios/L4T4A1.jpg","39","restless",0.7,0.4,0.5,0.132381074500313,"true"
"image-keyboard-response",267,231675,"0.0-3.85-1.85","4hjremh3c2zqo86",620,"169.csv","","null","resources/maskTrios/BBA1.jpg","null","",NA,NA,NA,NA,""
"image-keyboard-response",268,232882,"0.0-3.85-2.85","4hjremh3c2zqo86",620,"169.csv","","null","resources/images/coin2.png","null","",NA,NA,NA,NA,""
"image-keyboard-response",269,233114,"0.0-3.86-0.86","4hjremh3c2zqo86",620,"169.csv","","228.40000009536743","resources/trios/L4T4A3.jpg","39","restless",0.7,0.4,0.5,0.169237027339038,"true"
"image-keyboard-response",270,233522,"0.0-3.86-1.86","4hjremh3c2zqo86",620,"169.csv","","null","resources/maskTrios/BBA3.jpg","null","",NA,NA,NA,NA,""
"image-keyboard-response",271,234737,"0.0-3.86-2.86","4hjremh3c2zqo86",620,"169.csv","","null","resources/images/coin2.png","null","",NA,NA,NA,NA,""
"image-keyboard-response",272,234943,"0.0-3.87-0.87","4hjremh3c2zqo86",620,"169.csv","","204.90000009536743","resources/trios/L4T1A3.jpg","39","restless",0.7,0.4,0.5,0.675164914889649,"false"
"image-keyboard-response",273,235354,"0.0-3.87-1.87","4hjremh3c2zqo86",620,"169.csv","","null","resources/maskTrios/BBA3.jpg","null","",NA,NA,NA,NA,""
"image-keyboard-response",274,236568,"0.0-3.87-2.87","4hjremh3c2zqo86",620,"169.csv","","null","resources/images/fishbone.png","null","",NA,NA,NA,NA,""
"image-keyboard-response",275,236606,"0.0-3.88-0.88","4hjremh3c2zqo86",620,"169.csv","","36.90000009536743","resources/trios/L2T4A1.jpg","38","restless",0.7,0.4,0.5,0.476511652490784,"false"
"image-keyboard-response",276,237017,"0.0-3.88-1.88","4hjremh3c2zqo86",620,"169.csv","","null","resources/maskTrios/BT4B.jpg","null","",NA,NA,NA,NA,""
"image-keyboard-response",277,238227,"0.0-3.88-2.88","4hjremh3c2zqo86",620,"169.csv","","null","resources/images/fishbone.png","null","",NA,NA,NA,NA,""
"image-keyboard-response",278,238305,"0.0-3.89-0.89","4hjremh3c2zqo86",620,"169.csv","","77","resources/trios/L4T4A3.jpg","39","restless",0.7,0.4,0.5,0.847472035817929,"false"
"image-keyboard-response",279,238723,"0.0-3.89-1.89","4hjremh3c2zqo86",620,"169.csv","","null","resources/maskTrios/BBA3.jpg","null","",NA,NA,NA,NA,""
"image-keyboard-response",280,239925,"0.0-3.89-2.89","4hjremh3c2zqo86",620,"169.csv","","null","resources/images/fishbone.png","null","",NA,NA,NA,NA,""
"image-keyboard-response",281,240407,"0.0-3.90-0.90","4hjremh3c2zqo86",620,"169.csv","","481.2000000476837","resources/trios/L4T1A1.jpg","38","restless",0.7,0.4,0.5,0.993646061397171,"false"
"image-keyboard-response",282,240814,"0.0-3.90-1.90","4hjremh3c2zqo86",620,"169.csv","","null","resources/maskTrios/BT1B.jpg","null","",NA,NA,NA,NA,""
"image-keyboard-response",283,242023,"0.0-3.90-2.90","4hjremh3c2zqo86",620,"169.csv","","null","resources/images/fishbone.png","null","",NA,NA,NA,NA,""
"image-keyboard-response",284,242199,"0.0-3.91-0.91","4hjremh3c2zqo86",620,"169.csv","","174","resources/trios/L4T1A3.jpg","38","restless",0.7,0.4,0.5,0.745451458814197,"false"
"image-keyboard-response",285,242613,"0.0-3.91-1.91","4hjremh3c2zqo86",620,"169.csv","","null","resources/maskTrios/BT1B.jpg","null","",NA,NA,NA,NA,""
"image-keyboard-response",286,243825,"0.0-3.91-2.91","4hjremh3c2zqo86",620,"169.csv","","null","resources/images/fishbone.png","null","",NA,NA,NA,NA,""
"image-keyboard-response",287,244038,"0.0-3.92-0.92","4hjremh3c2zqo86",620,"169.csv","","209.5","resources/trios/L2T1A1.jpg","39","restless",0.7,0.4,0.6,0.184912614732635,"true"
"image-keyboard-response",288,244445,"0.0-3.92-1.92","4hjremh3c2zqo86",620,"169.csv","","null","resources/maskTrios/BBA1.jpg","null","",NA,NA,NA,NA,""
"image-keyboard-response",289,245657,"0.0-3.92-2.92","4hjremh3c2zqo86",620,"169.csv","","null","resources/images/coin2.png","null","",NA,NA,NA,NA,""
"image-keyboard-response",290,245795,"0.0-3.93-0.93","4hjremh3c2zqo86",620,"169.csv","","137.29999995231628","resources/trios/L2T1A1.jpg","39","restless",0.7,0.4,0.6,0.82984770544532,"false"
"image-keyboard-response",291,246201,"0.0-3.93-1.93","4hjremh3c2zqo86",620,"169.csv","","null","resources/maskTrios/BBA1.jpg","null","",NA,NA,NA,NA,""
"image-keyboard-response",292,247416,"0.0-3.93-2.93","4hjremh3c2zqo86",620,"169.csv","","null","resources/images/fishbone.png","null","",NA,NA,NA,NA,""
"image-keyboard-response",293,247693,"0.0-3.94-0.94","4hjremh3c2zqo86",620,"169.csv","","275.89999985694885","resources/trios/L2T1A3.jpg","37","restless",0.7,0.4,0.6,0.897828686370159,"false"
"image-keyboard-response",294,248103,"0.0-3.94-1.94","4hjremh3c2zqo86",620,"169.csv","","null","resources/maskTrios/L2BB.jpg","null","",NA,NA,NA,NA,""
"image-keyboard-response",295,249308,"0.0-3.94-2.94","4hjremh3c2zqo86",620,"169.csv","","null","resources/images/fishbone.png","null","",NA,NA,NA,NA,""
"image-keyboard-response",296,249560,"0.0-3.95-0.95","4hjremh3c2zqo86",620,"169.csv","","249.79999995231628","resources/trios/L2T4A1.jpg","37","restless",0.7,0.4,0.6,0.582090240102628,"true"
"image-keyboard-response",297,249972,"0.0-3.95-1.95","4hjremh3c2zqo86",620,"169.csv","","null","resources/maskTrios/L2BB.jpg","null","",NA,NA,NA,NA,""
"image-keyboard-response",298,251177,"0.0-3.95-2.95","4hjremh3c2zqo86",620,"169.csv","","null","resources/images/coin2.png","null","",NA,NA,NA,NA,""
"image-keyboard-response",299,251471,"0.0-3.96-0.96","4hjremh3c2zqo86",620,"169.csv","","291.40000009536743","resources/trios/L2T1A3.jpg","37","restless",0.7,0.4,0.6,0.943518246927401,"false"
"image-keyboard-response",300,251878,"0.0-3.96-1.96","4hjremh3c2zqo86",620,"169.csv","","null","resources/maskTrios/L2BB.jpg","null","",NA,NA,NA,NA,""
"image-keyboard-response",301,253082,"0.0-3.96-2.96","4hjremh3c2zqo86",620,"169.csv","","null","resources/images/fishbone.png","null","",NA,NA,NA,NA,""
"image-keyboard-response",302,253450,"0.0-3.97-0.97","4hjremh3c2zqo86",620,"169.csv","","366.5","resources/trios/L2T4A1.jpg","38","restless",0.7,0.4,0.6,0.962336867652693,"false"
"image-keyboard-response",303,253860,"0.0-3.97-1.97","4hjremh3c2zqo86",620,"169.csv","","null","resources/maskTrios/BT4B.jpg","null","",NA,NA,NA,NA,""
"image-keyboard-response",304,255075,"0.0-3.97-2.97","4hjremh3c2zqo86",620,"169.csv","","null","resources/images/fishbone.png","null","",NA,NA,NA,NA,""
"image-keyboard-response",305,255355,"0.0-3.98-0.98","4hjremh3c2zqo86",620,"169.csv","","278.89999985694885","resources/trios/L4T4A3.jpg","39","restless",0.7,0.4,0.5,0.742239987100972,"false"
"image-keyboard-response",306,255761,"0.0-3.98-1.98","4hjremh3c2zqo86",620,"169.csv","","null","resources/maskTrios/BBA3.jpg","null","",NA,NA,NA,NA,""
"image-keyboard-response",307,256975,"0.0-3.98-2.98","4hjremh3c2zqo86",620,"169.csv","","null","resources/images/fishbone.png","null","",NA,NA,NA,NA,""
"image-keyboard-response",308,257087,"0.0-3.99-0.99","4hjremh3c2zqo86",620,"169.csv","","111","resources/trios/L4T4A1.jpg","39","restless",0.7,0.4,0.5,0.166762914829091,"true"
"image-keyboard-response",309,257498,"0.0-3.99-1.99","4hjremh3c2zqo86",620,"169.csv","","null","resources/maskTrios/BBA1.jpg","null","",NA,NA,NA,NA,""
"image-keyboard-response",310,258706,"0.0-3.99-2.99","4hjremh3c2zqo86",620,"169.csv","","null","resources/images/coin2.png","null","",NA,NA,NA,NA,""
"image-keyboard-response",311,259021,"0.0-3.100-0.100","4hjremh3c2zqo86",620,"169.csv","","312.7000000476837","resources/trios/L4T4A1.jpg","38","restless",0.7,0.4,0.5,0.467356727509789,"false"
"image-keyboard-response",312,259437,"0.0-3.100-1.100","4hjremh3c2zqo86",620,"169.csv","","null","resources/maskTrios/BT4B.jpg","null","",NA,NA,NA,NA,""
"image-keyboard-response",313,260647,"0.0-3.100-2.100","4hjremh3c2zqo86",620,"169.csv","","null","resources/images/fishbone.png","null","",NA,NA,NA,NA,""
"image-keyboard-response",314,260947,"0.0-3.101-0.101","4hjremh3c2zqo86",620,"169.csv","","297.40000009536743","resources/trios/L2T4A3.jpg","37","restless",0.7,0.4,0.5,0.631673844964066,"true"
"image-keyboard-response",315,261364,"0.0-3.101-1.101","4hjremh3c2zqo86",620,"169.csv","","null","resources/maskTrios/L2BB.jpg","null","",NA,NA,NA,NA,""
"image-keyboard-response",316,262575,"0.0-3.101-2.101","4hjremh3c2zqo86",620,"169.csv","","null","resources/images/coin2.png","null","",NA,NA,NA,NA,""
"image-keyboard-response",317,263291,"0.0-3.102-0.102","4hjremh3c2zqo86",620,"169.csv","","714.1999998092651","resources/trios/L4T1A3.jpg","37","restless",0.7,0.4,0.5,0.166196199240365,"true"
"image-keyboard-response",318,263697,"0.0-3.102-1.102","4hjremh3c2zqo86",620,"169.csv","","null","resources/maskTrios/L4BB.jpg","null","",NA,NA,NA,NA,""
"image-keyboard-response",319,264908,"0.0-3.102-2.102","4hjremh3c2zqo86",620,"169.csv","","null","resources/images/coin2.png","null","",NA,NA,NA,NA,""
"image-keyboard-response",320,264961,"0.0-3.103-0.103","4hjremh3c2zqo86",620,"169.csv","","51.40000009536743","resources/trios/L4T4A1.jpg","38","restless",0.7,0.4,0.5,0.117902051014749,"true"
"image-keyboard-response",321,265371,"0.0-3.103-1.103","4hjremh3c2zqo86",620,"169.csv","","null","resources/maskTrios/BT4B.jpg","null","",NA,NA,NA,NA,""
"image-keyboard-response",322,266581,"0.0-3.103-2.103","4hjremh3c2zqo86",620,"169.csv","","null","resources/images/coin2.png","null","",NA,NA,NA,NA,""
"image-keyboard-response",323,267174,"0.0-3.104-0.104","4hjremh3c2zqo86",620,"169.csv","","590.6999998092651","resources/trios/L2T1A1.jpg","39","restless",0.7,0.5,0.5,0.248812050171689,"true"
"image-keyboard-response",324,267591,"0.0-3.104-1.104","4hjremh3c2zqo86",620,"169.csv","","null","resources/maskTrios/BBA1.jpg","null","",NA,NA,NA,NA,""
"image-keyboard-response",325,268802,"0.0-3.104-2.104","4hjremh3c2zqo86",620,"169.csv","","null","resources/images/coin2.png","null","",NA,NA,NA,NA,""
"image-keyboard-response",326,269012,"0.0-3.105-0.105","4hjremh3c2zqo86",620,"169.csv","","208.5","resources/trios/L2T4A1.jpg","39","restless",0.7,0.5,0.5,0.149931993542603,"true"
"image-keyboard-response",327,269420,"0.0-3.105-1.105","4hjremh3c2zqo86",620,"169.csv","","null","resources/maskTrios/BBA1.jpg","null","",NA,NA,NA,NA,""
"image-keyboard-response",328,270624,"0.0-3.105-2.105","4hjremh3c2zqo86",620,"169.csv","","null","resources/images/coin2.png","null","",NA,NA,NA,NA,""
"image-keyboard-response",329,270871,"0.0-3.106-0.106","4hjremh3c2zqo86",620,"169.csv","","244.30000019073486","resources/trios/L4T4A1.jpg","38","restless",0.7,0.5,0.5,0.490308338067999,"true"
"image-keyboard-response",330,271274,"0.0-3.106-1.106","4hjremh3c2zqo86",620,"169.csv","","null","resources/maskTrios/BT4B.jpg","null","",NA,NA,NA,NA,""
"image-keyboard-response",331,272489,"0.0-3.106-2.106","4hjremh3c2zqo86",620,"169.csv","","null","resources/images/coin2.png","null","",NA,NA,NA,NA,""
"image-keyboard-response",332,272599,"0.0-3.107-0.107","4hjremh3c2zqo86",620,"169.csv","","108.10000014305115","resources/trios/L4T1A3.jpg","37","restless",0.7,0.5,0.5,0.124354629325239,"true"
"image-keyboard-response",333,273015,"0.0-3.107-1.107","4hjremh3c2zqo86",620,"169.csv","","null","resources/maskTrios/L4BB.jpg","null","",NA,NA,NA,NA,""
"image-keyboard-response",334,274219,"0.0-3.107-2.107","4hjremh3c2zqo86",620,"169.csv","","null","resources/images/coin2.png","null","",NA,NA,NA,NA,""
"image-keyboard-response",335,274412,"0.0-3.108-0.108","4hjremh3c2zqo86",620,"169.csv","","191.5","resources/trios/L4T1A1.jpg","38","restless",0.7,0.5,0.5,0.789456214104526,"false"
"image-keyboard-response",336,274823,"0.0-3.108-1.108","4hjremh3c2zqo86",620,"169.csv","","null","resources/maskTrios/BT1B.jpg","null","",NA,NA,NA,NA,""
"image-keyboard-response",337,276028,"0.0-3.108-2.108","4hjremh3c2zqo86",620,"169.csv","","null","resources/images/fishbone.png","null","",NA,NA,NA,NA,""
"image-keyboard-response",338,276143,"0.0-3.109-0.109","4hjremh3c2zqo86",620,"169.csv","","113.5","resources/trios/L2T1A3.jpg","39","restless",0.7,0.5,0.5,0.915491575003379,"false"
"image-keyboard-response",339,276556,"0.0-3.109-1.109","4hjremh3c2zqo86",620,"169.csv","","null","resources/maskTrios/BBA3.jpg","null","",NA,NA,NA,NA,""
"image-keyboard-response",340,277773,"0.0-3.109-2.109","4hjremh3c2zqo86",620,"169.csv","","null","resources/images/fishbone.png","null","",NA,NA,NA,NA,""
"image-keyboard-response",341,278181,"0.0-3.110-0.110","4hjremh3c2zqo86",620,"169.csv","","406.30000019073486","resources/trios/L2T1A1.jpg","39","restless",0.7,0.5,0.5,0.321574605348919,"true"
"image-keyboard-response",342,278594,"0.0-3.110-1.110","4hjremh3c2zqo86",620,"169.csv","","null","resources/maskTrios/BBA1.jpg","null","",NA,NA,NA,NA,""
"image-keyboard-response",343,279809,"0.0-3.110-2.110","4hjremh3c2zqo86",620,"169.csv","","null","resources/images/coin2.png","null","",NA,NA,NA,NA,""
"image-keyboard-response",344,284244,"0.0-3.111-0.111","4hjremh3c2zqo86",620,"169.csv","","4432.200000047684","resources/trios/L2T4A1.jpg","37","restless",0.7,0.6,0.5,0.866331476252579,"false"
"image-keyboard-response",345,284648,"0.0-3.111-1.111","4hjremh3c2zqo86",620,"169.csv","","null","resources/maskTrios/L2BB.jpg","null","",NA,NA,NA,NA,""
"image-keyboard-response",346,285855,"0.0-3.111-2.111","4hjremh3c2zqo86",620,"169.csv","","null","resources/images/fishbone.png","null","",NA,NA,NA,NA,""
"image-keyboard-response",347,288897,"0.0-3.112-0.112","4hjremh3c2zqo86",620,"169.csv","","3040.7000000476837","resources/trios/L4T4A3.jpg","37","restless",0.7,0.6,0.5,0.259996000988356,"true"
"image-keyboard-response",348,289312,"0.0-3.112-1.112","4hjremh3c2zqo86",620,"169.csv","","null","resources/maskTrios/L4BB.jpg","null","",NA,NA,NA,NA,""
"image-keyboard-response",349,290524,"0.0-3.112-2.112","4hjremh3c2zqo86",620,"169.csv","","null","resources/images/coin2.png","null","",NA,NA,NA,NA,""
"image-keyboard-response",350,290965,"0.0-3.113-0.113","4hjremh3c2zqo86",620,"169.csv","","439.5","resources/trios/L4T1A1.jpg","39","restless",0.7,0.6,0.5,0.132641804264191,"true"
"image-keyboard-response",351,291375,"0.0-3.113-1.113","4hjremh3c2zqo86",620,"169.csv","","null","resources/maskTrios/BBA1.jpg","null","",NA,NA,NA,NA,""
"image-keyboard-response",352,292588,"0.0-3.113-2.113","4hjremh3c2zqo86",620,"169.csv","","null","resources/images/coin2.png","null","",NA,NA,NA,NA,""
"image-keyboard-response",353,292821,"0.0-3.114-0.114","4hjremh3c2zqo86",620,"169.csv","","231","resources/trios/L2T1A3.jpg","37","restless",0.7,0.6,0.5,0.358384816006773,"true"
"image-keyboard-response",354,293226,"0.0-3.114-1.114","4hjremh3c2zqo86",620,"169.csv","","null","resources/maskTrios/L2BB.jpg","null","",NA,NA,NA,NA,""
"image-keyboard-response",355,294438,"0.0-3.114-2.114","4hjremh3c2zqo86",620,"169.csv","","null","resources/images/coin2.png","null","",NA,NA,NA,NA,""
"image-keyboard-response",356,294663,"0.0-3.115-0.115","4hjremh3c2zqo86",620,"169.csv","","223","resources/trios/L4T4A3.jpg","39","restless",0.7,0.6,0.5,0.69099485559482,"false"
"image-keyboard-response",357,295078,"0.0-3.115-1.115","4hjremh3c2zqo86",620,"169.csv","","null","resources/maskTrios/BBA3.jpg","null","",NA,NA,NA,NA,""
"image-keyboard-response",358,296291,"0.0-3.115-2.115","4hjremh3c2zqo86",620,"169.csv","","null","resources/images/fishbone.png","null","",NA,NA,NA,NA,""
"image-keyboard-response",359,296424,"0.0-3.116-0.116","4hjremh3c2zqo86",620,"169.csv","","131.79999995231628","resources/trios/L2T1A3.jpg","37","restless",0.7,0.6,0.5,0.143019862876654,"true"
"image-keyboard-response",360,296834,"0.0-3.116-1.116","4hjremh3c2zqo86",620,"169.csv","","null","resources/maskTrios/L2BB.jpg","null","",NA,NA,NA,NA,""
"image-keyboard-response",361,298049,"0.0-3.116-2.116","4hjremh3c2zqo86",620,"169.csv","","null","resources/images/coin2.png","null","",NA,NA,NA,NA,""
"image-keyboard-response",362,298119,"0.0-3.117-0.117","4hjremh3c2zqo86",620,"169.csv","","68.10000014305115","resources/trios/L2T4A1.jpg","37","restless",0.7,0.5,0.5,0.693779378962879,"true"
"image-keyboard-response",363,298528,"0.0-3.117-1.117","4hjremh3c2zqo86",620,"169.csv","","null","resources/maskTrios/L2BB.jpg","null","",NA,NA,NA,NA,""
"image-keyboard-response",364,299736,"0.0-3.117-2.117","4hjremh3c2zqo86",620,"169.csv","","null","resources/images/coin2.png","null","",NA,NA,NA,NA,""
"image-keyboard-response",365,299766,"0.0-3.118-0.118","4hjremh3c2zqo86",620,"169.csv","","28.5","resources/trios/L4T1A1.jpg","37","restless",0.6,0.5,0.5,0.890841263574272,"false"
"image-keyboard-response",366,300170,"0.0-3.118-1.118","4hjremh3c2zqo86",620,"169.csv","","null","resources/maskTrios/L4BB.jpg","null","",NA,NA,NA,NA,""
"image-keyboard-response",367,301382,"0.0-3.118-2.118","4hjremh3c2zqo86",620,"169.csv","","null","resources/images/fishbone.png","null","",NA,NA,NA,NA,""
"image-keyboard-response",368,302170,"0.0-3.119-0.119","4hjremh3c2zqo86",620,"169.csv","","785.9000000953674","resources/trios/L4T4A1.jpg","38","restless",0.6,0.5,0.5,0.0328872043391488,"true"
"image-keyboard-response",369,302584,"0.0-3.119-1.119","4hjremh3c2zqo86",620,"169.csv","","null","resources/maskTrios/BT4B.jpg","null","",NA,NA,NA,NA,""
"image-keyboard-response",370,303798,"0.0-3.119-2.119","4hjremh3c2zqo86",620,"169.csv","","null","resources/images/coin2.png","null","",NA,NA,NA,NA,""
"image-keyboard-response",371,304059,"0.0-3.120-0.120","4hjremh3c2zqo86",620,"169.csv","","258.69999980926514","resources/trios/L4T1A3.jpg","39","restless",0.5,0.5,0.5,0.643792615517794,"false"
"image-keyboard-response",372,304464,"0.0-3.120-1.120","4hjremh3c2zqo86",620,"169.csv","","null","resources/maskTrios/BBA3.jpg","null","",NA,NA,NA,NA,""
"image-keyboard-response",373,305678,"0.0-3.120-2.120","4hjremh3c2zqo86",620,"169.csv","","null","resources/images/fishbone.png","null","",NA,NA,NA,NA,""
"image-keyboard-response",374,305863,"0.0-3.121-0.121","4hjremh3c2zqo86",620,"169.csv","","183.79999995231628","resources/trios/L2T4A1.jpg","39","restless",0.5,0.5,0.5,0.622534576085008,"false"
"image-keyboard-response",375,306271,"0.0-3.121-1.121","4hjremh3c2zqo86",620,"169.csv","","null","resources/maskTrios/BBA1.jpg","null","",NA,NA,NA,NA,""
"image-keyboard-response",376,307492,"0.0-3.121-2.121","4hjremh3c2zqo86",620,"169.csv","","null","resources/images/fishbone.png","null","",NA,NA,NA,NA,""
"image-keyboard-response",377,307721,"0.0-3.122-0.122","4hjremh3c2zqo86",620,"169.csv","","227.60000014305115","resources/trios/L2T4A3.jpg","38","restless",0.5,0.5,0.5,0.763905620260119,"false"
"image-keyboard-response",378,308124,"0.0-3.122-1.122","4hjremh3c2zqo86",620,"169.csv","","null","resources/maskTrios/BT4B.jpg","null","",NA,NA,NA,NA,""
"image-keyboard-response",379,309327,"0.0-3.122-2.122","4hjremh3c2zqo86",620,"169.csv","","null","resources/images/fishbone.png","null","",NA,NA,NA,NA,""
"image-keyboard-response",380,309573,"0.0-3.123-0.123","4hjremh3c2zqo86",620,"169.csv","","243.40000009536743","resources/trios/L2T4A1.jpg","38","restless",0.5,0.5,0.6,0.962366044597319,"false"
"image-keyboard-response",381,309978,"0.0-3.123-1.123","4hjremh3c2zqo86",620,"169.csv","","null","resources/maskTrios/BT4B.jpg","null","",NA,NA,NA,NA,""
"image-keyboard-response",382,311185,"0.0-3.123-2.123","4hjremh3c2zqo86",620,"169.csv","","null","resources/images/fishbone.png","null","",NA,NA,NA,NA,""
"image-keyboard-response",383,311504,"0.0-3.124-0.124","4hjremh3c2zqo86",620,"169.csv","","316.39999985694885","resources/trios/L4T4A1.jpg","37","restless",0.5,0.5,0.6,0.302684019552043,"true"
"image-keyboard-response",384,311918,"0.0-3.124-1.124","4hjremh3c2zqo86",620,"169.csv","","null","resources/maskTrios/L4BB.jpg","null","",NA,NA,NA,NA,""
"image-keyboard-response",385,313132,"0.0-3.124-2.124","4hjremh3c2zqo86",620,"169.csv","","null","resources/images/coin2.png","null","",NA,NA,NA,NA,""
"image-keyboard-response",386,313401,"0.0-3.125-0.125","4hjremh3c2zqo86",620,"169.csv","","267.2000000476837","resources/trios/L2T4A3.jpg","37","restless",0.5,0.5,0.6,0.586197301446282,"false"
"image-keyboard-response",387,313818,"0.0-3.125-1.125","4hjremh3c2zqo86",620,"169.csv","","null","resources/maskTrios/L2BB.jpg","null","",NA,NA,NA,NA,""
"image-keyboard-response",388,315021,"0.0-3.125-2.125","4hjremh3c2zqo86",620,"169.csv","","null","resources/images/fishbone.png","null","",NA,NA,NA,NA,""
"image-keyboard-response",389,315273,"0.0-3.126-0.126","4hjremh3c2zqo86",620,"169.csv","","251","resources/trios/L4T4A1.jpg","38","restless",0.5,0.5,0.6,0.284583197758213,"true"
"image-keyboard-response",390,315677,"0.0-3.126-1.126","4hjremh3c2zqo86",620,"169.csv","","null","resources/maskTrios/BT4B.jpg","null","",NA,NA,NA,NA,""
"image-keyboard-response",391,316883,"0.0-3.126-2.126","4hjremh3c2zqo86",620,"169.csv","","null","resources/images/coin2.png","null","",NA,NA,NA,NA,""
"image-keyboard-response",392,317101,"0.0-3.127-0.127","4hjremh3c2zqo86",620,"169.csv","","216.29999995231628","resources/trios/L4T4A3.jpg","38","restless",0.5,0.5,0.6,0.561409093155311,"false"
"image-keyboard-response",393,317504,"0.0-3.127-1.127","4hjremh3c2zqo86",620,"169.csv","","null","resources/maskTrios/BT4B.jpg","null","",NA,NA,NA,NA,""
"image-keyboard-response",394,318719,"0.0-3.127-2.127","4hjremh3c2zqo86",620,"169.csv","","null","resources/images/fishbone.png","null","",NA,NA,NA,NA,""
"image-keyboard-response",395,319004,"0.0-3.128-0.128","4hjremh3c2zqo86",620,"169.csv","","282.90000009536743","resources/trios/L4T4A1.jpg","39","restless",0.5,0.5,0.6,0.896939437890087,"false"
"image-keyboard-response",396,319417,"0.0-3.128-1.128","4hjremh3c2zqo86",620,"169.csv","","null","resources/maskTrios/BBA1.jpg","null","",NA,NA,NA,NA,""
"image-keyboard-response",397,320625,"0.0-3.128-2.128","4hjremh3c2zqo86",620,"169.csv","","null","resources/images/fishbone.png","null","",NA,NA,NA,NA,""
"image-keyboard-response",398,320900,"0.0-3.129-0.129","4hjremh3c2zqo86",620,"169.csv","","273.7000000476837","resources/trios/L4T1A3.jpg","39","restless",0.5,0.5,0.6,0.347278713001108,"true"
"image-keyboard-response",399,321305,"0.0-3.129-1.129","4hjremh3c2zqo86",620,"169.csv","","null","resources/maskTrios/BBA3.jpg","null","",NA,NA,NA,NA,""
"image-keyboard-response",400,322510,"0.0-3.129-2.129","4hjremh3c2zqo86",620,"169.csv","","null","resources/images/coin2.png","null","",NA,NA,NA,NA,""
"image-keyboard-response",401,322910,"0.0-3.130-0.130","4hjremh3c2zqo86",620,"169.csv","","398.09999990463257","resources/trios/L4T1A3.jpg","38","restless",0.5,0.5,0.6,0.60106678046915,"false"
"image-keyboard-response",402,323318,"0.0-3.130-1.130","4hjremh3c2zqo86",620,"169.csv","","null","resources/maskTrios/BT1B.jpg","null","",NA,NA,NA,NA,""
"image-keyboard-response",403,324535,"0.0-3.130-2.130","4hjremh3c2zqo86",620,"169.csv","","null","resources/images/fishbone.png","null","",NA,NA,NA,NA,""
"image-keyboard-response",404,324843,"0.0-3.131-0.131","4hjremh3c2zqo86",620,"169.csv","","306.2999999523163","resources/trios/L4T4A3.jpg","38","restless",0.5,0.5,0.6,0.52581167619891,"false"
"image-keyboard-response",405,325249,"0.0-3.131-1.131","4hjremh3c2zqo86",620,"169.csv","","null","resources/maskTrios/BT4B.jpg","null","",NA,NA,NA,NA,""
"image-keyboard-response",406,326462,"0.0-3.131-2.131","4hjremh3c2zqo86",620,"169.csv","","null","resources/images/fishbone.png","null","",NA,NA,NA,NA,""
"image-keyboard-response",407,326710,"0.0-3.132-0.132","4hjremh3c2zqo86",620,"169.csv","","246.79999995231628","resources/trios/L4T1A3.jpg","37","restless",0.5,0.5,0.6,0.0215686261892847,"true"
"image-keyboard-response",408,327113,"0.0-3.132-1.132","4hjremh3c2zqo86",620,"169.csv","","null","resources/maskTrios/L4BB.jpg","null","",NA,NA,NA,NA,""
"image-keyboard-response",409,328328,"0.0-3.132-2.132","4hjremh3c2zqo86",620,"169.csv","","null","resources/images/coin2.png","null","",NA,NA,NA,NA,""
"image-keyboard-response",410,328617,"0.0-3.133-0.133","4hjremh3c2zqo86",620,"169.csv","","287.2999999523163","resources/trios/L4T1A3.jpg","37","restless",0.5,0.6,0.7,0.437053460812777,"true"
"image-keyboard-response",411,329027,"0.0-3.133-1.133","4hjremh3c2zqo86",620,"169.csv","","null","resources/maskTrios/L4BB.jpg","null","",NA,NA,NA,NA,""
"image-keyboard-response",412,330238,"0.0-3.133-2.133","4hjremh3c2zqo86",620,"169.csv","","null","resources/images/coin2.png","null","",NA,NA,NA,NA,""
"image-keyboard-response",413,330605,"0.0-3.134-0.134","4hjremh3c2zqo86",620,"169.csv","","364.40000009536743","resources/trios/L4T1A3.jpg","38","restless",0.5,0.6,0.7,0.484625380430954,"true"
"image-keyboard-response",414,331015,"0.0-3.134-1.134","4hjremh3c2zqo86",620,"169.csv","","null","resources/maskTrios/BT1B.jpg","null","",NA,NA,NA,NA,""
"image-keyboard-response",415,332226,"0.0-3.134-2.134","4hjremh3c2zqo86",620,"169.csv","","null","resources/images/coin2.png","null","",NA,NA,NA,NA,""
"image-keyboard-response",416,332532,"0.0-3.135-0.135","4hjremh3c2zqo86",620,"169.csv","","304.39999985694885","resources/trios/L4T4A3.jpg","39","restless",0.5,0.6,0.6,0.997958960149974,"false"
"image-keyboard-response",417,332948,"0.0-3.135-1.135","4hjremh3c2zqo86",620,"169.csv","","null","resources/maskTrios/BBA3.jpg","null","",NA,NA,NA,NA,""
"image-keyboard-response",418,334151,"0.0-3.135-2.135","4hjremh3c2zqo86",620,"169.csv","","null","resources/images/fishbone.png","null","",NA,NA,NA,NA,""
"image-keyboard-response",419,334359,"0.0-3.136-0.136","4hjremh3c2zqo86",620,"169.csv","","205.60000014305115","resources/trios/L4T1A3.jpg","39","restless",0.5,0.6,0.6,0.254596103284693,"true"
"image-keyboard-response",420,334772,"0.0-3.136-1.136","4hjremh3c2zqo86",620,"169.csv","","null","resources/maskTrios/BBA3.jpg","null","",NA,NA,NA,NA,""
"image-keyboard-response",421,335979,"0.0-3.136-2.136","4hjremh3c2zqo86",620,"169.csv","","null","resources/images/coin2.png","null","",NA,NA,NA,NA,""
"image-keyboard-response",422,336346,"0.0-3.137-0.137","4hjremh3c2zqo86",620,"169.csv","","365","resources/trios/L4T4A1.jpg","39","restless",0.5,0.5,0.6,0.865310152239511,"false"
"image-keyboard-response",423,336756,"0.0-3.137-1.137","4hjremh3c2zqo86",620,"169.csv","","null","resources/maskTrios/BBA1.jpg","null","",NA,NA,NA,NA,""
"image-keyboard-response",424,337964,"0.0-3.137-2.137","4hjremh3c2zqo86",620,"169.csv","","null","resources/images/fishbone.png","null","",NA,NA,NA,NA,""
"image-keyboard-response",425,338080,"0.0-3.138-0.138","4hjremh3c2zqo86",620,"169.csv","","114.20000004768372","resources/trios/L4T4A1.jpg","38","restless",0.5,0.5,0.6,0.00253748795850273,"true"
"image-keyboard-response",426,338492,"0.0-3.138-1.138","4hjremh3c2zqo86",620,"169.csv","","null","resources/maskTrios/BT4B.jpg","null","",NA,NA,NA,NA,""
"image-keyboard-response",427,339705,"0.0-3.138-2.138","4hjremh3c2zqo86",620,"169.csv","","null","resources/images/coin2.png","null","",NA,NA,NA,NA,""
"image-keyboard-response",428,339945,"0.0-3.139-0.139","4hjremh3c2zqo86",620,"169.csv","","238.70000004768372","resources/trios/L4T1A1.jpg","38","restless",0.5,0.5,0.7,0.598545656748465,"false"
"image-keyboard-response",429,340354,"0.0-3.139-1.139","4hjremh3c2zqo86",620,"169.csv","","null","resources/maskTrios/BT1B.jpg","null","",NA,NA,NA,NA,""
"image-keyboard-response",430,341562,"0.0-3.139-2.139","4hjremh3c2zqo86",620,"169.csv","","null","resources/images/fishbone.png","null","",NA,NA,NA,NA,""
"image-keyboard-response",431,341763,"0.0-3.140-0.140","4hjremh3c2zqo86",620,"169.csv","","198.90000009536743","resources/trios/L4T1A1.jpg","37","restless",0.5,0.5,0.7,0.914187315063919,"false"
"image-keyboard-response",432,342168,"0.0-3.140-1.140","4hjremh3c2zqo86",620,"169.csv","","null","resources/maskTrios/L4BB.jpg","null","",NA,NA,NA,NA,""
"image-keyboard-response",433,343385,"0.0-3.140-2.140","4hjremh3c2zqo86",620,"169.csv","","null","resources/images/fishbone.png","null","",NA,NA,NA,NA,""
"image-keyboard-response",434,343427,"0.0-3.141-0.141","4hjremh3c2zqo86",620,"169.csv","","40.5","resources/trios/L2T4A1.jpg","37","restless",0.5,0.5,0.7,0.276760112542257,"true"
"image-keyboard-response",435,343836,"0.0-3.141-1.141","4hjremh3c2zqo86",620,"169.csv","","null","resources/maskTrios/L2BB.jpg","null","",NA,NA,NA,NA,""
"image-keyboard-response",436,345049,"0.0-3.141-2.141","4hjremh3c2zqo86",620,"169.csv","","null","resources/images/coin2.png","null","",NA,NA,NA,NA,""
"image-keyboard-response",437,345131,"0.0-3.142-0.142","4hjremh3c2zqo86",620,"169.csv","","81.09999990463257","resources/trios/L4T1A3.jpg","37","restless",0.6,0.5,0.7,0.23463465455699,"true"
"image-keyboard-response",438,345547,"0.0-3.142-1.142","4hjremh3c2zqo86",620,"169.csv","","null","resources/maskTrios/L4BB.jpg","null","",NA,NA,NA,NA,""
"image-keyboard-response",439,346757,"0.0-3.142-2.142","4hjremh3c2zqo86",620,"169.csv","","null","resources/images/coin2.png","null","",NA,NA,NA,NA,""
"image-keyboard-response",440,347249,"0.0-3.143-0.143","4hjremh3c2zqo86",620,"169.csv","","490.89999985694885","resources/trios/L4T1A1.jpg","37","restless",0.6,0.5,0.7,0.91343911540598,"false"
"image-keyboard-response",441,347661,"0.0-3.143-1.143","4hjremh3c2zqo86",620,"169.csv","","null","resources/maskTrios/L4BB.jpg","null","",NA,NA,NA,NA,""
"image-keyboard-response",442,348873,"0.0-3.143-2.143","4hjremh3c2zqo86",620,"169.csv","","null","resources/images/fishbone.png","null","",NA,NA,NA,NA,""
"image-keyboard-response",443,349079,"0.0-3.144-0.144","4hjremh3c2zqo86",620,"169.csv","","203.60000014305115","resources/trios/L4T1A3.jpg","38","restless",0.5,0.4,0.7,0.3747820834732,"true"
"image-keyboard-response",444,349491,"0.0-3.144-1.144","4hjremh3c2zqo86",620,"169.csv","","null","resources/maskTrios/BT1B.jpg","null","",NA,NA,NA,NA,""
"image-keyboard-response",445,350704,"0.0-3.144-2.144","4hjremh3c2zqo86",620,"169.csv","","null","resources/images/coin2.png","null","",NA,NA,NA,NA,""
"image-keyboard-response",446,350729,"0.0-3.145-0.145","4hjremh3c2zqo86",620,"169.csv","","22.700000047683716","resources/trios/L4T4A3.jpg","39","restless",0.5,0.4,0.6,0.464345480026455,"true"
"image-keyboard-response",447,351133,"0.0-3.145-1.145","4hjremh3c2zqo86",620,"169.csv","","null","resources/maskTrios/BBA3.jpg","null","",NA,NA,NA,NA,""
"image-keyboard-response",448,352344,"0.0-3.145-2.145","4hjremh3c2zqo86",620,"169.csv","","null","resources/images/coin2.png","null","",NA,NA,NA,NA,""
"image-keyboard-response",449,352550,"0.0-3.146-0.146","4hjremh3c2zqo86",620,"169.csv","","205","resources/trios/L2T4A3.jpg","37","restless",0.5,0.4,0.6,0.740906631483129,"false"
"image-keyboard-response",450,352967,"0.0-3.146-1.146","4hjremh3c2zqo86",620,"169.csv","","null","resources/maskTrios/L2BB.jpg","null","",NA,NA,NA,NA,""
"image-keyboard-response",451,354171,"0.0-3.146-2.146","4hjremh3c2zqo86",620,"169.csv","","null","resources/images/fishbone.png","null","",NA,NA,NA,NA,""
"image-keyboard-response",452,354418,"0.0-3.147-0.147","4hjremh3c2zqo86",620,"169.csv","","245.70000004768372","resources/trios/L2T1A3.jpg","38","restless",0.5,0.4,0.6,0.268457799557724,"true"
"image-keyboard-response",453,354827,"0.0-3.147-1.147","4hjremh3c2zqo86",620,"169.csv","","null","resources/maskTrios/BT1B.jpg","null","",NA,NA,NA,NA,""
"image-keyboard-response",454,356042,"0.0-3.147-2.147","4hjremh3c2zqo86",620,"169.csv","","null","resources/images/coin2.png","null","",NA,NA,NA,NA,""
"image-keyboard-response",455,356324,"0.0-3.148-0.148","4hjremh3c2zqo86",620,"169.csv","","280.5","resources/trios/L4T1A1.jpg","39","restless",0.5,0.4,0.6,0.87508879127833,"false"
"image-keyboard-response",456,356740,"0.0-3.148-1.148","4hjremh3c2zqo86",620,"169.csv","","null","resources/maskTrios/BBA1.jpg","null","",NA,NA,NA,NA,""
"image-keyboard-response",457,357954,"0.0-3.148-2.148","4hjremh3c2zqo86",620,"169.csv","","null","resources/images/fishbone.png","null","",NA,NA,NA,NA,""
"image-keyboard-response",458,358255,"0.0-3.149-0.149","4hjremh3c2zqo86",620,"169.csv","","300.09999990463257","resources/trios/L4T4A1.jpg","38","restless",0.5,0.4,0.6,0.986344839969215,"false"
"image-keyboard-response",459,358665,"0.0-3.149-1.149","4hjremh3c2zqo86",620,"169.csv","","null","resources/maskTrios/BT4B.jpg","null","",NA,NA,NA,NA,""
"image-keyboard-response",460,359881,"0.0-3.149-2.149","4hjremh3c2zqo86",620,"169.csv","","null","resources/images/fishbone.png","null","",NA,NA,NA,NA,""
"image-keyboard-response",461,360084,"0.0-3.150-0.150","4hjremh3c2zqo86",620,"169.csv","","201.5","resources/trios/L2T4A3.jpg","37","restless",0.5,0.4,0.6,0.0743216741549748,"true"
"image-keyboard-response",462,360499,"0.0-3.150-1.150","4hjremh3c2zqo86",620,"169.csv","","null","resources/maskTrios/L2BB.jpg","null","",NA,NA,NA,NA,""
"image-keyboard-response",463,361713,"0.0-3.150-2.150","4hjremh3c2zqo86",620,"169.csv","","null","resources/images/coin2.png","null","",NA,NA,NA,NA,""
"image-keyboard-response",464,361916,"0.0-3.151-0.151","4hjremh3c2zqo86",620,"169.csv","","201.29999995231628","resources/trios/L4T4A3.jpg","38","restless",0.5,0.3,0.6,0.686444844638052,"false"
"image-keyboard-response",465,362332,"0.0-3.151-1.151","4hjremh3c2zqo86",620,"169.csv","","null","resources/maskTrios/BT4B.jpg","null","",NA,NA,NA,NA,""
"image-keyboard-response",466,363548,"0.0-3.151-2.151","4hjremh3c2zqo86",620,"169.csv","","null","resources/images/fishbone.png","null","",NA,NA,NA,NA,""
"image-keyboard-response",467,363820,"0.0-3.152-0.152","4hjremh3c2zqo86",620,"169.csv","","270.2999999523163","resources/trios/L4T4A1.jpg","38","restless",0.5,0.3,0.6,0.896815941285971,"false"
"image-keyboard-response",468,364234,"0.0-3.152-1.152","4hjremh3c2zqo86",620,"169.csv","","null","resources/maskTrios/BT4B.jpg","null","",NA,NA,NA,NA,""
"image-keyboard-response",469,365448,"0.0-3.152-2.152","4hjremh3c2zqo86",620,"169.csv","","null","resources/images/fishbone.png","null","",NA,NA,NA,NA,""
"image-keyboard-response",470,365717,"0.0-3.153-0.153","4hjremh3c2zqo86",620,"169.csv","","266.90000009536743","resources/trios/L4T4A1.jpg","37","restless",0.5,0.3,0.6,0.294450111084621,"true"
"image-keyboard-response",471,366120,"0.0-3.153-1.153","4hjremh3c2zqo86",620,"169.csv","","null","resources/maskTrios/L4BB.jpg","null","",NA,NA,NA,NA,""
"image-keyboard-response",472,367334,"0.0-3.153-2.153","4hjremh3c2zqo86",620,"169.csv","","null","resources/images/coin2.png","null","",NA,NA,NA,NA,""
"image-keyboard-response",473,367649,"0.0-3.154-0.154","4hjremh3c2zqo86",620,"169.csv","","313.30000019073486","resources/trios/L4T4A3.jpg","38","restless",0.5,0.2,0.6,0.232795888571252,"false"
"image-keyboard-response",474,368055,"0.0-3.154-1.154","4hjremh3c2zqo86",620,"169.csv","","null","resources/maskTrios/BT4B.jpg","null","",NA,NA,NA,NA,""
"image-keyboard-response",475,369261,"0.0-3.154-2.154","4hjremh3c2zqo86",620,"169.csv","","null","resources/images/fishbone.png","null","",NA,NA,NA,NA,""
"image-keyboard-response",476,369586,"0.0-3.155-0.155","4hjremh3c2zqo86",620,"169.csv","","323.60000014305115","resources/trios/L4T4A1.jpg","39","restless",0.5,0.2,0.6,0.733490901264249,"false"
"image-keyboard-response",477,369991,"0.0-3.155-1.155","4hjremh3c2zqo86",620,"169.csv","","null","resources/maskTrios/BBA1.jpg","null","",NA,NA,NA,NA,""
"image-keyboard-response",478,371195,"0.0-3.155-2.155","4hjremh3c2zqo86",620,"169.csv","","null","resources/images/fishbone.png","null","",NA,NA,NA,NA,""
"image-keyboard-response",479,371586,"0.0-3.156-0.156","4hjremh3c2zqo86",620,"169.csv","","389.2999999523163","resources/trios/L2T1A1.jpg","38","restless",0.5,0.2,0.6,0.0754996903186331,"true"
"image-keyboard-response",480,371994,"0.0-3.156-1.156","4hjremh3c2zqo86",620,"169.csv","","null","resources/maskTrios/BT1B.jpg","null","",NA,NA,NA,NA,""
"image-keyboard-response",481,373205,"0.0-3.156-2.156","4hjremh3c2zqo86",620,"169.csv","","null","resources/images/coin2.png","null","",NA,NA,NA,NA,""
"image-keyboard-response",482,373453,"0.0-3.157-0.157","4hjremh3c2zqo86",620,"169.csv","","247.20000004768372","resources/trios/L4T1A1.jpg","37","restless",0.5,0.2,0.6,0.473491320496501,"true"
"image-keyboard-response",483,373860,"0.0-3.157-1.157","4hjremh3c2zqo86",620,"169.csv","","null","resources/maskTrios/L4BB.jpg","null","",NA,NA,NA,NA,""
"image-keyboard-response",484,375075,"0.0-3.157-2.157","4hjremh3c2zqo86",620,"169.csv","","null","resources/images/coin2.png","null","",NA,NA,NA,NA,""
"image-keyboard-response",485,375306,"0.0-3.158-0.158","4hjremh3c2zqo86",620,"169.csv","","229.90000009536743","resources/trios/L4T1A1.jpg","38","restless",0.5,0.2,0.6,0.451850942133157,"false"
"image-keyboard-response",486,375708,"0.0-3.158-1.158","4hjremh3c2zqo86",620,"169.csv","","null","resources/maskTrios/BT1B.jpg","null","",NA,NA,NA,NA,""
"image-keyboard-response",487,376912,"0.0-3.158-2.158","4hjremh3c2zqo86",620,"169.csv","","null","resources/images/fishbone.png","null","",NA,NA,NA,NA,""
"image-keyboard-response",488,377145,"0.0-3.159-0.159","4hjremh3c2zqo86",620,"169.csv","","230.60000014305115","resources/trios/L4T4A3.jpg","39","restless",0.5,0.2,0.6,0.197136916176381,"true"
"image-keyboard-response",489,377552,"0.0-3.159-1.159","4hjremh3c2zqo86",620,"169.csv","","null","resources/maskTrios/BBA3.jpg","null","",NA,NA,NA,NA,""
"image-keyboard-response",490,378765,"0.0-3.159-2.159","4hjremh3c2zqo86",620,"169.csv","","null","resources/images/coin2.png","null","",NA,NA,NA,NA,""
"image-keyboard-response",491,378983,"0.0-3.160-0.160","4hjremh3c2zqo86",620,"169.csv","","215.79999995231628","resources/trios/L4T1A1.jpg","39","restless",0.5,0.2,0.6,0.484574936266793,"true"
"image-keyboard-response",492,379387,"0.0-3.160-1.160","4hjremh3c2zqo86",620,"169.csv","","null","resources/maskTrios/BBA1.jpg","null","",NA,NA,NA,NA,""
"image-keyboard-response",493,380600,"0.0-3.160-2.160","4hjremh3c2zqo86",620,"169.csv","","null","resources/images/coin2.png","null","",NA,NA,NA,NA,""
"image-keyboard-response",494,380700,"0.0-3.161-0.161","4hjremh3c2zqo86",620,"169.csv","","97.80000019073486","resources/trios/L2T4A1.jpg","38","restless",0.4,0.2,0.6,0.88625540495783,"false"
"image-keyboard-response",495,381112,"0.0-3.161-1.161","4hjremh3c2zqo86",620,"169.csv","","null","resources/maskTrios/BT4B.jpg","null","",NA,NA,NA,NA,""
"image-keyboard-response",496,382318,"0.0-3.161-2.161","4hjremh3c2zqo86",620,"169.csv","","null","resources/images/fishbone.png","null","",NA,NA,NA,NA,""
"image-keyboard-response",497,383088,"0.0-3.162-0.162","4hjremh3c2zqo86",620,"169.csv","","768.7000000476837","resources/trios/L2T1A3.jpg","37","restless",0.4,0.2,0.6,0.308666049806414,"true"
"image-keyboard-response",498,383505,"0.0-3.162-1.162","4hjremh3c2zqo86",620,"169.csv","","null","resources/maskTrios/L2BB.jpg","null","",NA,NA,NA,NA,""
"image-keyboard-response",499,384715,"0.0-3.162-2.162","4hjremh3c2zqo86",620,"169.csv","","null","resources/images/coin2.png","null","",NA,NA,NA,NA,""
"image-keyboard-response",500,384941,"0.0-3.163-0.163","4hjremh3c2zqo86",620,"169.csv","","223.79999995231628","resources/trios/L4T1A1.jpg","38","restless",0.4,0.2,0.6,0.583326535221368,"false"
"image-keyboard-response",501,385354,"0.0-3.163-1.163","4hjremh3c2zqo86",620,"169.csv","","null","resources/maskTrios/BT1B.jpg","null","",NA,NA,NA,NA,""
"image-keyboard-response",502,386566,"0.0-3.163-2.163","4hjremh3c2zqo86",620,"169.csv","","null","resources/images/fishbone.png","null","",NA,NA,NA,NA,""
"image-keyboard-response",503,386974,"0.0-3.164-0.164","4hjremh3c2zqo86",620,"169.csv","","406.90000009536743","resources/trios/L4T4A3.jpg","39","restless",0.4,0.2,0.6,0.762778315932165,"false"
"image-keyboard-response",504,387377,"0.0-3.164-1.164","4hjremh3c2zqo86",620,"169.csv","","null","resources/maskTrios/BBA3.jpg","null","",NA,NA,NA,NA,""
"image-keyboard-response",505,388581,"0.0-3.164-2.164","4hjremh3c2zqo86",620,"169.csv","","null","resources/images/fishbone.png","null","",NA,NA,NA,NA,""
"image-keyboard-response",506,389282,"0.0-3.165-0.165","4hjremh3c2zqo86",620,"169.csv","","699.5999999046326","resources/trios/L2T4A1.jpg","38","restless",0.4,0.2,0.6,0.896639650838691,"false"
"image-keyboard-response",507,389684,"0.0-3.165-1.165","4hjremh3c2zqo86",620,"169.csv","","null","resources/maskTrios/BT4B.jpg","null","",NA,NA,NA,NA,""
"image-keyboard-response",508,390901,"0.0-3.165-2.165","4hjremh3c2zqo86",620,"169.csv","","null","resources/images/fishbone.png","null","",NA,NA,NA,NA,""
"image-keyboard-response",509,391249,"0.0-3.166-0.166","4hjremh3c2zqo86",620,"169.csv","","346.2999999523163","resources/trios/L4T1A3.jpg","38","restless",0.4,0.2,0.6,0.811683943034677,"false"
"image-keyboard-response",510,391662,"0.0-3.166-1.166","4hjremh3c2zqo86",620,"169.csv","","null","resources/maskTrios/BT1B.jpg","null","",NA,NA,NA,NA,""
"image-keyboard-response",511,392879,"0.0-3.166-2.166","4hjremh3c2zqo86",620,"169.csv","","null","resources/images/fishbone.png","null","",NA,NA,NA,NA,""
"image-keyboard-response",512,393289,"0.0-3.167-0.167","4hjremh3c2zqo86",620,"169.csv","","408","resources/trios/L4T1A3.jpg","37","restless",0.4,0.2,0.6,0.157661870294888,"true"
"image-keyboard-response",513,393700,"0.0-3.167-1.167","4hjremh3c2zqo86",620,"169.csv","","null","resources/maskTrios/L4BB.jpg","null","",NA,NA,NA,NA,""
"image-keyboard-response",514,394908,"0.0-3.167-2.167","4hjremh3c2zqo86",620,"169.csv","","null","resources/images/coin2.png","null","",NA,NA,NA,NA,""
"image-keyboard-response",515,396207,"0.0-3.168-0.168","4hjremh3c2zqo86",620,"169.csv","","1296.7999999523163","resources/trios/L2T1A3.jpg","38","restless",0.3,0.2,0.6,0.70318368468718,"false"
"image-keyboard-response",516,396619,"0.0-3.168-1.168","4hjremh3c2zqo86",620,"169.csv","","null","resources/maskTrios/BT1B.jpg","null","",NA,NA,NA,NA,""
"image-keyboard-response",517,397830,"0.0-3.168-2.168","4hjremh3c2zqo86",620,"169.csv","","null","resources/images/fishbone.png","null","",NA,NA,NA,NA,""
"image-keyboard-response",518,398038,"0.0-3.169-0.169","4hjremh3c2zqo86",620,"169.csv","","206.40000009536743","resources/trios/L2T4A3.jpg","39","restless",0.3,0.2,0.6,0.170821561712741,"true"
"image-keyboard-response",519,398452,"0.0-3.169-1.169","4hjremh3c2zqo86",620,"169.csv","","null","resources/maskTrios/BBA3.jpg","null","",NA,NA,NA,NA,""
"image-keyboard-response",520,399655,"0.0-3.169-2.169","4hjremh3c2zqo86",620,"169.csv","","null","resources/images/coin2.png","null","",NA,NA,NA,NA,""
"image-keyboard-response",521,399976,"0.0-3.170-0.170","4hjremh3c2zqo86",620,"169.csv","","319","resources/trios/L2T1A1.jpg","37","restless",0.3,0.1,0.6,0.648828674642785,"false"
"image-keyboard-response",522,400386,"0.0-3.170-1.170","4hjremh3c2zqo86",620,"169.csv","","null","resources/maskTrios/L2BB.jpg","null","",NA,NA,NA,NA,""
"image-keyboard-response",523,401599,"0.0-3.170-2.170","4hjremh3c2zqo86",620,"169.csv","","null","resources/images/fishbone.png","null","",NA,NA,NA,NA,""
"image-keyboard-response",524,401807,"0.0-3.171-0.171","4hjremh3c2zqo86",620,"169.csv","","206.20000004768372","resources/trios/L4T4A1.jpg","39","restless",0.3,0.1,0.6,0.3577172504834,"true"
"image-keyboard-response",525,402220,"0.0-3.171-1.171","4hjremh3c2zqo86",620,"169.csv","","null","resources/maskTrios/BBA1.jpg","null","",NA,NA,NA,NA,""
"image-keyboard-response",526,403434,"0.0-3.171-2.171","4hjremh3c2zqo86",620,"169.csv","","null","resources/images/coin2.png","null","",NA,NA,NA,NA,""
"image-keyboard-response",527,403750,"0.0-3.172-0.172","4hjremh3c2zqo86",620,"169.csv","","314.10000014305115","resources/trios/L2T1A1.jpg","38","restless",0.3,0.1,0.6,0.925345341371417,"false"
"image-keyboard-response",528,404164,"0.0-3.172-1.172","4hjremh3c2zqo86",620,"169.csv","","null","resources/maskTrios/BT1B.jpg","null","",NA,NA,NA,NA,""
"image-keyboard-response",529,405382,"0.0-3.172-2.172","4hjremh3c2zqo86",620,"169.csv","","null","resources/images/fishbone.png","null","",NA,NA,NA,NA,""
"image-keyboard-response",530,405643,"0.0-3.173-0.173","4hjremh3c2zqo86",620,"169.csv","","259.7999999523163","resources/trios/L2T1A3.jpg","37","restless",0.2,0.1,0.6,0.0225994857371228,"true"
"image-keyboard-response",531,406050,"0.0-3.173-1.173","4hjremh3c2zqo86",620,"169.csv","","null","resources/maskTrios/L2BB.jpg","null","",NA,NA,NA,NA,""
"image-keyboard-response",532,407254,"0.0-3.173-2.173","4hjremh3c2zqo86",620,"169.csv","","null","resources/images/coin2.png","null","",NA,NA,NA,NA,""
"image-keyboard-response",533,407450,"0.0-3.174-0.174","4hjremh3c2zqo86",620,"169.csv","","194.40000009536743","resources/trios/L2T1A1.jpg","39","restless",0.2,0.1,0.6,0.282109943681505,"true"
"image-keyboard-response",534,407858,"0.0-3.174-1.174","4hjremh3c2zqo86",620,"169.csv","","null","resources/maskTrios/BBA1.jpg","null","",NA,NA,NA,NA,""
"image-keyboard-response",535,409072,"0.0-3.174-2.174","4hjremh3c2zqo86",620,"169.csv","","null","resources/images/coin2.png","null","",NA,NA,NA,NA,""
"image-keyboard-response",536,409237,"0.0-3.175-0.175","4hjremh3c2zqo86",620,"169.csv","","163.5","resources/trios/L2T1A3.jpg","39","restless",0.2,0.2,0.5,0.029217075046222,"true"
"image-keyboard-response",537,409646,"0.0-3.175-1.175","4hjremh3c2zqo86",620,"169.csv","","null","resources/maskTrios/BBA3.jpg","null","",NA,NA,NA,NA,""
"image-keyboard-response",538,410861,"0.0-3.175-2.175","4hjremh3c2zqo86",620,"169.csv","","null","resources/images/coin2.png","null","",NA,NA,NA,NA,""
"image-keyboard-response",539,411176,"0.0-3.176-0.176","4hjremh3c2zqo86",620,"169.csv","","310.7999999523163","resources/trios/L4T4A3.jpg","39","restless",0.2,0.2,0.5,0.276414910068956,"true"
"image-keyboard-response",540,411591,"0.0-3.176-1.176","4hjremh3c2zqo86",620,"169.csv","","null","resources/maskTrios/BBA3.jpg","null","",NA,NA,NA,NA,""
"image-keyboard-response",541,412794,"0.0-3.176-2.176","4hjremh3c2zqo86",620,"169.csv","","null","resources/images/coin2.png","null","",NA,NA,NA,NA,""
"image-keyboard-response",542,412838,"0.0-3.177-0.177","4hjremh3c2zqo86",620,"169.csv","","39.10000014305115","resources/trios/L2T4A3.jpg","38","restless",0.2,0.2,0.5,0.249739633935769,"false"
"image-keyboard-response",543,413242,"0.0-3.177-1.177","4hjremh3c2zqo86",620,"169.csv","","null","resources/maskTrios/BT4B.jpg","null","",NA,NA,NA,NA,""
"image-keyboard-response",544,414451,"0.0-3.177-2.177","4hjremh3c2zqo86",620,"169.csv","","null","resources/images/fishbone.png","null","",NA,NA,NA,NA,""
"image-keyboard-response",545,414666,"0.0-3.178-0.178","4hjremh3c2zqo86",620,"169.csv","","212.60000014305115","resources/trios/L2T4A1.jpg","39","restless",0.1,0.2,0.5,0.514637717137099,"false"
"image-keyboard-response",546,415073,"0.0-3.178-1.178","4hjremh3c2zqo86",620,"169.csv","","null","resources/maskTrios/BBA1.jpg","null","",NA,NA,NA,NA,""
"image-keyboard-response",547,416289,"0.0-3.178-2.178","4hjremh3c2zqo86",620,"169.csv","","null","resources/images/fishbone.png","null","",NA,NA,NA,NA,""
"image-keyboard-response",548,416504,"0.0-3.179-0.179","4hjremh3c2zqo86",620,"169.csv","","213.10000014305115","resources/trios/L2T1A1.jpg","38","restless",0.1,0.2,0.5,0.47876072173523,"false"
"image-keyboard-response",549,416907,"0.0-3.179-1.179","4hjremh3c2zqo86",620,"169.csv","","null","resources/maskTrios/BT1B.jpg","null","",NA,NA,NA,NA,""
"image-keyboard-response",550,418109,"0.0-3.179-2.179","4hjremh3c2zqo86",620,"169.csv","","null","resources/images/fishbone.png","null","",NA,NA,NA,NA,""
"image-keyboard-response",551,418219,"0.0-3.180-0.180","4hjremh3c2zqo86",620,"169.csv","","108.40000009536743","resources/trios/L2T4A3.jpg","37","restless",0.1,0.2,0.5,0.542017439077369,"false"
"image-keyboard-response",552,418624,"0.0-3.180-1.180","4hjremh3c2zqo86",620,"169.csv","","null","resources/maskTrios/L2BB.jpg","null","",NA,NA,NA,NA,""
"image-keyboard-response",553,419838,"0.0-3.180-2.180","4hjremh3c2zqo86",620,"169.csv","","null","resources/images/fishbone.png","null","",NA,NA,NA,NA,""
"image-keyboard-response",554,420115,"0.0-3.181-0.181","4hjremh3c2zqo86",620,"169.csv","","275.5","resources/trios/L4T4A1.jpg","37","restless",0.1,0.2,0.5,0.279811966862598,"false"
"image-keyboard-response",555,420522,"0.0-3.181-1.181","4hjremh3c2zqo86",620,"169.csv","","null","resources/maskTrios/L4BB.jpg","null","",NA,NA,NA,NA,""
"image-keyboard-response",556,421734,"0.0-3.181-2.181","4hjremh3c2zqo86",620,"169.csv","","null","resources/images/fishbone.png","null","",NA,NA,NA,NA,""
"image-keyboard-response",557,421967,"0.0-3.182-0.182","4hjremh3c2zqo86",620,"169.csv","","231.40000009536743","resources/trios/L4T1A3.jpg","37","restless",0.1,0.2,0.5,0.88756787187997,"false"
"image-keyboard-response",558,422369,"0.0-3.182-1.182","4hjremh3c2zqo86",620,"169.csv","","null","resources/maskTrios/L4BB.jpg","null","",NA,NA,NA,NA,""
"image-keyboard-response",559,423575,"0.0-3.182-2.182","4hjremh3c2zqo86",620,"169.csv","","null","resources/images/fishbone.png","null","",NA,NA,NA,NA,""
"image-keyboard-response",560,423789,"0.0-3.183-0.183","4hjremh3c2zqo86",620,"169.csv","","212.40000009536743","resources/trios/L4T1A3.jpg","37","restless",0.1,0.1,0.5,0.699101210918557,"false"
"image-keyboard-response",561,424198,"0.0-3.183-1.183","4hjremh3c2zqo86",620,"169.csv","","null","resources/maskTrios/L4BB.jpg","null","",NA,NA,NA,NA,""
"image-keyboard-response",562,425412,"0.0-3.183-2.183","4hjremh3c2zqo86",620,"169.csv","","null","resources/images/fishbone.png","null","",NA,NA,NA,NA,""
"image-keyboard-response",563,425652,"0.0-3.184-0.184","4hjremh3c2zqo86",620,"169.csv","","238.5","resources/trios/L2T1A1.jpg","38","restless",0.1,0.1,0.5,0.0568451019012786,"true"
"image-keyboard-response",564,426064,"0.0-3.184-1.184","4hjremh3c2zqo86",620,"169.csv","","null","resources/maskTrios/BT1B.jpg","null","",NA,NA,NA,NA,""
"image-keyboard-response",565,427268,"0.0-3.184-2.184","4hjremh3c2zqo86",620,"169.csv","","null","resources/images/coin2.png","null","",NA,NA,NA,NA,""
"image-keyboard-response",566,427854,"0.0-3.185-0.185","4hjremh3c2zqo86",620,"169.csv","","584.3000001907349","resources/trios/L4T1A3.jpg","39","restless",0.1,0.1,0.5,0.677001347102673,"false"
"image-keyboard-response",567,428264,"0.0-3.185-1.185","4hjremh3c2zqo86",620,"169.csv","","null","resources/maskTrios/BBA3.jpg","null","",NA,NA,NA,NA,""
"image-keyboard-response",568,429470,"0.0-3.185-2.185","4hjremh3c2zqo86",620,"169.csv","","null","resources/images/fishbone.png","null","",NA,NA,NA,NA,""
"image-keyboard-response",569,429715,"0.0-3.186-0.186","4hjremh3c2zqo86",620,"169.csv","","243.09999990463257","resources/trios/L2T4A3.jpg","39","restless",0.1,0.1,0.5,0.372798496043126,"true"
"image-keyboard-response",570,430117,"0.0-3.186-1.186","4hjremh3c2zqo86",620,"169.csv","","null","resources/maskTrios/BBA3.jpg","null","",NA,NA,NA,NA,""
"image-keyboard-response",571,431322,"0.0-3.186-2.186","4hjremh3c2zqo86",620,"169.csv","","null","resources/images/coin2.png","null","",NA,NA,NA,NA,""
"image-keyboard-response",572,431711,"0.0-3.187-0.187","4hjremh3c2zqo86",620,"169.csv","","387.90000009536743","resources/trios/L2T4A3.jpg","38","restless",0.1,0.1,0.5,0.0568476704841456,"true"
"image-keyboard-response",573,432127,"0.0-3.187-1.187","4hjremh3c2zqo86",620,"169.csv","","null","resources/maskTrios/BT4B.jpg","null","",NA,NA,NA,NA,""
"image-keyboard-response",574,433342,"0.0-3.187-2.187","4hjremh3c2zqo86",620,"169.csv","","null","resources/images/coin2.png","null","",NA,NA,NA,NA,""
"image-keyboard-response",575,433666,"0.0-3.188-0.188","4hjremh3c2zqo86",620,"169.csv","","321.90000009536743","resources/trios/L2T4A3.jpg","37","restless",0.1,0.1,0.5,0.760650678964404,"false"
"image-keyboard-response",576,434074,"0.0-3.188-1.188","4hjremh3c2zqo86",620,"169.csv","","null","resources/maskTrios/L2BB.jpg","null","",NA,NA,NA,NA,""
"image-keyboard-response",577,435282,"0.0-3.188-2.188","4hjremh3c2zqo86",620,"169.csv","","null","resources/images/fishbone.png","null","",NA,NA,NA,NA,""
"image-keyboard-response",578,435555,"0.0-3.189-0.189","4hjremh3c2zqo86",620,"169.csv","","271.7999999523163","resources/trios/L4T1A1.jpg","37","restless",0.1,0.1,0.5,0.941469581194353,"false"
"image-keyboard-response",579,435966,"0.0-3.189-1.189","4hjremh3c2zqo86",620,"169.csv","","null","resources/maskTrios/L4BB.jpg","null","",NA,NA,NA,NA,""
"image-keyboard-response",580,437168,"0.0-3.189-2.189","4hjremh3c2zqo86",620,"169.csv","","null","resources/images/fishbone.png","null","",NA,NA,NA,NA,""
"image-keyboard-response",581,437492,"0.0-3.190-0.190","4hjremh3c2zqo86",620,"169.csv","","322","resources/trios/L2T4A1.jpg","37","restless",0.1,0.1,0.5,0.361428751856181,"false"
"image-keyboard-response",582,437901,"0.0-3.190-1.190","4hjremh3c2zqo86",620,"169.csv","","null","resources/maskTrios/L2BB.jpg","null","",NA,NA,NA,NA,""
"image-keyboard-response",583,439110,"0.0-3.190-2.190","4hjremh3c2zqo86",620,"169.csv","","null","resources/images/fishbone.png","null","",NA,NA,NA,NA,""
"image-keyboard-response",584,439315,"0.0-3.191-0.191","4hjremh3c2zqo86",620,"169.csv","","202.70000004768372","resources/trios/L2T4A1.jpg","38","restless",0.1,0.1,0.5,0.301251737481035,"false"
"image-keyboard-response",585,439732,"0.0-3.191-1.191","4hjremh3c2zqo86",620,"169.csv","","null","resources/maskTrios/BT4B.jpg","null","",NA,NA,NA,NA,""
"image-keyboard-response",586,440948,"0.0-3.191-2.191","4hjremh3c2zqo86",620,"169.csv","","null","resources/images/fishbone.png","null","",NA,NA,NA,NA,""
"image-keyboard-response",587,441154,"0.0-3.192-0.192","4hjremh3c2zqo86",620,"169.csv","","203.5","resources/trios/L4T4A3.jpg","39","restless",0.1,0.1,0.5,0.395089891152552,"true"
"image-keyboard-response",588,441569,"0.0-3.192-1.192","4hjremh3c2zqo86",620,"169.csv","","null","resources/maskTrios/BBA3.jpg","null","",NA,NA,NA,NA,""
"image-keyboard-response",589,442785,"0.0-3.192-2.192","4hjremh3c2zqo86",620,"169.csv","","null","resources/images/coin2.png","null","",NA,NA,NA,NA,""
"image-keyboard-response",590,443248,"0.0-3.193-0.193","4hjremh3c2zqo86",620,"169.csv","","461.10000014305115","resources/trios/L4T4A3.jpg","39","restless",0.1,0.1,0.5,0.365235349982348,"true"
"image-keyboard-response",591,443650,"0.0-3.193-1.193","4hjremh3c2zqo86",620,"169.csv","","null","resources/maskTrios/BBA3.jpg","null","",NA,NA,NA,NA,""
"image-keyboard-response",592,444853,"0.0-3.193-2.193","4hjremh3c2zqo86",620,"169.csv","","null","resources/images/coin2.png","null","",NA,NA,NA,NA,""
"image-keyboard-response",593,445155,"0.0-3.194-0.194","4hjremh3c2zqo86",620,"169.csv","","299.7999999523163","resources/trios/L4T1A3.jpg","39","restless",0.1,0.2,0.5,0.413148691492649,"true"
"image-keyboard-response",594,445569,"0.0-3.194-1.194","4hjremh3c2zqo86",620,"169.csv","","null","resources/maskTrios/BBA3.jpg","null","",NA,NA,NA,NA,""
"image-keyboard-response",595,446786,"0.0-3.194-2.194","4hjremh3c2zqo86",620,"169.csv","","null","resources/images/coin2.png","null","",NA,NA,NA,NA,""
"image-keyboard-response",596,447122,"0.0-3.195-0.195","4hjremh3c2zqo86",620,"169.csv","","334.89999985694885","resources/trios/L4T4A3.jpg","37","restless",0.1,0.2,0.6,0.713674167545195,"false"
"image-keyboard-response",597,447532,"0.0-3.195-1.195","4hjremh3c2zqo86",620,"169.csv","","null","resources/maskTrios/L4BB.jpg","null","",NA,NA,NA,NA,""
"image-keyboard-response",598,448746,"0.0-3.195-2.195","4hjremh3c2zqo86",620,"169.csv","","null","resources/images/fishbone.png","null","",NA,NA,NA,NA,""
"image-keyboard-response",599,448840,"0.0-3.196-0.196","4hjremh3c2zqo86",620,"169.csv","","92","resources/trios/L4T4A1.jpg","38","restless",0.1,0.2,0.6,0.40905498029245,"false"
"image-keyboard-response",600,449245,"0.0-3.196-1.196","4hjremh3c2zqo86",620,"169.csv","","null","resources/maskTrios/BT4B.jpg","null","",NA,NA,NA,NA,""
"image-keyboard-response",601,450455,"0.0-3.196-2.196","4hjremh3c2zqo86",620,"169.csv","","null","resources/images/fishbone.png","null","",NA,NA,NA,NA,""
"image-keyboard-response",602,450719,"0.0-3.197-0.197","4hjremh3c2zqo86",620,"169.csv","","261.7000000476837","resources/trios/L4T1A3.jpg","39","restless",0.1,0.3,0.6,0.592028942232354,"true"
"image-keyboard-response",603,451135,"0.0-3.197-1.197","4hjremh3c2zqo86",620,"169.csv","","null","resources/maskTrios/BBA3.jpg","null","",NA,NA,NA,NA,""
"image-keyboard-response",604,452349,"0.0-3.197-2.197","4hjremh3c2zqo86",620,"169.csv","","null","resources/images/coin2.png","null","",NA,NA,NA,NA,""
"image-keyboard-response",605,452562,"0.0-3.198-0.198","4hjremh3c2zqo86",620,"169.csv","","209.5","resources/trios/L2T4A1.jpg","39","restless",0.1,0.3,0.6,0.303405700950701,"true"
