"trial_type","trial_index","time_elapsed","internal_node_id","subject","participantCode","walkNumber","success","rt","stimulus","key_press","test_part","leftProb","midProb","rightProb","generatedNum","correct"
"pavlovia",0,1486,"0.0-0.0","gs3udt6gt5eyhcd",766,"166.csv","","","","","",NA,NA,NA,NA,""
"fullscreen",1,5338,"0.0-1.0","gs3udt6gt5eyhcd",766,"166.csv","true","","","","",NA,NA,NA,NA,""
"html-keyboard-response",2,11908,"0.0-2.0-0.0","gs3udt6gt5eyhcd",766,"166.csv","","6567","<p><font size='6'>Arrrgh!</p></font><p>Can you be the best pirate? Try to find lots of gold! But beware, some islands have more gold than others, and over time, the island with the most gold may change. Can YOU figure it out? </p><font size='6'>GOOD LUCK, CAPTAIN!!!</font><p>Press any key to begin</p>","66","",NA,NA,NA,NA,""
"image-keyboard-response",3,14910,"0.0-2.0-1.0","gs3udt6gt5eyhcd",766,"166.csv","","null","resources/image_sets/111.png","null","",NA,NA,NA,NA,""
"image-keyboard-response",4,19500,"0.0-2.0-2.0","gs3udt6gt5eyhcd",766,"166.csv","","4588","resources/image_sets/left_highlight.png","37","",NA,NA,NA,NA,""
"image-keyboard-response",5,24903,"0.0-2.0-3.0","gs3udt6gt5eyhcd",766,"166.csv","","5403","resources/image_sets/mid_highlight.png","38","",NA,NA,NA,NA,""
"image-keyboard-response",6,29846,"0.0-2.0-4.0","gs3udt6gt5eyhcd",766,"166.csv","","4941","resources/image_sets/right_highlight.png","39","",NA,NA,NA,NA,""
"image-keyboard-response",7,59479,"0.0-2.0-5.0","gs3udt6gt5eyhcd",766,"166.csv","","29631","resources/image_sets/111.png","13","",NA,NA,NA,NA,""
"image-keyboard-response",8,59648,"0.0-2.0-6.0","gs3udt6gt5eyhcd",766,"166.csv","","167","resources/images/coin2.png","13","",NA,NA,NA,NA,""
"image-keyboard-response",9,61420,"0.0-2.0-7.0","gs3udt6gt5eyhcd",766,"166.csv","","1771.0000000000073","resources/images/fishbone.png","13","",NA,NA,NA,NA,""
"html-keyboard-response",10,66839,"0.0-2.0-8.0","gs3udt6gt5eyhcd",766,"166.csv","","5417","<p>Your first journey will be a long one, but you will get a well deserved break at the end</p><p>After the break you will have four more journeys, but each will be much shorter than the first, and you will have breaks in between each</p><p>Press Enter to begin</p>","13","",NA,NA,NA,NA,""
"image-keyboard-response",11,70598,"0.0-3.0-0.0","gs3udt6gt5eyhcd",766,"166.csv","","3757.0000000000146","resources/trios/L2T4A2.jpg","39","restless",0.3,0.9,0.7,0.39310997069557,"true"
"image-keyboard-response",12,71003,"0.0-3.0-1.0","gs3udt6gt5eyhcd",766,"166.csv","","null","resources/maskTrios/BBA2.jpg","null","",NA,NA,NA,NA,""
"image-keyboard-response",13,72206,"0.0-3.0-2.0","gs3udt6gt5eyhcd",766,"166.csv","","null","resources/images/coin2.png","null","",NA,NA,NA,NA,""
"image-keyboard-response",14,72956,"0.0-3.1-0.1","gs3udt6gt5eyhcd",766,"166.csv","","748","resources/trios/L2T2A1.jpg","39","restless",0.3,0.9,0.7,0.655249352405711,"true"
"image-keyboard-response",15,73359,"0.0-3.1-1.1","gs3udt6gt5eyhcd",766,"166.csv","","null","resources/maskTrios/BBA1.jpg","null","",NA,NA,NA,NA,""
"image-keyboard-response",16,74563,"0.0-3.1-2.1","gs3udt6gt5eyhcd",766,"166.csv","","null","resources/images/coin2.png","null","",NA,NA,NA,NA,""
"image-keyboard-response",17,78645,"0.0-3.2-0.2","gs3udt6gt5eyhcd",766,"166.csv","","4080","resources/trios/L2T4A2.jpg","37","restless",0.3,0.9,0.7,0.489891966836752,"false"
"image-keyboard-response",18,79047,"0.0-3.2-1.2","gs3udt6gt5eyhcd",766,"166.csv","","null","resources/maskTrios/L2BB.jpg","null","",NA,NA,NA,NA,""
"image-keyboard-response",19,80250,"0.0-3.2-2.2","gs3udt6gt5eyhcd",766,"166.csv","","null","resources/images/fishbone.png","null","",NA,NA,NA,NA,""
"image-keyboard-response",20,82153,"0.0-3.3-0.3","gs3udt6gt5eyhcd",766,"166.csv","","1900","resources/trios/L2T2A2.jpg","37","restless",0.3,0.9,0.7,0.658199191704461,"false"
"image-keyboard-response",21,82557,"0.0-3.3-1.3","gs3udt6gt5eyhcd",766,"166.csv","","null","resources/maskTrios/L2BB.jpg","null","",NA,NA,NA,NA,""
"image-keyboard-response",22,83760,"0.0-3.3-2.3","gs3udt6gt5eyhcd",766,"166.csv","","null","resources/images/fishbone.png","null","",NA,NA,NA,NA,""
"image-keyboard-response",23,86480,"0.0-3.4-0.4","gs3udt6gt5eyhcd",766,"166.csv","","2718.0000000000146","resources/trios/L1T2A1.jpg","37","restless",0.2,0.9,0.7,0.645413300039557,"false"
"image-keyboard-response",24,86884,"0.0-3.4-1.4","gs3udt6gt5eyhcd",766,"166.csv","","null","resources/maskTrios/L1BB.jpg","null","",NA,NA,NA,NA,""
"image-keyboard-response",25,88086,"0.0-3.4-2.4","gs3udt6gt5eyhcd",766,"166.csv","","null","resources/images/fishbone.png","null","",NA,NA,NA,NA,""
"image-keyboard-response",26,89929,"0.0-3.5-0.5","gs3udt6gt5eyhcd",766,"166.csv","","1840","resources/trios/L2T2A1.jpg","39","restless",0.2,0.9,0.7,0.265229809969545,"true"
"image-keyboard-response",27,90332,"0.0-3.5-1.5","gs3udt6gt5eyhcd",766,"166.csv","","null","resources/maskTrios/BBA1.jpg","null","",NA,NA,NA,NA,""
"image-keyboard-response",28,91535,"0.0-3.5-2.5","gs3udt6gt5eyhcd",766,"166.csv","","null","resources/images/coin2.png","null","",NA,NA,NA,NA,""
"image-keyboard-response",29,93687,"0.0-3.6-0.6","gs3udt6gt5eyhcd",766,"166.csv","","2149","resources/trios/L1T2A1.jpg","39","restless",0.2,0.9,0.7,0.0579458154808966,"true"
"image-keyboard-response",30,94090,"0.0-3.6-1.6","gs3udt6gt5eyhcd",766,"166.csv","","null","resources/maskTrios/BBA1.jpg","null","",NA,NA,NA,NA,""
"image-keyboard-response",31,95293,"0.0-3.6-2.6","gs3udt6gt5eyhcd",766,"166.csv","","null","resources/images/coin2.png","null","",NA,NA,NA,NA,""
"image-keyboard-response",32,97706,"0.0-3.7-0.7","gs3udt6gt5eyhcd",766,"166.csv","","2411","resources/trios/L2T2A1.jpg","39","restless",0.2,0.9,0.7,0.0812033264434519,"true"
"image-keyboard-response",33,98110,"0.0-3.7-1.7","gs3udt6gt5eyhcd",766,"166.csv","","null","resources/maskTrios/BBA1.jpg","null","",NA,NA,NA,NA,""
"image-keyboard-response",34,99313,"0.0-3.7-2.7","gs3udt6gt5eyhcd",766,"166.csv","","null","resources/images/coin2.png","null","",NA,NA,NA,NA,""
"image-keyboard-response",35,100303,"0.0-3.8-0.8","gs3udt6gt5eyhcd",766,"166.csv","","988","resources/trios/L2T2A2.jpg","39","restless",0.2,0.9,0.7,0.503065423267902,"true"
"image-keyboard-response",36,100706,"0.0-3.8-1.8","gs3udt6gt5eyhcd",766,"166.csv","","null","resources/maskTrios/BBA2.jpg","null","",NA,NA,NA,NA,""
"image-keyboard-response",37,101909,"0.0-3.8-2.8","gs3udt6gt5eyhcd",766,"166.csv","","null","resources/images/coin2.png","null","",NA,NA,NA,NA,""
"image-keyboard-response",38,103165,"0.0-3.9-0.9","gs3udt6gt5eyhcd",766,"166.csv","","1254","resources/trios/L1T2A2.jpg","39","restless",0.2,0.9,0.7,0.213341427792062,"true"
"image-keyboard-response",39,103568,"0.0-3.9-1.9","gs3udt6gt5eyhcd",766,"166.csv","","null","resources/maskTrios/BBA2.jpg","null","",NA,NA,NA,NA,""
"image-keyboard-response",40,104771,"0.0-3.9-2.9","gs3udt6gt5eyhcd",766,"166.csv","","null","resources/images/coin2.png","null","",NA,NA,NA,NA,""
"image-keyboard-response",41,106052,"0.0-3.10-0.10","gs3udt6gt5eyhcd",766,"166.csv","","1279","resources/trios/L1T2A1.jpg","39","restless",0.2,0.9,0.7,0.604752035842348,"true"
"image-keyboard-response",42,106455,"0.0-3.10-1.10","gs3udt6gt5eyhcd",766,"166.csv","","null","resources/maskTrios/BBA1.jpg","null","",NA,NA,NA,NA,""
"image-keyboard-response",43,107658,"0.0-3.10-2.10","gs3udt6gt5eyhcd",766,"166.csv","","null","resources/images/coin2.png","null","",NA,NA,NA,NA,""
"image-keyboard-response",44,108290,"0.0-3.11-0.11","gs3udt6gt5eyhcd",766,"166.csv","","629","resources/trios/L1T2A1.jpg","39","restless",0.2,0.9,0.8,0.551293928884062,"true"
"image-keyboard-response",45,108693,"0.0-3.11-1.11","gs3udt6gt5eyhcd",766,"166.csv","","null","resources/maskTrios/BBA1.jpg","null","",NA,NA,NA,NA,""
"image-keyboard-response",46,109896,"0.0-3.11-2.11","gs3udt6gt5eyhcd",766,"166.csv","","null","resources/images/coin2.png","null","",NA,NA,NA,NA,""
"image-keyboard-response",47,111678,"0.0-3.12-0.12","gs3udt6gt5eyhcd",766,"166.csv","","1780","resources/trios/L2T4A2.jpg","39","restless",0.2,0.9,0.8,0.805463232553508,"false"
"image-keyboard-response",48,112081,"0.0-3.12-1.12","gs3udt6gt5eyhcd",766,"166.csv","","null","resources/maskTrios/BBA2.jpg","null","",NA,NA,NA,NA,""
"image-keyboard-response",49,113283,"0.0-3.12-2.12","gs3udt6gt5eyhcd",766,"166.csv","","null","resources/images/fishbone.png","null","",NA,NA,NA,NA,""
"image-keyboard-response",50,115011,"0.0-3.13-0.13","gs3udt6gt5eyhcd",766,"166.csv","","1725","resources/trios/L2T2A2.jpg","39","restless",0.2,0.9,0.8,0.103222185855248,"true"
"image-keyboard-response",51,115415,"0.0-3.13-1.13","gs3udt6gt5eyhcd",766,"166.csv","","null","resources/maskTrios/BBA2.jpg","null","",NA,NA,NA,NA,""
"image-keyboard-response",52,116618,"0.0-3.13-2.13","gs3udt6gt5eyhcd",766,"166.csv","","null","resources/images/coin2.png","null","",NA,NA,NA,NA,""
"image-keyboard-response",53,117858,"0.0-3.14-0.14","gs3udt6gt5eyhcd",766,"166.csv","","1238","resources/trios/L1T2A2.jpg","39","restless",0.2,0.9,0.8,0.0648199460178227,"true"
"image-keyboard-response",54,118265,"0.0-3.14-1.14","gs3udt6gt5eyhcd",766,"166.csv","","null","resources/maskTrios/BBA2.jpg","null","",NA,NA,NA,NA,""
"image-keyboard-response",55,119470,"0.0-3.14-2.14","gs3udt6gt5eyhcd",766,"166.csv","","null","resources/images/coin2.png","null","",NA,NA,NA,NA,""
"image-keyboard-response",56,120693,"0.0-3.15-0.15","gs3udt6gt5eyhcd",766,"166.csv","","1220","resources/trios/L1T4A2.jpg","37","restless",0.2,0.9,0.8,0.37503568302166,"false"
"image-keyboard-response",57,121097,"0.0-3.15-1.15","gs3udt6gt5eyhcd",766,"166.csv","","null","resources/maskTrios/L1BB.jpg","null","",NA,NA,NA,NA,""
"image-keyboard-response",58,122300,"0.0-3.15-2.15","gs3udt6gt5eyhcd",766,"166.csv","","null","resources/images/fishbone.png","null","",NA,NA,NA,NA,""
"image-keyboard-response",59,123424,"0.0-3.16-0.16","gs3udt6gt5eyhcd",766,"166.csv","","1122","resources/trios/L2T4A1.jpg","39","restless",0.2,0.9,0.8,0.963797244654719,"false"
"image-keyboard-response",60,123827,"0.0-3.16-1.16","gs3udt6gt5eyhcd",766,"166.csv","","null","resources/maskTrios/BBA1.jpg","null","",NA,NA,NA,NA,""
"image-keyboard-response",61,125029,"0.0-3.16-2.16","gs3udt6gt5eyhcd",766,"166.csv","","null","resources/images/fishbone.png","null","",NA,NA,NA,NA,""
"image-keyboard-response",62,126047,"0.0-3.17-0.17","gs3udt6gt5eyhcd",766,"166.csv","","1017","resources/trios/L2T4A2.jpg","37","restless",0.2,0.9,0.8,0.612502600877463,"false"
"image-keyboard-response",63,126449,"0.0-3.17-1.17","gs3udt6gt5eyhcd",766,"166.csv","","null","resources/maskTrios/L2BB.jpg","null","",NA,NA,NA,NA,""
"image-keyboard-response",64,127652,"0.0-3.17-2.17","gs3udt6gt5eyhcd",766,"166.csv","","null","resources/images/fishbone.png","null","",NA,NA,NA,NA,""
"image-keyboard-response",65,128911,"0.0-3.18-0.18","gs3udt6gt5eyhcd",766,"166.csv","","1257","resources/trios/L2T4A2.jpg","39","restless",0.3,0.8,0.8,0.533821289282697,"true"
"image-keyboard-response",66,129313,"0.0-3.18-1.18","gs3udt6gt5eyhcd",766,"166.csv","","null","resources/maskTrios/BBA2.jpg","null","",NA,NA,NA,NA,""
"image-keyboard-response",67,130516,"0.0-3.18-2.18","gs3udt6gt5eyhcd",766,"166.csv","","null","resources/images/coin2.png","null","",NA,NA,NA,NA,""
"image-keyboard-response",68,131493,"0.0-3.19-0.19","gs3udt6gt5eyhcd",766,"166.csv","","975","resources/trios/L2T4A2.jpg","39","restless",0.3,0.8,0.8,0.481947484438656,"true"
"image-keyboard-response",69,131896,"0.0-3.19-1.19","gs3udt6gt5eyhcd",766,"166.csv","","null","resources/maskTrios/BBA2.jpg","null","",NA,NA,NA,NA,""
"image-keyboard-response",70,133099,"0.0-3.19-2.19","gs3udt6gt5eyhcd",766,"166.csv","","null","resources/images/coin2.png","null","",NA,NA,NA,NA,""
"image-keyboard-response",71,133648,"0.0-3.20-0.20","gs3udt6gt5eyhcd",766,"166.csv","","547","resources/trios/L1T4A1.jpg","39","restless",0.3,0.8,0.8,0.924289831438995,"false"
"image-keyboard-response",72,134051,"0.0-3.20-1.20","gs3udt6gt5eyhcd",766,"166.csv","","null","resources/maskTrios/BBA1.jpg","null","",NA,NA,NA,NA,""
"image-keyboard-response",73,135254,"0.0-3.20-2.20","gs3udt6gt5eyhcd",766,"166.csv","","null","resources/images/fishbone.png","null","",NA,NA,NA,NA,""
"image-keyboard-response",74,136880,"0.0-3.21-0.21","gs3udt6gt5eyhcd",766,"166.csv","","1625","resources/trios/L2T4A1.jpg","39","restless",0.3,0.8,0.8,0.465182277257246,"true"
"image-keyboard-response",75,137283,"0.0-3.21-1.21","gs3udt6gt5eyhcd",766,"166.csv","","null","resources/maskTrios/BBA1.jpg","null","",NA,NA,NA,NA,""
"image-keyboard-response",76,138487,"0.0-3.21-2.21","gs3udt6gt5eyhcd",766,"166.csv","","null","resources/images/coin2.png","null","",NA,NA,NA,NA,""
"image-keyboard-response",77,141087,"0.0-3.22-0.22","gs3udt6gt5eyhcd",766,"166.csv","","2599","resources/trios/L1T4A2.jpg","37","restless",0.3,0.7,0.9,0.578857726576087,"false"
"image-keyboard-response",78,141491,"0.0-3.22-1.22","gs3udt6gt5eyhcd",766,"166.csv","","null","resources/maskTrios/L1BB.jpg","null","",NA,NA,NA,NA,""
"image-keyboard-response",79,142693,"0.0-3.22-2.22","gs3udt6gt5eyhcd",766,"166.csv","","null","resources/images/fishbone.png","null","",NA,NA,NA,NA,""
"image-keyboard-response",80,144218,"0.0-3.23-0.23","gs3udt6gt5eyhcd",766,"166.csv","","1522.000000000029","resources/trios/L1T4A2.jpg","39","restless",0.3,0.7,0.9,0.279104930627814,"true"
"image-keyboard-response",81,144621,"0.0-3.23-1.23","gs3udt6gt5eyhcd",766,"166.csv","","null","resources/maskTrios/BBA2.jpg","null","",NA,NA,NA,NA,""
"image-keyboard-response",82,145824,"0.0-3.23-2.23","gs3udt6gt5eyhcd",766,"166.csv","","null","resources/images/coin2.png","null","",NA,NA,NA,NA,""
"image-keyboard-response",83,146184,"0.0-3.24-0.24","gs3udt6gt5eyhcd",766,"166.csv","","355","resources/trios/L1T4A2.jpg","39","restless",0.3,0.7,0.9,0.351166562524718,"true"
"image-keyboard-response",84,146588,"0.0-3.24-1.24","gs3udt6gt5eyhcd",766,"166.csv","","null","resources/maskTrios/BBA2.jpg","null","",NA,NA,NA,NA,""
"image-keyboard-response",85,147791,"0.0-3.24-2.24","gs3udt6gt5eyhcd",766,"166.csv","","null","resources/images/coin2.png","null","",NA,NA,NA,NA,""
"image-keyboard-response",86,148155,"0.0-3.25-0.25","gs3udt6gt5eyhcd",766,"166.csv","","361","resources/trios/L2T4A1.jpg","39","restless",0.4,0.7,0.9,0.873589222675282,"true"
"image-keyboard-response",87,148558,"0.0-3.25-1.25","gs3udt6gt5eyhcd",766,"166.csv","","null","resources/maskTrios/BBA1.jpg","null","",NA,NA,NA,NA,""
"image-keyboard-response",88,149761,"0.0-3.25-2.25","gs3udt6gt5eyhcd",766,"166.csv","","null","resources/images/coin2.png","null","",NA,NA,NA,NA,""
"image-keyboard-response",89,150052,"0.0-3.26-0.26","gs3udt6gt5eyhcd",766,"166.csv","","289","resources/trios/L1T4A2.jpg","39","restless",0.5,0.7,0.9,0.675841889941916,"true"
"image-keyboard-response",90,150455,"0.0-3.26-1.26","gs3udt6gt5eyhcd",766,"166.csv","","null","resources/maskTrios/BBA2.jpg","null","",NA,NA,NA,NA,""
"image-keyboard-response",91,151659,"0.0-3.26-2.26","gs3udt6gt5eyhcd",766,"166.csv","","null","resources/images/coin2.png","null","",NA,NA,NA,NA,""
"image-keyboard-response",92,152262,"0.0-3.27-0.27","gs3udt6gt5eyhcd",766,"166.csv","","600","resources/trios/L2T4A2.jpg","39","restless",0.5,0.6,0.9,0.565259346903281,"true"
"image-keyboard-response",93,152665,"0.0-3.27-1.27","gs3udt6gt5eyhcd",766,"166.csv","","null","resources/maskTrios/BBA2.jpg","null","",NA,NA,NA,NA,""
"image-keyboard-response",94,153868,"0.0-3.27-2.27","gs3udt6gt5eyhcd",766,"166.csv","","null","resources/images/coin2.png","null","",NA,NA,NA,NA,""
"image-keyboard-response",95,154207,"0.0-3.28-0.28","gs3udt6gt5eyhcd",766,"166.csv","","336","resources/trios/L2T4A2.jpg","39","restless",0.5,0.6,0.9,0.645695214733727,"true"
"image-keyboard-response",96,154610,"0.0-3.28-1.28","gs3udt6gt5eyhcd",766,"166.csv","","null","resources/maskTrios/BBA2.jpg","null","",NA,NA,NA,NA,""
"image-keyboard-response",97,155812,"0.0-3.28-2.28","gs3udt6gt5eyhcd",766,"166.csv","","null","resources/images/coin2.png","null","",NA,NA,NA,NA,""
"image-keyboard-response",98,156152,"0.0-3.29-0.29","gs3udt6gt5eyhcd",766,"166.csv","","337","resources/trios/L1T4A2.jpg","39","restless",0.5,0.5,0.9,0.940323251345829,"false"
"image-keyboard-response",99,156555,"0.0-3.29-1.29","gs3udt6gt5eyhcd",766,"166.csv","","null","resources/maskTrios/BBA2.jpg","null","",NA,NA,NA,NA,""
"image-keyboard-response",100,157757,"0.0-3.29-2.29","gs3udt6gt5eyhcd",766,"166.csv","","null","resources/images/fishbone.png","null","",NA,NA,NA,NA,""
"image-keyboard-response",101,159383,"0.0-3.30-0.30","gs3udt6gt5eyhcd",766,"166.csv","","1623","resources/trios/L2T2A1.jpg","39","restless",0.5,0.5,0.8,0.933527687701396,"false"
"image-keyboard-response",102,159786,"0.0-3.30-1.30","gs3udt6gt5eyhcd",766,"166.csv","","null","resources/maskTrios/BBA1.jpg","null","",NA,NA,NA,NA,""
"image-keyboard-response",103,160991,"0.0-3.30-2.30","gs3udt6gt5eyhcd",766,"166.csv","","null","resources/images/fishbone.png","null","",NA,NA,NA,NA,""
"image-keyboard-response",104,162236,"0.0-3.31-0.31","gs3udt6gt5eyhcd",766,"166.csv","","1243","resources/trios/L2T2A2.jpg","39","restless",0.5,0.5,0.8,0.252262097391094,"true"
"image-keyboard-response",105,162639,"0.0-3.31-1.31","gs3udt6gt5eyhcd",766,"166.csv","","null","resources/maskTrios/BBA2.jpg","null","",NA,NA,NA,NA,""
"image-keyboard-response",106,163842,"0.0-3.31-2.31","gs3udt6gt5eyhcd",766,"166.csv","","null","resources/images/coin2.png","null","",NA,NA,NA,NA,""
"image-keyboard-response",107,164316,"0.0-3.32-0.32","gs3udt6gt5eyhcd",766,"166.csv","","472","resources/trios/L2T4A1.jpg","39","restless",0.4,0.5,0.8,0.176747131471833,"true"
"image-keyboard-response",108,164718,"0.0-3.32-1.32","gs3udt6gt5eyhcd",766,"166.csv","","null","resources/maskTrios/BBA1.jpg","null","",NA,NA,NA,NA,""
"image-keyboard-response",109,165921,"0.0-3.32-2.32","gs3udt6gt5eyhcd",766,"166.csv","","null","resources/images/coin2.png","null","",NA,NA,NA,NA,""
"image-keyboard-response",110,167857,"0.0-3.33-0.33","gs3udt6gt5eyhcd",766,"166.csv","","1934","resources/trios/L2T2A2.jpg","39","restless",0.4,0.5,0.8,0.751809366562155,"true"
"image-keyboard-response",111,168260,"0.0-3.33-1.33","gs3udt6gt5eyhcd",766,"166.csv","","null","resources/maskTrios/BBA2.jpg","null","",NA,NA,NA,NA,""
"image-keyboard-response",112,169463,"0.0-3.33-2.33","gs3udt6gt5eyhcd",766,"166.csv","","null","resources/images/coin2.png","null","",NA,NA,NA,NA,""
"image-keyboard-response",113,170107,"0.0-3.34-0.34","gs3udt6gt5eyhcd",766,"166.csv","","643","resources/trios/L1T4A1.jpg","39","restless",0.4,0.5,0.8,0.719066925095747,"true"
"image-keyboard-response",114,170510,"0.0-3.34-1.34","gs3udt6gt5eyhcd",766,"166.csv","","null","resources/maskTrios/BBA1.jpg","null","",NA,NA,NA,NA,""
"image-keyboard-response",115,171715,"0.0-3.34-2.34","gs3udt6gt5eyhcd",766,"166.csv","","null","resources/images/coin2.png","null","",NA,NA,NA,NA,""
"image-keyboard-response",116,172304,"0.0-3.35-0.35","gs3udt6gt5eyhcd",766,"166.csv","","588","resources/trios/L1T2A1.jpg","39","restless",0.4,0.5,0.8,0.736220944941243,"true"
"image-keyboard-response",117,172707,"0.0-3.35-1.35","gs3udt6gt5eyhcd",766,"166.csv","","null","resources/maskTrios/BBA1.jpg","null","",NA,NA,NA,NA,""
"image-keyboard-response",118,173910,"0.0-3.35-2.35","gs3udt6gt5eyhcd",766,"166.csv","","null","resources/images/coin2.png","null","",NA,NA,NA,NA,""
"image-keyboard-response",119,174714,"0.0-3.36-0.36","gs3udt6gt5eyhcd",766,"166.csv","","802","resources/trios/L2T4A2.jpg","39","restless",0.4,0.5,0.8,0.0404607657466847,"true"
"image-keyboard-response",120,175118,"0.0-3.36-1.36","gs3udt6gt5eyhcd",766,"166.csv","","null","resources/maskTrios/BBA2.jpg","null","",NA,NA,NA,NA,""
"image-keyboard-response",121,176319,"0.0-3.36-2.36","gs3udt6gt5eyhcd",766,"166.csv","","null","resources/images/coin2.png","null","",NA,NA,NA,NA,""
"image-keyboard-response",122,181301,"0.0-3.37-0.37","gs3udt6gt5eyhcd",766,"166.csv","","4979.000000000029","resources/trios/L1T4A2.jpg","39","restless",0.4,0.5,0.9,0.490892721428589,"true"
"image-keyboard-response",123,181704,"0.0-3.37-1.37","gs3udt6gt5eyhcd",766,"166.csv","","null","resources/maskTrios/BBA2.jpg","null","",NA,NA,NA,NA,""
"image-keyboard-response",124,182906,"0.0-3.37-2.37","gs3udt6gt5eyhcd",766,"166.csv","","null","resources/images/coin2.png","null","",NA,NA,NA,NA,""
"image-keyboard-response",125,183466,"0.0-3.38-0.38","gs3udt6gt5eyhcd",766,"166.csv","","558.9999999999709","resources/trios/L2T2A2.jpg","39","restless",0.4,0.5,0.9,0.852103928758123,"true"
"image-keyboard-response",126,183870,"0.0-3.38-1.38","gs3udt6gt5eyhcd",766,"166.csv","","null","resources/maskTrios/BBA2.jpg","null","",NA,NA,NA,NA,""
"image-keyboard-response",127,185073,"0.0-3.38-2.38","gs3udt6gt5eyhcd",766,"166.csv","","null","resources/images/coin2.png","null","",NA,NA,NA,NA,""
"image-keyboard-response",128,185407,"0.0-3.39-0.39","gs3udt6gt5eyhcd",766,"166.csv","","331.9999999999709","resources/trios/L1T4A2.jpg","39","restless",0.4,0.6,0.9,0.948605756058495,"false"
"image-keyboard-response",129,185811,"0.0-3.39-1.39","gs3udt6gt5eyhcd",766,"166.csv","","null","resources/maskTrios/BBA2.jpg","null","",NA,NA,NA,NA,""
"image-keyboard-response",130,187013,"0.0-3.39-2.39","gs3udt6gt5eyhcd",766,"166.csv","","null","resources/images/fishbone.png","null","",NA,NA,NA,NA,""
"image-keyboard-response",131,187464,"0.0-3.40-0.40","gs3udt6gt5eyhcd",766,"166.csv","","449","resources/trios/L1T2A1.jpg","39","restless",0.4,0.6,0.9,0.351229368378617,"true"
"image-keyboard-response",132,187867,"0.0-3.40-1.40","gs3udt6gt5eyhcd",766,"166.csv","","null","resources/maskTrios/BBA1.jpg","null","",NA,NA,NA,NA,""
"image-keyboard-response",133,189070,"0.0-3.40-2.40","gs3udt6gt5eyhcd",766,"166.csv","","null","resources/images/coin2.png","null","",NA,NA,NA,NA,""
"image-keyboard-response",134,189424,"0.0-3.41-0.41","gs3udt6gt5eyhcd",766,"166.csv","","351","resources/trios/L2T4A1.jpg","39","restless",0.4,0.6,0.9,0.848320332672552,"true"
"image-keyboard-response",135,189828,"0.0-3.41-1.41","gs3udt6gt5eyhcd",766,"166.csv","","null","resources/maskTrios/BBA1.jpg","null","",NA,NA,NA,NA,""
"image-keyboard-response",136,191031,"0.0-3.41-2.41","gs3udt6gt5eyhcd",766,"166.csv","","null","resources/images/coin2.png","null","",NA,NA,NA,NA,""
"image-keyboard-response",137,191334,"0.0-3.42-0.42","gs3udt6gt5eyhcd",766,"166.csv","","300","resources/trios/L2T2A2.jpg","39","restless",0.5,0.6,0.9,0.0189749327460941,"true"
"image-keyboard-response",138,191738,"0.0-3.42-1.42","gs3udt6gt5eyhcd",766,"166.csv","","null","resources/maskTrios/BBA2.jpg","null","",NA,NA,NA,NA,""
"image-keyboard-response",139,192941,"0.0-3.42-2.42","gs3udt6gt5eyhcd",766,"166.csv","","null","resources/images/coin2.png","null","",NA,NA,NA,NA,""
"image-keyboard-response",140,193241,"0.0-3.43-0.43","gs3udt6gt5eyhcd",766,"166.csv","","298","resources/trios/L1T4A1.jpg","39","restless",0.5,0.6,0.9,0.636356082490044,"true"
"image-keyboard-response",141,193644,"0.0-3.43-1.43","gs3udt6gt5eyhcd",766,"166.csv","","null","resources/maskTrios/BBA1.jpg","null","",NA,NA,NA,NA,""
"image-keyboard-response",142,194847,"0.0-3.43-2.43","gs3udt6gt5eyhcd",766,"166.csv","","null","resources/images/coin2.png","null","",NA,NA,NA,NA,""
"image-keyboard-response",143,195150,"0.0-3.44-0.44","gs3udt6gt5eyhcd",766,"166.csv","","301.9999999999709","resources/trios/L1T2A2.jpg","39","restless",0.5,0.6,0.9,0.654632338632687,"true"
"image-keyboard-response",144,195554,"0.0-3.44-1.44","gs3udt6gt5eyhcd",766,"166.csv","","null","resources/maskTrios/BBA2.jpg","null","",NA,NA,NA,NA,""
"image-keyboard-response",145,196757,"0.0-3.44-2.44","gs3udt6gt5eyhcd",766,"166.csv","","null","resources/images/coin2.png","null","",NA,NA,NA,NA,""
"image-keyboard-response",146,197039,"0.0-3.45-0.45","gs3udt6gt5eyhcd",766,"166.csv","","281","resources/trios/L1T2A2.jpg","39","restless",0.5,0.5,0.9,0.312999813890888,"true"
"image-keyboard-response",147,197443,"0.0-3.45-1.45","gs3udt6gt5eyhcd",766,"166.csv","","null","resources/maskTrios/BBA2.jpg","null","",NA,NA,NA,NA,""
"image-keyboard-response",148,198646,"0.0-3.45-2.45","gs3udt6gt5eyhcd",766,"166.csv","","null","resources/images/coin2.png","null","",NA,NA,NA,NA,""
"image-keyboard-response",149,198911,"0.0-3.46-0.46","gs3udt6gt5eyhcd",766,"166.csv","","263","resources/trios/L1T4A1.jpg","39","restless",0.5,0.5,0.9,0.540307176311125,"true"
"image-keyboard-response",150,199314,"0.0-3.46-1.46","gs3udt6gt5eyhcd",766,"166.csv","","null","resources/maskTrios/BBA1.jpg","null","",NA,NA,NA,NA,""
"image-keyboard-response",151,200517,"0.0-3.46-2.46","gs3udt6gt5eyhcd",766,"166.csv","","null","resources/images/coin2.png","null","",NA,NA,NA,NA,""
"image-keyboard-response",152,200762,"0.0-3.47-0.47","gs3udt6gt5eyhcd",766,"166.csv","","240","resources/trios/L1T2A2.jpg","39","restless",0.5,0.5,0.9,0.389961990267032,"true"
"image-keyboard-response",153,201165,"0.0-3.47-1.47","gs3udt6gt5eyhcd",766,"166.csv","","null","resources/maskTrios/BBA2.jpg","null","",NA,NA,NA,NA,""
"image-keyboard-response",154,202367,"0.0-3.47-2.47","gs3udt6gt5eyhcd",766,"166.csv","","null","resources/images/coin2.png","null","",NA,NA,NA,NA,""
"image-keyboard-response",155,202625,"0.0-3.48-0.48","gs3udt6gt5eyhcd",766,"166.csv","","257","resources/trios/L1T2A1.jpg","39","restless",0.5,0.5,0.9,0.677644885250044,"true"
"image-keyboard-response",156,203028,"0.0-3.48-1.48","gs3udt6gt5eyhcd",766,"166.csv","","null","resources/maskTrios/BBA1.jpg","null","",NA,NA,NA,NA,""
"image-keyboard-response",157,204231,"0.0-3.48-2.48","gs3udt6gt5eyhcd",766,"166.csv","","null","resources/images/coin2.png","null","",NA,NA,NA,NA,""
"image-keyboard-response",158,204509,"0.0-3.49-0.49","gs3udt6gt5eyhcd",766,"166.csv","","275","resources/trios/L2T4A2.jpg","39","restless",0.5,0.5,0.8,0.309911205081392,"true"
"image-keyboard-response",159,204912,"0.0-3.49-1.49","gs3udt6gt5eyhcd",766,"166.csv","","null","resources/maskTrios/BBA2.jpg","null","",NA,NA,NA,NA,""
"image-keyboard-response",160,206115,"0.0-3.49-2.49","gs3udt6gt5eyhcd",766,"166.csv","","null","resources/images/coin2.png","null","",NA,NA,NA,NA,""
"image-keyboard-response",161,206403,"0.0-3.50-0.50","gs3udt6gt5eyhcd",766,"166.csv","","285.9999999999709","resources/trios/L1T4A2.jpg","39","restless",0.4,0.6,0.8,0.498071942253425,"true"
"image-keyboard-response",162,206806,"0.0-3.50-1.50","gs3udt6gt5eyhcd",766,"166.csv","","null","resources/maskTrios/BBA2.jpg","null","",NA,NA,NA,NA,""
"image-keyboard-response",163,208009,"0.0-3.50-2.50","gs3udt6gt5eyhcd",766,"166.csv","","null","resources/images/coin2.png","null","",NA,NA,NA,NA,""
"image-keyboard-response",164,208277,"0.0-3.51-0.51","gs3udt6gt5eyhcd",766,"166.csv","","266","resources/trios/L2T4A2.jpg","39","restless",0.4,0.5,0.8,0.991381122710441,"false"
"image-keyboard-response",165,208679,"0.0-3.51-1.51","gs3udt6gt5eyhcd",766,"166.csv","","null","resources/maskTrios/BBA2.jpg","null","",NA,NA,NA,NA,""
"image-keyboard-response",166,209882,"0.0-3.51-2.51","gs3udt6gt5eyhcd",766,"166.csv","","null","resources/images/fishbone.png","null","",NA,NA,NA,NA,""
"image-keyboard-response",167,210243,"0.0-3.52-0.52","gs3udt6gt5eyhcd",766,"166.csv","","359","resources/trios/L1T2A2.jpg","39","restless",0.3,0.5,0.8,0.887918785950834,"false"
"image-keyboard-response",168,210646,"0.0-3.52-1.52","gs3udt6gt5eyhcd",766,"166.csv","","null","resources/maskTrios/BBA2.jpg","null","",NA,NA,NA,NA,""
"image-keyboard-response",169,211848,"0.0-3.52-2.52","gs3udt6gt5eyhcd",766,"166.csv","","null","resources/images/fishbone.png","null","",NA,NA,NA,NA,""
"image-keyboard-response",170,212562,"0.0-3.53-0.53","gs3udt6gt5eyhcd",766,"166.csv","","713.0000000000291","resources/trios/L2T4A1.jpg","39","restless",0.2,0.5,0.8,0.282007442171126,"true"
"image-keyboard-response",171,212964,"0.0-3.53-1.53","gs3udt6gt5eyhcd",766,"166.csv","","null","resources/maskTrios/BBA1.jpg","null","",NA,NA,NA,NA,""
"image-keyboard-response",172,214167,"0.0-3.53-2.53","gs3udt6gt5eyhcd",766,"166.csv","","null","resources/images/coin2.png","null","",NA,NA,NA,NA,""
"image-keyboard-response",173,214457,"0.0-3.54-0.54","gs3udt6gt5eyhcd",766,"166.csv","","288","resources/trios/L1T2A2.jpg","39","restless",0.3,0.4,0.8,0.407600018350566,"true"
"image-keyboard-response",174,214859,"0.0-3.54-1.54","gs3udt6gt5eyhcd",766,"166.csv","","null","resources/maskTrios/BBA2.jpg","null","",NA,NA,NA,NA,""
"image-keyboard-response",175,216062,"0.0-3.54-2.54","gs3udt6gt5eyhcd",766,"166.csv","","null","resources/images/coin2.png","null","",NA,NA,NA,NA,""
"image-keyboard-response",176,216392,"0.0-3.55-0.55","gs3udt6gt5eyhcd",766,"166.csv","","329","resources/trios/L1T2A2.jpg","39","restless",0.3,0.4,0.8,0.516925303745029,"true"
"image-keyboard-response",177,216795,"0.0-3.55-1.55","gs3udt6gt5eyhcd",766,"166.csv","","null","resources/maskTrios/BBA2.jpg","null","",NA,NA,NA,NA,""
"image-keyboard-response",178,217998,"0.0-3.55-2.55","gs3udt6gt5eyhcd",766,"166.csv","","null","resources/images/coin2.png","null","",NA,NA,NA,NA,""
"image-keyboard-response",179,218354,"0.0-3.56-0.56","gs3udt6gt5eyhcd",766,"166.csv","","354","resources/trios/L1T4A1.jpg","39","restless",0.2,0.4,0.8,0.657707310666829,"true"
"image-keyboard-response",180,218757,"0.0-3.56-1.56","gs3udt6gt5eyhcd",766,"166.csv","","null","resources/maskTrios/BBA1.jpg","null","",NA,NA,NA,NA,""
"image-keyboard-response",181,219960,"0.0-3.56-2.56","gs3udt6gt5eyhcd",766,"166.csv","","null","resources/images/coin2.png","null","",NA,NA,NA,NA,""
"image-keyboard-response",182,220404,"0.0-3.57-0.57","gs3udt6gt5eyhcd",766,"166.csv","","442.9999999999709","resources/trios/L1T4A2.jpg","39","restless",0.2,0.4,0.8,0.681925352873556,"true"
"image-keyboard-response",183,220808,"0.0-3.57-1.57","gs3udt6gt5eyhcd",766,"166.csv","","null","resources/maskTrios/BBA2.jpg","null","",NA,NA,NA,NA,""
"image-keyboard-response",184,222013,"0.0-3.57-2.57","gs3udt6gt5eyhcd",766,"166.csv","","null","resources/images/coin2.png","null","",NA,NA,NA,NA,""
"image-keyboard-response",185,222362,"0.0-3.58-0.58","gs3udt6gt5eyhcd",766,"166.csv","","348","resources/trios/L2T2A2.jpg","39","restless",0.2,0.5,0.8,0.0843186745160454,"true"
"image-keyboard-response",186,222766,"0.0-3.58-1.58","gs3udt6gt5eyhcd",766,"166.csv","","null","resources/maskTrios/BBA2.jpg","null","",NA,NA,NA,NA,""
"image-keyboard-response",187,223969,"0.0-3.58-2.58","gs3udt6gt5eyhcd",766,"166.csv","","null","resources/images/coin2.png","null","",NA,NA,NA,NA,""
"image-keyboard-response",188,224275,"0.0-3.59-0.59","gs3udt6gt5eyhcd",766,"166.csv","","305","resources/trios/L1T4A2.jpg","39","restless",0.2,0.5,0.7,0.56853260664024,"true"
"image-keyboard-response",189,224678,"0.0-3.59-1.59","gs3udt6gt5eyhcd",766,"166.csv","","null","resources/maskTrios/BBA2.jpg","null","",NA,NA,NA,NA,""
"image-keyboard-response",190,225882,"0.0-3.59-2.59","gs3udt6gt5eyhcd",766,"166.csv","","null","resources/images/coin2.png","null","",NA,NA,NA,NA,""
"image-keyboard-response",191,226191,"0.0-3.60-0.60","gs3udt6gt5eyhcd",766,"166.csv","","305.9999999999709","resources/trios/L1T4A1.jpg","39","restless",0.2,0.5,0.7,0.422704873720101,"true"
"image-keyboard-response",192,226594,"0.0-3.60-1.60","gs3udt6gt5eyhcd",766,"166.csv","","null","resources/maskTrios/BBA1.jpg","null","",NA,NA,NA,NA,""
"image-keyboard-response",193,227797,"0.0-3.60-2.60","gs3udt6gt5eyhcd",766,"166.csv","","null","resources/images/coin2.png","null","",NA,NA,NA,NA,""
"image-keyboard-response",194,228109,"0.0-3.61-0.61","gs3udt6gt5eyhcd",766,"166.csv","","310","resources/trios/L1T2A2.jpg","39","restless",0.2,0.5,0.6,0.111764453642858,"true"
"image-keyboard-response",195,228513,"0.0-3.61-1.61","gs3udt6gt5eyhcd",766,"166.csv","","null","resources/maskTrios/BBA2.jpg","null","",NA,NA,NA,NA,""
"image-keyboard-response",196,229716,"0.0-3.61-2.61","gs3udt6gt5eyhcd",766,"166.csv","","null","resources/images/coin2.png","null","",NA,NA,NA,NA,""
"image-keyboard-response",197,230023,"0.0-3.62-0.62","gs3udt6gt5eyhcd",766,"166.csv","","304.9999999999709","resources/trios/L2T4A1.jpg","39","restless",0.2,0.5,0.6,0.683140069648181,"false"
"image-keyboard-response",198,230426,"0.0-3.62-1.62","gs3udt6gt5eyhcd",766,"166.csv","","null","resources/maskTrios/BBA1.jpg","null","",NA,NA,NA,NA,""
"image-keyboard-response",199,231629,"0.0-3.62-2.62","gs3udt6gt5eyhcd",766,"166.csv","","null","resources/images/fishbone.png","null","",NA,NA,NA,NA,""
"image-keyboard-response",200,231945,"0.0-3.63-0.63","gs3udt6gt5eyhcd",766,"166.csv","","314","resources/trios/L1T2A1.jpg","39","restless",0.2,0.6,0.6,0.970949409557251,"false"
"image-keyboard-response",201,232348,"0.0-3.63-1.63","gs3udt6gt5eyhcd",766,"166.csv","","null","resources/maskTrios/BBA1.jpg","null","",NA,NA,NA,NA,""
"image-keyboard-response",202,233551,"0.0-3.63-2.63","gs3udt6gt5eyhcd",766,"166.csv","","null","resources/images/fishbone.png","null","",NA,NA,NA,NA,""
"image-keyboard-response",203,233979,"0.0-3.64-0.64","gs3udt6gt5eyhcd",766,"166.csv","","426","resources/trios/L1T4A2.jpg","39","restless",0.2,0.6,0.6,0.158998267843078,"true"
"image-keyboard-response",204,234382,"0.0-3.64-1.64","gs3udt6gt5eyhcd",766,"166.csv","","null","resources/maskTrios/BBA2.jpg","null","",NA,NA,NA,NA,""
"image-keyboard-response",205,235585,"0.0-3.64-2.64","gs3udt6gt5eyhcd",766,"166.csv","","null","resources/images/coin2.png","null","",NA,NA,NA,NA,""
"image-keyboard-response",206,236012,"0.0-3.65-0.65","gs3udt6gt5eyhcd",766,"166.csv","","424.9999999999709","resources/trios/L1T4A1.jpg","39","restless",0.2,0.6,0.6,0.784122283444657,"false"
"image-keyboard-response",207,236415,"0.0-3.65-1.65","gs3udt6gt5eyhcd",766,"166.csv","","null","resources/maskTrios/BBA1.jpg","null","",NA,NA,NA,NA,""
"image-keyboard-response",208,237616,"0.0-3.65-2.65","gs3udt6gt5eyhcd",766,"166.csv","","null","resources/images/fishbone.png","null","",NA,NA,NA,NA,""
"image-keyboard-response",209,238247,"0.0-3.66-0.66","gs3udt6gt5eyhcd",766,"166.csv","","629","resources/trios/L1T2A1.jpg","39","restless",0.2,0.6,0.6,0.913875915163524,"false"
"image-keyboard-response",210,238650,"0.0-3.66-1.66","gs3udt6gt5eyhcd",766,"166.csv","","null","resources/maskTrios/BBA1.jpg","null","",NA,NA,NA,NA,""
"image-keyboard-response",211,239854,"0.0-3.66-2.66","gs3udt6gt5eyhcd",766,"166.csv","","null","resources/images/fishbone.png","null","",NA,NA,NA,NA,""
"image-keyboard-response",212,241817,"0.0-3.67-0.67","gs3udt6gt5eyhcd",766,"166.csv","","1961","resources/trios/L2T4A2.jpg","39","restless",0.2,0.6,0.6,0.098866406693192,"true"
"image-keyboard-response",213,242220,"0.0-3.67-1.67","gs3udt6gt5eyhcd",766,"166.csv","","null","resources/maskTrios/BBA2.jpg","null","",NA,NA,NA,NA,""
"image-keyboard-response",214,243423,"0.0-3.67-2.67","gs3udt6gt5eyhcd",766,"166.csv","","null","resources/images/coin2.png","null","",NA,NA,NA,NA,""
"image-keyboard-response",215,245571,"0.0-3.68-0.68","gs3udt6gt5eyhcd",766,"166.csv","","2146","resources/trios/L1T4A1.jpg","39","restless",0.2,0.6,0.6,0.556313941590508,"true"
"image-keyboard-response",216,245974,"0.0-3.68-1.68","gs3udt6gt5eyhcd",766,"166.csv","","null","resources/maskTrios/BBA1.jpg","null","",NA,NA,NA,NA,""
"image-keyboard-response",217,247176,"0.0-3.68-2.68","gs3udt6gt5eyhcd",766,"166.csv","","null","resources/images/coin2.png","null","",NA,NA,NA,NA,""
"image-keyboard-response",218,247788,"0.0-3.69-0.69","gs3udt6gt5eyhcd",766,"166.csv","","610","resources/trios/L1T4A2.jpg","39","restless",0.2,0.6,0.6,0.534148025059521,"true"
"image-keyboard-response",219,248192,"0.0-3.69-1.69","gs3udt6gt5eyhcd",766,"166.csv","","null","resources/maskTrios/BBA2.jpg","null","",NA,NA,NA,NA,""
"image-keyboard-response",220,249394,"0.0-3.69-2.69","gs3udt6gt5eyhcd",766,"166.csv","","null","resources/images/coin2.png","null","",NA,NA,NA,NA,""
"image-keyboard-response",221,249944,"0.0-3.70-0.70","gs3udt6gt5eyhcd",766,"166.csv","","548.0000000000291","resources/trios/L2T2A2.jpg","39","restless",0.3,0.6,0.6,0.398007518251254,"true"
"image-keyboard-response",222,250347,"0.0-3.70-1.70","gs3udt6gt5eyhcd",766,"166.csv","","null","resources/maskTrios/BBA2.jpg","null","",NA,NA,NA,NA,""
"image-keyboard-response",223,251550,"0.0-3.70-2.70","gs3udt6gt5eyhcd",766,"166.csv","","null","resources/images/coin2.png","null","",NA,NA,NA,NA,""
"image-keyboard-response",224,253572,"0.0-3.71-0.71","gs3udt6gt5eyhcd",766,"166.csv","","2021","resources/trios/L2T4A2.jpg","39","restless",0.3,0.5,0.6,0.526811021068596,"true"
"image-keyboard-response",225,253975,"0.0-3.71-1.71","gs3udt6gt5eyhcd",766,"166.csv","","null","resources/maskTrios/BBA2.jpg","null","",NA,NA,NA,NA,""
"image-keyboard-response",226,255178,"0.0-3.71-2.71","gs3udt6gt5eyhcd",766,"166.csv","","null","resources/images/coin2.png","null","",NA,NA,NA,NA,""
"image-keyboard-response",227,261855,"0.0-3.72-0.72","gs3udt6gt5eyhcd",766,"166.csv","","6676","resources/trios/L1T2A2.jpg","39","restless",0.3,0.5,0.6,0.562541443447395,"true"
"image-keyboard-response",228,262258,"0.0-3.72-1.72","gs3udt6gt5eyhcd",766,"166.csv","","null","resources/maskTrios/BBA2.jpg","null","",NA,NA,NA,NA,""
"image-keyboard-response",229,263462,"0.0-3.72-2.72","gs3udt6gt5eyhcd",766,"166.csv","","null","resources/images/coin2.png","null","",NA,NA,NA,NA,""
"image-keyboard-response",230,263869,"0.0-3.73-0.73","gs3udt6gt5eyhcd",766,"166.csv","","405","resources/trios/L1T2A1.jpg","39","restless",0.3,0.5,0.6,0.00957899961245079,"true"
"image-keyboard-response",231,264272,"0.0-3.73-1.73","gs3udt6gt5eyhcd",766,"166.csv","","null","resources/maskTrios/BBA1.jpg","null","",NA,NA,NA,NA,""
"image-keyboard-response",232,265475,"0.0-3.73-2.73","gs3udt6gt5eyhcd",766,"166.csv","","null","resources/images/coin2.png","null","",NA,NA,NA,NA,""
"image-keyboard-response",233,265698,"0.0-3.74-0.74","gs3udt6gt5eyhcd",766,"166.csv","","221","resources/trios/L1T2A2.jpg","39","restless",0.3,0.5,0.6,0.503363527520737,"true"
"image-keyboard-response",234,266101,"0.0-3.74-1.74","gs3udt6gt5eyhcd",766,"166.csv","","null","resources/maskTrios/BBA2.jpg","null","",NA,NA,NA,NA,""
"image-keyboard-response",235,267304,"0.0-3.74-2.74","gs3udt6gt5eyhcd",766,"166.csv","","null","resources/images/coin2.png","null","",NA,NA,NA,NA,""
"image-keyboard-response",236,267764,"0.0-3.75-0.75","gs3udt6gt5eyhcd",766,"166.csv","","458","resources/trios/L1T2A2.jpg","39","restless",0.3,0.5,0.6,0.268130348609436,"true"
"image-keyboard-response",237,268166,"0.0-3.75-1.75","gs3udt6gt5eyhcd",766,"166.csv","","null","resources/maskTrios/BBA2.jpg","null","",NA,NA,NA,NA,""
"image-keyboard-response",238,269370,"0.0-3.75-2.75","gs3udt6gt5eyhcd",766,"166.csv","","null","resources/images/coin2.png","null","",NA,NA,NA,NA,""
"image-keyboard-response",239,269527,"0.0-3.76-0.76","gs3udt6gt5eyhcd",766,"166.csv","","155","resources/trios/L2T4A2.jpg","39","restless",0.3,0.5,0.6,0.407068103764178,"true"
"image-keyboard-response",240,269930,"0.0-3.76-1.76","gs3udt6gt5eyhcd",766,"166.csv","","null","resources/maskTrios/BBA2.jpg","null","",NA,NA,NA,NA,""
"image-keyboard-response",241,271133,"0.0-3.76-2.76","gs3udt6gt5eyhcd",766,"166.csv","","null","resources/images/coin2.png","null","",NA,NA,NA,NA,""
"image-keyboard-response",242,271184,"0.0-3.77-0.77","gs3udt6gt5eyhcd",766,"166.csv","","49","resources/trios/L2T4A1.jpg","39","restless",0.4,0.5,0.6,0.773157003730296,"false"
"image-keyboard-response",243,271586,"0.0-3.77-1.77","gs3udt6gt5eyhcd",766,"166.csv","","null","resources/maskTrios/BBA1.jpg","null","",NA,NA,NA,NA,""
"image-keyboard-response",244,272788,"0.0-3.77-2.77","gs3udt6gt5eyhcd",766,"166.csv","","null","resources/images/fishbone.png","null","",NA,NA,NA,NA,""
"image-keyboard-response",245,272819,"0.0-3.78-0.78","gs3udt6gt5eyhcd",766,"166.csv","","30","resources/trios/L1T4A2.jpg","39","restless",0.4,0.5,0.6,0.168429162339256,"true"
"image-keyboard-response",246,273220,"0.0-3.78-1.78","gs3udt6gt5eyhcd",766,"166.csv","","null","resources/maskTrios/BBA2.jpg","null","",NA,NA,NA,NA,""
"image-keyboard-response",247,274423,"0.0-3.78-2.78","gs3udt6gt5eyhcd",766,"166.csv","","null","resources/images/coin2.png","null","",NA,NA,NA,NA,""
"image-keyboard-response",248,274658,"0.0-3.79-0.79","gs3udt6gt5eyhcd",766,"166.csv","","234","resources/trios/L2T2A1.jpg","39","restless",0.4,0.6,0.6,0.926713734879953,"false"
"image-keyboard-response",249,275061,"0.0-3.79-1.79","gs3udt6gt5eyhcd",766,"166.csv","","null","resources/maskTrios/BBA1.jpg","null","",NA,NA,NA,NA,""
"image-keyboard-response",250,276263,"0.0-3.79-2.79","gs3udt6gt5eyhcd",766,"166.csv","","null","resources/images/fishbone.png","null","",NA,NA,NA,NA,""
"image-keyboard-response",251,277304,"0.0-3.80-0.80","gs3udt6gt5eyhcd",766,"166.csv","","1040","resources/trios/L1T4A2.jpg","39","restless",0.4,0.6,0.6,0.36514171230318,"true"
"image-keyboard-response",252,277707,"0.0-3.80-1.80","gs3udt6gt5eyhcd",766,"166.csv","","null","resources/maskTrios/BBA2.jpg","null","",NA,NA,NA,NA,""
"image-keyboard-response",253,278910,"0.0-3.80-2.80","gs3udt6gt5eyhcd",766,"166.csv","","null","resources/images/coin2.png","null","",NA,NA,NA,NA,""
"image-keyboard-response",254,279281,"0.0-3.81-0.81","gs3udt6gt5eyhcd",766,"166.csv","","369","resources/trios/L2T2A1.jpg","39","restless",0.4,0.6,0.6,0.658193901989054,"false"
"image-keyboard-response",255,279683,"0.0-3.81-1.81","gs3udt6gt5eyhcd",766,"166.csv","","null","resources/maskTrios/BBA1.jpg","null","",NA,NA,NA,NA,""
"image-keyboard-response",256,280889,"0.0-3.81-2.81","gs3udt6gt5eyhcd",766,"166.csv","","null","resources/images/fishbone.png","null","",NA,NA,NA,NA,""
"image-keyboard-response",257,281060,"0.0-3.82-0.82","gs3udt6gt5eyhcd",766,"166.csv","","168","resources/trios/L2T4A1.jpg","39","restless",0.4,0.6,0.6,0.903431684499425,"false"
"image-keyboard-response",258,281463,"0.0-3.82-1.82","gs3udt6gt5eyhcd",766,"166.csv","","null","resources/maskTrios/BBA1.jpg","null","",NA,NA,NA,NA,""
"image-keyboard-response",259,282666,"0.0-3.82-2.82","gs3udt6gt5eyhcd",766,"166.csv","","null","resources/images/fishbone.png","null","",NA,NA,NA,NA,""
"image-keyboard-response",260,283022,"0.0-3.83-0.83","gs3udt6gt5eyhcd",766,"166.csv","","353.9999999999418","resources/trios/L1T4A2.jpg","39","restless",0.4,0.5,0.6,0.161733834835753,"true"
"image-keyboard-response",261,283426,"0.0-3.83-1.83","gs3udt6gt5eyhcd",766,"166.csv","","null","resources/maskTrios/BBA2.jpg","null","",NA,NA,NA,NA,""
"image-keyboard-response",262,284628,"0.0-3.83-2.83","gs3udt6gt5eyhcd",766,"166.csv","","null","resources/images/coin2.png","null","",NA,NA,NA,NA,""
"image-keyboard-response",263,284719,"0.0-3.84-0.84","gs3udt6gt5eyhcd",766,"166.csv","","89","resources/trios/L1T4A1.jpg","39","restless",0.4,0.5,0.6,0.0117384912319932,"true"
"image-keyboard-response",264,285122,"0.0-3.84-1.84","gs3udt6gt5eyhcd",766,"166.csv","","null","resources/maskTrios/BBA1.jpg","null","",NA,NA,NA,NA,""
"image-keyboard-response",265,286325,"0.0-3.84-2.84","gs3udt6gt5eyhcd",766,"166.csv","","null","resources/images/coin2.png","null","",NA,NA,NA,NA,""
"image-keyboard-response",266,286489,"0.0-3.85-0.85","gs3udt6gt5eyhcd",766,"166.csv","","162","resources/trios/L2T4A1.jpg","39","restless",0.4,0.4,0.6,0.528391262575313,"true"
"image-keyboard-response",267,286892,"0.0-3.85-1.85","gs3udt6gt5eyhcd",766,"166.csv","","null","resources/maskTrios/BBA1.jpg","null","",NA,NA,NA,NA,""
"image-keyboard-response",268,288095,"0.0-3.85-2.85","gs3udt6gt5eyhcd",766,"166.csv","","null","resources/images/coin2.png","null","",NA,NA,NA,NA,""
"image-keyboard-response",269,288215,"0.0-3.86-0.86","gs3udt6gt5eyhcd",766,"166.csv","","115","resources/trios/L1T2A2.jpg","39","restless",0.4,0.4,0.5,0.297976610167779,"true"
"image-keyboard-response",270,288618,"0.0-3.86-1.86","gs3udt6gt5eyhcd",766,"166.csv","","null","resources/maskTrios/BBA2.jpg","null","",NA,NA,NA,NA,""
"image-keyboard-response",271,289821,"0.0-3.86-2.86","gs3udt6gt5eyhcd",766,"166.csv","","null","resources/images/coin2.png","null","",NA,NA,NA,NA,""
"image-keyboard-response",272,484123,"0.0-3.87-0.87","gs3udt6gt5eyhcd",766,"166.csv","","194298.99999999994","resources/trios/L2T2A1.jpg","39","restless",0.4,0.4,0.4,0.103384203592492,"true"
"image-keyboard-response",273,484529,"0.0-3.87-1.87","gs3udt6gt5eyhcd",766,"166.csv","","null","resources/maskTrios/BBA1.jpg","null","",NA,NA,NA,NA,""
"image-keyboard-response",274,485733,"0.0-3.87-2.87","gs3udt6gt5eyhcd",766,"166.csv","","null","resources/images/coin2.png","null","",NA,NA,NA,NA,""
"image-keyboard-response",275,485864,"0.0-3.88-0.88","gs3udt6gt5eyhcd",766,"166.csv","","128.9999999999418","resources/trios/L2T4A1.jpg","39","restless",0.4,0.4,0.4,0.388394860549992,"true"
"image-keyboard-response",276,486267,"0.0-3.88-1.88","gs3udt6gt5eyhcd",766,"166.csv","","null","resources/maskTrios/BBA1.jpg","null","",NA,NA,NA,NA,""
"image-keyboard-response",277,487470,"0.0-3.88-2.88","gs3udt6gt5eyhcd",766,"166.csv","","null","resources/images/coin2.png","null","",NA,NA,NA,NA,""
"image-keyboard-response",278,487472,"0.0-3.89-0.89","gs3udt6gt5eyhcd",766,"166.csv","","0","resources/trios/L1T2A1.jpg","39","restless",0.4,0.4,0.4,0.410226025907381,"false"
"image-keyboard-response",279,487874,"0.0-3.89-1.89","gs3udt6gt5eyhcd",766,"166.csv","","null","resources/maskTrios/BBA1.jpg","null","",NA,NA,NA,NA,""
"image-keyboard-response",280,489076,"0.0-3.89-2.89","gs3udt6gt5eyhcd",766,"166.csv","","null","resources/images/fishbone.png","null","",NA,NA,NA,NA,""
"image-keyboard-response",281,489091,"0.0-3.90-0.90","gs3udt6gt5eyhcd",766,"166.csv","","14","resources/trios/L1T2A2.jpg","39","restless",0.4,0.3,0.4,0.525799017984532,"false"
"image-keyboard-response",282,489494,"0.0-3.90-1.90","gs3udt6gt5eyhcd",766,"166.csv","","null","resources/maskTrios/BBA2.jpg","null","",NA,NA,NA,NA,""
"image-keyboard-response",283,490695,"0.0-3.90-2.90","gs3udt6gt5eyhcd",766,"166.csv","","null","resources/images/fishbone.png","null","",NA,NA,NA,NA,""
"image-keyboard-response",284,490883,"0.0-3.91-0.91","gs3udt6gt5eyhcd",766,"166.csv","","187","resources/trios/L2T4A1.jpg","39","restless",0.4,0.3,0.4,0.449875550837675,"false"
"image-keyboard-response",285,491286,"0.0-3.91-1.91","gs3udt6gt5eyhcd",766,"166.csv","","null","resources/maskTrios/BBA1.jpg","null","",NA,NA,NA,NA,""
"image-keyboard-response",286,492488,"0.0-3.91-2.91","gs3udt6gt5eyhcd",766,"166.csv","","null","resources/images/fishbone.png","null","",NA,NA,NA,NA,""
"image-keyboard-response",287,492754,"0.0-3.92-0.92","gs3udt6gt5eyhcd",766,"166.csv","","264.0000000000582","resources/trios/L1T4A1.jpg","39","restless",0.4,0.3,0.4,0.444262477483369,"false"
"image-keyboard-response",288,493156,"0.0-3.92-1.92","gs3udt6gt5eyhcd",766,"166.csv","","null","resources/maskTrios/BBA1.jpg","null","",NA,NA,NA,NA,""
"image-keyboard-response",289,494358,"0.0-3.92-2.92","gs3udt6gt5eyhcd",766,"166.csv","","null","resources/images/fishbone.png","null","",NA,NA,NA,NA,""
"image-keyboard-response",290,494789,"0.0-3.93-0.93","gs3udt6gt5eyhcd",766,"166.csv","","430","resources/trios/L1T2A1.jpg","39","restless",0.4,0.2,0.4,0.913448518561041,"false"
"image-keyboard-response",291,495192,"0.0-3.93-1.93","gs3udt6gt5eyhcd",766,"166.csv","","null","resources/maskTrios/BBA1.jpg","null","",NA,NA,NA,NA,""
"image-keyboard-response",292,496394,"0.0-3.93-2.93","gs3udt6gt5eyhcd",766,"166.csv","","null","resources/images/fishbone.png","null","",NA,NA,NA,NA,""
"image-keyboard-response",293,496596,"0.0-3.94-0.94","gs3udt6gt5eyhcd",766,"166.csv","","201","resources/trios/L2T4A2.jpg","39","restless",0.5,0.2,0.4,0.439495502663521,"false"
"image-keyboard-response",294,496999,"0.0-3.94-1.94","gs3udt6gt5eyhcd",766,"166.csv","","null","resources/maskTrios/BBA2.jpg","null","",NA,NA,NA,NA,""
"image-keyboard-response",295,498201,"0.0-3.94-2.94","gs3udt6gt5eyhcd",766,"166.csv","","null","resources/images/fishbone.png","null","",NA,NA,NA,NA,""
"image-keyboard-response",296,498565,"0.0-3.95-0.95","gs3udt6gt5eyhcd",766,"166.csv","","363","resources/trios/L2T4A1.jpg","37","restless",0.5,0.2,0.4,0.574111816618118,"false"
"image-keyboard-response",297,498968,"0.0-3.95-1.95","gs3udt6gt5eyhcd",766,"166.csv","","null","resources/maskTrios/L2BB.jpg","null","",NA,NA,NA,NA,""
"image-keyboard-response",298,500169,"0.0-3.95-2.95","gs3udt6gt5eyhcd",766,"166.csv","","null","resources/images/fishbone.png","null","",NA,NA,NA,NA,""
"image-keyboard-response",299,500598,"0.0-3.96-0.96","gs3udt6gt5eyhcd",766,"166.csv","","426.9999999999418","resources/trios/L2T4A2.jpg","37","restless",0.5,0.2,0.4,0.0339982301849076,"true"
"image-keyboard-response",300,501000,"0.0-3.96-1.96","gs3udt6gt5eyhcd",766,"166.csv","","null","resources/maskTrios/L2BB.jpg","null","",NA,NA,NA,NA,""
"image-keyboard-response",301,502202,"0.0-3.96-2.96","gs3udt6gt5eyhcd",766,"166.csv","","null","resources/images/coin2.png","null","",NA,NA,NA,NA,""
"image-keyboard-response",302,502723,"0.0-3.97-0.97","gs3udt6gt5eyhcd",766,"166.csv","","516.0000000000582","resources/trios/L1T4A1.jpg","37","restless",0.5,0.2,0.3,0.513080145458008,"false"
"image-keyboard-response",303,503126,"0.0-3.97-1.97","gs3udt6gt5eyhcd",766,"166.csv","","null","resources/maskTrios/L1BB.jpg","null","",NA,NA,NA,NA,""
"image-keyboard-response",304,504328,"0.0-3.97-2.97","gs3udt6gt5eyhcd",766,"166.csv","","null","resources/images/fishbone.png","null","",NA,NA,NA,NA,""
"image-keyboard-response",305,504820,"0.0-3.98-0.98","gs3udt6gt5eyhcd",766,"166.csv","","490","resources/trios/L1T4A2.jpg","37","restless",0.5,0.2,0.3,0.225905479184273,"true"
"image-keyboard-response",306,505223,"0.0-3.98-1.98","gs3udt6gt5eyhcd",766,"166.csv","","null","resources/maskTrios/L1BB.jpg","null","",NA,NA,NA,NA,""
"image-keyboard-response",307,506425,"0.0-3.98-2.98","gs3udt6gt5eyhcd",766,"166.csv","","null","resources/images/coin2.png","null","",NA,NA,NA,NA,""
"image-keyboard-response",308,506923,"0.0-3.99-0.99","gs3udt6gt5eyhcd",766,"166.csv","","496","resources/trios/L2T2A1.jpg","37","restless",0.5,0.2,0.3,0.538482425102074,"false"
"image-keyboard-response",309,507326,"0.0-3.99-1.99","gs3udt6gt5eyhcd",766,"166.csv","","null","resources/maskTrios/L2BB.jpg","null","",NA,NA,NA,NA,""
"image-keyboard-response",310,508528,"0.0-3.99-2.99","gs3udt6gt5eyhcd",766,"166.csv","","null","resources/images/fishbone.png","null","",NA,NA,NA,NA,""
"image-keyboard-response",311,508772,"0.0-3.100-0.100","gs3udt6gt5eyhcd",766,"166.csv","","241.0000000000582","resources/trios/L2T4A1.jpg","39","restless",0.5,0.2,0.3,0.920966205533693,"false"
"image-keyboard-response",312,509174,"0.0-3.100-1.100","gs3udt6gt5eyhcd",766,"166.csv","","null","resources/maskTrios/BBA1.jpg","null","",NA,NA,NA,NA,""
"image-keyboard-response",313,510377,"0.0-3.100-2.100","gs3udt6gt5eyhcd",766,"166.csv","","null","resources/images/fishbone.png","null","",NA,NA,NA,NA,""
"image-keyboard-response",314,514129,"0.0-3.101-0.101","gs3udt6gt5eyhcd",766,"166.csv","","3750","resources/trios/L1T4A2.jpg","39","restless",0.5,0.2,0.3,0.196381649771515,"true"
"image-keyboard-response",315,514534,"0.0-3.101-1.101","gs3udt6gt5eyhcd",766,"166.csv","","null","resources/maskTrios/BBA2.jpg","null","",NA,NA,NA,NA,""
"image-keyboard-response",316,515737,"0.0-3.101-2.101","gs3udt6gt5eyhcd",766,"166.csv","","null","resources/images/coin2.png","null","",NA,NA,NA,NA,""
"image-keyboard-response",317,515859,"0.0-3.102-0.102","gs3udt6gt5eyhcd",766,"166.csv","","121.00000000011642","resources/trios/L2T4A2.jpg","39","restless",0.5,0.2,0.3,0.244692752551148,"true"
"image-keyboard-response",318,516261,"0.0-3.102-1.102","gs3udt6gt5eyhcd",766,"166.csv","","null","resources/maskTrios/BBA2.jpg","null","",NA,NA,NA,NA,""
"image-keyboard-response",319,517464,"0.0-3.102-2.102","gs3udt6gt5eyhcd",766,"166.csv","","null","resources/images/coin2.png","null","",NA,NA,NA,NA,""
"image-keyboard-response",320,522043,"0.0-3.103-0.103","gs3udt6gt5eyhcd",766,"166.csv","","4577.999999999942","resources/trios/L2T2A2.jpg","39","restless",0.5,0.2,0.3,0.592997404294732,"false"
"image-keyboard-response",321,522446,"0.0-3.103-1.103","gs3udt6gt5eyhcd",766,"166.csv","","null","resources/maskTrios/BBA2.jpg","null","",NA,NA,NA,NA,""
"image-keyboard-response",322,523649,"0.0-3.103-2.103","gs3udt6gt5eyhcd",766,"166.csv","","null","resources/images/fishbone.png","null","",NA,NA,NA,NA,""
"image-keyboard-response",323,524540,"0.0-3.104-0.104","gs3udt6gt5eyhcd",766,"166.csv","","889","resources/trios/L2T2A1.jpg","39","restless",0.5,0.2,0.3,0.806614066344771,"false"
"image-keyboard-response",324,524943,"0.0-3.104-1.104","gs3udt6gt5eyhcd",766,"166.csv","","null","resources/maskTrios/BBA1.jpg","null","",NA,NA,NA,NA,""
"image-keyboard-response",325,526145,"0.0-3.104-2.104","gs3udt6gt5eyhcd",766,"166.csv","","null","resources/images/fishbone.png","null","",NA,NA,NA,NA,""
"image-keyboard-response",326,526953,"0.0-3.105-0.105","gs3udt6gt5eyhcd",766,"166.csv","","804.9999999998836","resources/trios/L2T2A2.jpg","37","restless",0.5,0.3,0.3,0.0427783255647819,"true"
"image-keyboard-response",327,527355,"0.0-3.105-1.105","gs3udt6gt5eyhcd",766,"166.csv","","null","resources/maskTrios/L2BB.jpg","null","",NA,NA,NA,NA,""
"image-keyboard-response",328,528558,"0.0-3.105-2.105","gs3udt6gt5eyhcd",766,"166.csv","","null","resources/images/coin2.png","null","",NA,NA,NA,NA,""
"image-keyboard-response",329,528970,"0.0-3.106-0.106","gs3udt6gt5eyhcd",766,"166.csv","","409","resources/trios/L2T4A1.jpg","37","restless",0.5,0.3,0.3,0.0585655338476551,"true"
"image-keyboard-response",330,529373,"0.0-3.106-1.106","gs3udt6gt5eyhcd",766,"166.csv","","null","resources/maskTrios/L2BB.jpg","null","",NA,NA,NA,NA,""
"image-keyboard-response",331,530576,"0.0-3.106-2.106","gs3udt6gt5eyhcd",766,"166.csv","","null","resources/images/coin2.png","null","",NA,NA,NA,NA,""
"image-keyboard-response",332,530591,"0.0-3.107-0.107","gs3udt6gt5eyhcd",766,"166.csv","","14","resources/trios/L2T2A1.jpg","37","restless",0.5,0.3,0.2,0.290056048055146,"true"
"image-keyboard-response",333,530995,"0.0-3.107-1.107","gs3udt6gt5eyhcd",766,"166.csv","","null","resources/maskTrios/L2BB.jpg","null","",NA,NA,NA,NA,""
"image-keyboard-response",334,532198,"0.0-3.107-2.107","gs3udt6gt5eyhcd",766,"166.csv","","null","resources/images/coin2.png","null","",NA,NA,NA,NA,""
"image-keyboard-response",335,532402,"0.0-3.108-0.108","gs3udt6gt5eyhcd",766,"166.csv","","200.99999999988358","resources/trios/L2T4A1.jpg","37","restless",0.5,0.3,0.2,0.934292716047124,"false"
"image-keyboard-response",336,532805,"0.0-3.108-1.108","gs3udt6gt5eyhcd",766,"166.csv","","null","resources/maskTrios/L2BB.jpg","null","",NA,NA,NA,NA,""
"image-keyboard-response",337,534007,"0.0-3.108-2.108","gs3udt6gt5eyhcd",766,"166.csv","","null","resources/images/fishbone.png","null","",NA,NA,NA,NA,""
"image-keyboard-response",338,534648,"0.0-3.109-0.109","gs3udt6gt5eyhcd",766,"166.csv","","638.0000000001164","resources/trios/L2T4A2.jpg","37","restless",0.5,0.3,0.2,0.578079984794627,"false"
"image-keyboard-response",339,535051,"0.0-3.109-1.109","gs3udt6gt5eyhcd",766,"166.csv","","null","resources/maskTrios/L2BB.jpg","null","",NA,NA,NA,NA,""
"image-keyboard-response",340,536253,"0.0-3.109-2.109","gs3udt6gt5eyhcd",766,"166.csv","","null","resources/images/fishbone.png","null","",NA,NA,NA,NA,""
"image-keyboard-response",341,536265,"0.0-3.110-0.110","gs3udt6gt5eyhcd",766,"166.csv","","10","resources/trios/L1T4A2.jpg","39","restless",0.5,0.3,0.2,0.291844970556479,"false"
"image-keyboard-response",342,536668,"0.0-3.110-1.110","gs3udt6gt5eyhcd",766,"166.csv","","null","resources/maskTrios/BBA2.jpg","null","",NA,NA,NA,NA,""
"image-keyboard-response",343,537870,"0.0-3.110-2.110","gs3udt6gt5eyhcd",766,"166.csv","","null","resources/images/fishbone.png","null","",NA,NA,NA,NA,""
"image-keyboard-response",344,538112,"0.0-3.111-0.111","gs3udt6gt5eyhcd",766,"166.csv","","241","resources/trios/L2T2A2.jpg","39","restless",0.5,0.3,0.2,0.985308777041521,"false"
"image-keyboard-response",345,538515,"0.0-3.111-1.111","gs3udt6gt5eyhcd",766,"166.csv","","null","resources/maskTrios/BBA2.jpg","null","",NA,NA,NA,NA,""
"image-keyboard-response",346,539718,"0.0-3.111-2.111","gs3udt6gt5eyhcd",766,"166.csv","","null","resources/images/fishbone.png","null","",NA,NA,NA,NA,""
"image-keyboard-response",347,539883,"0.0-3.112-0.112","gs3udt6gt5eyhcd",766,"166.csv","","163","resources/trios/L2T4A2.jpg","39","restless",0.4,0.3,0.2,0.351569872713436,"false"
"image-keyboard-response",348,540285,"0.0-3.112-1.112","gs3udt6gt5eyhcd",766,"166.csv","","null","resources/maskTrios/BBA2.jpg","null","",NA,NA,NA,NA,""
"image-keyboard-response",349,541488,"0.0-3.112-2.112","gs3udt6gt5eyhcd",766,"166.csv","","null","resources/images/fishbone.png","null","",NA,NA,NA,NA,""
"image-keyboard-response",350,541586,"0.0-3.113-0.113","gs3udt6gt5eyhcd",766,"166.csv","","96","resources/trios/L1T4A2.jpg","39","restless",0.4,0.3,0.2,0.625355824154354,"false"
"image-keyboard-response",351,541988,"0.0-3.113-1.113","gs3udt6gt5eyhcd",766,"166.csv","","null","resources/maskTrios/BBA2.jpg","null","",NA,NA,NA,NA,""
"image-keyboard-response",352,543191,"0.0-3.113-2.113","gs3udt6gt5eyhcd",766,"166.csv","","null","resources/images/fishbone.png","null","",NA,NA,NA,NA,""
"image-keyboard-response",353,543571,"0.0-3.114-0.114","gs3udt6gt5eyhcd",766,"166.csv","","379","resources/trios/L2T2A2.jpg","39","restless",0.4,0.3,0.2,0.0834426700195626,"true"
"image-keyboard-response",354,543974,"0.0-3.114-1.114","gs3udt6gt5eyhcd",766,"166.csv","","null","resources/maskTrios/BBA2.jpg","null","",NA,NA,NA,NA,""
"image-keyboard-response",355,545177,"0.0-3.114-2.114","gs3udt6gt5eyhcd",766,"166.csv","","null","resources/images/coin2.png","null","",NA,NA,NA,NA,""
"image-keyboard-response",356,547217,"0.0-3.115-0.115","gs3udt6gt5eyhcd",766,"166.csv","","2038","resources/trios/L1T4A1.jpg","39","restless",0.4,0.3,0.2,0.220482681582785,"false"
"image-keyboard-response",357,547620,"0.0-3.115-1.115","gs3udt6gt5eyhcd",766,"166.csv","","null","resources/maskTrios/BBA1.jpg","null","",NA,NA,NA,NA,""
"image-keyboard-response",358,548823,"0.0-3.115-2.115","gs3udt6gt5eyhcd",766,"166.csv","","null","resources/images/fishbone.png","null","",NA,NA,NA,NA,""
"image-keyboard-response",359,549798,"0.0-3.116-0.116","gs3udt6gt5eyhcd",766,"166.csv","","974","resources/trios/L2T2A2.jpg","39","restless",0.4,0.3,0.2,0.150732469065201,"true"
"image-keyboard-response",360,550201,"0.0-3.116-1.116","gs3udt6gt5eyhcd",766,"166.csv","","null","resources/maskTrios/BBA2.jpg","null","",NA,NA,NA,NA,""
"image-keyboard-response",361,551403,"0.0-3.116-2.116","gs3udt6gt5eyhcd",766,"166.csv","","null","resources/images/coin2.png","null","",NA,NA,NA,NA,""
"image-keyboard-response",362,551663,"0.0-3.117-0.117","gs3udt6gt5eyhcd",766,"166.csv","","259","resources/trios/L1T4A2.jpg","39","restless",0.4,0.3,0.2,0.417274260150191,"false"
"image-keyboard-response",363,552066,"0.0-3.117-1.117","gs3udt6gt5eyhcd",766,"166.csv","","null","resources/maskTrios/BBA2.jpg","null","",NA,NA,NA,NA,""
"image-keyboard-response",364,553269,"0.0-3.117-2.117","gs3udt6gt5eyhcd",766,"166.csv","","null","resources/images/fishbone.png","null","",NA,NA,NA,NA,""
"image-keyboard-response",365,553331,"0.0-3.118-0.118","gs3udt6gt5eyhcd",766,"166.csv","","60.000000000116415","resources/trios/L1T4A1.jpg","39","restless",0.4,0.3,0.2,0.842074256144286,"false"
"image-keyboard-response",366,553733,"0.0-3.118-1.118","gs3udt6gt5eyhcd",766,"166.csv","","null","resources/maskTrios/BBA1.jpg","null","",NA,NA,NA,NA,""
"image-keyboard-response",367,554935,"0.0-3.118-2.118","gs3udt6gt5eyhcd",766,"166.csv","","null","resources/images/fishbone.png","null","",NA,NA,NA,NA,""
"image-keyboard-response",368,554942,"0.0-3.119-0.119","gs3udt6gt5eyhcd",766,"166.csv","","6","resources/trios/L1T2A1.jpg","39","restless",0.4,0.3,0.2,0.88168982768867,"false"
"image-keyboard-response",369,555344,"0.0-3.119-1.119","gs3udt6gt5eyhcd",766,"166.csv","","null","resources/maskTrios/BBA1.jpg","null","",NA,NA,NA,NA,""
"image-keyboard-response",370,556546,"0.0-3.119-2.119","gs3udt6gt5eyhcd",766,"166.csv","","null","resources/images/fishbone.png","null","",NA,NA,NA,NA,""
"image-keyboard-response",371,556582,"0.0-3.120-0.120","gs3udt6gt5eyhcd",766,"166.csv","","35","resources/trios/L2T4A1.jpg","39","restless",0.4,0.3,0.2,0.545226859630721,"false"
"image-keyboard-response",372,556984,"0.0-3.120-1.120","gs3udt6gt5eyhcd",766,"166.csv","","null","resources/maskTrios/BBA1.jpg","null","",NA,NA,NA,NA,""
"image-keyboard-response",373,558186,"0.0-3.120-2.120","gs3udt6gt5eyhcd",766,"166.csv","","null","resources/images/fishbone.png","null","",NA,NA,NA,NA,""
"image-keyboard-response",374,558416,"0.0-3.121-0.121","gs3udt6gt5eyhcd",766,"166.csv","","228","resources/trios/L2T4A1.jpg","39","restless",0.4,0.3,0.2,0.801314561738745,"false"
"image-keyboard-response",375,558818,"0.0-3.121-1.121","gs3udt6gt5eyhcd",766,"166.csv","","null","resources/maskTrios/BBA1.jpg","null","",NA,NA,NA,NA,""
"image-keyboard-response",376,560020,"0.0-3.121-2.121","gs3udt6gt5eyhcd",766,"166.csv","","null","resources/images/fishbone.png","null","",NA,NA,NA,NA,""
"image-keyboard-response",377,560868,"0.0-3.122-0.122","gs3udt6gt5eyhcd",766,"166.csv","","847","resources/trios/L2T4A2.jpg","39","restless",0.4,0.4,0.3,0.49785406556732,"false"
"image-keyboard-response",378,561271,"0.0-3.122-1.122","gs3udt6gt5eyhcd",766,"166.csv","","null","resources/maskTrios/BBA2.jpg","null","",NA,NA,NA,NA,""
"image-keyboard-response",379,562472,"0.0-3.122-2.122","gs3udt6gt5eyhcd",766,"166.csv","","null","resources/images/fishbone.png","null","",NA,NA,NA,NA,""
"image-keyboard-response",380,562641,"0.0-3.123-0.123","gs3udt6gt5eyhcd",766,"166.csv","","167","resources/trios/L2T4A1.jpg","39","restless",0.4,0.4,0.3,0.955794969429009,"false"
"image-keyboard-response",381,563043,"0.0-3.123-1.123","gs3udt6gt5eyhcd",766,"166.csv","","null","resources/maskTrios/BBA1.jpg","null","",NA,NA,NA,NA,""
"image-keyboard-response",382,564245,"0.0-3.123-2.123","gs3udt6gt5eyhcd",766,"166.csv","","null","resources/images/fishbone.png","null","",NA,NA,NA,NA,""
"image-keyboard-response",383,564302,"0.0-3.124-0.124","gs3udt6gt5eyhcd",766,"166.csv","","55.000000000116415","resources/trios/L2T4A1.jpg","39","restless",0.4,0.4,0.3,0.193424911574771,"true"
"image-keyboard-response",384,564704,"0.0-3.124-1.124","gs3udt6gt5eyhcd",766,"166.csv","","null","resources/maskTrios/BBA1.jpg","null","",NA,NA,NA,NA,""
"image-keyboard-response",385,565906,"0.0-3.124-2.124","gs3udt6gt5eyhcd",766,"166.csv","","null","resources/images/coin2.png","null","",NA,NA,NA,NA,""
"image-keyboard-response",386,566097,"0.0-3.125-0.125","gs3udt6gt5eyhcd",766,"166.csv","","189","resources/trios/L1T4A2.jpg","39","restless",0.4,0.4,0.3,0.449028121708975,"false"
"image-keyboard-response",387,566498,"0.0-3.125-1.125","gs3udt6gt5eyhcd",766,"166.csv","","null","resources/maskTrios/BBA2.jpg","null","",NA,NA,NA,NA,""
"image-keyboard-response",388,567701,"0.0-3.125-2.125","gs3udt6gt5eyhcd",766,"166.csv","","null","resources/images/fishbone.png","null","",NA,NA,NA,NA,""
"image-keyboard-response",389,567766,"0.0-3.126-0.126","gs3udt6gt5eyhcd",766,"166.csv","","63","resources/trios/L2T4A2.jpg","39","restless",0.5,0.4,0.3,0.652026972320613,"false"
"image-keyboard-response",390,568168,"0.0-3.126-1.126","gs3udt6gt5eyhcd",766,"166.csv","","null","resources/maskTrios/BBA2.jpg","null","",NA,NA,NA,NA,""
"image-keyboard-response",391,569371,"0.0-3.126-2.126","gs3udt6gt5eyhcd",766,"166.csv","","null","resources/images/fishbone.png","null","",NA,NA,NA,NA,""
"image-keyboard-response",392,569515,"0.0-3.127-0.127","gs3udt6gt5eyhcd",766,"166.csv","","143","resources/trios/L2T4A1.jpg","39","restless",0.5,0.4,0.3,0.0886643657636468,"true"
"image-keyboard-response",393,569917,"0.0-3.127-1.127","gs3udt6gt5eyhcd",766,"166.csv","","null","resources/maskTrios/BBA1.jpg","null","",NA,NA,NA,NA,""
"image-keyboard-response",394,571119,"0.0-3.127-2.127","gs3udt6gt5eyhcd",766,"166.csv","","null","resources/images/coin2.png","null","",NA,NA,NA,NA,""
"image-keyboard-response",395,571246,"0.0-3.128-0.128","gs3udt6gt5eyhcd",766,"166.csv","","126","resources/trios/L2T4A1.jpg","39","restless",0.5,0.4,0.3,0.30547510920778,"false"
"image-keyboard-response",396,571648,"0.0-3.128-1.128","gs3udt6gt5eyhcd",766,"166.csv","","null","resources/maskTrios/BBA1.jpg","null","",NA,NA,NA,NA,""
"image-keyboard-response",397,572850,"0.0-3.128-2.128","gs3udt6gt5eyhcd",766,"166.csv","","null","resources/images/fishbone.png","null","",NA,NA,NA,NA,""
"image-keyboard-response",398,572914,"0.0-3.129-0.129","gs3udt6gt5eyhcd",766,"166.csv","","63","resources/trios/L2T2A1.jpg","39","restless",0.6,0.4,0.3,0.310371419440228,"false"
"image-keyboard-response",399,573316,"0.0-3.129-1.129","gs3udt6gt5eyhcd",766,"166.csv","","null","resources/maskTrios/BBA1.jpg","null","",NA,NA,NA,NA,""
"image-keyboard-response",400,574518,"0.0-3.129-2.129","gs3udt6gt5eyhcd",766,"166.csv","","null","resources/images/fishbone.png","null","",NA,NA,NA,NA,""
"image-keyboard-response",401,574691,"0.0-3.130-0.130","gs3udt6gt5eyhcd",766,"166.csv","","169","resources/trios/L1T2A2.jpg","39","restless",0.6,0.4,0.3,0.503293308874015,"false"
"image-keyboard-response",402,575094,"0.0-3.130-1.130","gs3udt6gt5eyhcd",766,"166.csv","","null","resources/maskTrios/BBA2.jpg","null","",NA,NA,NA,NA,""
"image-keyboard-response",403,576296,"0.0-3.130-2.130","gs3udt6gt5eyhcd",766,"166.csv","","null","resources/images/fishbone.png","null","",NA,NA,NA,NA,""
"image-keyboard-response",404,576300,"0.0-3.131-0.131","gs3udt6gt5eyhcd",766,"166.csv","","2","resources/trios/L1T4A1.jpg","39","restless",0.6,0.4,0.3,0.202597755276547,"true"
"image-keyboard-response",405,576701,"0.0-3.131-1.131","gs3udt6gt5eyhcd",766,"166.csv","","null","resources/maskTrios/BBA1.jpg","null","",NA,NA,NA,NA,""
"image-keyboard-response",406,577904,"0.0-3.131-2.131","gs3udt6gt5eyhcd",766,"166.csv","","null","resources/images/coin2.png","null","",NA,NA,NA,NA,""
"image-keyboard-response",407,577906,"0.0-3.132-0.132","gs3udt6gt5eyhcd",766,"166.csv","","0","resources/trios/L2T4A2.jpg","39","restless",0.6,0.4,0.3,0.831148803564163,"false"
"image-keyboard-response",408,578307,"0.0-3.132-1.132","gs3udt6gt5eyhcd",766,"166.csv","","null","resources/maskTrios/BBA2.jpg","null","",NA,NA,NA,NA,""
"image-keyboard-response",409,579509,"0.0-3.132-2.132","gs3udt6gt5eyhcd",766,"166.csv","","null","resources/images/fishbone.png","null","",NA,NA,NA,NA,""
"image-keyboard-response",410,580610,"0.0-3.133-0.133","gs3udt6gt5eyhcd",766,"166.csv","","1099","resources/trios/L2T4A1.jpg","39","restless",0.6,0.4,0.3,0.902724193239611,"false"
"image-keyboard-response",411,581012,"0.0-3.133-1.133","gs3udt6gt5eyhcd",766,"166.csv","","null","resources/maskTrios/BBA1.jpg","null","",NA,NA,NA,NA,""
"image-keyboard-response",412,582214,"0.0-3.133-2.133","gs3udt6gt5eyhcd",766,"166.csv","","null","resources/images/fishbone.png","null","",NA,NA,NA,NA,""
"image-keyboard-response",413,590175,"0.0-3.134-0.134","gs3udt6gt5eyhcd",766,"166.csv","","7959","resources/trios/L1T4A1.jpg","39","restless",0.6,0.3,0.3,0.162615202474324,"true"
"image-keyboard-response",414,590577,"0.0-3.134-1.134","gs3udt6gt5eyhcd",766,"166.csv","","null","resources/maskTrios/BBA1.jpg","null","",NA,NA,NA,NA,""
"image-keyboard-response",415,591779,"0.0-3.134-2.134","gs3udt6gt5eyhcd",766,"166.csv","","null","resources/images/coin2.png","null","",NA,NA,NA,NA,""
"image-keyboard-response",416,592111,"0.0-3.135-0.135","gs3udt6gt5eyhcd",766,"166.csv","","331","resources/trios/L2T4A1.jpg","39","restless",0.6,0.3,0.3,0.128228241119547,"true"
"image-keyboard-response",417,592514,"0.0-3.135-1.135","gs3udt6gt5eyhcd",766,"166.csv","","null","resources/maskTrios/BBA1.jpg","null","",NA,NA,NA,NA,""
"image-keyboard-response",418,593716,"0.0-3.135-2.135","gs3udt6gt5eyhcd",766,"166.csv","","null","resources/images/coin2.png","null","",NA,NA,NA,NA,""
"image-keyboard-response",419,593880,"0.0-3.136-0.136","gs3udt6gt5eyhcd",766,"166.csv","","162","resources/trios/L1T4A2.jpg","39","restless",0.6,0.3,0.3,0.541726381953528,"false"
"image-keyboard-response",420,594282,"0.0-3.136-1.136","gs3udt6gt5eyhcd",766,"166.csv","","null","resources/maskTrios/BBA2.jpg","null","",NA,NA,NA,NA,""
"image-keyboard-response",421,595485,"0.0-3.136-2.136","gs3udt6gt5eyhcd",766,"166.csv","","null","resources/images/fishbone.png","null","",NA,NA,NA,NA,""
"image-keyboard-response",422,595486,"0.0-3.137-0.137","gs3udt6gt5eyhcd",766,"166.csv","","1","resources/trios/L1T4A2.jpg","39","restless",0.6,0.3,0.3,0.468703475184581,"false"
"image-keyboard-response",423,595889,"0.0-3.137-1.137","gs3udt6gt5eyhcd",766,"166.csv","","null","resources/maskTrios/BBA2.jpg","null","",NA,NA,NA,NA,""
"image-keyboard-response",424,597091,"0.0-3.137-2.137","gs3udt6gt5eyhcd",766,"166.csv","","null","resources/images/fishbone.png","null","",NA,NA,NA,NA,""
"image-keyboard-response",425,603335,"0.0-3.138-0.138","gs3udt6gt5eyhcd",766,"166.csv","","6242","resources/trios/L2T2A2.jpg","39","restless",0.6,0.3,0.3,0.628223240877661,"false"
"image-keyboard-response",426,603738,"0.0-3.138-1.138","gs3udt6gt5eyhcd",766,"166.csv","","null","resources/maskTrios/BBA2.jpg","null","",NA,NA,NA,NA,""
"image-keyboard-response",427,604940,"0.0-3.138-2.138","gs3udt6gt5eyhcd",766,"166.csv","","null","resources/images/fishbone.png","null","",NA,NA,NA,NA,""
"image-keyboard-response",428,605076,"0.0-3.139-0.139","gs3udt6gt5eyhcd",766,"166.csv","","134.00000000011642","resources/trios/L2T4A2.jpg","39","restless",0.6,0.3,0.3,0.943538814702067,"false"
"image-keyboard-response",429,605479,"0.0-3.139-1.139","gs3udt6gt5eyhcd",766,"166.csv","","null","resources/maskTrios/BBA2.jpg","null","",NA,NA,NA,NA,""
"image-keyboard-response",430,606681,"0.0-3.139-2.139","gs3udt6gt5eyhcd",766,"166.csv","","null","resources/images/fishbone.png","null","",NA,NA,NA,NA,""
"image-keyboard-response",431,607187,"0.0-3.140-0.140","gs3udt6gt5eyhcd",766,"166.csv","","504","resources/trios/L1T4A2.jpg","39","restless",0.6,0.3,0.3,0.662360703882559,"false"
"image-keyboard-response",432,607590,"0.0-3.140-1.140","gs3udt6gt5eyhcd",766,"166.csv","","null","resources/maskTrios/BBA2.jpg","null","",NA,NA,NA,NA,""
"image-keyboard-response",433,608795,"0.0-3.140-2.140","gs3udt6gt5eyhcd",766,"166.csv","","null","resources/images/fishbone.png","null","",NA,NA,NA,NA,""
"image-keyboard-response",434,609214,"0.0-3.141-0.141","gs3udt6gt5eyhcd",766,"166.csv","","416.9999999998836","resources/trios/L1T2A2.jpg","39","restless",0.6,0.3,0.3,0.527453038022091,"false"
"image-keyboard-response",435,609617,"0.0-3.141-1.141","gs3udt6gt5eyhcd",766,"166.csv","","null","resources/maskTrios/BBA2.jpg","null","",NA,NA,NA,NA,""
"image-keyboard-response",436,610819,"0.0-3.141-2.141","gs3udt6gt5eyhcd",766,"166.csv","","null","resources/images/fishbone.png","null","",NA,NA,NA,NA,""
"image-keyboard-response",437,610967,"0.0-3.142-0.142","gs3udt6gt5eyhcd",766,"166.csv","","145.99999999988358","resources/trios/L1T4A1.jpg","39","restless",0.6,0.4,0.3,0.185102748685464,"true"
"image-keyboard-response",438,611370,"0.0-3.142-1.142","gs3udt6gt5eyhcd",766,"166.csv","","null","resources/maskTrios/BBA1.jpg","null","",NA,NA,NA,NA,""
"image-keyboard-response",439,612572,"0.0-3.142-2.142","gs3udt6gt5eyhcd",766,"166.csv","","null","resources/images/coin2.png","null","",NA,NA,NA,NA,""
"image-keyboard-response",440,612684,"0.0-3.143-0.143","gs3udt6gt5eyhcd",766,"166.csv","","110","resources/trios/L1T4A1.jpg","39","restless",0.6,0.4,0.3,0.984876119082653,"false"
"image-keyboard-response",441,613086,"0.0-3.143-1.143","gs3udt6gt5eyhcd",766,"166.csv","","null","resources/maskTrios/BBA1.jpg","null","",NA,NA,NA,NA,""
"image-keyboard-response",442,614289,"0.0-3.143-2.143","gs3udt6gt5eyhcd",766,"166.csv","","null","resources/images/fishbone.png","null","",NA,NA,NA,NA,""
"image-keyboard-response",443,614492,"0.0-3.144-0.144","gs3udt6gt5eyhcd",766,"166.csv","","201","resources/trios/L2T2A1.jpg","39","restless",0.6,0.4,0.3,0.274313466905559,"true"
"image-keyboard-response",444,614894,"0.0-3.144-1.144","gs3udt6gt5eyhcd",766,"166.csv","","null","resources/maskTrios/BBA1.jpg","null","",NA,NA,NA,NA,""
"image-keyboard-response",445,616097,"0.0-3.144-2.144","gs3udt6gt5eyhcd",766,"166.csv","","null","resources/images/coin2.png","null","",NA,NA,NA,NA,""
"image-keyboard-response",446,616264,"0.0-3.145-0.145","gs3udt6gt5eyhcd",766,"166.csv","","165","resources/trios/L2T2A2.jpg","39","restless",0.6,0.4,0.3,0.129414948179346,"true"
"image-keyboard-response",447,616667,"0.0-3.145-1.145","gs3udt6gt5eyhcd",766,"166.csv","","null","resources/maskTrios/BBA2.jpg","null","",NA,NA,NA,NA,""
"image-keyboard-response",448,617869,"0.0-3.145-2.145","gs3udt6gt5eyhcd",766,"166.csv","","null","resources/images/coin2.png","null","",NA,NA,NA,NA,""
"image-keyboard-response",449,744876,"0.0-3.146-0.146","gs3udt6gt5eyhcd",766,"166.csv","","127003.00000000012","resources/trios/L2T4A1.jpg","39","restless",0.6,0.4,0.3,0.0943480021955716,"true"
"image-keyboard-response",450,745278,"0.0-3.146-1.146","gs3udt6gt5eyhcd",766,"166.csv","","null","resources/maskTrios/BBA1.jpg","null","",NA,NA,NA,NA,""
"image-keyboard-response",451,746481,"0.0-3.146-2.146","gs3udt6gt5eyhcd",766,"166.csv","","null","resources/images/coin2.png","null","",NA,NA,NA,NA,""
"image-keyboard-response",452,746638,"0.0-3.147-0.147","gs3udt6gt5eyhcd",766,"166.csv","","155","resources/trios/L2T4A2.jpg","39","restless",0.6,0.4,0.3,0.063351317731915,"true"
"image-keyboard-response",453,747041,"0.0-3.147-1.147","gs3udt6gt5eyhcd",766,"166.csv","","null","resources/maskTrios/BBA2.jpg","null","",NA,NA,NA,NA,""
"image-keyboard-response",454,748243,"0.0-3.147-2.147","gs3udt6gt5eyhcd",766,"166.csv","","null","resources/images/coin2.png","null","",NA,NA,NA,NA,""
"image-keyboard-response",455,748245,"0.0-3.148-0.148","gs3udt6gt5eyhcd",766,"166.csv","","0","resources/trios/L1T4A1.jpg","39","restless",0.6,0.4,0.3,0.768851423545568,"false"
"image-keyboard-response",456,748648,"0.0-3.148-1.148","gs3udt6gt5eyhcd",766,"166.csv","","null","resources/maskTrios/BBA1.jpg","null","",NA,NA,NA,NA,""
"image-keyboard-response",457,749850,"0.0-3.148-2.148","gs3udt6gt5eyhcd",766,"166.csv","","null","resources/images/fishbone.png","null","",NA,NA,NA,NA,""
"image-keyboard-response",458,749876,"0.0-3.149-0.149","gs3udt6gt5eyhcd",766,"166.csv","","24","resources/trios/L2T4A2.jpg","39","restless",0.6,0.4,0.4,0.218501601143196,"true"
"image-keyboard-response",459,750278,"0.0-3.149-1.149","gs3udt6gt5eyhcd",766,"166.csv","","null","resources/maskTrios/BBA2.jpg","null","",NA,NA,NA,NA,""
"image-keyboard-response",460,751481,"0.0-3.149-2.149","gs3udt6gt5eyhcd",766,"166.csv","","null","resources/images/coin2.png","null","",NA,NA,NA,NA,""
"image-keyboard-response",461,751493,"0.0-3.150-0.150","gs3udt6gt5eyhcd",766,"166.csv","","10","resources/trios/L2T2A2.jpg","39","restless",0.7,0.5,0.4,0.981518083636762,"false"
"image-keyboard-response",462,751895,"0.0-3.150-1.150","gs3udt6gt5eyhcd",766,"166.csv","","null","resources/maskTrios/BBA2.jpg","null","",NA,NA,NA,NA,""
"image-keyboard-response",463,753098,"0.0-3.150-2.150","gs3udt6gt5eyhcd",766,"166.csv","","null","resources/images/fishbone.png","null","",NA,NA,NA,NA,""
"image-keyboard-response",464,753245,"0.0-3.151-0.151","gs3udt6gt5eyhcd",766,"166.csv","","146.00000000011642","resources/trios/L2T4A2.jpg","39","restless",0.7,0.5,0.4,0.512566675989743,"false"
"image-keyboard-response",465,753647,"0.0-3.151-1.151","gs3udt6gt5eyhcd",766,"166.csv","","null","resources/maskTrios/BBA2.jpg","null","",NA,NA,NA,NA,""
"image-keyboard-response",466,754850,"0.0-3.151-2.151","gs3udt6gt5eyhcd",766,"166.csv","","null","resources/images/fishbone.png","null","",NA,NA,NA,NA,""
"image-keyboard-response",467,755044,"0.0-3.152-0.152","gs3udt6gt5eyhcd",766,"166.csv","","192.99999999988358","resources/trios/L2T4A1.jpg","39","restless",0.7,0.5,0.4,0.442931266989467,"false"
"image-keyboard-response",468,755447,"0.0-3.152-1.152","gs3udt6gt5eyhcd",766,"166.csv","","null","resources/maskTrios/BBA1.jpg","null","",NA,NA,NA,NA,""
"image-keyboard-response",469,756649,"0.0-3.152-2.152","gs3udt6gt5eyhcd",766,"166.csv","","null","resources/images/fishbone.png","null","",NA,NA,NA,NA,""
"image-keyboard-response",470,756702,"0.0-3.153-0.153","gs3udt6gt5eyhcd",766,"166.csv","","51.000000000116415","resources/trios/L2T2A2.jpg","39","restless",0.7,0.5,0.4,0.367907977034258,"true"
"image-keyboard-response",471,757105,"0.0-3.153-1.153","gs3udt6gt5eyhcd",766,"166.csv","","null","resources/maskTrios/BBA2.jpg","null","",NA,NA,NA,NA,""
"image-keyboard-response",472,758307,"0.0-3.153-2.153","gs3udt6gt5eyhcd",766,"166.csv","","null","resources/images/coin2.png","null","",NA,NA,NA,NA,""
"image-keyboard-response",473,758367,"0.0-3.154-0.154","gs3udt6gt5eyhcd",766,"166.csv","","59","resources/trios/L1T4A2.jpg","39","restless",0.7,0.5,0.4,0.764374618193582,"false"
"image-keyboard-response",474,758769,"0.0-3.154-1.154","gs3udt6gt5eyhcd",766,"166.csv","","null","resources/maskTrios/BBA2.jpg","null","",NA,NA,NA,NA,""
"image-keyboard-response",475,759971,"0.0-3.154-2.154","gs3udt6gt5eyhcd",766,"166.csv","","null","resources/images/fishbone.png","null","",NA,NA,NA,NA,""
"image-keyboard-response",476,760268,"0.0-3.155-0.155","gs3udt6gt5eyhcd",766,"166.csv","","295","resources/trios/L2T4A1.jpg","39","restless",0.7,0.5,0.4,0.761726689103031,"false"
"image-keyboard-response",477,760670,"0.0-3.155-1.155","gs3udt6gt5eyhcd",766,"166.csv","","null","resources/maskTrios/BBA1.jpg","null","",NA,NA,NA,NA,""
"image-keyboard-response",478,761872,"0.0-3.155-2.155","gs3udt6gt5eyhcd",766,"166.csv","","null","resources/images/fishbone.png","null","",NA,NA,NA,NA,""
"image-keyboard-response",479,761891,"0.0-3.156-0.156","gs3udt6gt5eyhcd",766,"166.csv","","18","resources/trios/L1T4A2.jpg","39","restless",0.7,0.5,0.4,0.927969019192205,"false"
"image-keyboard-response",480,762293,"0.0-3.156-1.156","gs3udt6gt5eyhcd",766,"166.csv","","null","resources/maskTrios/BBA2.jpg","null","",NA,NA,NA,NA,""
"image-keyboard-response",481,763494,"0.0-3.156-2.156","gs3udt6gt5eyhcd",766,"166.csv","","null","resources/images/fishbone.png","null","",NA,NA,NA,NA,""
"image-keyboard-response",482,763649,"0.0-3.157-0.157","gs3udt6gt5eyhcd",766,"166.csv","","153.00000000011642","resources/trios/L2T4A1.jpg","39","restless",0.7,0.5,0.4,0.32670190830853,"true"
"image-keyboard-response",483,764051,"0.0-3.157-1.157","gs3udt6gt5eyhcd",766,"166.csv","","null","resources/maskTrios/BBA1.jpg","null","",NA,NA,NA,NA,""
"image-keyboard-response",484,765256,"0.0-3.157-2.157","gs3udt6gt5eyhcd",766,"166.csv","","null","resources/images/coin2.png","null","",NA,NA,NA,NA,""
"image-keyboard-response",485,765320,"0.0-3.158-0.158","gs3udt6gt5eyhcd",766,"166.csv","","62","resources/trios/L1T2A2.jpg","39","restless",0.7,0.5,0.4,0.500150021860015,"false"
"image-keyboard-response",486,765722,"0.0-3.158-1.158","gs3udt6gt5eyhcd",766,"166.csv","","null","resources/maskTrios/BBA2.jpg","null","",NA,NA,NA,NA,""
"image-keyboard-response",487,766925,"0.0-3.158-2.158","gs3udt6gt5eyhcd",766,"166.csv","","null","resources/images/fishbone.png","null","",NA,NA,NA,NA,""
"image-keyboard-response",488,767116,"0.0-3.159-0.159","gs3udt6gt5eyhcd",766,"166.csv","","189","resources/trios/L1T2A2.jpg","39","restless",0.7,0.6,0.4,0.954009121489545,"false"
"image-keyboard-response",489,767518,"0.0-3.159-1.159","gs3udt6gt5eyhcd",766,"166.csv","","null","resources/maskTrios/BBA2.jpg","null","",NA,NA,NA,NA,""
"image-keyboard-response",490,768721,"0.0-3.159-2.159","gs3udt6gt5eyhcd",766,"166.csv","","null","resources/images/fishbone.png","null","",NA,NA,NA,NA,""
"image-keyboard-response",491,768852,"0.0-3.160-0.160","gs3udt6gt5eyhcd",766,"166.csv","","130","resources/trios/L1T4A1.jpg","39","restless",0.7,0.5,0.4,0.940032931226653,"false"
"image-keyboard-response",492,769255,"0.0-3.160-1.160","gs3udt6gt5eyhcd",766,"166.csv","","null","resources/maskTrios/BBA1.jpg","null","",NA,NA,NA,NA,""
"image-keyboard-response",493,770458,"0.0-3.160-2.160","gs3udt6gt5eyhcd",766,"166.csv","","null","resources/images/fishbone.png","null","",NA,NA,NA,NA,""
"image-keyboard-response",494,770584,"0.0-3.161-0.161","gs3udt6gt5eyhcd",766,"166.csv","","124","resources/trios/L2T4A2.jpg","39","restless",0.8,0.5,0.4,0.213574703340145,"true"
"image-keyboard-response",495,770986,"0.0-3.161-1.161","gs3udt6gt5eyhcd",766,"166.csv","","null","resources/maskTrios/BBA2.jpg","null","",NA,NA,NA,NA,""
"image-keyboard-response",496,772188,"0.0-3.161-2.161","gs3udt6gt5eyhcd",766,"166.csv","","null","resources/images/coin2.png","null","",NA,NA,NA,NA,""
"image-keyboard-response",497,772323,"0.0-3.162-0.162","gs3udt6gt5eyhcd",766,"166.csv","","132.00000000011642","resources/trios/L2T4A2.jpg","39","restless",0.8,0.5,0.4,0.373461523161016,"true"
"image-keyboard-response",498,772725,"0.0-3.162-1.162","gs3udt6gt5eyhcd",766,"166.csv","","null","resources/maskTrios/BBA2.jpg","null","",NA,NA,NA,NA,""
"image-keyboard-response",499,773928,"0.0-3.162-2.162","gs3udt6gt5eyhcd",766,"166.csv","","null","resources/images/coin2.png","null","",NA,NA,NA,NA,""
"image-keyboard-response",500,775574,"0.0-3.163-0.163","gs3udt6gt5eyhcd",766,"166.csv","","1645","resources/trios/L2T2A1.jpg","39","restless",0.8,0.5,0.4,0.851104636560594,"false"
"image-keyboard-response",501,775977,"0.0-3.163-1.163","gs3udt6gt5eyhcd",766,"166.csv","","null","resources/maskTrios/BBA1.jpg","null","",NA,NA,NA,NA,""
"image-keyboard-response",502,777181,"0.0-3.163-2.163","gs3udt6gt5eyhcd",766,"166.csv","","null","resources/images/fishbone.png","null","",NA,NA,NA,NA,""
"image-keyboard-response",503,777256,"0.0-3.164-0.164","gs3udt6gt5eyhcd",766,"166.csv","","73","resources/trios/L1T4A2.jpg","39","restless",0.7,0.5,0.4,0.639988869480633,"false"
"image-keyboard-response",504,777659,"0.0-3.164-1.164","gs3udt6gt5eyhcd",766,"166.csv","","null","resources/maskTrios/BBA2.jpg","null","",NA,NA,NA,NA,""
"image-keyboard-response",505,778861,"0.0-3.164-2.164","gs3udt6gt5eyhcd",766,"166.csv","","null","resources/images/fishbone.png","null","",NA,NA,NA,NA,""
"image-keyboard-response",506,779065,"0.0-3.165-0.165","gs3udt6gt5eyhcd",766,"166.csv","","201","resources/trios/L2T2A2.jpg","39","restless",0.7,0.5,0.4,0.163022355777912,"true"
"image-keyboard-response",507,779467,"0.0-3.165-1.165","gs3udt6gt5eyhcd",766,"166.csv","","null","resources/maskTrios/BBA2.jpg","null","",NA,NA,NA,NA,""
"image-keyboard-response",508,780670,"0.0-3.165-2.165","gs3udt6gt5eyhcd",766,"166.csv","","null","resources/images/coin2.png","null","",NA,NA,NA,NA,""
"image-keyboard-response",509,780969,"0.0-3.166-0.166","gs3udt6gt5eyhcd",766,"166.csv","","297","resources/trios/L2T4A1.jpg","39","restless",0.7,0.5,0.4,0.860975593787966,"false"
"image-keyboard-response",510,781372,"0.0-3.166-1.166","gs3udt6gt5eyhcd",766,"166.csv","","null","resources/maskTrios/BBA1.jpg","null","",NA,NA,NA,NA,""
"image-keyboard-response",511,782574,"0.0-3.166-2.166","gs3udt6gt5eyhcd",766,"166.csv","","null","resources/images/fishbone.png","null","",NA,NA,NA,NA,""
"image-keyboard-response",512,782735,"0.0-3.167-0.167","gs3udt6gt5eyhcd",766,"166.csv","","158","resources/trios/L2T2A1.jpg","39","restless",0.6,0.5,0.4,0.605526141909041,"false"
"image-keyboard-response",513,783137,"0.0-3.167-1.167","gs3udt6gt5eyhcd",766,"166.csv","","null","resources/maskTrios/BBA1.jpg","null","",NA,NA,NA,NA,""
"image-keyboard-response",514,784340,"0.0-3.167-2.167","gs3udt6gt5eyhcd",766,"166.csv","","null","resources/images/fishbone.png","null","",NA,NA,NA,NA,""
"image-keyboard-response",515,784692,"0.0-3.168-0.168","gs3udt6gt5eyhcd",766,"166.csv","","350","resources/trios/L2T4A2.jpg","39","restless",0.6,0.5,0.4,0.588058200669584,"false"
"image-keyboard-response",516,785094,"0.0-3.168-1.168","gs3udt6gt5eyhcd",766,"166.csv","","null","resources/maskTrios/BBA2.jpg","null","",NA,NA,NA,NA,""
"image-keyboard-response",517,786297,"0.0-3.168-2.168","gs3udt6gt5eyhcd",766,"166.csv","","null","resources/images/fishbone.png","null","",NA,NA,NA,NA,""
"image-keyboard-response",518,786330,"0.0-3.169-0.169","gs3udt6gt5eyhcd",766,"166.csv","","30.999999999883585","resources/trios/L2T2A1.jpg","37","restless",0.6,0.5,0.4,0.886994525778608,"false"
"image-keyboard-response",519,786732,"0.0-3.169-1.169","gs3udt6gt5eyhcd",766,"166.csv","","null","resources/maskTrios/L2BB.jpg","null","",NA,NA,NA,NA,""
"image-keyboard-response",520,787934,"0.0-3.169-2.169","gs3udt6gt5eyhcd",766,"166.csv","","null","resources/images/fishbone.png","null","",NA,NA,NA,NA,""
"image-keyboard-response",521,787998,"0.0-3.170-0.170","gs3udt6gt5eyhcd",766,"166.csv","","62","resources/trios/L1T4A1.jpg","37","restless",0.6,0.5,0.4,0.175030335119239,"true"
"image-keyboard-response",522,788399,"0.0-3.170-1.170","gs3udt6gt5eyhcd",766,"166.csv","","null","resources/maskTrios/L1BB.jpg","null","",NA,NA,NA,NA,""
"image-keyboard-response",523,789601,"0.0-3.170-2.170","gs3udt6gt5eyhcd",766,"166.csv","","null","resources/images/coin2.png","null","",NA,NA,NA,NA,""
"image-keyboard-response",524,789831,"0.0-3.171-0.171","gs3udt6gt5eyhcd",766,"166.csv","","227","resources/trios/L2T4A2.jpg","37","restless",0.6,0.5,0.4,0.0811131586790119,"true"
"image-keyboard-response",525,790234,"0.0-3.171-1.171","gs3udt6gt5eyhcd",766,"166.csv","","null","resources/maskTrios/L2BB.jpg","null","",NA,NA,NA,NA,""
"image-keyboard-response",526,791436,"0.0-3.171-2.171","gs3udt6gt5eyhcd",766,"166.csv","","null","resources/images/coin2.png","null","",NA,NA,NA,NA,""
"image-keyboard-response",527,791476,"0.0-3.172-0.172","gs3udt6gt5eyhcd",766,"166.csv","","38","resources/trios/L2T2A1.jpg","37","restless",0.5,0.5,0.4,0.0159347880186637,"true"
"image-keyboard-response",528,791878,"0.0-3.172-1.172","gs3udt6gt5eyhcd",766,"166.csv","","null","resources/maskTrios/L2BB.jpg","null","",NA,NA,NA,NA,""
"image-keyboard-response",529,793080,"0.0-3.172-2.172","gs3udt6gt5eyhcd",766,"166.csv","","null","resources/images/coin2.png","null","",NA,NA,NA,NA,""
"image-keyboard-response",530,793214,"0.0-3.173-0.173","gs3udt6gt5eyhcd",766,"166.csv","","130.99999999988358","resources/trios/L2T2A2.jpg","37","restless",0.5,0.5,0.4,0.681092411447943,"false"
"image-keyboard-response",531,793616,"0.0-3.173-1.173","gs3udt6gt5eyhcd",766,"166.csv","","null","resources/maskTrios/L2BB.jpg","null","",NA,NA,NA,NA,""
"image-keyboard-response",532,794818,"0.0-3.173-2.173","gs3udt6gt5eyhcd",766,"166.csv","","null","resources/images/fishbone.png","null","",NA,NA,NA,NA,""
"image-keyboard-response",533,794979,"0.0-3.174-0.174","gs3udt6gt5eyhcd",766,"166.csv","","159","resources/trios/L2T2A1.jpg","37","restless",0.5,0.5,0.4,0.0400248516542359,"true"
"image-keyboard-response",534,795381,"0.0-3.174-1.174","gs3udt6gt5eyhcd",766,"166.csv","","null","resources/maskTrios/L2BB.jpg","null","",NA,NA,NA,NA,""
"image-keyboard-response",535,796584,"0.0-3.174-2.174","gs3udt6gt5eyhcd",766,"166.csv","","null","resources/images/coin2.png","null","",NA,NA,NA,NA,""
"image-keyboard-response",536,796722,"0.0-3.175-0.175","gs3udt6gt5eyhcd",766,"166.csv","","136.00000000011642","resources/trios/L1T4A2.jpg","37","restless",0.5,0.5,0.4,0.789074254135373,"false"
"image-keyboard-response",537,797124,"0.0-3.175-1.175","gs3udt6gt5eyhcd",766,"166.csv","","null","resources/maskTrios/L1BB.jpg","null","",NA,NA,NA,NA,""
"image-keyboard-response",538,798326,"0.0-3.175-2.175","gs3udt6gt5eyhcd",766,"166.csv","","null","resources/images/fishbone.png","null","",NA,NA,NA,NA,""
"image-keyboard-response",539,798431,"0.0-3.176-0.176","gs3udt6gt5eyhcd",766,"166.csv","","102.99999999988358","resources/trios/L2T4A2.jpg","37","restless",0.5,0.5,0.4,0.578533581634068,"false"
"image-keyboard-response",540,798833,"0.0-3.176-1.176","gs3udt6gt5eyhcd",766,"166.csv","","null","resources/maskTrios/L2BB.jpg","null","",NA,NA,NA,NA,""
"image-keyboard-response",541,800035,"0.0-3.176-2.176","gs3udt6gt5eyhcd",766,"166.csv","","null","resources/images/fishbone.png","null","",NA,NA,NA,NA,""
"image-keyboard-response",542,800058,"0.0-3.177-0.177","gs3udt6gt5eyhcd",766,"166.csv","","22","resources/trios/L2T2A1.jpg","37","restless",0.5,0.5,0.5,0.730002058207371,"false"
"image-keyboard-response",543,800460,"0.0-3.177-1.177","gs3udt6gt5eyhcd",766,"166.csv","","null","resources/maskTrios/L2BB.jpg","null","",NA,NA,NA,NA,""
"image-keyboard-response",544,801663,"0.0-3.177-2.177","gs3udt6gt5eyhcd",766,"166.csv","","null","resources/images/fishbone.png","null","",NA,NA,NA,NA,""
"image-keyboard-response",545,801769,"0.0-3.178-0.178","gs3udt6gt5eyhcd",766,"166.csv","","104","resources/trios/L1T4A2.jpg","37","restless",0.5,0.5,0.5,0.695881890937883,"false"
"image-keyboard-response",546,802171,"0.0-3.178-1.178","gs3udt6gt5eyhcd",766,"166.csv","","null","resources/maskTrios/L1BB.jpg","null","",NA,NA,NA,NA,""
"image-keyboard-response",547,803373,"0.0-3.178-2.178","gs3udt6gt5eyhcd",766,"166.csv","","null","resources/images/fishbone.png","null","",NA,NA,NA,NA,""
"image-keyboard-response",548,803475,"0.0-3.179-0.179","gs3udt6gt5eyhcd",766,"166.csv","","100","resources/trios/L1T4A2.jpg","39","restless",0.5,0.5,0.5,0.975187192124615,"false"
"image-keyboard-response",549,803877,"0.0-3.179-1.179","gs3udt6gt5eyhcd",766,"166.csv","","null","resources/maskTrios/BBA2.jpg","null","",NA,NA,NA,NA,""
"image-keyboard-response",550,805080,"0.0-3.179-2.179","gs3udt6gt5eyhcd",766,"166.csv","","null","resources/images/fishbone.png","null","",NA,NA,NA,NA,""
"image-keyboard-response",551,805211,"0.0-3.180-0.180","gs3udt6gt5eyhcd",766,"166.csv","","130","resources/trios/L2T4A1.jpg","39","restless",0.5,0.5,0.5,0.290594063934615,"true"
"image-keyboard-response",552,805613,"0.0-3.180-1.180","gs3udt6gt5eyhcd",766,"166.csv","","null","resources/maskTrios/BBA1.jpg","null","",NA,NA,NA,NA,""
"image-keyboard-response",553,806815,"0.0-3.180-2.180","gs3udt6gt5eyhcd",766,"166.csv","","null","resources/images/coin2.png","null","",NA,NA,NA,NA,""
"image-keyboard-response",554,806938,"0.0-3.181-0.181","gs3udt6gt5eyhcd",766,"166.csv","","121","resources/trios/L1T2A2.jpg","39","restless",0.5,0.5,0.6,0.202843295480285,"true"
"image-keyboard-response",555,807340,"0.0-3.181-1.181","gs3udt6gt5eyhcd",766,"166.csv","","null","resources/maskTrios/BBA2.jpg","null","",NA,NA,NA,NA,""
"image-keyboard-response",556,808542,"0.0-3.181-2.181","gs3udt6gt5eyhcd",766,"166.csv","","null","resources/images/coin2.png","null","",NA,NA,NA,NA,""
"image-keyboard-response",557,808559,"0.0-3.182-0.182","gs3udt6gt5eyhcd",766,"166.csv","","14.999999999883585","resources/trios/L2T2A1.jpg","39","restless",0.5,0.5,0.6,0.88096132443775,"false"
"image-keyboard-response",558,808961,"0.0-3.182-1.182","gs3udt6gt5eyhcd",766,"166.csv","","null","resources/maskTrios/BBA1.jpg","null","",NA,NA,NA,NA,""
"image-keyboard-response",559,810162,"0.0-3.182-2.182","gs3udt6gt5eyhcd",766,"166.csv","","null","resources/images/fishbone.png","null","",NA,NA,NA,NA,""
"image-keyboard-response",560,810612,"0.0-3.183-0.183","gs3udt6gt5eyhcd",766,"166.csv","","448","resources/trios/L1T2A1.jpg","37","restless",0.5,0.5,0.6,0.435056392839543,"true"
"image-keyboard-response",561,811014,"0.0-3.183-1.183","gs3udt6gt5eyhcd",766,"166.csv","","null","resources/maskTrios/L1BB.jpg","null","",NA,NA,NA,NA,""
"image-keyboard-response",562,812217,"0.0-3.183-2.183","gs3udt6gt5eyhcd",766,"166.csv","","null","resources/images/coin2.png","null","",NA,NA,NA,NA,""
"image-keyboard-response",563,812280,"0.0-3.184-0.184","gs3udt6gt5eyhcd",766,"166.csv","","61.000000000116415","resources/trios/L1T2A1.jpg","39","restless",0.5,0.5,0.6,0.254031284398055,"true"
"image-keyboard-response",564,812682,"0.0-3.184-1.184","gs3udt6gt5eyhcd",766,"166.csv","","null","resources/maskTrios/BBA1.jpg","null","",NA,NA,NA,NA,""
"image-keyboard-response",565,813885,"0.0-3.184-2.184","gs3udt6gt5eyhcd",766,"166.csv","","null","resources/images/coin2.png","null","",NA,NA,NA,NA,""
"image-keyboard-response",566,814077,"0.0-3.185-0.185","gs3udt6gt5eyhcd",766,"166.csv","","190","resources/trios/L2T2A2.jpg","37","restless",0.5,0.5,0.6,0.413792668839165,"true"
"image-keyboard-response",567,814479,"0.0-3.185-1.185","gs3udt6gt5eyhcd",766,"166.csv","","null","resources/maskTrios/L2BB.jpg","null","",NA,NA,NA,NA,""
"image-keyboard-response",568,815685,"0.0-3.185-2.185","gs3udt6gt5eyhcd",766,"166.csv","","null","resources/images/coin2.png","null","",NA,NA,NA,NA,""
"image-keyboard-response",569,815780,"0.0-3.186-0.186","gs3udt6gt5eyhcd",766,"166.csv","","94.00000000011642","resources/trios/L1T2A1.jpg","39","restless",0.5,0.5,0.6,0.298867137414024,"true"
"image-keyboard-response",570,816182,"0.0-3.186-1.186","gs3udt6gt5eyhcd",766,"166.csv","","null","resources/maskTrios/BBA1.jpg","null","",NA,NA,NA,NA,""
"image-keyboard-response",571,817385,"0.0-3.186-2.186","gs3udt6gt5eyhcd",766,"166.csv","","null","resources/images/coin2.png","null","",NA,NA,NA,NA,""
"image-keyboard-response",572,817533,"0.0-3.187-0.187","gs3udt6gt5eyhcd",766,"166.csv","","146","resources/trios/L1T2A1.jpg","37","restless",0.5,0.5,0.6,0.910544670732453,"false"
"image-keyboard-response",573,817935,"0.0-3.187-1.187","gs3udt6gt5eyhcd",766,"166.csv","","null","resources/maskTrios/L1BB.jpg","null","",NA,NA,NA,NA,""
"image-keyboard-response",574,819138,"0.0-3.187-2.187","gs3udt6gt5eyhcd",766,"166.csv","","null","resources/images/fishbone.png","null","",NA,NA,NA,NA,""
"image-keyboard-response",575,819237,"0.0-3.188-0.188","gs3udt6gt5eyhcd",766,"166.csv","","97","resources/trios/L1T2A2.jpg","39","restless",0.5,0.5,0.6,0.363494219063756,"true"
"image-keyboard-response",576,819640,"0.0-3.188-1.188","gs3udt6gt5eyhcd",766,"166.csv","","null","resources/maskTrios/BBA2.jpg","null","",NA,NA,NA,NA,""
"image-keyboard-response",577,820842,"0.0-3.188-2.188","gs3udt6gt5eyhcd",766,"166.csv","","null","resources/images/coin2.png","null","",NA,NA,NA,NA,""
"image-keyboard-response",578,820844,"0.0-3.189-0.189","gs3udt6gt5eyhcd",766,"166.csv","","0","resources/trios/L2T4A2.jpg","39","restless",0.5,0.5,0.6,0.912200710565363,"false"
"image-keyboard-response",579,821246,"0.0-3.189-1.189","gs3udt6gt5eyhcd",766,"166.csv","","null","resources/maskTrios/BBA2.jpg","null","",NA,NA,NA,NA,""
"image-keyboard-response",580,822449,"0.0-3.189-2.189","gs3udt6gt5eyhcd",766,"166.csv","","null","resources/images/fishbone.png","null","",NA,NA,NA,NA,""
"image-keyboard-response",581,822485,"0.0-3.190-0.190","gs3udt6gt5eyhcd",766,"166.csv","","35","resources/trios/L1T2A2.jpg","39","restless",0.5,0.5,0.6,0.772351780877772,"false"
"image-keyboard-response",582,822887,"0.0-3.190-1.190","gs3udt6gt5eyhcd",766,"166.csv","","null","resources/maskTrios/BBA2.jpg","null","",NA,NA,NA,NA,""
"image-keyboard-response",583,824089,"0.0-3.190-2.190","gs3udt6gt5eyhcd",766,"166.csv","","null","resources/images/fishbone.png","null","",NA,NA,NA,NA,""
"image-keyboard-response",584,824294,"0.0-3.191-0.191","gs3udt6gt5eyhcd",766,"166.csv","","201.00000000011642","resources/trios/L1T4A2.jpg","37","restless",0.5,0.5,0.6,0.171627638183429,"true"
"image-keyboard-response",585,824697,"0.0-3.191-1.191","gs3udt6gt5eyhcd",766,"166.csv","","null","resources/maskTrios/L1BB.jpg","null","",NA,NA,NA,NA,""
"image-keyboard-response",586,825900,"0.0-3.191-2.191","gs3udt6gt5eyhcd",766,"166.csv","","null","resources/images/coin2.png","null","",NA,NA,NA,NA,""
"image-keyboard-response",587,826884,"0.0-3.192-0.192","gs3udt6gt5eyhcd",766,"166.csv","","982","resources/trios/L1T4A2.jpg","37","restless",0.5,0.5,0.6,0.620339110014775,"false"
"image-keyboard-response",588,827286,"0.0-3.192-1.192","gs3udt6gt5eyhcd",766,"166.csv","","null","resources/maskTrios/L1BB.jpg","null","",NA,NA,NA,NA,""
"image-keyboard-response",589,828489,"0.0-3.192-2.192","gs3udt6gt5eyhcd",766,"166.csv","","null","resources/images/fishbone.png","null","",NA,NA,NA,NA,""
"image-keyboard-response",590,828644,"0.0-3.193-0.193","gs3udt6gt5eyhcd",766,"166.csv","","153","resources/trios/L2T2A1.jpg","37","restless",0.6,0.5,0.6,0.290913839577886,"true"
"image-keyboard-response",591,829047,"0.0-3.193-1.193","gs3udt6gt5eyhcd",766,"166.csv","","null","resources/maskTrios/L2BB.jpg","null","",NA,NA,NA,NA,""
"image-keyboard-response",592,830250,"0.0-3.193-2.193","gs3udt6gt5eyhcd",766,"166.csv","","null","resources/images/coin2.png","null","",NA,NA,NA,NA,""
"image-keyboard-response",593,830311,"0.0-3.194-0.194","gs3udt6gt5eyhcd",766,"166.csv","","59","resources/trios/L1T2A2.jpg","37","restless",0.6,0.5,0.6,0.574346822886801,"true"
"image-keyboard-response",594,830713,"0.0-3.194-1.194","gs3udt6gt5eyhcd",766,"166.csv","","null","resources/maskTrios/L1BB.jpg","null","",NA,NA,NA,NA,""
"image-keyboard-response",595,831916,"0.0-3.194-2.194","gs3udt6gt5eyhcd",766,"166.csv","","null","resources/images/coin2.png","null","",NA,NA,NA,NA,""
"image-keyboard-response",596,832002,"0.0-3.195-0.195","gs3udt6gt5eyhcd",766,"166.csv","","85","resources/trios/L2T2A1.jpg","37","restless",0.6,0.5,0.6,0.828618502981961,"false"
"image-keyboard-response",597,832405,"0.0-3.195-1.195","gs3udt6gt5eyhcd",766,"166.csv","","null","resources/maskTrios/L2BB.jpg","null","",NA,NA,NA,NA,""
"image-keyboard-response",598,833606,"0.0-3.195-2.195","gs3udt6gt5eyhcd",766,"166.csv","","null","resources/images/fishbone.png","null","",NA,NA,NA,NA,""
"image-keyboard-response",599,834443,"0.0-3.196-0.196","gs3udt6gt5eyhcd",766,"166.csv","","834.0000000001164","resources/trios/L1T2A2.jpg","37","restless",0.6,0.5,0.6,0.908931914330684,"false"
"image-keyboard-response",600,834846,"0.0-3.196-1.196","gs3udt6gt5eyhcd",766,"166.csv","","null","resources/maskTrios/L1BB.jpg","null","",NA,NA,NA,NA,""
"image-keyboard-response",601,836048,"0.0-3.196-2.196","gs3udt6gt5eyhcd",766,"166.csv","","null","resources/images/fishbone.png","null","",NA,NA,NA,NA,""
"image-keyboard-response",602,836075,"0.0-3.197-0.197","gs3udt6gt5eyhcd",766,"166.csv","","23","resources/trios/L1T4A1.jpg","39","restless",0.6,0.5,0.6,0.205495517512269,"true"
"image-keyboard-response",603,836478,"0.0-3.197-1.197","gs3udt6gt5eyhcd",766,"166.csv","","null","resources/maskTrios/BBA1.jpg","null","",NA,NA,NA,NA,""
"image-keyboard-response",604,837680,"0.0-3.197-2.197","gs3udt6gt5eyhcd",766,"166.csv","","null","resources/images/coin2.png","null","",NA,NA,NA,NA,""
"image-keyboard-response",605,859659,"0.0-3.198-0.198","gs3udt6gt5eyhcd",766,"166.csv","","21977","resources/trios/L1T2A1.jpg","37","restless",0.6,0.5,0.6,0.719556467419496,"false"
"image-keyboard-response",606,860064,"0.0-3.198-1.198","gs3udt6gt5eyhcd",766,"166.csv","","null","resources/maskTrios/L1BB.jpg","null","",NA,NA,NA,NA,""
"image-keyboard-response",607,861266,"0.0-3.198-2.198","gs3udt6gt5eyhcd",766,"166.csv","","null","resources/images/fishbone.png","null","",NA,NA,NA,NA,""
"image-keyboard-response",608,861700,"0.0-3.199-0.199","gs3udt6gt5eyhcd",766,"166.csv","","432","resources/trios/L1T2A2.jpg","37","restless",0.6,0.5,0.6,0.761305711780466,"false"
"image-keyboard-response",609,862102,"0.0-3.199-1.199","gs3udt6gt5eyhcd",766,"166.csv","","null","resources/maskTrios/L1BB.jpg","null","",NA,NA,NA,NA,""
"image-keyboard-response",610,863305,"0.0-3.199-2.199","gs3udt6gt5eyhcd",766,"166.csv","","null","resources/images/fishbone.png","null","",NA,NA,NA,NA,""
"image-keyboard-response",611,863307,"0.0-3.200-0.200","gs3udt6gt5eyhcd",766,"166.csv","","1","resources/trios/L1T2A2.jpg","37","restless",0.6,0.5,0.6,0.547076805130468,"true"
"image-keyboard-response",612,863709,"0.0-3.200-1.200","gs3udt6gt5eyhcd",766,"166.csv","","null","resources/maskTrios/L1BB.jpg","null","",NA,NA,NA,NA,""
"image-keyboard-response",613,864911,"0.0-3.200-2.200","gs3udt6gt5eyhcd",766,"166.csv","","null","resources/images/coin2.png","null","",NA,NA,NA,NA,""
"image-keyboard-response",614,864942,"0.0-3.201-0.201","gs3udt6gt5eyhcd",766,"166.csv","","28","resources/trios/L1T2A2.jpg","37","restless",0.6,0.5,0.6,0.161713161362217,"true"
"image-keyboard-response",615,865344,"0.0-3.201-1.201","gs3udt6gt5eyhcd",766,"166.csv","","null","resources/maskTrios/L1BB.jpg","null","",NA,NA,NA,NA,""
"image-keyboard-response",616,866547,"0.0-3.201-2.201","gs3udt6gt5eyhcd",766,"166.csv","","null","resources/images/coin2.png","null","",NA,NA,NA,NA,""
