"trial_type","trial_index","time_elapsed","internal_node_id","subject","participantCode","walkNumber","success","rt","stimulus","key_press","test_part","leftProb","midProb","rightProb","generatedNum","correct"
"pavlovia",0,1218,"0.0-0.0","vma0ny9rs49auco",604,"158.csv","","","","","",NA,NA,NA,NA,""
"fullscreen",1,4861,"0.0-1.0","vma0ny9rs49auco",604,"158.csv","true","","","","",NA,NA,NA,NA,""
"html-keyboard-response",2,10782,"0.0-2.0-0.0","vma0ny9rs49auco",604,"158.csv","","5920","<p><font size='6'>Arrrgh!</p></font><p>Can you be the best pirate? Try to find lots of gold! But beware, some islands have more gold than others, and over time, the island with the most gold may change. Can YOU figure it out? </p><font size='6'>GOOD LUCK, CAPTAIN!!!</font><p>Press any key to begin</p>","32","",NA,NA,NA,NA,""
"image-keyboard-response",3,13784,"0.0-2.0-1.0","vma0ny9rs49auco",604,"158.csv","","null","resources/image_sets/111.png","null","",NA,NA,NA,NA,""
"image-keyboard-response",4,19024,"0.0-2.0-2.0","vma0ny9rs49auco",604,"158.csv","","5238","resources/image_sets/left_highlight.png","37","",NA,NA,NA,NA,""
"image-keyboard-response",5,23130,"0.0-2.0-3.0","vma0ny9rs49auco",604,"158.csv","","4104","resources/image_sets/mid_highlight.png","38","",NA,NA,NA,NA,""
"image-keyboard-response",6,24135,"0.0-2.0-4.0","vma0ny9rs49auco",604,"158.csv","","1003.9999999999964","resources/image_sets/right_highlight.png","39","",NA,NA,NA,NA,""
"image-keyboard-response",7,28624,"0.0-2.0-5.0","vma0ny9rs49auco",604,"158.csv","","4488.000000000007","resources/image_sets/111.png","13","",NA,NA,NA,NA,""
"image-keyboard-response",8,32635,"0.0-2.0-6.0","vma0ny9rs49auco",604,"158.csv","","4011","resources/images/coin2.png","13","",NA,NA,NA,NA,""
"image-keyboard-response",9,34887,"0.0-2.0-7.0","vma0ny9rs49auco",604,"158.csv","","2251","resources/images/fishbone.png","13","",NA,NA,NA,NA,""
"html-keyboard-response",10,41140,"0.0-2.0-8.0","vma0ny9rs49auco",604,"158.csv","","6252","<p>Your first journey will be a long one, but you will get a well deserved break at the end</p><p>After the break you will have four more journeys, but each will be much shorter than the first, and you will have breaks in between each</p><p>Press Enter to begin</p>","13","",NA,NA,NA,NA,""
"image-keyboard-response",11,42078,"0.0-3.0-0.0","vma0ny9rs49auco",604,"158.csv","","936","resources/trios/L2T4A1.jpg","37","restless",0.7,0.9,0.3,0.790348286353786,"false"
"image-keyboard-response",12,42481,"0.0-3.0-1.0","vma0ny9rs49auco",604,"158.csv","","null","resources/maskTrios/L2BB.jpg","null","",NA,NA,NA,NA,""
"image-keyboard-response",13,43683,"0.0-3.0-2.0","vma0ny9rs49auco",604,"158.csv","","null","resources/images/fishbone.png","null","",NA,NA,NA,NA,""
"image-keyboard-response",14,45927,"0.0-3.1-0.1","vma0ny9rs49auco",604,"158.csv","","2242","resources/trios/L2T4A3.jpg","38","restless",0.7,0.9,0.3,0.698037635368689,"true"
"image-keyboard-response",15,46330,"0.0-3.1-1.1","vma0ny9rs49auco",604,"158.csv","","null","resources/maskTrios/BT4B.jpg","null","",NA,NA,NA,NA,""
"image-keyboard-response",16,47533,"0.0-3.1-2.1","vma0ny9rs49auco",604,"158.csv","","null","resources/images/coin2.png","null","",NA,NA,NA,NA,""
"image-keyboard-response",17,48869,"0.0-3.2-0.2","vma0ny9rs49auco",604,"158.csv","","1334","resources/trios/L1T4A1.jpg","38","restless",0.7,0.9,0.3,0.0207647745352785,"true"
"image-keyboard-response",18,49271,"0.0-3.2-1.2","vma0ny9rs49auco",604,"158.csv","","null","resources/maskTrios/BT4B.jpg","null","",NA,NA,NA,NA,""
"image-keyboard-response",19,50474,"0.0-3.2-2.2","vma0ny9rs49auco",604,"158.csv","","null","resources/images/coin2.png","null","",NA,NA,NA,NA,""
"image-keyboard-response",20,52776,"0.0-3.3-0.3","vma0ny9rs49auco",604,"158.csv","","2300","resources/trios/L2T1A1.jpg","37","restless",0.7,0.8,0.3,0.191067837868609,"true"
"image-keyboard-response",21,53179,"0.0-3.3-1.3","vma0ny9rs49auco",604,"158.csv","","null","resources/maskTrios/L2BB.jpg","null","",NA,NA,NA,NA,""
"image-keyboard-response",22,54382,"0.0-3.3-2.3","vma0ny9rs49auco",604,"158.csv","","null","resources/images/coin2.png","null","",NA,NA,NA,NA,""
"image-keyboard-response",23,55999,"0.0-3.4-0.4","vma0ny9rs49auco",604,"158.csv","","1616","resources/trios/L2T1A3.jpg","37","restless",0.7,0.8,0.3,0.914227093651743,"false"
"image-keyboard-response",24,56402,"0.0-3.4-1.4","vma0ny9rs49auco",604,"158.csv","","null","resources/maskTrios/L2BB.jpg","null","",NA,NA,NA,NA,""
"image-keyboard-response",25,57604,"0.0-3.4-2.4","vma0ny9rs49auco",604,"158.csv","","null","resources/images/fishbone.png","null","",NA,NA,NA,NA,""
"image-keyboard-response",26,58350,"0.0-3.5-0.5","vma0ny9rs49auco",604,"158.csv","","744","resources/trios/L2T4A3.jpg","38","restless",0.7,0.8,0.3,0.472476419469962,"true"
"image-keyboard-response",27,58752,"0.0-3.5-1.5","vma0ny9rs49auco",604,"158.csv","","null","resources/maskTrios/BT4B.jpg","null","",NA,NA,NA,NA,""
"image-keyboard-response",28,59955,"0.0-3.5-2.5","vma0ny9rs49auco",604,"158.csv","","null","resources/images/coin2.png","null","",NA,NA,NA,NA,""
"image-keyboard-response",29,60494,"0.0-3.6-0.6","vma0ny9rs49auco",604,"158.csv","","537","resources/trios/L2T4A1.jpg","38","restless",0.7,0.8,0.3,0.194512347912999,"true"
"image-keyboard-response",30,60896,"0.0-3.6-1.6","vma0ny9rs49auco",604,"158.csv","","null","resources/maskTrios/BT4B.jpg","null","",NA,NA,NA,NA,""
"image-keyboard-response",31,62099,"0.0-3.6-2.6","vma0ny9rs49auco",604,"158.csv","","null","resources/images/coin2.png","null","",NA,NA,NA,NA,""
"image-keyboard-response",32,63439,"0.0-3.7-0.7","vma0ny9rs49auco",604,"158.csv","","1339","resources/trios/L1T1A1.jpg","37","restless",0.7,0.8,0.3,0.0739504005417624,"true"
"image-keyboard-response",33,63841,"0.0-3.7-1.7","vma0ny9rs49auco",604,"158.csv","","null","resources/maskTrios/L1BB.jpg","null","",NA,NA,NA,NA,""
"image-keyboard-response",34,65043,"0.0-3.7-2.7","vma0ny9rs49auco",604,"158.csv","","null","resources/images/coin2.png","null","",NA,NA,NA,NA,""
"image-keyboard-response",35,65581,"0.0-3.8-0.8","vma0ny9rs49auco",604,"158.csv","","537","resources/trios/L2T4A1.jpg","38","restless",0.7,0.8,0.3,0.840369155514779,"false"
"image-keyboard-response",36,65983,"0.0-3.8-1.8","vma0ny9rs49auco",604,"158.csv","","null","resources/maskTrios/BT4B.jpg","null","",NA,NA,NA,NA,""
"image-keyboard-response",37,67186,"0.0-3.8-2.8","vma0ny9rs49auco",604,"158.csv","","null","resources/images/fishbone.png","null","",NA,NA,NA,NA,""
"image-keyboard-response",38,67737,"0.0-3.9-0.9","vma0ny9rs49auco",604,"158.csv","","550","resources/trios/L2T4A3.jpg","38","restless",0.7,0.8,0.3,0.971234231656471,"false"
"image-keyboard-response",39,68138,"0.0-3.9-1.9","vma0ny9rs49auco",604,"158.csv","","null","resources/maskTrios/BT4B.jpg","null","",NA,NA,NA,NA,""
"image-keyboard-response",40,69341,"0.0-3.9-2.9","vma0ny9rs49auco",604,"158.csv","","null","resources/images/fishbone.png","null","",NA,NA,NA,NA,""
"image-keyboard-response",41,76865,"0.0-3.10-0.10","vma0ny9rs49auco",604,"158.csv","","7524","resources/trios/L2T4A1.jpg","37","restless",0.7,0.8,0.3,0.552180768861372,"true"
"image-keyboard-response",42,77267,"0.0-3.10-1.10","vma0ny9rs49auco",604,"158.csv","","null","resources/maskTrios/L2BB.jpg","null","",NA,NA,NA,NA,""
"image-keyboard-response",43,78470,"0.0-3.10-2.10","vma0ny9rs49auco",604,"158.csv","","null","resources/images/coin2.png","null","",NA,NA,NA,NA,""
"image-keyboard-response",44,79542,"0.0-3.11-0.11","vma0ny9rs49auco",604,"158.csv","","1070.0000000000146","resources/trios/L2T1A3.jpg","39","restless",0.7,0.7,0.3,0.0422478947164375,"true"
"image-keyboard-response",45,79945,"0.0-3.11-1.11","vma0ny9rs49auco",604,"158.csv","","null","resources/maskTrios/BBA3.jpg","null","",NA,NA,NA,NA,""
"image-keyboard-response",46,81148,"0.0-3.11-2.11","vma0ny9rs49auco",604,"158.csv","","null","resources/images/coin2.png","null","",NA,NA,NA,NA,""
"image-keyboard-response",47,82039,"0.0-3.12-0.12","vma0ny9rs49auco",604,"158.csv","","890.9999999999854","resources/trios/L1T4A1.jpg","39","restless",0.7,0.6,0.3,0.435749342192297,"false"
"image-keyboard-response",48,82441,"0.0-3.12-1.12","vma0ny9rs49auco",604,"158.csv","","null","resources/maskTrios/BBA1.jpg","null","",NA,NA,NA,NA,""
"image-keyboard-response",49,83643,"0.0-3.12-2.12","vma0ny9rs49auco",604,"158.csv","","null","resources/images/fishbone.png","null","",NA,NA,NA,NA,""
"image-keyboard-response",50,84422,"0.0-3.13-0.13","vma0ny9rs49auco",604,"158.csv","","778.0000000000146","resources/trios/L2T1A3.jpg","37","restless",0.7,0.6,0.3,0.958954428968988,"false"
"image-keyboard-response",51,84825,"0.0-3.13-1.13","vma0ny9rs49auco",604,"158.csv","","null","resources/maskTrios/L2BB.jpg","null","",NA,NA,NA,NA,""
"image-keyboard-response",52,86027,"0.0-3.13-2.13","vma0ny9rs49auco",604,"158.csv","","null","resources/images/fishbone.png","null","",NA,NA,NA,NA,""
"image-keyboard-response",53,86801,"0.0-3.14-0.14","vma0ny9rs49auco",604,"158.csv","","773.0000000000146","resources/trios/L2T1A3.jpg","38","restless",0.7,0.5,0.3,0.0209416187692323,"true"
"image-keyboard-response",54,87203,"0.0-3.14-1.14","vma0ny9rs49auco",604,"158.csv","","null","resources/maskTrios/BT1B.jpg","null","",NA,NA,NA,NA,""
"image-keyboard-response",55,88405,"0.0-3.14-2.14","vma0ny9rs49auco",604,"158.csv","","null","resources/images/coin2.png","null","",NA,NA,NA,NA,""
"image-keyboard-response",56,88999,"0.0-3.15-0.15","vma0ny9rs49auco",604,"158.csv","","594","resources/trios/L1T1A1.jpg","38","restless",0.7,0.5,0.3,0.4991864053765,"true"
"image-keyboard-response",57,89402,"0.0-3.15-1.15","vma0ny9rs49auco",604,"158.csv","","null","resources/maskTrios/BT1B.jpg","null","",NA,NA,NA,NA,""
"image-keyboard-response",58,90604,"0.0-3.15-2.15","vma0ny9rs49auco",604,"158.csv","","null","resources/images/coin2.png","null","",NA,NA,NA,NA,""
"image-keyboard-response",59,91286,"0.0-3.16-0.16","vma0ny9rs49auco",604,"158.csv","","680.0000000000146","resources/trios/L2T4A3.jpg","38","restless",0.7,0.6,0.3,0.310256028886258,"true"
"image-keyboard-response",60,91688,"0.0-3.16-1.16","vma0ny9rs49auco",604,"158.csv","","null","resources/maskTrios/BT4B.jpg","null","",NA,NA,NA,NA,""
"image-keyboard-response",61,92891,"0.0-3.16-2.16","vma0ny9rs49auco",604,"158.csv","","null","resources/images/coin2.png","null","",NA,NA,NA,NA,""
"image-keyboard-response",62,93301,"0.0-3.17-0.17","vma0ny9rs49auco",604,"158.csv","","410","resources/trios/L1T4A1.jpg","38","restless",0.7,0.6,0.4,0.395909584662148,"true"
"image-keyboard-response",63,93704,"0.0-3.17-1.17","vma0ny9rs49auco",604,"158.csv","","null","resources/maskTrios/BT4B.jpg","null","",NA,NA,NA,NA,""
"image-keyboard-response",64,94906,"0.0-3.17-2.17","vma0ny9rs49auco",604,"158.csv","","null","resources/images/coin2.png","null","",NA,NA,NA,NA,""
"image-keyboard-response",65,95265,"0.0-3.18-0.18","vma0ny9rs49auco",604,"158.csv","","359","resources/trios/L1T1A3.jpg","38","restless",0.7,0.6,0.4,0.253713762301502,"true"
"image-keyboard-response",66,95668,"0.0-3.18-1.18","vma0ny9rs49auco",604,"158.csv","","null","resources/maskTrios/BT1B.jpg","null","",NA,NA,NA,NA,""
"image-keyboard-response",67,96870,"0.0-3.18-2.18","vma0ny9rs49auco",604,"158.csv","","null","resources/images/coin2.png","null","",NA,NA,NA,NA,""
"image-keyboard-response",68,97248,"0.0-3.19-0.19","vma0ny9rs49auco",604,"158.csv","","376","resources/trios/L2T4A3.jpg","38","restless",0.7,0.6,0.4,0.94879642544322,"false"
"image-keyboard-response",69,97651,"0.0-3.19-1.19","vma0ny9rs49auco",604,"158.csv","","null","resources/maskTrios/BT4B.jpg","null","",NA,NA,NA,NA,""
"image-keyboard-response",70,98853,"0.0-3.19-2.19","vma0ny9rs49auco",604,"158.csv","","null","resources/images/fishbone.png","null","",NA,NA,NA,NA,""
"image-keyboard-response",71,99393,"0.0-3.20-0.20","vma0ny9rs49auco",604,"158.csv","","540","resources/trios/L1T4A1.jpg","38","restless",0.7,0.5,0.4,0.972290620783882,"false"
"image-keyboard-response",72,99796,"0.0-3.20-1.20","vma0ny9rs49auco",604,"158.csv","","null","resources/maskTrios/BT4B.jpg","null","",NA,NA,NA,NA,""
"image-keyboard-response",73,100997,"0.0-3.20-2.20","vma0ny9rs49auco",604,"158.csv","","null","resources/images/fishbone.png","null","",NA,NA,NA,NA,""
"image-keyboard-response",74,101693,"0.0-3.21-0.21","vma0ny9rs49auco",604,"158.csv","","694","resources/trios/L2T1A1.jpg","37","restless",0.7,0.5,0.4,0.0724183726185518,"true"
"image-keyboard-response",75,102095,"0.0-3.21-1.21","vma0ny9rs49auco",604,"158.csv","","null","resources/maskTrios/L2BB.jpg","null","",NA,NA,NA,NA,""
"image-keyboard-response",76,103297,"0.0-3.21-2.21","vma0ny9rs49auco",604,"158.csv","","null","resources/images/coin2.png","null","",NA,NA,NA,NA,""
"image-keyboard-response",77,103643,"0.0-3.22-0.22","vma0ny9rs49auco",604,"158.csv","","344.99999999998545","resources/trios/L2T4A3.jpg","37","restless",0.7,0.5,0.4,0.767073920120374,"false"
"image-keyboard-response",78,104045,"0.0-3.22-1.22","vma0ny9rs49auco",604,"158.csv","","null","resources/maskTrios/L2BB.jpg","null","",NA,NA,NA,NA,""
"image-keyboard-response",79,105247,"0.0-3.22-2.22","vma0ny9rs49auco",604,"158.csv","","null","resources/images/fishbone.png","null","",NA,NA,NA,NA,""
"image-keyboard-response",80,105511,"0.0-3.23-0.23","vma0ny9rs49auco",604,"158.csv","","263","resources/trios/L1T1A3.jpg","39","restless",0.7,0.5,0.5,0.624620453116606,"false"
"image-keyboard-response",81,105914,"0.0-3.23-1.23","vma0ny9rs49auco",604,"158.csv","","null","resources/maskTrios/BBA3.jpg","null","",NA,NA,NA,NA,""
"image-keyboard-response",82,107115,"0.0-3.23-2.23","vma0ny9rs49auco",604,"158.csv","","null","resources/images/fishbone.png","null","",NA,NA,NA,NA,""
"image-keyboard-response",83,107202,"0.0-3.24-0.24","vma0ny9rs49auco",604,"158.csv","","85","resources/trios/L1T1A3.jpg","37","restless",0.6,0.5,0.5,0.546690928774251,"true"
"image-keyboard-response",84,107604,"0.0-3.24-1.24","vma0ny9rs49auco",604,"158.csv","","null","resources/maskTrios/L1BB.jpg","null","",NA,NA,NA,NA,""
"image-keyboard-response",85,108806,"0.0-3.24-2.24","vma0ny9rs49auco",604,"158.csv","","null","resources/images/coin2.png","null","",NA,NA,NA,NA,""
"image-keyboard-response",86,109118,"0.0-3.25-0.25","vma0ny9rs49auco",604,"158.csv","","311.99999999998545","resources/trios/L2T4A3.jpg","37","restless",0.6,0.5,0.5,0.935727231898306,"false"
"image-keyboard-response",87,109520,"0.0-3.25-1.25","vma0ny9rs49auco",604,"158.csv","","null","resources/maskTrios/L2BB.jpg","null","",NA,NA,NA,NA,""
"image-keyboard-response",88,110723,"0.0-3.25-2.25","vma0ny9rs49auco",604,"158.csv","","null","resources/images/fishbone.png","null","",NA,NA,NA,NA,""
"image-keyboard-response",89,111017,"0.0-3.26-0.26","vma0ny9rs49auco",604,"158.csv","","293","resources/trios/L1T4A1.jpg","38","restless",0.6,0.5,0.5,0.147290954312547,"true"
"image-keyboard-response",90,111420,"0.0-3.26-1.26","vma0ny9rs49auco",604,"158.csv","","null","resources/maskTrios/BT4B.jpg","null","",NA,NA,NA,NA,""
"image-keyboard-response",91,112622,"0.0-3.26-2.26","vma0ny9rs49auco",604,"158.csv","","null","resources/images/coin2.png","null","",NA,NA,NA,NA,""
"image-keyboard-response",92,112919,"0.0-3.27-0.27","vma0ny9rs49auco",604,"158.csv","","296.00000000001455","resources/trios/L2T1A3.jpg","38","restless",0.6,0.5,0.5,0.578164900904485,"false"
"image-keyboard-response",93,113321,"0.0-3.27-1.27","vma0ny9rs49auco",604,"158.csv","","null","resources/maskTrios/BT1B.jpg","null","",NA,NA,NA,NA,""
"image-keyboard-response",94,114523,"0.0-3.27-2.27","vma0ny9rs49auco",604,"158.csv","","null","resources/images/fishbone.png","null","",NA,NA,NA,NA,""
"image-keyboard-response",95,114570,"0.0-3.28-0.28","vma0ny9rs49auco",604,"158.csv","","46","resources/trios/L1T1A1.jpg","39","restless",0.6,0.5,0.5,0.191043528799827,"true"
"image-keyboard-response",96,114973,"0.0-3.28-1.28","vma0ny9rs49auco",604,"158.csv","","null","resources/maskTrios/BBA1.jpg","null","",NA,NA,NA,NA,""
"image-keyboard-response",97,116175,"0.0-3.28-2.28","vma0ny9rs49auco",604,"158.csv","","null","resources/images/coin2.png","null","",NA,NA,NA,NA,""
"image-keyboard-response",98,116500,"0.0-3.29-0.29","vma0ny9rs49auco",604,"158.csv","","323","resources/trios/L2T1A1.jpg","39","restless",0.6,0.5,0.5,0.212102185074856,"true"
"image-keyboard-response",99,116902,"0.0-3.29-1.29","vma0ny9rs49auco",604,"158.csv","","null","resources/maskTrios/BBA1.jpg","null","",NA,NA,NA,NA,""
"image-keyboard-response",100,118105,"0.0-3.29-2.29","vma0ny9rs49auco",604,"158.csv","","null","resources/images/coin2.png","null","",NA,NA,NA,NA,""
"image-keyboard-response",101,118248,"0.0-3.30-0.30","vma0ny9rs49auco",604,"158.csv","","142","resources/trios/L1T4A3.jpg","37","restless",0.6,0.5,0.5,0.357526317690023,"true"
"image-keyboard-response",102,118650,"0.0-3.30-1.30","vma0ny9rs49auco",604,"158.csv","","null","resources/maskTrios/L1BB.jpg","null","",NA,NA,NA,NA,""
"image-keyboard-response",103,119852,"0.0-3.30-2.30","vma0ny9rs49auco",604,"158.csv","","null","resources/images/coin2.png","null","",NA,NA,NA,NA,""
"image-keyboard-response",104,120054,"0.0-3.31-0.31","vma0ny9rs49auco",604,"158.csv","","200.00000000001455","resources/trios/L2T1A1.jpg","37","restless",0.6,0.5,0.5,0.699761868571858,"false"
"image-keyboard-response",105,120456,"0.0-3.31-1.31","vma0ny9rs49auco",604,"158.csv","","null","resources/maskTrios/L2BB.jpg","null","",NA,NA,NA,NA,""
"image-keyboard-response",106,121658,"0.0-3.31-2.31","vma0ny9rs49auco",604,"158.csv","","null","resources/images/fishbone.png","null","",NA,NA,NA,NA,""
"image-keyboard-response",107,122081,"0.0-3.32-0.32","vma0ny9rs49auco",604,"158.csv","","422.00000000001455","resources/trios/L2T4A3.jpg","38","restless",0.6,0.6,0.5,0.89764592649583,"false"
"image-keyboard-response",108,122483,"0.0-3.32-1.32","vma0ny9rs49auco",604,"158.csv","","null","resources/maskTrios/BT4B.jpg","null","",NA,NA,NA,NA,""
"image-keyboard-response",109,123685,"0.0-3.32-2.32","vma0ny9rs49auco",604,"158.csv","","null","resources/images/fishbone.png","null","",NA,NA,NA,NA,""
"image-keyboard-response",110,123807,"0.0-3.33-0.33","vma0ny9rs49auco",604,"158.csv","","121.00000000001455","resources/trios/L1T1A1.jpg","37","restless",0.6,0.6,0.5,0.401175750515454,"true"
"image-keyboard-response",111,124209,"0.0-3.33-1.33","vma0ny9rs49auco",604,"158.csv","","null","resources/maskTrios/L1BB.jpg","null","",NA,NA,NA,NA,""
"image-keyboard-response",112,125414,"0.0-3.33-2.33","vma0ny9rs49auco",604,"158.csv","","null","resources/images/coin2.png","null","",NA,NA,NA,NA,""
"image-keyboard-response",113,125455,"0.0-3.34-0.34","vma0ny9rs49auco",604,"158.csv","","39","resources/trios/L1T1A1.jpg","39","restless",0.6,0.6,0.5,0.97735963804532,"false"
"image-keyboard-response",114,125858,"0.0-3.34-1.34","vma0ny9rs49auco",604,"158.csv","","null","resources/maskTrios/BBA1.jpg","null","",NA,NA,NA,NA,""
"image-keyboard-response",115,127060,"0.0-3.34-2.34","vma0ny9rs49auco",604,"158.csv","","null","resources/images/fishbone.png","null","",NA,NA,NA,NA,""
"image-keyboard-response",116,127418,"0.0-3.35-0.35","vma0ny9rs49auco",604,"158.csv","","358","resources/trios/L2T4A1.jpg","37","restless",0.6,0.6,0.5,0.625009012316531,"false"
"image-keyboard-response",117,127821,"0.0-3.35-1.35","vma0ny9rs49auco",604,"158.csv","","null","resources/maskTrios/L2BB.jpg","null","",NA,NA,NA,NA,""
"image-keyboard-response",118,129023,"0.0-3.35-2.35","vma0ny9rs49auco",604,"158.csv","","null","resources/images/fishbone.png","null","",NA,NA,NA,NA,""
"image-keyboard-response",119,129379,"0.0-3.36-0.36","vma0ny9rs49auco",604,"158.csv","","355.0000000000291","resources/trios/L2T1A1.jpg","37","restless",0.7,0.6,0.5,0.807583149625765,"false"
"image-keyboard-response",120,129782,"0.0-3.36-1.36","vma0ny9rs49auco",604,"158.csv","","null","resources/maskTrios/L2BB.jpg","null","",NA,NA,NA,NA,""
"image-keyboard-response",121,130984,"0.0-3.36-2.36","vma0ny9rs49auco",604,"158.csv","","null","resources/images/fishbone.png","null","",NA,NA,NA,NA,""
"image-keyboard-response",122,131474,"0.0-3.37-0.37","vma0ny9rs49auco",604,"158.csv","","489.0000000000291","resources/trios/L1T4A1.jpg","38","restless",0.7,0.6,0.5,0.560499779739018,"true"
"image-keyboard-response",123,131877,"0.0-3.37-1.37","vma0ny9rs49auco",604,"158.csv","","null","resources/maskTrios/BT4B.jpg","null","",NA,NA,NA,NA,""
"image-keyboard-response",124,133079,"0.0-3.37-2.37","vma0ny9rs49auco",604,"158.csv","","null","resources/images/coin2.png","null","",NA,NA,NA,NA,""
"image-keyboard-response",125,134153,"0.0-3.38-0.38","vma0ny9rs49auco",604,"158.csv","","1073.000000000029","resources/trios/L1T1A1.jpg","38","restless",0.7,0.6,0.5,0.763887734732745,"false"
"image-keyboard-response",126,134556,"0.0-3.38-1.38","vma0ny9rs49auco",604,"158.csv","","null","resources/maskTrios/BT1B.jpg","null","",NA,NA,NA,NA,""
"image-keyboard-response",127,135758,"0.0-3.38-2.38","vma0ny9rs49auco",604,"158.csv","","null","resources/images/fishbone.png","null","",NA,NA,NA,NA,""
"image-keyboard-response",128,137627,"0.0-3.39-0.39","vma0ny9rs49auco",604,"158.csv","","1868","resources/trios/L2T1A3.jpg","37","restless",0.7,0.6,0.6,0.0349415296501241,"true"
"image-keyboard-response",129,138029,"0.0-3.39-1.39","vma0ny9rs49auco",604,"158.csv","","null","resources/maskTrios/L2BB.jpg","null","",NA,NA,NA,NA,""
"image-keyboard-response",130,139233,"0.0-3.39-2.39","vma0ny9rs49auco",604,"158.csv","","null","resources/images/coin2.png","null","",NA,NA,NA,NA,""
"image-keyboard-response",131,139738,"0.0-3.40-0.40","vma0ny9rs49auco",604,"158.csv","","504","resources/trios/L1T1A3.jpg","37","restless",0.7,0.6,0.6,0.0811638454366751,"true"
"image-keyboard-response",132,140141,"0.0-3.40-1.40","vma0ny9rs49auco",604,"158.csv","","null","resources/maskTrios/L1BB.jpg","null","",NA,NA,NA,NA,""
"image-keyboard-response",133,141342,"0.0-3.40-2.40","vma0ny9rs49auco",604,"158.csv","","null","resources/images/coin2.png","null","",NA,NA,NA,NA,""
"image-keyboard-response",134,141659,"0.0-3.41-0.41","vma0ny9rs49auco",604,"158.csv","","315.0000000000291","resources/trios/L1T1A1.jpg","38","restless",0.7,0.6,0.6,0.048656587783792,"true"
"image-keyboard-response",135,142062,"0.0-3.41-1.41","vma0ny9rs49auco",604,"158.csv","","null","resources/maskTrios/BT1B.jpg","null","",NA,NA,NA,NA,""
"image-keyboard-response",136,143264,"0.0-3.41-2.41","vma0ny9rs49auco",604,"158.csv","","null","resources/images/coin2.png","null","",NA,NA,NA,NA,""
"image-keyboard-response",137,144454,"0.0-3.42-0.42","vma0ny9rs49auco",604,"158.csv","","1186.999999999971","resources/trios/L1T1A3.jpg","37","restless",0.7,0.6,0.6,0.964113009916588,"false"
"image-keyboard-response",138,144857,"0.0-3.42-1.42","vma0ny9rs49auco",604,"158.csv","","null","resources/maskTrios/L1BB.jpg","null","",NA,NA,NA,NA,""
"image-keyboard-response",139,146059,"0.0-3.42-2.42","vma0ny9rs49auco",604,"158.csv","","null","resources/images/fishbone.png","null","",NA,NA,NA,NA,""
"image-keyboard-response",140,146529,"0.0-3.43-0.43","vma0ny9rs49auco",604,"158.csv","","469.0000000000291","resources/trios/L1T4A3.jpg","38","restless",0.7,0.6,0.7,0.642909828462906,"false"
"image-keyboard-response",141,146931,"0.0-3.43-1.43","vma0ny9rs49auco",604,"158.csv","","null","resources/maskTrios/BT4B.jpg","null","",NA,NA,NA,NA,""
"image-keyboard-response",142,148133,"0.0-3.43-2.43","vma0ny9rs49auco",604,"158.csv","","null","resources/images/fishbone.png","null","",NA,NA,NA,NA,""
"image-keyboard-response",143,148680,"0.0-3.44-0.44","vma0ny9rs49auco",604,"158.csv","","546","resources/trios/L2T4A1.jpg","37","restless",0.7,0.6,0.6,0.846841414480307,"false"
"image-keyboard-response",144,149083,"0.0-3.44-1.44","vma0ny9rs49auco",604,"158.csv","","null","resources/maskTrios/L2BB.jpg","null","",NA,NA,NA,NA,""
"image-keyboard-response",145,150285,"0.0-3.44-2.44","vma0ny9rs49auco",604,"158.csv","","null","resources/images/fishbone.png","null","",NA,NA,NA,NA,""
"image-keyboard-response",146,150561,"0.0-3.45-0.45","vma0ny9rs49auco",604,"158.csv","","275","resources/trios/L1T4A3.jpg","37","restless",0.7,0.6,0.6,0.914010681558179,"false"
"image-keyboard-response",147,150963,"0.0-3.45-1.45","vma0ny9rs49auco",604,"158.csv","","null","resources/maskTrios/L1BB.jpg","null","",NA,NA,NA,NA,""
"image-keyboard-response",148,152166,"0.0-3.45-2.45","vma0ny9rs49auco",604,"158.csv","","null","resources/images/fishbone.png","null","",NA,NA,NA,NA,""
"image-keyboard-response",149,152517,"0.0-3.46-0.46","vma0ny9rs49auco",604,"158.csv","","349","resources/trios/L1T4A1.jpg","39","restless",0.7,0.6,0.6,0.990630242923282,"false"
"image-keyboard-response",150,152920,"0.0-3.46-1.46","vma0ny9rs49auco",604,"158.csv","","null","resources/maskTrios/BBA1.jpg","null","",NA,NA,NA,NA,""
"image-keyboard-response",151,154122,"0.0-3.46-2.46","vma0ny9rs49auco",604,"158.csv","","null","resources/images/fishbone.png","null","",NA,NA,NA,NA,""
"image-keyboard-response",152,154407,"0.0-3.47-0.47","vma0ny9rs49auco",604,"158.csv","","283.9999999999709","resources/trios/L1T4A3.jpg","38","restless",0.7,0.6,0.6,0.302410448180637,"true"
"image-keyboard-response",153,154809,"0.0-3.47-1.47","vma0ny9rs49auco",604,"158.csv","","null","resources/maskTrios/BT4B.jpg","null","",NA,NA,NA,NA,""
"image-keyboard-response",154,156011,"0.0-3.47-2.47","vma0ny9rs49auco",604,"158.csv","","null","resources/images/coin2.png","null","",NA,NA,NA,NA,""
"image-keyboard-response",155,156365,"0.0-3.48-0.48","vma0ny9rs49auco",604,"158.csv","","353","resources/trios/L2T1A1.jpg","38","restless",0.8,0.6,0.6,0.357125777229432,"true"
"image-keyboard-response",156,156767,"0.0-3.48-1.48","vma0ny9rs49auco",604,"158.csv","","null","resources/maskTrios/BT1B.jpg","null","",NA,NA,NA,NA,""
"image-keyboard-response",157,157970,"0.0-3.48-2.48","vma0ny9rs49auco",604,"158.csv","","null","resources/images/coin2.png","null","",NA,NA,NA,NA,""
"image-keyboard-response",158,158815,"0.0-3.49-0.49","vma0ny9rs49auco",604,"158.csv","","844","resources/trios/L2T4A1.jpg","38","restless",0.8,0.6,0.6,0.168778529892052,"true"
"image-keyboard-response",159,159216,"0.0-3.49-1.49","vma0ny9rs49auco",604,"158.csv","","null","resources/maskTrios/BT4B.jpg","null","",NA,NA,NA,NA,""
"image-keyboard-response",160,160419,"0.0-3.49-2.49","vma0ny9rs49auco",604,"158.csv","","null","resources/images/coin2.png","null","",NA,NA,NA,NA,""
"image-keyboard-response",161,161153,"0.0-3.50-0.50","vma0ny9rs49auco",604,"158.csv","","733.0000000000291","resources/trios/L2T4A1.jpg","38","restless",0.7,0.5,0.7,0.566300321812097,"false"
"image-keyboard-response",162,161555,"0.0-3.50-1.50","vma0ny9rs49auco",604,"158.csv","","null","resources/maskTrios/BT4B.jpg","null","",NA,NA,NA,NA,""
"image-keyboard-response",163,162757,"0.0-3.50-2.50","vma0ny9rs49auco",604,"158.csv","","null","resources/images/fishbone.png","null","",NA,NA,NA,NA,""
"image-keyboard-response",164,163234,"0.0-3.51-0.51","vma0ny9rs49auco",604,"158.csv","","475","resources/trios/L2T1A3.jpg","39","restless",0.7,0.5,0.7,0.00999302279443315,"true"
"image-keyboard-response",165,163637,"0.0-3.51-1.51","vma0ny9rs49auco",604,"158.csv","","null","resources/maskTrios/BBA3.jpg","null","",NA,NA,NA,NA,""
"image-keyboard-response",166,164839,"0.0-3.51-2.51","vma0ny9rs49auco",604,"158.csv","","null","resources/images/coin2.png","null","",NA,NA,NA,NA,""
"image-keyboard-response",167,165118,"0.0-3.52-0.52","vma0ny9rs49auco",604,"158.csv","","279","resources/trios/L2T4A1.jpg","39","restless",0.7,0.4,0.8,0.669824271830856,"true"
"image-keyboard-response",168,165520,"0.0-3.52-1.52","vma0ny9rs49auco",604,"158.csv","","null","resources/maskTrios/BBA1.jpg","null","",NA,NA,NA,NA,""
"image-keyboard-response",169,166725,"0.0-3.52-2.52","vma0ny9rs49auco",604,"158.csv","","null","resources/images/coin2.png","null","",NA,NA,NA,NA,""
"image-keyboard-response",170,166953,"0.0-3.53-0.53","vma0ny9rs49auco",604,"158.csv","","227","resources/trios/L2T4A3.jpg","39","restless",0.7,0.3,0.8,0.116123042630173,"true"
"image-keyboard-response",171,167354,"0.0-3.53-1.53","vma0ny9rs49auco",604,"158.csv","","null","resources/maskTrios/BBA3.jpg","null","",NA,NA,NA,NA,""
"image-keyboard-response",172,168557,"0.0-3.53-2.53","vma0ny9rs49auco",604,"158.csv","","null","resources/images/coin2.png","null","",NA,NA,NA,NA,""
"image-keyboard-response",173,168918,"0.0-3.54-0.54","vma0ny9rs49auco",604,"158.csv","","360","resources/trios/L1T1A1.jpg","37","restless",0.7,0.2,0.8,0.028391508479909,"true"
"image-keyboard-response",174,169322,"0.0-3.54-1.54","vma0ny9rs49auco",604,"158.csv","","null","resources/maskTrios/L1BB.jpg","null","",NA,NA,NA,NA,""
"image-keyboard-response",175,170524,"0.0-3.54-2.54","vma0ny9rs49auco",604,"158.csv","","null","resources/images/coin2.png","null","",NA,NA,NA,NA,""
"image-keyboard-response",176,170812,"0.0-3.55-0.55","vma0ny9rs49auco",604,"158.csv","","286","resources/trios/L1T1A3.jpg","37","restless",0.7,0.2,0.8,0.00199675267262711,"true"
"image-keyboard-response",177,171214,"0.0-3.55-1.55","vma0ny9rs49auco",604,"158.csv","","null","resources/maskTrios/L1BB.jpg","null","",NA,NA,NA,NA,""
"image-keyboard-response",178,172417,"0.0-3.55-2.55","vma0ny9rs49auco",604,"158.csv","","null","resources/images/coin2.png","null","",NA,NA,NA,NA,""
"image-keyboard-response",179,172727,"0.0-3.56-0.56","vma0ny9rs49auco",604,"158.csv","","308","resources/trios/L1T4A3.jpg","37","restless",0.7,0.2,0.8,0.833082298486119,"false"
"image-keyboard-response",180,173130,"0.0-3.56-1.56","vma0ny9rs49auco",604,"158.csv","","null","resources/maskTrios/L1BB.jpg","null","",NA,NA,NA,NA,""
"image-keyboard-response",181,174332,"0.0-3.56-2.56","vma0ny9rs49auco",604,"158.csv","","null","resources/images/fishbone.png","null","",NA,NA,NA,NA,""
"image-keyboard-response",182,174616,"0.0-3.57-0.57","vma0ny9rs49auco",604,"158.csv","","282","resources/trios/L2T1A1.jpg","38","restless",0.7,0.2,0.8,0.640012247883652,"false"
"image-keyboard-response",183,175018,"0.0-3.57-1.57","vma0ny9rs49auco",604,"158.csv","","null","resources/maskTrios/BT1B.jpg","null","",NA,NA,NA,NA,""
"image-keyboard-response",184,176221,"0.0-3.57-2.57","vma0ny9rs49auco",604,"158.csv","","null","resources/images/fishbone.png","null","",NA,NA,NA,NA,""
"image-keyboard-response",185,176499,"0.0-3.58-0.58","vma0ny9rs49auco",604,"158.csv","","277","resources/trios/L2T1A1.jpg","39","restless",0.7,0.2,0.8,0.439310798801211,"true"
"image-keyboard-response",186,176902,"0.0-3.58-1.58","vma0ny9rs49auco",604,"158.csv","","null","resources/maskTrios/BBA1.jpg","null","",NA,NA,NA,NA,""
"image-keyboard-response",187,178104,"0.0-3.58-2.58","vma0ny9rs49auco",604,"158.csv","","null","resources/images/coin2.png","null","",NA,NA,NA,NA,""
"image-keyboard-response",188,178315,"0.0-3.59-0.59","vma0ny9rs49auco",604,"158.csv","","209.9999999999709","resources/trios/L1T4A1.jpg","39","restless",0.7,0.2,0.8,0.656596409790932,"true"
"image-keyboard-response",189,178717,"0.0-3.59-1.59","vma0ny9rs49auco",604,"158.csv","","null","resources/maskTrios/BBA1.jpg","null","",NA,NA,NA,NA,""
"image-keyboard-response",190,179919,"0.0-3.59-2.59","vma0ny9rs49auco",604,"158.csv","","null","resources/images/coin2.png","null","",NA,NA,NA,NA,""
"image-keyboard-response",191,180197,"0.0-3.60-0.60","vma0ny9rs49auco",604,"158.csv","","277","resources/trios/L1T4A1.jpg","39","restless",0.7,0.2,0.8,0.481493718305193,"true"
"image-keyboard-response",192,180600,"0.0-3.60-1.60","vma0ny9rs49auco",604,"158.csv","","null","resources/maskTrios/BBA1.jpg","null","",NA,NA,NA,NA,""
"image-keyboard-response",193,181802,"0.0-3.60-2.60","vma0ny9rs49auco",604,"158.csv","","null","resources/images/coin2.png","null","",NA,NA,NA,NA,""
"image-keyboard-response",194,181929,"0.0-3.61-0.61","vma0ny9rs49auco",604,"158.csv","","126","resources/trios/L1T1A1.jpg","39","restless",0.7,0.2,0.8,0.0133606003918978,"true"
"image-keyboard-response",195,182333,"0.0-3.61-1.61","vma0ny9rs49auco",604,"158.csv","","null","resources/maskTrios/BBA1.jpg","null","",NA,NA,NA,NA,""
"image-keyboard-response",196,183535,"0.0-3.61-2.61","vma0ny9rs49auco",604,"158.csv","","null","resources/images/coin2.png","null","",NA,NA,NA,NA,""
"image-keyboard-response",197,183752,"0.0-3.62-0.62","vma0ny9rs49auco",604,"158.csv","","215","resources/trios/L2T1A1.jpg","39","restless",0.7,0.2,0.8,0.108548473806426,"true"
"image-keyboard-response",198,184154,"0.0-3.62-1.62","vma0ny9rs49auco",604,"158.csv","","null","resources/maskTrios/BBA1.jpg","null","",NA,NA,NA,NA,""
"image-keyboard-response",199,185357,"0.0-3.62-2.62","vma0ny9rs49auco",604,"158.csv","","null","resources/images/coin2.png","null","",NA,NA,NA,NA,""
"image-keyboard-response",200,185541,"0.0-3.63-0.63","vma0ny9rs49auco",604,"158.csv","","183","resources/trios/L1T1A3.jpg","39","restless",0.7,0.2,0.8,0.579953461376138,"true"
"image-keyboard-response",201,185943,"0.0-3.63-1.63","vma0ny9rs49auco",604,"158.csv","","null","resources/maskTrios/BBA3.jpg","null","",NA,NA,NA,NA,""
"image-keyboard-response",202,187146,"0.0-3.63-2.63","vma0ny9rs49auco",604,"158.csv","","null","resources/images/coin2.png","null","",NA,NA,NA,NA,""
"image-keyboard-response",203,187492,"0.0-3.64-0.64","vma0ny9rs49auco",604,"158.csv","","345","resources/trios/L2T1A1.jpg","39","restless",0.6,0.3,0.8,0.580296229752053,"true"
"image-keyboard-response",204,187895,"0.0-3.64-1.64","vma0ny9rs49auco",604,"158.csv","","null","resources/maskTrios/BBA1.jpg","null","",NA,NA,NA,NA,""
"image-keyboard-response",205,189097,"0.0-3.64-2.64","vma0ny9rs49auco",604,"158.csv","","null","resources/images/coin2.png","null","",NA,NA,NA,NA,""
"image-keyboard-response",206,189301,"0.0-3.65-0.65","vma0ny9rs49auco",604,"158.csv","","203","resources/trios/L2T4A1.jpg","39","restless",0.6,0.3,0.8,0.798364076358272,"true"
"image-keyboard-response",207,189703,"0.0-3.65-1.65","vma0ny9rs49auco",604,"158.csv","","null","resources/maskTrios/BBA1.jpg","null","",NA,NA,NA,NA,""
"image-keyboard-response",208,190906,"0.0-3.65-2.65","vma0ny9rs49auco",604,"158.csv","","null","resources/images/coin2.png","null","",NA,NA,NA,NA,""
"image-keyboard-response",209,191080,"0.0-3.66-0.66","vma0ny9rs49auco",604,"158.csv","","172","resources/trios/L1T4A1.jpg","39","restless",0.6,0.3,0.8,0.681912725135757,"true"
"image-keyboard-response",210,191482,"0.0-3.66-1.66","vma0ny9rs49auco",604,"158.csv","","null","resources/maskTrios/BBA1.jpg","null","",NA,NA,NA,NA,""
"image-keyboard-response",211,192685,"0.0-3.66-2.66","vma0ny9rs49auco",604,"158.csv","","null","resources/images/coin2.png","null","",NA,NA,NA,NA,""
"image-keyboard-response",212,192987,"0.0-3.67-0.67","vma0ny9rs49auco",604,"158.csv","","301","resources/trios/L1T1A1.jpg","39","restless",0.6,0.3,0.8,0.0486114340281241,"true"
"image-keyboard-response",213,193390,"0.0-3.67-1.67","vma0ny9rs49auco",604,"158.csv","","null","resources/maskTrios/BBA1.jpg","null","",NA,NA,NA,NA,""
"image-keyboard-response",214,194593,"0.0-3.67-2.67","vma0ny9rs49auco",604,"158.csv","","null","resources/images/coin2.png","null","",NA,NA,NA,NA,""
"image-keyboard-response",215,194932,"0.0-3.68-0.68","vma0ny9rs49auco",604,"158.csv","","338","resources/trios/L2T1A3.jpg","39","restless",0.5,0.3,0.8,0.769573587762305,"true"
"image-keyboard-response",216,195334,"0.0-3.68-1.68","vma0ny9rs49auco",604,"158.csv","","null","resources/maskTrios/BBA3.jpg","null","",NA,NA,NA,NA,""
"image-keyboard-response",217,196536,"0.0-3.68-2.68","vma0ny9rs49auco",604,"158.csv","","null","resources/images/coin2.png","null","",NA,NA,NA,NA,""
"image-keyboard-response",218,196638,"0.0-3.69-0.69","vma0ny9rs49auco",604,"158.csv","","101","resources/trios/L1T4A1.jpg","39","restless",0.5,0.3,0.8,0.425588864673569,"true"
"image-keyboard-response",219,197040,"0.0-3.69-1.69","vma0ny9rs49auco",604,"158.csv","","null","resources/maskTrios/BBA1.jpg","null","",NA,NA,NA,NA,""
"image-keyboard-response",220,198242,"0.0-3.69-2.69","vma0ny9rs49auco",604,"158.csv","","null","resources/images/coin2.png","null","",NA,NA,NA,NA,""
"image-keyboard-response",221,198413,"0.0-3.70-0.70","vma0ny9rs49auco",604,"158.csv","","169","resources/trios/L1T4A3.jpg","39","restless",0.5,0.3,0.8,0.939085645893107,"false"
"image-keyboard-response",222,198816,"0.0-3.70-1.70","vma0ny9rs49auco",604,"158.csv","","null","resources/maskTrios/BBA3.jpg","null","",NA,NA,NA,NA,""
"image-keyboard-response",223,200018,"0.0-3.70-2.70","vma0ny9rs49auco",604,"158.csv","","null","resources/images/fishbone.png","null","",NA,NA,NA,NA,""
"image-keyboard-response",224,200509,"0.0-3.71-0.71","vma0ny9rs49auco",604,"158.csv","","491.0000000000291","resources/trios/L1T4A1.jpg","37","restless",0.4,0.3,0.7,0.0560554495043615,"true"
"image-keyboard-response",225,200912,"0.0-3.71-1.71","vma0ny9rs49auco",604,"158.csv","","null","resources/maskTrios/L1BB.jpg","null","",NA,NA,NA,NA,""
"image-keyboard-response",226,202115,"0.0-3.71-2.71","vma0ny9rs49auco",604,"158.csv","","null","resources/images/coin2.png","null","",NA,NA,NA,NA,""
"image-keyboard-response",227,202744,"0.0-3.72-0.72","vma0ny9rs49auco",604,"158.csv","","628","resources/trios/L2T4A1.jpg","37","restless",0.4,0.3,0.7,0.794383620608799,"false"
"image-keyboard-response",228,203147,"0.0-3.72-1.72","vma0ny9rs49auco",604,"158.csv","","null","resources/maskTrios/L2BB.jpg","null","",NA,NA,NA,NA,""
"image-keyboard-response",229,204350,"0.0-3.72-2.72","vma0ny9rs49auco",604,"158.csv","","null","resources/images/fishbone.png","null","",NA,NA,NA,NA,""
"image-keyboard-response",230,204574,"0.0-3.73-0.73","vma0ny9rs49auco",604,"158.csv","","222","resources/trios/L2T4A1.jpg","38","restless",0.4,0.3,0.7,0.475377785703788,"false"
"image-keyboard-response",231,204976,"0.0-3.73-1.73","vma0ny9rs49auco",604,"158.csv","","null","resources/maskTrios/BT4B.jpg","null","",NA,NA,NA,NA,""
"image-keyboard-response",232,206178,"0.0-3.73-2.73","vma0ny9rs49auco",604,"158.csv","","null","resources/images/fishbone.png","null","",NA,NA,NA,NA,""
"image-keyboard-response",233,206235,"0.0-3.74-0.74","vma0ny9rs49auco",604,"158.csv","","55","resources/trios/L2T4A1.jpg","39","restless",0.4,0.3,0.7,0.601557602504672,"true"
"image-keyboard-response",234,206637,"0.0-3.74-1.74","vma0ny9rs49auco",604,"158.csv","","null","resources/maskTrios/BBA1.jpg","null","",NA,NA,NA,NA,""
"image-keyboard-response",235,207839,"0.0-3.74-2.74","vma0ny9rs49auco",604,"158.csv","","null","resources/images/coin2.png","null","",NA,NA,NA,NA,""
"image-keyboard-response",236,208196,"0.0-3.75-0.75","vma0ny9rs49auco",604,"158.csv","","355","resources/trios/L1T1A1.jpg","39","restless",0.4,0.3,0.7,0.809083576065944,"false"
"image-keyboard-response",237,208598,"0.0-3.75-1.75","vma0ny9rs49auco",604,"158.csv","","null","resources/maskTrios/BBA1.jpg","null","",NA,NA,NA,NA,""
"image-keyboard-response",238,209800,"0.0-3.75-2.75","vma0ny9rs49auco",604,"158.csv","","null","resources/images/fishbone.png","null","",NA,NA,NA,NA,""
"image-keyboard-response",239,210056,"0.0-3.76-0.76","vma0ny9rs49auco",604,"158.csv","","253.9999999999709","resources/trios/L2T4A1.jpg","38","restless",0.4,0.3,0.7,0.459943176339117,"false"
"image-keyboard-response",240,210458,"0.0-3.76-1.76","vma0ny9rs49auco",604,"158.csv","","null","resources/maskTrios/BT4B.jpg","null","",NA,NA,NA,NA,""
"image-keyboard-response",241,211660,"0.0-3.76-2.76","vma0ny9rs49auco",604,"158.csv","","null","resources/images/fishbone.png","null","",NA,NA,NA,NA,""
"image-keyboard-response",242,211937,"0.0-3.77-0.77","vma0ny9rs49auco",604,"158.csv","","275","resources/trios/L1T4A1.jpg","37","restless",0.4,0.3,0.7,0.991935857477596,"false"
"image-keyboard-response",243,212340,"0.0-3.77-1.77","vma0ny9rs49auco",604,"158.csv","","null","resources/maskTrios/L1BB.jpg","null","",NA,NA,NA,NA,""
"image-keyboard-response",244,213541,"0.0-3.77-2.77","vma0ny9rs49auco",604,"158.csv","","null","resources/images/fishbone.png","null","",NA,NA,NA,NA,""
"image-keyboard-response",245,213822,"0.0-3.78-0.78","vma0ny9rs49auco",604,"158.csv","","279","resources/trios/L2T4A3.jpg","37","restless",0.4,0.3,0.7,0.175326400289377,"true"
"image-keyboard-response",246,214224,"0.0-3.78-1.78","vma0ny9rs49auco",604,"158.csv","","null","resources/maskTrios/L2BB.jpg","null","",NA,NA,NA,NA,""
"image-keyboard-response",247,215426,"0.0-3.78-2.78","vma0ny9rs49auco",604,"158.csv","","null","resources/images/coin2.png","null","",NA,NA,NA,NA,""
"image-keyboard-response",248,215722,"0.0-3.79-0.79","vma0ny9rs49auco",604,"158.csv","","295","resources/trios/L1T4A3.jpg","37","restless",0.4,0.3,0.7,0.443474841569176,"false"
"image-keyboard-response",249,216126,"0.0-3.79-1.79","vma0ny9rs49auco",604,"158.csv","","null","resources/maskTrios/L1BB.jpg","null","",NA,NA,NA,NA,""
"image-keyboard-response",250,217328,"0.0-3.79-2.79","vma0ny9rs49auco",604,"158.csv","","null","resources/images/fishbone.png","null","",NA,NA,NA,NA,""
"image-keyboard-response",251,218011,"0.0-3.80-0.80","vma0ny9rs49auco",604,"158.csv","","682","resources/trios/L2T4A1.jpg","38","restless",0.4,0.3,0.7,0.653116059466309,"false"
"image-keyboard-response",252,218414,"0.0-3.80-1.80","vma0ny9rs49auco",604,"158.csv","","null","resources/maskTrios/BT4B.jpg","null","",NA,NA,NA,NA,""
"image-keyboard-response",253,219616,"0.0-3.80-2.80","vma0ny9rs49auco",604,"158.csv","","null","resources/images/fishbone.png","null","",NA,NA,NA,NA,""
"image-keyboard-response",254,219931,"0.0-3.81-0.81","vma0ny9rs49auco",604,"158.csv","","311","resources/trios/L1T1A3.jpg","39","restless",0.4,0.3,0.8,0.388642520884345,"true"
"image-keyboard-response",255,220334,"0.0-3.81-1.81","vma0ny9rs49auco",604,"158.csv","","null","resources/maskTrios/BBA3.jpg","null","",NA,NA,NA,NA,""
"image-keyboard-response",256,221536,"0.0-3.81-2.81","vma0ny9rs49auco",604,"158.csv","","null","resources/images/coin2.png","null","",NA,NA,NA,NA,""
"image-keyboard-response",257,221826,"0.0-3.82-0.82","vma0ny9rs49auco",604,"158.csv","","288.0000000000291","resources/trios/L1T4A3.jpg","39","restless",0.4,0.3,0.8,0.3253690218334,"true"
"image-keyboard-response",258,222228,"0.0-3.82-1.82","vma0ny9rs49auco",604,"158.csv","","null","resources/maskTrios/BBA3.jpg","null","",NA,NA,NA,NA,""
"image-keyboard-response",259,223431,"0.0-3.82-2.82","vma0ny9rs49auco",604,"158.csv","","null","resources/images/coin2.png","null","",NA,NA,NA,NA,""
"image-keyboard-response",260,223685,"0.0-3.83-0.83","vma0ny9rs49auco",604,"158.csv","","254","resources/trios/L1T1A1.jpg","39","restless",0.3,0.3,0.8,0.274243358937126,"true"
"image-keyboard-response",261,224088,"0.0-3.83-1.83","vma0ny9rs49auco",604,"158.csv","","null","resources/maskTrios/BBA1.jpg","null","",NA,NA,NA,NA,""
"image-keyboard-response",262,225290,"0.0-3.83-2.83","vma0ny9rs49auco",604,"158.csv","","null","resources/images/coin2.png","null","",NA,NA,NA,NA,""
"image-keyboard-response",263,225312,"0.0-3.84-0.84","vma0ny9rs49auco",604,"158.csv","","20","resources/trios/L1T1A3.jpg","39","restless",0.3,0.3,0.8,0.0199621339481688,"true"
"image-keyboard-response",264,225714,"0.0-3.84-1.84","vma0ny9rs49auco",604,"158.csv","","null","resources/maskTrios/BBA3.jpg","null","",NA,NA,NA,NA,""
"image-keyboard-response",265,226917,"0.0-3.84-2.84","vma0ny9rs49auco",604,"158.csv","","null","resources/images/coin2.png","null","",NA,NA,NA,NA,""
"image-keyboard-response",266,227463,"0.0-3.85-0.85","vma0ny9rs49auco",604,"158.csv","","545","resources/trios/L1T1A1.jpg","39","restless",0.3,0.3,0.8,0.977310838399085,"false"
"image-keyboard-response",267,227867,"0.0-3.85-1.85","vma0ny9rs49auco",604,"158.csv","","null","resources/maskTrios/BBA1.jpg","null","",NA,NA,NA,NA,""
"image-keyboard-response",268,229069,"0.0-3.85-2.85","vma0ny9rs49auco",604,"158.csv","","null","resources/images/fishbone.png","null","",NA,NA,NA,NA,""
"image-keyboard-response",269,229439,"0.0-3.86-0.86","vma0ny9rs49auco",604,"158.csv","","367.0000000000291","resources/trios/L1T1A1.jpg","38","restless",0.3,0.3,0.8,0.987987897051339,"false"
"image-keyboard-response",270,229841,"0.0-3.86-1.86","vma0ny9rs49auco",604,"158.csv","","null","resources/maskTrios/BT1B.jpg","null","",NA,NA,NA,NA,""
"image-keyboard-response",271,231043,"0.0-3.86-2.86","vma0ny9rs49auco",604,"158.csv","","null","resources/images/fishbone.png","null","",NA,NA,NA,NA,""
"image-keyboard-response",272,231340,"0.0-3.87-0.87","vma0ny9rs49auco",604,"158.csv","","296","resources/trios/L1T4A1.jpg","37","restless",0.3,0.3,0.8,0.447755502065683,"false"
"image-keyboard-response",273,231741,"0.0-3.87-1.87","vma0ny9rs49auco",604,"158.csv","","null","resources/maskTrios/L1BB.jpg","null","",NA,NA,NA,NA,""
"image-keyboard-response",274,232943,"0.0-3.87-2.87","vma0ny9rs49auco",604,"158.csv","","null","resources/images/fishbone.png","null","",NA,NA,NA,NA,""
"image-keyboard-response",275,233471,"0.0-3.88-0.88","vma0ny9rs49auco",604,"158.csv","","525","resources/trios/L2T1A3.jpg","37","restless",0.3,0.3,0.8,0.469390803439335,"false"
"image-keyboard-response",276,233874,"0.0-3.88-1.88","vma0ny9rs49auco",604,"158.csv","","null","resources/maskTrios/L2BB.jpg","null","",NA,NA,NA,NA,""
"image-keyboard-response",277,235076,"0.0-3.88-2.88","vma0ny9rs49auco",604,"158.csv","","null","resources/images/fishbone.png","null","",NA,NA,NA,NA,""
"image-keyboard-response",278,235123,"0.0-3.89-0.89","vma0ny9rs49auco",604,"158.csv","","46","resources/trios/L2T4A3.jpg","38","restless",0.3,0.3,0.8,0.487477823969547,"false"
"image-keyboard-response",279,235525,"0.0-3.89-1.89","vma0ny9rs49auco",604,"158.csv","","null","resources/maskTrios/BT4B.jpg","null","",NA,NA,NA,NA,""
"image-keyboard-response",280,236728,"0.0-3.89-2.89","vma0ny9rs49auco",604,"158.csv","","null","resources/images/fishbone.png","null","",NA,NA,NA,NA,""
"image-keyboard-response",281,237229,"0.0-3.90-0.90","vma0ny9rs49auco",604,"158.csv","","500","resources/trios/L2T4A3.jpg","38","restless",0.3,0.4,0.8,0.650678413288767,"false"
"image-keyboard-response",282,237632,"0.0-3.90-1.90","vma0ny9rs49auco",604,"158.csv","","null","resources/maskTrios/BT4B.jpg","null","",NA,NA,NA,NA,""
"image-keyboard-response",283,238834,"0.0-3.90-2.90","vma0ny9rs49auco",604,"158.csv","","null","resources/images/fishbone.png","null","",NA,NA,NA,NA,""
"image-keyboard-response",284,239687,"0.0-3.91-0.91","vma0ny9rs49auco",604,"158.csv","","851","resources/trios/L1T4A1.jpg","37","restless",0.3,0.5,0.8,0.543522786803525,"false"
"image-keyboard-response",285,240089,"0.0-3.91-1.91","vma0ny9rs49auco",604,"158.csv","","null","resources/maskTrios/L1BB.jpg","null","",NA,NA,NA,NA,""
"image-keyboard-response",286,241291,"0.0-3.91-2.91","vma0ny9rs49auco",604,"158.csv","","null","resources/images/fishbone.png","null","",NA,NA,NA,NA,""
"image-keyboard-response",287,241609,"0.0-3.92-0.92","vma0ny9rs49auco",604,"158.csv","","318","resources/trios/L2T1A3.jpg","38","restless",0.3,0.5,0.8,0.213533978631939,"true"
"image-keyboard-response",288,242011,"0.0-3.92-1.92","vma0ny9rs49auco",604,"158.csv","","null","resources/maskTrios/BT1B.jpg","null","",NA,NA,NA,NA,""
"image-keyboard-response",289,243214,"0.0-3.92-2.92","vma0ny9rs49auco",604,"158.csv","","null","resources/images/coin2.png","null","",NA,NA,NA,NA,""
"image-keyboard-response",290,243552,"0.0-3.93-0.93","vma0ny9rs49auco",604,"158.csv","","337","resources/trios/L1T1A3.jpg","38","restless",0.3,0.5,0.9,0.667303667555492,"false"
"image-keyboard-response",291,243954,"0.0-3.93-1.93","vma0ny9rs49auco",604,"158.csv","","null","resources/maskTrios/BT1B.jpg","null","",NA,NA,NA,NA,""
"image-keyboard-response",292,245156,"0.0-3.93-2.93","vma0ny9rs49auco",604,"158.csv","","null","resources/images/fishbone.png","null","",NA,NA,NA,NA,""
"image-keyboard-response",293,245547,"0.0-3.94-0.94","vma0ny9rs49auco",604,"158.csv","","390","resources/trios/L2T4A1.jpg","39","restless",0.3,0.5,0.9,0.0920650672729851,"true"
"image-keyboard-response",294,245948,"0.0-3.94-1.94","vma0ny9rs49auco",604,"158.csv","","null","resources/maskTrios/BBA1.jpg","null","",NA,NA,NA,NA,""
"image-keyboard-response",295,247151,"0.0-3.94-2.94","vma0ny9rs49auco",604,"158.csv","","null","resources/images/coin2.png","null","",NA,NA,NA,NA,""
"image-keyboard-response",296,247564,"0.0-3.95-0.95","vma0ny9rs49auco",604,"158.csv","","411.9999999999709","resources/trios/L1T1A3.jpg","39","restless",0.3,0.5,0.9,0.97589260722437,"false"
"image-keyboard-response",297,247967,"0.0-3.95-1.95","vma0ny9rs49auco",604,"158.csv","","null","resources/maskTrios/BBA3.jpg","null","",NA,NA,NA,NA,""
"image-keyboard-response",298,249170,"0.0-3.95-2.95","vma0ny9rs49auco",604,"158.csv","","null","resources/images/fishbone.png","null","",NA,NA,NA,NA,""
"image-keyboard-response",299,249548,"0.0-3.96-0.96","vma0ny9rs49auco",604,"158.csv","","377","resources/trios/L2T1A3.jpg","37","restless",0.3,0.5,0.9,0.373281527369772,"false"
"image-keyboard-response",300,249950,"0.0-3.96-1.96","vma0ny9rs49auco",604,"158.csv","","null","resources/maskTrios/L2BB.jpg","null","",NA,NA,NA,NA,""
"image-keyboard-response",301,251154,"0.0-3.96-2.96","vma0ny9rs49auco",604,"158.csv","","null","resources/images/fishbone.png","null","",NA,NA,NA,NA,""
"image-keyboard-response",302,251524,"0.0-3.97-0.97","vma0ny9rs49auco",604,"158.csv","","368.9999999999709","resources/trios/L2T1A1.jpg","38","restless",0.3,0.5,0.9,0.53418092435576,"false"
"image-keyboard-response",303,251927,"0.0-3.97-1.97","vma0ny9rs49auco",604,"158.csv","","null","resources/maskTrios/BT1B.jpg","null","",NA,NA,NA,NA,""
"image-keyboard-response",304,253129,"0.0-3.97-2.97","vma0ny9rs49auco",604,"158.csv","","null","resources/images/fishbone.png","null","",NA,NA,NA,NA,""
"image-keyboard-response",305,253580,"0.0-3.98-0.98","vma0ny9rs49auco",604,"158.csv","","448.9999999999709","resources/trios/L1T4A3.jpg","39","restless",0.3,0.5,0.9,0.625441111886768,"true"
"image-keyboard-response",306,253981,"0.0-3.98-1.98","vma0ny9rs49auco",604,"158.csv","","null","resources/maskTrios/BBA3.jpg","null","",NA,NA,NA,NA,""
"image-keyboard-response",307,255183,"0.0-3.98-2.98","vma0ny9rs49auco",604,"158.csv","","null","resources/images/coin2.png","null","",NA,NA,NA,NA,""
"image-keyboard-response",308,255716,"0.0-3.99-0.99","vma0ny9rs49auco",604,"158.csv","","530.0000000000291","resources/trios/L2T1A1.jpg","39","restless",0.3,0.5,0.9,0.98024028317372,"false"
"image-keyboard-response",309,256119,"0.0-3.99-1.99","vma0ny9rs49auco",604,"158.csv","","null","resources/maskTrios/BBA1.jpg","null","",NA,NA,NA,NA,""
"image-keyboard-response",310,257321,"0.0-3.99-2.99","vma0ny9rs49auco",604,"158.csv","","null","resources/images/fishbone.png","null","",NA,NA,NA,NA,""
"image-keyboard-response",311,257648,"0.0-3.100-0.100","vma0ny9rs49auco",604,"158.csv","","327","resources/trios/L1T1A3.jpg","37","restless",0.3,0.5,0.9,0.388602794882959,"false"
"image-keyboard-response",312,258050,"0.0-3.100-1.100","vma0ny9rs49auco",604,"158.csv","","null","resources/maskTrios/L1BB.jpg","null","",NA,NA,NA,NA,""
"image-keyboard-response",313,259252,"0.0-3.100-2.100","vma0ny9rs49auco",604,"158.csv","","null","resources/images/fishbone.png","null","",NA,NA,NA,NA,""
"image-keyboard-response",314,259253,"0.0-3.101-0.101","vma0ny9rs49auco",604,"158.csv","","0","resources/trios/L1T1A3.jpg","38","restless",0.3,0.5,0.9,0.377838854351109,"true"
"image-keyboard-response",315,259656,"0.0-3.101-1.101","vma0ny9rs49auco",604,"158.csv","","null","resources/maskTrios/BT1B.jpg","null","",NA,NA,NA,NA,""
"image-keyboard-response",316,260858,"0.0-3.101-2.101","vma0ny9rs49auco",604,"158.csv","","null","resources/images/coin2.png","null","",NA,NA,NA,NA,""
"image-keyboard-response",317,261284,"0.0-3.102-0.102","vma0ny9rs49auco",604,"158.csv","","423","resources/trios/L2T4A3.jpg","38","restless",0.3,0.5,0.9,0.212955482346132,"true"
"image-keyboard-response",318,261687,"0.0-3.102-1.102","vma0ny9rs49auco",604,"158.csv","","null","resources/maskTrios/BT4B.jpg","null","",NA,NA,NA,NA,""
"image-keyboard-response",319,262892,"0.0-3.102-2.102","vma0ny9rs49auco",604,"158.csv","","null","resources/images/coin2.png","null","",NA,NA,NA,NA,""
"image-keyboard-response",320,263233,"0.0-3.103-0.103","vma0ny9rs49auco",604,"158.csv","","339.9999999999418","resources/trios/L2T4A3.jpg","38","restless",0.3,0.5,0.9,0.0617552345002249,"true"
"image-keyboard-response",321,263636,"0.0-3.103-1.103","vma0ny9rs49auco",604,"158.csv","","null","resources/maskTrios/BT4B.jpg","null","",NA,NA,NA,NA,""
"image-keyboard-response",322,264838,"0.0-3.103-2.103","vma0ny9rs49auco",604,"158.csv","","null","resources/images/coin2.png","null","",NA,NA,NA,NA,""
"image-keyboard-response",323,265148,"0.0-3.104-0.104","vma0ny9rs49auco",604,"158.csv","","309","resources/trios/L1T4A1.jpg","38","restless",0.3,0.5,0.9,0.0156462316496854,"true"
"image-keyboard-response",324,265550,"0.0-3.104-1.104","vma0ny9rs49auco",604,"158.csv","","null","resources/maskTrios/BT4B.jpg","null","",NA,NA,NA,NA,""
"image-keyboard-response",325,266753,"0.0-3.104-2.104","vma0ny9rs49auco",604,"158.csv","","null","resources/images/coin2.png","null","",NA,NA,NA,NA,""
"image-keyboard-response",326,267527,"0.0-3.105-0.105","vma0ny9rs49auco",604,"158.csv","","773","resources/trios/L2T4A1.jpg","38","restless",0.3,0.5,0.9,0.286250756660322,"true"
"image-keyboard-response",327,267929,"0.0-3.105-1.105","vma0ny9rs49auco",604,"158.csv","","null","resources/maskTrios/BT4B.jpg","null","",NA,NA,NA,NA,""
"image-keyboard-response",328,269132,"0.0-3.105-2.105","vma0ny9rs49auco",604,"158.csv","","null","resources/images/coin2.png","null","",NA,NA,NA,NA,""
"image-keyboard-response",329,269474,"0.0-3.106-0.106","vma0ny9rs49auco",604,"158.csv","","340","resources/trios/L2T1A3.jpg","38","restless",0.3,0.5,0.9,0.655477211014029,"false"
"image-keyboard-response",330,269877,"0.0-3.106-1.106","vma0ny9rs49auco",604,"158.csv","","null","resources/maskTrios/BT1B.jpg","null","",NA,NA,NA,NA,""
"image-keyboard-response",331,271078,"0.0-3.106-2.106","vma0ny9rs49auco",604,"158.csv","","null","resources/images/fishbone.png","null","",NA,NA,NA,NA,""
"image-keyboard-response",332,271402,"0.0-3.107-0.107","vma0ny9rs49auco",604,"158.csv","","323","resources/trios/L1T1A1.jpg","39","restless",0.3,0.5,0.8,0.508533836703734,"true"
"image-keyboard-response",333,271804,"0.0-3.107-1.107","vma0ny9rs49auco",604,"158.csv","","null","resources/maskTrios/BBA1.jpg","null","",NA,NA,NA,NA,""
"image-keyboard-response",334,273008,"0.0-3.107-2.107","vma0ny9rs49auco",604,"158.csv","","null","resources/images/coin2.png","null","",NA,NA,NA,NA,""
"image-keyboard-response",335,273304,"0.0-3.108-0.108","vma0ny9rs49auco",604,"158.csv","","294.0000000000582","resources/trios/L1T1A1.jpg","39","restless",0.3,0.5,0.8,0.583041676252857,"true"
"image-keyboard-response",336,273706,"0.0-3.108-1.108","vma0ny9rs49auco",604,"158.csv","","null","resources/maskTrios/BBA1.jpg","null","",NA,NA,NA,NA,""
"image-keyboard-response",337,274909,"0.0-3.108-2.108","vma0ny9rs49auco",604,"158.csv","","null","resources/images/coin2.png","null","",NA,NA,NA,NA,""
"image-keyboard-response",338,275281,"0.0-3.109-0.109","vma0ny9rs49auco",604,"158.csv","","370.0000000000582","resources/trios/L1T1A1.jpg","39","restless",0.3,0.5,0.8,0.193456290257589,"true"
"image-keyboard-response",339,275683,"0.0-3.109-1.109","vma0ny9rs49auco",604,"158.csv","","null","resources/maskTrios/BBA1.jpg","null","",NA,NA,NA,NA,""
"image-keyboard-response",340,276885,"0.0-3.109-2.109","vma0ny9rs49auco",604,"158.csv","","null","resources/images/coin2.png","null","",NA,NA,NA,NA,""
"image-keyboard-response",341,276992,"0.0-3.110-0.110","vma0ny9rs49auco",604,"158.csv","","105","resources/trios/L2T4A3.jpg","39","restless",0.3,0.5,0.7,0.403566400410998,"true"
"image-keyboard-response",342,277394,"0.0-3.110-1.110","vma0ny9rs49auco",604,"158.csv","","null","resources/maskTrios/BBA3.jpg","null","",NA,NA,NA,NA,""
"image-keyboard-response",343,278596,"0.0-3.110-2.110","vma0ny9rs49auco",604,"158.csv","","null","resources/images/coin2.png","null","",NA,NA,NA,NA,""
"image-keyboard-response",344,278994,"0.0-3.111-0.111","vma0ny9rs49auco",604,"158.csv","","397.0000000000582","resources/trios/L2T4A1.jpg","39","restless",0.3,0.5,0.7,0.258706082768344,"true"
"image-keyboard-response",345,279396,"0.0-3.111-1.111","vma0ny9rs49auco",604,"158.csv","","null","resources/maskTrios/BBA1.jpg","null","",NA,NA,NA,NA,""
"image-keyboard-response",346,280600,"0.0-3.111-2.111","vma0ny9rs49auco",604,"158.csv","","null","resources/images/coin2.png","null","",NA,NA,NA,NA,""
"image-keyboard-response",347,280969,"0.0-3.112-0.112","vma0ny9rs49auco",604,"158.csv","","368","resources/trios/L1T1A3.jpg","39","restless",0.3,0.5,0.7,0.213280051325909,"true"
"image-keyboard-response",348,281373,"0.0-3.112-1.112","vma0ny9rs49auco",604,"158.csv","","null","resources/maskTrios/BBA3.jpg","null","",NA,NA,NA,NA,""
"image-keyboard-response",349,282575,"0.0-3.112-2.112","vma0ny9rs49auco",604,"158.csv","","null","resources/images/coin2.png","null","",NA,NA,NA,NA,""
"image-keyboard-response",350,282927,"0.0-3.113-0.113","vma0ny9rs49auco",604,"158.csv","","351","resources/trios/L1T1A1.jpg","39","restless",0.3,0.5,0.7,0.997489677616058,"false"
"image-keyboard-response",351,283329,"0.0-3.113-1.113","vma0ny9rs49auco",604,"158.csv","","null","resources/maskTrios/BBA1.jpg","null","",NA,NA,NA,NA,""
"image-keyboard-response",352,284531,"0.0-3.113-2.113","vma0ny9rs49auco",604,"158.csv","","null","resources/images/fishbone.png","null","",NA,NA,NA,NA,""
"image-keyboard-response",353,284943,"0.0-3.114-0.114","vma0ny9rs49auco",604,"158.csv","","411","resources/trios/L1T4A1.jpg","37","restless",0.3,0.5,0.7,0.787160685045589,"false"
"image-keyboard-response",354,285346,"0.0-3.114-1.114","vma0ny9rs49auco",604,"158.csv","","null","resources/maskTrios/L1BB.jpg","null","",NA,NA,NA,NA,""
"image-keyboard-response",355,286547,"0.0-3.114-2.114","vma0ny9rs49auco",604,"158.csv","","null","resources/images/fishbone.png","null","",NA,NA,NA,NA,""
"image-keyboard-response",356,286915,"0.0-3.115-0.115","vma0ny9rs49auco",604,"158.csv","","367","resources/trios/L2T4A3.jpg","38","restless",0.3,0.4,0.7,0.296118603335464,"true"
"image-keyboard-response",357,287317,"0.0-3.115-1.115","vma0ny9rs49auco",604,"158.csv","","null","resources/maskTrios/BT4B.jpg","null","",NA,NA,NA,NA,""
"image-keyboard-response",358,288519,"0.0-3.115-2.115","vma0ny9rs49auco",604,"158.csv","","null","resources/images/coin2.png","null","",NA,NA,NA,NA,""
"image-keyboard-response",359,288892,"0.0-3.116-0.116","vma0ny9rs49auco",604,"158.csv","","371","resources/trios/L1T4A3.jpg","38","restless",0.3,0.4,0.7,0.014098984167034,"true"
"image-keyboard-response",360,289294,"0.0-3.116-1.116","vma0ny9rs49auco",604,"158.csv","","null","resources/maskTrios/BT4B.jpg","null","",NA,NA,NA,NA,""
"image-keyboard-response",361,290496,"0.0-3.116-2.116","vma0ny9rs49auco",604,"158.csv","","null","resources/images/coin2.png","null","",NA,NA,NA,NA,""
"image-keyboard-response",362,291007,"0.0-3.117-0.117","vma0ny9rs49auco",604,"158.csv","","507.0000000000582","resources/trios/L1T1A3.jpg","38","restless",0.3,0.4,0.7,0.840757372295465,"false"
"image-keyboard-response",363,291410,"0.0-3.117-1.117","vma0ny9rs49auco",604,"158.csv","","null","resources/maskTrios/BT1B.jpg","null","",NA,NA,NA,NA,""
"image-keyboard-response",364,292612,"0.0-3.117-2.117","vma0ny9rs49auco",604,"158.csv","","null","resources/images/fishbone.png","null","",NA,NA,NA,NA,""
"image-keyboard-response",365,293287,"0.0-3.118-0.118","vma0ny9rs49auco",604,"158.csv","","674","resources/trios/L1T1A3.jpg","37","restless",0.3,0.4,0.7,0.527880683338182,"false"
"image-keyboard-response",366,293689,"0.0-3.118-1.118","vma0ny9rs49auco",604,"158.csv","","null","resources/maskTrios/L1BB.jpg","null","",NA,NA,NA,NA,""
"image-keyboard-response",367,294891,"0.0-3.118-2.118","vma0ny9rs49auco",604,"158.csv","","null","resources/images/fishbone.png","null","",NA,NA,NA,NA,""
"image-keyboard-response",368,295428,"0.0-3.119-0.119","vma0ny9rs49auco",604,"158.csv","","534.9999999999418","resources/trios/L2T4A3.jpg","37","restless",0.3,0.3,0.7,0.911666832234945,"false"
"image-keyboard-response",369,295831,"0.0-3.119-1.119","vma0ny9rs49auco",604,"158.csv","","null","resources/maskTrios/L2BB.jpg","null","",NA,NA,NA,NA,""
"image-keyboard-response",370,297033,"0.0-3.119-2.119","vma0ny9rs49auco",604,"158.csv","","null","resources/images/fishbone.png","null","",NA,NA,NA,NA,""
"image-keyboard-response",371,297236,"0.0-3.120-0.120","vma0ny9rs49auco",604,"158.csv","","201","resources/trios/L1T4A3.jpg","38","restless",0.3,0.3,0.7,0.750225164581257,"false"
"image-keyboard-response",372,297638,"0.0-3.120-1.120","vma0ny9rs49auco",604,"158.csv","","null","resources/maskTrios/BT4B.jpg","null","",NA,NA,NA,NA,""
"image-keyboard-response",373,298840,"0.0-3.120-2.120","vma0ny9rs49auco",604,"158.csv","","null","resources/images/fishbone.png","null","",NA,NA,NA,NA,""
"image-keyboard-response",374,298841,"0.0-3.121-0.121","vma0ny9rs49auco",604,"158.csv","","0","resources/trios/L2T4A1.jpg","39","restless",0.2,0.3,0.7,0.00364739647749113,"true"
"image-keyboard-response",375,299243,"0.0-3.121-1.121","vma0ny9rs49auco",604,"158.csv","","null","resources/maskTrios/BBA1.jpg","null","",NA,NA,NA,NA,""
"image-keyboard-response",376,300445,"0.0-3.121-2.121","vma0ny9rs49auco",604,"158.csv","","null","resources/images/coin2.png","null","",NA,NA,NA,NA,""
"image-keyboard-response",377,300646,"0.0-3.122-0.122","vma0ny9rs49auco",604,"158.csv","","198","resources/trios/L2T1A1.jpg","39","restless",0.2,0.3,0.7,0.213779940386927,"true"
"image-keyboard-response",378,301048,"0.0-3.122-1.122","vma0ny9rs49auco",604,"158.csv","","null","resources/maskTrios/BBA1.jpg","null","",NA,NA,NA,NA,""
"image-keyboard-response",379,302250,"0.0-3.122-2.122","vma0ny9rs49auco",604,"158.csv","","null","resources/images/coin2.png","null","",NA,NA,NA,NA,""
"image-keyboard-response",380,302448,"0.0-3.123-0.123","vma0ny9rs49auco",604,"158.csv","","196","resources/trios/L1T4A1.jpg","39","restless",0.2,0.3,0.6,0.0516545914238201,"true"
"image-keyboard-response",381,302851,"0.0-3.123-1.123","vma0ny9rs49auco",604,"158.csv","","null","resources/maskTrios/BBA1.jpg","null","",NA,NA,NA,NA,""
"image-keyboard-response",382,304053,"0.0-3.123-2.123","vma0ny9rs49auco",604,"158.csv","","null","resources/images/coin2.png","null","",NA,NA,NA,NA,""
"image-keyboard-response",383,304114,"0.0-3.124-0.124","vma0ny9rs49auco",604,"158.csv","","60.99999999994179","resources/trios/L2T4A3.jpg","39","restless",0.2,0.3,0.6,0.152592104157853,"true"
"image-keyboard-response",384,304517,"0.0-3.124-1.124","vma0ny9rs49auco",604,"158.csv","","null","resources/maskTrios/BBA3.jpg","null","",NA,NA,NA,NA,""
"image-keyboard-response",385,305720,"0.0-3.124-2.124","vma0ny9rs49auco",604,"158.csv","","null","resources/images/coin2.png","null","",NA,NA,NA,NA,""
"image-keyboard-response",386,305812,"0.0-3.125-0.125","vma0ny9rs49auco",604,"158.csv","","91","resources/trios/L2T1A1.jpg","39","restless",0.2,0.3,0.6,0.388362619759618,"true"
"image-keyboard-response",387,306214,"0.0-3.125-1.125","vma0ny9rs49auco",604,"158.csv","","null","resources/maskTrios/BBA1.jpg","null","",NA,NA,NA,NA,""
"image-keyboard-response",388,307417,"0.0-3.125-2.125","vma0ny9rs49auco",604,"158.csv","","null","resources/images/coin2.png","null","",NA,NA,NA,NA,""
"image-keyboard-response",389,307744,"0.0-3.126-0.126","vma0ny9rs49auco",604,"158.csv","","323.0000000000582","resources/trios/L2T1A3.jpg","39","restless",0.2,0.3,0.6,0.206351652238099,"true"
"image-keyboard-response",390,308146,"0.0-3.126-1.126","vma0ny9rs49auco",604,"158.csv","","null","resources/maskTrios/BBA3.jpg","null","",NA,NA,NA,NA,""
"image-keyboard-response",391,309348,"0.0-3.126-2.126","vma0ny9rs49auco",604,"158.csv","","null","resources/images/coin2.png","null","",NA,NA,NA,NA,""
"image-keyboard-response",392,309699,"0.0-3.127-0.127","vma0ny9rs49auco",604,"158.csv","","349","resources/trios/L1T1A1.jpg","39","restless",0.3,0.3,0.6,0.64848280496624,"false"
"image-keyboard-response",393,310102,"0.0-3.127-1.127","vma0ny9rs49auco",604,"158.csv","","null","resources/maskTrios/BBA1.jpg","null","",NA,NA,NA,NA,""
"image-keyboard-response",394,311305,"0.0-3.127-2.127","vma0ny9rs49auco",604,"158.csv","","null","resources/images/fishbone.png","null","",NA,NA,NA,NA,""
"image-keyboard-response",395,311782,"0.0-3.128-0.128","vma0ny9rs49auco",604,"158.csv","","475","resources/trios/L1T4A1.jpg","38","restless",0.3,0.3,0.6,0.599528321795713,"false"
"image-keyboard-response",396,312184,"0.0-3.128-1.128","vma0ny9rs49auco",604,"158.csv","","null","resources/maskTrios/BT4B.jpg","null","",NA,NA,NA,NA,""
"image-keyboard-response",397,313387,"0.0-3.128-2.128","vma0ny9rs49auco",604,"158.csv","","null","resources/images/fishbone.png","null","",NA,NA,NA,NA,""
"image-keyboard-response",398,313899,"0.0-3.129-0.129","vma0ny9rs49auco",604,"158.csv","","511","resources/trios/L1T1A3.jpg","37","restless",0.3,0.3,0.6,0.839897167362971,"false"
"image-keyboard-response",399,314301,"0.0-3.129-1.129","vma0ny9rs49auco",604,"158.csv","","null","resources/maskTrios/L1BB.jpg","null","",NA,NA,NA,NA,""
"image-keyboard-response",400,315503,"0.0-3.129-2.129","vma0ny9rs49auco",604,"158.csv","","null","resources/images/fishbone.png","null","",NA,NA,NA,NA,""
"image-keyboard-response",401,315774,"0.0-3.130-0.130","vma0ny9rs49auco",604,"158.csv","","269","resources/trios/L2T1A3.jpg","37","restless",0.2,0.3,0.6,0.72880179755282,"false"
"image-keyboard-response",402,316176,"0.0-3.130-1.130","vma0ny9rs49auco",604,"158.csv","","null","resources/maskTrios/L2BB.jpg","null","",NA,NA,NA,NA,""
"image-keyboard-response",403,317378,"0.0-3.130-2.130","vma0ny9rs49auco",604,"158.csv","","null","resources/images/fishbone.png","null","",NA,NA,NA,NA,""
"image-keyboard-response",404,317592,"0.0-3.131-0.131","vma0ny9rs49auco",604,"158.csv","","212","resources/trios/L2T4A1.jpg","37","restless",0.2,0.3,0.6,0.467856966650991,"false"
"image-keyboard-response",405,317994,"0.0-3.131-1.131","vma0ny9rs49auco",604,"158.csv","","null","resources/maskTrios/L2BB.jpg","null","",NA,NA,NA,NA,""
"image-keyboard-response",406,319196,"0.0-3.131-2.131","vma0ny9rs49auco",604,"158.csv","","null","resources/images/fishbone.png","null","",NA,NA,NA,NA,""
"image-keyboard-response",407,319623,"0.0-3.132-0.132","vma0ny9rs49auco",604,"158.csv","","423","resources/trios/L2T1A3.jpg","37","restless",0.2,0.3,0.7,0.282108970435812,"false"
"image-keyboard-response",408,320025,"0.0-3.132-1.132","vma0ny9rs49auco",604,"158.csv","","null","resources/maskTrios/L2BB.jpg","null","",NA,NA,NA,NA,""
"image-keyboard-response",409,321227,"0.0-3.132-2.132","vma0ny9rs49auco",604,"158.csv","","null","resources/images/fishbone.png","null","",NA,NA,NA,NA,""
"image-keyboard-response",410,321934,"0.0-3.133-0.133","vma0ny9rs49auco",604,"158.csv","","705","resources/trios/L2T4A1.jpg","38","restless",0.2,0.3,0.7,0.900692198170233,"false"
"image-keyboard-response",411,322336,"0.0-3.133-1.133","vma0ny9rs49auco",604,"158.csv","","null","resources/maskTrios/BT4B.jpg","null","",NA,NA,NA,NA,""
"image-keyboard-response",412,323538,"0.0-3.133-2.133","vma0ny9rs49auco",604,"158.csv","","null","resources/images/fishbone.png","null","",NA,NA,NA,NA,""
"image-keyboard-response",413,323877,"0.0-3.134-0.134","vma0ny9rs49auco",604,"158.csv","","337","resources/trios/L2T1A1.jpg","39","restless",0.2,0.3,0.7,0.810848239289109,"false"
"image-keyboard-response",414,324279,"0.0-3.134-1.134","vma0ny9rs49auco",604,"158.csv","","null","resources/maskTrios/BBA1.jpg","null","",NA,NA,NA,NA,""
"image-keyboard-response",415,325481,"0.0-3.134-2.134","vma0ny9rs49auco",604,"158.csv","","null","resources/images/fishbone.png","null","",NA,NA,NA,NA,""
"image-keyboard-response",416,325657,"0.0-3.135-0.135","vma0ny9rs49auco",604,"158.csv","","174","resources/trios/L2T4A3.jpg","39","restless",0.2,0.3,0.6,0.896039449490674,"false"
"image-keyboard-response",417,326059,"0.0-3.135-1.135","vma0ny9rs49auco",604,"158.csv","","null","resources/maskTrios/BBA3.jpg","null","",NA,NA,NA,NA,""
"image-keyboard-response",418,327261,"0.0-3.135-2.135","vma0ny9rs49auco",604,"158.csv","","null","resources/images/fishbone.png","null","",NA,NA,NA,NA,""
"image-keyboard-response",419,327358,"0.0-3.136-0.136","vma0ny9rs49auco",604,"158.csv","","94","resources/trios/L1T4A3.jpg","39","restless",0.2,0.2,0.6,0.216791866337163,"true"
"image-keyboard-response",420,327760,"0.0-3.136-1.136","vma0ny9rs49auco",604,"158.csv","","null","resources/maskTrios/BBA3.jpg","null","",NA,NA,NA,NA,""
"image-keyboard-response",421,328963,"0.0-3.136-2.136","vma0ny9rs49auco",604,"158.csv","","null","resources/images/coin2.png","null","",NA,NA,NA,NA,""
"image-keyboard-response",422,329335,"0.0-3.137-0.137","vma0ny9rs49auco",604,"158.csv","","369","resources/trios/L1T4A1.jpg","39","restless",0.2,0.2,0.5,0.0401277481542993,"true"
"image-keyboard-response",423,329737,"0.0-3.137-1.137","vma0ny9rs49auco",604,"158.csv","","null","resources/maskTrios/BBA1.jpg","null","",NA,NA,NA,NA,""
"image-keyboard-response",424,330939,"0.0-3.137-2.137","vma0ny9rs49auco",604,"158.csv","","null","resources/images/coin2.png","null","",NA,NA,NA,NA,""
"image-keyboard-response",425,331217,"0.0-3.138-0.138","vma0ny9rs49auco",604,"158.csv","","276.9999999999418","resources/trios/L2T1A3.jpg","39","restless",0.2,0.2,0.5,0.838876685659208,"false"
"image-keyboard-response",426,331620,"0.0-3.138-1.138","vma0ny9rs49auco",604,"158.csv","","null","resources/maskTrios/BBA3.jpg","null","",NA,NA,NA,NA,""
"image-keyboard-response",427,332822,"0.0-3.138-2.138","vma0ny9rs49auco",604,"158.csv","","null","resources/images/fishbone.png","null","",NA,NA,NA,NA,""
"image-keyboard-response",428,333082,"0.0-3.139-0.139","vma0ny9rs49auco",604,"158.csv","","259","resources/trios/L2T4A3.jpg","37","restless",0.2,0.2,0.5,0.00231580208568483,"true"
"image-keyboard-response",429,333484,"0.0-3.139-1.139","vma0ny9rs49auco",604,"158.csv","","null","resources/maskTrios/L2BB.jpg","null","",NA,NA,NA,NA,""
"image-keyboard-response",430,334687,"0.0-3.139-2.139","vma0ny9rs49auco",604,"158.csv","","null","resources/images/coin2.png","null","",NA,NA,NA,NA,""
"image-keyboard-response",431,335068,"0.0-3.140-0.140","vma0ny9rs49auco",604,"158.csv","","381","resources/trios/L2T1A3.jpg","37","restless",0.2,0.2,0.5,0.261377926854739,"false"
"image-keyboard-response",432,335472,"0.0-3.140-1.140","vma0ny9rs49auco",604,"158.csv","","null","resources/maskTrios/L2BB.jpg","null","",NA,NA,NA,NA,""
"image-keyboard-response",433,336674,"0.0-3.140-2.140","vma0ny9rs49auco",604,"158.csv","","null","resources/images/fishbone.png","null","",NA,NA,NA,NA,""
"image-keyboard-response",434,337184,"0.0-3.141-0.141","vma0ny9rs49auco",604,"158.csv","","508","resources/trios/L2T1A3.jpg","38","restless",0.3,0.2,0.5,0.606759221328185,"false"
"image-keyboard-response",435,337586,"0.0-3.141-1.141","vma0ny9rs49auco",604,"158.csv","","null","resources/maskTrios/BT1B.jpg","null","",NA,NA,NA,NA,""
"image-keyboard-response",436,338788,"0.0-3.141-2.141","vma0ny9rs49auco",604,"158.csv","","null","resources/images/fishbone.png","null","",NA,NA,NA,NA,""
"image-keyboard-response",437,338903,"0.0-3.142-0.142","vma0ny9rs49auco",604,"158.csv","","113","resources/trios/L1T4A1.jpg","38","restless",0.4,0.2,0.5,0.844543662786327,"false"
"image-keyboard-response",438,339305,"0.0-3.142-1.142","vma0ny9rs49auco",604,"158.csv","","null","resources/maskTrios/BT4B.jpg","null","",NA,NA,NA,NA,""
"image-keyboard-response",439,340509,"0.0-3.142-2.142","vma0ny9rs49auco",604,"158.csv","","null","resources/images/fishbone.png","null","",NA,NA,NA,NA,""
"image-keyboard-response",440,340539,"0.0-3.143-0.143","vma0ny9rs49auco",604,"158.csv","","28","resources/trios/L1T4A3.jpg","39","restless",0.4,0.2,0.5,0.103407520754127,"true"
"image-keyboard-response",441,340941,"0.0-3.143-1.143","vma0ny9rs49auco",604,"158.csv","","null","resources/maskTrios/BBA3.jpg","null","",NA,NA,NA,NA,""
"image-keyboard-response",442,342144,"0.0-3.143-2.143","vma0ny9rs49auco",604,"158.csv","","null","resources/images/coin2.png","null","",NA,NA,NA,NA,""
"image-keyboard-response",443,342747,"0.0-3.144-0.144","vma0ny9rs49auco",604,"158.csv","","601","resources/trios/L1T4A1.jpg","39","restless",0.4,0.3,0.5,0.6871592824772,"false"
"image-keyboard-response",444,343149,"0.0-3.144-1.144","vma0ny9rs49auco",604,"158.csv","","null","resources/maskTrios/BBA1.jpg","null","",NA,NA,NA,NA,""
"image-keyboard-response",445,344351,"0.0-3.144-2.144","vma0ny9rs49auco",604,"158.csv","","null","resources/images/fishbone.png","null","",NA,NA,NA,NA,""
"image-keyboard-response",446,345078,"0.0-3.145-0.145","vma0ny9rs49auco",604,"158.csv","","726","resources/trios/L1T1A3.jpg","39","restless",0.4,0.4,0.5,0.768628017471159,"false"
"image-keyboard-response",447,345481,"0.0-3.145-1.145","vma0ny9rs49auco",604,"158.csv","","null","resources/maskTrios/BBA3.jpg","null","",NA,NA,NA,NA,""
"image-keyboard-response",448,346683,"0.0-3.145-2.145","vma0ny9rs49auco",604,"158.csv","","null","resources/images/fishbone.png","null","",NA,NA,NA,NA,""
"image-keyboard-response",449,346720,"0.0-3.146-0.146","vma0ny9rs49auco",604,"158.csv","","37","resources/trios/L1T1A1.jpg","39","restless",0.4,0.4,0.5,0.912642546012871,"false"
"image-keyboard-response",450,347122,"0.0-3.146-1.146","vma0ny9rs49auco",604,"158.csv","","null","resources/maskTrios/BBA1.jpg","null","",NA,NA,NA,NA,""
"image-keyboard-response",451,348324,"0.0-3.146-2.146","vma0ny9rs49auco",604,"158.csv","","null","resources/images/fishbone.png","null","",NA,NA,NA,NA,""
"image-keyboard-response",452,349770,"0.0-3.147-0.147","vma0ny9rs49auco",604,"158.csv","","1445","resources/trios/L2T1A1.jpg","39","restless",0.4,0.4,0.5,0.95590791157822,"false"
"image-keyboard-response",453,350174,"0.0-3.147-1.147","vma0ny9rs49auco",604,"158.csv","","null","resources/maskTrios/BBA1.jpg","null","",NA,NA,NA,NA,""
"image-keyboard-response",454,351376,"0.0-3.147-2.147","vma0ny9rs49auco",604,"158.csv","","null","resources/images/fishbone.png","null","",NA,NA,NA,NA,""
"image-keyboard-response",455,351546,"0.0-3.148-0.148","vma0ny9rs49auco",604,"158.csv","","169","resources/trios/L1T1A3.jpg","39","restless",0.4,0.4,0.5,0.553191393662604,"false"
"image-keyboard-response",456,351948,"0.0-3.148-1.148","vma0ny9rs49auco",604,"158.csv","","null","resources/maskTrios/BBA3.jpg","null","",NA,NA,NA,NA,""
"image-keyboard-response",457,353151,"0.0-3.148-2.148","vma0ny9rs49auco",604,"158.csv","","null","resources/images/fishbone.png","null","",NA,NA,NA,NA,""
"image-keyboard-response",458,353973,"0.0-3.149-0.149","vma0ny9rs49auco",604,"158.csv","","820","resources/trios/L2T4A3.jpg","37","restless",0.4,0.5,0.5,0.789288396246744,"false"
"image-keyboard-response",459,354375,"0.0-3.149-1.149","vma0ny9rs49auco",604,"158.csv","","null","resources/maskTrios/L2BB.jpg","null","",NA,NA,NA,NA,""
"image-keyboard-response",460,355578,"0.0-3.149-2.149","vma0ny9rs49auco",604,"158.csv","","null","resources/images/fishbone.png","null","",NA,NA,NA,NA,""
"image-keyboard-response",461,357586,"0.0-3.150-0.150","vma0ny9rs49auco",604,"158.csv","","2006","resources/trios/L1T4A1.jpg","38","restless",0.4,0.5,0.5,0.957324116692168,"false"
"image-keyboard-response",462,357987,"0.0-3.150-1.150","vma0ny9rs49auco",604,"158.csv","","null","resources/maskTrios/BT4B.jpg","null","",NA,NA,NA,NA,""
"image-keyboard-response",463,359189,"0.0-3.150-2.150","vma0ny9rs49auco",604,"158.csv","","null","resources/images/fishbone.png","null","",NA,NA,NA,NA,""
"image-keyboard-response",464,359596,"0.0-3.151-0.151","vma0ny9rs49auco",604,"158.csv","","405.9999999999418","resources/trios/L2T1A1.jpg","38","restless",0.4,0.5,0.5,0.2960688116066,"true"
"image-keyboard-response",465,359998,"0.0-3.151-1.151","vma0ny9rs49auco",604,"158.csv","","null","resources/maskTrios/BT1B.jpg","null","",NA,NA,NA,NA,""
"image-keyboard-response",466,361201,"0.0-3.151-2.151","vma0ny9rs49auco",604,"158.csv","","null","resources/images/coin2.png","null","",NA,NA,NA,NA,""
"image-keyboard-response",467,361489,"0.0-3.152-0.152","vma0ny9rs49auco",604,"158.csv","","286","resources/trios/L1T1A3.jpg","38","restless",0.4,0.5,0.6,0.279733950539232,"true"
"image-keyboard-response",468,361893,"0.0-3.152-1.152","vma0ny9rs49auco",604,"158.csv","","null","resources/maskTrios/BT1B.jpg","null","",NA,NA,NA,NA,""
"image-keyboard-response",469,363095,"0.0-3.152-2.152","vma0ny9rs49auco",604,"158.csv","","null","resources/images/coin2.png","null","",NA,NA,NA,NA,""
"image-keyboard-response",470,364142,"0.0-3.153-0.153","vma0ny9rs49auco",604,"158.csv","","1047.0000000000582","resources/trios/L2T1A3.jpg","38","restless",0.4,0.5,0.6,0.163310422073192,"true"
"image-keyboard-response",471,364544,"0.0-3.153-1.153","vma0ny9rs49auco",604,"158.csv","","null","resources/maskTrios/BT1B.jpg","null","",NA,NA,NA,NA,""
"image-keyboard-response",472,365746,"0.0-3.153-2.153","vma0ny9rs49auco",604,"158.csv","","null","resources/images/coin2.png","null","",NA,NA,NA,NA,""
"image-keyboard-response",473,425943,"0.0-3.154-0.154","vma0ny9rs49auco",604,"158.csv","","60196","resources/trios/L2T1A3.jpg","37","restless",0.4,0.5,0.6,0.862422348063198,"false"
"image-keyboard-response",474,426346,"0.0-3.154-1.154","vma0ny9rs49auco",604,"158.csv","","null","resources/maskTrios/L2BB.jpg","null","",NA,NA,NA,NA,""
"image-keyboard-response",475,427548,"0.0-3.154-2.154","vma0ny9rs49auco",604,"158.csv","","null","resources/images/fishbone.png","null","",NA,NA,NA,NA,""
"image-keyboard-response",476,427870,"0.0-3.155-0.155","vma0ny9rs49auco",604,"158.csv","","321","resources/trios/L1T4A3.jpg","38","restless",0.4,0.5,0.6,0.164961748251313,"true"
"image-keyboard-response",477,428273,"0.0-3.155-1.155","vma0ny9rs49auco",604,"158.csv","","null","resources/maskTrios/BT4B.jpg","null","",NA,NA,NA,NA,""
"image-keyboard-response",478,429475,"0.0-3.155-2.155","vma0ny9rs49auco",604,"158.csv","","null","resources/images/coin2.png","null","",NA,NA,NA,NA,""
"image-keyboard-response",479,429769,"0.0-3.156-0.156","vma0ny9rs49auco",604,"158.csv","","292","resources/trios/L2T1A3.jpg","38","restless",0.4,0.5,0.6,0.64511882393297,"false"
"image-keyboard-response",480,430171,"0.0-3.156-1.156","vma0ny9rs49auco",604,"158.csv","","null","resources/maskTrios/BT1B.jpg","null","",NA,NA,NA,NA,""
"image-keyboard-response",481,431374,"0.0-3.156-2.156","vma0ny9rs49auco",604,"158.csv","","null","resources/images/fishbone.png","null","",NA,NA,NA,NA,""
"image-keyboard-response",482,431518,"0.0-3.157-0.157","vma0ny9rs49auco",604,"158.csv","","142.9999999999418","resources/trios/L2T4A3.jpg","39","restless",0.4,0.5,0.6,0.0273475799673719,"true"
"image-keyboard-response",483,431921,"0.0-3.157-1.157","vma0ny9rs49auco",604,"158.csv","","null","resources/maskTrios/BBA3.jpg","null","",NA,NA,NA,NA,""
"image-keyboard-response",484,433123,"0.0-3.157-2.157","vma0ny9rs49auco",604,"158.csv","","null","resources/images/coin2.png","null","",NA,NA,NA,NA,""
"image-keyboard-response",485,433463,"0.0-3.158-0.158","vma0ny9rs49auco",604,"158.csv","","337.9999999999418","resources/trios/L1T4A1.jpg","39","restless",0.4,0.5,0.6,0.206560629130188,"true"
"image-keyboard-response",486,433865,"0.0-3.158-1.158","vma0ny9rs49auco",604,"158.csv","","null","resources/maskTrios/BBA1.jpg","null","",NA,NA,NA,NA,""
"image-keyboard-response",487,435067,"0.0-3.158-2.158","vma0ny9rs49auco",604,"158.csv","","null","resources/images/coin2.png","null","",NA,NA,NA,NA,""
"image-keyboard-response",488,435417,"0.0-3.159-0.159","vma0ny9rs49auco",604,"158.csv","","349","resources/trios/L2T4A1.jpg","39","restless",0.4,0.6,0.6,0.393311155492312,"true"
"image-keyboard-response",489,435819,"0.0-3.159-1.159","vma0ny9rs49auco",604,"158.csv","","null","resources/maskTrios/BBA1.jpg","null","",NA,NA,NA,NA,""
"image-keyboard-response",490,437022,"0.0-3.159-2.159","vma0ny9rs49auco",604,"158.csv","","null","resources/images/coin2.png","null","",NA,NA,NA,NA,""
"image-keyboard-response",491,437313,"0.0-3.160-0.160","vma0ny9rs49auco",604,"158.csv","","291","resources/trios/L2T4A3.jpg","39","restless",0.4,0.6,0.6,0.688627443612918,"false"
"image-keyboard-response",492,437715,"0.0-3.160-1.160","vma0ny9rs49auco",604,"158.csv","","null","resources/maskTrios/BBA3.jpg","null","",NA,NA,NA,NA,""
"image-keyboard-response",493,438918,"0.0-3.160-2.160","vma0ny9rs49auco",604,"158.csv","","null","resources/images/fishbone.png","null","",NA,NA,NA,NA,""
"image-keyboard-response",494,439235,"0.0-3.161-0.161","vma0ny9rs49auco",604,"158.csv","","316","resources/trios/L1T1A1.jpg","37","restless",0.4,0.6,0.6,0.560382548019607,"false"
"image-keyboard-response",495,439637,"0.0-3.161-1.161","vma0ny9rs49auco",604,"158.csv","","null","resources/maskTrios/L1BB.jpg","null","",NA,NA,NA,NA,""
"image-keyboard-response",496,440839,"0.0-3.161-2.161","vma0ny9rs49auco",604,"158.csv","","null","resources/images/fishbone.png","null","",NA,NA,NA,NA,""
"image-keyboard-response",497,441149,"0.0-3.162-0.162","vma0ny9rs49auco",604,"158.csv","","308.0000000000582","resources/trios/L1T1A1.jpg","37","restless",0.4,0.6,0.6,0.269284045223076,"true"
"image-keyboard-response",498,441551,"0.0-3.162-1.162","vma0ny9rs49auco",604,"158.csv","","null","resources/maskTrios/L1BB.jpg","null","",NA,NA,NA,NA,""
"image-keyboard-response",499,442753,"0.0-3.162-2.162","vma0ny9rs49auco",604,"158.csv","","null","resources/images/coin2.png","null","",NA,NA,NA,NA,""
"image-keyboard-response",500,443097,"0.0-3.163-0.163","vma0ny9rs49auco",604,"158.csv","","340","resources/trios/L1T1A1.jpg","37","restless",0.4,0.6,0.6,0.403968429672479,"false"
"image-keyboard-response",501,443499,"0.0-3.163-1.163","vma0ny9rs49auco",604,"158.csv","","null","resources/maskTrios/L1BB.jpg","null","",NA,NA,NA,NA,""
"image-keyboard-response",502,444702,"0.0-3.163-2.163","vma0ny9rs49auco",604,"158.csv","","null","resources/images/fishbone.png","null","",NA,NA,NA,NA,""
"image-keyboard-response",503,445288,"0.0-3.164-0.164","vma0ny9rs49auco",604,"158.csv","","584","resources/trios/L1T1A1.jpg","38","restless",0.4,0.6,0.6,0.355650720796793,"true"
"image-keyboard-response",504,445690,"0.0-3.164-1.164","vma0ny9rs49auco",604,"158.csv","","null","resources/maskTrios/BT1B.jpg","null","",NA,NA,NA,NA,""
"image-keyboard-response",505,446893,"0.0-3.164-2.164","vma0ny9rs49auco",604,"158.csv","","null","resources/images/coin2.png","null","",NA,NA,NA,NA,""
"image-keyboard-response",506,447211,"0.0-3.165-0.165","vma0ny9rs49auco",604,"158.csv","","316","resources/trios/L1T4A1.jpg","38","restless",0.4,0.6,0.6,0.665543489762854,"false"
"image-keyboard-response",507,447614,"0.0-3.165-1.165","vma0ny9rs49auco",604,"158.csv","","null","resources/maskTrios/BT4B.jpg","null","",NA,NA,NA,NA,""
"image-keyboard-response",508,448818,"0.0-3.165-2.165","vma0ny9rs49auco",604,"158.csv","","null","resources/images/fishbone.png","null","",NA,NA,NA,NA,""
"image-keyboard-response",509,449113,"0.0-3.166-0.166","vma0ny9rs49auco",604,"158.csv","","294.0000000000582","resources/trios/L2T4A1.jpg","38","restless",0.4,0.6,0.6,0.623053312821431,"false"
"image-keyboard-response",510,449514,"0.0-3.166-1.166","vma0ny9rs49auco",604,"158.csv","","null","resources/maskTrios/BT4B.jpg","null","",NA,NA,NA,NA,""
"image-keyboard-response",511,450717,"0.0-3.166-2.166","vma0ny9rs49auco",604,"158.csv","","null","resources/images/fishbone.png","null","",NA,NA,NA,NA,""
"image-keyboard-response",512,451171,"0.0-3.167-0.167","vma0ny9rs49auco",604,"158.csv","","453","resources/trios/L2T1A3.jpg","37","restless",0.4,0.6,0.6,0.254129116682441,"true"
"image-keyboard-response",513,451574,"0.0-3.167-1.167","vma0ny9rs49auco",604,"158.csv","","null","resources/maskTrios/L2BB.jpg","null","",NA,NA,NA,NA,""
"image-keyboard-response",514,452777,"0.0-3.167-2.167","vma0ny9rs49auco",604,"158.csv","","null","resources/images/coin2.png","null","",NA,NA,NA,NA,""
"image-keyboard-response",515,453048,"0.0-3.168-0.168","vma0ny9rs49auco",604,"158.csv","","270.0000000000582","resources/trios/L2T1A1.jpg","37","restless",0.4,0.5,0.6,0.694087063344236,"false"
"image-keyboard-response",516,453450,"0.0-3.168-1.168","vma0ny9rs49auco",604,"158.csv","","null","resources/maskTrios/L2BB.jpg","null","",NA,NA,NA,NA,""
"image-keyboard-response",517,454652,"0.0-3.168-2.168","vma0ny9rs49auco",604,"158.csv","","null","resources/images/fishbone.png","null","",NA,NA,NA,NA,""
"image-keyboard-response",518,454806,"0.0-3.169-0.169","vma0ny9rs49auco",604,"158.csv","","152.9999999999418","resources/trios/L1T1A1.jpg","37","restless",0.4,0.5,0.6,0.429302763246092,"false"
"image-keyboard-response",519,455208,"0.0-3.169-1.169","vma0ny9rs49auco",604,"158.csv","","null","resources/maskTrios/L1BB.jpg","null","",NA,NA,NA,NA,""
"image-keyboard-response",520,456410,"0.0-3.169-2.169","vma0ny9rs49auco",604,"158.csv","","null","resources/images/fishbone.png","null","",NA,NA,NA,NA,""
"image-keyboard-response",521,456897,"0.0-3.170-0.170","vma0ny9rs49auco",604,"158.csv","","483","resources/trios/L2T4A3.jpg","38","restless",0.5,0.5,0.6,0.615213589574042,"false"
"image-keyboard-response",522,457299,"0.0-3.170-1.170","vma0ny9rs49auco",604,"158.csv","","null","resources/maskTrios/BT4B.jpg","null","",NA,NA,NA,NA,""
"image-keyboard-response",523,458501,"0.0-3.170-2.170","vma0ny9rs49auco",604,"158.csv","","null","resources/images/fishbone.png","null","",NA,NA,NA,NA,""
"image-keyboard-response",524,458805,"0.0-3.171-0.171","vma0ny9rs49auco",604,"158.csv","","304","resources/trios/L2T1A1.jpg","39","restless",0.5,0.5,0.6,0.976149284469874,"false"
"image-keyboard-response",525,459207,"0.0-3.171-1.171","vma0ny9rs49auco",604,"158.csv","","null","resources/maskTrios/BBA1.jpg","null","",NA,NA,NA,NA,""
"image-keyboard-response",526,460410,"0.0-3.171-2.171","vma0ny9rs49auco",604,"158.csv","","null","resources/images/fishbone.png","null","",NA,NA,NA,NA,""
"image-keyboard-response",527,460668,"0.0-3.172-0.172","vma0ny9rs49auco",604,"158.csv","","256","resources/trios/L2T4A3.jpg","39","restless",0.5,0.5,0.6,0.765024467376877,"false"
"image-keyboard-response",528,461071,"0.0-3.172-1.172","vma0ny9rs49auco",604,"158.csv","","null","resources/maskTrios/BBA3.jpg","null","",NA,NA,NA,NA,""
"image-keyboard-response",529,462273,"0.0-3.172-2.172","vma0ny9rs49auco",604,"158.csv","","null","resources/images/fishbone.png","null","",NA,NA,NA,NA,""
"image-keyboard-response",530,462600,"0.0-3.173-0.173","vma0ny9rs49auco",604,"158.csv","","326.0000000000582","resources/trios/L1T4A1.jpg","39","restless",0.5,0.5,0.6,0.535683732251181,"true"
"image-keyboard-response",531,463002,"0.0-3.173-1.173","vma0ny9rs49auco",604,"158.csv","","null","resources/maskTrios/BBA1.jpg","null","",NA,NA,NA,NA,""
"image-keyboard-response",532,464205,"0.0-3.173-2.173","vma0ny9rs49auco",604,"158.csv","","null","resources/images/coin2.png","null","",NA,NA,NA,NA,""
"image-keyboard-response",533,464482,"0.0-3.174-0.174","vma0ny9rs49auco",604,"158.csv","","275","resources/trios/L1T4A1.jpg","38","restless",0.5,0.5,0.6,0.999434807225118,"false"
"image-keyboard-response",534,464884,"0.0-3.174-1.174","vma0ny9rs49auco",604,"158.csv","","null","resources/maskTrios/BT4B.jpg","null","",NA,NA,NA,NA,""
"image-keyboard-response",535,466087,"0.0-3.174-2.174","vma0ny9rs49auco",604,"158.csv","","null","resources/images/fishbone.png","null","",NA,NA,NA,NA,""
"image-keyboard-response",536,466522,"0.0-3.175-0.175","vma0ny9rs49auco",604,"158.csv","","432.9999999999418","resources/trios/L1T4A3.jpg","38","restless",0.5,0.5,0.5,0.859970294984613,"false"
"image-keyboard-response",537,466924,"0.0-3.175-1.175","vma0ny9rs49auco",604,"158.csv","","null","resources/maskTrios/BT4B.jpg","null","",NA,NA,NA,NA,""
"image-keyboard-response",538,468126,"0.0-3.175-2.175","vma0ny9rs49auco",604,"158.csv","","null","resources/images/fishbone.png","null","",NA,NA,NA,NA,""
"image-keyboard-response",539,468459,"0.0-3.176-0.176","vma0ny9rs49auco",604,"158.csv","","332","resources/trios/L2T4A3.jpg","37","restless",0.5,0.5,0.5,0.791283789251185,"false"
"image-keyboard-response",540,468862,"0.0-3.176-1.176","vma0ny9rs49auco",604,"158.csv","","null","resources/maskTrios/L2BB.jpg","null","",NA,NA,NA,NA,""
"image-keyboard-response",541,470064,"0.0-3.176-2.176","vma0ny9rs49auco",604,"158.csv","","null","resources/images/fishbone.png","null","",NA,NA,NA,NA,""
"image-keyboard-response",542,470349,"0.0-3.177-0.177","vma0ny9rs49auco",604,"158.csv","","284","resources/trios/L2T4A1.jpg","39","restless",0.5,0.5,0.5,0.703429925893915,"false"
"image-keyboard-response",543,470751,"0.0-3.177-1.177","vma0ny9rs49auco",604,"158.csv","","null","resources/maskTrios/BBA1.jpg","null","",NA,NA,NA,NA,""
"image-keyboard-response",544,471953,"0.0-3.177-2.177","vma0ny9rs49auco",604,"158.csv","","null","resources/images/fishbone.png","null","",NA,NA,NA,NA,""
"image-keyboard-response",545,472009,"0.0-3.178-0.178","vma0ny9rs49auco",604,"158.csv","","55","resources/trios/L2T1A3.jpg","38","restless",0.5,0.5,0.5,0.287672060824438,"true"
"image-keyboard-response",546,472412,"0.0-3.178-1.178","vma0ny9rs49auco",604,"158.csv","","null","resources/maskTrios/BT1B.jpg","null","",NA,NA,NA,NA,""
"image-keyboard-response",547,473614,"0.0-3.178-2.178","vma0ny9rs49auco",604,"158.csv","","null","resources/images/coin2.png","null","",NA,NA,NA,NA,""
"image-keyboard-response",548,474067,"0.0-3.179-0.179","vma0ny9rs49auco",604,"158.csv","","449.9999999999418","resources/trios/L1T4A1.jpg","38","restless",0.5,0.5,0.5,0.0211828627603285,"true"
"image-keyboard-response",549,474469,"0.0-3.179-1.179","vma0ny9rs49auco",604,"158.csv","","null","resources/maskTrios/BT4B.jpg","null","",NA,NA,NA,NA,""
"image-keyboard-response",550,475672,"0.0-3.179-2.179","vma0ny9rs49auco",604,"158.csv","","null","resources/images/coin2.png","null","",NA,NA,NA,NA,""
"image-keyboard-response",551,475887,"0.0-3.180-0.180","vma0ny9rs49auco",604,"158.csv","","213","resources/trios/L2T1A1.jpg","38","restless",0.5,0.5,0.5,0.63083858158275,"false"
"image-keyboard-response",552,476290,"0.0-3.180-1.180","vma0ny9rs49auco",604,"158.csv","","null","resources/maskTrios/BT1B.jpg","null","",NA,NA,NA,NA,""
"image-keyboard-response",553,477490,"0.0-3.180-2.180","vma0ny9rs49auco",604,"158.csv","","null","resources/images/fishbone.png","null","",NA,NA,NA,NA,""
"image-keyboard-response",554,477612,"0.0-3.181-0.181","vma0ny9rs49auco",604,"158.csv","","120","resources/trios/L1T1A3.jpg","37","restless",0.5,0.5,0.5,0.116747602822016,"true"
"image-keyboard-response",555,478014,"0.0-3.181-1.181","vma0ny9rs49auco",604,"158.csv","","null","resources/maskTrios/L1BB.jpg","null","",NA,NA,NA,NA,""
"image-keyboard-response",556,479218,"0.0-3.181-2.181","vma0ny9rs49auco",604,"158.csv","","null","resources/images/coin2.png","null","",NA,NA,NA,NA,""
"image-keyboard-response",557,479390,"0.0-3.182-0.182","vma0ny9rs49auco",604,"158.csv","","170","resources/trios/L1T4A1.jpg","37","restless",0.5,0.6,0.5,0.404966825239068,"true"
"image-keyboard-response",558,479793,"0.0-3.182-1.182","vma0ny9rs49auco",604,"158.csv","","null","resources/maskTrios/L1BB.jpg","null","",NA,NA,NA,NA,""
"image-keyboard-response",559,480995,"0.0-3.182-2.182","vma0ny9rs49auco",604,"158.csv","","null","resources/images/coin2.png","null","",NA,NA,NA,NA,""
"image-keyboard-response",560,481093,"0.0-3.183-0.183","vma0ny9rs49auco",604,"158.csv","","97","resources/trios/L1T1A1.jpg","37","restless",0.5,0.6,0.5,0.133257657154805,"true"
"image-keyboard-response",561,481495,"0.0-3.183-1.183","vma0ny9rs49auco",604,"158.csv","","null","resources/maskTrios/L1BB.jpg","null","",NA,NA,NA,NA,""
"image-keyboard-response",562,482698,"0.0-3.183-2.183","vma0ny9rs49auco",604,"158.csv","","null","resources/images/coin2.png","null","",NA,NA,NA,NA,""
"image-keyboard-response",563,483990,"0.0-3.184-0.184","vma0ny9rs49auco",604,"158.csv","","1291","resources/trios/L1T4A1.jpg","39","restless",0.5,0.6,0.5,0.271948796245665,"true"
"image-keyboard-response",564,484392,"0.0-3.184-1.184","vma0ny9rs49auco",604,"158.csv","","null","resources/maskTrios/BBA1.jpg","null","",NA,NA,NA,NA,""
"image-keyboard-response",565,485595,"0.0-3.184-2.184","vma0ny9rs49auco",604,"158.csv","","null","resources/images/coin2.png","null","",NA,NA,NA,NA,""
"image-keyboard-response",566,485792,"0.0-3.185-0.185","vma0ny9rs49auco",604,"158.csv","","197","resources/trios/L2T1A1.jpg","39","restless",0.5,0.5,0.5,0.430874190546494,"true"
"image-keyboard-response",567,486195,"0.0-3.185-1.185","vma0ny9rs49auco",604,"158.csv","","null","resources/maskTrios/BBA1.jpg","null","",NA,NA,NA,NA,""
"image-keyboard-response",568,487397,"0.0-3.185-2.185","vma0ny9rs49auco",604,"158.csv","","null","resources/images/coin2.png","null","",NA,NA,NA,NA,""
"image-keyboard-response",569,487725,"0.0-3.186-0.186","vma0ny9rs49auco",604,"158.csv","","327","resources/trios/L2T4A1.jpg","39","restless",0.5,0.5,0.5,0.0292482780389578,"true"
"image-keyboard-response",570,488127,"0.0-3.186-1.186","vma0ny9rs49auco",604,"158.csv","","null","resources/maskTrios/BBA1.jpg","null","",NA,NA,NA,NA,""
"image-keyboard-response",571,489330,"0.0-3.186-2.186","vma0ny9rs49auco",604,"158.csv","","null","resources/images/coin2.png","null","",NA,NA,NA,NA,""
"image-keyboard-response",572,489448,"0.0-3.187-0.187","vma0ny9rs49auco",604,"158.csv","","117","resources/trios/L1T4A3.jpg","39","restless",0.4,0.5,0.4,0.831468863225594,"false"
"image-keyboard-response",573,489851,"0.0-3.187-1.187","vma0ny9rs49auco",604,"158.csv","","null","resources/maskTrios/BBA3.jpg","null","",NA,NA,NA,NA,""
"image-keyboard-response",574,491053,"0.0-3.187-2.187","vma0ny9rs49auco",604,"158.csv","","null","resources/images/fishbone.png","null","",NA,NA,NA,NA,""
"image-keyboard-response",575,491394,"0.0-3.188-0.188","vma0ny9rs49auco",604,"158.csv","","339","resources/trios/L1T1A1.jpg","39","restless",0.4,0.5,0.4,0.740710090774529,"false"
"image-keyboard-response",576,491795,"0.0-3.188-1.188","vma0ny9rs49auco",604,"158.csv","","null","resources/maskTrios/BBA1.jpg","null","",NA,NA,NA,NA,""
"image-keyboard-response",577,492997,"0.0-3.188-2.188","vma0ny9rs49auco",604,"158.csv","","null","resources/images/fishbone.png","null","",NA,NA,NA,NA,""
"image-keyboard-response",578,493678,"0.0-3.189-0.189","vma0ny9rs49auco",604,"158.csv","","678.9999999999418","resources/trios/L1T4A1.jpg","38","restless",0.4,0.5,0.4,0.736366292825731,"false"
"image-keyboard-response",579,494080,"0.0-3.189-1.189","vma0ny9rs49auco",604,"158.csv","","null","resources/maskTrios/BT4B.jpg","null","",NA,NA,NA,NA,""
"image-keyboard-response",580,495282,"0.0-3.189-2.189","vma0ny9rs49auco",604,"158.csv","","null","resources/images/fishbone.png","null","",NA,NA,NA,NA,""
"image-keyboard-response",581,495913,"0.0-3.190-0.190","vma0ny9rs49auco",604,"158.csv","","630","resources/trios/L1T4A3.jpg","38","restless",0.4,0.5,0.4,0.575369576922789,"false"
"image-keyboard-response",582,496316,"0.0-3.190-1.190","vma0ny9rs49auco",604,"158.csv","","null","resources/maskTrios/BT4B.jpg","null","",NA,NA,NA,NA,""
"image-keyboard-response",583,497518,"0.0-3.190-2.190","vma0ny9rs49auco",604,"158.csv","","null","resources/images/fishbone.png","null","",NA,NA,NA,NA,""
"image-keyboard-response",584,497977,"0.0-3.191-0.191","vma0ny9rs49auco",604,"158.csv","","456","resources/trios/L1T4A3.jpg","37","restless",0.4,0.5,0.4,0.410156338107331,"false"
"image-keyboard-response",585,498379,"0.0-3.191-1.191","vma0ny9rs49auco",604,"158.csv","","null","resources/maskTrios/L1BB.jpg","null","",NA,NA,NA,NA,""
"image-keyboard-response",586,499582,"0.0-3.191-2.191","vma0ny9rs49auco",604,"158.csv","","null","resources/images/fishbone.png","null","",NA,NA,NA,NA,""
"image-keyboard-response",587,499916,"0.0-3.192-0.192","vma0ny9rs49auco",604,"158.csv","","332","resources/trios/L2T4A1.jpg","39","restless",0.4,0.5,0.4,0.666248224364932,"false"
"image-keyboard-response",588,500318,"0.0-3.192-1.192","vma0ny9rs49auco",604,"158.csv","","null","resources/maskTrios/BBA1.jpg","null","",NA,NA,NA,NA,""
"image-keyboard-response",589,501519,"0.0-3.192-2.192","vma0ny9rs49auco",604,"158.csv","","null","resources/images/fishbone.png","null","",NA,NA,NA,NA,""
"image-keyboard-response",590,501861,"0.0-3.193-0.193","vma0ny9rs49auco",604,"158.csv","","339","resources/trios/L2T1A3.jpg","37","restless",0.4,0.5,0.4,0.893823175464966,"false"
"image-keyboard-response",591,502263,"0.0-3.193-1.193","vma0ny9rs49auco",604,"158.csv","","null","resources/maskTrios/L2BB.jpg","null","",NA,NA,NA,NA,""
"image-keyboard-response",592,503466,"0.0-3.193-2.193","vma0ny9rs49auco",604,"158.csv","","null","resources/images/fishbone.png","null","",NA,NA,NA,NA,""
"image-keyboard-response",593,503572,"0.0-3.194-0.194","vma0ny9rs49auco",604,"158.csv","","105","resources/trios/L1T4A3.jpg","38","restless",0.4,0.5,0.4,0.85719775067719,"false"
"image-keyboard-response",594,503974,"0.0-3.194-1.194","vma0ny9rs49auco",604,"158.csv","","null","resources/maskTrios/BT4B.jpg","null","",NA,NA,NA,NA,""
"image-keyboard-response",595,505178,"0.0-3.194-2.194","vma0ny9rs49auco",604,"158.csv","","null","resources/images/fishbone.png","null","",NA,NA,NA,NA,""
"image-keyboard-response",596,505408,"0.0-3.195-0.195","vma0ny9rs49auco",604,"158.csv","","228","resources/trios/L2T1A3.jpg","38","restless",0.4,0.5,0.4,0.212955583042978,"true"
"image-keyboard-response",597,505810,"0.0-3.195-1.195","vma0ny9rs49auco",604,"158.csv","","null","resources/maskTrios/BT1B.jpg","null","",NA,NA,NA,NA,""
"image-keyboard-response",598,507012,"0.0-3.195-2.195","vma0ny9rs49auco",604,"158.csv","","null","resources/images/coin2.png","null","",NA,NA,NA,NA,""
"image-keyboard-response",599,507257,"0.0-3.196-0.196","vma0ny9rs49auco",604,"158.csv","","243.0000000000582","resources/trios/L2T1A1.jpg","38","restless",0.3,0.5,0.4,0.731235167896926,"false"
"image-keyboard-response",600,507660,"0.0-3.196-1.196","vma0ny9rs49auco",604,"158.csv","","null","resources/maskTrios/BT1B.jpg","null","",NA,NA,NA,NA,""
"image-keyboard-response",601,508862,"0.0-3.196-2.196","vma0ny9rs49auco",604,"158.csv","","null","resources/images/fishbone.png","null","",NA,NA,NA,NA,""
"image-keyboard-response",602,509206,"0.0-3.197-0.197","vma0ny9rs49auco",604,"158.csv","","343","resources/trios/L1T1A1.jpg","38","restless",0.3,0.5,0.4,0.441000765904652,"true"
"image-keyboard-response",603,509609,"0.0-3.197-1.197","vma0ny9rs49auco",604,"158.csv","","null","resources/maskTrios/BT1B.jpg","null","",NA,NA,NA,NA,""
"image-keyboard-response",604,510813,"0.0-3.197-2.197","vma0ny9rs49auco",604,"158.csv","","null","resources/images/coin2.png","null","",NA,NA,NA,NA,""
"image-keyboard-response",605,511045,"0.0-3.198-0.198","vma0ny9rs49auco",604,"158.csv","","230","resources/trios/L2T4A1.jpg","38","restless",0.3,0.5,0.4,0.323159056036349,"true"
"image-keyboard-response",606,511447,"0.0-3.198-1.198","vma0ny9rs49auco",604,"158.csv","","null","resources/maskTrios/BT4B.jpg","null","",NA,NA,NA,NA,""
"image-keyboard-response",607,512649,"0.0-3.198-2.198","vma0ny9rs49auco",604,"158.csv","","null","resources/images/coin2.png","null","",NA,NA,NA,NA,""
"image-keyboard-response",608,513314,"0.0-3.199-0.199","vma0ny9rs49auco",604,"158.csv","","663.0000000000582","resources/trios/L1T4A1.jpg","38","restless",0.3,0.5,0.4,0.929743906719771,"false"
"image-keyboard-response",609,513716,"0.0-3.199-1.199","vma0ny9rs49auco",604,"158.csv","","null","resources/maskTrios/BT4B.jpg","null","",NA,NA,NA,NA,""
"image-keyboard-response",610,514919,"0.0-3.199-2.199","vma0ny9rs49auco",604,"158.csv","","null","resources/images/fishbone.png","null","",NA,NA,NA,NA,""
"image-keyboard-response",611,515031,"0.0-3.200-0.200","vma0ny9rs49auco",604,"158.csv","","111","resources/trios/L2T1A3.jpg","38","restless",0.3,0.5,0.4,0.859597807782593,"false"
"image-keyboard-response",612,515433,"0.0-3.200-1.200","vma0ny9rs49auco",604,"158.csv","","null","resources/maskTrios/BT1B.jpg","null","",NA,NA,NA,NA,""
"image-keyboard-response",613,516635,"0.0-3.200-2.200","vma0ny9rs49auco",604,"158.csv","","null","resources/images/fishbone.png","null","",NA,NA,NA,NA,""
"image-keyboard-response",614,516968,"0.0-3.201-0.201","vma0ny9rs49auco",604,"158.csv","","330.0000000000582","resources/trios/L1T4A1.jpg","37","restless",0.3,0.5,0.4,0.465549654825654,"false"
"image-keyboard-response",615,517370,"0.0-3.201-1.201","vma0ny9rs49auco",604,"158.csv","","null","resources/maskTrios/L1BB.jpg","null","",NA,NA,NA,NA,""
"image-keyboard-response",616,518573,"0.0-3.201-2.201","vma0ny9rs49auco",604,"158.csv","","null","resources/images/fishbone.png","null","",NA,NA,NA,NA,""
