"trial_type","trial_index","time_elapsed","internal_node_id","subject","participantCode","walkNumber","success","rt","stimulus","key_press","test_part","leftProb","midProb","rightProb","generatedNum","correct"
"pavlovia",0,1364,"0.0-0.0","4st023uov0910ze",353,"125.csv","","","","","",NA,NA,NA,NA,""
"fullscreen",1,6817,"0.0-1.0","4st023uov0910ze",353,"125.csv","true","","","","",NA,NA,NA,NA,""
"html-keyboard-response",2,16504,"0.0-2.0-0.0","4st023uov0910ze",353,"125.csv","","9685.699999988079","<p><font size='6'>Arrrgh!</p></font><p>Can you be the best pirate? Try to find lots of gold! But beware, some islands have more gold than others, and over time, the island with the most gold may change. Can YOU figure it out? </p><font size='6'>GOOD LUCK, CAPTAIN!!!</font><p>Press any key to begin</p>","32","",NA,NA,NA,NA,""
"image-keyboard-response",3,19505,"0.0-2.0-1.0","4st023uov0910ze",353,"125.csv","","null","resources/image_sets/111.png","null","",NA,NA,NA,NA,""
"image-keyboard-response",4,27513,"0.0-2.0-2.0","4st023uov0910ze",353,"125.csv","","8008","resources/image_sets/left_highlight.png","37","",NA,NA,NA,NA,""
"image-keyboard-response",5,28610,"0.0-2.0-3.0","4st023uov0910ze",353,"125.csv","","1096.5","resources/image_sets/mid_highlight.png","38","",NA,NA,NA,NA,""
"image-keyboard-response",6,30832,"0.0-2.0-4.0","4st023uov0910ze",353,"125.csv","","2219.899999976158","resources/image_sets/right_highlight.png","39","",NA,NA,NA,NA,""
"image-keyboard-response",7,32998,"0.0-2.0-5.0","4st023uov0910ze",353,"125.csv","","2165.9000000059605","resources/image_sets/111.png","13","",NA,NA,NA,NA,""
"image-keyboard-response",8,35629,"0.0-2.0-6.0","4st023uov0910ze",353,"125.csv","","2630.699999988079","resources/images/coin2.png","13","",NA,NA,NA,NA,""
"image-keyboard-response",9,37846,"0.0-2.0-7.0","4st023uov0910ze",353,"125.csv","","2216.9000000059605","resources/images/fishbone.png","13","",NA,NA,NA,NA,""
"html-keyboard-response",10,47260,"0.0-2.0-8.0","4st023uov0910ze",353,"125.csv","","9413.300000011921","<p>Your first journey will be a long one, but you will get a well deserved break at the end</p><p>After the break you will have four more journeys, but each will be much shorter than the first, and you will have breaks in between each</p><p>Press Enter to begin</p>","13","",NA,NA,NA,NA,""
"image-keyboard-response",11,48899,"0.0-3.0-0.0","4st023uov0910ze",353,"125.csv","","1638.4000000059605","resources/trios/L4T1A3.jpg","37","restless",0.7,0.3,0.9,0.479571659037557,"true"
"image-keyboard-response",12,49303,"0.0-3.0-1.0","4st023uov0910ze",353,"125.csv","","null","resources/maskTrios/L4BB.jpg","null","",NA,NA,NA,NA,""
"image-keyboard-response",13,50513,"0.0-3.0-2.0","4st023uov0910ze",353,"125.csv","","null","resources/images/coin2.png","null","",NA,NA,NA,NA,""
"image-keyboard-response",14,53524,"0.0-3.1-0.1","4st023uov0910ze",353,"125.csv","","3010.600000023842","resources/trios/L4T2A2.jpg","38","restless",0.7,0.3,0.8,0.350312362011729,"false"
"image-keyboard-response",15,53928,"0.0-3.1-1.1","4st023uov0910ze",353,"125.csv","","null","resources/maskTrios/BT2B.jpg","null","",NA,NA,NA,NA,""
"image-keyboard-response",16,55138,"0.0-3.1-2.1","4st023uov0910ze",353,"125.csv","","null","resources/images/fishbone.png","null","",NA,NA,NA,NA,""
"image-keyboard-response",17,58608,"0.0-3.2-0.2","4st023uov0910ze",353,"125.csv","","3467.2999999821186","resources/trios/L2T2A3.jpg","37","restless",0.7,0.3,0.8,0.851103196406666,"false"
"image-keyboard-response",18,59011,"0.0-3.2-1.2","4st023uov0910ze",353,"125.csv","","null","resources/maskTrios/L2BB.jpg","null","",NA,NA,NA,NA,""
"image-keyboard-response",19,60215,"0.0-3.2-2.2","4st023uov0910ze",353,"125.csv","","null","resources/images/fishbone.png","null","",NA,NA,NA,NA,""
"image-keyboard-response",20,61428,"0.0-3.3-0.3","4st023uov0910ze",353,"125.csv","","1211.7000000178814","resources/trios/L4T1A3.jpg","38","restless",0.7,0.3,0.8,0.0759673769293081,"true"
"image-keyboard-response",21,61844,"0.0-3.3-1.3","4st023uov0910ze",353,"125.csv","","null","resources/maskTrios/BT1B.jpg","null","",NA,NA,NA,NA,""
"image-keyboard-response",22,63053,"0.0-3.3-2.3","4st023uov0910ze",353,"125.csv","","null","resources/images/coin2.png","null","",NA,NA,NA,NA,""
"image-keyboard-response",23,65179,"0.0-3.4-0.4","4st023uov0910ze",353,"125.csv","","2125","resources/trios/L4T1A2.jpg","38","restless",0.8,0.3,0.8,0.503634451966703,"false"
"image-keyboard-response",24,65583,"0.0-3.4-1.4","4st023uov0910ze",353,"125.csv","","null","resources/maskTrios/BT1B.jpg","null","",NA,NA,NA,NA,""
"image-keyboard-response",25,66791,"0.0-3.4-2.4","4st023uov0910ze",353,"125.csv","","null","resources/images/fishbone.png","null","",NA,NA,NA,NA,""
"image-keyboard-response",26,67364,"0.0-3.5-0.5","4st023uov0910ze",353,"125.csv","","572.2000000178814","resources/trios/L2T2A2.jpg","39","restless",0.8,0.2,0.8,0.381630105827106,"true"
"image-keyboard-response",27,67769,"0.0-3.5-1.5","4st023uov0910ze",353,"125.csv","","null","resources/maskTrios/BBA2.jpg","null","",NA,NA,NA,NA,""
"image-keyboard-response",28,68979,"0.0-3.5-2.5","4st023uov0910ze",353,"125.csv","","null","resources/images/coin2.png","null","",NA,NA,NA,NA,""
"image-keyboard-response",29,70155,"0.0-3.6-0.6","4st023uov0910ze",353,"125.csv","","1175.4000000059605","resources/trios/L2T1A2.jpg","37","restless",0.8,0.2,0.8,0.241078937984296,"true"
"image-keyboard-response",30,70570,"0.0-3.6-1.6","4st023uov0910ze",353,"125.csv","","null","resources/maskTrios/L2BB.jpg","null","",NA,NA,NA,NA,""
"image-keyboard-response",31,71774,"0.0-3.6-2.6","4st023uov0910ze",353,"125.csv","","null","resources/images/coin2.png","null","",NA,NA,NA,NA,""
"image-keyboard-response",32,72899,"0.0-3.7-0.7","4st023uov0910ze",353,"125.csv","","1124.7000000178814","resources/trios/L2T1A3.jpg","38","restless",0.8,0.1,0.8,0.963555225093109,"false"
"image-keyboard-response",33,73307,"0.0-3.7-1.7","4st023uov0910ze",353,"125.csv","","null","resources/maskTrios/BT1B.jpg","null","",NA,NA,NA,NA,""
"image-keyboard-response",34,74518,"0.0-3.7-2.7","4st023uov0910ze",353,"125.csv","","null","resources/images/fishbone.png","null","",NA,NA,NA,NA,""
"image-keyboard-response",35,74773,"0.0-3.8-0.8","4st023uov0910ze",353,"125.csv","","252.7000000178814","resources/trios/L4T1A2.jpg","38","restless",0.8,0.1,0.7,0.255397893945156,"false"
"image-keyboard-response",36,75184,"0.0-3.8-1.8","4st023uov0910ze",353,"125.csv","","null","resources/maskTrios/BT1B.jpg","null","",NA,NA,NA,NA,""
"image-keyboard-response",37,76392,"0.0-3.8-2.8","4st023uov0910ze",353,"125.csv","","null","resources/images/fishbone.png","null","",NA,NA,NA,NA,""
"image-keyboard-response",38,76444,"0.0-3.9-0.9","4st023uov0910ze",353,"125.csv","","49.900000005960464","resources/trios/L4T1A2.jpg","39","restless",0.7,0.1,0.7,0.612170663354737,"true"
"image-keyboard-response",39,76855,"0.0-3.9-1.9","4st023uov0910ze",353,"125.csv","","null","resources/maskTrios/BBA2.jpg","null","",NA,NA,NA,NA,""
"image-keyboard-response",40,78060,"0.0-3.9-2.9","4st023uov0910ze",353,"125.csv","","null","resources/images/coin2.png","null","",NA,NA,NA,NA,""
"image-keyboard-response",41,80854,"0.0-3.10-0.10","4st023uov0910ze",353,"125.csv","","2791.600000023842","resources/trios/L4T2A3.jpg","38","restless",0.7,0.1,0.7,0.274174315581288,"false"
"image-keyboard-response",42,81260,"0.0-3.10-1.10","4st023uov0910ze",353,"125.csv","","null","resources/maskTrios/BT2B.jpg","null","",NA,NA,NA,NA,""
"image-keyboard-response",43,82471,"0.0-3.10-2.10","4st023uov0910ze",353,"125.csv","","null","resources/images/fishbone.png","null","",NA,NA,NA,NA,""
"image-keyboard-response",44,83050,"0.0-3.11-0.11","4st023uov0910ze",353,"125.csv","","578.1000000238419","resources/trios/L2T2A2.jpg","39","restless",0.8,0.1,0.7,0.891995550917568,"false"
"image-keyboard-response",45,83464,"0.0-3.11-1.11","4st023uov0910ze",353,"125.csv","","null","resources/maskTrios/BBA2.jpg","null","",NA,NA,NA,NA,""
"image-keyboard-response",46,84671,"0.0-3.11-2.11","4st023uov0910ze",353,"125.csv","","null","resources/images/fishbone.png","null","",NA,NA,NA,NA,""
"image-keyboard-response",47,84897,"0.0-3.12-0.12","4st023uov0910ze",353,"125.csv","","224.7999999821186","resources/trios/L2T2A2.jpg","37","restless",0.8,0.1,0.7,0.649491299685677,"true"
"image-keyboard-response",48,85305,"0.0-3.12-1.12","4st023uov0910ze",353,"125.csv","","null","resources/maskTrios/L2BB.jpg","null","",NA,NA,NA,NA,""
"image-keyboard-response",49,86515,"0.0-3.12-2.12","4st023uov0910ze",353,"125.csv","","null","resources/images/coin2.png","null","",NA,NA,NA,NA,""
"image-keyboard-response",50,87289,"0.0-3.13-0.13","4st023uov0910ze",353,"125.csv","","772.9000000059605","resources/trios/L4T2A2.jpg","37","restless",0.8,0.1,0.7,0.607273820825839,"true"
"image-keyboard-response",51,87692,"0.0-3.13-1.13","4st023uov0910ze",353,"125.csv","","null","resources/maskTrios/L4BB.jpg","null","",NA,NA,NA,NA,""
"image-keyboard-response",52,88899,"0.0-3.13-2.13","4st023uov0910ze",353,"125.csv","","null","resources/images/coin2.png","null","",NA,NA,NA,NA,""
"image-keyboard-response",53,89143,"0.0-3.14-0.14","4st023uov0910ze",353,"125.csv","","242.90000000596046","resources/trios/L4T1A2.jpg","39","restless",0.8,0.2,0.7,0.873805668719545,"false"
"image-keyboard-response",54,89547,"0.0-3.14-1.14","4st023uov0910ze",353,"125.csv","","null","resources/maskTrios/BBA2.jpg","null","",NA,NA,NA,NA,""
"image-keyboard-response",55,90758,"0.0-3.14-2.14","4st023uov0910ze",353,"125.csv","","null","resources/images/fishbone.png","null","",NA,NA,NA,NA,""
"image-keyboard-response",56,90821,"0.0-3.15-0.15","4st023uov0910ze",353,"125.csv","","62.30000001192093","resources/trios/L2T1A3.jpg","38","restless",0.8,0.2,0.6,0.526395383664718,"false"
"image-keyboard-response",57,91237,"0.0-3.15-1.15","4st023uov0910ze",353,"125.csv","","null","resources/maskTrios/BT1B.jpg","null","",NA,NA,NA,NA,""
"image-keyboard-response",58,92446,"0.0-3.15-2.15","4st023uov0910ze",353,"125.csv","","null","resources/images/fishbone.png","null","",NA,NA,NA,NA,""
"image-keyboard-response",59,92532,"0.0-3.16-0.16","4st023uov0910ze",353,"125.csv","","83.60000002384186","resources/trios/L2T2A3.jpg","37","restless",0.8,0.2,0.6,0.239999676246714,"true"
"image-keyboard-response",60,92944,"0.0-3.16-1.16","4st023uov0910ze",353,"125.csv","","null","resources/maskTrios/L2BB.jpg","null","",NA,NA,NA,NA,""
"image-keyboard-response",61,94155,"0.0-3.16-2.16","4st023uov0910ze",353,"125.csv","","null","resources/images/coin2.png","null","",NA,NA,NA,NA,""
"image-keyboard-response",62,94595,"0.0-3.17-0.17","4st023uov0910ze",353,"125.csv","","439.5","resources/trios/L4T2A2.jpg","37","restless",0.8,0.2,0.6,0.213968662693733,"true"
"image-keyboard-response",63,95008,"0.0-3.17-1.17","4st023uov0910ze",353,"125.csv","","null","resources/maskTrios/L4BB.jpg","null","",NA,NA,NA,NA,""
"image-keyboard-response",64,96210,"0.0-3.17-2.17","4st023uov0910ze",353,"125.csv","","null","resources/images/coin2.png","null","",NA,NA,NA,NA,""
"image-keyboard-response",65,96496,"0.0-3.18-0.18","4st023uov0910ze",353,"125.csv","","284.7000000178814","resources/trios/L2T2A3.jpg","37","restless",0.7,0.2,0.6,0.780725289067062,"false"
"image-keyboard-response",66,96907,"0.0-3.18-1.18","4st023uov0910ze",353,"125.csv","","null","resources/maskTrios/L2BB.jpg","null","",NA,NA,NA,NA,""
"image-keyboard-response",67,98110,"0.0-3.18-2.18","4st023uov0910ze",353,"125.csv","","null","resources/images/fishbone.png","null","",NA,NA,NA,NA,""
"image-keyboard-response",68,98198,"0.0-3.19-0.19","4st023uov0910ze",353,"125.csv","","85.80000001192093","resources/trios/L4T1A2.jpg","39","restless",0.7,0.2,0.6,0.202313961747536,"true"
"image-keyboard-response",69,98608,"0.0-3.19-1.19","4st023uov0910ze",353,"125.csv","","null","resources/maskTrios/BBA2.jpg","null","",NA,NA,NA,NA,""
"image-keyboard-response",70,99812,"0.0-3.19-2.19","4st023uov0910ze",353,"125.csv","","null","resources/images/coin2.png","null","",NA,NA,NA,NA,""
"image-keyboard-response",71,99957,"0.0-3.20-0.20","4st023uov0910ze",353,"125.csv","","143.30000001192093","resources/trios/L4T1A2.jpg","39","restless",0.7,0.2,0.6,0.483846470200066,"true"
"image-keyboard-response",72,100372,"0.0-3.20-1.20","4st023uov0910ze",353,"125.csv","","null","resources/maskTrios/BBA2.jpg","null","",NA,NA,NA,NA,""
"image-keyboard-response",73,101583,"0.0-3.20-2.20","4st023uov0910ze",353,"125.csv","","null","resources/images/coin2.png","null","",NA,NA,NA,NA,""
"image-keyboard-response",74,101649,"0.0-3.21-0.21","4st023uov0910ze",353,"125.csv","","63.599999994039536","resources/trios/L2T1A3.jpg","39","restless",0.7,0.2,0.6,0.235657877263327,"true"
"image-keyboard-response",75,102063,"0.0-3.21-1.21","4st023uov0910ze",353,"125.csv","","null","resources/maskTrios/BBA3.jpg","null","",NA,NA,NA,NA,""
"image-keyboard-response",76,103274,"0.0-3.21-2.21","4st023uov0910ze",353,"125.csv","","null","resources/images/coin2.png","null","",NA,NA,NA,NA,""
"image-keyboard-response",77,103301,"0.0-3.22-0.22","4st023uov0910ze",353,"125.csv","","25.5","resources/trios/L2T1A2.jpg","38","restless",0.7,0.3,0.5,0.00567684118663969,"true"
"image-keyboard-response",78,103706,"0.0-3.22-1.22","4st023uov0910ze",353,"125.csv","","null","resources/maskTrios/BT1B.jpg","null","",NA,NA,NA,NA,""
"image-keyboard-response",79,104911,"0.0-3.22-2.22","4st023uov0910ze",353,"125.csv","","null","resources/images/coin2.png","null","",NA,NA,NA,NA,""
"image-keyboard-response",80,105186,"0.0-3.23-0.23","4st023uov0910ze",353,"125.csv","","273.7999999821186","resources/trios/L4T2A3.jpg","38","restless",0.6,0.3,0.5,0.766216377606804,"false"
"image-keyboard-response",81,105589,"0.0-3.23-1.23","4st023uov0910ze",353,"125.csv","","null","resources/maskTrios/BT2B.jpg","null","",NA,NA,NA,NA,""
"image-keyboard-response",82,106793,"0.0-3.23-2.23","4st023uov0910ze",353,"125.csv","","null","resources/images/fishbone.png","null","",NA,NA,NA,NA,""
"image-keyboard-response",83,107101,"0.0-3.24-0.24","4st023uov0910ze",353,"125.csv","","308.2000000178814","resources/trios/L2T2A3.jpg","37","restless",0.6,0.3,0.5,0.0976492541581822,"true"
"image-keyboard-response",84,107504,"0.0-3.24-1.24","4st023uov0910ze",353,"125.csv","","null","resources/maskTrios/L2BB.jpg","null","",NA,NA,NA,NA,""
"image-keyboard-response",85,108716,"0.0-3.24-2.24","4st023uov0910ze",353,"125.csv","","null","resources/images/coin2.png","null","",NA,NA,NA,NA,""
"image-keyboard-response",86,109138,"0.0-3.25-0.25","4st023uov0910ze",353,"125.csv","","421.5","resources/trios/L2T2A3.jpg","37","restless",0.6,0.3,0.5,0.452894684666491,"true"
"image-keyboard-response",87,109551,"0.0-3.25-1.25","4st023uov0910ze",353,"125.csv","","null","resources/maskTrios/L2BB.jpg","null","",NA,NA,NA,NA,""
"image-keyboard-response",88,110757,"0.0-3.25-2.25","4st023uov0910ze",353,"125.csv","","null","resources/images/coin2.png","null","",NA,NA,NA,NA,""
"image-keyboard-response",89,111043,"0.0-3.26-0.26","4st023uov0910ze",353,"125.csv","","285.19999998807907","resources/trios/L2T1A3.jpg","39","restless",0.6,0.4,0.5,0.924307854276947,"false"
"image-keyboard-response",90,111448,"0.0-3.26-1.26","4st023uov0910ze",353,"125.csv","","null","resources/maskTrios/BBA3.jpg","null","",NA,NA,NA,NA,""
"image-keyboard-response",91,112664,"0.0-3.26-2.26","4st023uov0910ze",353,"125.csv","","null","resources/images/fishbone.png","null","",NA,NA,NA,NA,""
"image-keyboard-response",92,112894,"0.0-3.27-0.27","4st023uov0910ze",353,"125.csv","","228.39999997615814","resources/trios/L4T2A3.jpg","37","restless",0.6,0.4,0.5,0.842041514445233,"false"
"image-keyboard-response",93,113299,"0.0-3.27-1.27","4st023uov0910ze",353,"125.csv","","null","resources/maskTrios/L4BB.jpg","null","",NA,NA,NA,NA,""
"image-keyboard-response",94,114505,"0.0-3.27-2.27","4st023uov0910ze",353,"125.csv","","null","resources/images/fishbone.png","null","",NA,NA,NA,NA,""
"image-keyboard-response",95,114598,"0.0-3.28-0.28","4st023uov0910ze",353,"125.csv","","92.89999997615814","resources/trios/L4T1A3.jpg","38","restless",0.6,0.4,0.5,0.656690147962184,"false"
"image-keyboard-response",96,115002,"0.0-3.28-1.28","4st023uov0910ze",353,"125.csv","","null","resources/maskTrios/BT1B.jpg","null","",NA,NA,NA,NA,""
"image-keyboard-response",97,116212,"0.0-3.28-2.28","4st023uov0910ze",353,"125.csv","","null","resources/images/fishbone.png","null","",NA,NA,NA,NA,""
"image-keyboard-response",98,116433,"0.0-3.29-0.29","4st023uov0910ze",353,"125.csv","","219.89999997615814","resources/trios/L4T1A3.jpg","39","restless",0.6,0.4,0.5,0.170030100399169,"true"
"image-keyboard-response",99,116846,"0.0-3.29-1.29","4st023uov0910ze",353,"125.csv","","null","resources/maskTrios/BBA3.jpg","null","",NA,NA,NA,NA,""
"image-keyboard-response",100,118058,"0.0-3.29-2.29","4st023uov0910ze",353,"125.csv","","null","resources/images/coin2.png","null","",NA,NA,NA,NA,""
"image-keyboard-response",101,118303,"0.0-3.30-0.30","4st023uov0910ze",353,"125.csv","","242.59999999403954","resources/trios/L2T1A3.jpg","39","restless",0.6,0.4,0.5,0.592591218583793,"false"
"image-keyboard-response",102,118705,"0.0-3.30-1.30","4st023uov0910ze",353,"125.csv","","null","resources/maskTrios/BBA3.jpg","null","",NA,NA,NA,NA,""
"image-keyboard-response",103,119910,"0.0-3.30-2.30","4st023uov0910ze",353,"125.csv","","null","resources/images/fishbone.png","null","",NA,NA,NA,NA,""
"image-keyboard-response",104,120125,"0.0-3.31-0.31","4st023uov0910ze",353,"125.csv","","213.09999999403954","resources/trios/L2T1A3.jpg","37","restless",0.6,0.4,0.5,0.783941217572891,"false"
"image-keyboard-response",105,120529,"0.0-3.31-1.31","4st023uov0910ze",353,"125.csv","","null","resources/maskTrios/L2BB.jpg","null","",NA,NA,NA,NA,""
"image-keyboard-response",106,121737,"0.0-3.31-2.31","4st023uov0910ze",353,"125.csv","","null","resources/images/fishbone.png","null","",NA,NA,NA,NA,""
"image-keyboard-response",107,121828,"0.0-3.32-0.32","4st023uov0910ze",353,"125.csv","","90.7000000178814","resources/trios/L4T1A2.jpg","38","restless",0.6,0.4,0.5,0.0874108822247139,"true"
"image-keyboard-response",108,122231,"0.0-3.32-1.32","4st023uov0910ze",353,"125.csv","","null","resources/maskTrios/BT1B.jpg","null","",NA,NA,NA,NA,""
"image-keyboard-response",109,123443,"0.0-3.32-2.32","4st023uov0910ze",353,"125.csv","","null","resources/images/coin2.png","null","",NA,NA,NA,NA,""
"image-keyboard-response",110,123725,"0.0-3.33-0.33","4st023uov0910ze",353,"125.csv","","281.5","resources/trios/L4T2A3.jpg","38","restless",0.6,0.4,0.5,0.339773571004909,"true"
"image-keyboard-response",111,124140,"0.0-3.33-1.33","4st023uov0910ze",353,"125.csv","","null","resources/maskTrios/BT2B.jpg","null","",NA,NA,NA,NA,""
"image-keyboard-response",112,125344,"0.0-3.33-2.33","4st023uov0910ze",353,"125.csv","","null","resources/images/coin2.png","null","",NA,NA,NA,NA,""
"image-keyboard-response",113,125999,"0.0-3.34-0.34","4st023uov0910ze",353,"125.csv","","655.2000000178814","resources/trios/L2T2A3.jpg","38","restless",0.6,0.4,0.5,0.104323834651945,"true"
"image-keyboard-response",114,126411,"0.0-3.34-1.34","4st023uov0910ze",353,"125.csv","","null","resources/maskTrios/BT2B.jpg","null","",NA,NA,NA,NA,""
"image-keyboard-response",115,127622,"0.0-3.34-2.34","4st023uov0910ze",353,"125.csv","","null","resources/images/coin2.png","null","",NA,NA,NA,NA,""
"image-keyboard-response",116,127878,"0.0-3.35-0.35","4st023uov0910ze",353,"125.csv","","253.09999999403954","resources/trios/L4T2A3.jpg","38","restless",0.6,0.4,0.5,0.577841939322124,"false"
"image-keyboard-response",117,128290,"0.0-3.35-1.35","4st023uov0910ze",353,"125.csv","","null","resources/maskTrios/BT2B.jpg","null","",NA,NA,NA,NA,""
"image-keyboard-response",118,129492,"0.0-3.35-2.35","4st023uov0910ze",353,"125.csv","","null","resources/images/fishbone.png","null","",NA,NA,NA,NA,""
"image-keyboard-response",119,129656,"0.0-3.36-0.36","4st023uov0910ze",353,"125.csv","","162","resources/trios/L4T2A3.jpg","37","restless",0.6,0.4,0.5,0.845644742882429,"false"
"image-keyboard-response",120,130067,"0.0-3.36-1.36","4st023uov0910ze",353,"125.csv","","null","resources/maskTrios/L4BB.jpg","null","",NA,NA,NA,NA,""
"image-keyboard-response",121,131271,"0.0-3.36-2.36","4st023uov0910ze",353,"125.csv","","null","resources/images/fishbone.png","null","",NA,NA,NA,NA,""
"image-keyboard-response",122,131494,"0.0-3.37-0.37","4st023uov0910ze",353,"125.csv","","221.09999999403954","resources/trios/L2T2A2.jpg","39","restless",0.6,0.4,0.5,0.111199316548253,"true"
"image-keyboard-response",123,131906,"0.0-3.37-1.37","4st023uov0910ze",353,"125.csv","","null","resources/maskTrios/BBA2.jpg","null","",NA,NA,NA,NA,""
"image-keyboard-response",124,133117,"0.0-3.37-2.37","4st023uov0910ze",353,"125.csv","","null","resources/images/coin2.png","null","",NA,NA,NA,NA,""
"image-keyboard-response",125,133226,"0.0-3.38-0.38","4st023uov0910ze",353,"125.csv","","107.7999999821186","resources/trios/L2T1A3.jpg","39","restless",0.6,0.4,0.5,0.801281813117507,"false"
"image-keyboard-response",126,133629,"0.0-3.38-1.38","4st023uov0910ze",353,"125.csv","","null","resources/maskTrios/BBA3.jpg","null","",NA,NA,NA,NA,""
"image-keyboard-response",127,134838,"0.0-3.38-2.38","4st023uov0910ze",353,"125.csv","","null","resources/images/fishbone.png","null","",NA,NA,NA,NA,""
"image-keyboard-response",128,135036,"0.0-3.39-0.39","4st023uov0910ze",353,"125.csv","","195.69999998807907","resources/trios/L4T2A2.jpg","37","restless",0.6,0.4,0.5,0.641961975440543,"false"
"image-keyboard-response",129,135443,"0.0-3.39-1.39","4st023uov0910ze",353,"125.csv","","null","resources/maskTrios/L4BB.jpg","null","",NA,NA,NA,NA,""
"image-keyboard-response",130,136651,"0.0-3.39-2.39","4st023uov0910ze",353,"125.csv","","null","resources/images/fishbone.png","null","",NA,NA,NA,NA,""
"image-keyboard-response",131,136965,"0.0-3.40-0.40","4st023uov0910ze",353,"125.csv","","312.2000000178814","resources/trios/L4T1A3.jpg","37","restless",0.6,0.4,0.5,0.61368136660612,"false"
"image-keyboard-response",132,137377,"0.0-3.40-1.40","4st023uov0910ze",353,"125.csv","","null","resources/maskTrios/L4BB.jpg","null","",NA,NA,NA,NA,""
"image-keyboard-response",133,138585,"0.0-3.40-2.40","4st023uov0910ze",353,"125.csv","","null","resources/images/fishbone.png","null","",NA,NA,NA,NA,""
"image-keyboard-response",134,138709,"0.0-3.41-0.41","4st023uov0910ze",353,"125.csv","","122.19999998807907","resources/trios/L2T1A3.jpg","38","restless",0.6,0.4,0.5,0.52169213325177,"false"
"image-keyboard-response",135,139110,"0.0-3.41-1.41","4st023uov0910ze",353,"125.csv","","null","resources/maskTrios/BT1B.jpg","null","",NA,NA,NA,NA,""
"image-keyboard-response",136,140315,"0.0-3.41-2.41","4st023uov0910ze",353,"125.csv","","null","resources/images/fishbone.png","null","",NA,NA,NA,NA,""
"image-keyboard-response",137,140549,"0.0-3.42-0.42","4st023uov0910ze",353,"125.csv","","232.19999998807907","resources/trios/L2T1A2.jpg","39","restless",0.6,0.4,0.5,0.578310129841331,"false"
"image-keyboard-response",138,140965,"0.0-3.42-1.42","4st023uov0910ze",353,"125.csv","","null","resources/maskTrios/BBA2.jpg","null","",NA,NA,NA,NA,""
"image-keyboard-response",139,142170,"0.0-3.42-2.42","4st023uov0910ze",353,"125.csv","","null","resources/images/fishbone.png","null","",NA,NA,NA,NA,""
"image-keyboard-response",140,142449,"0.0-3.43-0.43","4st023uov0910ze",353,"125.csv","","278.10000002384186","resources/trios/L4T1A3.jpg","37","restless",0.6,0.3,0.5,0.192538728931531,"true"
"image-keyboard-response",141,142851,"0.0-3.43-1.43","4st023uov0910ze",353,"125.csv","","null","resources/maskTrios/L4BB.jpg","null","",NA,NA,NA,NA,""
"image-keyboard-response",142,144056,"0.0-3.43-2.43","4st023uov0910ze",353,"125.csv","","null","resources/images/coin2.png","null","",NA,NA,NA,NA,""
"image-keyboard-response",143,144309,"0.0-3.44-0.44","4st023uov0910ze",353,"125.csv","","250.7000000178814","resources/trios/L4T2A3.jpg","37","restless",0.6,0.2,0.5,0.0129172956513801,"true"
"image-keyboard-response",144,144721,"0.0-3.44-1.44","4st023uov0910ze",353,"125.csv","","null","resources/maskTrios/L4BB.jpg","null","",NA,NA,NA,NA,""
"image-keyboard-response",145,145927,"0.0-3.44-2.44","4st023uov0910ze",353,"125.csv","","null","resources/images/coin2.png","null","",NA,NA,NA,NA,""
"image-keyboard-response",146,146286,"0.0-3.45-0.45","4st023uov0910ze",353,"125.csv","","358.09999999403954","resources/trios/L4T2A2.jpg","39","restless",0.6,0.2,0.5,0.417925877976936,"true"
"image-keyboard-response",147,146693,"0.0-3.45-1.45","4st023uov0910ze",353,"125.csv","","null","resources/maskTrios/BBA2.jpg","null","",NA,NA,NA,NA,""
"image-keyboard-response",148,147903,"0.0-3.45-2.45","4st023uov0910ze",353,"125.csv","","null","resources/images/coin2.png","null","",NA,NA,NA,NA,""
"image-keyboard-response",149,148144,"0.0-3.46-0.46","4st023uov0910ze",353,"125.csv","","239.80000001192093","resources/trios/L4T2A2.jpg","39","restless",0.6,0.2,0.5,0.807478971528977,"false"
"image-keyboard-response",150,148554,"0.0-3.46-1.46","4st023uov0910ze",353,"125.csv","","null","resources/maskTrios/BBA2.jpg","null","",NA,NA,NA,NA,""
"image-keyboard-response",151,149763,"0.0-3.46-2.46","4st023uov0910ze",353,"125.csv","","null","resources/images/fishbone.png","null","",NA,NA,NA,NA,""
"image-keyboard-response",152,149962,"0.0-3.47-0.47","4st023uov0910ze",353,"125.csv","","198.59999999403954","resources/trios/L4T1A2.jpg","38","restless",0.6,0.2,0.5,0.869255350079617,"false"
"image-keyboard-response",153,150368,"0.0-3.47-1.47","4st023uov0910ze",353,"125.csv","","null","resources/maskTrios/BT1B.jpg","null","",NA,NA,NA,NA,""
"image-keyboard-response",154,151581,"0.0-3.47-2.47","4st023uov0910ze",353,"125.csv","","null","resources/images/fishbone.png","null","",NA,NA,NA,NA,""
"image-keyboard-response",155,151758,"0.0-3.48-0.48","4st023uov0910ze",353,"125.csv","","176.89999997615814","resources/trios/L4T2A2.jpg","38","restless",0.6,0.2,0.5,0.945932865682467,"false"
"image-keyboard-response",156,152170,"0.0-3.48-1.48","4st023uov0910ze",353,"125.csv","","null","resources/maskTrios/BT2B.jpg","null","",NA,NA,NA,NA,""
"image-keyboard-response",157,153386,"0.0-3.48-2.48","4st023uov0910ze",353,"125.csv","","null","resources/images/fishbone.png","null","",NA,NA,NA,NA,""
"image-keyboard-response",158,153487,"0.0-3.49-0.49","4st023uov0910ze",353,"125.csv","","100","resources/trios/L4T2A2.jpg","37","restless",0.6,0.3,0.5,0.663190774841751,"false"
"image-keyboard-response",159,153897,"0.0-3.49-1.49","4st023uov0910ze",353,"125.csv","","null","resources/maskTrios/L4BB.jpg","null","",NA,NA,NA,NA,""
"image-keyboard-response",160,155103,"0.0-3.49-2.49","4st023uov0910ze",353,"125.csv","","null","resources/images/fishbone.png","null","",NA,NA,NA,NA,""
"image-keyboard-response",161,155291,"0.0-3.50-0.50","4st023uov0910ze",353,"125.csv","","185.10000002384186","resources/trios/L4T1A2.jpg","39","restless",0.6,0.3,0.5,0.656315737825754,"false"
"image-keyboard-response",162,155702,"0.0-3.50-1.50","4st023uov0910ze",353,"125.csv","","null","resources/maskTrios/BBA2.jpg","null","",NA,NA,NA,NA,""
"image-keyboard-response",163,156913,"0.0-3.50-2.50","4st023uov0910ze",353,"125.csv","","null","resources/images/fishbone.png","null","",NA,NA,NA,NA,""
"image-keyboard-response",164,156986,"0.0-3.51-0.51","4st023uov0910ze",353,"125.csv","","73.19999998807907","resources/trios/L4T1A2.jpg","37","restless",0.6,0.3,0.5,0.371883702887631,"true"
"image-keyboard-response",165,157394,"0.0-3.51-1.51","4st023uov0910ze",353,"125.csv","","null","resources/maskTrios/L4BB.jpg","null","",NA,NA,NA,NA,""
"image-keyboard-response",166,158602,"0.0-3.51-2.51","4st023uov0910ze",353,"125.csv","","null","resources/images/coin2.png","null","",NA,NA,NA,NA,""
"image-keyboard-response",167,158651,"0.0-3.52-0.52","4st023uov0910ze",353,"125.csv","","48.39999997615814","resources/trios/L4T1A3.jpg","37","restless",0.6,0.3,0.5,0.240686102422388,"true"
"image-keyboard-response",168,159068,"0.0-3.52-1.52","4st023uov0910ze",353,"125.csv","","null","resources/maskTrios/L4BB.jpg","null","",NA,NA,NA,NA,""
"image-keyboard-response",169,160277,"0.0-3.52-2.52","4st023uov0910ze",353,"125.csv","","null","resources/images/coin2.png","null","",NA,NA,NA,NA,""
"image-keyboard-response",170,160459,"0.0-3.53-0.53","4st023uov0910ze",353,"125.csv","","181.09999999403954","resources/trios/L2T2A3.jpg","37","restless",0.5,0.3,0.5,0.374810812583056,"true"
"image-keyboard-response",171,160865,"0.0-3.53-1.53","4st023uov0910ze",353,"125.csv","","null","resources/maskTrios/L2BB.jpg","null","",NA,NA,NA,NA,""
"image-keyboard-response",172,162072,"0.0-3.53-2.53","4st023uov0910ze",353,"125.csv","","null","resources/images/coin2.png","null","",NA,NA,NA,NA,""
"image-keyboard-response",173,162167,"0.0-3.54-0.54","4st023uov0910ze",353,"125.csv","","92.90000000596046","resources/trios/L4T1A3.jpg","38","restless",0.5,0.3,0.5,0.645596937109317,"false"
"image-keyboard-response",174,162578,"0.0-3.54-1.54","4st023uov0910ze",353,"125.csv","","null","resources/maskTrios/BT1B.jpg","null","",NA,NA,NA,NA,""
"image-keyboard-response",175,163781,"0.0-3.54-2.54","4st023uov0910ze",353,"125.csv","","null","resources/images/fishbone.png","null","",NA,NA,NA,NA,""
"image-keyboard-response",176,163955,"0.0-3.55-0.55","4st023uov0910ze",353,"125.csv","","173","resources/trios/L2T2A2.jpg","37","restless",0.5,0.3,0.5,0.354017655563318,"true"
"image-keyboard-response",177,164357,"0.0-3.55-1.55","4st023uov0910ze",353,"125.csv","","null","resources/maskTrios/L2BB.jpg","null","",NA,NA,NA,NA,""
"image-keyboard-response",178,165562,"0.0-3.55-2.55","4st023uov0910ze",353,"125.csv","","null","resources/images/coin2.png","null","",NA,NA,NA,NA,""
"image-keyboard-response",179,165793,"0.0-3.56-0.56","4st023uov0910ze",353,"125.csv","","230.7999999821186","resources/trios/L4T2A3.jpg","37","restless",0.5,0.3,0.5,0.740794062149034,"false"
"image-keyboard-response",180,166209,"0.0-3.56-1.56","4st023uov0910ze",353,"125.csv","","null","resources/maskTrios/L4BB.jpg","null","",NA,NA,NA,NA,""
"image-keyboard-response",181,167418,"0.0-3.56-2.56","4st023uov0910ze",353,"125.csv","","null","resources/images/fishbone.png","null","",NA,NA,NA,NA,""
"image-keyboard-response",182,167704,"0.0-3.57-0.57","4st023uov0910ze",353,"125.csv","","284.40000000596046","resources/trios/L4T2A2.jpg","39","restless",0.5,0.3,0.5,0.807979261728953,"false"
"image-keyboard-response",183,168114,"0.0-3.57-1.57","4st023uov0910ze",353,"125.csv","","null","resources/maskTrios/BBA2.jpg","null","",NA,NA,NA,NA,""
"image-keyboard-response",184,169327,"0.0-3.57-2.57","4st023uov0910ze",353,"125.csv","","null","resources/images/fishbone.png","null","",NA,NA,NA,NA,""
"image-keyboard-response",185,169428,"0.0-3.58-0.58","4st023uov0910ze",353,"125.csv","","99.10000002384186","resources/trios/L2T1A3.jpg","38","restless",0.5,0.3,0.5,0.87305042530574,"false"
"image-keyboard-response",186,169836,"0.0-3.58-1.58","4st023uov0910ze",353,"125.csv","","null","resources/maskTrios/BT1B.jpg","null","",NA,NA,NA,NA,""
"image-keyboard-response",187,171048,"0.0-3.58-2.58","4st023uov0910ze",353,"125.csv","","null","resources/images/fishbone.png","null","",NA,NA,NA,NA,""
"image-keyboard-response",188,171265,"0.0-3.59-0.59","4st023uov0910ze",353,"125.csv","","214.90000000596046","resources/trios/L4T2A3.jpg","38","restless",0.4,0.3,0.5,0.350913110210026,"false"
"image-keyboard-response",189,171669,"0.0-3.59-1.59","4st023uov0910ze",353,"125.csv","","null","resources/maskTrios/BT2B.jpg","null","",NA,NA,NA,NA,""
"image-keyboard-response",190,172872,"0.0-3.59-2.59","4st023uov0910ze",353,"125.csv","","null","resources/images/fishbone.png","null","",NA,NA,NA,NA,""
"image-keyboard-response",191,173142,"0.0-3.60-0.60","4st023uov0910ze",353,"125.csv","","269.30000001192093","resources/trios/L4T2A3.jpg","37","restless",0.3,0.3,0.5,0.376958154267837,"false"
"image-keyboard-response",192,173555,"0.0-3.60-1.60","4st023uov0910ze",353,"125.csv","","null","resources/maskTrios/L4BB.jpg","null","",NA,NA,NA,NA,""
"image-keyboard-response",193,174761,"0.0-3.60-2.60","4st023uov0910ze",353,"125.csv","","null","resources/images/fishbone.png","null","",NA,NA,NA,NA,""
"image-keyboard-response",194,174789,"0.0-3.61-0.61","4st023uov0910ze",353,"125.csv","","28.19999998807907","resources/trios/L4T1A2.jpg","39","restless",0.3,0.3,0.5,0.415646249520304,"true"
"image-keyboard-response",195,175192,"0.0-3.61-1.61","4st023uov0910ze",353,"125.csv","","null","resources/maskTrios/BBA2.jpg","null","",NA,NA,NA,NA,""
"image-keyboard-response",196,176403,"0.0-3.61-2.61","4st023uov0910ze",353,"125.csv","","null","resources/images/coin2.png","null","",NA,NA,NA,NA,""
"image-keyboard-response",197,176713,"0.0-3.62-0.62","4st023uov0910ze",353,"125.csv","","308","resources/trios/L2T2A3.jpg","39","restless",0.3,0.3,0.5,0.695098678898468,"false"
"image-keyboard-response",198,177121,"0.0-3.62-1.62","4st023uov0910ze",353,"125.csv","","null","resources/maskTrios/BBA3.jpg","null","",NA,NA,NA,NA,""
"image-keyboard-response",199,178329,"0.0-3.62-2.62","4st023uov0910ze",353,"125.csv","","null","resources/images/fishbone.png","null","",NA,NA,NA,NA,""
"image-keyboard-response",200,178676,"0.0-3.63-0.63","4st023uov0910ze",353,"125.csv","","344.19999998807907","resources/trios/L4T1A2.jpg","39","restless",0.3,0.3,0.5,0.904926682552521,"false"
"image-keyboard-response",201,179091,"0.0-3.63-1.63","4st023uov0910ze",353,"125.csv","","null","resources/maskTrios/BBA2.jpg","null","",NA,NA,NA,NA,""
"image-keyboard-response",202,180301,"0.0-3.63-2.63","4st023uov0910ze",353,"125.csv","","null","resources/images/fishbone.png","null","",NA,NA,NA,NA,""
"image-keyboard-response",203,180402,"0.0-3.64-0.64","4st023uov0910ze",353,"125.csv","","99","resources/trios/L2T2A2.jpg","38","restless",0.3,0.3,0.5,0.14089673542578,"true"
"image-keyboard-response",204,180810,"0.0-3.64-1.64","4st023uov0910ze",353,"125.csv","","null","resources/maskTrios/BT2B.jpg","null","",NA,NA,NA,NA,""
"image-keyboard-response",205,182015,"0.0-3.64-2.64","4st023uov0910ze",353,"125.csv","","null","resources/images/coin2.png","null","",NA,NA,NA,NA,""
"image-keyboard-response",206,182320,"0.0-3.65-0.65","4st023uov0910ze",353,"125.csv","","300.19999998807907","resources/trios/L2T2A3.jpg","38","restless",0.3,0.3,0.5,0.301951515662414,"false"
"image-keyboard-response",207,182728,"0.0-3.65-1.65","4st023uov0910ze",353,"125.csv","","null","resources/maskTrios/BT2B.jpg","null","",NA,NA,NA,NA,""
"image-keyboard-response",208,183932,"0.0-3.65-2.65","4st023uov0910ze",353,"125.csv","","null","resources/images/fishbone.png","null","",NA,NA,NA,NA,""
"image-keyboard-response",209,184301,"0.0-3.66-0.66","4st023uov0910ze",353,"125.csv","","367.59999999403954","resources/trios/L4T1A2.jpg","38","restless",0.3,0.3,0.5,0.700227453070899,"false"
"image-keyboard-response",210,184705,"0.0-3.66-1.66","4st023uov0910ze",353,"125.csv","","null","resources/maskTrios/BT1B.jpg","null","",NA,NA,NA,NA,""
"image-keyboard-response",211,185913,"0.0-3.66-2.66","4st023uov0910ze",353,"125.csv","","null","resources/images/fishbone.png","null","",NA,NA,NA,NA,""
"image-keyboard-response",212,186260,"0.0-3.67-0.67","4st023uov0910ze",353,"125.csv","","346.19999998807907","resources/trios/L4T2A3.jpg","37","restless",0.3,0.3,0.5,0.816005280673169,"false"
"image-keyboard-response",213,186675,"0.0-3.67-1.67","4st023uov0910ze",353,"125.csv","","null","resources/maskTrios/L4BB.jpg","null","",NA,NA,NA,NA,""
"image-keyboard-response",214,187884,"0.0-3.67-2.67","4st023uov0910ze",353,"125.csv","","null","resources/images/fishbone.png","null","",NA,NA,NA,NA,""
"image-keyboard-response",215,187986,"0.0-3.68-0.68","4st023uov0910ze",353,"125.csv","","99.90000000596046","resources/trios/L4T1A3.jpg","37","restless",0.2,0.3,0.5,0.404339062604103,"false"
"image-keyboard-response",216,188395,"0.0-3.68-1.68","4st023uov0910ze",353,"125.csv","","null","resources/maskTrios/L4BB.jpg","null","",NA,NA,NA,NA,""
"image-keyboard-response",217,189604,"0.0-3.68-2.68","4st023uov0910ze",353,"125.csv","","null","resources/images/fishbone.png","null","",NA,NA,NA,NA,""
"image-keyboard-response",218,189846,"0.0-3.69-0.69","4st023uov0910ze",353,"125.csv","","241.40000000596046","resources/trios/L4T2A2.jpg","39","restless",0.2,0.2,0.5,0.607066968300801,"false"
"image-keyboard-response",219,190257,"0.0-3.69-1.69","4st023uov0910ze",353,"125.csv","","null","resources/maskTrios/BBA2.jpg","null","",NA,NA,NA,NA,""
"image-keyboard-response",220,191464,"0.0-3.69-2.69","4st023uov0910ze",353,"125.csv","","null","resources/images/fishbone.png","null","",NA,NA,NA,NA,""
"image-keyboard-response",221,191513,"0.0-3.70-0.70","4st023uov0910ze",353,"125.csv","","48.099999994039536","resources/trios/L2T2A2.jpg","38","restless",0.1,0.2,0.5,0.618084995655163,"false"
"image-keyboard-response",222,191929,"0.0-3.70-1.70","4st023uov0910ze",353,"125.csv","","null","resources/maskTrios/BT2B.jpg","null","",NA,NA,NA,NA,""
"image-keyboard-response",223,193137,"0.0-3.70-2.70","4st023uov0910ze",353,"125.csv","","null","resources/images/fishbone.png","null","",NA,NA,NA,NA,""
"image-keyboard-response",224,193382,"0.0-3.71-0.71","4st023uov0910ze",353,"125.csv","","243.09999999403954","resources/trios/L2T2A2.jpg","39","restless",0.2,0.2,0.5,0.208182575185482,"true"
"image-keyboard-response",225,193784,"0.0-3.71-1.71","4st023uov0910ze",353,"125.csv","","null","resources/maskTrios/BBA2.jpg","null","",NA,NA,NA,NA,""
"image-keyboard-response",226,194996,"0.0-3.71-2.71","4st023uov0910ze",353,"125.csv","","null","resources/images/coin2.png","null","",NA,NA,NA,NA,""
"image-keyboard-response",227,195222,"0.0-3.72-0.72","4st023uov0910ze",353,"125.csv","","224.2999999821186","resources/trios/L4T1A2.jpg","39","restless",0.2,0.2,0.5,0.640321484633852,"false"
"image-keyboard-response",228,195629,"0.0-3.72-1.72","4st023uov0910ze",353,"125.csv","","null","resources/maskTrios/BBA2.jpg","null","",NA,NA,NA,NA,""
"image-keyboard-response",229,196838,"0.0-3.72-2.72","4st023uov0910ze",353,"125.csv","","null","resources/images/fishbone.png","null","",NA,NA,NA,NA,""
"image-keyboard-response",230,196862,"0.0-3.73-0.73","4st023uov0910ze",353,"125.csv","","23.19999998807907","resources/trios/L2T1A3.jpg","37","restless",0.2,0.2,0.5,0.992224996969156,"false"
"image-keyboard-response",231,197275,"0.0-3.73-1.73","4st023uov0910ze",353,"125.csv","","null","resources/maskTrios/L2BB.jpg","null","",NA,NA,NA,NA,""
"image-keyboard-response",232,198486,"0.0-3.73-2.73","4st023uov0910ze",353,"125.csv","","null","resources/images/fishbone.png","null","",NA,NA,NA,NA,""
"image-keyboard-response",233,198781,"0.0-3.74-0.74","4st023uov0910ze",353,"125.csv","","293.60000002384186","resources/trios/L2T2A2.jpg","38","restless",0.2,0.2,0.5,0.471867948253414,"false"
"image-keyboard-response",234,199182,"0.0-3.74-1.74","4st023uov0910ze",353,"125.csv","","null","resources/maskTrios/BT2B.jpg","null","",NA,NA,NA,NA,""
"image-keyboard-response",235,200388,"0.0-3.74-2.74","4st023uov0910ze",353,"125.csv","","null","resources/images/fishbone.png","null","",NA,NA,NA,NA,""
"image-keyboard-response",236,200449,"0.0-3.75-0.75","4st023uov0910ze",353,"125.csv","","60","resources/trios/L2T1A2.jpg","39","restless",0.2,0.2,0.5,0.900720654992715,"false"
"image-keyboard-response",237,200855,"0.0-3.75-1.75","4st023uov0910ze",353,"125.csv","","null","resources/maskTrios/BBA2.jpg","null","",NA,NA,NA,NA,""
"image-keyboard-response",238,202065,"0.0-3.75-2.75","4st023uov0910ze",353,"125.csv","","null","resources/images/fishbone.png","null","",NA,NA,NA,NA,""
"image-keyboard-response",239,202181,"0.0-3.76-0.76","4st023uov0910ze",353,"125.csv","","113.39999997615814","resources/trios/L4T1A2.jpg","37","restless",0.2,0.2,0.5,0.529867299639869,"false"
"image-keyboard-response",240,202589,"0.0-3.76-1.76","4st023uov0910ze",353,"125.csv","","null","resources/maskTrios/L4BB.jpg","null","",NA,NA,NA,NA,""
"image-keyboard-response",241,203791,"0.0-3.76-2.76","4st023uov0910ze",353,"125.csv","","null","resources/images/fishbone.png","null","",NA,NA,NA,NA,""
"image-keyboard-response",242,204071,"0.0-3.77-0.77","4st023uov0910ze",353,"125.csv","","279.40000000596046","resources/trios/L2T2A3.jpg","39","restless",0.2,0.3,0.5,0.141068356188929,"true"
"image-keyboard-response",243,204475,"0.0-3.77-1.77","4st023uov0910ze",353,"125.csv","","null","resources/maskTrios/BBA3.jpg","null","",NA,NA,NA,NA,""
"image-keyboard-response",244,205680,"0.0-3.77-2.77","4st023uov0910ze",353,"125.csv","","null","resources/images/coin2.png","null","",NA,NA,NA,NA,""
"image-keyboard-response",245,205892,"0.0-3.78-0.78","4st023uov0910ze",353,"125.csv","","211.89999997615814","resources/trios/L2T2A3.jpg","39","restless",0.2,0.3,0.5,0.783846198483134,"false"
"image-keyboard-response",246,206297,"0.0-3.78-1.78","4st023uov0910ze",353,"125.csv","","null","resources/maskTrios/BBA3.jpg","null","",NA,NA,NA,NA,""
"image-keyboard-response",247,207504,"0.0-3.78-2.78","4st023uov0910ze",353,"125.csv","","null","resources/images/fishbone.png","null","",NA,NA,NA,NA,""
"image-keyboard-response",248,207653,"0.0-3.79-0.79","4st023uov0910ze",353,"125.csv","","147.7999999821186","resources/trios/L4T1A2.jpg","38","restless",0.2,0.3,0.5,0.324355953853281,"false"
"image-keyboard-response",249,208061,"0.0-3.79-1.79","4st023uov0910ze",353,"125.csv","","null","resources/maskTrios/BT1B.jpg","null","",NA,NA,NA,NA,""
"image-keyboard-response",250,209264,"0.0-3.79-2.79","4st023uov0910ze",353,"125.csv","","null","resources/images/fishbone.png","null","",NA,NA,NA,NA,""
"image-keyboard-response",251,209666,"0.0-3.80-0.80","4st023uov0910ze",353,"125.csv","","400.5","resources/trios/L4T1A3.jpg","38","restless",0.2,0.3,0.5,0.440274047294615,"false"
"image-keyboard-response",252,210076,"0.0-3.80-1.80","4st023uov0910ze",353,"125.csv","","null","resources/maskTrios/BT1B.jpg","null","",NA,NA,NA,NA,""
"image-keyboard-response",253,211285,"0.0-3.80-2.80","4st023uov0910ze",353,"125.csv","","null","resources/images/fishbone.png","null","",NA,NA,NA,NA,""
"image-keyboard-response",254,211425,"0.0-3.81-0.81","4st023uov0910ze",353,"125.csv","","139.19999998807907","resources/trios/L2T1A2.jpg","37","restless",0.2,0.3,0.5,0.375093088838979,"false"
"image-keyboard-response",255,211829,"0.0-3.81-1.81","4st023uov0910ze",353,"125.csv","","null","resources/maskTrios/L2BB.jpg","null","",NA,NA,NA,NA,""
"image-keyboard-response",256,213041,"0.0-3.81-2.81","4st023uov0910ze",353,"125.csv","","null","resources/images/fishbone.png","null","",NA,NA,NA,NA,""
"image-keyboard-response",257,213373,"0.0-3.82-0.82","4st023uov0910ze",353,"125.csv","","330.90000000596046","resources/trios/L2T1A3.jpg","37","restless",0.2,0.3,0.5,0.271806711372636,"false"
"image-keyboard-response",258,213780,"0.0-3.82-1.82","4st023uov0910ze",353,"125.csv","","null","resources/maskTrios/L2BB.jpg","null","",NA,NA,NA,NA,""
"image-keyboard-response",259,214989,"0.0-3.82-2.82","4st023uov0910ze",353,"125.csv","","null","resources/images/fishbone.png","null","",NA,NA,NA,NA,""
"image-keyboard-response",260,215087,"0.0-3.83-0.83","4st023uov0910ze",353,"125.csv","","97.40000000596046","resources/trios/L2T1A3.jpg","39","restless",0.2,0.3,0.5,0.334767670204903,"true"
"image-keyboard-response",261,215488,"0.0-3.83-1.83","4st023uov0910ze",353,"125.csv","","null","resources/maskTrios/BBA3.jpg","null","",NA,NA,NA,NA,""
"image-keyboard-response",262,216692,"0.0-3.83-2.83","4st023uov0910ze",353,"125.csv","","null","resources/images/coin2.png","null","",NA,NA,NA,NA,""
"image-keyboard-response",263,217491,"0.0-3.84-0.84","4st023uov0910ze",353,"125.csv","","799","resources/trios/L2T1A3.jpg","39","restless",0.2,0.3,0.5,0.62083687359065,"false"
"image-keyboard-response",264,217903,"0.0-3.84-1.84","4st023uov0910ze",353,"125.csv","","null","resources/maskTrios/BBA3.jpg","null","",NA,NA,NA,NA,""
"image-keyboard-response",265,219109,"0.0-3.84-2.84","4st023uov0910ze",353,"125.csv","","null","resources/images/fishbone.png","null","",NA,NA,NA,NA,""
"image-keyboard-response",266,219156,"0.0-3.85-0.85","4st023uov0910ze",353,"125.csv","","46.30000001192093","resources/trios/L2T1A2.jpg","38","restless",0.2,0.3,0.4,0.459137215731875,"false"
"image-keyboard-response",267,219573,"0.0-3.85-1.85","4st023uov0910ze",353,"125.csv","","null","resources/maskTrios/BT1B.jpg","null","",NA,NA,NA,NA,""
"image-keyboard-response",268,220782,"0.0-3.85-2.85","4st023uov0910ze",353,"125.csv","","null","resources/images/fishbone.png","null","",NA,NA,NA,NA,""
"image-keyboard-response",269,220862,"0.0-3.86-0.86","4st023uov0910ze",353,"125.csv","","80.09999999403954","resources/trios/L2T2A2.jpg","39","restless",0.2,0.3,0.4,0.410296167407839,"false"
"image-keyboard-response",270,221264,"0.0-3.86-1.86","4st023uov0910ze",353,"125.csv","","null","resources/maskTrios/BBA2.jpg","null","",NA,NA,NA,NA,""
"image-keyboard-response",271,222471,"0.0-3.86-2.86","4st023uov0910ze",353,"125.csv","","null","resources/images/fishbone.png","null","",NA,NA,NA,NA,""
"image-keyboard-response",272,222705,"0.0-3.87-0.87","4st023uov0910ze",353,"125.csv","","233.69999998807907","resources/trios/L2T2A3.jpg","37","restless",0.3,0.3,0.5,0.162471273341438,"true"
"image-keyboard-response",273,223109,"0.0-3.87-1.87","4st023uov0910ze",353,"125.csv","","null","resources/maskTrios/L2BB.jpg","null","",NA,NA,NA,NA,""
"image-keyboard-response",274,224318,"0.0-3.87-2.87","4st023uov0910ze",353,"125.csv","","null","resources/images/coin2.png","null","",NA,NA,NA,NA,""
"image-keyboard-response",275,224497,"0.0-3.88-0.88","4st023uov0910ze",353,"125.csv","","177.7999999821186","resources/trios/L4T2A2.jpg","37","restless",0.3,0.3,0.5,0.45584362112438,"false"
"image-keyboard-response",276,224908,"0.0-3.88-1.88","4st023uov0910ze",353,"125.csv","","null","resources/maskTrios/L4BB.jpg","null","",NA,NA,NA,NA,""
"image-keyboard-response",277,226118,"0.0-3.88-2.88","4st023uov0910ze",353,"125.csv","","null","resources/images/fishbone.png","null","",NA,NA,NA,NA,""
"image-keyboard-response",278,226347,"0.0-3.89-0.89","4st023uov0910ze",353,"125.csv","","227.10000002384186","resources/trios/L4T1A2.jpg","38","restless",0.2,0.3,0.5,0.785213448803497,"false"
"image-keyboard-response",279,226755,"0.0-3.89-1.89","4st023uov0910ze",353,"125.csv","","null","resources/maskTrios/BT1B.jpg","null","",NA,NA,NA,NA,""
"image-keyboard-response",280,227967,"0.0-3.89-2.89","4st023uov0910ze",353,"125.csv","","null","resources/images/fishbone.png","null","",NA,NA,NA,NA,""
"image-keyboard-response",281,228122,"0.0-3.90-0.90","4st023uov0910ze",353,"125.csv","","153.80000001192093","resources/trios/L4T1A2.jpg","37","restless",0.2,0.3,0.5,0.409866066900928,"false"
"image-keyboard-response",282,228526,"0.0-3.90-1.90","4st023uov0910ze",353,"125.csv","","null","resources/maskTrios/L4BB.jpg","null","",NA,NA,NA,NA,""
"image-keyboard-response",283,229730,"0.0-3.90-2.90","4st023uov0910ze",353,"125.csv","","null","resources/images/fishbone.png","null","",NA,NA,NA,NA,""
"image-keyboard-response",284,230017,"0.0-3.91-0.91","4st023uov0910ze",353,"125.csv","","286.09999999403954","resources/trios/L2T2A3.jpg","39","restless",0.3,0.3,0.6,0.893740183084337,"false"
"image-keyboard-response",285,230427,"0.0-3.91-1.91","4st023uov0910ze",353,"125.csv","","null","resources/maskTrios/BBA3.jpg","null","",NA,NA,NA,NA,""
"image-keyboard-response",286,231637,"0.0-3.91-2.91","4st023uov0910ze",353,"125.csv","","null","resources/images/fishbone.png","null","",NA,NA,NA,NA,""
"image-keyboard-response",287,232215,"0.0-3.92-0.92","4st023uov0910ze",353,"125.csv","","577.7000000178814","resources/trios/L2T1A2.jpg","38","restless",0.3,0.3,0.6,0.515723777751048,"false"
"image-keyboard-response",288,232626,"0.0-3.92-1.92","4st023uov0910ze",353,"125.csv","","null","resources/maskTrios/BT1B.jpg","null","",NA,NA,NA,NA,""
"image-keyboard-response",289,233832,"0.0-3.92-2.92","4st023uov0910ze",353,"125.csv","","null","resources/images/fishbone.png","null","",NA,NA,NA,NA,""
"image-keyboard-response",290,233991,"0.0-3.93-0.93","4st023uov0910ze",353,"125.csv","","158.59999999403954","resources/trios/L2T2A2.jpg","37","restless",0.3,0.3,0.6,0.363283333953912,"false"
"image-keyboard-response",291,234404,"0.0-3.93-1.93","4st023uov0910ze",353,"125.csv","","null","resources/maskTrios/L2BB.jpg","null","",NA,NA,NA,NA,""
"image-keyboard-response",292,235617,"0.0-3.93-2.93","4st023uov0910ze",353,"125.csv","","null","resources/images/fishbone.png","null","",NA,NA,NA,NA,""
"image-keyboard-response",293,235789,"0.0-3.94-0.94","4st023uov0910ze",353,"125.csv","","169.5","resources/trios/L4T2A3.jpg","39","restless",0.3,0.3,0.6,0.840022386247587,"false"
"image-keyboard-response",294,236193,"0.0-3.94-1.94","4st023uov0910ze",353,"125.csv","","null","resources/maskTrios/BBA3.jpg","null","",NA,NA,NA,NA,""
"image-keyboard-response",295,237401,"0.0-3.94-2.94","4st023uov0910ze",353,"125.csv","","null","resources/images/fishbone.png","null","",NA,NA,NA,NA,""
"image-keyboard-response",296,238864,"0.0-3.95-0.95","4st023uov0910ze",353,"125.csv","","1461.699999988079","resources/trios/L2T2A2.jpg","39","restless",0.3,0.3,0.6,0.824336851717262,"false"
"image-keyboard-response",297,239272,"0.0-3.95-1.95","4st023uov0910ze",353,"125.csv","","null","resources/maskTrios/BBA2.jpg","null","",NA,NA,NA,NA,""
"image-keyboard-response",298,240480,"0.0-3.95-2.95","4st023uov0910ze",353,"125.csv","","null","resources/images/fishbone.png","null","",NA,NA,NA,NA,""
"image-keyboard-response",299,240798,"0.0-3.96-0.96","4st023uov0910ze",353,"125.csv","","316.7000000178814","resources/trios/L4T2A3.jpg","38","restless",0.3,0.3,0.6,0.77014184986481,"false"
"image-keyboard-response",300,241208,"0.0-3.96-1.96","4st023uov0910ze",353,"125.csv","","null","resources/maskTrios/BT2B.jpg","null","",NA,NA,NA,NA,""
"image-keyboard-response",301,242410,"0.0-3.96-2.96","4st023uov0910ze",353,"125.csv","","null","resources/images/fishbone.png","null","",NA,NA,NA,NA,""
"image-keyboard-response",302,242756,"0.0-3.97-0.97","4st023uov0910ze",353,"125.csv","","345.19999998807907","resources/trios/L4T1A3.jpg","37","restless",0.3,0.3,0.7,0.506193521427257,"false"
"image-keyboard-response",303,243170,"0.0-3.97-1.97","4st023uov0910ze",353,"125.csv","","null","resources/maskTrios/L4BB.jpg","null","",NA,NA,NA,NA,""
"image-keyboard-response",304,244375,"0.0-3.97-2.97","4st023uov0910ze",353,"125.csv","","null","resources/images/fishbone.png","null","",NA,NA,NA,NA,""
"image-keyboard-response",305,244525,"0.0-3.98-0.98","4st023uov0910ze",353,"125.csv","","147.5","resources/trios/L4T2A3.jpg","38","restless",0.3,0.4,0.7,0.743876355785999,"false"
"image-keyboard-response",306,244933,"0.0-3.98-1.98","4st023uov0910ze",353,"125.csv","","null","resources/maskTrios/BT2B.jpg","null","",NA,NA,NA,NA,""
"image-keyboard-response",307,246138,"0.0-3.98-2.98","4st023uov0910ze",353,"125.csv","","null","resources/images/fishbone.png","null","",NA,NA,NA,NA,""
"image-keyboard-response",308,246388,"0.0-3.99-0.99","4st023uov0910ze",353,"125.csv","","249.59999999403954","resources/trios/L4T1A3.jpg","37","restless",0.3,0.4,0.7,0.0329737596222268,"true"
"image-keyboard-response",309,246803,"0.0-3.99-1.99","4st023uov0910ze",353,"125.csv","","null","resources/maskTrios/L4BB.jpg","null","",NA,NA,NA,NA,""
"image-keyboard-response",310,248010,"0.0-3.99-2.99","4st023uov0910ze",353,"125.csv","","null","resources/images/coin2.png","null","",NA,NA,NA,NA,""
"image-keyboard-response",311,248051,"0.0-3.100-0.100","4st023uov0910ze",353,"125.csv","","39.099999994039536","resources/trios/L4T2A3.jpg","37","restless",0.2,0.4,0.7,0.235705040044526,"false"
"image-keyboard-response",312,248460,"0.0-3.100-1.100","4st023uov0910ze",353,"125.csv","","null","resources/maskTrios/L4BB.jpg","null","",NA,NA,NA,NA,""
"image-keyboard-response",313,249669,"0.0-3.100-2.100","4st023uov0910ze",353,"125.csv","","null","resources/images/fishbone.png","null","",NA,NA,NA,NA,""
"image-keyboard-response",314,249899,"0.0-3.101-0.101","4st023uov0910ze",353,"125.csv","","227.69999998807907","resources/trios/L4T2A2.jpg","39","restless",0.2,0.4,0.7,0.505392022495,"true"
"image-keyboard-response",315,250305,"0.0-3.101-1.101","4st023uov0910ze",353,"125.csv","","null","resources/maskTrios/BBA2.jpg","null","",NA,NA,NA,NA,""
"image-keyboard-response",316,251511,"0.0-3.101-2.101","4st023uov0910ze",353,"125.csv","","null","resources/images/coin2.png","null","",NA,NA,NA,NA,""
"image-keyboard-response",317,251798,"0.0-3.102-0.102","4st023uov0910ze",353,"125.csv","","284.89999997615814","resources/trios/L4T1A3.jpg","39","restless",0.2,0.4,0.7,0.0595607548334085,"true"
"image-keyboard-response",318,252210,"0.0-3.102-1.102","4st023uov0910ze",353,"125.csv","","null","resources/maskTrios/BBA3.jpg","null","",NA,NA,NA,NA,""
"image-keyboard-response",319,253422,"0.0-3.102-2.102","4st023uov0910ze",353,"125.csv","","null","resources/images/coin2.png","null","",NA,NA,NA,NA,""
"image-keyboard-response",320,253555,"0.0-3.103-0.103","4st023uov0910ze",353,"125.csv","","133.09999999403954","resources/trios/L4T2A2.jpg","39","restless",0.2,0.4,0.7,0.32207327323493,"true"
"image-keyboard-response",321,253967,"0.0-3.103-1.103","4st023uov0910ze",353,"125.csv","","null","resources/maskTrios/BBA2.jpg","null","",NA,NA,NA,NA,""
"image-keyboard-response",322,255175,"0.0-3.103-2.103","4st023uov0910ze",353,"125.csv","","null","resources/images/coin2.png","null","",NA,NA,NA,NA,""
"image-keyboard-response",323,255248,"0.0-3.104-0.104","4st023uov0910ze",353,"125.csv","","72.2000000178814","resources/trios/L4T1A2.jpg","39","restless",0.3,0.4,0.7,0.103791259306929,"true"
"image-keyboard-response",324,255656,"0.0-3.104-1.104","4st023uov0910ze",353,"125.csv","","null","resources/maskTrios/BBA2.jpg","null","",NA,NA,NA,NA,""
"image-keyboard-response",325,256858,"0.0-3.104-2.104","4st023uov0910ze",353,"125.csv","","null","resources/images/coin2.png","null","",NA,NA,NA,NA,""
"image-keyboard-response",326,257148,"0.0-3.105-0.105","4st023uov0910ze",353,"125.csv","","288.90000000596046","resources/trios/L4T1A3.jpg","39","restless",0.3,0.4,0.7,0.4813745247435,"true"
"image-keyboard-response",327,257557,"0.0-3.105-1.105","4st023uov0910ze",353,"125.csv","","null","resources/maskTrios/BBA3.jpg","null","",NA,NA,NA,NA,""
"image-keyboard-response",328,258768,"0.0-3.105-2.105","4st023uov0910ze",353,"125.csv","","null","resources/images/coin2.png","null","",NA,NA,NA,NA,""
"image-keyboard-response",329,258931,"0.0-3.106-0.106","4st023uov0910ze",353,"125.csv","","161.59999999403954","resources/trios/L4T2A3.jpg","39","restless",0.3,0.4,0.7,0.310742524777188,"true"
"image-keyboard-response",330,259340,"0.0-3.106-1.106","4st023uov0910ze",353,"125.csv","","null","resources/maskTrios/BBA3.jpg","null","",NA,NA,NA,NA,""
"image-keyboard-response",331,260548,"0.0-3.106-2.106","4st023uov0910ze",353,"125.csv","","null","resources/images/coin2.png","null","",NA,NA,NA,NA,""
"image-keyboard-response",332,260694,"0.0-3.107-0.107","4st023uov0910ze",353,"125.csv","","144.39999997615814","resources/trios/L2T2A3.jpg","39","restless",0.4,0.5,0.7,0.107439017396055,"true"
"image-keyboard-response",333,261106,"0.0-3.107-1.107","4st023uov0910ze",353,"125.csv","","null","resources/maskTrios/BBA3.jpg","null","",NA,NA,NA,NA,""
"image-keyboard-response",334,262309,"0.0-3.107-2.107","4st023uov0910ze",353,"125.csv","","null","resources/images/coin2.png","null","",NA,NA,NA,NA,""
"image-keyboard-response",335,263017,"0.0-3.108-0.108","4st023uov0910ze",353,"125.csv","","706.8000000119209","resources/trios/L2T2A2.jpg","39","restless",0.4,0.5,0.7,0.36341177936126,"true"
"image-keyboard-response",336,263426,"0.0-3.108-1.108","4st023uov0910ze",353,"125.csv","","null","resources/maskTrios/BBA2.jpg","null","",NA,NA,NA,NA,""
"image-keyboard-response",337,264636,"0.0-3.108-2.108","4st023uov0910ze",353,"125.csv","","null","resources/images/coin2.png","null","",NA,NA,NA,NA,""
"image-keyboard-response",338,264935,"0.0-3.109-0.109","4st023uov0910ze",353,"125.csv","","298.7999999821186","resources/trios/L2T2A3.jpg","39","restless",0.5,0.5,0.7,0.518141071773531,"true"
"image-keyboard-response",339,265344,"0.0-3.109-1.109","4st023uov0910ze",353,"125.csv","","null","resources/maskTrios/BBA3.jpg","null","",NA,NA,NA,NA,""
"image-keyboard-response",340,266561,"0.0-3.109-2.109","4st023uov0910ze",353,"125.csv","","null","resources/images/coin2.png","null","",NA,NA,NA,NA,""
"image-keyboard-response",341,266746,"0.0-3.110-0.110","4st023uov0910ze",353,"125.csv","","182.09999999403954","resources/trios/L4T1A2.jpg","39","restless",0.5,0.5,0.6,0.200053198750572,"true"
"image-keyboard-response",342,267150,"0.0-3.110-1.110","4st023uov0910ze",353,"125.csv","","null","resources/maskTrios/BBA2.jpg","null","",NA,NA,NA,NA,""
"image-keyboard-response",343,268355,"0.0-3.110-2.110","4st023uov0910ze",353,"125.csv","","null","resources/images/coin2.png","null","",NA,NA,NA,NA,""
"image-keyboard-response",344,268541,"0.0-3.111-0.111","4st023uov0910ze",353,"125.csv","","184.7000000178814","resources/trios/L2T2A2.jpg","39","restless",0.5,0.6,0.6,0.76383726065983,"false"
"image-keyboard-response",345,268944,"0.0-3.111-1.111","4st023uov0910ze",353,"125.csv","","null","resources/maskTrios/BBA2.jpg","null","",NA,NA,NA,NA,""
"image-keyboard-response",346,270156,"0.0-3.111-2.111","4st023uov0910ze",353,"125.csv","","null","resources/images/fishbone.png","null","",NA,NA,NA,NA,""
"image-keyboard-response",347,270277,"0.0-3.112-0.112","4st023uov0910ze",353,"125.csv","","120.59999999403954","resources/trios/L2T1A2.jpg","38","restless",0.5,0.6,0.6,0.633711164681219,"false"
"image-keyboard-response",348,270684,"0.0-3.112-1.112","4st023uov0910ze",353,"125.csv","","null","resources/maskTrios/BT1B.jpg","null","",NA,NA,NA,NA,""
"image-keyboard-response",349,271889,"0.0-3.112-2.112","4st023uov0910ze",353,"125.csv","","null","resources/images/fishbone.png","null","",NA,NA,NA,NA,""
"image-keyboard-response",350,272213,"0.0-3.113-0.113","4st023uov0910ze",353,"125.csv","","323.09999999403954","resources/trios/L2T2A3.jpg","38","restless",0.5,0.6,0.5,0.147223362667159,"true"
"image-keyboard-response",351,272618,"0.0-3.113-1.113","4st023uov0910ze",353,"125.csv","","null","resources/maskTrios/BT2B.jpg","null","",NA,NA,NA,NA,""
"image-keyboard-response",352,273824,"0.0-3.113-2.113","4st023uov0910ze",353,"125.csv","","null","resources/images/coin2.png","null","",NA,NA,NA,NA,""
"image-keyboard-response",353,274000,"0.0-3.114-0.114","4st023uov0910ze",353,"125.csv","","175","resources/trios/L4T1A2.jpg","37","restless",0.5,0.6,0.5,0.156420873197809,"true"
"image-keyboard-response",354,274410,"0.0-3.114-1.114","4st023uov0910ze",353,"125.csv","","null","resources/maskTrios/L4BB.jpg","null","",NA,NA,NA,NA,""
"image-keyboard-response",355,275622,"0.0-3.114-2.114","4st023uov0910ze",353,"125.csv","","null","resources/images/coin2.png","null","",NA,NA,NA,NA,""
"image-keyboard-response",356,275801,"0.0-3.115-0.115","4st023uov0910ze",353,"125.csv","","178.40000000596046","resources/trios/L4T1A2.jpg","37","restless",0.5,0.6,0.5,0.21914189199497,"true"
"image-keyboard-response",357,276208,"0.0-3.115-1.115","4st023uov0910ze",353,"125.csv","","null","resources/maskTrios/L4BB.jpg","null","",NA,NA,NA,NA,""
"image-keyboard-response",358,277414,"0.0-3.115-2.115","4st023uov0910ze",353,"125.csv","","null","resources/images/coin2.png","null","",NA,NA,NA,NA,""
"image-keyboard-response",359,277520,"0.0-3.116-0.116","4st023uov0910ze",353,"125.csv","","103.7999999821186","resources/trios/L4T1A3.jpg","37","restless",0.5,0.6,0.5,0.0801677444080489,"true"
"image-keyboard-response",360,277926,"0.0-3.116-1.116","4st023uov0910ze",353,"125.csv","","null","resources/maskTrios/L4BB.jpg","null","",NA,NA,NA,NA,""
"image-keyboard-response",361,279135,"0.0-3.116-2.116","4st023uov0910ze",353,"125.csv","","null","resources/images/coin2.png","null","",NA,NA,NA,NA,""
"image-keyboard-response",362,279406,"0.0-3.117-0.117","4st023uov0910ze",353,"125.csv","","270","resources/trios/L4T1A2.jpg","37","restless",0.5,0.6,0.5,0.995621991779975,"false"
"image-keyboard-response",363,279813,"0.0-3.117-1.117","4st023uov0910ze",353,"125.csv","","null","resources/maskTrios/L4BB.jpg","null","",NA,NA,NA,NA,""
"image-keyboard-response",364,281019,"0.0-3.117-2.117","4st023uov0910ze",353,"125.csv","","null","resources/images/fishbone.png","null","",NA,NA,NA,NA,""
"image-keyboard-response",365,281379,"0.0-3.118-0.118","4st023uov0910ze",353,"125.csv","","359.5","resources/trios/L4T2A3.jpg","38","restless",0.5,0.6,0.5,0.299907057160096,"true"
"image-keyboard-response",366,281793,"0.0-3.118-1.118","4st023uov0910ze",353,"125.csv","","null","resources/maskTrios/BT2B.jpg","null","",NA,NA,NA,NA,""
"image-keyboard-response",367,283003,"0.0-3.118-2.118","4st023uov0910ze",353,"125.csv","","null","resources/images/coin2.png","null","",NA,NA,NA,NA,""
"image-keyboard-response",368,283229,"0.0-3.119-0.119","4st023uov0910ze",353,"125.csv","","226","resources/trios/L4T1A2.jpg","38","restless",0.5,0.6,0.5,0.347841072415539,"true"
"image-keyboard-response",369,283636,"0.0-3.119-1.119","4st023uov0910ze",353,"125.csv","","null","resources/maskTrios/BT1B.jpg","null","",NA,NA,NA,NA,""
"image-keyboard-response",370,284843,"0.0-3.119-2.119","4st023uov0910ze",353,"125.csv","","null","resources/images/coin2.png","null","",NA,NA,NA,NA,""
"image-keyboard-response",371,284994,"0.0-3.120-0.120","4st023uov0910ze",353,"125.csv","","150.30000001192093","resources/trios/L4T2A2.jpg","38","restless",0.5,0.6,0.5,0.312949913789451,"true"
"image-keyboard-response",372,285400,"0.0-3.120-1.120","4st023uov0910ze",353,"125.csv","","null","resources/maskTrios/BT2B.jpg","null","",NA,NA,NA,NA,""
"image-keyboard-response",373,286607,"0.0-3.120-2.120","4st023uov0910ze",353,"125.csv","","null","resources/images/coin2.png","null","",NA,NA,NA,NA,""
"image-keyboard-response",374,286633,"0.0-3.121-0.121","4st023uov0910ze",353,"125.csv","","24.600000023841858","resources/trios/L2T1A3.jpg","38","restless",0.5,0.6,0.5,0.716593769919608,"false"
"image-keyboard-response",375,287040,"0.0-3.121-1.121","4st023uov0910ze",353,"125.csv","","null","resources/maskTrios/BT1B.jpg","null","",NA,NA,NA,NA,""
"image-keyboard-response",376,288255,"0.0-3.121-2.121","4st023uov0910ze",353,"125.csv","","null","resources/images/fishbone.png","null","",NA,NA,NA,NA,""
"image-keyboard-response",377,288474,"0.0-3.122-0.122","4st023uov0910ze",353,"125.csv","","218","resources/trios/L4T2A2.jpg","38","restless",0.5,0.5,0.4,0.599593890031666,"false"
"image-keyboard-response",378,288889,"0.0-3.122-1.122","4st023uov0910ze",353,"125.csv","","null","resources/maskTrios/BT2B.jpg","null","",NA,NA,NA,NA,""
"image-keyboard-response",379,290098,"0.0-3.122-2.122","4st023uov0910ze",353,"125.csv","","null","resources/images/fishbone.png","null","",NA,NA,NA,NA,""
"image-keyboard-response",380,290329,"0.0-3.123-0.123","4st023uov0910ze",353,"125.csv","","228","resources/trios/L2T1A2.jpg","37","restless",0.5,0.5,0.5,0.609923004807647,"false"
"image-keyboard-response",381,290735,"0.0-3.123-1.123","4st023uov0910ze",353,"125.csv","","null","resources/maskTrios/L2BB.jpg","null","",NA,NA,NA,NA,""
"image-keyboard-response",382,291943,"0.0-3.123-2.123","4st023uov0910ze",353,"125.csv","","null","resources/images/fishbone.png","null","",NA,NA,NA,NA,""
"image-keyboard-response",383,292007,"0.0-3.124-0.124","4st023uov0910ze",353,"125.csv","","61.599999994039536","resources/trios/L4T2A2.jpg","39","restless",0.5,0.5,0.5,0.094474995597112,"true"
"image-keyboard-response",384,292423,"0.0-3.124-1.124","4st023uov0910ze",353,"125.csv","","null","resources/maskTrios/BBA2.jpg","null","",NA,NA,NA,NA,""
"image-keyboard-response",385,293630,"0.0-3.124-2.124","4st023uov0910ze",353,"125.csv","","null","resources/images/coin2.png","null","",NA,NA,NA,NA,""
"image-keyboard-response",386,293882,"0.0-3.125-0.125","4st023uov0910ze",353,"125.csv","","250.09999999403954","resources/trios/L2T1A2.jpg","39","restless",0.5,0.5,0.5,0.343938795006143,"true"
"image-keyboard-response",387,294297,"0.0-3.125-1.125","4st023uov0910ze",353,"125.csv","","null","resources/maskTrios/BBA2.jpg","null","",NA,NA,NA,NA,""
"image-keyboard-response",388,295507,"0.0-3.125-2.125","4st023uov0910ze",353,"125.csv","","null","resources/images/coin2.png","null","",NA,NA,NA,NA,""
"image-keyboard-response",389,295689,"0.0-3.126-0.126","4st023uov0910ze",353,"125.csv","","180.2000000178814","resources/trios/L2T1A2.jpg","39","restless",0.5,0.5,0.5,0.0346196483488554,"true"
"image-keyboard-response",390,296096,"0.0-3.126-1.126","4st023uov0910ze",353,"125.csv","","null","resources/maskTrios/BBA2.jpg","null","",NA,NA,NA,NA,""
"image-keyboard-response",391,297299,"0.0-3.126-2.126","4st023uov0910ze",353,"125.csv","","null","resources/images/coin2.png","null","",NA,NA,NA,NA,""
"image-keyboard-response",392,297450,"0.0-3.127-0.127","4st023uov0910ze",353,"125.csv","","149.69999998807907","resources/trios/L4T2A3.jpg","39","restless",0.5,0.5,0.5,0.398726641751359,"true"
"image-keyboard-response",393,297854,"0.0-3.127-1.127","4st023uov0910ze",353,"125.csv","","null","resources/maskTrios/BBA3.jpg","null","",NA,NA,NA,NA,""
"image-keyboard-response",394,299061,"0.0-3.127-2.127","4st023uov0910ze",353,"125.csv","","null","resources/images/coin2.png","null","",NA,NA,NA,NA,""
"image-keyboard-response",395,299359,"0.0-3.128-0.128","4st023uov0910ze",353,"125.csv","","294.19999998807907","resources/trios/L2T1A2.jpg","39","restless",0.5,0.5,0.5,0.54264009889048,"false"
"image-keyboard-response",396,299772,"0.0-3.128-1.128","4st023uov0910ze",353,"125.csv","","null","resources/maskTrios/BBA2.jpg","null","",NA,NA,NA,NA,""
"image-keyboard-response",397,300980,"0.0-3.128-2.128","4st023uov0910ze",353,"125.csv","","null","resources/images/fishbone.png","null","",NA,NA,NA,NA,""
"image-keyboard-response",398,301172,"0.0-3.129-0.129","4st023uov0910ze",353,"125.csv","","190.59999999403954","resources/trios/L2T1A3.jpg","39","restless",0.5,0.5,0.5,0.772772737175521,"false"
"image-keyboard-response",399,301583,"0.0-3.129-1.129","4st023uov0910ze",353,"125.csv","","null","resources/maskTrios/BBA3.jpg","null","",NA,NA,NA,NA,""
"image-keyboard-response",400,302790,"0.0-3.129-2.129","4st023uov0910ze",353,"125.csv","","null","resources/images/fishbone.png","null","",NA,NA,NA,NA,""
"image-keyboard-response",401,302940,"0.0-3.130-0.130","4st023uov0910ze",353,"125.csv","","149","resources/trios/L4T2A3.jpg","38","restless",0.5,0.5,0.5,0.93942417248129,"false"
"image-keyboard-response",402,303348,"0.0-3.130-1.130","4st023uov0910ze",353,"125.csv","","null","resources/maskTrios/BT2B.jpg","null","",NA,NA,NA,NA,""
"image-keyboard-response",403,304554,"0.0-3.130-2.130","4st023uov0910ze",353,"125.csv","","null","resources/images/fishbone.png","null","",NA,NA,NA,NA,""
"image-keyboard-response",404,304854,"0.0-3.131-0.131","4st023uov0910ze",353,"125.csv","","298.90000000596046","resources/trios/L4T2A2.jpg","38","restless",0.5,0.6,0.5,0.90639450602097,"false"
"image-keyboard-response",405,305267,"0.0-3.131-1.131","4st023uov0910ze",353,"125.csv","","null","resources/maskTrios/BT2B.jpg","null","",NA,NA,NA,NA,""
"image-keyboard-response",406,306476,"0.0-3.131-2.131","4st023uov0910ze",353,"125.csv","","null","resources/images/fishbone.png","null","",NA,NA,NA,NA,""
"image-keyboard-response",407,306506,"0.0-3.132-0.132","4st023uov0910ze",353,"125.csv","","29.30000001192093","resources/trios/L4T2A2.jpg","37","restless",0.4,0.6,0.5,0.393489806487126,"true"
"image-keyboard-response",408,306911,"0.0-3.132-1.132","4st023uov0910ze",353,"125.csv","","null","resources/maskTrios/L4BB.jpg","null","",NA,NA,NA,NA,""
"image-keyboard-response",409,308117,"0.0-3.132-2.132","4st023uov0910ze",353,"125.csv","","null","resources/images/coin2.png","null","",NA,NA,NA,NA,""
"image-keyboard-response",410,308294,"0.0-3.133-0.133","4st023uov0910ze",353,"125.csv","","176.69999998807907","resources/trios/L4T1A2.jpg","37","restless",0.4,0.6,0.5,0.65000362792573,"false"
"image-keyboard-response",411,308707,"0.0-3.133-1.133","4st023uov0910ze",353,"125.csv","","null","resources/maskTrios/L4BB.jpg","null","",NA,NA,NA,NA,""
"image-keyboard-response",412,309914,"0.0-3.133-2.133","4st023uov0910ze",353,"125.csv","","null","resources/images/fishbone.png","null","",NA,NA,NA,NA,""
"image-keyboard-response",413,310161,"0.0-3.134-0.134","4st023uov0910ze",353,"125.csv","","245.80000001192093","resources/trios/L4T1A2.jpg","37","restless",0.4,0.6,0.5,0.560339125947124,"false"
"image-keyboard-response",414,310563,"0.0-3.134-1.134","4st023uov0910ze",353,"125.csv","","null","resources/maskTrios/L4BB.jpg","null","",NA,NA,NA,NA,""
"image-keyboard-response",415,311769,"0.0-3.134-2.134","4st023uov0910ze",353,"125.csv","","null","resources/images/fishbone.png","null","",NA,NA,NA,NA,""
"image-keyboard-response",416,311990,"0.0-3.135-0.135","4st023uov0910ze",353,"125.csv","","220.89999997615814","resources/trios/L2T2A2.jpg","38","restless",0.4,0.6,0.5,0.338924222117127,"true"
"image-keyboard-response",417,312404,"0.0-3.135-1.135","4st023uov0910ze",353,"125.csv","","null","resources/maskTrios/BT2B.jpg","null","",NA,NA,NA,NA,""
"image-keyboard-response",418,313618,"0.0-3.135-2.135","4st023uov0910ze",353,"125.csv","","null","resources/images/coin2.png","null","",NA,NA,NA,NA,""
"image-keyboard-response",419,313782,"0.0-3.136-0.136","4st023uov0910ze",353,"125.csv","","164","resources/trios/L2T1A3.jpg","38","restless",0.3,0.6,0.5,0.624269368761872,"false"
"image-keyboard-response",420,314191,"0.0-3.136-1.136","4st023uov0910ze",353,"125.csv","","null","resources/maskTrios/BT1B.jpg","null","",NA,NA,NA,NA,""
"image-keyboard-response",421,315396,"0.0-3.136-2.136","4st023uov0910ze",353,"125.csv","","null","resources/images/fishbone.png","null","",NA,NA,NA,NA,""
"image-keyboard-response",422,315652,"0.0-3.137-0.137","4st023uov0910ze",353,"125.csv","","253.59999999403954","resources/trios/L2T1A3.jpg","39","restless",0.3,0.6,0.5,0.116518300168304,"true"
"image-keyboard-response",423,316062,"0.0-3.137-1.137","4st023uov0910ze",353,"125.csv","","null","resources/maskTrios/BBA3.jpg","null","",NA,NA,NA,NA,""
"image-keyboard-response",424,317267,"0.0-3.137-2.137","4st023uov0910ze",353,"125.csv","","null","resources/images/coin2.png","null","",NA,NA,NA,NA,""
"image-keyboard-response",425,317517,"0.0-3.138-0.138","4st023uov0910ze",353,"125.csv","","249.80000001192093","resources/trios/L4T2A3.jpg","39","restless",0.3,0.6,0.5,0.771615007655739,"false"
"image-keyboard-response",426,317933,"0.0-3.138-1.138","4st023uov0910ze",353,"125.csv","","null","resources/maskTrios/BBA3.jpg","null","",NA,NA,NA,NA,""
"image-keyboard-response",427,319139,"0.0-3.138-2.138","4st023uov0910ze",353,"125.csv","","null","resources/images/fishbone.png","null","",NA,NA,NA,NA,""
"image-keyboard-response",428,319943,"0.0-3.139-0.139","4st023uov0910ze",353,"125.csv","","804","resources/trios/L2T1A3.jpg","39","restless",0.2,0.6,0.5,0.231201903055716,"true"
"image-keyboard-response",429,320344,"0.0-3.139-1.139","4st023uov0910ze",353,"125.csv","","null","resources/maskTrios/BBA3.jpg","null","",NA,NA,NA,NA,""
"image-keyboard-response",430,321555,"0.0-3.139-2.139","4st023uov0910ze",353,"125.csv","","null","resources/images/coin2.png","null","",NA,NA,NA,NA,""
"image-keyboard-response",431,322203,"0.0-3.140-0.140","4st023uov0910ze",353,"125.csv","","647.7999999821186","resources/trios/L2T2A3.jpg","37","restless",0.2,0.6,0.5,0.843711785476593,"false"
"image-keyboard-response",432,322608,"0.0-3.140-1.140","4st023uov0910ze",353,"125.csv","","null","resources/maskTrios/L2BB.jpg","null","",NA,NA,NA,NA,""
"image-keyboard-response",433,323816,"0.0-3.140-2.140","4st023uov0910ze",353,"125.csv","","null","resources/images/fishbone.png","null","",NA,NA,NA,NA,""
"image-keyboard-response",434,324001,"0.0-3.141-0.141","4st023uov0910ze",353,"125.csv","","183.90000000596046","resources/trios/L2T2A3.jpg","38","restless",0.1,0.6,0.5,0.0199517391446287,"true"
"image-keyboard-response",435,324404,"0.0-3.141-1.141","4st023uov0910ze",353,"125.csv","","null","resources/maskTrios/BT2B.jpg","null","",NA,NA,NA,NA,""
"image-keyboard-response",436,325613,"0.0-3.141-2.141","4st023uov0910ze",353,"125.csv","","null","resources/images/coin2.png","null","",NA,NA,NA,NA,""
"image-keyboard-response",437,325644,"0.0-3.142-0.142","4st023uov0910ze",353,"125.csv","","30.200000017881393","resources/trios/L2T1A3.jpg","38","restless",0.1,0.6,0.4,0.944125312720018,"false"
"image-keyboard-response",438,326048,"0.0-3.142-1.142","4st023uov0910ze",353,"125.csv","","null","resources/maskTrios/BT1B.jpg","null","",NA,NA,NA,NA,""
"image-keyboard-response",439,327254,"0.0-3.142-2.142","4st023uov0910ze",353,"125.csv","","null","resources/images/fishbone.png","null","",NA,NA,NA,NA,""
"image-keyboard-response",440,327417,"0.0-3.143-0.143","4st023uov0910ze",353,"125.csv","","161.10000002384186","resources/trios/L4T2A3.jpg","39","restless",0.1,0.6,0.4,0.758581061999169,"false"
"image-keyboard-response",441,327828,"0.0-3.143-1.143","4st023uov0910ze",353,"125.csv","","null","resources/maskTrios/BBA3.jpg","null","",NA,NA,NA,NA,""
"image-keyboard-response",442,329040,"0.0-3.143-2.143","4st023uov0910ze",353,"125.csv","","null","resources/images/fishbone.png","null","",NA,NA,NA,NA,""
"image-keyboard-response",443,329177,"0.0-3.144-0.144","4st023uov0910ze",353,"125.csv","","136.59999999403954","resources/trios/L4T1A3.jpg","39","restless",0.1,0.6,0.4,0.306237800314176,"true"
"image-keyboard-response",444,329577,"0.0-3.144-1.144","4st023uov0910ze",353,"125.csv","","null","resources/maskTrios/BBA3.jpg","null","",NA,NA,NA,NA,""
"image-keyboard-response",445,330787,"0.0-3.144-2.144","4st023uov0910ze",353,"125.csv","","null","resources/images/coin2.png","null","",NA,NA,NA,NA,""
"image-keyboard-response",446,331016,"0.0-3.145-0.145","4st023uov0910ze",353,"125.csv","","229.30000001192093","resources/trios/L4T1A3.jpg","39","restless",0.1,0.6,0.4,0.835658763096979,"false"
"image-keyboard-response",447,331422,"0.0-3.145-1.145","4st023uov0910ze",353,"125.csv","","null","resources/maskTrios/BBA3.jpg","null","",NA,NA,NA,NA,""
"image-keyboard-response",448,332625,"0.0-3.145-2.145","4st023uov0910ze",353,"125.csv","","null","resources/images/fishbone.png","null","",NA,NA,NA,NA,""
"image-keyboard-response",449,332858,"0.0-3.146-0.146","4st023uov0910ze",353,"125.csv","","231.59999999403954","resources/trios/L2T1A2.jpg","37","restless",0.1,0.6,0.4,0.876095037774456,"false"
"image-keyboard-response",450,333273,"0.0-3.146-1.146","4st023uov0910ze",353,"125.csv","","null","resources/maskTrios/L2BB.jpg","null","",NA,NA,NA,NA,""
"image-keyboard-response",451,334478,"0.0-3.146-2.146","4st023uov0910ze",353,"125.csv","","null","resources/images/fishbone.png","null","",NA,NA,NA,NA,""
"image-keyboard-response",452,334802,"0.0-3.147-0.147","4st023uov0910ze",353,"125.csv","","321.7000000178814","resources/trios/L2T2A2.jpg","39","restless",0.1,0.6,0.4,0.417872573914382,"false"
"image-keyboard-response",453,335210,"0.0-3.147-1.147","4st023uov0910ze",353,"125.csv","","null","resources/maskTrios/BBA2.jpg","null","",NA,NA,NA,NA,""
"image-keyboard-response",454,336414,"0.0-3.147-2.147","4st023uov0910ze",353,"125.csv","","null","resources/images/fishbone.png","null","",NA,NA,NA,NA,""
"image-keyboard-response",455,336420,"0.0-3.148-0.148","4st023uov0910ze",353,"125.csv","","5.699999988079071","resources/trios/L2T1A2.jpg","38","restless",0.1,0.6,0.5,0.386143392748887,"true"
"image-keyboard-response",456,336833,"0.0-3.148-1.148","4st023uov0910ze",353,"125.csv","","null","resources/maskTrios/BT1B.jpg","null","",NA,NA,NA,NA,""
"image-keyboard-response",457,338044,"0.0-3.148-2.148","4st023uov0910ze",353,"125.csv","","null","resources/images/coin2.png","null","",NA,NA,NA,NA,""
"image-keyboard-response",458,338121,"0.0-3.149-0.149","4st023uov0910ze",353,"125.csv","","75.40000000596046","resources/trios/L2T2A3.jpg","38","restless",0.1,0.6,0.4,0.973630788274073,"false"
"image-keyboard-response",459,338525,"0.0-3.149-1.149","4st023uov0910ze",353,"125.csv","","null","resources/maskTrios/BT2B.jpg","null","",NA,NA,NA,NA,""
"image-keyboard-response",460,339733,"0.0-3.149-2.149","4st023uov0910ze",353,"125.csv","","null","resources/images/fishbone.png","null","",NA,NA,NA,NA,""
"image-keyboard-response",461,340457,"0.0-3.150-0.150","4st023uov0910ze",353,"125.csv","","722.7999999821186","resources/trios/L4T1A3.jpg","38","restless",0.1,0.6,0.4,0.788786463658088,"false"
"image-keyboard-response",462,340862,"0.0-3.150-1.150","4st023uov0910ze",353,"125.csv","","null","resources/maskTrios/BT1B.jpg","null","",NA,NA,NA,NA,""
"image-keyboard-response",463,342072,"0.0-3.150-2.150","4st023uov0910ze",353,"125.csv","","null","resources/images/fishbone.png","null","",NA,NA,NA,NA,""
"image-keyboard-response",464,342275,"0.0-3.151-0.151","4st023uov0910ze",353,"125.csv","","202.30000001192093","resources/trios/L4T2A3.jpg","37","restless",0.1,0.6,0.4,0.233063689204549,"false"
"image-keyboard-response",465,342678,"0.0-3.151-1.151","4st023uov0910ze",353,"125.csv","","null","resources/maskTrios/L4BB.jpg","null","",NA,NA,NA,NA,""
"image-keyboard-response",466,343889,"0.0-3.151-2.151","4st023uov0910ze",353,"125.csv","","null","resources/images/fishbone.png","null","",NA,NA,NA,NA,""
"image-keyboard-response",467,343895,"0.0-3.152-0.152","4st023uov0910ze",353,"125.csv","","5.199999988079071","resources/trios/L4T1A3.jpg","37","restless",0.1,0.7,0.4,0.21373538439161,"false"
"image-keyboard-response",468,344307,"0.0-3.152-1.152","4st023uov0910ze",353,"125.csv","","null","resources/maskTrios/L4BB.jpg","null","",NA,NA,NA,NA,""
"image-keyboard-response",469,345518,"0.0-3.152-2.152","4st023uov0910ze",353,"125.csv","","null","resources/images/fishbone.png","null","",NA,NA,NA,NA,""
"image-keyboard-response",470,345614,"0.0-3.153-0.153","4st023uov0910ze",353,"125.csv","","95.39999997615814","resources/trios/L2T1A2.jpg","39","restless",0.1,0.7,0.4,0.733031802613981,"false"
"image-keyboard-response",471,346016,"0.0-3.153-1.153","4st023uov0910ze",353,"125.csv","","null","resources/maskTrios/BBA2.jpg","null","",NA,NA,NA,NA,""
"image-keyboard-response",472,347224,"0.0-3.153-2.153","4st023uov0910ze",353,"125.csv","","null","resources/images/fishbone.png","null","",NA,NA,NA,NA,""
"image-keyboard-response",473,347379,"0.0-3.154-0.154","4st023uov0910ze",353,"125.csv","","154.5","resources/trios/L2T2A2.jpg","37","restless",0.1,0.7,0.4,0.689377629814386,"false"
"image-keyboard-response",474,347787,"0.0-3.154-1.154","4st023uov0910ze",353,"125.csv","","null","resources/maskTrios/L2BB.jpg","null","",NA,NA,NA,NA,""
"image-keyboard-response",475,348999,"0.0-3.154-2.154","4st023uov0910ze",353,"125.csv","","null","resources/images/fishbone.png","null","",NA,NA,NA,NA,""
"image-keyboard-response",476,349364,"0.0-3.155-0.155","4st023uov0910ze",353,"125.csv","","363.59999999403954","resources/trios/L4T1A2.jpg","39","restless",0.1,0.8,0.4,0.0902794438852301,"true"
"image-keyboard-response",477,349774,"0.0-3.155-1.155","4st023uov0910ze",353,"125.csv","","null","resources/maskTrios/BBA2.jpg","null","",NA,NA,NA,NA,""
"image-keyboard-response",478,350985,"0.0-3.155-2.155","4st023uov0910ze",353,"125.csv","","null","resources/images/coin2.png","null","",NA,NA,NA,NA,""
"image-keyboard-response",479,351192,"0.0-3.156-0.156","4st023uov0910ze",353,"125.csv","","206.09999999403954","resources/trios/L2T1A3.jpg","39","restless",0.1,0.8,0.4,0.482045370409903,"false"
"image-keyboard-response",480,351603,"0.0-3.156-1.156","4st023uov0910ze",353,"125.csv","","null","resources/maskTrios/BBA3.jpg","null","",NA,NA,NA,NA,""
"image-keyboard-response",481,352812,"0.0-3.156-2.156","4st023uov0910ze",353,"125.csv","","null","resources/images/fishbone.png","null","",NA,NA,NA,NA,""
"image-keyboard-response",482,353002,"0.0-3.157-0.157","4st023uov0910ze",353,"125.csv","","187.2999999821186","resources/trios/L2T2A3.jpg","39","restless",0.1,0.7,0.4,0.784753105453829,"false"
"image-keyboard-response",483,353414,"0.0-3.157-1.157","4st023uov0910ze",353,"125.csv","","null","resources/maskTrios/BBA3.jpg","null","",NA,NA,NA,NA,""
"image-keyboard-response",484,354621,"0.0-3.157-2.157","4st023uov0910ze",353,"125.csv","","null","resources/images/fishbone.png","null","",NA,NA,NA,NA,""
"image-keyboard-response",485,354724,"0.0-3.158-0.158","4st023uov0910ze",353,"125.csv","","101.90000000596046","resources/trios/L4T1A2.jpg","38","restless",0.1,0.7,0.4,0.991644770978861,"false"
"image-keyboard-response",486,355134,"0.0-3.158-1.158","4st023uov0910ze",353,"125.csv","","null","resources/maskTrios/BT1B.jpg","null","",NA,NA,NA,NA,""
"image-keyboard-response",487,356340,"0.0-3.158-2.158","4st023uov0910ze",353,"125.csv","","null","resources/images/fishbone.png","null","",NA,NA,NA,NA,""
"image-keyboard-response",488,356579,"0.0-3.159-0.159","4st023uov0910ze",353,"125.csv","","237.69999998807907","resources/trios/L4T2A3.jpg","38","restless",0.1,0.7,0.4,0.342449030358334,"true"
"image-keyboard-response",489,356991,"0.0-3.159-1.159","4st023uov0910ze",353,"125.csv","","null","resources/maskTrios/BT2B.jpg","null","",NA,NA,NA,NA,""
"image-keyboard-response",490,358202,"0.0-3.159-2.159","4st023uov0910ze",353,"125.csv","","null","resources/images/coin2.png","null","",NA,NA,NA,NA,""
"image-keyboard-response",491,358352,"0.0-3.160-0.160","4st023uov0910ze",353,"125.csv","","149.80000001192093","resources/trios/L4T2A2.jpg","38","restless",0.1,0.7,0.4,0.00144212389518672,"true"
"image-keyboard-response",492,358760,"0.0-3.160-1.160","4st023uov0910ze",353,"125.csv","","null","resources/maskTrios/BT2B.jpg","null","",NA,NA,NA,NA,""
"image-keyboard-response",493,359966,"0.0-3.160-2.160","4st023uov0910ze",353,"125.csv","","null","resources/images/coin2.png","null","",NA,NA,NA,NA,""
"image-keyboard-response",494,360188,"0.0-3.161-0.161","4st023uov0910ze",353,"125.csv","","221.7999999821186","resources/trios/L2T1A2.jpg","38","restless",0.1,0.7,0.4,0.596198732804319,"true"
"image-keyboard-response",495,360599,"0.0-3.161-1.161","4st023uov0910ze",353,"125.csv","","null","resources/maskTrios/BT1B.jpg","null","",NA,NA,NA,NA,""
"image-keyboard-response",496,361803,"0.0-3.161-2.161","4st023uov0910ze",353,"125.csv","","null","resources/images/coin2.png","null","",NA,NA,NA,NA,""
"image-keyboard-response",497,361879,"0.0-3.162-0.162","4st023uov0910ze",353,"125.csv","","75.59999999403954","resources/trios/L4T2A2.jpg","38","restless",0.1,0.7,0.4,0.255983458964873,"true"
"image-keyboard-response",498,362282,"0.0-3.162-1.162","4st023uov0910ze",353,"125.csv","","null","resources/maskTrios/BT2B.jpg","null","",NA,NA,NA,NA,""
"image-keyboard-response",499,363490,"0.0-3.162-2.162","4st023uov0910ze",353,"125.csv","","null","resources/images/coin2.png","null","",NA,NA,NA,NA,""
"image-keyboard-response",500,363525,"0.0-3.163-0.163","4st023uov0910ze",353,"125.csv","","33.599999994039536","resources/trios/L4T1A2.jpg","38","restless",0.1,0.7,0.4,0.826885689695568,"false"
"image-keyboard-response",501,363937,"0.0-3.163-1.163","4st023uov0910ze",353,"125.csv","","null","resources/maskTrios/BT1B.jpg","null","",NA,NA,NA,NA,""
"image-keyboard-response",502,365146,"0.0-3.163-2.163","4st023uov0910ze",353,"125.csv","","null","resources/images/fishbone.png","null","",NA,NA,NA,NA,""
"image-keyboard-response",503,365229,"0.0-3.164-0.164","4st023uov0910ze",353,"125.csv","","82.59999999403954","resources/trios/L2T2A2.jpg","37","restless",0.1,0.7,0.4,0.628187984976342,"false"
"image-keyboard-response",504,365642,"0.0-3.164-1.164","4st023uov0910ze",353,"125.csv","","null","resources/maskTrios/L2BB.jpg","null","",NA,NA,NA,NA,""
"image-keyboard-response",505,366848,"0.0-3.164-2.164","4st023uov0910ze",353,"125.csv","","null","resources/images/fishbone.png","null","",NA,NA,NA,NA,""
"image-keyboard-response",506,368795,"0.0-3.165-0.165","4st023uov0910ze",353,"125.csv","","1946.4000000059605","resources/trios/L2T2A3.jpg","37","restless",0.2,0.7,0.5,0.66241927211867,"false"
"image-keyboard-response",507,369203,"0.0-3.165-1.165","4st023uov0910ze",353,"125.csv","","null","resources/maskTrios/L2BB.jpg","null","",NA,NA,NA,NA,""
"image-keyboard-response",508,370410,"0.0-3.165-2.165","4st023uov0910ze",353,"125.csv","","null","resources/images/fishbone.png","null","",NA,NA,NA,NA,""
"image-keyboard-response",509,370922,"0.0-3.166-0.166","4st023uov0910ze",353,"125.csv","","509.7999999821186","resources/trios/L2T1A2.jpg","37","restless",0.2,0.7,0.5,0.630828485042173,"false"
"image-keyboard-response",510,371339,"0.0-3.166-1.166","4st023uov0910ze",353,"125.csv","","null","resources/maskTrios/L2BB.jpg","null","",NA,NA,NA,NA,""
"image-keyboard-response",511,372548,"0.0-3.166-2.166","4st023uov0910ze",353,"125.csv","","null","resources/images/fishbone.png","null","",NA,NA,NA,NA,""
"image-keyboard-response",512,374011,"0.0-3.167-0.167","4st023uov0910ze",353,"125.csv","","1460.6000000238419","resources/trios/L2T1A2.jpg","39","restless",0.2,0.7,0.5,0.0852017701874868,"true"
"image-keyboard-response",513,374415,"0.0-3.167-1.167","4st023uov0910ze",353,"125.csv","","null","resources/maskTrios/BBA2.jpg","null","",NA,NA,NA,NA,""
"image-keyboard-response",514,375624,"0.0-3.167-2.167","4st023uov0910ze",353,"125.csv","","null","resources/images/coin2.png","null","",NA,NA,NA,NA,""
"image-keyboard-response",515,379989,"0.0-3.168-0.168","4st023uov0910ze",353,"125.csv","","4364.0999999940395","resources/trios/L4T1A3.jpg","37","restless",0.2,0.7,0.5,0.925623134742806,"false"
"image-keyboard-response",516,380399,"0.0-3.168-1.168","4st023uov0910ze",353,"125.csv","","null","resources/maskTrios/L4BB.jpg","null","",NA,NA,NA,NA,""
"image-keyboard-response",517,381607,"0.0-3.168-2.168","4st023uov0910ze",353,"125.csv","","null","resources/images/fishbone.png","null","",NA,NA,NA,NA,""
"image-keyboard-response",518,383251,"0.0-3.169-0.169","4st023uov0910ze",353,"125.csv","","1643.2999999821186","resources/trios/L4T2A2.jpg","38","restless",0.2,0.7,0.5,0.428763112197372,"true"
"image-keyboard-response",519,383666,"0.0-3.169-1.169","4st023uov0910ze",353,"125.csv","","null","resources/maskTrios/BT2B.jpg","null","",NA,NA,NA,NA,""
"image-keyboard-response",520,384871,"0.0-3.169-2.169","4st023uov0910ze",353,"125.csv","","null","resources/images/coin2.png","null","",NA,NA,NA,NA,""
"image-keyboard-response",521,385112,"0.0-3.170-0.170","4st023uov0910ze",353,"125.csv","","239.5","resources/trios/L4T2A3.jpg","38","restless",0.2,0.7,0.5,0.251060746082891,"true"
"image-keyboard-response",522,385524,"0.0-3.170-1.170","4st023uov0910ze",353,"125.csv","","null","resources/maskTrios/BT2B.jpg","null","",NA,NA,NA,NA,""
"image-keyboard-response",523,386731,"0.0-3.170-2.170","4st023uov0910ze",353,"125.csv","","null","resources/images/coin2.png","null","",NA,NA,NA,NA,""
"image-keyboard-response",524,387019,"0.0-3.171-0.171","4st023uov0910ze",353,"125.csv","","287.69999998807907","resources/trios/L4T2A3.jpg","38","restless",0.2,0.7,0.5,0.308818580059652,"true"
"image-keyboard-response",525,387427,"0.0-3.171-1.171","4st023uov0910ze",353,"125.csv","","null","resources/maskTrios/BT2B.jpg","null","",NA,NA,NA,NA,""
"image-keyboard-response",526,388628,"0.0-3.171-2.171","4st023uov0910ze",353,"125.csv","","null","resources/images/coin2.png","null","",NA,NA,NA,NA,""
"image-keyboard-response",527,389345,"0.0-3.172-0.172","4st023uov0910ze",353,"125.csv","","716.3000000119209","resources/trios/L2T2A2.jpg","37","restless",0.2,0.7,0.5,0.566383417058206,"false"
"image-keyboard-response",528,389760,"0.0-3.172-1.172","4st023uov0910ze",353,"125.csv","","null","resources/maskTrios/L2BB.jpg","null","",NA,NA,NA,NA,""
"image-keyboard-response",529,390966,"0.0-3.172-2.172","4st023uov0910ze",353,"125.csv","","null","resources/images/fishbone.png","null","",NA,NA,NA,NA,""
"image-keyboard-response",530,391349,"0.0-3.173-0.173","4st023uov0910ze",353,"125.csv","","381.5","resources/trios/L2T1A2.jpg","39","restless",0.2,0.7,0.5,0.61434482205709,"false"
"image-keyboard-response",531,391756,"0.0-3.173-1.173","4st023uov0910ze",353,"125.csv","","null","resources/maskTrios/BBA2.jpg","null","",NA,NA,NA,NA,""
"image-keyboard-response",532,392966,"0.0-3.173-2.173","4st023uov0910ze",353,"125.csv","","null","resources/images/fishbone.png","null","",NA,NA,NA,NA,""
"image-keyboard-response",533,397677,"0.0-3.174-0.174","4st023uov0910ze",353,"125.csv","","4709.699999988079","resources/trios/L2T1A2.jpg","39","restless",0.2,0.7,0.5,0.911683621123892,"false"
"image-keyboard-response",534,398092,"0.0-3.174-1.174","4st023uov0910ze",353,"125.csv","","null","resources/maskTrios/BBA2.jpg","null","",NA,NA,NA,NA,""
"image-keyboard-response",535,399307,"0.0-3.174-2.174","4st023uov0910ze",353,"125.csv","","null","resources/images/fishbone.png","null","",NA,NA,NA,NA,""
"image-keyboard-response",536,399637,"0.0-3.175-0.175","4st023uov0910ze",353,"125.csv","","328.59999999403954","resources/trios/L2T1A2.jpg","37","restless",0.2,0.7,0.5,0.97808301077717,"false"
"image-keyboard-response",537,400052,"0.0-3.175-1.175","4st023uov0910ze",353,"125.csv","","null","resources/maskTrios/L2BB.jpg","null","",NA,NA,NA,NA,""
"image-keyboard-response",538,401260,"0.0-3.175-2.175","4st023uov0910ze",353,"125.csv","","null","resources/images/fishbone.png","null","",NA,NA,NA,NA,""
"image-keyboard-response",539,403362,"0.0-3.176-0.176","4st023uov0910ze",353,"125.csv","","2101.300000011921","resources/trios/L2T1A3.jpg","37","restless",0.2,0.7,0.6,0.423966688040042,"false"
"image-keyboard-response",540,403766,"0.0-3.176-1.176","4st023uov0910ze",353,"125.csv","","null","resources/maskTrios/L2BB.jpg","null","",NA,NA,NA,NA,""
"image-keyboard-response",541,404968,"0.0-3.176-2.176","4st023uov0910ze",353,"125.csv","","null","resources/images/fishbone.png","null","",NA,NA,NA,NA,""
"image-keyboard-response",542,407920,"0.0-3.177-0.177","4st023uov0910ze",353,"125.csv","","2952.0999999940395","resources/trios/L4T1A3.jpg","38","restless",0.1,0.7,0.6,0.628328988531266,"true"
"image-keyboard-response",543,408335,"0.0-3.177-1.177","4st023uov0910ze",353,"125.csv","","null","resources/maskTrios/BT1B.jpg","null","",NA,NA,NA,NA,""
"image-keyboard-response",544,409540,"0.0-3.177-2.177","4st023uov0910ze",353,"125.csv","","null","resources/images/coin2.png","null","",NA,NA,NA,NA,""
"image-keyboard-response",545,410402,"0.0-3.178-0.178","4st023uov0910ze",353,"125.csv","","860.6999999880791","resources/trios/L4T2A3.jpg","38","restless",0.1,0.7,0.6,0.933700482321691,"false"
"image-keyboard-response",546,410810,"0.0-3.178-1.178","4st023uov0910ze",353,"125.csv","","null","resources/maskTrios/BT2B.jpg","null","",NA,NA,NA,NA,""
"image-keyboard-response",547,412017,"0.0-3.178-2.178","4st023uov0910ze",353,"125.csv","","null","resources/images/fishbone.png","null","",NA,NA,NA,NA,""
"image-keyboard-response",548,412291,"0.0-3.179-0.179","4st023uov0910ze",353,"125.csv","","273.59999999403954","resources/trios/L4T1A2.jpg","39","restless",0.1,0.7,0.5,0.526915205386212,"false"
"image-keyboard-response",549,412698,"0.0-3.179-1.179","4st023uov0910ze",353,"125.csv","","null","resources/maskTrios/BBA2.jpg","null","",NA,NA,NA,NA,""
"image-keyboard-response",550,413901,"0.0-3.179-2.179","4st023uov0910ze",353,"125.csv","","null","resources/images/fishbone.png","null","",NA,NA,NA,NA,""
"image-keyboard-response",551,414167,"0.0-3.180-0.180","4st023uov0910ze",353,"125.csv","","265.5","resources/trios/L4T1A2.jpg","38","restless",0.1,0.7,0.6,0.132608715530901,"true"
"image-keyboard-response",552,414581,"0.0-3.180-1.180","4st023uov0910ze",353,"125.csv","","null","resources/maskTrios/BT1B.jpg","null","",NA,NA,NA,NA,""
"image-keyboard-response",553,415784,"0.0-3.180-2.180","4st023uov0910ze",353,"125.csv","","null","resources/images/coin2.png","null","",NA,NA,NA,NA,""
"image-keyboard-response",554,416366,"0.0-3.181-0.181","4st023uov0910ze",353,"125.csv","","581.5","resources/trios/L2T1A2.jpg","37","restless",0.1,0.7,0.6,0.889647867914474,"false"
"image-keyboard-response",555,416772,"0.0-3.181-1.181","4st023uov0910ze",353,"125.csv","","null","resources/maskTrios/L2BB.jpg","null","",NA,NA,NA,NA,""
"image-keyboard-response",556,417983,"0.0-3.181-2.181","4st023uov0910ze",353,"125.csv","","null","resources/images/fishbone.png","null","",NA,NA,NA,NA,""
"image-keyboard-response",557,418383,"0.0-3.182-0.182","4st023uov0910ze",353,"125.csv","","398.80000001192093","resources/trios/L4T1A3.jpg","38","restless",0.2,0.6,0.6,0.213551824806127,"true"
"image-keyboard-response",558,418787,"0.0-3.182-1.182","4st023uov0910ze",353,"125.csv","","null","resources/maskTrios/BT1B.jpg","null","",NA,NA,NA,NA,""
"image-keyboard-response",559,419998,"0.0-3.182-2.182","4st023uov0910ze",353,"125.csv","","null","resources/images/coin2.png","null","",NA,NA,NA,NA,""
"image-keyboard-response",560,420320,"0.0-3.183-0.183","4st023uov0910ze",353,"125.csv","","320.7000000178814","resources/trios/L2T1A3.jpg","38","restless",0.2,0.6,0.6,0.326755374487669,"true"
"image-keyboard-response",561,420723,"0.0-3.183-1.183","4st023uov0910ze",353,"125.csv","","null","resources/maskTrios/BT1B.jpg","null","",NA,NA,NA,NA,""
"image-keyboard-response",562,421929,"0.0-3.183-2.183","4st023uov0910ze",353,"125.csv","","null","resources/images/coin2.png","null","",NA,NA,NA,NA,""
"image-keyboard-response",563,422250,"0.0-3.184-0.184","4st023uov0910ze",353,"125.csv","","321.09999999403954","resources/trios/L4T2A2.jpg","38","restless",0.2,0.6,0.6,0.468809131126517,"true"
"image-keyboard-response",564,422658,"0.0-3.184-1.184","4st023uov0910ze",353,"125.csv","","null","resources/maskTrios/BT2B.jpg","null","",NA,NA,NA,NA,""
"image-keyboard-response",565,423866,"0.0-3.184-2.184","4st023uov0910ze",353,"125.csv","","null","resources/images/coin2.png","null","",NA,NA,NA,NA,""
"image-keyboard-response",566,424040,"0.0-3.185-0.185","4st023uov0910ze",353,"125.csv","","173.09999999403954","resources/trios/L2T1A2.jpg","38","restless",0.2,0.6,0.5,0.161024537463065,"true"
"image-keyboard-response",567,424455,"0.0-3.185-1.185","4st023uov0910ze",353,"125.csv","","null","resources/maskTrios/BT1B.jpg","null","",NA,NA,NA,NA,""
"image-keyboard-response",568,425659,"0.0-3.185-2.185","4st023uov0910ze",353,"125.csv","","null","resources/images/coin2.png","null","",NA,NA,NA,NA,""
"image-keyboard-response",569,425872,"0.0-3.186-0.186","4st023uov0910ze",353,"125.csv","","211.19999998807907","resources/trios/L2T1A3.jpg","38","restless",0.3,0.6,0.5,0.0805028676385795,"true"
"image-keyboard-response",570,426278,"0.0-3.186-1.186","4st023uov0910ze",353,"125.csv","","null","resources/maskTrios/BT1B.jpg","null","",NA,NA,NA,NA,""
"image-keyboard-response",571,427487,"0.0-3.186-2.186","4st023uov0910ze",353,"125.csv","","null","resources/images/coin2.png","null","",NA,NA,NA,NA,""
"image-keyboard-response",572,427863,"0.0-3.187-0.187","4st023uov0910ze",353,"125.csv","","375.7000000178814","resources/trios/L2T1A2.jpg","38","restless",0.3,0.6,0.5,0.371298509940801,"true"
"image-keyboard-response",573,428265,"0.0-3.187-1.187","4st023uov0910ze",353,"125.csv","","null","resources/maskTrios/BT1B.jpg","null","",NA,NA,NA,NA,""
"image-keyboard-response",574,429466,"0.0-3.187-2.187","4st023uov0910ze",353,"125.csv","","null","resources/images/coin2.png","null","",NA,NA,NA,NA,""
"image-keyboard-response",575,429615,"0.0-3.188-0.188","4st023uov0910ze",353,"125.csv","","146.40000000596046","resources/trios/L2T2A3.jpg","38","restless",0.4,0.7,0.4,0.346633026833943,"true"
"image-keyboard-response",576,430026,"0.0-3.188-1.188","4st023uov0910ze",353,"125.csv","","null","resources/maskTrios/BT2B.jpg","null","",NA,NA,NA,NA,""
"image-keyboard-response",577,431236,"0.0-3.188-2.188","4st023uov0910ze",353,"125.csv","","null","resources/images/coin2.png","null","",NA,NA,NA,NA,""
"image-keyboard-response",578,431479,"0.0-3.189-0.189","4st023uov0910ze",353,"125.csv","","242.19999998807907","resources/trios/L4T1A2.jpg","38","restless",0.5,0.7,0.4,0.858439800212015,"false"
"image-keyboard-response",579,431887,"0.0-3.189-1.189","4st023uov0910ze",353,"125.csv","","null","resources/maskTrios/BT1B.jpg","null","",NA,NA,NA,NA,""
"image-keyboard-response",580,433090,"0.0-3.189-2.189","4st023uov0910ze",353,"125.csv","","null","resources/images/fishbone.png","null","",NA,NA,NA,NA,""
"image-keyboard-response",581,433471,"0.0-3.190-0.190","4st023uov0910ze",353,"125.csv","","379","resources/trios/L2T2A3.jpg","38","restless",0.5,0.7,0.4,0.257470850284742,"true"
"image-keyboard-response",582,433878,"0.0-3.190-1.190","4st023uov0910ze",353,"125.csv","","null","resources/maskTrios/BT2B.jpg","null","",NA,NA,NA,NA,""
"image-keyboard-response",583,435082,"0.0-3.190-2.190","4st023uov0910ze",353,"125.csv","","null","resources/images/coin2.png","null","",NA,NA,NA,NA,""
"image-keyboard-response",584,435283,"0.0-3.191-0.191","4st023uov0910ze",353,"125.csv","","199.2999999821186","resources/trios/L2T2A3.jpg","38","restless",0.5,0.7,0.4,0.970577017891297,"false"
"image-keyboard-response",585,435686,"0.0-3.191-1.191","4st023uov0910ze",353,"125.csv","","null","resources/maskTrios/BT2B.jpg","null","",NA,NA,NA,NA,""
"image-keyboard-response",586,436892,"0.0-3.191-2.191","4st023uov0910ze",353,"125.csv","","null","resources/images/fishbone.png","null","",NA,NA,NA,NA,""
"image-keyboard-response",587,437036,"0.0-3.192-0.192","4st023uov0910ze",353,"125.csv","","143.60000002384186","resources/trios/L4T2A2.jpg","37","restless",0.5,0.8,0.4,0.864053383209096,"false"
"image-keyboard-response",588,437450,"0.0-3.192-1.192","4st023uov0910ze",353,"125.csv","","null","resources/maskTrios/L4BB.jpg","null","",NA,NA,NA,NA,""
"image-keyboard-response",589,438657,"0.0-3.192-2.192","4st023uov0910ze",353,"125.csv","","null","resources/images/fishbone.png","null","",NA,NA,NA,NA,""
"image-keyboard-response",590,438935,"0.0-3.193-0.193","4st023uov0910ze",353,"125.csv","","276","resources/trios/L2T1A3.jpg","39","restless",0.5,0.8,0.4,0.27856687639012,"true"
"image-keyboard-response",591,439349,"0.0-3.193-1.193","4st023uov0910ze",353,"125.csv","","null","resources/maskTrios/BBA3.jpg","null","",NA,NA,NA,NA,""
"image-keyboard-response",592,440555,"0.0-3.193-2.193","4st023uov0910ze",353,"125.csv","","null","resources/images/coin2.png","null","",NA,NA,NA,NA,""
"image-keyboard-response",593,440722,"0.0-3.194-0.194","4st023uov0910ze",353,"125.csv","","165.5","resources/trios/L2T2A2.jpg","39","restless",0.5,0.8,0.4,0.843202381635309,"false"
"image-keyboard-response",594,441130,"0.0-3.194-1.194","4st023uov0910ze",353,"125.csv","","null","resources/maskTrios/BBA2.jpg","null","",NA,NA,NA,NA,""
"image-keyboard-response",595,442337,"0.0-3.194-2.194","4st023uov0910ze",353,"125.csv","","null","resources/images/fishbone.png","null","",NA,NA,NA,NA,""
"image-keyboard-response",596,442512,"0.0-3.195-0.195","4st023uov0910ze",353,"125.csv","","174.40000000596046","resources/trios/L4T1A3.jpg","37","restless",0.5,0.8,0.4,0.852097183971133,"false"
"image-keyboard-response",597,442925,"0.0-3.195-1.195","4st023uov0910ze",353,"125.csv","","null","resources/maskTrios/L4BB.jpg","null","",NA,NA,NA,NA,""
"image-keyboard-response",598,444134,"0.0-3.195-2.195","4st023uov0910ze",353,"125.csv","","null","resources/images/fishbone.png","null","",NA,NA,NA,NA,""
"image-keyboard-response",599,444201,"0.0-3.196-0.196","4st023uov0910ze",353,"125.csv","","66.69999998807907","resources/trios/L4T1A2.jpg","38","restless",0.4,0.8,0.3,0.324074015380573,"true"
"image-keyboard-response",600,444612,"0.0-3.196-1.196","4st023uov0910ze",353,"125.csv","","null","resources/maskTrios/BT1B.jpg","null","",NA,NA,NA,NA,""
"image-keyboard-response",601,445814,"0.0-3.196-2.196","4st023uov0910ze",353,"125.csv","","null","resources/images/coin2.png","null","",NA,NA,NA,NA,""
"image-keyboard-response",602,445887,"0.0-3.197-0.197","4st023uov0910ze",353,"125.csv","","71.5","resources/trios/L4T2A2.jpg","38","restless",0.4,0.8,0.3,0.642334559528464,"true"
"image-keyboard-response",603,446297,"0.0-3.197-1.197","4st023uov0910ze",353,"125.csv","","null","resources/maskTrios/BT2B.jpg","null","",NA,NA,NA,NA,""
"image-keyboard-response",604,447506,"0.0-3.197-2.197","4st023uov0910ze",353,"125.csv","","null","resources/images/coin2.png","null","",NA,NA,NA,NA,""
