"trial_type","trial_index","time_elapsed","internal_node_id","subject","participantCode","walkNumber","success","rt","stimulus","key_press","test_part","leftProb","midProb","rightProb","generatedNum","correct"
"pavlovia",0,831,"0.0-0.0","54lnlrpz3bd1qa5",141,"179.csv","","","","","",NA,NA,NA,NA,""
"fullscreen",1,3629,"0.0-1.0","54lnlrpz3bd1qa5",141,"179.csv","true","","","","",NA,NA,NA,NA,""
"html-keyboard-response",2,14144,"0.0-2.0-0.0","54lnlrpz3bd1qa5",141,"179.csv","","10514.300000000745","<p><font size='6'>Arrrgh!</p></font><p>Can you be the best pirate? Try to find lots of gold! But beware, some islands have more gold than others, and over time, the island with the most gold may change. Can YOU figure it out? </p><font size='6'>GOOD LUCK, CAPTAIN!!!</font><p>Press any key to begin</p>","32","",NA,NA,NA,NA,""
"image-keyboard-response",3,17146,"0.0-2.0-1.0","54lnlrpz3bd1qa5",141,"179.csv","","null","resources/image_sets/111.png","null","",NA,NA,NA,NA,""
"image-keyboard-response",4,28925,"0.0-2.0-2.0","54lnlrpz3bd1qa5",141,"179.csv","","11778.10000000149","resources/image_sets/left_highlight.png","37","",NA,NA,NA,NA,""
"image-keyboard-response",5,32115,"0.0-2.0-3.0","54lnlrpz3bd1qa5",141,"179.csv","","3189.5","resources/image_sets/mid_highlight.png","38","",NA,NA,NA,NA,""
"image-keyboard-response",6,33546,"0.0-2.0-4.0","54lnlrpz3bd1qa5",141,"179.csv","","1430.4000000003725","resources/image_sets/right_highlight.png","39","",NA,NA,NA,NA,""
"image-keyboard-response",7,39466,"0.0-2.0-5.0","54lnlrpz3bd1qa5",141,"179.csv","","5919.299999998882","resources/image_sets/111.png","13","",NA,NA,NA,NA,""
"image-keyboard-response",8,43415,"0.0-2.0-6.0","54lnlrpz3bd1qa5",141,"179.csv","","3949.0999999996275","resources/images/coin2.png","13","",NA,NA,NA,NA,""
"image-keyboard-response",9,45916,"0.0-2.0-7.0","54lnlrpz3bd1qa5",141,"179.csv","","2500","resources/images/fishbone.png","13","",NA,NA,NA,NA,""
"html-keyboard-response",10,57568,"0.0-2.0-8.0","54lnlrpz3bd1qa5",141,"179.csv","","11651.300000000745","<p>Your first journey will be a long one, but you will get a well deserved break at the end</p><p>After the break you will have four more journeys, but each will be much shorter than the first, and you will have breaks in between each</p><p>Press Enter to begin</p>","13","",NA,NA,NA,NA,""
"image-keyboard-response",11,62397,"0.0-3.0-0.0","54lnlrpz3bd1qa5",141,"179.csv","","4828.199999999255","resources/trios/L4T1A3.jpg","37","restless",0.7,0.9,0.3,0.463744144434185,"true"
"image-keyboard-response",12,62799,"0.0-3.0-1.0","54lnlrpz3bd1qa5",141,"179.csv","","null","resources/maskTrios/L4BB.jpg","null","",NA,NA,NA,NA,""
"image-keyboard-response",13,64000,"0.0-3.0-2.0","54lnlrpz3bd1qa5",141,"179.csv","","null","resources/images/coin2.png","null","",NA,NA,NA,NA,""
"image-keyboard-response",14,66737,"0.0-3.1-0.1","54lnlrpz3bd1qa5",141,"179.csv","","2735.7999999988824","resources/trios/L4T1A3.jpg","37","restless",0.7,0.9,0.3,0.796358690432581,"false"
"image-keyboard-response",15,67139,"0.0-3.1-1.1","54lnlrpz3bd1qa5",141,"179.csv","","null","resources/maskTrios/L4BB.jpg","null","",NA,NA,NA,NA,""
"image-keyboard-response",16,68340,"0.0-3.1-2.1","54lnlrpz3bd1qa5",141,"179.csv","","null","resources/images/fishbone.png","null","",NA,NA,NA,NA,""
"image-keyboard-response",17,69388,"0.0-3.2-0.2","54lnlrpz3bd1qa5",141,"179.csv","","1046.699999999255","resources/trios/L2T2A3.jpg","38","restless",0.7,0.9,0.3,0.0164995562238546,"true"
"image-keyboard-response",18,69789,"0.0-3.2-1.2","54lnlrpz3bd1qa5",141,"179.csv","","null","resources/maskTrios/BT2B.jpg","null","",NA,NA,NA,NA,""
"image-keyboard-response",19,70991,"0.0-3.2-2.2","54lnlrpz3bd1qa5",141,"179.csv","","null","resources/images/coin2.png","null","",NA,NA,NA,NA,""
"image-keyboard-response",20,71417,"0.0-3.3-0.3","54lnlrpz3bd1qa5",141,"179.csv","","425.09999999962747","resources/trios/L4T2A1.jpg","39","restless",0.7,0.9,0.3,0.489620839362153,"false"
"image-keyboard-response",21,71819,"0.0-3.3-1.3","54lnlrpz3bd1qa5",141,"179.csv","","null","resources/maskTrios/BBA1.jpg","null","",NA,NA,NA,NA,""
"image-keyboard-response",22,73020,"0.0-3.3-2.3","54lnlrpz3bd1qa5",141,"179.csv","","null","resources/images/fishbone.png","null","",NA,NA,NA,NA,""
"image-keyboard-response",23,76528,"0.0-3.4-0.4","54lnlrpz3bd1qa5",141,"179.csv","","3507.5999999996275","resources/trios/L4T2A1.jpg","38","restless",0.7,0.9,0.3,0.125641397424684,"true"
"image-keyboard-response",24,76930,"0.0-3.4-1.4","54lnlrpz3bd1qa5",141,"179.csv","","null","resources/maskTrios/BT2B.jpg","null","",NA,NA,NA,NA,""
"image-keyboard-response",25,78133,"0.0-3.4-2.4","54lnlrpz3bd1qa5",141,"179.csv","","null","resources/images/coin2.png","null","",NA,NA,NA,NA,""
"image-keyboard-response",26,78859,"0.0-3.5-0.5","54lnlrpz3bd1qa5",141,"179.csv","","725.1999999992549","resources/trios/L2T2A3.jpg","37","restless",0.7,0.9,0.3,0.716308356406497,"false"
"image-keyboard-response",27,79261,"0.0-3.5-1.5","54lnlrpz3bd1qa5",141,"179.csv","","null","resources/maskTrios/L2BB.jpg","null","",NA,NA,NA,NA,""
"image-keyboard-response",28,80462,"0.0-3.5-2.5","54lnlrpz3bd1qa5",141,"179.csv","","null","resources/images/fishbone.png","null","",NA,NA,NA,NA,""
"image-keyboard-response",29,81248,"0.0-3.6-0.6","54lnlrpz3bd1qa5",141,"179.csv","","786","resources/trios/L2T1A1.jpg","37","restless",0.7,0.9,0.3,0.907618481986423,"false"
"image-keyboard-response",30,81649,"0.0-3.6-1.6","54lnlrpz3bd1qa5",141,"179.csv","","null","resources/maskTrios/L2BB.jpg","null","",NA,NA,NA,NA,""
"image-keyboard-response",31,82851,"0.0-3.6-2.6","54lnlrpz3bd1qa5",141,"179.csv","","null","resources/images/fishbone.png","null","",NA,NA,NA,NA,""
"image-keyboard-response",32,87978,"0.0-3.7-0.7","54lnlrpz3bd1qa5",141,"179.csv","","5126.300000000745","resources/trios/L4T2A3.jpg","39","restless",0.7,0.9,0.3,0.223197431037568,"true"
"image-keyboard-response",33,88381,"0.0-3.7-1.7","54lnlrpz3bd1qa5",141,"179.csv","","null","resources/maskTrios/BBA3.jpg","null","",NA,NA,NA,NA,""
"image-keyboard-response",34,89583,"0.0-3.7-2.7","54lnlrpz3bd1qa5",141,"179.csv","","null","resources/images/coin2.png","null","",NA,NA,NA,NA,""
"image-keyboard-response",35,90089,"0.0-3.8-0.8","54lnlrpz3bd1qa5",141,"179.csv","","505.7000000011176","resources/trios/L4T2A3.jpg","38","restless",0.7,0.9,0.3,0.966320971234479,"false"
"image-keyboard-response",36,90491,"0.0-3.8-1.8","54lnlrpz3bd1qa5",141,"179.csv","","null","resources/maskTrios/BT2B.jpg","null","",NA,NA,NA,NA,""
"image-keyboard-response",37,91692,"0.0-3.8-2.8","54lnlrpz3bd1qa5",141,"179.csv","","null","resources/images/fishbone.png","null","",NA,NA,NA,NA,""
"image-keyboard-response",38,92229,"0.0-3.9-0.9","54lnlrpz3bd1qa5",141,"179.csv","","536.1999999992549","resources/trios/L2T2A3.jpg","39","restless",0.7,0.9,0.3,0.0393866775989384,"true"
"image-keyboard-response",39,92631,"0.0-3.9-1.9","54lnlrpz3bd1qa5",141,"179.csv","","null","resources/maskTrios/BBA3.jpg","null","",NA,NA,NA,NA,""
"image-keyboard-response",40,93834,"0.0-3.9-2.9","54lnlrpz3bd1qa5",141,"179.csv","","null","resources/images/coin2.png","null","",NA,NA,NA,NA,""
"image-keyboard-response",41,94340,"0.0-3.10-0.10","54lnlrpz3bd1qa5",141,"179.csv","","505.2000000011176","resources/trios/L4T2A3.jpg","37","restless",0.7,0.9,0.3,0.151127007191282,"true"
"image-keyboard-response",42,94742,"0.0-3.10-1.10","54lnlrpz3bd1qa5",141,"179.csv","","null","resources/maskTrios/L4BB.jpg","null","",NA,NA,NA,NA,""
"image-keyboard-response",43,95946,"0.0-3.10-2.10","54lnlrpz3bd1qa5",141,"179.csv","","null","resources/images/coin2.png","null","",NA,NA,NA,NA,""
"image-keyboard-response",44,96310,"0.0-3.11-0.11","54lnlrpz3bd1qa5",141,"179.csv","","363","resources/trios/L2T1A1.jpg","37","restless",0.7,0.9,0.3,0.817988887090783,"false"
"image-keyboard-response",45,96711,"0.0-3.11-1.11","54lnlrpz3bd1qa5",141,"179.csv","","null","resources/maskTrios/L2BB.jpg","null","",NA,NA,NA,NA,""
"image-keyboard-response",46,97913,"0.0-3.11-2.11","54lnlrpz3bd1qa5",141,"179.csv","","null","resources/images/fishbone.png","null","",NA,NA,NA,NA,""
"image-keyboard-response",47,98160,"0.0-3.12-0.12","54lnlrpz3bd1qa5",141,"179.csv","","245.2999999988824","resources/trios/L4T2A1.jpg","38","restless",0.7,0.9,0.2,0.983333838263994,"false"
"image-keyboard-response",48,98562,"0.0-3.12-1.12","54lnlrpz3bd1qa5",141,"179.csv","","null","resources/maskTrios/BT2B.jpg","null","",NA,NA,NA,NA,""
"image-keyboard-response",49,99763,"0.0-3.12-2.12","54lnlrpz3bd1qa5",141,"179.csv","","null","resources/images/fishbone.png","null","",NA,NA,NA,NA,""
"image-keyboard-response",50,99999,"0.0-3.13-0.13","54lnlrpz3bd1qa5",141,"179.csv","","234.7000000011176","resources/trios/L2T1A3.jpg","39","restless",0.7,0.9,0.2,0.682682460632564,"false"
"image-keyboard-response",51,100401,"0.0-3.13-1.13","54lnlrpz3bd1qa5",141,"179.csv","","null","resources/maskTrios/BBA3.jpg","null","",NA,NA,NA,NA,""
"image-keyboard-response",52,101602,"0.0-3.13-2.13","54lnlrpz3bd1qa5",141,"179.csv","","null","resources/images/fishbone.png","null","",NA,NA,NA,NA,""
"image-keyboard-response",53,101869,"0.0-3.14-0.14","54lnlrpz3bd1qa5",141,"179.csv","","266.90000000037253","resources/trios/L4T2A3.jpg","39","restless",0.8,0.9,0.2,0.787996218924551,"false"
"image-keyboard-response",54,102271,"0.0-3.14-1.14","54lnlrpz3bd1qa5",141,"179.csv","","null","resources/maskTrios/BBA3.jpg","null","",NA,NA,NA,NA,""
"image-keyboard-response",55,103473,"0.0-3.14-2.14","54lnlrpz3bd1qa5",141,"179.csv","","null","resources/images/fishbone.png","null","",NA,NA,NA,NA,""
"image-keyboard-response",56,103670,"0.0-3.15-0.15","54lnlrpz3bd1qa5",141,"179.csv","","196.19999999925494","resources/trios/L4T1A1.jpg","38","restless",0.8,0.8,0.2,0.487290238565591,"true"
"image-keyboard-response",57,104072,"0.0-3.15-1.15","54lnlrpz3bd1qa5",141,"179.csv","","null","resources/maskTrios/BT1B.jpg","null","",NA,NA,NA,NA,""
"image-keyboard-response",58,105274,"0.0-3.15-2.15","54lnlrpz3bd1qa5",141,"179.csv","","null","resources/images/coin2.png","null","",NA,NA,NA,NA,""
"image-keyboard-response",59,105600,"0.0-3.16-0.16","54lnlrpz3bd1qa5",141,"179.csv","","324.8999999985099","resources/trios/L4T2A1.jpg","37","restless",0.8,0.7,0.2,0.445880194068424,"true"
"image-keyboard-response",60,106001,"0.0-3.16-1.16","54lnlrpz3bd1qa5",141,"179.csv","","null","resources/maskTrios/L4BB.jpg","null","",NA,NA,NA,NA,""
"image-keyboard-response",61,107203,"0.0-3.16-2.16","54lnlrpz3bd1qa5",141,"179.csv","","null","resources/images/coin2.png","null","",NA,NA,NA,NA,""
"image-keyboard-response",62,107611,"0.0-3.17-0.17","54lnlrpz3bd1qa5",141,"179.csv","","406.90000000037253","resources/trios/L4T1A3.jpg","38","restless",0.8,0.7,0.2,0.656540819997806,"true"
"image-keyboard-response",63,108013,"0.0-3.17-1.17","54lnlrpz3bd1qa5",141,"179.csv","","null","resources/maskTrios/BT1B.jpg","null","",NA,NA,NA,NA,""
"image-keyboard-response",64,109214,"0.0-3.17-2.17","54lnlrpz3bd1qa5",141,"179.csv","","null","resources/images/coin2.png","null","",NA,NA,NA,NA,""
"image-keyboard-response",65,109479,"0.0-3.18-0.18","54lnlrpz3bd1qa5",141,"179.csv","","264.1000000014901","resources/trios/L4T2A1.jpg","37","restless",0.8,0.7,0.2,0.72166588365801,"true"
"image-keyboard-response",66,109881,"0.0-3.18-1.18","54lnlrpz3bd1qa5",141,"179.csv","","null","resources/maskTrios/L4BB.jpg","null","",NA,NA,NA,NA,""
"image-keyboard-response",67,111083,"0.0-3.18-2.18","54lnlrpz3bd1qa5",141,"179.csv","","null","resources/images/coin2.png","null","",NA,NA,NA,NA,""
"image-keyboard-response",68,111289,"0.0-3.19-0.19","54lnlrpz3bd1qa5",141,"179.csv","","206.09999999962747","resources/trios/L2T2A1.jpg","39","restless",0.8,0.6,0.3,0.364915764034479,"false"
"image-keyboard-response",69,111692,"0.0-3.19-1.19","54lnlrpz3bd1qa5",141,"179.csv","","null","resources/maskTrios/BBA1.jpg","null","",NA,NA,NA,NA,""
"image-keyboard-response",70,112894,"0.0-3.19-2.19","54lnlrpz3bd1qa5",141,"179.csv","","null","resources/images/fishbone.png","null","",NA,NA,NA,NA,""
"image-keyboard-response",71,113089,"0.0-3.20-0.20","54lnlrpz3bd1qa5",141,"179.csv","","195.19999999925494","resources/trios/L4T2A1.jpg","38","restless",0.8,0.6,0.3,0.860419413076745,"false"
"image-keyboard-response",72,113491,"0.0-3.20-1.20","54lnlrpz3bd1qa5",141,"179.csv","","null","resources/maskTrios/BT2B.jpg","null","",NA,NA,NA,NA,""
"image-keyboard-response",73,114693,"0.0-3.20-2.20","54lnlrpz3bd1qa5",141,"179.csv","","null","resources/images/fishbone.png","null","",NA,NA,NA,NA,""
"image-keyboard-response",74,114900,"0.0-3.21-0.21","54lnlrpz3bd1qa5",141,"179.csv","","206.89999999850988","resources/trios/L2T1A3.jpg","37","restless",0.9,0.6,0.3,0.602193301044801,"true"
"image-keyboard-response",75,115303,"0.0-3.21-1.21","54lnlrpz3bd1qa5",141,"179.csv","","null","resources/maskTrios/L2BB.jpg","null","",NA,NA,NA,NA,""
"image-keyboard-response",76,116505,"0.0-3.21-2.21","54lnlrpz3bd1qa5",141,"179.csv","","null","resources/images/coin2.png","null","",NA,NA,NA,NA,""
"image-keyboard-response",77,116741,"0.0-3.22-0.22","54lnlrpz3bd1qa5",141,"179.csv","","234.7999999988824","resources/trios/L2T1A1.jpg","37","restless",0.9,0.6,0.3,0.351964017247616,"true"
"image-keyboard-response",78,117143,"0.0-3.22-1.22","54lnlrpz3bd1qa5",141,"179.csv","","null","resources/maskTrios/L2BB.jpg","null","",NA,NA,NA,NA,""
"image-keyboard-response",79,118345,"0.0-3.22-2.22","54lnlrpz3bd1qa5",141,"179.csv","","null","resources/images/coin2.png","null","",NA,NA,NA,NA,""
"image-keyboard-response",80,118671,"0.0-3.23-0.23","54lnlrpz3bd1qa5",141,"179.csv","","325","resources/trios/L2T1A1.jpg","38","restless",0.9,0.6,0.3,0.622010493520895,"false"
"image-keyboard-response",81,119073,"0.0-3.23-1.23","54lnlrpz3bd1qa5",141,"179.csv","","null","resources/maskTrios/BT1B.jpg","null","",NA,NA,NA,NA,""
"image-keyboard-response",82,120274,"0.0-3.23-2.23","54lnlrpz3bd1qa5",141,"179.csv","","null","resources/images/fishbone.png","null","",NA,NA,NA,NA,""
"image-keyboard-response",83,120500,"0.0-3.24-0.24","54lnlrpz3bd1qa5",141,"179.csv","","225.69999999925494","resources/trios/L4T2A3.jpg","37","restless",0.9,0.6,0.3,0.38502311133088,"true"
"image-keyboard-response",84,120903,"0.0-3.24-1.24","54lnlrpz3bd1qa5",141,"179.csv","","null","resources/maskTrios/L4BB.jpg","null","",NA,NA,NA,NA,""
"image-keyboard-response",85,122104,"0.0-3.24-2.24","54lnlrpz3bd1qa5",141,"179.csv","","null","resources/images/coin2.png","null","",NA,NA,NA,NA,""
"image-keyboard-response",86,122460,"0.0-3.25-0.25","54lnlrpz3bd1qa5",141,"179.csv","","355.90000000037253","resources/trios/L2T2A3.jpg","37","restless",0.9,0.6,0.3,0.525612881578963,"true"
"image-keyboard-response",87,122861,"0.0-3.25-1.25","54lnlrpz3bd1qa5",141,"179.csv","","null","resources/maskTrios/L2BB.jpg","null","",NA,NA,NA,NA,""
"image-keyboard-response",88,124063,"0.0-3.25-2.25","54lnlrpz3bd1qa5",141,"179.csv","","null","resources/images/coin2.png","null","",NA,NA,NA,NA,""
"image-keyboard-response",89,124321,"0.0-3.26-0.26","54lnlrpz3bd1qa5",141,"179.csv","","257.5","resources/trios/L4T1A3.jpg","37","restless",0.9,0.6,0.3,0.384664021773492,"true"
"image-keyboard-response",90,124723,"0.0-3.26-1.26","54lnlrpz3bd1qa5",141,"179.csv","","null","resources/maskTrios/L4BB.jpg","null","",NA,NA,NA,NA,""
"image-keyboard-response",91,125924,"0.0-3.26-2.26","54lnlrpz3bd1qa5",141,"179.csv","","null","resources/images/coin2.png","null","",NA,NA,NA,NA,""
"image-keyboard-response",92,126161,"0.0-3.27-0.27","54lnlrpz3bd1qa5",141,"179.csv","","235.09999999962747","resources/trios/L2T2A1.jpg","37","restless",0.9,0.6,0.3,0.322578622567538,"true"
"image-keyboard-response",93,126562,"0.0-3.27-1.27","54lnlrpz3bd1qa5",141,"179.csv","","null","resources/maskTrios/L2BB.jpg","null","",NA,NA,NA,NA,""
"image-keyboard-response",94,127764,"0.0-3.27-2.27","54lnlrpz3bd1qa5",141,"179.csv","","null","resources/images/coin2.png","null","",NA,NA,NA,NA,""
"image-keyboard-response",95,128020,"0.0-3.28-0.28","54lnlrpz3bd1qa5",141,"179.csv","","255.10000000149012","resources/trios/L2T2A3.jpg","37","restless",0.9,0.6,0.3,0.985924269689264,"false"
"image-keyboard-response",96,128422,"0.0-3.28-1.28","54lnlrpz3bd1qa5",141,"179.csv","","null","resources/maskTrios/L2BB.jpg","null","",NA,NA,NA,NA,""
"image-keyboard-response",97,129623,"0.0-3.28-2.28","54lnlrpz3bd1qa5",141,"179.csv","","null","resources/images/fishbone.png","null","",NA,NA,NA,NA,""
"image-keyboard-response",98,129860,"0.0-3.29-0.29","54lnlrpz3bd1qa5",141,"179.csv","","236.69999999925494","resources/trios/L2T2A3.jpg","37","restless",0.8,0.6,0.3,0.291001342225578,"true"
"image-keyboard-response",99,130262,"0.0-3.29-1.29","54lnlrpz3bd1qa5",141,"179.csv","","null","resources/maskTrios/L2BB.jpg","null","",NA,NA,NA,NA,""
"image-keyboard-response",100,131464,"0.0-3.29-2.29","54lnlrpz3bd1qa5",141,"179.csv","","null","resources/images/coin2.png","null","",NA,NA,NA,NA,""
"image-keyboard-response",101,131730,"0.0-3.30-0.30","54lnlrpz3bd1qa5",141,"179.csv","","265.5","resources/trios/L2T1A3.jpg","37","restless",0.8,0.6,0.3,0.698368566448259,"true"
"image-keyboard-response",102,132131,"0.0-3.30-1.30","54lnlrpz3bd1qa5",141,"179.csv","","null","resources/maskTrios/L2BB.jpg","null","",NA,NA,NA,NA,""
"image-keyboard-response",103,133333,"0.0-3.30-2.30","54lnlrpz3bd1qa5",141,"179.csv","","null","resources/images/coin2.png","null","",NA,NA,NA,NA,""
"image-keyboard-response",104,133572,"0.0-3.31-0.31","54lnlrpz3bd1qa5",141,"179.csv","","238","resources/trios/L2T1A1.jpg","37","restless",0.8,0.6,0.3,0.264118919313167,"true"
"image-keyboard-response",105,133973,"0.0-3.31-1.31","54lnlrpz3bd1qa5",141,"179.csv","","null","resources/maskTrios/L2BB.jpg","null","",NA,NA,NA,NA,""
"image-keyboard-response",106,135175,"0.0-3.31-2.31","54lnlrpz3bd1qa5",141,"179.csv","","null","resources/images/coin2.png","null","",NA,NA,NA,NA,""
"image-keyboard-response",107,135451,"0.0-3.32-0.32","54lnlrpz3bd1qa5",141,"179.csv","","275.19999999925494","resources/trios/L2T1A3.jpg","37","restless",0.8,0.6,0.3,0.961759021143981,"false"
"image-keyboard-response",108,135854,"0.0-3.32-1.32","54lnlrpz3bd1qa5",141,"179.csv","","null","resources/maskTrios/L2BB.jpg","null","",NA,NA,NA,NA,""
"image-keyboard-response",109,137056,"0.0-3.32-2.32","54lnlrpz3bd1qa5",141,"179.csv","","null","resources/images/fishbone.png","null","",NA,NA,NA,NA,""
"image-keyboard-response",110,137251,"0.0-3.33-0.33","54lnlrpz3bd1qa5",141,"179.csv","","194.2999999988824","resources/trios/L4T1A3.jpg","37","restless",0.8,0.6,0.3,0.892418427278268,"false"
"image-keyboard-response",111,137653,"0.0-3.33-1.33","54lnlrpz3bd1qa5",141,"179.csv","","null","resources/maskTrios/L4BB.jpg","null","",NA,NA,NA,NA,""
"image-keyboard-response",112,138855,"0.0-3.33-2.33","54lnlrpz3bd1qa5",141,"179.csv","","null","resources/images/fishbone.png","null","",NA,NA,NA,NA,""
"image-keyboard-response",113,138983,"0.0-3.34-0.34","54lnlrpz3bd1qa5",141,"179.csv","","127.69999999925494","resources/trios/L4T1A3.jpg","39","restless",0.8,0.6,0.4,0.301228994402136,"true"
"image-keyboard-response",114,139384,"0.0-3.34-1.34","54lnlrpz3bd1qa5",141,"179.csv","","null","resources/maskTrios/BBA3.jpg","null","",NA,NA,NA,NA,""
"image-keyboard-response",115,140586,"0.0-3.34-2.34","54lnlrpz3bd1qa5",141,"179.csv","","null","resources/images/coin2.png","null","",NA,NA,NA,NA,""
"image-keyboard-response",116,140752,"0.0-3.35-0.35","54lnlrpz3bd1qa5",141,"179.csv","","165.2999999988824","resources/trios/L4T1A3.jpg","39","restless",0.8,0.6,0.4,0.688123424794294,"false"
"image-keyboard-response",117,141153,"0.0-3.35-1.35","54lnlrpz3bd1qa5",141,"179.csv","","null","resources/maskTrios/BBA3.jpg","null","",NA,NA,NA,NA,""
"image-keyboard-response",118,142354,"0.0-3.35-2.35","54lnlrpz3bd1qa5",141,"179.csv","","null","resources/images/fishbone.png","null","",NA,NA,NA,NA,""
"image-keyboard-response",119,142521,"0.0-3.36-0.36","54lnlrpz3bd1qa5",141,"179.csv","","167.19999999925494","resources/trios/L4T1A1.jpg","37","restless",0.8,0.6,0.4,0.622630521051549,"true"
"image-keyboard-response",120,142923,"0.0-3.36-1.36","54lnlrpz3bd1qa5",141,"179.csv","","null","resources/maskTrios/L4BB.jpg","null","",NA,NA,NA,NA,""
"image-keyboard-response",121,144125,"0.0-3.36-2.36","54lnlrpz3bd1qa5",141,"179.csv","","null","resources/images/coin2.png","null","",NA,NA,NA,NA,""
"image-keyboard-response",122,144362,"0.0-3.37-0.37","54lnlrpz3bd1qa5",141,"179.csv","","236.7000000011176","resources/trios/L4T1A1.jpg","38","restless",0.8,0.6,0.4,0.923645272542786,"false"
"image-keyboard-response",123,144764,"0.0-3.37-1.37","54lnlrpz3bd1qa5",141,"179.csv","","null","resources/maskTrios/BT1B.jpg","null","",NA,NA,NA,NA,""
"image-keyboard-response",124,145966,"0.0-3.37-2.37","54lnlrpz3bd1qa5",141,"179.csv","","null","resources/images/fishbone.png","null","",NA,NA,NA,NA,""
"image-keyboard-response",125,146121,"0.0-3.38-0.38","54lnlrpz3bd1qa5",141,"179.csv","","154.7999999988824","resources/trios/L2T2A3.jpg","37","restless",0.9,0.6,0.4,0.485950949984466,"true"
"image-keyboard-response",126,146523,"0.0-3.38-1.38","54lnlrpz3bd1qa5",141,"179.csv","","null","resources/maskTrios/L2BB.jpg","null","",NA,NA,NA,NA,""
"image-keyboard-response",127,147725,"0.0-3.38-2.38","54lnlrpz3bd1qa5",141,"179.csv","","null","resources/images/coin2.png","null","",NA,NA,NA,NA,""
"image-keyboard-response",128,148331,"0.0-3.39-0.39","54lnlrpz3bd1qa5",141,"179.csv","","606","resources/trios/L4T1A1.jpg","39","restless",0.8,0.6,0.4,0.812402106473364,"false"
"image-keyboard-response",129,148732,"0.0-3.39-1.39","54lnlrpz3bd1qa5",141,"179.csv","","null","resources/maskTrios/BBA1.jpg","null","",NA,NA,NA,NA,""
"image-keyboard-response",130,149934,"0.0-3.39-2.39","54lnlrpz3bd1qa5",141,"179.csv","","null","resources/images/fishbone.png","null","",NA,NA,NA,NA,""
"image-keyboard-response",131,150041,"0.0-3.40-0.40","54lnlrpz3bd1qa5",141,"179.csv","","107","resources/trios/L4T1A1.jpg","37","restless",0.8,0.6,0.4,0.615196365170858,"true"
"image-keyboard-response",132,150442,"0.0-3.40-1.40","54lnlrpz3bd1qa5",141,"179.csv","","null","resources/maskTrios/L4BB.jpg","null","",NA,NA,NA,NA,""
"image-keyboard-response",133,151643,"0.0-3.40-2.40","54lnlrpz3bd1qa5",141,"179.csv","","null","resources/images/coin2.png","null","",NA,NA,NA,NA,""
"image-keyboard-response",134,151782,"0.0-3.41-0.41","54lnlrpz3bd1qa5",141,"179.csv","","138.5","resources/trios/L2T1A3.jpg","37","restless",0.7,0.6,0.5,0.514999479833965,"true"
"image-keyboard-response",135,152184,"0.0-3.41-1.41","54lnlrpz3bd1qa5",141,"179.csv","","null","resources/maskTrios/L2BB.jpg","null","",NA,NA,NA,NA,""
"image-keyboard-response",136,153386,"0.0-3.41-2.41","54lnlrpz3bd1qa5",141,"179.csv","","null","resources/images/coin2.png","null","",NA,NA,NA,NA,""
"image-keyboard-response",137,153563,"0.0-3.42-0.42","54lnlrpz3bd1qa5",141,"179.csv","","176.40000000037253","resources/trios/L2T2A1.jpg","37","restless",0.7,0.5,0.5,0.288502857861948,"true"
"image-keyboard-response",138,153965,"0.0-3.42-1.42","54lnlrpz3bd1qa5",141,"179.csv","","null","resources/maskTrios/L2BB.jpg","null","",NA,NA,NA,NA,""
"image-keyboard-response",139,155166,"0.0-3.42-2.42","54lnlrpz3bd1qa5",141,"179.csv","","null","resources/images/coin2.png","null","",NA,NA,NA,NA,""
"image-keyboard-response",140,155353,"0.0-3.43-0.43","54lnlrpz3bd1qa5",141,"179.csv","","186.10000000149012","resources/trios/L2T2A1.jpg","39","restless",0.7,0.4,0.5,0.779057053782341,"false"
"image-keyboard-response",141,155754,"0.0-3.43-1.43","54lnlrpz3bd1qa5",141,"179.csv","","null","resources/maskTrios/BBA1.jpg","null","",NA,NA,NA,NA,""
"image-keyboard-response",142,156955,"0.0-3.43-2.43","54lnlrpz3bd1qa5",141,"179.csv","","null","resources/images/fishbone.png","null","",NA,NA,NA,NA,""
"image-keyboard-response",143,157143,"0.0-3.44-0.44","54lnlrpz3bd1qa5",141,"179.csv","","187.5","resources/trios/L4T1A1.jpg","37","restless",0.7,0.4,0.5,0.217795802675318,"true"
"image-keyboard-response",144,157544,"0.0-3.44-1.44","54lnlrpz3bd1qa5",141,"179.csv","","null","resources/maskTrios/L4BB.jpg","null","",NA,NA,NA,NA,""
"image-keyboard-response",145,158746,"0.0-3.44-2.44","54lnlrpz3bd1qa5",141,"179.csv","","null","resources/images/coin2.png","null","",NA,NA,NA,NA,""
"image-keyboard-response",146,158962,"0.0-3.45-0.45","54lnlrpz3bd1qa5",141,"179.csv","","216.2999999988824","resources/trios/L4T1A3.jpg","37","restless",0.7,0.4,0.5,0.158544332757947,"true"
"image-keyboard-response",147,159364,"0.0-3.45-1.45","54lnlrpz3bd1qa5",141,"179.csv","","null","resources/maskTrios/L4BB.jpg","null","",NA,NA,NA,NA,""
"image-keyboard-response",148,160566,"0.0-3.45-2.45","54lnlrpz3bd1qa5",141,"179.csv","","null","resources/images/coin2.png","null","",NA,NA,NA,NA,""
"image-keyboard-response",149,160753,"0.0-3.46-0.46","54lnlrpz3bd1qa5",141,"179.csv","","186.59999999962747","resources/trios/L2T2A1.jpg","37","restless",0.7,0.4,0.6,0.494550214442419,"true"
"image-keyboard-response",150,161154,"0.0-3.46-1.46","54lnlrpz3bd1qa5",141,"179.csv","","null","resources/maskTrios/L2BB.jpg","null","",NA,NA,NA,NA,""
"image-keyboard-response",151,162356,"0.0-3.46-2.46","54lnlrpz3bd1qa5",141,"179.csv","","null","resources/images/coin2.png","null","",NA,NA,NA,NA,""
"image-keyboard-response",152,162553,"0.0-3.47-0.47","54lnlrpz3bd1qa5",141,"179.csv","","196.19999999925494","resources/trios/L2T1A1.jpg","37","restless",0.7,0.3,0.6,0.550023805428139,"true"
"image-keyboard-response",153,162955,"0.0-3.47-1.47","54lnlrpz3bd1qa5",141,"179.csv","","null","resources/maskTrios/L2BB.jpg","null","",NA,NA,NA,NA,""
"image-keyboard-response",154,164157,"0.0-3.47-2.47","54lnlrpz3bd1qa5",141,"179.csv","","null","resources/images/coin2.png","null","",NA,NA,NA,NA,""
"image-keyboard-response",155,164354,"0.0-3.48-0.48","54lnlrpz3bd1qa5",141,"179.csv","","196.59999999962747","resources/trios/L4T2A1.jpg","37","restless",0.7,0.3,0.6,0.647492533847342,"true"
"image-keyboard-response",156,164755,"0.0-3.48-1.48","54lnlrpz3bd1qa5",141,"179.csv","","null","resources/maskTrios/L4BB.jpg","null","",NA,NA,NA,NA,""
"image-keyboard-response",157,165957,"0.0-3.48-2.48","54lnlrpz3bd1qa5",141,"179.csv","","null","resources/images/coin2.png","null","",NA,NA,NA,NA,""
"image-keyboard-response",158,166192,"0.0-3.49-0.49","54lnlrpz3bd1qa5",141,"179.csv","","233.60000000149012","resources/trios/L4T2A1.jpg","37","restless",0.7,0.3,0.6,0.127708281682708,"true"
"image-keyboard-response",159,166594,"0.0-3.49-1.49","54lnlrpz3bd1qa5",141,"179.csv","","null","resources/maskTrios/L4BB.jpg","null","",NA,NA,NA,NA,""
"image-keyboard-response",160,167796,"0.0-3.49-2.49","54lnlrpz3bd1qa5",141,"179.csv","","null","resources/images/coin2.png","null","",NA,NA,NA,NA,""
"image-keyboard-response",161,168013,"0.0-3.50-0.50","54lnlrpz3bd1qa5",141,"179.csv","","216.10000000149012","resources/trios/L4T2A3.jpg","37","restless",0.7,0.3,0.6,0.23230374789413,"true"
"image-keyboard-response",162,168414,"0.0-3.50-1.50","54lnlrpz3bd1qa5",141,"179.csv","","null","resources/maskTrios/L4BB.jpg","null","",NA,NA,NA,NA,""
"image-keyboard-response",163,169615,"0.0-3.50-2.50","54lnlrpz3bd1qa5",141,"179.csv","","null","resources/images/coin2.png","null","",NA,NA,NA,NA,""
"image-keyboard-response",164,169823,"0.0-3.51-0.51","54lnlrpz3bd1qa5",141,"179.csv","","207","resources/trios/L2T1A1.jpg","37","restless",0.7,0.3,0.6,0.433610640120882,"true"
"image-keyboard-response",165,170225,"0.0-3.51-1.51","54lnlrpz3bd1qa5",141,"179.csv","","null","resources/maskTrios/L2BB.jpg","null","",NA,NA,NA,NA,""
"image-keyboard-response",166,171426,"0.0-3.51-2.51","54lnlrpz3bd1qa5",141,"179.csv","","null","resources/images/coin2.png","null","",NA,NA,NA,NA,""
"image-keyboard-response",167,172083,"0.0-3.52-0.52","54lnlrpz3bd1qa5",141,"179.csv","","656.8000000007451","resources/trios/L4T1A1.jpg","37","restless",0.7,0.3,0.6,0.545925496600235,"true"
"image-keyboard-response",168,172484,"0.0-3.52-1.52","54lnlrpz3bd1qa5",141,"179.csv","","null","resources/maskTrios/L4BB.jpg","null","",NA,NA,NA,NA,""
"image-keyboard-response",169,173687,"0.0-3.52-2.52","54lnlrpz3bd1qa5",141,"179.csv","","null","resources/images/coin2.png","null","",NA,NA,NA,NA,""
"image-keyboard-response",170,173833,"0.0-3.53-0.53","54lnlrpz3bd1qa5",141,"179.csv","","146.19999999925494","resources/trios/L4T2A1.jpg","37","restless",0.7,0.3,0.6,0.694476373058116,"true"
"image-keyboard-response",171,174235,"0.0-3.53-1.53","54lnlrpz3bd1qa5",141,"179.csv","","null","resources/maskTrios/L4BB.jpg","null","",NA,NA,NA,NA,""
"image-keyboard-response",172,175436,"0.0-3.53-2.53","54lnlrpz3bd1qa5",141,"179.csv","","null","resources/images/coin2.png","null","",NA,NA,NA,NA,""
"image-keyboard-response",173,175643,"0.0-3.54-0.54","54lnlrpz3bd1qa5",141,"179.csv","","205.7000000011176","resources/trios/L4T1A1.jpg","37","restless",0.7,0.3,0.6,0.700416017293743,"false"
"image-keyboard-response",174,176045,"0.0-3.54-1.54","54lnlrpz3bd1qa5",141,"179.csv","","null","resources/maskTrios/L4BB.jpg","null","",NA,NA,NA,NA,""
"image-keyboard-response",175,177246,"0.0-3.54-2.54","54lnlrpz3bd1qa5",141,"179.csv","","null","resources/images/fishbone.png","null","",NA,NA,NA,NA,""
"image-keyboard-response",176,177624,"0.0-3.55-0.55","54lnlrpz3bd1qa5",141,"179.csv","","377.09999999962747","resources/trios/L4T1A1.jpg","37","restless",0.7,0.3,0.6,0.276218125715203,"true"
"image-keyboard-response",177,178026,"0.0-3.55-1.55","54lnlrpz3bd1qa5",141,"179.csv","","null","resources/maskTrios/L4BB.jpg","null","",NA,NA,NA,NA,""
"image-keyboard-response",178,179228,"0.0-3.55-2.55","54lnlrpz3bd1qa5",141,"179.csv","","null","resources/images/coin2.png","null","",NA,NA,NA,NA,""
"image-keyboard-response",179,179444,"0.0-3.56-0.56","54lnlrpz3bd1qa5",141,"179.csv","","215.09999999962747","resources/trios/L4T2A3.jpg","37","restless",0.7,0.3,0.6,0.385446691237925,"true"
"image-keyboard-response",180,179844,"0.0-3.56-1.56","54lnlrpz3bd1qa5",141,"179.csv","","null","resources/maskTrios/L4BB.jpg","null","",NA,NA,NA,NA,""
"image-keyboard-response",181,181046,"0.0-3.56-2.56","54lnlrpz3bd1qa5",141,"179.csv","","null","resources/images/coin2.png","null","",NA,NA,NA,NA,""
"image-keyboard-response",182,181304,"0.0-3.57-0.57","54lnlrpz3bd1qa5",141,"179.csv","","256.59999999962747","resources/trios/L4T2A3.jpg","37","restless",0.7,0.3,0.6,0.312968511318479,"true"
"image-keyboard-response",183,181705,"0.0-3.57-1.57","54lnlrpz3bd1qa5",141,"179.csv","","null","resources/maskTrios/L4BB.jpg","null","",NA,NA,NA,NA,""
"image-keyboard-response",184,182908,"0.0-3.57-2.57","54lnlrpz3bd1qa5",141,"179.csv","","null","resources/images/coin2.png","null","",NA,NA,NA,NA,""
"image-keyboard-response",185,183094,"0.0-3.58-0.58","54lnlrpz3bd1qa5",141,"179.csv","","185.69999999925494","resources/trios/L4T1A3.jpg","37","restless",0.7,0.3,0.6,0.126047401638139,"true"
"image-keyboard-response",186,183496,"0.0-3.58-1.58","54lnlrpz3bd1qa5",141,"179.csv","","null","resources/maskTrios/L4BB.jpg","null","",NA,NA,NA,NA,""
"image-keyboard-response",187,184698,"0.0-3.58-2.58","54lnlrpz3bd1qa5",141,"179.csv","","null","resources/images/coin2.png","null","",NA,NA,NA,NA,""
"image-keyboard-response",188,184774,"0.0-3.59-0.59","54lnlrpz3bd1qa5",141,"179.csv","","74.29999999888241","resources/trios/L2T1A1.jpg","37","restless",0.7,0.3,0.6,0.688838779060664,"true"
"image-keyboard-response",189,185176,"0.0-3.59-1.59","54lnlrpz3bd1qa5",141,"179.csv","","null","resources/maskTrios/L2BB.jpg","null","",NA,NA,NA,NA,""
"image-keyboard-response",190,186377,"0.0-3.59-2.59","54lnlrpz3bd1qa5",141,"179.csv","","null","resources/images/coin2.png","null","",NA,NA,NA,NA,""
"image-keyboard-response",191,186614,"0.0-3.60-0.60","54lnlrpz3bd1qa5",141,"179.csv","","235.90000000037253","resources/trios/L2T2A3.jpg","37","restless",0.7,0.3,0.7,0.911784148949261,"false"
"image-keyboard-response",192,187015,"0.0-3.60-1.60","54lnlrpz3bd1qa5",141,"179.csv","","null","resources/maskTrios/L2BB.jpg","null","",NA,NA,NA,NA,""
"image-keyboard-response",193,188217,"0.0-3.60-2.60","54lnlrpz3bd1qa5",141,"179.csv","","null","resources/images/fishbone.png","null","",NA,NA,NA,NA,""
"image-keyboard-response",194,188804,"0.0-3.61-0.61","54lnlrpz3bd1qa5",141,"179.csv","","586.6999999992549","resources/trios/L4T2A3.jpg","37","restless",0.7,0.3,0.7,0.226953838772353,"true"
"image-keyboard-response",195,189206,"0.0-3.61-1.61","54lnlrpz3bd1qa5",141,"179.csv","","null","resources/maskTrios/L4BB.jpg","null","",NA,NA,NA,NA,""
"image-keyboard-response",196,190408,"0.0-3.61-2.61","54lnlrpz3bd1qa5",141,"179.csv","","null","resources/images/coin2.png","null","",NA,NA,NA,NA,""
"image-keyboard-response",197,190654,"0.0-3.62-0.62","54lnlrpz3bd1qa5",141,"179.csv","","245.09999999962747","resources/trios/L4T1A1.jpg","37","restless",0.7,0.3,0.7,0.415342355675384,"true"
"image-keyboard-response",198,191056,"0.0-3.62-1.62","54lnlrpz3bd1qa5",141,"179.csv","","null","resources/maskTrios/L4BB.jpg","null","",NA,NA,NA,NA,""
"image-keyboard-response",199,192257,"0.0-3.62-2.62","54lnlrpz3bd1qa5",141,"179.csv","","null","resources/images/coin2.png","null","",NA,NA,NA,NA,""
"image-keyboard-response",200,192513,"0.0-3.63-0.63","54lnlrpz3bd1qa5",141,"179.csv","","255.19999999925494","resources/trios/L2T1A3.jpg","37","restless",0.7,0.3,0.7,0.97054103834017,"false"
"image-keyboard-response",201,192916,"0.0-3.63-1.63","54lnlrpz3bd1qa5",141,"179.csv","","null","resources/maskTrios/L2BB.jpg","null","",NA,NA,NA,NA,""
"image-keyboard-response",202,194118,"0.0-3.63-2.63","54lnlrpz3bd1qa5",141,"179.csv","","null","resources/images/fishbone.png","null","",NA,NA,NA,NA,""
"image-keyboard-response",203,194315,"0.0-3.64-0.64","54lnlrpz3bd1qa5",141,"179.csv","","195.90000000037253","resources/trios/L2T2A3.jpg","39","restless",0.7,0.3,0.7,0.717896194282123,"false"
"image-keyboard-response",204,194717,"0.0-3.64-1.64","54lnlrpz3bd1qa5",141,"179.csv","","null","resources/maskTrios/BBA3.jpg","null","",NA,NA,NA,NA,""
"image-keyboard-response",205,195919,"0.0-3.64-2.64","54lnlrpz3bd1qa5",141,"179.csv","","null","resources/images/fishbone.png","null","",NA,NA,NA,NA,""
"image-keyboard-response",206,195995,"0.0-3.65-0.65","54lnlrpz3bd1qa5",141,"179.csv","","75.09999999962747","resources/trios/L2T1A1.jpg","38","restless",0.7,0.4,0.7,0.21132652545628,"true"
"image-keyboard-response",207,196396,"0.0-3.65-1.65","54lnlrpz3bd1qa5",141,"179.csv","","null","resources/maskTrios/BT1B.jpg","null","",NA,NA,NA,NA,""
"image-keyboard-response",208,197598,"0.0-3.65-2.65","54lnlrpz3bd1qa5",141,"179.csv","","null","resources/images/coin2.png","null","",NA,NA,NA,NA,""
"image-keyboard-response",209,197765,"0.0-3.66-0.66","54lnlrpz3bd1qa5",141,"179.csv","","166.5","resources/trios/L2T2A3.jpg","38","restless",0.7,0.4,0.7,0.69472253920714,"false"
"image-keyboard-response",210,198166,"0.0-3.66-1.66","54lnlrpz3bd1qa5",141,"179.csv","","null","resources/maskTrios/BT2B.jpg","null","",NA,NA,NA,NA,""
"image-keyboard-response",211,199368,"0.0-3.66-2.66","54lnlrpz3bd1qa5",141,"179.csv","","null","resources/images/fishbone.png","null","",NA,NA,NA,NA,""
"image-keyboard-response",212,199604,"0.0-3.67-0.67","54lnlrpz3bd1qa5",141,"179.csv","","236.39999999850988","resources/trios/L4T1A3.jpg","37","restless",0.7,0.4,0.7,0.463100614659667,"true"
"image-keyboard-response",213,200006,"0.0-3.67-1.67","54lnlrpz3bd1qa5",141,"179.csv","","null","resources/maskTrios/L4BB.jpg","null","",NA,NA,NA,NA,""
"image-keyboard-response",214,201208,"0.0-3.67-2.67","54lnlrpz3bd1qa5",141,"179.csv","","null","resources/images/coin2.png","null","",NA,NA,NA,NA,""
"image-keyboard-response",215,201365,"0.0-3.68-0.68","54lnlrpz3bd1qa5",141,"179.csv","","156.5","resources/trios/L2T1A3.jpg","37","restless",0.8,0.4,0.7,0.514504093435369,"true"
"image-keyboard-response",216,201768,"0.0-3.68-1.68","54lnlrpz3bd1qa5",141,"179.csv","","null","resources/maskTrios/L2BB.jpg","null","",NA,NA,NA,NA,""
"image-keyboard-response",217,202969,"0.0-3.68-2.68","54lnlrpz3bd1qa5",141,"179.csv","","null","resources/images/coin2.png","null","",NA,NA,NA,NA,""
"image-keyboard-response",218,203145,"0.0-3.69-0.69","54lnlrpz3bd1qa5",141,"179.csv","","175.2999999988824","resources/trios/L4T2A3.jpg","37","restless",0.8,0.4,0.7,0.772022170721225,"true"
"image-keyboard-response",219,203547,"0.0-3.69-1.69","54lnlrpz3bd1qa5",141,"179.csv","","null","resources/maskTrios/L4BB.jpg","null","",NA,NA,NA,NA,""
"image-keyboard-response",220,204748,"0.0-3.69-2.69","54lnlrpz3bd1qa5",141,"179.csv","","null","resources/images/coin2.png","null","",NA,NA,NA,NA,""
"image-keyboard-response",221,204854,"0.0-3.70-0.70","54lnlrpz3bd1qa5",141,"179.csv","","106.19999999925494","resources/trios/L2T2A3.jpg","37","restless",0.8,0.4,0.7,0.902438604023746,"false"
"image-keyboard-response",222,205256,"0.0-3.70-1.70","54lnlrpz3bd1qa5",141,"179.csv","","null","resources/maskTrios/L2BB.jpg","null","",NA,NA,NA,NA,""
"image-keyboard-response",223,206458,"0.0-3.70-2.70","54lnlrpz3bd1qa5",141,"179.csv","","null","resources/images/fishbone.png","null","",NA,NA,NA,NA,""
"image-keyboard-response",224,206644,"0.0-3.71-0.71","54lnlrpz3bd1qa5",141,"179.csv","","185.59999999962747","resources/trios/L4T1A1.jpg","38","restless",0.8,0.4,0.7,0.135353883885027,"true"
"image-keyboard-response",225,207046,"0.0-3.71-1.71","54lnlrpz3bd1qa5",141,"179.csv","","null","resources/maskTrios/BT1B.jpg","null","",NA,NA,NA,NA,""
"image-keyboard-response",226,208248,"0.0-3.71-2.71","54lnlrpz3bd1qa5",141,"179.csv","","null","resources/images/coin2.png","null","",NA,NA,NA,NA,""
"image-keyboard-response",227,208474,"0.0-3.72-0.72","54lnlrpz3bd1qa5",141,"179.csv","","225.2000000011176","resources/trios/L2T1A3.jpg","39","restless",0.8,0.4,0.7,0.0422483553799033,"true"
"image-keyboard-response",228,208876,"0.0-3.72-1.72","54lnlrpz3bd1qa5",141,"179.csv","","null","resources/maskTrios/BBA3.jpg","null","",NA,NA,NA,NA,""
"image-keyboard-response",229,210078,"0.0-3.72-2.72","54lnlrpz3bd1qa5",141,"179.csv","","null","resources/images/coin2.png","null","",NA,NA,NA,NA,""
"image-keyboard-response",230,210264,"0.0-3.73-0.73","54lnlrpz3bd1qa5",141,"179.csv","","185.2000000011176","resources/trios/L2T2A1.jpg","37","restless",0.8,0.4,0.7,0.575761220859672,"true"
"image-keyboard-response",231,210665,"0.0-3.73-1.73","54lnlrpz3bd1qa5",141,"179.csv","","null","resources/maskTrios/L2BB.jpg","null","",NA,NA,NA,NA,""
"image-keyboard-response",232,211868,"0.0-3.73-2.73","54lnlrpz3bd1qa5",141,"179.csv","","null","resources/images/coin2.png","null","",NA,NA,NA,NA,""
"image-keyboard-response",233,212004,"0.0-3.74-0.74","54lnlrpz3bd1qa5",141,"179.csv","","136","resources/trios/L4T2A3.jpg","37","restless",0.8,0.4,0.8,0.960462500641025,"false"
"image-keyboard-response",234,212406,"0.0-3.74-1.74","54lnlrpz3bd1qa5",141,"179.csv","","null","resources/maskTrios/L4BB.jpg","null","",NA,NA,NA,NA,""
"image-keyboard-response",235,213609,"0.0-3.74-2.74","54lnlrpz3bd1qa5",141,"179.csv","","null","resources/images/fishbone.png","null","",NA,NA,NA,NA,""
"image-keyboard-response",236,213746,"0.0-3.75-0.75","54lnlrpz3bd1qa5",141,"179.csv","","137.09999999962747","resources/trios/L2T1A1.jpg","39","restless",0.8,0.4,0.8,0.500049891026094,"true"
"image-keyboard-response",237,214147,"0.0-3.75-1.75","54lnlrpz3bd1qa5",141,"179.csv","","null","resources/maskTrios/BBA1.jpg","null","",NA,NA,NA,NA,""
"image-keyboard-response",238,215348,"0.0-3.75-2.75","54lnlrpz3bd1qa5",141,"179.csv","","null","resources/images/coin2.png","null","",NA,NA,NA,NA,""
"image-keyboard-response",239,215536,"0.0-3.76-0.76","54lnlrpz3bd1qa5",141,"179.csv","","187","resources/trios/L2T2A3.jpg","37","restless",0.8,0.4,0.8,0.588483998227809,"true"
"image-keyboard-response",240,215938,"0.0-3.76-1.76","54lnlrpz3bd1qa5",141,"179.csv","","null","resources/maskTrios/L2BB.jpg","null","",NA,NA,NA,NA,""
"image-keyboard-response",241,217140,"0.0-3.76-2.76","54lnlrpz3bd1qa5",141,"179.csv","","null","resources/images/coin2.png","null","",NA,NA,NA,NA,""
"image-keyboard-response",242,217565,"0.0-3.77-0.77","54lnlrpz3bd1qa5",141,"179.csv","","424.30000000074506","resources/trios/L2T2A3.jpg","38","restless",0.8,0.4,0.8,0.449913438203188,"false"
"image-keyboard-response",243,217967,"0.0-3.77-1.77","54lnlrpz3bd1qa5",141,"179.csv","","null","resources/maskTrios/BT2B.jpg","null","",NA,NA,NA,NA,""
"image-keyboard-response",244,219169,"0.0-3.77-2.77","54lnlrpz3bd1qa5",141,"179.csv","","null","resources/images/fishbone.png","null","",NA,NA,NA,NA,""
"image-keyboard-response",245,219476,"0.0-3.78-0.78","54lnlrpz3bd1qa5",141,"179.csv","","306.30000000074506","resources/trios/L2T1A1.jpg","37","restless",0.8,0.4,0.8,0.510869755121385,"true"
"image-keyboard-response",246,219879,"0.0-3.78-1.78","54lnlrpz3bd1qa5",141,"179.csv","","null","resources/maskTrios/L2BB.jpg","null","",NA,NA,NA,NA,""
"image-keyboard-response",247,221080,"0.0-3.78-2.78","54lnlrpz3bd1qa5",141,"179.csv","","null","resources/images/coin2.png","null","",NA,NA,NA,NA,""
"image-keyboard-response",248,221325,"0.0-3.79-0.79","54lnlrpz3bd1qa5",141,"179.csv","","243.40000000037253","resources/trios/L2T1A1.jpg","37","restless",0.8,0.4,0.8,0.00371795214183424,"true"
"image-keyboard-response",249,221727,"0.0-3.79-1.79","54lnlrpz3bd1qa5",141,"179.csv","","null","resources/maskTrios/L2BB.jpg","null","",NA,NA,NA,NA,""
"image-keyboard-response",250,222929,"0.0-3.79-2.79","54lnlrpz3bd1qa5",141,"179.csv","","null","resources/images/coin2.png","null","",NA,NA,NA,NA,""
"image-keyboard-response",251,224115,"0.0-3.80-0.80","54lnlrpz3bd1qa5",141,"179.csv","","1185.0999999996275","resources/trios/L2T2A1.jpg","38","restless",0.8,0.4,0.8,0.470893594697677,"false"
"image-keyboard-response",252,224517,"0.0-3.80-1.80","54lnlrpz3bd1qa5",141,"179.csv","","null","resources/maskTrios/BT2B.jpg","null","",NA,NA,NA,NA,""
"image-keyboard-response",253,225719,"0.0-3.80-2.80","54lnlrpz3bd1qa5",141,"179.csv","","null","resources/images/fishbone.png","null","",NA,NA,NA,NA,""
"image-keyboard-response",254,226935,"0.0-3.81-0.81","54lnlrpz3bd1qa5",141,"179.csv","","1215.4000000003725","resources/trios/L2T2A1.jpg","37","restless",0.8,0.4,0.9,0.934074777280895,"false"
"image-keyboard-response",255,227338,"0.0-3.81-1.81","54lnlrpz3bd1qa5",141,"179.csv","","null","resources/maskTrios/L2BB.jpg","null","",NA,NA,NA,NA,""
"image-keyboard-response",256,228540,"0.0-3.81-2.81","54lnlrpz3bd1qa5",141,"179.csv","","null","resources/images/fishbone.png","null","",NA,NA,NA,NA,""
"image-keyboard-response",257,230375,"0.0-3.82-0.82","54lnlrpz3bd1qa5",141,"179.csv","","1834.5999999996275","resources/trios/L4T2A1.jpg","38","restless",0.8,0.4,0.8,0.305297923292909,"true"
"image-keyboard-response",258,230777,"0.0-3.82-1.82","54lnlrpz3bd1qa5",141,"179.csv","","null","resources/maskTrios/BT2B.jpg","null","",NA,NA,NA,NA,""
"image-keyboard-response",259,231980,"0.0-3.82-2.82","54lnlrpz3bd1qa5",141,"179.csv","","null","resources/images/coin2.png","null","",NA,NA,NA,NA,""
"image-keyboard-response",260,232205,"0.0-3.83-0.83","54lnlrpz3bd1qa5",141,"179.csv","","224.59999999962747","resources/trios/L4T1A3.jpg","37","restless",0.8,0.4,0.9,0.801142548699827,"false"
"image-keyboard-response",261,232607,"0.0-3.83-1.83","54lnlrpz3bd1qa5",141,"179.csv","","null","resources/maskTrios/L4BB.jpg","null","",NA,NA,NA,NA,""
"image-keyboard-response",262,233809,"0.0-3.83-2.83","54lnlrpz3bd1qa5",141,"179.csv","","null","resources/images/fishbone.png","null","",NA,NA,NA,NA,""
"image-keyboard-response",263,234006,"0.0-3.84-0.84","54lnlrpz3bd1qa5",141,"179.csv","","197.5","resources/trios/L2T1A1.jpg","39","restless",0.8,0.4,0.9,0.766392888091064,"true"
"image-keyboard-response",264,234408,"0.0-3.84-1.84","54lnlrpz3bd1qa5",141,"179.csv","","null","resources/maskTrios/BBA1.jpg","null","",NA,NA,NA,NA,""
"image-keyboard-response",265,235610,"0.0-3.84-2.84","54lnlrpz3bd1qa5",141,"179.csv","","null","resources/images/coin2.png","null","",NA,NA,NA,NA,""
"image-keyboard-response",266,235798,"0.0-3.85-0.85","54lnlrpz3bd1qa5",141,"179.csv","","187.2000000011176","resources/trios/L4T1A3.jpg","38","restless",0.7,0.4,0.9,0.0167531422960203,"true"
"image-keyboard-response",267,236200,"0.0-3.85-1.85","54lnlrpz3bd1qa5",141,"179.csv","","null","resources/maskTrios/BT1B.jpg","null","",NA,NA,NA,NA,""
"image-keyboard-response",268,237402,"0.0-3.85-2.85","54lnlrpz3bd1qa5",141,"179.csv","","null","resources/images/coin2.png","null","",NA,NA,NA,NA,""
"image-keyboard-response",269,237477,"0.0-3.86-0.86","54lnlrpz3bd1qa5",141,"179.csv","","74.09999999962747","resources/trios/L2T1A3.jpg","37","restless",0.7,0.4,0.9,0.906647698952807,"false"
"image-keyboard-response",270,237878,"0.0-3.86-1.86","54lnlrpz3bd1qa5",141,"179.csv","","null","resources/maskTrios/L2BB.jpg","null","",NA,NA,NA,NA,""
"image-keyboard-response",271,239080,"0.0-3.86-2.86","54lnlrpz3bd1qa5",141,"179.csv","","null","resources/images/fishbone.png","null","",NA,NA,NA,NA,""
"image-keyboard-response",272,239276,"0.0-3.87-0.87","54lnlrpz3bd1qa5",141,"179.csv","","195.2000000011176","resources/trios/L2T1A1.jpg","39","restless",0.7,0.5,0.8,0.10240126107442,"true"
"image-keyboard-response",273,239677,"0.0-3.87-1.87","54lnlrpz3bd1qa5",141,"179.csv","","null","resources/maskTrios/BBA1.jpg","null","",NA,NA,NA,NA,""
"image-keyboard-response",274,240878,"0.0-3.87-2.87","54lnlrpz3bd1qa5",141,"179.csv","","null","resources/images/coin2.png","null","",NA,NA,NA,NA,""
"image-keyboard-response",275,241086,"0.0-3.88-0.88","54lnlrpz3bd1qa5",141,"179.csv","","207","resources/trios/L4T1A3.jpg","38","restless",0.7,0.5,0.7,0.411387582961881,"true"
"image-keyboard-response",276,241488,"0.0-3.88-1.88","54lnlrpz3bd1qa5",141,"179.csv","","null","resources/maskTrios/BT1B.jpg","null","",NA,NA,NA,NA,""
"image-keyboard-response",277,242689,"0.0-3.88-2.88","54lnlrpz3bd1qa5",141,"179.csv","","null","resources/images/coin2.png","null","",NA,NA,NA,NA,""
"image-keyboard-response",278,242886,"0.0-3.89-0.89","54lnlrpz3bd1qa5",141,"179.csv","","196.5","resources/trios/L4T2A1.jpg","39","restless",0.6,0.5,0.7,0.106367860979435,"true"
"image-keyboard-response",279,243288,"0.0-3.89-1.89","54lnlrpz3bd1qa5",141,"179.csv","","null","resources/maskTrios/BBA1.jpg","null","",NA,NA,NA,NA,""
"image-keyboard-response",280,244490,"0.0-3.89-2.89","54lnlrpz3bd1qa5",141,"179.csv","","null","resources/images/coin2.png","null","",NA,NA,NA,NA,""
"image-keyboard-response",281,244696,"0.0-3.90-0.90","54lnlrpz3bd1qa5",141,"179.csv","","205.80000000074506","resources/trios/L2T2A3.jpg","38","restless",0.6,0.5,0.7,0.969026136170582,"false"
"image-keyboard-response",282,245098,"0.0-3.90-1.90","54lnlrpz3bd1qa5",141,"179.csv","","null","resources/maskTrios/BT2B.jpg","null","",NA,NA,NA,NA,""
"image-keyboard-response",283,246299,"0.0-3.90-2.90","54lnlrpz3bd1qa5",141,"179.csv","","null","resources/images/fishbone.png","null","",NA,NA,NA,NA,""
"image-keyboard-response",284,246336,"0.0-3.91-0.91","54lnlrpz3bd1qa5",141,"179.csv","","36.09999999962747","resources/trios/L2T2A1.jpg","37","restless",0.6,0.5,0.7,0.322156907234325,"true"
"image-keyboard-response",285,246738,"0.0-3.91-1.91","54lnlrpz3bd1qa5",141,"179.csv","","null","resources/maskTrios/L2BB.jpg","null","",NA,NA,NA,NA,""
"image-keyboard-response",286,247939,"0.0-3.91-2.91","54lnlrpz3bd1qa5",141,"179.csv","","null","resources/images/coin2.png","null","",NA,NA,NA,NA,""
"image-keyboard-response",287,248136,"0.0-3.92-0.92","54lnlrpz3bd1qa5",141,"179.csv","","196.09999999962747","resources/trios/L4T2A1.jpg","37","restless",0.6,0.5,0.7,0.801285223430803,"false"
"image-keyboard-response",288,248537,"0.0-3.92-1.92","54lnlrpz3bd1qa5",141,"179.csv","","null","resources/maskTrios/L4BB.jpg","null","",NA,NA,NA,NA,""
"image-keyboard-response",289,249739,"0.0-3.92-2.92","54lnlrpz3bd1qa5",141,"179.csv","","null","resources/images/fishbone.png","null","",NA,NA,NA,NA,""
"image-keyboard-response",290,249837,"0.0-3.93-0.93","54lnlrpz3bd1qa5",141,"179.csv","","97.19999999925494","resources/trios/L4T1A3.jpg","39","restless",0.6,0.5,0.7,0.0950048626525279,"true"
"image-keyboard-response",291,250238,"0.0-3.93-1.93","54lnlrpz3bd1qa5",141,"179.csv","","null","resources/maskTrios/BBA3.jpg","null","",NA,NA,NA,NA,""
"image-keyboard-response",292,251439,"0.0-3.93-2.93","54lnlrpz3bd1qa5",141,"179.csv","","null","resources/images/coin2.png","null","",NA,NA,NA,NA,""
"image-keyboard-response",293,251636,"0.0-3.94-0.94","54lnlrpz3bd1qa5",141,"179.csv","","195.19999999925494","resources/trios/L4T1A3.jpg","39","restless",0.6,0.5,0.7,0.651795018673593,"true"
"image-keyboard-response",294,252038,"0.0-3.94-1.94","54lnlrpz3bd1qa5",141,"179.csv","","null","resources/maskTrios/BBA3.jpg","null","",NA,NA,NA,NA,""
"image-keyboard-response",295,253239,"0.0-3.94-2.94","54lnlrpz3bd1qa5",141,"179.csv","","null","resources/images/coin2.png","null","",NA,NA,NA,NA,""
"image-keyboard-response",296,253407,"0.0-3.95-0.95","54lnlrpz3bd1qa5",141,"179.csv","","166.09999999962747","resources/trios/L2T1A1.jpg","39","restless",0.6,0.4,0.7,0.162701294462035,"true"
"image-keyboard-response",297,253808,"0.0-3.95-1.95","54lnlrpz3bd1qa5",141,"179.csv","","null","resources/maskTrios/BBA1.jpg","null","",NA,NA,NA,NA,""
"image-keyboard-response",298,255009,"0.0-3.95-2.95","54lnlrpz3bd1qa5",141,"179.csv","","null","resources/images/coin2.png","null","",NA,NA,NA,NA,""
"image-keyboard-response",299,255307,"0.0-3.96-0.96","54lnlrpz3bd1qa5",141,"179.csv","","297.30000000074506","resources/trios/L4T2A1.jpg","39","restless",0.6,0.4,0.7,0.883934134995453,"false"
"image-keyboard-response",300,255708,"0.0-3.96-1.96","54lnlrpz3bd1qa5",141,"179.csv","","null","resources/maskTrios/BBA1.jpg","null","",NA,NA,NA,NA,""
"image-keyboard-response",301,256910,"0.0-3.96-2.96","54lnlrpz3bd1qa5",141,"179.csv","","null","resources/images/fishbone.png","null","",NA,NA,NA,NA,""
"image-keyboard-response",302,257127,"0.0-3.97-0.97","54lnlrpz3bd1qa5",141,"179.csv","","216.7999999988824","resources/trios/L2T2A1.jpg","39","restless",0.6,0.4,0.7,0.625875948870374,"true"
"image-keyboard-response",303,257528,"0.0-3.97-1.97","54lnlrpz3bd1qa5",141,"179.csv","","null","resources/maskTrios/BBA1.jpg","null","",NA,NA,NA,NA,""
"image-keyboard-response",304,258730,"0.0-3.97-2.97","54lnlrpz3bd1qa5",141,"179.csv","","null","resources/images/coin2.png","null","",NA,NA,NA,NA,""
"image-keyboard-response",305,258938,"0.0-3.98-0.98","54lnlrpz3bd1qa5",141,"179.csv","","206.30000000074506","resources/trios/L4T1A1.jpg","39","restless",0.6,0.4,0.7,0.231495369138334,"true"
"image-keyboard-response",306,259339,"0.0-3.98-1.98","54lnlrpz3bd1qa5",141,"179.csv","","null","resources/maskTrios/BBA1.jpg","null","",NA,NA,NA,NA,""
"image-keyboard-response",307,260541,"0.0-3.98-2.98","54lnlrpz3bd1qa5",141,"179.csv","","null","resources/images/coin2.png","null","",NA,NA,NA,NA,""
"image-keyboard-response",308,260677,"0.0-3.99-0.99","54lnlrpz3bd1qa5",141,"179.csv","","135.09999999962747","resources/trios/L2T2A3.jpg","38","restless",0.6,0.4,0.7,0.411006541913385,"false"
"image-keyboard-response",309,261078,"0.0-3.99-1.99","54lnlrpz3bd1qa5",141,"179.csv","","null","resources/maskTrios/BT2B.jpg","null","",NA,NA,NA,NA,""
"image-keyboard-response",310,262279,"0.0-3.99-2.99","54lnlrpz3bd1qa5",141,"179.csv","","null","resources/images/fishbone.png","null","",NA,NA,NA,NA,""
"image-keyboard-response",311,262417,"0.0-3.100-0.100","54lnlrpz3bd1qa5",141,"179.csv","","136.69999999925494","resources/trios/L4T2A3.jpg","37","restless",0.6,0.4,0.8,0.4900729698056,"true"
"image-keyboard-response",312,262818,"0.0-3.100-1.100","54lnlrpz3bd1qa5",141,"179.csv","","null","resources/maskTrios/L4BB.jpg","null","",NA,NA,NA,NA,""
"image-keyboard-response",313,264020,"0.0-3.100-2.100","54lnlrpz3bd1qa5",141,"179.csv","","null","resources/images/coin2.png","null","",NA,NA,NA,NA,""
"image-keyboard-response",314,264227,"0.0-3.101-0.101","54lnlrpz3bd1qa5",141,"179.csv","","205.7000000011176","resources/trios/L2T2A1.jpg","39","restless",0.7,0.4,0.8,0.178978791586875,"true"
"image-keyboard-response",315,264629,"0.0-3.101-1.101","54lnlrpz3bd1qa5",141,"179.csv","","null","resources/maskTrios/BBA1.jpg","null","",NA,NA,NA,NA,""
"image-keyboard-response",316,265831,"0.0-3.101-2.101","54lnlrpz3bd1qa5",141,"179.csv","","null","resources/images/coin2.png","null","",NA,NA,NA,NA,""
"image-keyboard-response",317,266027,"0.0-3.102-0.102","54lnlrpz3bd1qa5",141,"179.csv","","195.5","resources/trios/L4T2A3.jpg","37","restless",0.7,0.4,0.7,0.673204129464993,"true"
"image-keyboard-response",318,266428,"0.0-3.102-1.102","54lnlrpz3bd1qa5",141,"179.csv","","null","resources/maskTrios/L4BB.jpg","null","",NA,NA,NA,NA,""
"image-keyboard-response",319,267630,"0.0-3.102-2.102","54lnlrpz3bd1qa5",141,"179.csv","","null","resources/images/coin2.png","null","",NA,NA,NA,NA,""
"image-keyboard-response",320,267827,"0.0-3.103-0.103","54lnlrpz3bd1qa5",141,"179.csv","","195.7999999988824","resources/trios/L2T2A3.jpg","39","restless",0.7,0.4,0.7,0.0917941526249308,"true"
"image-keyboard-response",321,268229,"0.0-3.103-1.103","54lnlrpz3bd1qa5",141,"179.csv","","null","resources/maskTrios/BBA3.jpg","null","",NA,NA,NA,NA,""
"image-keyboard-response",322,269430,"0.0-3.103-2.103","54lnlrpz3bd1qa5",141,"179.csv","","null","resources/images/coin2.png","null","",NA,NA,NA,NA,""
"image-keyboard-response",323,269527,"0.0-3.104-0.104","54lnlrpz3bd1qa5",141,"179.csv","","96.09999999962747","resources/trios/L4T2A1.jpg","37","restless",0.6,0.4,0.7,0.563373046687694,"true"
"image-keyboard-response",324,269929,"0.0-3.104-1.104","54lnlrpz3bd1qa5",141,"179.csv","","null","resources/maskTrios/L4BB.jpg","null","",NA,NA,NA,NA,""
"image-keyboard-response",325,271131,"0.0-3.104-2.104","54lnlrpz3bd1qa5",141,"179.csv","","null","resources/images/coin2.png","null","",NA,NA,NA,NA,""
"image-keyboard-response",326,271217,"0.0-3.105-0.105","54lnlrpz3bd1qa5",141,"179.csv","","85.40000000037253","resources/trios/L2T1A1.jpg","38","restless",0.6,0.5,0.7,0.950095131615461,"false"
"image-keyboard-response",327,271619,"0.0-3.105-1.105","54lnlrpz3bd1qa5",141,"179.csv","","null","resources/maskTrios/BT1B.jpg","null","",NA,NA,NA,NA,""
"image-keyboard-response",328,272821,"0.0-3.105-2.105","54lnlrpz3bd1qa5",141,"179.csv","","null","resources/images/fishbone.png","null","",NA,NA,NA,NA,""
"image-keyboard-response",329,272848,"0.0-3.106-0.106","54lnlrpz3bd1qa5",141,"179.csv","","26.200000001117587","resources/trios/L4T2A3.jpg","39","restless",0.6,0.5,0.7,0.177925566894522,"true"
"image-keyboard-response",330,273250,"0.0-3.106-1.106","54lnlrpz3bd1qa5",141,"179.csv","","null","resources/maskTrios/BBA3.jpg","null","",NA,NA,NA,NA,""
"image-keyboard-response",331,274451,"0.0-3.106-2.106","54lnlrpz3bd1qa5",141,"179.csv","","null","resources/images/coin2.png","null","",NA,NA,NA,NA,""
"image-keyboard-response",332,274528,"0.0-3.107-0.107","54lnlrpz3bd1qa5",141,"179.csv","","76.79999999888241","resources/trios/L2T2A3.jpg","37","restless",0.6,0.5,0.6,0.297815669414014,"true"
"image-keyboard-response",333,274929,"0.0-3.107-1.107","54lnlrpz3bd1qa5",141,"179.csv","","null","resources/maskTrios/L2BB.jpg","null","",NA,NA,NA,NA,""
"image-keyboard-response",334,276132,"0.0-3.107-2.107","54lnlrpz3bd1qa5",141,"179.csv","","null","resources/images/coin2.png","null","",NA,NA,NA,NA,""
"image-keyboard-response",335,276298,"0.0-3.108-0.108","54lnlrpz3bd1qa5",141,"179.csv","","165.60000000149012","resources/trios/L4T1A1.jpg","37","restless",0.6,0.5,0.6,0.292672212338076,"true"
"image-keyboard-response",336,276699,"0.0-3.108-1.108","54lnlrpz3bd1qa5",141,"179.csv","","null","resources/maskTrios/L4BB.jpg","null","",NA,NA,NA,NA,""
"image-keyboard-response",337,277901,"0.0-3.108-2.108","54lnlrpz3bd1qa5",141,"179.csv","","null","resources/images/coin2.png","null","",NA,NA,NA,NA,""
"image-keyboard-response",338,277999,"0.0-3.109-0.109","54lnlrpz3bd1qa5",141,"179.csv","","97","resources/trios/L4T2A1.jpg","39","restless",0.6,0.5,0.6,0.0267156830798649,"true"
"image-keyboard-response",339,278400,"0.0-3.109-1.109","54lnlrpz3bd1qa5",141,"179.csv","","null","resources/maskTrios/BBA1.jpg","null","",NA,NA,NA,NA,""
"image-keyboard-response",340,279601,"0.0-3.109-2.109","54lnlrpz3bd1qa5",141,"179.csv","","null","resources/images/coin2.png","null","",NA,NA,NA,NA,""
"image-keyboard-response",341,279748,"0.0-3.110-0.110","54lnlrpz3bd1qa5",141,"179.csv","","146.09999999962747","resources/trios/L2T1A1.jpg","37","restless",0.6,0.5,0.6,0.106982705944894,"true"
"image-keyboard-response",342,280149,"0.0-3.110-1.110","54lnlrpz3bd1qa5",141,"179.csv","","null","resources/maskTrios/L2BB.jpg","null","",NA,NA,NA,NA,""
"image-keyboard-response",343,281351,"0.0-3.110-2.110","54lnlrpz3bd1qa5",141,"179.csv","","null","resources/images/coin2.png","null","",NA,NA,NA,NA,""
"image-keyboard-response",344,281478,"0.0-3.111-0.111","54lnlrpz3bd1qa5",141,"179.csv","","125.90000000037253","resources/trios/L2T1A3.jpg","39","restless",0.6,0.5,0.6,0.419647416082985,"true"
"image-keyboard-response",345,281879,"0.0-3.111-1.111","54lnlrpz3bd1qa5",141,"179.csv","","null","resources/maskTrios/BBA3.jpg","null","",NA,NA,NA,NA,""
"image-keyboard-response",346,283081,"0.0-3.111-2.111","54lnlrpz3bd1qa5",141,"179.csv","","null","resources/images/coin2.png","null","",NA,NA,NA,NA,""
"image-keyboard-response",347,283239,"0.0-3.112-0.112","54lnlrpz3bd1qa5",141,"179.csv","","156.7999999988824","resources/trios/L4T1A1.jpg","37","restless",0.6,0.5,0.6,0.450744915211564,"true"
"image-keyboard-response",348,283640,"0.0-3.112-1.112","54lnlrpz3bd1qa5",141,"179.csv","","null","resources/maskTrios/L4BB.jpg","null","",NA,NA,NA,NA,""
"image-keyboard-response",349,284842,"0.0-3.112-2.112","54lnlrpz3bd1qa5",141,"179.csv","","null","resources/images/coin2.png","null","",NA,NA,NA,NA,""
"image-keyboard-response",350,285059,"0.0-3.113-0.113","54lnlrpz3bd1qa5",141,"179.csv","","216","resources/trios/L2T2A1.jpg","39","restless",0.6,0.5,0.6,0.356817434881296,"true"
"image-keyboard-response",351,285461,"0.0-3.113-1.113","54lnlrpz3bd1qa5",141,"179.csv","","null","resources/maskTrios/BBA1.jpg","null","",NA,NA,NA,NA,""
"image-keyboard-response",352,286662,"0.0-3.113-2.113","54lnlrpz3bd1qa5",141,"179.csv","","null","resources/images/coin2.png","null","",NA,NA,NA,NA,""
"image-keyboard-response",353,286908,"0.0-3.114-0.114","54lnlrpz3bd1qa5",141,"179.csv","","245.40000000037253","resources/trios/L2T2A3.jpg","37","restless",0.6,0.6,0.6,0.393718684760759,"true"
"image-keyboard-response",354,287310,"0.0-3.114-1.114","54lnlrpz3bd1qa5",141,"179.csv","","null","resources/maskTrios/L2BB.jpg","null","",NA,NA,NA,NA,""
"image-keyboard-response",355,288512,"0.0-3.114-2.114","54lnlrpz3bd1qa5",141,"179.csv","","null","resources/images/coin2.png","null","",NA,NA,NA,NA,""
"image-keyboard-response",356,288668,"0.0-3.115-0.115","54lnlrpz3bd1qa5",141,"179.csv","","155.2999999988824","resources/trios/L2T2A3.jpg","39","restless",0.6,0.6,0.6,0.0578297230796312,"true"
"image-keyboard-response",357,289069,"0.0-3.115-1.115","54lnlrpz3bd1qa5",141,"179.csv","","null","resources/maskTrios/BBA3.jpg","null","",NA,NA,NA,NA,""
"image-keyboard-response",358,290271,"0.0-3.115-2.115","54lnlrpz3bd1qa5",141,"179.csv","","null","resources/images/coin2.png","null","",NA,NA,NA,NA,""
"image-keyboard-response",359,290448,"0.0-3.116-0.116","54lnlrpz3bd1qa5",141,"179.csv","","176.5","resources/trios/L4T2A3.jpg","37","restless",0.6,0.7,0.6,0.203186705621012,"true"
"image-keyboard-response",360,290850,"0.0-3.116-1.116","54lnlrpz3bd1qa5",141,"179.csv","","null","resources/maskTrios/L4BB.jpg","null","",NA,NA,NA,NA,""
"image-keyboard-response",361,292052,"0.0-3.116-2.116","54lnlrpz3bd1qa5",141,"179.csv","","null","resources/images/coin2.png","null","",NA,NA,NA,NA,""
"image-keyboard-response",362,292269,"0.0-3.117-0.117","54lnlrpz3bd1qa5",141,"179.csv","","216.39999999850988","resources/trios/L4T1A3.jpg","39","restless",0.6,0.7,0.6,0.883142425206868,"false"
"image-keyboard-response",363,292670,"0.0-3.117-1.117","54lnlrpz3bd1qa5",141,"179.csv","","null","resources/maskTrios/BBA3.jpg","null","",NA,NA,NA,NA,""
"image-keyboard-response",364,293872,"0.0-3.117-2.117","54lnlrpz3bd1qa5",141,"179.csv","","null","resources/images/fishbone.png","null","",NA,NA,NA,NA,""
"image-keyboard-response",365,294220,"0.0-3.118-0.118","54lnlrpz3bd1qa5",141,"179.csv","","347.40000000037253","resources/trios/L4T2A3.jpg","38","restless",0.6,0.7,0.6,0.587618515051955,"true"
"image-keyboard-response",366,294621,"0.0-3.118-1.118","54lnlrpz3bd1qa5",141,"179.csv","","null","resources/maskTrios/BT2B.jpg","null","",NA,NA,NA,NA,""
"image-keyboard-response",367,295823,"0.0-3.118-2.118","54lnlrpz3bd1qa5",141,"179.csv","","null","resources/images/coin2.png","null","",NA,NA,NA,NA,""
"image-keyboard-response",368,296279,"0.0-3.119-0.119","54lnlrpz3bd1qa5",141,"179.csv","","455.19999999925494","resources/trios/L4T1A1.jpg","39","restless",0.6,0.7,0.6,0.0833808111294465,"true"
"image-keyboard-response",369,296681,"0.0-3.119-1.119","54lnlrpz3bd1qa5",141,"179.csv","","null","resources/maskTrios/BBA1.jpg","null","",NA,NA,NA,NA,""
"image-keyboard-response",370,297882,"0.0-3.119-2.119","54lnlrpz3bd1qa5",141,"179.csv","","null","resources/images/coin2.png","null","",NA,NA,NA,NA,""
"image-keyboard-response",371,297929,"0.0-3.120-0.120","54lnlrpz3bd1qa5",141,"179.csv","","45.90000000037253","resources/trios/L4T2A1.jpg","37","restless",0.6,0.7,0.7,0.333165819936811,"true"
"image-keyboard-response",372,298331,"0.0-3.120-1.120","54lnlrpz3bd1qa5",141,"179.csv","","null","resources/maskTrios/L4BB.jpg","null","",NA,NA,NA,NA,""
"image-keyboard-response",373,299533,"0.0-3.120-2.120","54lnlrpz3bd1qa5",141,"179.csv","","null","resources/images/coin2.png","null","",NA,NA,NA,NA,""
"image-keyboard-response",374,299719,"0.0-3.121-0.121","54lnlrpz3bd1qa5",141,"179.csv","","185.80000000074506","resources/trios/L4T1A1.jpg","39","restless",0.6,0.7,0.7,0.841248035149257,"false"
"image-keyboard-response",375,300120,"0.0-3.121-1.121","54lnlrpz3bd1qa5",141,"179.csv","","null","resources/maskTrios/BBA1.jpg","null","",NA,NA,NA,NA,""
"image-keyboard-response",376,301322,"0.0-3.121-2.121","54lnlrpz3bd1qa5",141,"179.csv","","null","resources/images/fishbone.png","null","",NA,NA,NA,NA,""
"image-keyboard-response",377,301719,"0.0-3.122-0.122","54lnlrpz3bd1qa5",141,"179.csv","","396.7999999988824","resources/trios/L2T1A3.jpg","37","restless",0.6,0.7,0.7,0.112724426350925,"true"
"image-keyboard-response",378,302121,"0.0-3.122-1.122","54lnlrpz3bd1qa5",141,"179.csv","","null","resources/maskTrios/L2BB.jpg","null","",NA,NA,NA,NA,""
"image-keyboard-response",379,303322,"0.0-3.122-2.122","54lnlrpz3bd1qa5",141,"179.csv","","null","resources/images/coin2.png","null","",NA,NA,NA,NA,""
"image-keyboard-response",380,303659,"0.0-3.123-0.123","54lnlrpz3bd1qa5",141,"179.csv","","336.59999999962747","resources/trios/L2T2A1.jpg","39","restless",0.6,0.7,0.7,0.795276332097348,"false"
"image-keyboard-response",381,304061,"0.0-3.123-1.123","54lnlrpz3bd1qa5",141,"179.csv","","null","resources/maskTrios/BBA1.jpg","null","",NA,NA,NA,NA,""
"image-keyboard-response",382,305263,"0.0-3.123-2.123","54lnlrpz3bd1qa5",141,"179.csv","","null","resources/images/fishbone.png","null","",NA,NA,NA,NA,""
"image-keyboard-response",383,305459,"0.0-3.124-0.124","54lnlrpz3bd1qa5",141,"179.csv","","196.09999999962747","resources/trios/L4T2A3.jpg","38","restless",0.6,0.7,0.7,0.951140183512325,"false"
"image-keyboard-response",384,305861,"0.0-3.124-1.124","54lnlrpz3bd1qa5",141,"179.csv","","null","resources/maskTrios/BT2B.jpg","null","",NA,NA,NA,NA,""
"image-keyboard-response",385,307062,"0.0-3.124-2.124","54lnlrpz3bd1qa5",141,"179.csv","","null","resources/images/fishbone.png","null","",NA,NA,NA,NA,""
"image-keyboard-response",386,307269,"0.0-3.125-0.125","54lnlrpz3bd1qa5",141,"179.csv","","206.09999999962747","resources/trios/L4T2A3.jpg","37","restless",0.6,0.7,0.7,0.0659772034353585,"true"
"image-keyboard-response",387,307671,"0.0-3.125-1.125","54lnlrpz3bd1qa5",141,"179.csv","","null","resources/maskTrios/L4BB.jpg","null","",NA,NA,NA,NA,""
"image-keyboard-response",388,308873,"0.0-3.125-2.125","54lnlrpz3bd1qa5",141,"179.csv","","null","resources/images/coin2.png","null","",NA,NA,NA,NA,""
"image-keyboard-response",389,309110,"0.0-3.126-0.126","54lnlrpz3bd1qa5",141,"179.csv","","236.2000000011176","resources/trios/L2T2A3.jpg","37","restless",0.6,0.7,0.7,0.663114930034554,"false"
"image-keyboard-response",390,309511,"0.0-3.126-1.126","54lnlrpz3bd1qa5",141,"179.csv","","null","resources/maskTrios/L2BB.jpg","null","",NA,NA,NA,NA,""
"image-keyboard-response",391,310713,"0.0-3.126-2.126","54lnlrpz3bd1qa5",141,"179.csv","","null","resources/images/fishbone.png","null","",NA,NA,NA,NA,""
"image-keyboard-response",392,310990,"0.0-3.127-0.127","54lnlrpz3bd1qa5",141,"179.csv","","276.59999999962747","resources/trios/L2T2A1.jpg","37","restless",0.6,0.7,0.7,0.378350071432807,"true"
"image-keyboard-response",393,311392,"0.0-3.127-1.127","54lnlrpz3bd1qa5",141,"179.csv","","null","resources/maskTrios/L2BB.jpg","null","",NA,NA,NA,NA,""
"image-keyboard-response",394,312595,"0.0-3.127-2.127","54lnlrpz3bd1qa5",141,"179.csv","","null","resources/images/coin2.png","null","",NA,NA,NA,NA,""
"image-keyboard-response",395,312801,"0.0-3.128-0.128","54lnlrpz3bd1qa5",141,"179.csv","","205.80000000074506","resources/trios/L2T1A1.jpg","39","restless",0.6,0.7,0.7,0.101031606114066,"true"
"image-keyboard-response",396,313202,"0.0-3.128-1.128","54lnlrpz3bd1qa5",141,"179.csv","","null","resources/maskTrios/BBA1.jpg","null","",NA,NA,NA,NA,""
"image-keyboard-response",397,314405,"0.0-3.128-2.128","54lnlrpz3bd1qa5",141,"179.csv","","null","resources/images/coin2.png","null","",NA,NA,NA,NA,""
"image-keyboard-response",398,314581,"0.0-3.129-0.129","54lnlrpz3bd1qa5",141,"179.csv","","175.5","resources/trios/L2T2A3.jpg","37","restless",0.6,0.7,0.7,0.655297180903916,"false"
"image-keyboard-response",399,314982,"0.0-3.129-1.129","54lnlrpz3bd1qa5",141,"179.csv","","null","resources/maskTrios/L2BB.jpg","null","",NA,NA,NA,NA,""
"image-keyboard-response",400,316183,"0.0-3.129-2.129","54lnlrpz3bd1qa5",141,"179.csv","","null","resources/images/fishbone.png","null","",NA,NA,NA,NA,""
"image-keyboard-response",401,316250,"0.0-3.130-0.130","54lnlrpz3bd1qa5",141,"179.csv","","66.40000000037253","resources/trios/L4T1A3.jpg","39","restless",0.6,0.7,0.7,0.430209590371553,"true"
"image-keyboard-response",402,316652,"0.0-3.130-1.130","54lnlrpz3bd1qa5",141,"179.csv","","null","resources/maskTrios/BBA3.jpg","null","",NA,NA,NA,NA,""
"image-keyboard-response",403,317853,"0.0-3.130-2.130","54lnlrpz3bd1qa5",141,"179.csv","","null","resources/images/coin2.png","null","",NA,NA,NA,NA,""
"image-keyboard-response",404,318040,"0.0-3.131-0.131","54lnlrpz3bd1qa5",141,"179.csv","","185.5","resources/trios/L2T2A1.jpg","38","restless",0.6,0.7,0.7,0.134926312628449,"true"
"image-keyboard-response",405,318442,"0.0-3.131-1.131","54lnlrpz3bd1qa5",141,"179.csv","","null","resources/maskTrios/BT2B.jpg","null","",NA,NA,NA,NA,""
"image-keyboard-response",406,319644,"0.0-3.131-2.131","54lnlrpz3bd1qa5",141,"179.csv","","null","resources/images/coin2.png","null","",NA,NA,NA,NA,""
"image-keyboard-response",407,319840,"0.0-3.132-0.132","54lnlrpz3bd1qa5",141,"179.csv","","195.7000000011176","resources/trios/L2T1A1.jpg","39","restless",0.6,0.6,0.6,0.98429824906509,"false"
"image-keyboard-response",408,320242,"0.0-3.132-1.132","54lnlrpz3bd1qa5",141,"179.csv","","null","resources/maskTrios/BBA1.jpg","null","",NA,NA,NA,NA,""
"image-keyboard-response",409,321443,"0.0-3.132-2.132","54lnlrpz3bd1qa5",141,"179.csv","","null","resources/images/fishbone.png","null","",NA,NA,NA,NA,""
"image-keyboard-response",410,321850,"0.0-3.133-0.133","54lnlrpz3bd1qa5",141,"179.csv","","406","resources/trios/L2T1A1.jpg","37","restless",0.6,0.6,0.6,0.410046035729177,"true"
"image-keyboard-response",411,322251,"0.0-3.133-1.133","54lnlrpz3bd1qa5",141,"179.csv","","null","resources/maskTrios/L2BB.jpg","null","",NA,NA,NA,NA,""
"image-keyboard-response",412,323453,"0.0-3.133-2.133","54lnlrpz3bd1qa5",141,"179.csv","","null","resources/images/coin2.png","null","",NA,NA,NA,NA,""
"image-keyboard-response",413,323752,"0.0-3.134-0.134","54lnlrpz3bd1qa5",141,"179.csv","","297.80000000074506","resources/trios/L2T1A1.jpg","39","restless",0.6,0.6,0.6,0.189986545025379,"true"
"image-keyboard-response",414,324154,"0.0-3.134-1.134","54lnlrpz3bd1qa5",141,"179.csv","","null","resources/maskTrios/BBA1.jpg","null","",NA,NA,NA,NA,""
"image-keyboard-response",415,325355,"0.0-3.134-2.134","54lnlrpz3bd1qa5",141,"179.csv","","null","resources/images/coin2.png","null","",NA,NA,NA,NA,""
"image-keyboard-response",416,325561,"0.0-3.135-0.135","54lnlrpz3bd1qa5",141,"179.csv","","205.5","resources/trios/L2T2A3.jpg","37","restless",0.6,0.6,0.6,0.317363378283389,"true"
"image-keyboard-response",417,325963,"0.0-3.135-1.135","54lnlrpz3bd1qa5",141,"179.csv","","null","resources/maskTrios/L2BB.jpg","null","",NA,NA,NA,NA,""
"image-keyboard-response",418,327165,"0.0-3.135-2.135","54lnlrpz3bd1qa5",141,"179.csv","","null","resources/images/coin2.png","null","",NA,NA,NA,NA,""
"image-keyboard-response",419,327460,"0.0-3.136-0.136","54lnlrpz3bd1qa5",141,"179.csv","","294.80000000074506","resources/trios/L2T2A1.jpg","39","restless",0.5,0.6,0.6,0.308273875276641,"true"
"image-keyboard-response",420,327862,"0.0-3.136-1.136","54lnlrpz3bd1qa5",141,"179.csv","","null","resources/maskTrios/BBA1.jpg","null","",NA,NA,NA,NA,""
"image-keyboard-response",421,329064,"0.0-3.136-2.136","54lnlrpz3bd1qa5",141,"179.csv","","null","resources/images/coin2.png","null","",NA,NA,NA,NA,""
"image-keyboard-response",422,329270,"0.0-3.137-0.137","54lnlrpz3bd1qa5",141,"179.csv","","204.89999999850988","resources/trios/L2T1A1.jpg","37","restless",0.5,0.6,0.6,0.480503772284405,"true"
"image-keyboard-response",423,329672,"0.0-3.137-1.137","54lnlrpz3bd1qa5",141,"179.csv","","null","resources/maskTrios/L2BB.jpg","null","",NA,NA,NA,NA,""
"image-keyboard-response",424,330874,"0.0-3.137-2.137","54lnlrpz3bd1qa5",141,"179.csv","","null","resources/images/coin2.png","null","",NA,NA,NA,NA,""
"image-keyboard-response",425,331062,"0.0-3.138-0.138","54lnlrpz3bd1qa5",141,"179.csv","","187.30000000074506","resources/trios/L2T2A1.jpg","39","restless",0.5,0.6,0.6,0.717529832821025,"false"
"image-keyboard-response",426,331463,"0.0-3.138-1.138","54lnlrpz3bd1qa5",141,"179.csv","","null","resources/maskTrios/BBA1.jpg","null","",NA,NA,NA,NA,""
"image-keyboard-response",427,332664,"0.0-3.138-2.138","54lnlrpz3bd1qa5",141,"179.csv","","null","resources/images/fishbone.png","null","",NA,NA,NA,NA,""
"image-keyboard-response",428,332741,"0.0-3.139-0.139","54lnlrpz3bd1qa5",141,"179.csv","","75.79999999888241","resources/trios/L2T1A3.jpg","38","restless",0.5,0.5,0.6,0.502376191609107,"false"
"image-keyboard-response",429,333143,"0.0-3.139-1.139","54lnlrpz3bd1qa5",141,"179.csv","","null","resources/maskTrios/BT1B.jpg","null","",NA,NA,NA,NA,""
"image-keyboard-response",430,334346,"0.0-3.139-2.139","54lnlrpz3bd1qa5",141,"179.csv","","null","resources/images/fishbone.png","null","",NA,NA,NA,NA,""
"image-keyboard-response",431,334641,"0.0-3.140-0.140","54lnlrpz3bd1qa5",141,"179.csv","","295","resources/trios/L4T2A1.jpg","39","restless",0.5,0.5,0.6,0.344519963969221,"true"
"image-keyboard-response",432,335044,"0.0-3.140-1.140","54lnlrpz3bd1qa5",141,"179.csv","","null","resources/maskTrios/BBA1.jpg","null","",NA,NA,NA,NA,""
"image-keyboard-response",433,336247,"0.0-3.140-2.140","54lnlrpz3bd1qa5",141,"179.csv","","null","resources/images/coin2.png","null","",NA,NA,NA,NA,""
"image-keyboard-response",434,336471,"0.0-3.141-0.141","54lnlrpz3bd1qa5",141,"179.csv","","223.90000000037253","resources/trios/L4T1A1.jpg","37","restless",0.5,0.5,0.6,0.143627772315239,"true"
"image-keyboard-response",435,336873,"0.0-3.141-1.141","54lnlrpz3bd1qa5",141,"179.csv","","null","resources/maskTrios/L4BB.jpg","null","",NA,NA,NA,NA,""
"image-keyboard-response",436,338074,"0.0-3.141-2.141","54lnlrpz3bd1qa5",141,"179.csv","","null","resources/images/coin2.png","null","",NA,NA,NA,NA,""
"image-keyboard-response",437,338251,"0.0-3.142-0.142","54lnlrpz3bd1qa5",141,"179.csv","","175.90000000037253","resources/trios/L2T2A1.jpg","37","restless",0.5,0.5,0.6,0.0740178293194056,"true"
"image-keyboard-response",438,338653,"0.0-3.142-1.142","54lnlrpz3bd1qa5",141,"179.csv","","null","resources/maskTrios/L2BB.jpg","null","",NA,NA,NA,NA,""
"image-keyboard-response",439,339855,"0.0-3.142-2.142","54lnlrpz3bd1qa5",141,"179.csv","","null","resources/images/coin2.png","null","",NA,NA,NA,NA,""
"image-keyboard-response",440,340092,"0.0-3.143-0.143","54lnlrpz3bd1qa5",141,"179.csv","","235.90000000037253","resources/trios/L4T2A1.jpg","37","restless",0.5,0.5,0.6,0.990168313420325,"false"
"image-keyboard-response",441,340494,"0.0-3.143-1.143","54lnlrpz3bd1qa5",141,"179.csv","","null","resources/maskTrios/L4BB.jpg","null","",NA,NA,NA,NA,""
"image-keyboard-response",442,341695,"0.0-3.143-2.143","54lnlrpz3bd1qa5",141,"179.csv","","null","resources/images/fishbone.png","null","",NA,NA,NA,NA,""
"image-keyboard-response",443,342091,"0.0-3.144-0.144","54lnlrpz3bd1qa5",141,"179.csv","","395","resources/trios/L2T2A1.jpg","37","restless",0.5,0.5,0.6,0.730983601659025,"false"
"image-keyboard-response",444,342493,"0.0-3.144-1.144","54lnlrpz3bd1qa5",141,"179.csv","","null","resources/maskTrios/L2BB.jpg","null","",NA,NA,NA,NA,""
"image-keyboard-response",445,343695,"0.0-3.144-2.144","54lnlrpz3bd1qa5",141,"179.csv","","null","resources/images/fishbone.png","null","",NA,NA,NA,NA,""
"image-keyboard-response",446,343911,"0.0-3.145-0.145","54lnlrpz3bd1qa5",141,"179.csv","","215.59999999962747","resources/trios/L4T2A3.jpg","39","restless",0.5,0.4,0.6,0.570239802212697,"true"
"image-keyboard-response",447,344313,"0.0-3.145-1.145","54lnlrpz3bd1qa5",141,"179.csv","","null","resources/maskTrios/BBA3.jpg","null","",NA,NA,NA,NA,""
"image-keyboard-response",448,345515,"0.0-3.145-2.145","54lnlrpz3bd1qa5",141,"179.csv","","null","resources/images/coin2.png","null","",NA,NA,NA,NA,""
"image-keyboard-response",449,345734,"0.0-3.146-0.146","54lnlrpz3bd1qa5",141,"179.csv","","218","resources/trios/L2T2A1.jpg","38","restless",0.5,0.4,0.6,0.510518748123786,"false"
"image-keyboard-response",450,346135,"0.0-3.146-1.146","54lnlrpz3bd1qa5",141,"179.csv","","null","resources/maskTrios/BT2B.jpg","null","",NA,NA,NA,NA,""
"image-keyboard-response",451,347337,"0.0-3.146-2.146","54lnlrpz3bd1qa5",141,"179.csv","","null","resources/images/fishbone.png","null","",NA,NA,NA,NA,""
"image-keyboard-response",452,347482,"0.0-3.147-0.147","54lnlrpz3bd1qa5",141,"179.csv","","144.2000000011176","resources/trios/L4T1A1.jpg","38","restless",0.5,0.5,0.6,0.727270997142237,"false"
"image-keyboard-response",453,347883,"0.0-3.147-1.147","54lnlrpz3bd1qa5",141,"179.csv","","null","resources/maskTrios/BT1B.jpg","null","",NA,NA,NA,NA,""
"image-keyboard-response",454,349086,"0.0-3.147-2.147","54lnlrpz3bd1qa5",141,"179.csv","","null","resources/images/fishbone.png","null","",NA,NA,NA,NA,""
"image-keyboard-response",455,349261,"0.0-3.148-0.148","54lnlrpz3bd1qa5",141,"179.csv","","175.2999999988824","resources/trios/L2T1A1.jpg","37","restless",0.5,0.5,0.6,0.258136644681089,"true"
"image-keyboard-response",456,349663,"0.0-3.148-1.148","54lnlrpz3bd1qa5",141,"179.csv","","null","resources/maskTrios/L2BB.jpg","null","",NA,NA,NA,NA,""
"image-keyboard-response",457,350865,"0.0-3.148-2.148","54lnlrpz3bd1qa5",141,"179.csv","","null","resources/images/coin2.png","null","",NA,NA,NA,NA,""
"image-keyboard-response",458,351171,"0.0-3.149-0.149","54lnlrpz3bd1qa5",141,"179.csv","","305.69999999925494","resources/trios/L4T1A1.jpg","37","restless",0.5,0.4,0.6,0.930264575023932,"false"
"image-keyboard-response",459,351573,"0.0-3.149-1.149","54lnlrpz3bd1qa5",141,"179.csv","","null","resources/maskTrios/L4BB.jpg","null","",NA,NA,NA,NA,""
"image-keyboard-response",460,352774,"0.0-3.149-2.149","54lnlrpz3bd1qa5",141,"179.csv","","null","resources/images/fishbone.png","null","",NA,NA,NA,NA,""
"image-keyboard-response",461,353083,"0.0-3.150-0.150","54lnlrpz3bd1qa5",141,"179.csv","","308.2000000011176","resources/trios/L4T2A3.jpg","39","restless",0.5,0.4,0.6,0.319296442349776,"true"
"image-keyboard-response",462,353484,"0.0-3.150-1.150","54lnlrpz3bd1qa5",141,"179.csv","","null","resources/maskTrios/BBA3.jpg","null","",NA,NA,NA,NA,""
"image-keyboard-response",463,354686,"0.0-3.150-2.150","54lnlrpz3bd1qa5",141,"179.csv","","null","resources/images/coin2.png","null","",NA,NA,NA,NA,""
"image-keyboard-response",464,354953,"0.0-3.151-0.151","54lnlrpz3bd1qa5",141,"179.csv","","266.7999999988824","resources/trios/L2T2A1.jpg","37","restless",0.5,0.4,0.6,0.0310126421234023,"true"
"image-keyboard-response",465,355355,"0.0-3.151-1.151","54lnlrpz3bd1qa5",141,"179.csv","","null","resources/maskTrios/L2BB.jpg","null","",NA,NA,NA,NA,""
"image-keyboard-response",466,356556,"0.0-3.151-2.151","54lnlrpz3bd1qa5",141,"179.csv","","null","resources/images/coin2.png","null","",NA,NA,NA,NA,""
"image-keyboard-response",467,357103,"0.0-3.152-0.152","54lnlrpz3bd1qa5",141,"179.csv","","546.0999999996275","resources/trios/L4T1A3.jpg","39","restless",0.5,0.4,0.5,0.796966624832608,"false"
"image-keyboard-response",468,357504,"0.0-3.152-1.152","54lnlrpz3bd1qa5",141,"179.csv","","null","resources/maskTrios/BBA3.jpg","null","",NA,NA,NA,NA,""
"image-keyboard-response",469,358706,"0.0-3.152-2.152","54lnlrpz3bd1qa5",141,"179.csv","","null","resources/images/fishbone.png","null","",NA,NA,NA,NA,""
"image-keyboard-response",470,358802,"0.0-3.153-0.153","54lnlrpz3bd1qa5",141,"179.csv","","95.40000000037253","resources/trios/L2T2A1.jpg","37","restless",0.5,0.4,0.5,0.832033714156291,"false"
"image-keyboard-response",471,359203,"0.0-3.153-1.153","54lnlrpz3bd1qa5",141,"179.csv","","null","resources/maskTrios/L2BB.jpg","null","",NA,NA,NA,NA,""
"image-keyboard-response",472,360404,"0.0-3.153-2.153","54lnlrpz3bd1qa5",141,"179.csv","","null","resources/images/fishbone.png","null","",NA,NA,NA,NA,""
"image-keyboard-response",473,360632,"0.0-3.154-0.154","54lnlrpz3bd1qa5",141,"179.csv","","226.89999999850988","resources/trios/L4T2A1.jpg","39","restless",0.5,0.4,0.5,0.0439643822875235,"true"
"image-keyboard-response",474,361033,"0.0-3.154-1.154","54lnlrpz3bd1qa5",141,"179.csv","","null","resources/maskTrios/BBA1.jpg","null","",NA,NA,NA,NA,""
"image-keyboard-response",475,362235,"0.0-3.154-2.154","54lnlrpz3bd1qa5",141,"179.csv","","null","resources/images/coin2.png","null","",NA,NA,NA,NA,""
"image-keyboard-response",476,362412,"0.0-3.155-0.155","54lnlrpz3bd1qa5",141,"179.csv","","176","resources/trios/L4T2A3.jpg","39","restless",0.5,0.4,0.5,0.458397438718677,"true"
"image-keyboard-response",477,362814,"0.0-3.155-1.155","54lnlrpz3bd1qa5",141,"179.csv","","null","resources/maskTrios/BBA3.jpg","null","",NA,NA,NA,NA,""
"image-keyboard-response",478,364015,"0.0-3.155-2.155","54lnlrpz3bd1qa5",141,"179.csv","","null","resources/images/coin2.png","null","",NA,NA,NA,NA,""
"image-keyboard-response",479,364512,"0.0-3.156-0.156","54lnlrpz3bd1qa5",141,"179.csv","","496.19999999925494","resources/trios/L2T1A3.jpg","39","restless",0.5,0.4,0.5,0.841118863795215,"false"
"image-keyboard-response",480,364913,"0.0-3.156-1.156","54lnlrpz3bd1qa5",141,"179.csv","","null","resources/maskTrios/BBA3.jpg","null","",NA,NA,NA,NA,""
"image-keyboard-response",481,366115,"0.0-3.156-2.156","54lnlrpz3bd1qa5",141,"179.csv","","null","resources/images/fishbone.png","null","",NA,NA,NA,NA,""
"image-keyboard-response",482,366202,"0.0-3.157-0.157","54lnlrpz3bd1qa5",141,"179.csv","","85.39999999850988","resources/trios/L2T1A3.jpg","37","restless",0.5,0.4,0.5,0.556128929178595,"false"
"image-keyboard-response",483,366604,"0.0-3.157-1.157","54lnlrpz3bd1qa5",141,"179.csv","","null","resources/maskTrios/L2BB.jpg","null","",NA,NA,NA,NA,""
"image-keyboard-response",484,367805,"0.0-3.157-2.157","54lnlrpz3bd1qa5",141,"179.csv","","null","resources/images/fishbone.png","null","",NA,NA,NA,NA,""
"image-keyboard-response",485,369342,"0.0-3.158-0.158","54lnlrpz3bd1qa5",141,"179.csv","","1536.7000000011176","resources/trios/L4T1A1.jpg","38","restless",0.5,0.4,0.4,0.956614625638791,"false"
"image-keyboard-response",486,369744,"0.0-3.158-1.158","54lnlrpz3bd1qa5",141,"179.csv","","null","resources/maskTrios/BT1B.jpg","null","",NA,NA,NA,NA,""
"image-keyboard-response",487,370945,"0.0-3.158-2.158","54lnlrpz3bd1qa5",141,"179.csv","","null","resources/images/fishbone.png","null","",NA,NA,NA,NA,""
"image-keyboard-response",488,371023,"0.0-3.159-0.159","54lnlrpz3bd1qa5",141,"179.csv","","76.90000000037253","resources/trios/L2T1A1.jpg","39","restless",0.4,0.4,0.4,0.0672760106791521,"true"
"image-keyboard-response",489,371425,"0.0-3.159-1.159","54lnlrpz3bd1qa5",141,"179.csv","","null","resources/maskTrios/BBA1.jpg","null","",NA,NA,NA,NA,""
"image-keyboard-response",490,372627,"0.0-3.159-2.159","54lnlrpz3bd1qa5",141,"179.csv","","null","resources/images/coin2.png","null","",NA,NA,NA,NA,""
"image-keyboard-response",491,372735,"0.0-3.160-0.160","54lnlrpz3bd1qa5",141,"179.csv","","106.59999999962747","resources/trios/L4T2A3.jpg","37","restless",0.4,0.4,0.4,0.462433027790373,"false"
"image-keyboard-response",492,373138,"0.0-3.160-1.160","54lnlrpz3bd1qa5",141,"179.csv","","null","resources/maskTrios/L4BB.jpg","null","",NA,NA,NA,NA,""
"image-keyboard-response",493,374340,"0.0-3.160-2.160","54lnlrpz3bd1qa5",141,"179.csv","","null","resources/images/fishbone.png","null","",NA,NA,NA,NA,""
"image-keyboard-response",494,374504,"0.0-3.161-0.161","54lnlrpz3bd1qa5",141,"179.csv","","163.40000000037253","resources/trios/L4T1A1.jpg","39","restless",0.4,0.4,0.4,0.725899416024122,"false"
"image-keyboard-response",495,374906,"0.0-3.161-1.161","54lnlrpz3bd1qa5",141,"179.csv","","null","resources/maskTrios/BBA1.jpg","null","",NA,NA,NA,NA,""
"image-keyboard-response",496,376110,"0.0-3.161-2.161","54lnlrpz3bd1qa5",141,"179.csv","","null","resources/images/fishbone.png","null","",NA,NA,NA,NA,""
"image-keyboard-response",497,376303,"0.0-3.162-0.162","54lnlrpz3bd1qa5",141,"179.csv","","192.30000000074506","resources/trios/L4T1A1.jpg","37","restless",0.4,0.4,0.4,0.256825513045179,"true"
"image-keyboard-response",498,376705,"0.0-3.162-1.162","54lnlrpz3bd1qa5",141,"179.csv","","null","resources/maskTrios/L4BB.jpg","null","",NA,NA,NA,NA,""
"image-keyboard-response",499,377906,"0.0-3.162-2.162","54lnlrpz3bd1qa5",141,"179.csv","","null","resources/images/coin2.png","null","",NA,NA,NA,NA,""
"image-keyboard-response",500,378083,"0.0-3.163-0.163","54lnlrpz3bd1qa5",141,"179.csv","","176.89999999850988","resources/trios/L2T2A1.jpg","37","restless",0.4,0.4,0.5,0.319886287346138,"true"
"image-keyboard-response",501,378484,"0.0-3.163-1.163","54lnlrpz3bd1qa5",141,"179.csv","","null","resources/maskTrios/L2BB.jpg","null","",NA,NA,NA,NA,""
"image-keyboard-response",502,379686,"0.0-3.163-2.163","54lnlrpz3bd1qa5",141,"179.csv","","null","resources/images/coin2.png","null","",NA,NA,NA,NA,""
"image-keyboard-response",503,379924,"0.0-3.164-0.164","54lnlrpz3bd1qa5",141,"179.csv","","236.90000000037253","resources/trios/L4T2A3.jpg","37","restless",0.4,0.4,0.5,0.0842776631485904,"true"
"image-keyboard-response",504,380325,"0.0-3.164-1.164","54lnlrpz3bd1qa5",141,"179.csv","","null","resources/maskTrios/L4BB.jpg","null","",NA,NA,NA,NA,""
"image-keyboard-response",505,381527,"0.0-3.164-2.164","54lnlrpz3bd1qa5",141,"179.csv","","null","resources/images/coin2.png","null","",NA,NA,NA,NA,""
"image-keyboard-response",506,385123,"0.0-3.165-0.165","54lnlrpz3bd1qa5",141,"179.csv","","3594.4000000003725","resources/trios/L4T2A3.jpg","39","restless",0.3,0.4,0.5,0.603884651300632,"false"
"image-keyboard-response",507,385526,"0.0-3.165-1.165","54lnlrpz3bd1qa5",141,"179.csv","","null","resources/maskTrios/BBA3.jpg","null","",NA,NA,NA,NA,""
"image-keyboard-response",508,386727,"0.0-3.165-2.165","54lnlrpz3bd1qa5",141,"179.csv","","null","resources/images/fishbone.png","null","",NA,NA,NA,NA,""
"image-keyboard-response",509,386873,"0.0-3.166-0.166","54lnlrpz3bd1qa5",141,"179.csv","","145.40000000037253","resources/trios/L4T1A3.jpg","37","restless",0.3,0.4,0.5,0.284815498010017,"true"
"image-keyboard-response",510,387275,"0.0-3.166-1.166","54lnlrpz3bd1qa5",141,"179.csv","","null","resources/maskTrios/L4BB.jpg","null","",NA,NA,NA,NA,""
"image-keyboard-response",511,388476,"0.0-3.166-2.166","54lnlrpz3bd1qa5",141,"179.csv","","null","resources/images/coin2.png","null","",NA,NA,NA,NA,""
"image-keyboard-response",512,390694,"0.0-3.167-0.167","54lnlrpz3bd1qa5",141,"179.csv","","2217.699999999255","resources/trios/L4T1A1.jpg","39","restless",0.3,0.4,0.6,0.737609336896031,"false"
"image-keyboard-response",513,391096,"0.0-3.167-1.167","54lnlrpz3bd1qa5",141,"179.csv","","null","resources/maskTrios/BBA1.jpg","null","",NA,NA,NA,NA,""
"image-keyboard-response",514,392298,"0.0-3.167-2.167","54lnlrpz3bd1qa5",141,"179.csv","","null","resources/images/fishbone.png","null","",NA,NA,NA,NA,""
"image-keyboard-response",515,392634,"0.0-3.168-0.168","54lnlrpz3bd1qa5",141,"179.csv","","335.2999999988824","resources/trios/L2T1A1.jpg","37","restless",0.3,0.4,0.6,0.100396309066051,"true"
"image-keyboard-response",516,393037,"0.0-3.168-1.168","54lnlrpz3bd1qa5",141,"179.csv","","null","resources/maskTrios/L2BB.jpg","null","",NA,NA,NA,NA,""
"image-keyboard-response",517,394239,"0.0-3.168-2.168","54lnlrpz3bd1qa5",141,"179.csv","","null","resources/images/coin2.png","null","",NA,NA,NA,NA,""
"image-keyboard-response",518,394734,"0.0-3.169-0.169","54lnlrpz3bd1qa5",141,"179.csv","","494.30000000074506","resources/trios/L2T1A1.jpg","37","restless",0.3,0.4,0.6,0.987893582573688,"false"
"image-keyboard-response",519,395136,"0.0-3.169-1.169","54lnlrpz3bd1qa5",141,"179.csv","","null","resources/maskTrios/L2BB.jpg","null","",NA,NA,NA,NA,""
"image-keyboard-response",520,396338,"0.0-3.169-2.169","54lnlrpz3bd1qa5",141,"179.csv","","null","resources/images/fishbone.png","null","",NA,NA,NA,NA,""
"image-keyboard-response",521,399304,"0.0-3.170-0.170","54lnlrpz3bd1qa5",141,"179.csv","","2965.5999999996275","resources/trios/L2T1A3.jpg","37","restless",0.3,0.4,0.6,0.903808691970333,"false"
"image-keyboard-response",522,399707,"0.0-3.170-1.170","54lnlrpz3bd1qa5",141,"179.csv","","null","resources/maskTrios/L2BB.jpg","null","",NA,NA,NA,NA,""
"image-keyboard-response",523,400908,"0.0-3.170-2.170","54lnlrpz3bd1qa5",141,"179.csv","","null","resources/images/fishbone.png","null","",NA,NA,NA,NA,""
"image-keyboard-response",524,403524,"0.0-3.171-0.171","54lnlrpz3bd1qa5",141,"179.csv","","2615.300000000745","resources/trios/L4T1A1.jpg","38","restless",0.3,0.4,0.6,0.253722165582801,"true"
"image-keyboard-response",525,403926,"0.0-3.171-1.171","54lnlrpz3bd1qa5",141,"179.csv","","null","resources/maskTrios/BT1B.jpg","null","",NA,NA,NA,NA,""
"image-keyboard-response",526,405127,"0.0-3.171-2.171","54lnlrpz3bd1qa5",141,"179.csv","","null","resources/images/coin2.png","null","",NA,NA,NA,NA,""
"image-keyboard-response",527,405314,"0.0-3.172-0.172","54lnlrpz3bd1qa5",141,"179.csv","","186.5","resources/trios/L2T1A3.jpg","39","restless",0.3,0.4,0.6,0.403139702832717,"true"
"image-keyboard-response",528,405717,"0.0-3.172-1.172","54lnlrpz3bd1qa5",141,"179.csv","","null","resources/maskTrios/BBA3.jpg","null","",NA,NA,NA,NA,""
"image-keyboard-response",529,406918,"0.0-3.172-2.172","54lnlrpz3bd1qa5",141,"179.csv","","null","resources/images/coin2.png","null","",NA,NA,NA,NA,""
"image-keyboard-response",530,407494,"0.0-3.173-0.173","54lnlrpz3bd1qa5",141,"179.csv","","575","resources/trios/L2T2A3.jpg","37","restless",0.3,0.4,0.6,0.932184347864315,"false"
"image-keyboard-response",531,407897,"0.0-3.173-1.173","54lnlrpz3bd1qa5",141,"179.csv","","null","resources/maskTrios/L2BB.jpg","null","",NA,NA,NA,NA,""
"image-keyboard-response",532,409098,"0.0-3.173-2.173","54lnlrpz3bd1qa5",141,"179.csv","","null","resources/images/fishbone.png","null","",NA,NA,NA,NA,""
"image-keyboard-response",533,409254,"0.0-3.174-0.174","54lnlrpz3bd1qa5",141,"179.csv","","155.90000000037253","resources/trios/L2T1A1.jpg","39","restless",0.3,0.4,0.6,0.00827563036362955,"true"
"image-keyboard-response",534,409656,"0.0-3.174-1.174","54lnlrpz3bd1qa5",141,"179.csv","","null","resources/maskTrios/BBA1.jpg","null","",NA,NA,NA,NA,""
"image-keyboard-response",535,410858,"0.0-3.174-2.174","54lnlrpz3bd1qa5",141,"179.csv","","null","resources/images/coin2.png","null","",NA,NA,NA,NA,""
"image-keyboard-response",536,417275,"0.0-3.175-0.175","54lnlrpz3bd1qa5",141,"179.csv","","6416.9000000003725","resources/trios/L2T1A3.jpg","37","restless",0.3,0.4,0.6,0.320159376763475,"false"
"image-keyboard-response",537,417678,"0.0-3.175-1.175","54lnlrpz3bd1qa5",141,"179.csv","","null","resources/maskTrios/L2BB.jpg","null","",NA,NA,NA,NA,""
"image-keyboard-response",538,418879,"0.0-3.175-2.175","54lnlrpz3bd1qa5",141,"179.csv","","null","resources/images/fishbone.png","null","",NA,NA,NA,NA,""
"image-keyboard-response",539,419106,"0.0-3.176-0.176","54lnlrpz3bd1qa5",141,"179.csv","","226","resources/trios/L2T2A3.jpg","39","restless",0.3,0.4,0.6,0.853124739402473,"false"
"image-keyboard-response",540,419509,"0.0-3.176-1.176","54lnlrpz3bd1qa5",141,"179.csv","","null","resources/maskTrios/BBA3.jpg","null","",NA,NA,NA,NA,""
"image-keyboard-response",541,420711,"0.0-3.176-2.176","54lnlrpz3bd1qa5",141,"179.csv","","null","resources/images/fishbone.png","null","",NA,NA,NA,NA,""
"image-keyboard-response",542,421065,"0.0-3.177-0.177","54lnlrpz3bd1qa5",141,"179.csv","","353.1000000014901","resources/trios/L2T1A1.jpg","38","restless",0.3,0.5,0.6,0.733115857035457,"false"
"image-keyboard-response",543,421467,"0.0-3.177-1.177","54lnlrpz3bd1qa5",141,"179.csv","","null","resources/maskTrios/BT1B.jpg","null","",NA,NA,NA,NA,""
"image-keyboard-response",544,422667,"0.0-3.177-2.177","54lnlrpz3bd1qa5",141,"179.csv","","null","resources/images/fishbone.png","null","",NA,NA,NA,NA,""
"image-keyboard-response",545,422975,"0.0-3.178-0.178","54lnlrpz3bd1qa5",141,"179.csv","","307","resources/trios/L2T1A3.jpg","39","restless",0.4,0.5,0.6,0.223187603490064,"true"
"image-keyboard-response",546,423377,"0.0-3.178-1.178","54lnlrpz3bd1qa5",141,"179.csv","","null","resources/maskTrios/BBA3.jpg","null","",NA,NA,NA,NA,""
"image-keyboard-response",547,424579,"0.0-3.178-2.178","54lnlrpz3bd1qa5",141,"179.csv","","null","resources/images/coin2.png","null","",NA,NA,NA,NA,""
"image-keyboard-response",548,424835,"0.0-3.179-0.179","54lnlrpz3bd1qa5",141,"179.csv","","254.90000000037253","resources/trios/L4T2A3.jpg","39","restless",0.4,0.5,0.6,0.693327607754447,"false"
"image-keyboard-response",549,425236,"0.0-3.179-1.179","54lnlrpz3bd1qa5",141,"179.csv","","null","resources/maskTrios/BBA3.jpg","null","",NA,NA,NA,NA,""
"image-keyboard-response",550,426438,"0.0-3.179-2.179","54lnlrpz3bd1qa5",141,"179.csv","","null","resources/images/fishbone.png","null","",NA,NA,NA,NA,""
"image-keyboard-response",551,426536,"0.0-3.180-0.180","54lnlrpz3bd1qa5",141,"179.csv","","96.40000000037253","resources/trios/L2T1A3.jpg","37","restless",0.4,0.5,0.7,0.844926619683458,"false"
"image-keyboard-response",552,426938,"0.0-3.180-1.180","54lnlrpz3bd1qa5",141,"179.csv","","null","resources/maskTrios/L2BB.jpg","null","",NA,NA,NA,NA,""
"image-keyboard-response",553,428138,"0.0-3.180-2.180","54lnlrpz3bd1qa5",141,"179.csv","","null","resources/images/fishbone.png","null","",NA,NA,NA,NA,""
"image-keyboard-response",554,428295,"0.0-3.181-0.181","54lnlrpz3bd1qa5",141,"179.csv","","155.90000000037253","resources/trios/L2T1A3.jpg","38","restless",0.4,0.6,0.7,0.554717604193655,"true"
"image-keyboard-response",555,428696,"0.0-3.181-1.181","54lnlrpz3bd1qa5",141,"179.csv","","null","resources/maskTrios/BT1B.jpg","null","",NA,NA,NA,NA,""
"image-keyboard-response",556,429899,"0.0-3.181-2.181","54lnlrpz3bd1qa5",141,"179.csv","","null","resources/images/coin2.png","null","",NA,NA,NA,NA,""
"image-keyboard-response",557,430045,"0.0-3.182-0.182","54lnlrpz3bd1qa5",141,"179.csv","","144.90000000037253","resources/trios/L4T1A3.jpg","38","restless",0.4,0.6,0.8,0.50420920335802,"true"
"image-keyboard-response",558,430446,"0.0-3.182-1.182","54lnlrpz3bd1qa5",141,"179.csv","","null","resources/maskTrios/BT1B.jpg","null","",NA,NA,NA,NA,""
"image-keyboard-response",559,431648,"0.0-3.182-2.182","54lnlrpz3bd1qa5",141,"179.csv","","null","resources/images/coin2.png","null","",NA,NA,NA,NA,""
"image-keyboard-response",560,431686,"0.0-3.183-0.183","54lnlrpz3bd1qa5",141,"179.csv","","37.40000000037253","resources/trios/L2T2A1.jpg","38","restless",0.4,0.6,0.8,0.239072925533079,"true"
"image-keyboard-response",561,432088,"0.0-3.183-1.183","54lnlrpz3bd1qa5",141,"179.csv","","null","resources/maskTrios/BT2B.jpg","null","",NA,NA,NA,NA,""
"image-keyboard-response",562,433289,"0.0-3.183-2.183","54lnlrpz3bd1qa5",141,"179.csv","","null","resources/images/coin2.png","null","",NA,NA,NA,NA,""
"image-keyboard-response",563,433506,"0.0-3.184-0.184","54lnlrpz3bd1qa5",141,"179.csv","","216","resources/trios/L4T2A1.jpg","38","restless",0.4,0.6,0.8,0.0460710652685998,"true"
"image-keyboard-response",564,433907,"0.0-3.184-1.184","54lnlrpz3bd1qa5",141,"179.csv","","null","resources/maskTrios/BT2B.jpg","null","",NA,NA,NA,NA,""
"image-keyboard-response",565,435109,"0.0-3.184-2.184","54lnlrpz3bd1qa5",141,"179.csv","","null","resources/images/coin2.png","null","",NA,NA,NA,NA,""
"image-keyboard-response",566,435377,"0.0-3.185-0.185","54lnlrpz3bd1qa5",141,"179.csv","","267","resources/trios/L4T1A1.jpg","38","restless",0.4,0.6,0.8,0.241372497060522,"true"
"image-keyboard-response",567,435779,"0.0-3.185-1.185","54lnlrpz3bd1qa5",141,"179.csv","","null","resources/maskTrios/BT1B.jpg","null","",NA,NA,NA,NA,""
"image-keyboard-response",568,436981,"0.0-3.185-2.185","54lnlrpz3bd1qa5",141,"179.csv","","null","resources/images/coin2.png","null","",NA,NA,NA,NA,""
"image-keyboard-response",569,437286,"0.0-3.186-0.186","54lnlrpz3bd1qa5",141,"179.csv","","303.80000000074506","resources/trios/L2T2A1.jpg","38","restless",0.4,0.6,0.8,0.490750548050521,"true"
"image-keyboard-response",570,437687,"0.0-3.186-1.186","54lnlrpz3bd1qa5",141,"179.csv","","null","resources/maskTrios/BT2B.jpg","null","",NA,NA,NA,NA,""
"image-keyboard-response",571,438888,"0.0-3.186-2.186","54lnlrpz3bd1qa5",141,"179.csv","","null","resources/images/coin2.png","null","",NA,NA,NA,NA,""
"image-keyboard-response",572,439386,"0.0-3.187-0.187","54lnlrpz3bd1qa5",141,"179.csv","","497.30000000074506","resources/trios/L2T1A1.jpg","38","restless",0.4,0.6,0.8,0.0630421163593804,"true"
"image-keyboard-response",573,439788,"0.0-3.187-1.187","54lnlrpz3bd1qa5",141,"179.csv","","null","resources/maskTrios/BT1B.jpg","null","",NA,NA,NA,NA,""
"image-keyboard-response",574,440991,"0.0-3.187-2.187","54lnlrpz3bd1qa5",141,"179.csv","","null","resources/images/coin2.png","null","",NA,NA,NA,NA,""
"image-keyboard-response",575,443746,"0.0-3.188-0.188","54lnlrpz3bd1qa5",141,"179.csv","","2754","resources/trios/L2T2A3.jpg","38","restless",0.4,0.6,0.8,0.129983149016664,"true"
"image-keyboard-response",576,444148,"0.0-3.188-1.188","54lnlrpz3bd1qa5",141,"179.csv","","null","resources/maskTrios/BT2B.jpg","null","",NA,NA,NA,NA,""
"image-keyboard-response",577,445350,"0.0-3.188-2.188","54lnlrpz3bd1qa5",141,"179.csv","","null","resources/images/coin2.png","null","",NA,NA,NA,NA,""
"image-keyboard-response",578,445597,"0.0-3.189-0.189","54lnlrpz3bd1qa5",141,"179.csv","","246.09999999962747","resources/trios/L2T2A3.jpg","38","restless",0.4,0.6,0.8,0.899156849440537,"false"
"image-keyboard-response",579,445998,"0.0-3.189-1.189","54lnlrpz3bd1qa5",141,"179.csv","","null","resources/maskTrios/BT2B.jpg","null","",NA,NA,NA,NA,""
"image-keyboard-response",580,447200,"0.0-3.189-2.189","54lnlrpz3bd1qa5",141,"179.csv","","null","resources/images/fishbone.png","null","",NA,NA,NA,NA,""
"image-keyboard-response",581,449376,"0.0-3.190-0.190","54lnlrpz3bd1qa5",141,"179.csv","","2175.2000000011176","resources/trios/L2T2A1.jpg","38","restless",0.4,0.6,0.8,0.629561176410274,"false"
"image-keyboard-response",582,449778,"0.0-3.190-1.190","54lnlrpz3bd1qa5",141,"179.csv","","null","resources/maskTrios/BT2B.jpg","null","",NA,NA,NA,NA,""
"image-keyboard-response",583,450980,"0.0-3.190-2.190","54lnlrpz3bd1qa5",141,"179.csv","","null","resources/images/fishbone.png","null","",NA,NA,NA,NA,""
"image-keyboard-response",584,451067,"0.0-3.191-0.191","54lnlrpz3bd1qa5",141,"179.csv","","86.40000000037253","resources/trios/L2T2A1.jpg","39","restless",0.4,0.6,0.7,0.975817309041197,"false"
"image-keyboard-response",585,451469,"0.0-3.191-1.191","54lnlrpz3bd1qa5",141,"179.csv","","null","resources/maskTrios/BBA1.jpg","null","",NA,NA,NA,NA,""
"image-keyboard-response",586,452670,"0.0-3.191-2.191","54lnlrpz3bd1qa5",141,"179.csv","","null","resources/images/fishbone.png","null","",NA,NA,NA,NA,""
"image-keyboard-response",587,454298,"0.0-3.192-0.192","54lnlrpz3bd1qa5",141,"179.csv","","1626.800000000745","resources/trios/L4T1A3.jpg","38","restless",0.4,0.6,0.8,0.841300068946923,"false"
"image-keyboard-response",588,454701,"0.0-3.192-1.192","54lnlrpz3bd1qa5",141,"179.csv","","null","resources/maskTrios/BT1B.jpg","null","",NA,NA,NA,NA,""
"image-keyboard-response",589,455902,"0.0-3.192-2.192","54lnlrpz3bd1qa5",141,"179.csv","","null","resources/images/fishbone.png","null","",NA,NA,NA,NA,""
"image-keyboard-response",590,456127,"0.0-3.193-0.193","54lnlrpz3bd1qa5",141,"179.csv","","222.90000000037253","resources/trios/L2T2A3.jpg","37","restless",0.4,0.6,0.8,0.867140725251877,"false"
"image-keyboard-response",591,456529,"0.0-3.193-1.193","54lnlrpz3bd1qa5",141,"179.csv","","null","resources/maskTrios/L2BB.jpg","null","",NA,NA,NA,NA,""
"image-keyboard-response",592,457729,"0.0-3.193-2.193","54lnlrpz3bd1qa5",141,"179.csv","","null","resources/images/fishbone.png","null","",NA,NA,NA,NA,""
"image-keyboard-response",593,457797,"0.0-3.194-0.194","54lnlrpz3bd1qa5",141,"179.csv","","67.20000000111759","resources/trios/L4T1A3.jpg","37","restless",0.4,0.6,0.8,0.742641235774651,"false"
"image-keyboard-response",594,458199,"0.0-3.194-1.194","54lnlrpz3bd1qa5",141,"179.csv","","null","resources/maskTrios/L4BB.jpg","null","",NA,NA,NA,NA,""
"image-keyboard-response",595,459400,"0.0-3.194-2.194","54lnlrpz3bd1qa5",141,"179.csv","","null","resources/images/fishbone.png","null","",NA,NA,NA,NA,""
"image-keyboard-response",596,459467,"0.0-3.195-0.195","54lnlrpz3bd1qa5",141,"179.csv","","65.5","resources/trios/L2T2A3.jpg","37","restless",0.4,0.6,0.8,0.790366761009265,"false"
"image-keyboard-response",597,459869,"0.0-3.195-1.195","54lnlrpz3bd1qa5",141,"179.csv","","null","resources/maskTrios/L2BB.jpg","null","",NA,NA,NA,NA,""
"image-keyboard-response",598,461070,"0.0-3.195-2.195","54lnlrpz3bd1qa5",141,"179.csv","","null","resources/images/fishbone.png","null","",NA,NA,NA,NA,""
"image-keyboard-response",599,461198,"0.0-3.196-0.196","54lnlrpz3bd1qa5",141,"179.csv","","127.59999999962747","resources/trios/L4T2A1.jpg","39","restless",0.4,0.6,0.7,0.0192242796458368,"true"
"image-keyboard-response",600,461599,"0.0-3.196-1.196","54lnlrpz3bd1qa5",141,"179.csv","","null","resources/maskTrios/BBA1.jpg","null","",NA,NA,NA,NA,""
"image-keyboard-response",601,462802,"0.0-3.196-2.196","54lnlrpz3bd1qa5",141,"179.csv","","null","resources/images/coin2.png","null","",NA,NA,NA,NA,""
"image-keyboard-response",602,463307,"0.0-3.197-0.197","54lnlrpz3bd1qa5",141,"179.csv","","504.5","resources/trios/L2T2A1.jpg","39","restless",0.4,0.6,0.7,0.331219547550122,"true"
"image-keyboard-response",603,463708,"0.0-3.197-1.197","54lnlrpz3bd1qa5",141,"179.csv","","null","resources/maskTrios/BBA1.jpg","null","",NA,NA,NA,NA,""
"image-keyboard-response",604,464909,"0.0-3.197-2.197","54lnlrpz3bd1qa5",141,"179.csv","","null","resources/images/coin2.png","null","",NA,NA,NA,NA,""
"image-keyboard-response",605,464928,"0.0-3.198-0.198","54lnlrpz3bd1qa5",141,"179.csv","","16.90000000037253","resources/trios/L2T1A1.jpg","39","restless",0.4,0.6,0.6,0.938482798561812,"false"
"image-keyboard-response",606,465329,"0.0-3.198-1.198","54lnlrpz3bd1qa5",141,"179.csv","","null","resources/maskTrios/BBA1.jpg","null","",NA,NA,NA,NA,""
