"trial_type","trial_index","time_elapsed","internal_node_id","subject","participantCode","walkNumber","success","rt","stimulus","key_press","test_part","leftProb","midProb","rightProb","generatedNum","correct"
"pavlovia",0,914,"0.0-0.0","rd6y5pgyslt8uvc",394,"9.csv","","","","","",NA,NA,NA,NA,""
"fullscreen",1,3791,"0.0-1.0","rd6y5pgyslt8uvc",394,"9.csv","true","","","","",NA,NA,NA,NA,""
"html-keyboard-response",2,9662,"0.0-2.0-0.0","rd6y5pgyslt8uvc",394,"9.csv","","5870.199999988079","<p><font size='6'>Arrrgh!</p></font><p>Can you be the best pirate? Try to find lots of gold! But beware, some islands have more gold than others, and over time, the island with the most gold may change. Can YOU figure it out? </p><font size='6'>GOOD LUCK, CAPTAIN!!!</font><p>Press any key to begin</p>","75","",NA,NA,NA,NA,""
"image-keyboard-response",3,12666,"0.0-2.0-1.0","rd6y5pgyslt8uvc",394,"9.csv","","null","resources/image_sets/111.png","null","",NA,NA,NA,NA,""
"image-keyboard-response",4,14455,"0.0-2.0-2.0","rd6y5pgyslt8uvc",394,"9.csv","","1786.8999999761581","resources/image_sets/left_highlight.png","37","",NA,NA,NA,NA,""
"image-keyboard-response",5,15416,"0.0-2.0-3.0","rd6y5pgyslt8uvc",394,"9.csv","","960.4000000357628","resources/image_sets/mid_highlight.png","38","",NA,NA,NA,NA,""
"image-keyboard-response",6,16168,"0.0-2.0-4.0","rd6y5pgyslt8uvc",394,"9.csv","","750.2999999523163","resources/image_sets/right_highlight.png","39","",NA,NA,NA,NA,""
"image-keyboard-response",7,19361,"0.0-2.0-5.0","rd6y5pgyslt8uvc",394,"9.csv","","3192.300000011921","resources/image_sets/111.png","13","",NA,NA,NA,NA,""
"image-keyboard-response",8,21626,"0.0-2.0-6.0","rd6y5pgyslt8uvc",394,"9.csv","","2263.800000011921","resources/images/coin2.png","13","",NA,NA,NA,NA,""
"image-keyboard-response",9,23250,"0.0-2.0-7.0","rd6y5pgyslt8uvc",394,"9.csv","","1622.800000011921","resources/images/fishbone.png","13","",NA,NA,NA,NA,""
"html-keyboard-response",10,29543,"0.0-2.0-8.0","rd6y5pgyslt8uvc",394,"9.csv","","6292.200000047684","<p>Your first journey will be a long one, but you will get a well deserved break at the end</p><p>After the break you will have four more journeys, but each will be much shorter than the first, and you will have breaks in between each</p><p>Press Enter to begin</p>","13","",NA,NA,NA,NA,""
"image-keyboard-response",11,31824,"0.0-3.0-0.0","rd6y5pgyslt8uvc",394,"9.csv","","2280.199999988079","resources/trios/L1T4A3.jpg","37","restless",0.7,0.9,0.3,0.105668468166731,"true"
"image-keyboard-response",12,32230,"0.0-3.0-1.0","rd6y5pgyslt8uvc",394,"9.csv","","null","resources/maskTrios/L1BB.jpg","null","",NA,NA,NA,NA,""
"image-keyboard-response",13,33436,"0.0-3.0-2.0","rd6y5pgyslt8uvc",394,"9.csv","","null","resources/images/coin2.png","null","",NA,NA,NA,NA,""
"image-keyboard-response",14,35836,"0.0-3.1-0.1","rd6y5pgyslt8uvc",394,"9.csv","","2398.900000035763","resources/trios/L1T2A3.jpg","37","restless",0.7,0.9,0.3,0.644292681899944,"true"
"image-keyboard-response",15,36250,"0.0-3.1-1.1","rd6y5pgyslt8uvc",394,"9.csv","","null","resources/maskTrios/L1BB.jpg","null","",NA,NA,NA,NA,""
"image-keyboard-response",16,37460,"0.0-3.1-2.1","rd6y5pgyslt8uvc",394,"9.csv","","null","resources/images/coin2.png","null","",NA,NA,NA,NA,""
"image-keyboard-response",17,40386,"0.0-3.2-0.2","rd6y5pgyslt8uvc",394,"9.csv","","2924.5","resources/trios/L2T2A3.jpg","38","restless",0.6,0.9,0.3,0.569949586119639,"true"
"image-keyboard-response",18,40787,"0.0-3.2-1.2","rd6y5pgyslt8uvc",394,"9.csv","","null","resources/maskTrios/BT2B.jpg","null","",NA,NA,NA,NA,""
"image-keyboard-response",19,41998,"0.0-3.2-2.2","rd6y5pgyslt8uvc",394,"9.csv","","null","resources/images/coin2.png","null","",NA,NA,NA,NA,""
"image-keyboard-response",20,44742,"0.0-3.3-0.3","rd6y5pgyslt8uvc",394,"9.csv","","2742.7999999523163","resources/trios/L2T2A3.jpg","38","restless",0.6,0.8,0.3,0.480446622489943,"true"
"image-keyboard-response",21,45146,"0.0-3.3-1.3","rd6y5pgyslt8uvc",394,"9.csv","","null","resources/maskTrios/BT2B.jpg","null","",NA,NA,NA,NA,""
"image-keyboard-response",22,46354,"0.0-3.3-2.3","rd6y5pgyslt8uvc",394,"9.csv","","null","resources/images/coin2.png","null","",NA,NA,NA,NA,""
"image-keyboard-response",23,47783,"0.0-3.4-0.4","rd6y5pgyslt8uvc",394,"9.csv","","1428.1000000238419","resources/trios/L1T4A3.jpg","37","restless",0.6,0.7,0.3,0.996645430020182,"false"
"image-keyboard-response",24,48197,"0.0-3.4-1.4","rd6y5pgyslt8uvc",394,"9.csv","","null","resources/maskTrios/L1BB.jpg","null","",NA,NA,NA,NA,""
"image-keyboard-response",25,49400,"0.0-3.4-2.4","rd6y5pgyslt8uvc",394,"9.csv","","null","resources/images/fishbone.png","null","",NA,NA,NA,NA,""
"image-keyboard-response",26,50524,"0.0-3.5-0.5","rd6y5pgyslt8uvc",394,"9.csv","","1122.8999999761581","resources/trios/L2T4A3.jpg","38","restless",0.6,0.7,0.3,0.716766549624762,"false"
"image-keyboard-response",27,50932,"0.0-3.5-1.5","rd6y5pgyslt8uvc",394,"9.csv","","null","resources/maskTrios/BT4B.jpg","null","",NA,NA,NA,NA,""
"image-keyboard-response",28,52139,"0.0-3.5-2.5","rd6y5pgyslt8uvc",394,"9.csv","","null","resources/images/fishbone.png","null","",NA,NA,NA,NA,""
"image-keyboard-response",29,53451,"0.0-3.6-0.6","rd6y5pgyslt8uvc",394,"9.csv","","1311.800000011921","resources/trios/L1T4A1.jpg","37","restless",0.6,0.7,0.3,0.542188564413087,"true"
"image-keyboard-response",30,53854,"0.0-3.6-1.6","rd6y5pgyslt8uvc",394,"9.csv","","null","resources/maskTrios/L1BB.jpg","null","",NA,NA,NA,NA,""
"image-keyboard-response",31,55060,"0.0-3.6-2.6","rd6y5pgyslt8uvc",394,"9.csv","","null","resources/images/coin2.png","null","",NA,NA,NA,NA,""
"image-keyboard-response",32,57027,"0.0-3.7-0.7","rd6y5pgyslt8uvc",394,"9.csv","","1966","resources/trios/L2T2A3.jpg","37","restless",0.6,0.7,0.3,0.653023326870756,"false"
"image-keyboard-response",33,57442,"0.0-3.7-1.7","rd6y5pgyslt8uvc",394,"9.csv","","null","resources/maskTrios/L2BB.jpg","null","",NA,NA,NA,NA,""
"image-keyboard-response",34,58646,"0.0-3.7-2.7","rd6y5pgyslt8uvc",394,"9.csv","","null","resources/images/fishbone.png","null","",NA,NA,NA,NA,""
"image-keyboard-response",35,60128,"0.0-3.8-0.8","rd6y5pgyslt8uvc",394,"9.csv","","1481.5","resources/trios/L1T4A3.jpg","37","restless",0.6,0.7,0.3,0.981653346408966,"false"
"image-keyboard-response",36,60534,"0.0-3.8-1.8","rd6y5pgyslt8uvc",394,"9.csv","","null","resources/maskTrios/L1BB.jpg","null","",NA,NA,NA,NA,""
"image-keyboard-response",37,61743,"0.0-3.8-2.8","rd6y5pgyslt8uvc",394,"9.csv","","null","resources/images/fishbone.png","null","",NA,NA,NA,NA,""
"image-keyboard-response",38,63422,"0.0-3.9-0.9","rd6y5pgyslt8uvc",394,"9.csv","","1678.5","resources/trios/L1T2A1.jpg","37","restless",0.6,0.7,0.4,0.86335563957258,"false"
"image-keyboard-response",39,63832,"0.0-3.9-1.9","rd6y5pgyslt8uvc",394,"9.csv","","null","resources/maskTrios/L1BB.jpg","null","",NA,NA,NA,NA,""
"image-keyboard-response",40,65039,"0.0-3.9-2.9","rd6y5pgyslt8uvc",394,"9.csv","","null","resources/images/fishbone.png","null","",NA,NA,NA,NA,""
"image-keyboard-response",41,66016,"0.0-3.10-0.10","rd6y5pgyslt8uvc",394,"9.csv","","975.3999999761581","resources/trios/L1T4A1.jpg","37","restless",0.6,0.7,0.4,0.920215173283771,"false"
"image-keyboard-response",42,66432,"0.0-3.10-1.10","rd6y5pgyslt8uvc",394,"9.csv","","null","resources/maskTrios/L1BB.jpg","null","",NA,NA,NA,NA,""
"image-keyboard-response",43,67636,"0.0-3.10-2.10","rd6y5pgyslt8uvc",394,"9.csv","","null","resources/images/fishbone.png","null","",NA,NA,NA,NA,""
"image-keyboard-response",44,68541,"0.0-3.11-0.11","rd6y5pgyslt8uvc",394,"9.csv","","903.5999999642372","resources/trios/L1T4A3.jpg","37","restless",0.6,0.6,0.4,0.736948730241171,"false"
"image-keyboard-response",45,68949,"0.0-3.11-1.11","rd6y5pgyslt8uvc",394,"9.csv","","null","resources/maskTrios/L1BB.jpg","null","",NA,NA,NA,NA,""
"image-keyboard-response",46,70156,"0.0-3.11-2.11","rd6y5pgyslt8uvc",394,"9.csv","","null","resources/images/fishbone.png","null","",NA,NA,NA,NA,""
"image-keyboard-response",47,70687,"0.0-3.12-0.12","rd6y5pgyslt8uvc",394,"9.csv","","530.1999999880791","resources/trios/L1T2A3.jpg","38","restless",0.6,0.6,0.4,0.303995248119939,"true"
"image-keyboard-response",48,71098,"0.0-3.12-1.12","rd6y5pgyslt8uvc",394,"9.csv","","null","resources/maskTrios/BT2B.jpg","null","",NA,NA,NA,NA,""
"image-keyboard-response",49,72302,"0.0-3.12-2.12","rd6y5pgyslt8uvc",394,"9.csv","","null","resources/images/coin2.png","null","",NA,NA,NA,NA,""
"image-keyboard-response",50,72706,"0.0-3.13-0.13","rd6y5pgyslt8uvc",394,"9.csv","","403.10000002384186","resources/trios/L1T2A3.jpg","38","restless",0.6,0.6,0.4,0.016507789101456,"true"
"image-keyboard-response",51,73119,"0.0-3.13-1.13","rd6y5pgyslt8uvc",394,"9.csv","","null","resources/maskTrios/BT2B.jpg","null","",NA,NA,NA,NA,""
"image-keyboard-response",52,74324,"0.0-3.13-2.13","rd6y5pgyslt8uvc",394,"9.csv","","null","resources/images/coin2.png","null","",NA,NA,NA,NA,""
"image-keyboard-response",53,74791,"0.0-3.14-0.14","rd6y5pgyslt8uvc",394,"9.csv","","466.2000000476837","resources/trios/L2T2A3.jpg","38","restless",0.6,0.6,0.4,0.0941837556823022,"true"
"image-keyboard-response",54,75203,"0.0-3.14-1.14","rd6y5pgyslt8uvc",394,"9.csv","","null","resources/maskTrios/BT2B.jpg","null","",NA,NA,NA,NA,""
"image-keyboard-response",55,76408,"0.0-3.14-2.14","rd6y5pgyslt8uvc",394,"9.csv","","null","resources/images/coin2.png","null","",NA,NA,NA,NA,""
"image-keyboard-response",56,76881,"0.0-3.15-0.15","rd6y5pgyslt8uvc",394,"9.csv","","471.10000002384186","resources/trios/L1T2A3.jpg","38","restless",0.6,0.6,0.4,0.131776481190442,"true"
"image-keyboard-response",57,77291,"0.0-3.15-1.15","rd6y5pgyslt8uvc",394,"9.csv","","null","resources/maskTrios/BT2B.jpg","null","",NA,NA,NA,NA,""
"image-keyboard-response",58,78502,"0.0-3.15-2.15","rd6y5pgyslt8uvc",394,"9.csv","","null","resources/images/coin2.png","null","",NA,NA,NA,NA,""
"image-keyboard-response",59,79130,"0.0-3.16-0.16","rd6y5pgyslt8uvc",394,"9.csv","","626.9000000357628","resources/trios/L2T2A3.jpg","38","restless",0.6,0.6,0.3,0.83326941313124,"false"
"image-keyboard-response",60,79539,"0.0-3.16-1.16","rd6y5pgyslt8uvc",394,"9.csv","","null","resources/maskTrios/BT2B.jpg","null","",NA,NA,NA,NA,""
"image-keyboard-response",61,80746,"0.0-3.16-2.16","rd6y5pgyslt8uvc",394,"9.csv","","null","resources/images/fishbone.png","null","",NA,NA,NA,NA,""
"image-keyboard-response",62,81314,"0.0-3.17-0.17","rd6y5pgyslt8uvc",394,"9.csv","","566.8000000119209","resources/trios/L1T4A1.jpg","39","restless",0.6,0.6,0.3,0.653395657636765,"false"
"image-keyboard-response",63,81722,"0.0-3.17-1.17","rd6y5pgyslt8uvc",394,"9.csv","","null","resources/maskTrios/BBA1.jpg","null","",NA,NA,NA,NA,""
"image-keyboard-response",64,82931,"0.0-3.17-2.17","rd6y5pgyslt8uvc",394,"9.csv","","null","resources/images/fishbone.png","null","",NA,NA,NA,NA,""
"image-keyboard-response",65,83474,"0.0-3.18-0.18","rd6y5pgyslt8uvc",394,"9.csv","","542.3000000119209","resources/trios/L1T4A3.jpg","37","restless",0.6,0.6,0.3,0.179805737872168,"true"
"image-keyboard-response",66,83889,"0.0-3.18-1.18","rd6y5pgyslt8uvc",394,"9.csv","","null","resources/maskTrios/L1BB.jpg","null","",NA,NA,NA,NA,""
"image-keyboard-response",67,85097,"0.0-3.18-2.18","rd6y5pgyslt8uvc",394,"9.csv","","null","resources/images/coin2.png","null","",NA,NA,NA,NA,""
"image-keyboard-response",68,85609,"0.0-3.19-0.19","rd6y5pgyslt8uvc",394,"9.csv","","511.30000001192093","resources/trios/L1T4A3.jpg","37","restless",0.6,0.6,0.3,0.819475844996097,"false"
"image-keyboard-response",69,86024,"0.0-3.19-1.19","rd6y5pgyslt8uvc",394,"9.csv","","null","resources/maskTrios/L1BB.jpg","null","",NA,NA,NA,NA,""
"image-keyboard-response",70,87234,"0.0-3.19-2.19","rd6y5pgyslt8uvc",394,"9.csv","","null","resources/images/fishbone.png","null","",NA,NA,NA,NA,""
"image-keyboard-response",71,88511,"0.0-3.20-0.20","rd6y5pgyslt8uvc",394,"9.csv","","1275.5","resources/trios/L2T4A3.jpg","37","restless",0.7,0.6,0.3,0.555421284308231,"true"
"image-keyboard-response",72,88918,"0.0-3.20-1.20","rd6y5pgyslt8uvc",394,"9.csv","","null","resources/maskTrios/L2BB.jpg","null","",NA,NA,NA,NA,""
"image-keyboard-response",73,90121,"0.0-3.20-2.20","rd6y5pgyslt8uvc",394,"9.csv","","null","resources/images/coin2.png","null","",NA,NA,NA,NA,""
"image-keyboard-response",74,91998,"0.0-3.21-0.21","rd6y5pgyslt8uvc",394,"9.csv","","1875","resources/trios/L1T4A1.jpg","37","restless",0.7,0.6,0.3,0.212159365812983,"true"
"image-keyboard-response",75,92407,"0.0-3.21-1.21","rd6y5pgyslt8uvc",394,"9.csv","","null","resources/maskTrios/L1BB.jpg","null","",NA,NA,NA,NA,""
"image-keyboard-response",76,93614,"0.0-3.21-2.21","rd6y5pgyslt8uvc",394,"9.csv","","null","resources/images/coin2.png","null","",NA,NA,NA,NA,""
"image-keyboard-response",77,95962,"0.0-3.22-0.22","rd6y5pgyslt8uvc",394,"9.csv","","2346.5","resources/trios/L1T2A1.jpg","38","restless",0.7,0.6,0.3,0.724246943773898,"false"
"image-keyboard-response",78,96365,"0.0-3.22-1.22","rd6y5pgyslt8uvc",394,"9.csv","","null","resources/maskTrios/BT2B.jpg","null","",NA,NA,NA,NA,""
"image-keyboard-response",79,97570,"0.0-3.22-2.22","rd6y5pgyslt8uvc",394,"9.csv","","null","resources/images/fishbone.png","null","",NA,NA,NA,NA,""
"image-keyboard-response",80,99262,"0.0-3.23-0.23","rd6y5pgyslt8uvc",394,"9.csv","","1691.0999999642372","resources/trios/L1T2A3.jpg","37","restless",0.7,0.6,0.3,0.526276018847548,"true"
"image-keyboard-response",81,99674,"0.0-3.23-1.23","rd6y5pgyslt8uvc",394,"9.csv","","null","resources/maskTrios/L1BB.jpg","null","",NA,NA,NA,NA,""
"image-keyboard-response",82,100879,"0.0-3.23-2.23","rd6y5pgyslt8uvc",394,"9.csv","","null","resources/images/coin2.png","null","",NA,NA,NA,NA,""
"image-keyboard-response",83,102731,"0.0-3.24-0.24","rd6y5pgyslt8uvc",394,"9.csv","","1850.4000000357628","resources/trios/L1T4A3.jpg","37","restless",0.7,0.7,0.3,0.130991692455397,"true"
"image-keyboard-response",84,103141,"0.0-3.24-1.24","rd6y5pgyslt8uvc",394,"9.csv","","null","resources/maskTrios/L1BB.jpg","null","",NA,NA,NA,NA,""
"image-keyboard-response",85,104349,"0.0-3.24-2.24","rd6y5pgyslt8uvc",394,"9.csv","","null","resources/images/coin2.png","null","",NA,NA,NA,NA,""
"image-keyboard-response",86,105525,"0.0-3.25-0.25","rd6y5pgyslt8uvc",394,"9.csv","","1175.5","resources/trios/L1T2A3.jpg","38","restless",0.7,0.7,0.3,0.838441132404749,"false"
"image-keyboard-response",87,105938,"0.0-3.25-1.25","rd6y5pgyslt8uvc",394,"9.csv","","null","resources/maskTrios/BT2B.jpg","null","",NA,NA,NA,NA,""
"image-keyboard-response",88,107154,"0.0-3.25-2.25","rd6y5pgyslt8uvc",394,"9.csv","","null","resources/images/fishbone.png","null","",NA,NA,NA,NA,""
"image-keyboard-response",89,107753,"0.0-3.26-0.26","rd6y5pgyslt8uvc",394,"9.csv","","598","resources/trios/L1T2A3.jpg","37","restless",0.7,0.7,0.3,0.292240809340326,"true"
"image-keyboard-response",90,108162,"0.0-3.26-1.26","rd6y5pgyslt8uvc",394,"9.csv","","null","resources/maskTrios/L1BB.jpg","null","",NA,NA,NA,NA,""
"image-keyboard-response",91,109370,"0.0-3.26-2.26","rd6y5pgyslt8uvc",394,"9.csv","","null","resources/images/coin2.png","null","",NA,NA,NA,NA,""
"image-keyboard-response",92,110278,"0.0-3.27-0.27","rd6y5pgyslt8uvc",394,"9.csv","","906.4000000357628","resources/trios/L1T2A1.jpg","38","restless",0.7,0.7,0.3,0.135334055241269,"true"
"image-keyboard-response",93,110685,"0.0-3.27-1.27","rd6y5pgyslt8uvc",394,"9.csv","","null","resources/maskTrios/BT2B.jpg","null","",NA,NA,NA,NA,""
"image-keyboard-response",94,111894,"0.0-3.27-2.27","rd6y5pgyslt8uvc",394,"9.csv","","null","resources/images/coin2.png","null","",NA,NA,NA,NA,""
"image-keyboard-response",95,112824,"0.0-3.28-0.28","rd6y5pgyslt8uvc",394,"9.csv","","929","resources/trios/L2T4A1.jpg","37","restless",0.7,0.7,0.3,0.911538982610297,"false"
"image-keyboard-response",96,113239,"0.0-3.28-1.28","rd6y5pgyslt8uvc",394,"9.csv","","null","resources/maskTrios/L2BB.jpg","null","",NA,NA,NA,NA,""
"image-keyboard-response",97,114444,"0.0-3.28-2.28","rd6y5pgyslt8uvc",394,"9.csv","","null","resources/images/fishbone.png","null","",NA,NA,NA,NA,""
"image-keyboard-response",98,115316,"0.0-3.29-0.29","rd6y5pgyslt8uvc",394,"9.csv","","871","resources/trios/L2T4A3.jpg","37","restless",0.8,0.7,0.3,0.215824137239086,"true"
"image-keyboard-response",99,115726,"0.0-3.29-1.29","rd6y5pgyslt8uvc",394,"9.csv","","null","resources/maskTrios/L2BB.jpg","null","",NA,NA,NA,NA,""
"image-keyboard-response",100,116937,"0.0-3.29-2.29","rd6y5pgyslt8uvc",394,"9.csv","","null","resources/images/coin2.png","null","",NA,NA,NA,NA,""
"image-keyboard-response",101,117380,"0.0-3.30-0.30","rd6y5pgyslt8uvc",394,"9.csv","","441.69999998807907","resources/trios/L2T4A3.jpg","37","restless",0.9,0.7,0.3,0.811625498891703,"true"
"image-keyboard-response",102,117787,"0.0-3.30-1.30","rd6y5pgyslt8uvc",394,"9.csv","","null","resources/maskTrios/L2BB.jpg","null","",NA,NA,NA,NA,""
"image-keyboard-response",103,118996,"0.0-3.30-2.30","rd6y5pgyslt8uvc",394,"9.csv","","null","resources/images/coin2.png","null","",NA,NA,NA,NA,""
"image-keyboard-response",104,119188,"0.0-3.31-0.31","rd6y5pgyslt8uvc",394,"9.csv","","191.69999998807907","resources/trios/L1T2A1.jpg","38","restless",0.9,0.7,0.3,0.236328460439196,"true"
"image-keyboard-response",105,119597,"0.0-3.31-1.31","rd6y5pgyslt8uvc",394,"9.csv","","null","resources/maskTrios/BT2B.jpg","null","",NA,NA,NA,NA,""
"image-keyboard-response",106,120805,"0.0-3.31-2.31","rd6y5pgyslt8uvc",394,"9.csv","","null","resources/images/coin2.png","null","",NA,NA,NA,NA,""
"image-keyboard-response",107,121054,"0.0-3.32-0.32","rd6y5pgyslt8uvc",394,"9.csv","","248.80000001192093","resources/trios/L1T4A3.jpg","38","restless",0.9,0.7,0.3,0.788450557783481,"false"
"image-keyboard-response",108,121471,"0.0-3.32-1.32","rd6y5pgyslt8uvc",394,"9.csv","","null","resources/maskTrios/BT4B.jpg","null","",NA,NA,NA,NA,""
"image-keyboard-response",109,122677,"0.0-3.32-2.32","rd6y5pgyslt8uvc",394,"9.csv","","null","resources/images/fishbone.png","null","",NA,NA,NA,NA,""
"image-keyboard-response",110,122994,"0.0-3.33-0.33","rd6y5pgyslt8uvc",394,"9.csv","","316.80000001192093","resources/trios/L1T4A1.jpg","37","restless",0.9,0.7,0.3,0.167152704770777,"true"
"image-keyboard-response",111,123406,"0.0-3.33-1.33","rd6y5pgyslt8uvc",394,"9.csv","","null","resources/maskTrios/L1BB.jpg","null","",NA,NA,NA,NA,""
"image-keyboard-response",112,124612,"0.0-3.33-2.33","rd6y5pgyslt8uvc",394,"9.csv","","null","resources/images/coin2.png","null","",NA,NA,NA,NA,""
"image-keyboard-response",113,124935,"0.0-3.34-0.34","rd6y5pgyslt8uvc",394,"9.csv","","321.39999997615814","resources/trios/L2T4A1.jpg","37","restless",0.9,0.7,0.3,0.920676976219001,"false"
"image-keyboard-response",114,125337,"0.0-3.34-1.34","rd6y5pgyslt8uvc",394,"9.csv","","null","resources/maskTrios/L2BB.jpg","null","",NA,NA,NA,NA,""
"image-keyboard-response",115,126549,"0.0-3.34-2.34","rd6y5pgyslt8uvc",394,"9.csv","","null","resources/images/fishbone.png","null","",NA,NA,NA,NA,""
"image-keyboard-response",116,126968,"0.0-3.35-0.35","rd6y5pgyslt8uvc",394,"9.csv","","418.10000002384186","resources/trios/L1T2A1.jpg","38","restless",0.9,0.7,0.2,0.84827006197005,"false"
"image-keyboard-response",117,127373,"0.0-3.35-1.35","rd6y5pgyslt8uvc",394,"9.csv","","null","resources/maskTrios/BT2B.jpg","null","",NA,NA,NA,NA,""
"image-keyboard-response",118,128580,"0.0-3.35-2.35","rd6y5pgyslt8uvc",394,"9.csv","","null","resources/images/fishbone.png","null","",NA,NA,NA,NA,""
"image-keyboard-response",119,129882,"0.0-3.36-0.36","rd6y5pgyslt8uvc",394,"9.csv","","1300.699999988079","resources/trios/L2T2A1.jpg","37","restless",0.9,0.7,0.2,0.197282713573044,"true"
"image-keyboard-response",120,130285,"0.0-3.36-1.36","rd6y5pgyslt8uvc",394,"9.csv","","null","resources/maskTrios/L2BB.jpg","null","",NA,NA,NA,NA,""
"image-keyboard-response",121,131494,"0.0-3.36-2.36","rd6y5pgyslt8uvc",394,"9.csv","","null","resources/images/coin2.png","null","",NA,NA,NA,NA,""
"image-keyboard-response",122,131729,"0.0-3.37-0.37","rd6y5pgyslt8uvc",394,"9.csv","","233.9000000357628","resources/trios/L2T4A1.jpg","38","restless",0.8,0.7,0.2,0.698043514129635,"true"
"image-keyboard-response",123,132131,"0.0-3.37-1.37","rd6y5pgyslt8uvc",394,"9.csv","","null","resources/maskTrios/BT4B.jpg","null","",NA,NA,NA,NA,""
"image-keyboard-response",124,133336,"0.0-3.37-2.37","rd6y5pgyslt8uvc",394,"9.csv","","null","resources/images/coin2.png","null","",NA,NA,NA,NA,""
"image-keyboard-response",125,133627,"0.0-3.38-0.38","rd6y5pgyslt8uvc",394,"9.csv","","289.7999999523163","resources/trios/L2T2A1.jpg","37","restless",0.8,0.7,0.2,0.219464808467442,"true"
"image-keyboard-response",126,134032,"0.0-3.38-1.38","rd6y5pgyslt8uvc",394,"9.csv","","null","resources/maskTrios/L2BB.jpg","null","",NA,NA,NA,NA,""
"image-keyboard-response",127,135239,"0.0-3.38-2.38","rd6y5pgyslt8uvc",394,"9.csv","","null","resources/images/coin2.png","null","",NA,NA,NA,NA,""
"image-keyboard-response",128,135578,"0.0-3.39-0.39","rd6y5pgyslt8uvc",394,"9.csv","","337.0999999642372","resources/trios/L2T2A3.jpg","37","restless",0.7,0.7,0.3,0.960685760322255,"false"
"image-keyboard-response",129,135984,"0.0-3.39-1.39","rd6y5pgyslt8uvc",394,"9.csv","","null","resources/maskTrios/L2BB.jpg","null","",NA,NA,NA,NA,""
"image-keyboard-response",130,137188,"0.0-3.39-2.39","rd6y5pgyslt8uvc",394,"9.csv","","null","resources/images/fishbone.png","null","",NA,NA,NA,NA,""
"image-keyboard-response",131,137443,"0.0-3.40-0.40","rd6y5pgyslt8uvc",394,"9.csv","","253.89999997615814","resources/trios/L1T4A3.jpg","38","restless",0.7,0.7,0.3,0.284162509979385,"true"
"image-keyboard-response",132,137853,"0.0-3.40-1.40","rd6y5pgyslt8uvc",394,"9.csv","","null","resources/maskTrios/BT4B.jpg","null","",NA,NA,NA,NA,""
"image-keyboard-response",133,139055,"0.0-3.40-2.40","rd6y5pgyslt8uvc",394,"9.csv","","null","resources/images/coin2.png","null","",NA,NA,NA,NA,""
"image-keyboard-response",134,139830,"0.0-3.41-0.41","rd6y5pgyslt8uvc",394,"9.csv","","773.8999999761581","resources/trios/L2T2A3.jpg","38","restless",0.6,0.7,0.3,0.561529910770256,"true"
"image-keyboard-response",135,140248,"0.0-3.41-1.41","rd6y5pgyslt8uvc",394,"9.csv","","null","resources/maskTrios/BT2B.jpg","null","",NA,NA,NA,NA,""
"image-keyboard-response",136,141457,"0.0-3.41-2.41","rd6y5pgyslt8uvc",394,"9.csv","","null","resources/images/coin2.png","null","",NA,NA,NA,NA,""
"image-keyboard-response",137,142007,"0.0-3.42-0.42","rd6y5pgyslt8uvc",394,"9.csv","","548.6999999880791","resources/trios/L1T2A1.jpg","38","restless",0.6,0.7,0.3,0.166060157900889,"true"
"image-keyboard-response",138,142417,"0.0-3.42-1.42","rd6y5pgyslt8uvc",394,"9.csv","","null","resources/maskTrios/BT2B.jpg","null","",NA,NA,NA,NA,""
"image-keyboard-response",139,143625,"0.0-3.42-2.42","rd6y5pgyslt8uvc",394,"9.csv","","null","resources/images/coin2.png","null","",NA,NA,NA,NA,""
"image-keyboard-response",140,143907,"0.0-3.43-0.43","rd6y5pgyslt8uvc",394,"9.csv","","280.89999997615814","resources/trios/L2T2A3.jpg","38","restless",0.6,0.7,0.3,0.999269280238258,"false"
"image-keyboard-response",141,144322,"0.0-3.43-1.43","rd6y5pgyslt8uvc",394,"9.csv","","null","resources/maskTrios/BT2B.jpg","null","",NA,NA,NA,NA,""
"image-keyboard-response",142,145528,"0.0-3.43-2.43","rd6y5pgyslt8uvc",394,"9.csv","","null","resources/images/fishbone.png","null","",NA,NA,NA,NA,""
"image-keyboard-response",143,145625,"0.0-3.44-0.44","rd6y5pgyslt8uvc",394,"9.csv","","95.80000001192093","resources/trios/L2T4A1.jpg","37","restless",0.5,0.7,0.4,0.152161742524685,"true"
"image-keyboard-response",144,146037,"0.0-3.44-1.44","rd6y5pgyslt8uvc",394,"9.csv","","null","resources/maskTrios/L2BB.jpg","null","",NA,NA,NA,NA,""
"image-keyboard-response",145,147247,"0.0-3.44-2.44","rd6y5pgyslt8uvc",394,"9.csv","","null","resources/images/coin2.png","null","",NA,NA,NA,NA,""
"image-keyboard-response",146,147546,"0.0-3.45-0.45","rd6y5pgyslt8uvc",394,"9.csv","","297.60000002384186","resources/trios/L1T2A3.jpg","37","restless",0.5,0.7,0.5,0.686154079980997,"false"
"image-keyboard-response",147,147960,"0.0-3.45-1.45","rd6y5pgyslt8uvc",394,"9.csv","","null","resources/maskTrios/L1BB.jpg","null","",NA,NA,NA,NA,""
"image-keyboard-response",148,149173,"0.0-3.45-2.45","rd6y5pgyslt8uvc",394,"9.csv","","null","resources/images/fishbone.png","null","",NA,NA,NA,NA,""
"image-keyboard-response",149,149421,"0.0-3.46-0.46","rd6y5pgyslt8uvc",394,"9.csv","","247.10000002384186","resources/trios/L1T2A1.jpg","38","restless",0.5,0.7,0.5,0.995557236387195,"false"
"image-keyboard-response",150,149825,"0.0-3.46-1.46","rd6y5pgyslt8uvc",394,"9.csv","","null","resources/maskTrios/BT2B.jpg","null","",NA,NA,NA,NA,""
"image-keyboard-response",151,151039,"0.0-3.46-2.46","rd6y5pgyslt8uvc",394,"9.csv","","null","resources/images/fishbone.png","null","",NA,NA,NA,NA,""
"image-keyboard-response",152,151438,"0.0-3.47-0.47","rd6y5pgyslt8uvc",394,"9.csv","","397.5","resources/trios/L2T4A3.jpg","37","restless",0.5,0.7,0.5,0.0555994666409074,"true"
"image-keyboard-response",153,151847,"0.0-3.47-1.47","rd6y5pgyslt8uvc",394,"9.csv","","null","resources/maskTrios/L2BB.jpg","null","",NA,NA,NA,NA,""
"image-keyboard-response",154,153058,"0.0-3.47-2.47","rd6y5pgyslt8uvc",394,"9.csv","","null","resources/images/coin2.png","null","",NA,NA,NA,NA,""
"image-keyboard-response",155,153889,"0.0-3.48-0.48","rd6y5pgyslt8uvc",394,"9.csv","","830.6999999880791","resources/trios/L2T2A3.jpg","37","restless",0.5,0.7,0.5,0.130084241796198,"true"
"image-keyboard-response",156,154294,"0.0-3.48-1.48","rd6y5pgyslt8uvc",394,"9.csv","","null","resources/maskTrios/L2BB.jpg","null","",NA,NA,NA,NA,""
"image-keyboard-response",157,155504,"0.0-3.48-2.48","rd6y5pgyslt8uvc",394,"9.csv","","null","resources/images/coin2.png","null","",NA,NA,NA,NA,""
"image-keyboard-response",158,156604,"0.0-3.49-0.49","rd6y5pgyslt8uvc",394,"9.csv","","1098.7999999523163","resources/trios/L2T2A3.jpg","37","restless",0.5,0.7,0.4,0.364300238240874,"true"
"image-keyboard-response",159,157014,"0.0-3.49-1.49","rd6y5pgyslt8uvc",394,"9.csv","","null","resources/maskTrios/L2BB.jpg","null","",NA,NA,NA,NA,""
"image-keyboard-response",160,158225,"0.0-3.49-2.49","rd6y5pgyslt8uvc",394,"9.csv","","null","resources/images/coin2.png","null","",NA,NA,NA,NA,""
"image-keyboard-response",161,159444,"0.0-3.50-0.50","rd6y5pgyslt8uvc",394,"9.csv","","1218.5","resources/trios/L2T2A1.jpg","37","restless",0.5,0.7,0.5,0.707124029512713,"false"
"image-keyboard-response",162,159851,"0.0-3.50-1.50","rd6y5pgyslt8uvc",394,"9.csv","","null","resources/maskTrios/L2BB.jpg","null","",NA,NA,NA,NA,""
"image-keyboard-response",163,161058,"0.0-3.50-2.50","rd6y5pgyslt8uvc",394,"9.csv","","null","resources/images/fishbone.png","null","",NA,NA,NA,NA,""
"image-keyboard-response",164,162594,"0.0-3.51-0.51","rd6y5pgyslt8uvc",394,"9.csv","","1535.5","resources/trios/L1T4A3.jpg","38","restless",0.5,0.7,0.6,0.684184343171748,"true"
"image-keyboard-response",165,163007,"0.0-3.51-1.51","rd6y5pgyslt8uvc",394,"9.csv","","null","resources/maskTrios/BT4B.jpg","null","",NA,NA,NA,NA,""
"image-keyboard-response",166,164217,"0.0-3.51-2.51","rd6y5pgyslt8uvc",394,"9.csv","","null","resources/images/coin2.png","null","",NA,NA,NA,NA,""
"image-keyboard-response",167,165131,"0.0-3.52-0.52","rd6y5pgyslt8uvc",394,"9.csv","","913.3999999761581","resources/trios/L2T2A1.jpg","38","restless",0.5,0.7,0.6,0.793472284583636,"false"
"image-keyboard-response",168,165542,"0.0-3.52-1.52","rd6y5pgyslt8uvc",394,"9.csv","","null","resources/maskTrios/BT2B.jpg","null","",NA,NA,NA,NA,""
"image-keyboard-response",169,166758,"0.0-3.52-2.52","rd6y5pgyslt8uvc",394,"9.csv","","null","resources/images/fishbone.png","null","",NA,NA,NA,NA,""
"image-keyboard-response",170,168041,"0.0-3.53-0.53","rd6y5pgyslt8uvc",394,"9.csv","","1281.699999988079","resources/trios/L1T2A1.jpg","38","restless",0.5,0.6,0.6,0.562077461126762,"true"
"image-keyboard-response",171,168445,"0.0-3.53-1.53","rd6y5pgyslt8uvc",394,"9.csv","","null","resources/maskTrios/BT2B.jpg","null","",NA,NA,NA,NA,""
"image-keyboard-response",172,169659,"0.0-3.53-2.53","rd6y5pgyslt8uvc",394,"9.csv","","null","resources/images/coin2.png","null","",NA,NA,NA,NA,""
"image-keyboard-response",173,171000,"0.0-3.54-0.54","rd6y5pgyslt8uvc",394,"9.csv","","1340.5999999642372","resources/trios/L1T2A1.jpg","38","restless",0.5,0.7,0.6,0.295526976071582,"true"
"image-keyboard-response",174,171412,"0.0-3.54-1.54","rd6y5pgyslt8uvc",394,"9.csv","","null","resources/maskTrios/BT2B.jpg","null","",NA,NA,NA,NA,""
"image-keyboard-response",175,172623,"0.0-3.54-2.54","rd6y5pgyslt8uvc",394,"9.csv","","null","resources/images/coin2.png","null","",NA,NA,NA,NA,""
"image-keyboard-response",176,174159,"0.0-3.55-0.55","rd6y5pgyslt8uvc",394,"9.csv","","1534.699999988079","resources/trios/L1T4A3.jpg","39","restless",0.4,0.7,0.6,0.910454029929966,"false"
"image-keyboard-response",177,174575,"0.0-3.55-1.55","rd6y5pgyslt8uvc",394,"9.csv","","null","resources/maskTrios/BBA3.jpg","null","",NA,NA,NA,NA,""
"image-keyboard-response",178,175778,"0.0-3.55-2.55","rd6y5pgyslt8uvc",394,"9.csv","","null","resources/images/fishbone.png","null","",NA,NA,NA,NA,""
"image-keyboard-response",179,176939,"0.0-3.56-0.56","rd6y5pgyslt8uvc",394,"9.csv","","1159.699999988079","resources/trios/L1T4A1.jpg","38","restless",0.4,0.7,0.6,0.807441276200757,"false"
"image-keyboard-response",180,177343,"0.0-3.56-1.56","rd6y5pgyslt8uvc",394,"9.csv","","null","resources/maskTrios/BT4B.jpg","null","",NA,NA,NA,NA,""
"image-keyboard-response",181,178547,"0.0-3.56-2.56","rd6y5pgyslt8uvc",394,"9.csv","","null","resources/images/fishbone.png","null","",NA,NA,NA,NA,""
"image-keyboard-response",182,179010,"0.0-3.57-0.57","rd6y5pgyslt8uvc",394,"9.csv","","461.30000001192093","resources/trios/L1T4A3.jpg","37","restless",0.4,0.7,0.6,0.497359265359689,"false"
"image-keyboard-response",183,179414,"0.0-3.57-1.57","rd6y5pgyslt8uvc",394,"9.csv","","null","resources/maskTrios/L1BB.jpg","null","",NA,NA,NA,NA,""
"image-keyboard-response",184,180616,"0.0-3.57-2.57","rd6y5pgyslt8uvc",394,"9.csv","","null","resources/images/fishbone.png","null","",NA,NA,NA,NA,""
"image-keyboard-response",185,181901,"0.0-3.58-0.58","rd6y5pgyslt8uvc",394,"9.csv","","1282.800000011921","resources/trios/L2T4A1.jpg","37","restless",0.4,0.7,0.6,0.82593015753054,"false"
"image-keyboard-response",186,182304,"0.0-3.58-1.58","rd6y5pgyslt8uvc",394,"9.csv","","null","resources/maskTrios/L2BB.jpg","null","",NA,NA,NA,NA,""
"image-keyboard-response",187,183510,"0.0-3.58-2.58","rd6y5pgyslt8uvc",394,"9.csv","","null","resources/images/fishbone.png","null","",NA,NA,NA,NA,""
"image-keyboard-response",188,184468,"0.0-3.59-0.59","rd6y5pgyslt8uvc",394,"9.csv","","956.3999999761581","resources/trios/L2T4A3.jpg","38","restless",0.4,0.7,0.6,0.469936428011698,"true"
"image-keyboard-response",189,184870,"0.0-3.59-1.59","rd6y5pgyslt8uvc",394,"9.csv","","null","resources/maskTrios/BT4B.jpg","null","",NA,NA,NA,NA,""
"image-keyboard-response",190,186078,"0.0-3.59-2.59","rd6y5pgyslt8uvc",394,"9.csv","","null","resources/images/coin2.png","null","",NA,NA,NA,NA,""
"image-keyboard-response",191,187782,"0.0-3.60-0.60","rd6y5pgyslt8uvc",394,"9.csv","","1703.3999999761581","resources/trios/L1T4A3.jpg","37","restless",0.3,0.7,0.5,0.668954913347984,"false"
"image-keyboard-response",192,188196,"0.0-3.60-1.60","rd6y5pgyslt8uvc",394,"9.csv","","null","resources/maskTrios/L1BB.jpg","null","",NA,NA,NA,NA,""
"image-keyboard-response",193,189404,"0.0-3.60-2.60","rd6y5pgyslt8uvc",394,"9.csv","","null","resources/images/fishbone.png","null","",NA,NA,NA,NA,""
"image-keyboard-response",194,191562,"0.0-3.61-0.61","rd6y5pgyslt8uvc",394,"9.csv","","2157.2999999523163","resources/trios/L2T4A1.jpg","38","restless",0.3,0.7,0.5,0.421534076392793,"true"
"image-keyboard-response",195,191972,"0.0-3.61-1.61","rd6y5pgyslt8uvc",394,"9.csv","","null","resources/maskTrios/BT4B.jpg","null","",NA,NA,NA,NA,""
"image-keyboard-response",196,193178,"0.0-3.61-2.61","rd6y5pgyslt8uvc",394,"9.csv","","null","resources/images/coin2.png","null","",NA,NA,NA,NA,""
"image-keyboard-response",197,193931,"0.0-3.62-0.62","rd6y5pgyslt8uvc",394,"9.csv","","751.2000000476837","resources/trios/L2T2A1.jpg","38","restless",0.3,0.8,0.5,0.598699125209311,"true"
"image-keyboard-response",198,194342,"0.0-3.62-1.62","rd6y5pgyslt8uvc",394,"9.csv","","null","resources/maskTrios/BT2B.jpg","null","",NA,NA,NA,NA,""
"image-keyboard-response",199,195548,"0.0-3.62-2.62","rd6y5pgyslt8uvc",394,"9.csv","","null","resources/images/coin2.png","null","",NA,NA,NA,NA,""
"image-keyboard-response",200,196226,"0.0-3.63-0.63","rd6y5pgyslt8uvc",394,"9.csv","","677.1999999880791","resources/trios/L2T2A3.jpg","38","restless",0.3,0.8,0.5,0.313297425701124,"true"
"image-keyboard-response",201,196630,"0.0-3.63-1.63","rd6y5pgyslt8uvc",394,"9.csv","","null","resources/maskTrios/BT2B.jpg","null","",NA,NA,NA,NA,""
"image-keyboard-response",202,197835,"0.0-3.63-2.63","rd6y5pgyslt8uvc",394,"9.csv","","null","resources/images/coin2.png","null","",NA,NA,NA,NA,""
"image-keyboard-response",203,199222,"0.0-3.64-0.64","rd6y5pgyslt8uvc",394,"9.csv","","1386.300000011921","resources/trios/L2T4A3.jpg","37","restless",0.3,0.8,0.5,0.546564228289229,"false"
"image-keyboard-response",204,199633,"0.0-3.64-1.64","rd6y5pgyslt8uvc",394,"9.csv","","null","resources/maskTrios/L2BB.jpg","null","",NA,NA,NA,NA,""
"image-keyboard-response",205,200837,"0.0-3.64-2.64","rd6y5pgyslt8uvc",394,"9.csv","","null","resources/images/fishbone.png","null","",NA,NA,NA,NA,""
"image-keyboard-response",206,201411,"0.0-3.65-0.65","rd6y5pgyslt8uvc",394,"9.csv","","572.8999999761581","resources/trios/L2T2A3.jpg","38","restless",0.3,0.8,0.6,0.429410635274546,"true"
"image-keyboard-response",207,201814,"0.0-3.65-1.65","rd6y5pgyslt8uvc",394,"9.csv","","null","resources/maskTrios/BT2B.jpg","null","",NA,NA,NA,NA,""
"image-keyboard-response",208,203023,"0.0-3.65-2.65","rd6y5pgyslt8uvc",394,"9.csv","","null","resources/images/coin2.png","null","",NA,NA,NA,NA,""
"image-keyboard-response",209,203521,"0.0-3.66-0.66","rd6y5pgyslt8uvc",394,"9.csv","","496.5","resources/trios/L1T2A1.jpg","38","restless",0.3,0.8,0.6,0.0381879042757645,"true"
"image-keyboard-response",210,203923,"0.0-3.66-1.66","rd6y5pgyslt8uvc",394,"9.csv","","null","resources/maskTrios/BT2B.jpg","null","",NA,NA,NA,NA,""
"image-keyboard-response",211,205131,"0.0-3.66-2.66","rd6y5pgyslt8uvc",394,"9.csv","","null","resources/images/coin2.png","null","",NA,NA,NA,NA,""
"image-keyboard-response",212,205840,"0.0-3.67-0.67","rd6y5pgyslt8uvc",394,"9.csv","","707.7999999523163","resources/trios/L2T4A1.jpg","38","restless",0.3,0.8,0.6,0.589584042120523,"true"
"image-keyboard-response",213,206257,"0.0-3.67-1.67","rd6y5pgyslt8uvc",394,"9.csv","","null","resources/maskTrios/BT4B.jpg","null","",NA,NA,NA,NA,""
"image-keyboard-response",214,207466,"0.0-3.67-2.67","rd6y5pgyslt8uvc",394,"9.csv","","null","resources/images/coin2.png","null","",NA,NA,NA,NA,""
"image-keyboard-response",215,207940,"0.0-3.68-0.68","rd6y5pgyslt8uvc",394,"9.csv","","472.30000001192093","resources/trios/L1T2A1.jpg","38","restless",0.3,0.8,0.6,0.0222888844730604,"true"
"image-keyboard-response",216,208352,"0.0-3.68-1.68","rd6y5pgyslt8uvc",394,"9.csv","","null","resources/maskTrios/BT2B.jpg","null","",NA,NA,NA,NA,""
"image-keyboard-response",217,209561,"0.0-3.68-2.68","rd6y5pgyslt8uvc",394,"9.csv","","null","resources/images/coin2.png","null","",NA,NA,NA,NA,""
"image-keyboard-response",218,210293,"0.0-3.69-0.69","rd6y5pgyslt8uvc",394,"9.csv","","731.6999999880791","resources/trios/L2T4A1.jpg","38","restless",0.3,0.8,0.5,0.792673728798893,"true"
"image-keyboard-response",219,210701,"0.0-3.69-1.69","rd6y5pgyslt8uvc",394,"9.csv","","null","resources/maskTrios/BT4B.jpg","null","",NA,NA,NA,NA,""
"image-keyboard-response",220,211904,"0.0-3.69-2.69","rd6y5pgyslt8uvc",394,"9.csv","","null","resources/images/coin2.png","null","",NA,NA,NA,NA,""
"image-keyboard-response",221,212723,"0.0-3.70-0.70","rd6y5pgyslt8uvc",394,"9.csv","","817.3000000119209","resources/trios/L2T2A1.jpg","37","restless",0.3,0.8,0.5,0.626580689341782,"false"
"image-keyboard-response",222,213127,"0.0-3.70-1.70","rd6y5pgyslt8uvc",394,"9.csv","","null","resources/maskTrios/L2BB.jpg","null","",NA,NA,NA,NA,""
"image-keyboard-response",223,214336,"0.0-3.70-2.70","rd6y5pgyslt8uvc",394,"9.csv","","null","resources/images/fishbone.png","null","",NA,NA,NA,NA,""
"image-keyboard-response",224,214599,"0.0-3.71-0.71","rd6y5pgyslt8uvc",394,"9.csv","","261.39999997615814","resources/trios/L2T4A3.jpg","38","restless",0.3,0.8,0.6,0.875390124359057,"false"
"image-keyboard-response",225,215001,"0.0-3.71-1.71","rd6y5pgyslt8uvc",394,"9.csv","","null","resources/maskTrios/BT4B.jpg","null","",NA,NA,NA,NA,""
"image-keyboard-response",226,216207,"0.0-3.71-2.71","rd6y5pgyslt8uvc",394,"9.csv","","null","resources/images/fishbone.png","null","",NA,NA,NA,NA,""
"image-keyboard-response",227,216547,"0.0-3.72-0.72","rd6y5pgyslt8uvc",394,"9.csv","","338.7999999523163","resources/trios/L2T4A1.jpg","37","restless",0.3,0.8,0.6,0.424974853225777,"false"
"image-keyboard-response",228,216952,"0.0-3.72-1.72","rd6y5pgyslt8uvc",394,"9.csv","","null","resources/maskTrios/L2BB.jpg","null","",NA,NA,NA,NA,""
"image-keyboard-response",229,218156,"0.0-3.72-2.72","rd6y5pgyslt8uvc",394,"9.csv","","null","resources/images/fishbone.png","null","",NA,NA,NA,NA,""
"image-keyboard-response",230,218249,"0.0-3.73-0.73","rd6y5pgyslt8uvc",394,"9.csv","","91.69999998807907","resources/trios/L2T4A3.jpg","38","restless",0.4,0.8,0.6,0.627011780121139,"true"
"image-keyboard-response",231,218665,"0.0-3.73-1.73","rd6y5pgyslt8uvc",394,"9.csv","","null","resources/maskTrios/BT4B.jpg","null","",NA,NA,NA,NA,""
"image-keyboard-response",232,219870,"0.0-3.73-2.73","rd6y5pgyslt8uvc",394,"9.csv","","null","resources/images/coin2.png","null","",NA,NA,NA,NA,""
"image-keyboard-response",233,220183,"0.0-3.74-0.74","rd6y5pgyslt8uvc",394,"9.csv","","311.60000002384186","resources/trios/L1T4A3.jpg","38","restless",0.4,0.8,0.6,0.414204427422214,"true"
"image-keyboard-response",234,220597,"0.0-3.74-1.74","rd6y5pgyslt8uvc",394,"9.csv","","null","resources/maskTrios/BT4B.jpg","null","",NA,NA,NA,NA,""
"image-keyboard-response",235,221803,"0.0-3.74-2.74","rd6y5pgyslt8uvc",394,"9.csv","","null","resources/images/coin2.png","null","",NA,NA,NA,NA,""
"image-keyboard-response",236,222080,"0.0-3.75-0.75","rd6y5pgyslt8uvc",394,"9.csv","","275.9000000357628","resources/trios/L2T4A1.jpg","38","restless",0.4,0.8,0.6,0.184870321533015,"true"
"image-keyboard-response",237,222497,"0.0-3.75-1.75","rd6y5pgyslt8uvc",394,"9.csv","","null","resources/maskTrios/BT4B.jpg","null","",NA,NA,NA,NA,""
"image-keyboard-response",238,223699,"0.0-3.75-2.75","rd6y5pgyslt8uvc",394,"9.csv","","null","resources/images/coin2.png","null","",NA,NA,NA,NA,""
"image-keyboard-response",239,223974,"0.0-3.76-0.76","rd6y5pgyslt8uvc",394,"9.csv","","274","resources/trios/L2T2A1.jpg","38","restless",0.4,0.8,0.6,0.305363035584889,"true"
"image-keyboard-response",240,224377,"0.0-3.76-1.76","rd6y5pgyslt8uvc",394,"9.csv","","null","resources/maskTrios/BT2B.jpg","null","",NA,NA,NA,NA,""
"image-keyboard-response",241,225586,"0.0-3.76-2.76","rd6y5pgyslt8uvc",394,"9.csv","","null","resources/images/coin2.png","null","",NA,NA,NA,NA,""
"image-keyboard-response",242,225853,"0.0-3.77-0.77","rd6y5pgyslt8uvc",394,"9.csv","","265.19999998807907","resources/trios/L2T2A1.jpg","38","restless",0.5,0.8,0.6,0.323662126100704,"true"
"image-keyboard-response",243,226267,"0.0-3.77-1.77","rd6y5pgyslt8uvc",394,"9.csv","","null","resources/maskTrios/BT2B.jpg","null","",NA,NA,NA,NA,""
"image-keyboard-response",244,227474,"0.0-3.77-2.77","rd6y5pgyslt8uvc",394,"9.csv","","null","resources/images/coin2.png","null","",NA,NA,NA,NA,""
"image-keyboard-response",245,227830,"0.0-3.78-0.78","rd6y5pgyslt8uvc",394,"9.csv","","354.69999998807907","resources/trios/L2T2A1.jpg","38","restless",0.5,0.7,0.6,0.99722267036301,"false"
"image-keyboard-response",246,228237,"0.0-3.78-1.78","rd6y5pgyslt8uvc",394,"9.csv","","null","resources/maskTrios/BT2B.jpg","null","",NA,NA,NA,NA,""
"image-keyboard-response",247,229443,"0.0-3.78-2.78","rd6y5pgyslt8uvc",394,"9.csv","","null","resources/images/fishbone.png","null","",NA,NA,NA,NA,""
"image-keyboard-response",248,229974,"0.0-3.79-0.79","rd6y5pgyslt8uvc",394,"9.csv","","529.7999999523163","resources/trios/L2T2A3.jpg","37","restless",0.5,0.7,0.6,0.596644029200321,"false"
"image-keyboard-response",249,230386,"0.0-3.79-1.79","rd6y5pgyslt8uvc",394,"9.csv","","null","resources/maskTrios/L2BB.jpg","null","",NA,NA,NA,NA,""
"image-keyboard-response",250,231591,"0.0-3.79-2.79","rd6y5pgyslt8uvc",394,"9.csv","","null","resources/images/fishbone.png","null","",NA,NA,NA,NA,""
"image-keyboard-response",251,231852,"0.0-3.80-0.80","rd6y5pgyslt8uvc",394,"9.csv","","259.30000001192093","resources/trios/L1T4A1.jpg","38","restless",0.5,0.7,0.6,0.312658032507844,"true"
"image-keyboard-response",252,232256,"0.0-3.80-1.80","rd6y5pgyslt8uvc",394,"9.csv","","null","resources/maskTrios/BT4B.jpg","null","",NA,NA,NA,NA,""
"image-keyboard-response",253,233464,"0.0-3.80-2.80","rd6y5pgyslt8uvc",394,"9.csv","","null","resources/images/coin2.png","null","",NA,NA,NA,NA,""
"image-keyboard-response",254,233878,"0.0-3.81-0.81","rd6y5pgyslt8uvc",394,"9.csv","","412.30000001192093","resources/trios/L2T4A1.jpg","38","restless",0.5,0.7,0.6,0.122725920758527,"true"
"image-keyboard-response",255,234285,"0.0-3.81-1.81","rd6y5pgyslt8uvc",394,"9.csv","","null","resources/maskTrios/BT4B.jpg","null","",NA,NA,NA,NA,""
"image-keyboard-response",256,235496,"0.0-3.81-2.81","rd6y5pgyslt8uvc",394,"9.csv","","null","resources/images/coin2.png","null","",NA,NA,NA,NA,""
"image-keyboard-response",257,235918,"0.0-3.82-0.82","rd6y5pgyslt8uvc",394,"9.csv","","420.80000001192093","resources/trios/L1T4A3.jpg","38","restless",0.5,0.7,0.6,0.235377961665017,"true"
"image-keyboard-response",258,236333,"0.0-3.82-1.82","rd6y5pgyslt8uvc",394,"9.csv","","null","resources/maskTrios/BT4B.jpg","null","",NA,NA,NA,NA,""
"image-keyboard-response",259,237540,"0.0-3.82-2.82","rd6y5pgyslt8uvc",394,"9.csv","","null","resources/images/coin2.png","null","",NA,NA,NA,NA,""
"image-keyboard-response",260,237572,"0.0-3.83-0.83","rd6y5pgyslt8uvc",394,"9.csv","","31.400000035762787","resources/trios/L2T2A3.jpg","38","restless",0.5,0.7,0.6,0.183465189428619,"true"
"image-keyboard-response",261,237976,"0.0-3.83-1.83","rd6y5pgyslt8uvc",394,"9.csv","","null","resources/maskTrios/BT2B.jpg","null","",NA,NA,NA,NA,""
"image-keyboard-response",262,239183,"0.0-3.83-2.83","rd6y5pgyslt8uvc",394,"9.csv","","null","resources/images/coin2.png","null","",NA,NA,NA,NA,""
"image-keyboard-response",263,239757,"0.0-3.84-0.84","rd6y5pgyslt8uvc",394,"9.csv","","573.6000000238419","resources/trios/L2T2A1.jpg","38","restless",0.5,0.7,0.6,0.313445206260445,"true"
"image-keyboard-response",264,240171,"0.0-3.84-1.84","rd6y5pgyslt8uvc",394,"9.csv","","null","resources/maskTrios/BT2B.jpg","null","",NA,NA,NA,NA,""
"image-keyboard-response",265,241384,"0.0-3.84-2.84","rd6y5pgyslt8uvc",394,"9.csv","","null","resources/images/coin2.png","null","",NA,NA,NA,NA,""
"image-keyboard-response",266,241609,"0.0-3.85-0.85","rd6y5pgyslt8uvc",394,"9.csv","","223.80000001192093","resources/trios/L2T4A3.jpg","38","restless",0.5,0.7,0.6,0.645230427557502,"true"
"image-keyboard-response",267,242019,"0.0-3.85-1.85","rd6y5pgyslt8uvc",394,"9.csv","","null","resources/maskTrios/BT4B.jpg","null","",NA,NA,NA,NA,""
"image-keyboard-response",268,243226,"0.0-3.85-2.85","rd6y5pgyslt8uvc",394,"9.csv","","null","resources/images/coin2.png","null","",NA,NA,NA,NA,""
"image-keyboard-response",269,243420,"0.0-3.86-0.86","rd6y5pgyslt8uvc",394,"9.csv","","193.69999998807907","resources/trios/L2T4A3.jpg","38","restless",0.5,0.7,0.6,0.777825315438471,"false"
"image-keyboard-response",270,243832,"0.0-3.86-1.86","rd6y5pgyslt8uvc",394,"9.csv","","null","resources/maskTrios/BT4B.jpg","null","",NA,NA,NA,NA,""
"image-keyboard-response",271,245039,"0.0-3.86-2.86","rd6y5pgyslt8uvc",394,"9.csv","","null","resources/images/fishbone.png","null","",NA,NA,NA,NA,""
"image-keyboard-response",272,245121,"0.0-3.87-0.87","rd6y5pgyslt8uvc",394,"9.csv","","80.90000003576279","resources/trios/L2T4A1.jpg","37","restless",0.5,0.7,0.6,0.213271146348592,"true"
"image-keyboard-response",273,245533,"0.0-3.87-1.87","rd6y5pgyslt8uvc",394,"9.csv","","null","resources/maskTrios/L2BB.jpg","null","",NA,NA,NA,NA,""
"image-keyboard-response",274,246739,"0.0-3.87-2.87","rd6y5pgyslt8uvc",394,"9.csv","","null","resources/images/coin2.png","null","",NA,NA,NA,NA,""
"image-keyboard-response",275,247379,"0.0-3.88-0.88","rd6y5pgyslt8uvc",394,"9.csv","","638.6999999880791","resources/trios/L1T2A1.jpg","37","restless",0.5,0.7,0.6,0.0568978830393834,"true"
"image-keyboard-response",276,247790,"0.0-3.88-1.88","rd6y5pgyslt8uvc",394,"9.csv","","null","resources/maskTrios/L1BB.jpg","null","",NA,NA,NA,NA,""
"image-keyboard-response",277,248995,"0.0-3.88-2.88","rd6y5pgyslt8uvc",394,"9.csv","","null","resources/images/coin2.png","null","",NA,NA,NA,NA,""
"image-keyboard-response",278,249426,"0.0-3.89-0.89","rd6y5pgyslt8uvc",394,"9.csv","","429.5","resources/trios/L2T4A1.jpg","37","restless",0.5,0.7,0.6,0.469215700948809,"true"
"image-keyboard-response",279,249834,"0.0-3.89-1.89","rd6y5pgyslt8uvc",394,"9.csv","","null","resources/maskTrios/L2BB.jpg","null","",NA,NA,NA,NA,""
"image-keyboard-response",280,251039,"0.0-3.89-2.89","rd6y5pgyslt8uvc",394,"9.csv","","null","resources/images/coin2.png","null","",NA,NA,NA,NA,""
"image-keyboard-response",281,251324,"0.0-3.90-0.90","rd6y5pgyslt8uvc",394,"9.csv","","284.0999999642372","resources/trios/L2T4A1.jpg","37","restless",0.5,0.7,0.6,0.937463090753681,"false"
"image-keyboard-response",282,251736,"0.0-3.90-1.90","rd6y5pgyslt8uvc",394,"9.csv","","null","resources/maskTrios/L2BB.jpg","null","",NA,NA,NA,NA,""
"image-keyboard-response",283,252942,"0.0-3.90-2.90","rd6y5pgyslt8uvc",394,"9.csv","","null","resources/images/fishbone.png","null","",NA,NA,NA,NA,""
"image-keyboard-response",284,253152,"0.0-3.91-0.91","rd6y5pgyslt8uvc",394,"9.csv","","208.5","resources/trios/L2T2A3.jpg","38","restless",0.5,0.7,0.6,0.543220510695437,"true"
"image-keyboard-response",285,253560,"0.0-3.91-1.91","rd6y5pgyslt8uvc",394,"9.csv","","null","resources/maskTrios/BT2B.jpg","null","",NA,NA,NA,NA,""
"image-keyboard-response",286,254764,"0.0-3.91-2.91","rd6y5pgyslt8uvc",394,"9.csv","","null","resources/images/coin2.png","null","",NA,NA,NA,NA,""
"image-keyboard-response",287,255069,"0.0-3.92-0.92","rd6y5pgyslt8uvc",394,"9.csv","","303.5999999642372","resources/trios/L1T2A1.jpg","38","restless",0.5,0.7,0.6,0.924541992312019,"false"
"image-keyboard-response",288,255476,"0.0-3.92-1.92","rd6y5pgyslt8uvc",394,"9.csv","","null","resources/maskTrios/BT2B.jpg","null","",NA,NA,NA,NA,""
"image-keyboard-response",289,256678,"0.0-3.92-2.92","rd6y5pgyslt8uvc",394,"9.csv","","null","resources/images/fishbone.png","null","",NA,NA,NA,NA,""
"image-keyboard-response",290,256825,"0.0-3.93-0.93","rd6y5pgyslt8uvc",394,"9.csv","","145.4000000357628","resources/trios/L2T2A3.jpg","37","restless",0.4,0.7,0.6,0.650359723317543,"false"
"image-keyboard-response",291,257236,"0.0-3.93-1.93","rd6y5pgyslt8uvc",394,"9.csv","","null","resources/maskTrios/L2BB.jpg","null","",NA,NA,NA,NA,""
"image-keyboard-response",292,258442,"0.0-3.93-2.93","rd6y5pgyslt8uvc",394,"9.csv","","null","resources/images/fishbone.png","null","",NA,NA,NA,NA,""
"image-keyboard-response",293,258836,"0.0-3.94-0.94","rd6y5pgyslt8uvc",394,"9.csv","","392.69999998807907","resources/trios/L1T4A3.jpg","38","restless",0.4,0.7,0.6,0.139715768764356,"true"
"image-keyboard-response",294,259245,"0.0-3.94-1.94","rd6y5pgyslt8uvc",394,"9.csv","","null","resources/maskTrios/BT4B.jpg","null","",NA,NA,NA,NA,""
"image-keyboard-response",295,260462,"0.0-3.94-2.94","rd6y5pgyslt8uvc",394,"9.csv","","null","resources/images/coin2.png","null","",NA,NA,NA,NA,""
"image-keyboard-response",296,260799,"0.0-3.95-0.95","rd6y5pgyslt8uvc",394,"9.csv","","336.5","resources/trios/L2T2A1.jpg","38","restless",0.4,0.6,0.6,0.0654473913611469,"true"
"image-keyboard-response",297,261204,"0.0-3.95-1.95","rd6y5pgyslt8uvc",394,"9.csv","","null","resources/maskTrios/BT2B.jpg","null","",NA,NA,NA,NA,""
"image-keyboard-response",298,262411,"0.0-3.95-2.95","rd6y5pgyslt8uvc",394,"9.csv","","null","resources/images/coin2.png","null","",NA,NA,NA,NA,""
"image-keyboard-response",299,263057,"0.0-3.96-0.96","rd6y5pgyslt8uvc",394,"9.csv","","645.3000000119209","resources/trios/L1T4A3.jpg","38","restless",0.4,0.6,0.6,0.881005839143923,"false"
"image-keyboard-response",300,263460,"0.0-3.96-1.96","rd6y5pgyslt8uvc",394,"9.csv","","null","resources/maskTrios/BT4B.jpg","null","",NA,NA,NA,NA,""
"image-keyboard-response",301,264666,"0.0-3.96-2.96","rd6y5pgyslt8uvc",394,"9.csv","","null","resources/images/fishbone.png","null","",NA,NA,NA,NA,""
"image-keyboard-response",302,265154,"0.0-3.97-0.97","rd6y5pgyslt8uvc",394,"9.csv","","486.80000001192093","resources/trios/L2T2A1.jpg","37","restless",0.4,0.6,0.6,0.876491750140948,"false"
"image-keyboard-response",303,265564,"0.0-3.97-1.97","rd6y5pgyslt8uvc",394,"9.csv","","null","resources/maskTrios/L2BB.jpg","null","",NA,NA,NA,NA,""
"image-keyboard-response",304,266769,"0.0-3.97-2.97","rd6y5pgyslt8uvc",394,"9.csv","","null","resources/images/fishbone.png","null","",NA,NA,NA,NA,""
"image-keyboard-response",305,266939,"0.0-3.98-0.98","rd6y5pgyslt8uvc",394,"9.csv","","168.5","resources/trios/L2T2A3.jpg","38","restless",0.4,0.6,0.6,0.864167888885463,"false"
"image-keyboard-response",306,267341,"0.0-3.98-1.98","rd6y5pgyslt8uvc",394,"9.csv","","null","resources/maskTrios/BT2B.jpg","null","",NA,NA,NA,NA,""
"image-keyboard-response",307,268546,"0.0-3.98-2.98","rd6y5pgyslt8uvc",394,"9.csv","","null","resources/images/fishbone.png","null","",NA,NA,NA,NA,""
"image-keyboard-response",308,268699,"0.0-3.99-0.99","rd6y5pgyslt8uvc",394,"9.csv","","151.39999997615814","resources/trios/L2T4A1.jpg","38","restless",0.4,0.6,0.6,0.360603626836201,"true"
"image-keyboard-response",309,269103,"0.0-3.99-1.99","rd6y5pgyslt8uvc",394,"9.csv","","null","resources/maskTrios/BT4B.jpg","null","",NA,NA,NA,NA,""
"image-keyboard-response",310,270312,"0.0-3.99-2.99","rd6y5pgyslt8uvc",394,"9.csv","","null","resources/images/coin2.png","null","",NA,NA,NA,NA,""
"image-keyboard-response",311,270681,"0.0-3.100-0.100","rd6y5pgyslt8uvc",394,"9.csv","","368.0999999642372","resources/trios/L1T4A1.jpg","38","restless",0.4,0.5,0.6,0.285720990736256,"true"
"image-keyboard-response",312,271085,"0.0-3.100-1.100","rd6y5pgyslt8uvc",394,"9.csv","","null","resources/maskTrios/BT4B.jpg","null","",NA,NA,NA,NA,""
"image-keyboard-response",313,272290,"0.0-3.100-2.100","rd6y5pgyslt8uvc",394,"9.csv","","null","resources/images/coin2.png","null","",NA,NA,NA,NA,""
"image-keyboard-response",314,272584,"0.0-3.101-0.101","rd6y5pgyslt8uvc",394,"9.csv","","292.39999997615814","resources/trios/L2T4A3.jpg","38","restless",0.4,0.5,0.6,0.435758937847252,"true"
"image-keyboard-response",315,272986,"0.0-3.101-1.101","rd6y5pgyslt8uvc",394,"9.csv","","null","resources/maskTrios/BT4B.jpg","null","",NA,NA,NA,NA,""
"image-keyboard-response",316,274198,"0.0-3.101-2.101","rd6y5pgyslt8uvc",394,"9.csv","","null","resources/images/coin2.png","null","",NA,NA,NA,NA,""
"image-keyboard-response",317,274468,"0.0-3.102-0.102","rd6y5pgyslt8uvc",394,"9.csv","","268.80000001192093","resources/trios/L1T2A3.jpg","38","restless",0.4,0.5,0.6,0.98158890417702,"false"
"image-keyboard-response",318,274881,"0.0-3.102-1.102","rd6y5pgyslt8uvc",394,"9.csv","","null","resources/maskTrios/BT2B.jpg","null","",NA,NA,NA,NA,""
"image-keyboard-response",319,276088,"0.0-3.102-2.102","rd6y5pgyslt8uvc",394,"9.csv","","null","resources/images/fishbone.png","null","",NA,NA,NA,NA,""
"image-keyboard-response",320,276978,"0.0-3.103-0.103","rd6y5pgyslt8uvc",394,"9.csv","","889.3000000119209","resources/trios/L1T4A3.jpg","38","restless",0.4,0.5,0.6,0.583480261769155,"false"
"image-keyboard-response",321,277390,"0.0-3.103-1.103","rd6y5pgyslt8uvc",394,"9.csv","","null","resources/maskTrios/BT4B.jpg","null","",NA,NA,NA,NA,""
"image-keyboard-response",322,278597,"0.0-3.103-2.103","rd6y5pgyslt8uvc",394,"9.csv","","null","resources/images/fishbone.png","null","",NA,NA,NA,NA,""
"image-keyboard-response",323,278928,"0.0-3.104-0.104","rd6y5pgyslt8uvc",394,"9.csv","","329.60000002384186","resources/trios/L2T4A3.jpg","37","restless",0.4,0.5,0.6,0.30727685124607,"true"
"image-keyboard-response",324,279338,"0.0-3.104-1.104","rd6y5pgyslt8uvc",394,"9.csv","","null","resources/maskTrios/L2BB.jpg","null","",NA,NA,NA,NA,""
"image-keyboard-response",325,280541,"0.0-3.104-2.104","rd6y5pgyslt8uvc",394,"9.csv","","null","resources/images/coin2.png","null","",NA,NA,NA,NA,""
"image-keyboard-response",326,280890,"0.0-3.105-0.105","rd6y5pgyslt8uvc",394,"9.csv","","348.2999999523163","resources/trios/L2T4A3.jpg","37","restless",0.5,0.5,0.6,0.364026043724931,"true"
"image-keyboard-response",327,281299,"0.0-3.105-1.105","rd6y5pgyslt8uvc",394,"9.csv","","null","resources/maskTrios/L2BB.jpg","null","",NA,NA,NA,NA,""
"image-keyboard-response",328,282505,"0.0-3.105-2.105","rd6y5pgyslt8uvc",394,"9.csv","","null","resources/images/coin2.png","null","",NA,NA,NA,NA,""
"image-keyboard-response",329,282956,"0.0-3.106-0.106","rd6y5pgyslt8uvc",394,"9.csv","","449.60000002384186","resources/trios/L2T4A3.jpg","37","restless",0.5,0.5,0.6,0.127492510085363,"true"
"image-keyboard-response",330,283371,"0.0-3.106-1.106","rd6y5pgyslt8uvc",394,"9.csv","","null","resources/maskTrios/L2BB.jpg","null","",NA,NA,NA,NA,""
"image-keyboard-response",331,284580,"0.0-3.106-2.106","rd6y5pgyslt8uvc",394,"9.csv","","null","resources/images/coin2.png","null","",NA,NA,NA,NA,""
"image-keyboard-response",332,285092,"0.0-3.107-0.107","rd6y5pgyslt8uvc",394,"9.csv","","511.30000001192093","resources/trios/L1T2A3.jpg","38","restless",0.5,0.5,0.6,0.823483700107517,"false"
"image-keyboard-response",333,285507,"0.0-3.107-1.107","rd6y5pgyslt8uvc",394,"9.csv","","null","resources/maskTrios/BT2B.jpg","null","",NA,NA,NA,NA,""
"image-keyboard-response",334,286715,"0.0-3.107-2.107","rd6y5pgyslt8uvc",394,"9.csv","","null","resources/images/fishbone.png","null","",NA,NA,NA,NA,""
"image-keyboard-response",335,286983,"0.0-3.108-0.108","rd6y5pgyslt8uvc",394,"9.csv","","266.80000001192093","resources/trios/L2T4A1.jpg","37","restless",0.5,0.5,0.6,0.0470546707436641,"true"
"image-keyboard-response",336,287395,"0.0-3.108-1.108","rd6y5pgyslt8uvc",394,"9.csv","","null","resources/maskTrios/L2BB.jpg","null","",NA,NA,NA,NA,""
"image-keyboard-response",337,288599,"0.0-3.108-2.108","rd6y5pgyslt8uvc",394,"9.csv","","null","resources/images/coin2.png","null","",NA,NA,NA,NA,""
"image-keyboard-response",338,288850,"0.0-3.109-0.109","rd6y5pgyslt8uvc",394,"9.csv","","249.29999995231628","resources/trios/L1T4A1.jpg","37","restless",0.5,0.5,0.6,0.370532648950673,"true"
"image-keyboard-response",339,289267,"0.0-3.109-1.109","rd6y5pgyslt8uvc",394,"9.csv","","null","resources/maskTrios/L1BB.jpg","null","",NA,NA,NA,NA,""
"image-keyboard-response",340,290473,"0.0-3.109-2.109","rd6y5pgyslt8uvc",394,"9.csv","","null","resources/images/coin2.png","null","",NA,NA,NA,NA,""
"image-keyboard-response",341,291224,"0.0-3.110-0.110","rd6y5pgyslt8uvc",394,"9.csv","","749.8000000119209","resources/trios/L2T4A3.jpg","37","restless",0.5,0.5,0.6,0.586286079930292,"false"
"image-keyboard-response",342,291639,"0.0-3.110-1.110","rd6y5pgyslt8uvc",394,"9.csv","","null","resources/maskTrios/L2BB.jpg","null","",NA,NA,NA,NA,""
"image-keyboard-response",343,292852,"0.0-3.110-2.110","rd6y5pgyslt8uvc",394,"9.csv","","null","resources/images/fishbone.png","null","",NA,NA,NA,NA,""
"image-keyboard-response",344,292865,"0.0-3.111-0.111","rd6y5pgyslt8uvc",394,"9.csv","","11.300000011920929","resources/trios/L2T2A3.jpg","38","restless",0.5,0.5,0.6,0.161429909711039,"true"
"image-keyboard-response",345,293271,"0.0-3.111-1.111","rd6y5pgyslt8uvc",394,"9.csv","","null","resources/maskTrios/BT2B.jpg","null","",NA,NA,NA,NA,""
"image-keyboard-response",346,294482,"0.0-3.111-2.111","rd6y5pgyslt8uvc",394,"9.csv","","null","resources/images/coin2.png","null","",NA,NA,NA,NA,""
"image-keyboard-response",347,294878,"0.0-3.112-0.112","rd6y5pgyslt8uvc",394,"9.csv","","394.9000000357628","resources/trios/L1T4A3.jpg","38","restless",0.4,0.5,0.6,0.179554016030177,"true"
"image-keyboard-response",348,295285,"0.0-3.112-1.112","rd6y5pgyslt8uvc",394,"9.csv","","null","resources/maskTrios/BT4B.jpg","null","",NA,NA,NA,NA,""
"image-keyboard-response",349,296495,"0.0-3.112-2.112","rd6y5pgyslt8uvc",394,"9.csv","","null","resources/images/coin2.png","null","",NA,NA,NA,NA,""
"image-keyboard-response",350,296747,"0.0-3.113-0.113","rd6y5pgyslt8uvc",394,"9.csv","","250.89999997615814","resources/trios/L2T2A1.jpg","38","restless",0.4,0.5,0.6,0.191923707476998,"true"
"image-keyboard-response",351,297161,"0.0-3.113-1.113","rd6y5pgyslt8uvc",394,"9.csv","","null","resources/maskTrios/BT2B.jpg","null","",NA,NA,NA,NA,""
"image-keyboard-response",352,298367,"0.0-3.113-2.113","rd6y5pgyslt8uvc",394,"9.csv","","null","resources/images/coin2.png","null","",NA,NA,NA,NA,""
"image-keyboard-response",353,298545,"0.0-3.114-0.114","rd6y5pgyslt8uvc",394,"9.csv","","176.39999997615814","resources/trios/L1T4A3.jpg","38","restless",0.3,0.5,0.6,0.912564822640761,"false"
"image-keyboard-response",354,298954,"0.0-3.114-1.114","rd6y5pgyslt8uvc",394,"9.csv","","null","resources/maskTrios/BT4B.jpg","null","",NA,NA,NA,NA,""
"image-keyboard-response",355,300157,"0.0-3.114-2.114","rd6y5pgyslt8uvc",394,"9.csv","","null","resources/images/fishbone.png","null","",NA,NA,NA,NA,""
"image-keyboard-response",356,300385,"0.0-3.115-0.115","rd6y5pgyslt8uvc",394,"9.csv","","227.60000002384186","resources/trios/L2T2A1.jpg","37","restless",0.3,0.5,0.7,0.600585558854569,"false"
"image-keyboard-response",357,300795,"0.0-3.115-1.115","rd6y5pgyslt8uvc",394,"9.csv","","null","resources/maskTrios/L2BB.jpg","null","",NA,NA,NA,NA,""
"image-keyboard-response",358,302003,"0.0-3.115-2.115","rd6y5pgyslt8uvc",394,"9.csv","","null","resources/images/fishbone.png","null","",NA,NA,NA,NA,""
"image-keyboard-response",359,302256,"0.0-3.116-0.116","rd6y5pgyslt8uvc",394,"9.csv","","252.69999998807907","resources/trios/L2T2A1.jpg","38","restless",0.3,0.5,0.7,0.954698092957115,"false"
"image-keyboard-response",360,302667,"0.0-3.116-1.116","rd6y5pgyslt8uvc",394,"9.csv","","null","resources/maskTrios/BT2B.jpg","null","",NA,NA,NA,NA,""
"image-keyboard-response",361,303880,"0.0-3.116-2.116","rd6y5pgyslt8uvc",394,"9.csv","","null","resources/images/fishbone.png","null","",NA,NA,NA,NA,""
"image-keyboard-response",362,304648,"0.0-3.117-0.117","rd6y5pgyslt8uvc",394,"9.csv","","767.5","resources/trios/L2T4A3.jpg","37","restless",0.3,0.5,0.7,0.942037079066207,"false"
"image-keyboard-response",363,305062,"0.0-3.117-1.117","rd6y5pgyslt8uvc",394,"9.csv","","null","resources/maskTrios/L2BB.jpg","null","",NA,NA,NA,NA,""
"image-keyboard-response",364,306269,"0.0-3.117-2.117","rd6y5pgyslt8uvc",394,"9.csv","","null","resources/images/fishbone.png","null","",NA,NA,NA,NA,""
"image-keyboard-response",365,306558,"0.0-3.118-0.118","rd6y5pgyslt8uvc",394,"9.csv","","287.10000002384186","resources/trios/L1T4A1.jpg","37","restless",0.4,0.5,0.7,0.272338492594383,"true"
"image-keyboard-response",366,306968,"0.0-3.118-1.118","rd6y5pgyslt8uvc",394,"9.csv","","null","resources/maskTrios/L1BB.jpg","null","",NA,NA,NA,NA,""
"image-keyboard-response",367,308176,"0.0-3.118-2.118","rd6y5pgyslt8uvc",394,"9.csv","","null","resources/images/coin2.png","null","",NA,NA,NA,NA,""
"image-keyboard-response",368,308989,"0.0-3.119-0.119","rd6y5pgyslt8uvc",394,"9.csv","","811.2000000476837","resources/trios/L2T4A3.jpg","38","restless",0.4,0.5,0.8,0.504759557046766,"false"
"image-keyboard-response",369,309397,"0.0-3.119-1.119","rd6y5pgyslt8uvc",394,"9.csv","","null","resources/maskTrios/BT4B.jpg","null","",NA,NA,NA,NA,""
"image-keyboard-response",370,310604,"0.0-3.119-2.119","rd6y5pgyslt8uvc",394,"9.csv","","null","resources/images/fishbone.png","null","",NA,NA,NA,NA,""
"image-keyboard-response",371,311001,"0.0-3.120-0.120","rd6y5pgyslt8uvc",394,"9.csv","","396.5","resources/trios/L2T2A3.jpg","37","restless",0.4,0.5,0.8,0.601614774717945,"false"
"image-keyboard-response",372,311407,"0.0-3.120-1.120","rd6y5pgyslt8uvc",394,"9.csv","","null","resources/maskTrios/L2BB.jpg","null","",NA,NA,NA,NA,""
"image-keyboard-response",373,312612,"0.0-3.120-2.120","rd6y5pgyslt8uvc",394,"9.csv","","null","resources/images/fishbone.png","null","",NA,NA,NA,NA,""
"image-keyboard-response",374,312843,"0.0-3.121-0.121","rd6y5pgyslt8uvc",394,"9.csv","","229.9000000357628","resources/trios/L2T4A1.jpg","38","restless",0.4,0.5,0.8,0.139867577475999,"true"
"image-keyboard-response",375,313259,"0.0-3.121-1.121","rd6y5pgyslt8uvc",394,"9.csv","","null","resources/maskTrios/BT4B.jpg","null","",NA,NA,NA,NA,""
"image-keyboard-response",376,314466,"0.0-3.121-2.121","rd6y5pgyslt8uvc",394,"9.csv","","null","resources/images/coin2.png","null","",NA,NA,NA,NA,""
"image-keyboard-response",377,314682,"0.0-3.122-0.122","rd6y5pgyslt8uvc",394,"9.csv","","214.4000000357628","resources/trios/L1T2A1.jpg","38","restless",0.5,0.5,0.8,0.0425944379759613,"true"
"image-keyboard-response",378,315097,"0.0-3.122-1.122","rd6y5pgyslt8uvc",394,"9.csv","","null","resources/maskTrios/BT2B.jpg","null","",NA,NA,NA,NA,""
"image-keyboard-response",379,316302,"0.0-3.122-2.122","rd6y5pgyslt8uvc",394,"9.csv","","null","resources/images/coin2.png","null","",NA,NA,NA,NA,""
"image-keyboard-response",380,316579,"0.0-3.123-0.123","rd6y5pgyslt8uvc",394,"9.csv","","276.39999997615814","resources/trios/L2T4A3.jpg","38","restless",0.5,0.5,0.8,0.6533374172374,"false"
"image-keyboard-response",381,316986,"0.0-3.123-1.123","rd6y5pgyslt8uvc",394,"9.csv","","null","resources/maskTrios/BT4B.jpg","null","",NA,NA,NA,NA,""
"image-keyboard-response",382,318193,"0.0-3.123-2.123","rd6y5pgyslt8uvc",394,"9.csv","","null","resources/images/fishbone.png","null","",NA,NA,NA,NA,""
"image-keyboard-response",383,318446,"0.0-3.124-0.124","rd6y5pgyslt8uvc",394,"9.csv","","252.19999998807907","resources/trios/L2T2A3.jpg","37","restless",0.6,0.5,0.8,0.188123942784802,"true"
"image-keyboard-response",384,318860,"0.0-3.124-1.124","rd6y5pgyslt8uvc",394,"9.csv","","null","resources/maskTrios/L2BB.jpg","null","",NA,NA,NA,NA,""
"image-keyboard-response",385,320064,"0.0-3.124-2.124","rd6y5pgyslt8uvc",394,"9.csv","","null","resources/images/coin2.png","null","",NA,NA,NA,NA,""
"image-keyboard-response",386,320547,"0.0-3.125-0.125","rd6y5pgyslt8uvc",394,"9.csv","","481.4000000357628","resources/trios/L2T2A1.jpg","37","restless",0.6,0.5,0.8,0.805940182158953,"false"
"image-keyboard-response",387,320954,"0.0-3.125-1.125","rd6y5pgyslt8uvc",394,"9.csv","","null","resources/maskTrios/L2BB.jpg","null","",NA,NA,NA,NA,""
"image-keyboard-response",388,322164,"0.0-3.125-2.125","rd6y5pgyslt8uvc",394,"9.csv","","null","resources/images/fishbone.png","null","",NA,NA,NA,NA,""
"image-keyboard-response",389,322712,"0.0-3.126-0.126","rd6y5pgyslt8uvc",394,"9.csv","","546.6999999880791","resources/trios/L2T4A3.jpg","37","restless",0.6,0.5,0.8,0.754940719308494,"false"
"image-keyboard-response",390,323128,"0.0-3.126-1.126","rd6y5pgyslt8uvc",394,"9.csv","","null","resources/maskTrios/L2BB.jpg","null","",NA,NA,NA,NA,""
"image-keyboard-response",391,324333,"0.0-3.126-2.126","rd6y5pgyslt8uvc",394,"9.csv","","null","resources/images/fishbone.png","null","",NA,NA,NA,NA,""
"image-keyboard-response",392,324603,"0.0-3.127-0.127","rd6y5pgyslt8uvc",394,"9.csv","","268.4000000357628","resources/trios/L2T4A1.jpg","38","restless",0.6,0.5,0.8,0.117747807912515,"true"
"image-keyboard-response",393,325015,"0.0-3.127-1.127","rd6y5pgyslt8uvc",394,"9.csv","","null","resources/maskTrios/BT4B.jpg","null","",NA,NA,NA,NA,""
"image-keyboard-response",394,326219,"0.0-3.127-2.127","rd6y5pgyslt8uvc",394,"9.csv","","null","resources/images/coin2.png","null","",NA,NA,NA,NA,""
"image-keyboard-response",395,326467,"0.0-3.128-0.128","rd6y5pgyslt8uvc",394,"9.csv","","246.69999998807907","resources/trios/L2T2A1.jpg","38","restless",0.6,0.4,0.8,0.343562949449796,"true"
"image-keyboard-response",396,326872,"0.0-3.128-1.128","rd6y5pgyslt8uvc",394,"9.csv","","null","resources/maskTrios/BT2B.jpg","null","",NA,NA,NA,NA,""
"image-keyboard-response",397,328083,"0.0-3.128-2.128","rd6y5pgyslt8uvc",394,"9.csv","","null","resources/images/coin2.png","null","",NA,NA,NA,NA,""
"image-keyboard-response",398,328356,"0.0-3.129-0.129","rd6y5pgyslt8uvc",394,"9.csv","","271.89999997615814","resources/trios/L1T4A1.jpg","38","restless",0.6,0.4,0.8,0.48125878927584,"false"
"image-keyboard-response",399,328765,"0.0-3.129-1.129","rd6y5pgyslt8uvc",394,"9.csv","","null","resources/maskTrios/BT4B.jpg","null","",NA,NA,NA,NA,""
"image-keyboard-response",400,329973,"0.0-3.129-2.129","rd6y5pgyslt8uvc",394,"9.csv","","null","resources/images/fishbone.png","null","",NA,NA,NA,NA,""
"image-keyboard-response",401,330410,"0.0-3.130-0.130","rd6y5pgyslt8uvc",394,"9.csv","","435.69999998807907","resources/trios/L2T2A3.jpg","37","restless",0.6,0.4,0.8,0.591042566904059,"true"
"image-keyboard-response",402,330825,"0.0-3.130-1.130","rd6y5pgyslt8uvc",394,"9.csv","","null","resources/maskTrios/L2BB.jpg","null","",NA,NA,NA,NA,""
"image-keyboard-response",403,332036,"0.0-3.130-2.130","rd6y5pgyslt8uvc",394,"9.csv","","null","resources/images/coin2.png","null","",NA,NA,NA,NA,""
"image-keyboard-response",404,332843,"0.0-3.131-0.131","rd6y5pgyslt8uvc",394,"9.csv","","806","resources/trios/L2T2A1.jpg","38","restless",0.6,0.4,0.8,0.355281648300499,"true"
"image-keyboard-response",405,333255,"0.0-3.131-1.131","rd6y5pgyslt8uvc",394,"9.csv","","null","resources/maskTrios/BT2B.jpg","null","",NA,NA,NA,NA,""
"image-keyboard-response",406,334467,"0.0-3.131-2.131","rd6y5pgyslt8uvc",394,"9.csv","","null","resources/images/coin2.png","null","",NA,NA,NA,NA,""
"image-keyboard-response",407,335047,"0.0-3.132-0.132","rd6y5pgyslt8uvc",394,"9.csv","","579","resources/trios/L2T2A1.jpg","38","restless",0.6,0.4,0.8,0.873215584628592,"false"
"image-keyboard-response",408,335451,"0.0-3.132-1.132","rd6y5pgyslt8uvc",394,"9.csv","","null","resources/maskTrios/BT2B.jpg","null","",NA,NA,NA,NA,""
"image-keyboard-response",409,336662,"0.0-3.132-2.132","rd6y5pgyslt8uvc",394,"9.csv","","null","resources/images/fishbone.png","null","",NA,NA,NA,NA,""
"image-keyboard-response",410,336948,"0.0-3.133-0.133","rd6y5pgyslt8uvc",394,"9.csv","","284.30000001192093","resources/trios/L1T2A3.jpg","37","restless",0.6,0.4,0.8,0.470465026516965,"true"
"image-keyboard-response",411,337352,"0.0-3.133-1.133","rd6y5pgyslt8uvc",394,"9.csv","","null","resources/maskTrios/L1BB.jpg","null","",NA,NA,NA,NA,""
"image-keyboard-response",412,338557,"0.0-3.133-2.133","rd6y5pgyslt8uvc",394,"9.csv","","null","resources/images/coin2.png","null","",NA,NA,NA,NA,""
"image-keyboard-response",413,339551,"0.0-3.134-0.134","rd6y5pgyslt8uvc",394,"9.csv","","993.1000000238419","resources/trios/L1T2A3.jpg","37","restless",0.6,0.3,0.8,0.891159002837367,"false"
"image-keyboard-response",414,339965,"0.0-3.134-1.134","rd6y5pgyslt8uvc",394,"9.csv","","null","resources/maskTrios/L1BB.jpg","null","",NA,NA,NA,NA,""
"image-keyboard-response",415,341180,"0.0-3.134-2.134","rd6y5pgyslt8uvc",394,"9.csv","","null","resources/images/fishbone.png","null","",NA,NA,NA,NA,""
"image-keyboard-response",416,341465,"0.0-3.135-0.135","rd6y5pgyslt8uvc",394,"9.csv","","283.80000001192093","resources/trios/L2T4A1.jpg","38","restless",0.6,0.3,0.8,0.883784887238384,"false"
"image-keyboard-response",417,341882,"0.0-3.135-1.135","rd6y5pgyslt8uvc",394,"9.csv","","null","resources/maskTrios/BT4B.jpg","null","",NA,NA,NA,NA,""
"image-keyboard-response",418,343086,"0.0-3.135-2.135","rd6y5pgyslt8uvc",394,"9.csv","","null","resources/images/fishbone.png","null","",NA,NA,NA,NA,""
"image-keyboard-response",419,344839,"0.0-3.136-0.136","rd6y5pgyslt8uvc",394,"9.csv","","1752.199999988079","resources/trios/L2T4A3.jpg","38","restless",0.6,0.4,0.8,0.998832560704496,"false"
"image-keyboard-response",420,345241,"0.0-3.136-1.136","rd6y5pgyslt8uvc",394,"9.csv","","null","resources/maskTrios/BT4B.jpg","null","",NA,NA,NA,NA,""
"image-keyboard-response",421,346458,"0.0-3.136-2.136","rd6y5pgyslt8uvc",394,"9.csv","","null","resources/images/fishbone.png","null","",NA,NA,NA,NA,""
"image-keyboard-response",422,347597,"0.0-3.137-0.137","rd6y5pgyslt8uvc",394,"9.csv","","1137.5","resources/trios/L1T2A3.jpg","37","restless",0.6,0.4,0.9,0.899615175228021,"false"
"image-keyboard-response",423,348009,"0.0-3.137-1.137","rd6y5pgyslt8uvc",394,"9.csv","","null","resources/maskTrios/L1BB.jpg","null","",NA,NA,NA,NA,""
"image-keyboard-response",424,349217,"0.0-3.137-2.137","rd6y5pgyslt8uvc",394,"9.csv","","null","resources/images/fishbone.png","null","",NA,NA,NA,NA,""
"image-keyboard-response",425,349969,"0.0-3.138-0.138","rd6y5pgyslt8uvc",394,"9.csv","","750.6999999880791","resources/trios/L1T4A3.jpg","38","restless",0.6,0.4,0.9,0.616307398820691,"false"
"image-keyboard-response",426,350372,"0.0-3.138-1.138","rd6y5pgyslt8uvc",394,"9.csv","","null","resources/maskTrios/BT4B.jpg","null","",NA,NA,NA,NA,""
"image-keyboard-response",427,351578,"0.0-3.138-2.138","rd6y5pgyslt8uvc",394,"9.csv","","null","resources/images/fishbone.png","null","",NA,NA,NA,NA,""
"image-keyboard-response",428,351811,"0.0-3.139-0.139","rd6y5pgyslt8uvc",394,"9.csv","","232","resources/trios/L2T4A1.jpg","38","restless",0.6,0.4,0.9,0.228415170674015,"true"
"image-keyboard-response",429,352216,"0.0-3.139-1.139","rd6y5pgyslt8uvc",394,"9.csv","","null","resources/maskTrios/BT4B.jpg","null","",NA,NA,NA,NA,""
"image-keyboard-response",430,353425,"0.0-3.139-2.139","rd6y5pgyslt8uvc",394,"9.csv","","null","resources/images/coin2.png","null","",NA,NA,NA,NA,""
"image-keyboard-response",431,353666,"0.0-3.140-0.140","rd6y5pgyslt8uvc",394,"9.csv","","239.80000001192093","resources/trios/L2T4A1.jpg","38","restless",0.6,0.4,0.9,0.28882879862924,"true"
"image-keyboard-response",432,354078,"0.0-3.140-1.140","rd6y5pgyslt8uvc",394,"9.csv","","null","resources/maskTrios/BT4B.jpg","null","",NA,NA,NA,NA,""
"image-keyboard-response",433,355292,"0.0-3.140-2.140","rd6y5pgyslt8uvc",394,"9.csv","","null","resources/images/coin2.png","null","",NA,NA,NA,NA,""
"image-keyboard-response",434,355523,"0.0-3.141-0.141","rd6y5pgyslt8uvc",394,"9.csv","","230.5","resources/trios/L2T2A3.jpg","38","restless",0.6,0.4,0.9,0.334509919065938,"true"
"image-keyboard-response",435,355929,"0.0-3.141-1.141","rd6y5pgyslt8uvc",394,"9.csv","","null","resources/maskTrios/BT2B.jpg","null","",NA,NA,NA,NA,""
"image-keyboard-response",436,357144,"0.0-3.141-2.141","rd6y5pgyslt8uvc",394,"9.csv","","null","resources/images/coin2.png","null","",NA,NA,NA,NA,""
"image-keyboard-response",437,357423,"0.0-3.142-0.142","rd6y5pgyslt8uvc",394,"9.csv","","277.80000001192093","resources/trios/L2T4A1.jpg","38","restless",0.7,0.4,0.9,0.152457429361387,"true"
"image-keyboard-response",438,357831,"0.0-3.142-1.142","rd6y5pgyslt8uvc",394,"9.csv","","null","resources/maskTrios/BT4B.jpg","null","",NA,NA,NA,NA,""
"image-keyboard-response",439,359043,"0.0-3.142-2.142","rd6y5pgyslt8uvc",394,"9.csv","","null","resources/images/coin2.png","null","",NA,NA,NA,NA,""
"image-keyboard-response",440,359442,"0.0-3.143-0.143","rd6y5pgyslt8uvc",394,"9.csv","","398.60000002384186","resources/trios/L2T4A1.jpg","38","restless",0.7,0.4,0.8,0.834550385131574,"false"
"image-keyboard-response",441,359853,"0.0-3.143-1.143","rd6y5pgyslt8uvc",394,"9.csv","","null","resources/maskTrios/BT4B.jpg","null","",NA,NA,NA,NA,""
"image-keyboard-response",442,361060,"0.0-3.143-2.143","rd6y5pgyslt8uvc",394,"9.csv","","null","resources/images/fishbone.png","null","",NA,NA,NA,NA,""
"image-keyboard-response",443,361368,"0.0-3.144-0.144","rd6y5pgyslt8uvc",394,"9.csv","","306.5","resources/trios/L1T4A1.jpg","37","restless",0.7,0.4,0.8,0.214042138381095,"true"
"image-keyboard-response",444,361775,"0.0-3.144-1.144","rd6y5pgyslt8uvc",394,"9.csv","","null","resources/maskTrios/L1BB.jpg","null","",NA,NA,NA,NA,""
"image-keyboard-response",445,362983,"0.0-3.144-2.144","rd6y5pgyslt8uvc",394,"9.csv","","null","resources/images/coin2.png","null","",NA,NA,NA,NA,""
"image-keyboard-response",446,363191,"0.0-3.145-0.145","rd6y5pgyslt8uvc",394,"9.csv","","207.19999998807907","resources/trios/L1T2A1.jpg","37","restless",0.7,0.4,0.8,0.388476788653215,"true"
"image-keyboard-response",447,363602,"0.0-3.145-1.145","rd6y5pgyslt8uvc",394,"9.csv","","null","resources/maskTrios/L1BB.jpg","null","",NA,NA,NA,NA,""
"image-keyboard-response",448,364809,"0.0-3.145-2.145","rd6y5pgyslt8uvc",394,"9.csv","","null","resources/images/coin2.png","null","",NA,NA,NA,NA,""
"image-keyboard-response",449,365009,"0.0-3.146-0.146","rd6y5pgyslt8uvc",394,"9.csv","","199.20000004768372","resources/trios/L2T2A3.jpg","37","restless",0.7,0.4,0.8,0.558566266054184,"true"
"image-keyboard-response",450,365414,"0.0-3.146-1.146","rd6y5pgyslt8uvc",394,"9.csv","","null","resources/maskTrios/L2BB.jpg","null","",NA,NA,NA,NA,""
"image-keyboard-response",451,366626,"0.0-3.146-2.146","rd6y5pgyslt8uvc",394,"9.csv","","null","resources/images/coin2.png","null","",NA,NA,NA,NA,""
"image-keyboard-response",452,366849,"0.0-3.147-0.147","rd6y5pgyslt8uvc",394,"9.csv","","221.39999997615814","resources/trios/L1T2A3.jpg","38","restless",0.7,0.4,0.8,0.0695405691958548,"true"
"image-keyboard-response",453,367258,"0.0-3.147-1.147","rd6y5pgyslt8uvc",394,"9.csv","","null","resources/maskTrios/BT2B.jpg","null","",NA,NA,NA,NA,""
"image-keyboard-response",454,368467,"0.0-3.147-2.147","rd6y5pgyslt8uvc",394,"9.csv","","null","resources/images/coin2.png","null","",NA,NA,NA,NA,""
"image-keyboard-response",455,368732,"0.0-3.148-0.148","rd6y5pgyslt8uvc",394,"9.csv","","263.30000001192093","resources/trios/L1T2A3.jpg","38","restless",0.7,0.4,0.9,0.0812094679262774,"true"
"image-keyboard-response",456,369134,"0.0-3.148-1.148","rd6y5pgyslt8uvc",394,"9.csv","","null","resources/maskTrios/BT2B.jpg","null","",NA,NA,NA,NA,""
"image-keyboard-response",457,370337,"0.0-3.148-2.148","rd6y5pgyslt8uvc",394,"9.csv","","null","resources/images/coin2.png","null","",NA,NA,NA,NA,""
"image-keyboard-response",458,370428,"0.0-3.149-0.149","rd6y5pgyslt8uvc",394,"9.csv","","90.5","resources/trios/L2T4A3.jpg","38","restless",0.7,0.4,0.9,0.490641203478774,"false"
"image-keyboard-response",459,370838,"0.0-3.149-1.149","rd6y5pgyslt8uvc",394,"9.csv","","null","resources/maskTrios/BT4B.jpg","null","",NA,NA,NA,NA,""
"image-keyboard-response",460,372047,"0.0-3.149-2.149","rd6y5pgyslt8uvc",394,"9.csv","","null","resources/images/fishbone.png","null","",NA,NA,NA,NA,""
"image-keyboard-response",461,372651,"0.0-3.150-0.150","rd6y5pgyslt8uvc",394,"9.csv","","603.1999999880791","resources/trios/L2T4A1.jpg","37","restless",0.7,0.4,0.8,0.290045236284586,"true"
"image-keyboard-response",462,373054,"0.0-3.150-1.150","rd6y5pgyslt8uvc",394,"9.csv","","null","resources/maskTrios/L2BB.jpg","null","",NA,NA,NA,NA,""
"image-keyboard-response",463,374261,"0.0-3.150-2.150","rd6y5pgyslt8uvc",394,"9.csv","","null","resources/images/coin2.png","null","",NA,NA,NA,NA,""
"image-keyboard-response",464,374505,"0.0-3.151-0.151","rd6y5pgyslt8uvc",394,"9.csv","","242.5","resources/trios/L1T2A1.jpg","37","restless",0.7,0.4,0.8,0.896147430305358,"false"
"image-keyboard-response",465,374911,"0.0-3.151-1.151","rd6y5pgyslt8uvc",394,"9.csv","","null","resources/maskTrios/L1BB.jpg","null","",NA,NA,NA,NA,""
"image-keyboard-response",466,376120,"0.0-3.151-2.151","rd6y5pgyslt8uvc",394,"9.csv","","null","resources/images/fishbone.png","null","",NA,NA,NA,NA,""
"image-keyboard-response",467,376302,"0.0-3.152-0.152","rd6y5pgyslt8uvc",394,"9.csv","","181.10000002384186","resources/trios/L2T4A1.jpg","38","restless",0.6,0.4,0.7,0.157916213219478,"true"
"image-keyboard-response",468,376709,"0.0-3.152-1.152","rd6y5pgyslt8uvc",394,"9.csv","","null","resources/maskTrios/BT4B.jpg","null","",NA,NA,NA,NA,""
"image-keyboard-response",469,377925,"0.0-3.152-2.152","rd6y5pgyslt8uvc",394,"9.csv","","null","resources/images/coin2.png","null","",NA,NA,NA,NA,""
"image-keyboard-response",470,378176,"0.0-3.153-0.153","rd6y5pgyslt8uvc",394,"9.csv","","249.30000001192093","resources/trios/L2T4A3.jpg","38","restless",0.6,0.4,0.7,0.37634009136077,"true"
"image-keyboard-response",471,378590,"0.0-3.153-1.153","rd6y5pgyslt8uvc",394,"9.csv","","null","resources/maskTrios/BT4B.jpg","null","",NA,NA,NA,NA,""
"image-keyboard-response",472,379798,"0.0-3.153-2.153","rd6y5pgyslt8uvc",394,"9.csv","","null","resources/images/coin2.png","null","",NA,NA,NA,NA,""
"image-keyboard-response",473,380289,"0.0-3.154-0.154","rd6y5pgyslt8uvc",394,"9.csv","","489.39999997615814","resources/trios/L2T4A1.jpg","38","restless",0.6,0.4,0.7,0.987053084241424,"false"
"image-keyboard-response",474,380693,"0.0-3.154-1.154","rd6y5pgyslt8uvc",394,"9.csv","","null","resources/maskTrios/BT4B.jpg","null","",NA,NA,NA,NA,""
"image-keyboard-response",475,381897,"0.0-3.154-2.154","rd6y5pgyslt8uvc",394,"9.csv","","null","resources/images/fishbone.png","null","",NA,NA,NA,NA,""
"image-keyboard-response",476,382347,"0.0-3.155-0.155","rd6y5pgyslt8uvc",394,"9.csv","","448.80000001192093","resources/trios/L1T2A1.jpg","37","restless",0.6,0.4,0.7,0.527459185495376,"true"
"image-keyboard-response",477,382751,"0.0-3.155-1.155","rd6y5pgyslt8uvc",394,"9.csv","","null","resources/maskTrios/L1BB.jpg","null","",NA,NA,NA,NA,""
"image-keyboard-response",478,383965,"0.0-3.155-2.155","rd6y5pgyslt8uvc",394,"9.csv","","null","resources/images/coin2.png","null","",NA,NA,NA,NA,""
"image-keyboard-response",479,384985,"0.0-3.156-0.156","rd6y5pgyslt8uvc",394,"9.csv","","1018.5999999642372","resources/trios/L1T4A1.jpg","37","restless",0.6,0.4,0.7,0.930230745154853,"false"
"image-keyboard-response",480,385394,"0.0-3.156-1.156","rd6y5pgyslt8uvc",394,"9.csv","","null","resources/maskTrios/L1BB.jpg","null","",NA,NA,NA,NA,""
"image-keyboard-response",481,386598,"0.0-3.156-2.156","rd6y5pgyslt8uvc",394,"9.csv","","null","resources/images/fishbone.png","null","",NA,NA,NA,NA,""
"image-keyboard-response",482,386769,"0.0-3.157-0.157","rd6y5pgyslt8uvc",394,"9.csv","","170.29999995231628","resources/trios/L2T2A1.jpg","38","restless",0.6,0.4,0.7,0.737466211071389,"false"
"image-keyboard-response",483,387175,"0.0-3.157-1.157","rd6y5pgyslt8uvc",394,"9.csv","","null","resources/maskTrios/BT2B.jpg","null","",NA,NA,NA,NA,""
"image-keyboard-response",484,388381,"0.0-3.157-2.157","rd6y5pgyslt8uvc",394,"9.csv","","null","resources/images/fishbone.png","null","",NA,NA,NA,NA,""
"image-keyboard-response",485,388711,"0.0-3.158-0.158","rd6y5pgyslt8uvc",394,"9.csv","","329.5","resources/trios/L2T4A3.jpg","38","restless",0.6,0.4,0.7,0.977444591564654,"false"
"image-keyboard-response",486,389125,"0.0-3.158-1.158","rd6y5pgyslt8uvc",394,"9.csv","","null","resources/maskTrios/BT4B.jpg","null","",NA,NA,NA,NA,""
"image-keyboard-response",487,390332,"0.0-3.158-2.158","rd6y5pgyslt8uvc",394,"9.csv","","null","resources/images/fishbone.png","null","",NA,NA,NA,NA,""
"image-keyboard-response",488,390333,"0.0-3.159-0.159","rd6y5pgyslt8uvc",394,"9.csv","","0.10000002384185791","resources/trios/L1T2A1.jpg","37","restless",0.6,0.4,0.7,0.211638080699168,"true"
"image-keyboard-response",489,390735,"0.0-3.159-1.159","rd6y5pgyslt8uvc",394,"9.csv","","null","resources/maskTrios/L1BB.jpg","null","",NA,NA,NA,NA,""
"image-keyboard-response",490,391946,"0.0-3.159-2.159","rd6y5pgyslt8uvc",394,"9.csv","","null","resources/images/coin2.png","null","",NA,NA,NA,NA,""
"image-keyboard-response",491,392014,"0.0-3.160-0.160","rd6y5pgyslt8uvc",394,"9.csv","","67.5","resources/trios/L2T4A1.jpg","37","restless",0.6,0.4,0.7,0.157320010434966,"true"
"image-keyboard-response",492,392427,"0.0-3.160-1.160","rd6y5pgyslt8uvc",394,"9.csv","","null","resources/maskTrios/L2BB.jpg","null","",NA,NA,NA,NA,""
"image-keyboard-response",493,393637,"0.0-3.160-2.160","rd6y5pgyslt8uvc",394,"9.csv","","null","resources/images/coin2.png","null","",NA,NA,NA,NA,""
"image-keyboard-response",494,393936,"0.0-3.161-0.161","rd6y5pgyslt8uvc",394,"9.csv","","297.60000002384186","resources/trios/L2T4A3.jpg","37","restless",0.6,0.4,0.7,0.0286520628447815,"true"
"image-keyboard-response",495,394348,"0.0-3.161-1.161","rd6y5pgyslt8uvc",394,"9.csv","","null","resources/maskTrios/L2BB.jpg","null","",NA,NA,NA,NA,""
"image-keyboard-response",496,395552,"0.0-3.161-2.161","rd6y5pgyslt8uvc",394,"9.csv","","null","resources/images/coin2.png","null","",NA,NA,NA,NA,""
"image-keyboard-response",497,395927,"0.0-3.162-0.162","rd6y5pgyslt8uvc",394,"9.csv","","374.80000001192093","resources/trios/L2T2A1.jpg","38","restless",0.6,0.4,0.7,0.342089648649465,"true"
"image-keyboard-response",498,396339,"0.0-3.162-1.162","rd6y5pgyslt8uvc",394,"9.csv","","null","resources/maskTrios/BT2B.jpg","null","",NA,NA,NA,NA,""
"image-keyboard-response",499,397553,"0.0-3.162-2.162","rd6y5pgyslt8uvc",394,"9.csv","","null","resources/images/coin2.png","null","",NA,NA,NA,NA,""
"image-keyboard-response",500,397867,"0.0-3.163-0.163","rd6y5pgyslt8uvc",394,"9.csv","","313.4000000357628","resources/trios/L1T4A1.jpg","38","restless",0.6,0.4,0.7,0.421831044175785,"false"
"image-keyboard-response",501,398282,"0.0-3.163-1.163","rd6y5pgyslt8uvc",394,"9.csv","","null","resources/maskTrios/BT4B.jpg","null","",NA,NA,NA,NA,""
"image-keyboard-response",502,399489,"0.0-3.163-2.163","rd6y5pgyslt8uvc",394,"9.csv","","null","resources/images/fishbone.png","null","",NA,NA,NA,NA,""
"image-keyboard-response",503,400039,"0.0-3.164-0.164","rd6y5pgyslt8uvc",394,"9.csv","","548.8999999761581","resources/trios/L1T2A3.jpg","37","restless",0.6,0.4,0.7,0.447879081910654,"true"
"image-keyboard-response",504,400453,"0.0-3.164-1.164","rd6y5pgyslt8uvc",394,"9.csv","","null","resources/maskTrios/L1BB.jpg","null","",NA,NA,NA,NA,""
"image-keyboard-response",505,401661,"0.0-3.164-2.164","rd6y5pgyslt8uvc",394,"9.csv","","null","resources/images/coin2.png","null","",NA,NA,NA,NA,""
"image-keyboard-response",506,401946,"0.0-3.165-0.165","rd6y5pgyslt8uvc",394,"9.csv","","284","resources/trios/L1T2A3.jpg","38","restless",0.6,0.4,0.7,0.225837746956564,"true"
"image-keyboard-response",507,402360,"0.0-3.165-1.165","rd6y5pgyslt8uvc",394,"9.csv","","null","resources/maskTrios/BT2B.jpg","null","",NA,NA,NA,NA,""
"image-keyboard-response",508,403574,"0.0-3.165-2.165","rd6y5pgyslt8uvc",394,"9.csv","","null","resources/images/coin2.png","null","",NA,NA,NA,NA,""
"image-keyboard-response",509,403936,"0.0-3.166-0.166","rd6y5pgyslt8uvc",394,"9.csv","","361","resources/trios/L1T2A3.jpg","37","restless",0.6,0.4,0.7,0.562735761034061,"true"
"image-keyboard-response",510,404352,"0.0-3.166-1.166","rd6y5pgyslt8uvc",394,"9.csv","","null","resources/maskTrios/L1BB.jpg","null","",NA,NA,NA,NA,""
"image-keyboard-response",511,405563,"0.0-3.166-2.166","rd6y5pgyslt8uvc",394,"9.csv","","null","resources/images/coin2.png","null","",NA,NA,NA,NA,""
"image-keyboard-response",512,405631,"0.0-3.167-0.167","rd6y5pgyslt8uvc",394,"9.csv","","67.09999996423721","resources/trios/L1T2A3.jpg","37","restless",0.6,0.4,0.7,0.534682397648715,"true"
"image-keyboard-response",513,406043,"0.0-3.167-1.167","rd6y5pgyslt8uvc",394,"9.csv","","null","resources/maskTrios/L1BB.jpg","null","",NA,NA,NA,NA,""
"image-keyboard-response",514,407257,"0.0-3.167-2.167","rd6y5pgyslt8uvc",394,"9.csv","","null","resources/images/coin2.png","null","",NA,NA,NA,NA,""
"image-keyboard-response",515,407472,"0.0-3.168-0.168","rd6y5pgyslt8uvc",394,"9.csv","","213.89999997615814","resources/trios/L2T2A3.jpg","37","restless",0.6,0.4,0.7,0.422279643665448,"true"
"image-keyboard-response",516,407877,"0.0-3.168-1.168","rd6y5pgyslt8uvc",394,"9.csv","","null","resources/maskTrios/L2BB.jpg","null","",NA,NA,NA,NA,""
"image-keyboard-response",517,409087,"0.0-3.168-2.168","rd6y5pgyslt8uvc",394,"9.csv","","null","resources/images/coin2.png","null","",NA,NA,NA,NA,""
"image-keyboard-response",518,409386,"0.0-3.169-0.169","rd6y5pgyslt8uvc",394,"9.csv","","298","resources/trios/L1T2A1.jpg","38","restless",0.6,0.4,0.7,0.912507265196208,"false"
"image-keyboard-response",519,409804,"0.0-3.169-1.169","rd6y5pgyslt8uvc",394,"9.csv","","null","resources/maskTrios/BT2B.jpg","null","",NA,NA,NA,NA,""
"image-keyboard-response",520,411019,"0.0-3.169-2.169","rd6y5pgyslt8uvc",394,"9.csv","","null","resources/images/fishbone.png","null","",NA,NA,NA,NA,""
"image-keyboard-response",521,411185,"0.0-3.170-0.170","rd6y5pgyslt8uvc",394,"9.csv","","164.80000001192093","resources/trios/L2T4A3.jpg","38","restless",0.6,0.4,0.6,0.0685268857576244,"true"
"image-keyboard-response",522,411594,"0.0-3.170-1.170","rd6y5pgyslt8uvc",394,"9.csv","","null","resources/maskTrios/BT4B.jpg","null","",NA,NA,NA,NA,""
"image-keyboard-response",523,412805,"0.0-3.170-2.170","rd6y5pgyslt8uvc",394,"9.csv","","null","resources/images/coin2.png","null","",NA,NA,NA,NA,""
"image-keyboard-response",524,412985,"0.0-3.171-0.171","rd6y5pgyslt8uvc",394,"9.csv","","179.10000002384186","resources/trios/L1T4A3.jpg","38","restless",0.5,0.4,0.6,0.81231445812769,"false"
"image-keyboard-response",525,413394,"0.0-3.171-1.171","rd6y5pgyslt8uvc",394,"9.csv","","null","resources/maskTrios/BT4B.jpg","null","",NA,NA,NA,NA,""
"image-keyboard-response",526,414601,"0.0-3.171-2.171","rd6y5pgyslt8uvc",394,"9.csv","","null","resources/images/fishbone.png","null","",NA,NA,NA,NA,""
"image-keyboard-response",527,414774,"0.0-3.172-0.172","rd6y5pgyslt8uvc",394,"9.csv","","171.80000001192093","resources/trios/L1T4A1.jpg","37","restless",0.5,0.4,0.6,0.77861326795415,"false"
"image-keyboard-response",528,415176,"0.0-3.172-1.172","rd6y5pgyslt8uvc",394,"9.csv","","null","resources/maskTrios/L1BB.jpg","null","",NA,NA,NA,NA,""
"image-keyboard-response",529,416385,"0.0-3.172-2.172","rd6y5pgyslt8uvc",394,"9.csv","","null","resources/images/fishbone.png","null","",NA,NA,NA,NA,""
"image-keyboard-response",530,416432,"0.0-3.173-0.173","rd6y5pgyslt8uvc",394,"9.csv","","45.60000002384186","resources/trios/L1T2A1.jpg","38","restless",0.5,0.3,0.6,0.133235908708918,"true"
"image-keyboard-response",531,416836,"0.0-3.173-1.173","rd6y5pgyslt8uvc",394,"9.csv","","null","resources/maskTrios/BT2B.jpg","null","",NA,NA,NA,NA,""
"image-keyboard-response",532,418046,"0.0-3.173-2.173","rd6y5pgyslt8uvc",394,"9.csv","","null","resources/images/coin2.png","null","",NA,NA,NA,NA,""
"image-keyboard-response",533,418341,"0.0-3.174-0.174","rd6y5pgyslt8uvc",394,"9.csv","","293.80000001192093","resources/trios/L2T4A3.jpg","38","restless",0.6,0.3,0.6,0.375925844505807,"false"
"image-keyboard-response",534,418746,"0.0-3.174-1.174","rd6y5pgyslt8uvc",394,"9.csv","","null","resources/maskTrios/BT4B.jpg","null","",NA,NA,NA,NA,""
"image-keyboard-response",535,419953,"0.0-3.174-2.174","rd6y5pgyslt8uvc",394,"9.csv","","null","resources/images/fishbone.png","null","",NA,NA,NA,NA,""
"image-keyboard-response",536,420361,"0.0-3.175-0.175","rd6y5pgyslt8uvc",394,"9.csv","","407.0999999642372","resources/trios/L1T4A1.jpg","37","restless",0.6,0.3,0.6,0.92286109625226,"false"
"image-keyboard-response",537,420763,"0.0-3.175-1.175","rd6y5pgyslt8uvc",394,"9.csv","","null","resources/maskTrios/L1BB.jpg","null","",NA,NA,NA,NA,""
"image-keyboard-response",538,421975,"0.0-3.175-2.175","rd6y5pgyslt8uvc",394,"9.csv","","null","resources/images/fishbone.png","null","",NA,NA,NA,NA,""
"image-keyboard-response",539,422220,"0.0-3.176-0.176","rd6y5pgyslt8uvc",394,"9.csv","","244.30000001192093","resources/trios/L2T4A1.jpg","37","restless",0.6,0.3,0.6,0.273657363481833,"true"
"image-keyboard-response",540,422627,"0.0-3.176-1.176","rd6y5pgyslt8uvc",394,"9.csv","","null","resources/maskTrios/L2BB.jpg","null","",NA,NA,NA,NA,""
"image-keyboard-response",541,423836,"0.0-3.176-2.176","rd6y5pgyslt8uvc",394,"9.csv","","null","resources/images/coin2.png","null","",NA,NA,NA,NA,""
"image-keyboard-response",542,424594,"0.0-3.177-0.177","rd6y5pgyslt8uvc",394,"9.csv","","757","resources/trios/L1T2A3.jpg","37","restless",0.6,0.3,0.6,0.860949227343776,"false"
"image-keyboard-response",543,425000,"0.0-3.177-1.177","rd6y5pgyslt8uvc",394,"9.csv","","null","resources/maskTrios/L1BB.jpg","null","",NA,NA,NA,NA,""
"image-keyboard-response",544,426206,"0.0-3.177-2.177","rd6y5pgyslt8uvc",394,"9.csv","","null","resources/images/fishbone.png","null","",NA,NA,NA,NA,""
"image-keyboard-response",545,426706,"0.0-3.178-0.178","rd6y5pgyslt8uvc",394,"9.csv","","498.10000002384186","resources/trios/L1T2A3.jpg","38","restless",0.5,0.3,0.6,0.613334332674367,"false"
"image-keyboard-response",546,427120,"0.0-3.178-1.178","rd6y5pgyslt8uvc",394,"9.csv","","null","resources/maskTrios/BT2B.jpg","null","",NA,NA,NA,NA,""
"image-keyboard-response",547,428327,"0.0-3.178-2.178","rd6y5pgyslt8uvc",394,"9.csv","","null","resources/images/fishbone.png","null","",NA,NA,NA,NA,""
"image-keyboard-response",548,428577,"0.0-3.179-0.179","rd6y5pgyslt8uvc",394,"9.csv","","248.5","resources/trios/L1T2A3.jpg","37","restless",0.5,0.3,0.6,0.347337337611593,"true"
"image-keyboard-response",549,428982,"0.0-3.179-1.179","rd6y5pgyslt8uvc",394,"9.csv","","null","resources/maskTrios/L1BB.jpg","null","",NA,NA,NA,NA,""
"image-keyboard-response",550,430185,"0.0-3.179-2.179","rd6y5pgyslt8uvc",394,"9.csv","","null","resources/images/coin2.png","null","",NA,NA,NA,NA,""
"image-keyboard-response",551,430861,"0.0-3.180-0.180","rd6y5pgyslt8uvc",394,"9.csv","","674.8000000119209","resources/trios/L2T4A3.jpg","37","restless",0.6,0.3,0.6,0.107501985490527,"true"
"image-keyboard-response",552,431265,"0.0-3.180-1.180","rd6y5pgyslt8uvc",394,"9.csv","","null","resources/maskTrios/L2BB.jpg","null","",NA,NA,NA,NA,""
"image-keyboard-response",553,432477,"0.0-3.180-2.180","rd6y5pgyslt8uvc",394,"9.csv","","null","resources/images/coin2.png","null","",NA,NA,NA,NA,""
"image-keyboard-response",554,432772,"0.0-3.181-0.181","rd6y5pgyslt8uvc",394,"9.csv","","293.89999997615814","resources/trios/L1T2A1.jpg","37","restless",0.6,0.3,0.6,0.70552737258573,"false"
"image-keyboard-response",555,433185,"0.0-3.181-1.181","rd6y5pgyslt8uvc",394,"9.csv","","null","resources/maskTrios/L1BB.jpg","null","",NA,NA,NA,NA,""
"image-keyboard-response",556,434397,"0.0-3.181-2.181","rd6y5pgyslt8uvc",394,"9.csv","","null","resources/images/fishbone.png","null","",NA,NA,NA,NA,""
"image-keyboard-response",557,434647,"0.0-3.182-0.182","rd6y5pgyslt8uvc",394,"9.csv","","249.5","resources/trios/L2T4A1.jpg","38","restless",0.5,0.3,0.6,0.976258356942868,"false"
"image-keyboard-response",558,435056,"0.0-3.182-1.182","rd6y5pgyslt8uvc",394,"9.csv","","null","resources/maskTrios/BT4B.jpg","null","",NA,NA,NA,NA,""
"image-keyboard-response",559,436270,"0.0-3.182-2.182","rd6y5pgyslt8uvc",394,"9.csv","","null","resources/images/fishbone.png","null","",NA,NA,NA,NA,""
"image-keyboard-response",560,436513,"0.0-3.183-0.183","rd6y5pgyslt8uvc",394,"9.csv","","241.69999998807907","resources/trios/L2T2A1.jpg","37","restless",0.5,0.3,0.6,0.148159559134948,"true"
"image-keyboard-response",561,436915,"0.0-3.183-1.183","rd6y5pgyslt8uvc",394,"9.csv","","null","resources/maskTrios/L2BB.jpg","null","",NA,NA,NA,NA,""
"image-keyboard-response",562,438128,"0.0-3.183-2.183","rd6y5pgyslt8uvc",394,"9.csv","","null","resources/images/coin2.png","null","",NA,NA,NA,NA,""
"image-keyboard-response",563,440336,"0.0-3.184-0.184","rd6y5pgyslt8uvc",394,"9.csv","","2207.300000011921","resources/trios/L2T2A1.jpg","39","restless",0.5,0.3,0.6,0.584249977481378,"true"
"image-keyboard-response",564,440742,"0.0-3.184-1.184","rd6y5pgyslt8uvc",394,"9.csv","","null","resources/maskTrios/BBA1.jpg","null","",NA,NA,NA,NA,""
"image-keyboard-response",565,441955,"0.0-3.184-2.184","rd6y5pgyslt8uvc",394,"9.csv","","null","resources/images/coin2.png","null","",NA,NA,NA,NA,""
"image-keyboard-response",566,443268,"0.0-3.185-0.185","rd6y5pgyslt8uvc",394,"9.csv","","1312","resources/trios/L2T2A3.jpg","37","restless",0.5,0.3,0.6,0.407507106784135,"true"
"image-keyboard-response",567,443674,"0.0-3.185-1.185","rd6y5pgyslt8uvc",394,"9.csv","","null","resources/maskTrios/L2BB.jpg","null","",NA,NA,NA,NA,""
"image-keyboard-response",568,444887,"0.0-3.185-2.185","rd6y5pgyslt8uvc",394,"9.csv","","null","resources/images/coin2.png","null","",NA,NA,NA,NA,""
"image-keyboard-response",569,445201,"0.0-3.186-0.186","rd6y5pgyslt8uvc",394,"9.csv","","312.10000002384186","resources/trios/L1T2A1.jpg","38","restless",0.6,0.2,0.6,0.48322154894441,"false"
"image-keyboard-response",570,445612,"0.0-3.186-1.186","rd6y5pgyslt8uvc",394,"9.csv","","null","resources/maskTrios/BT2B.jpg","null","",NA,NA,NA,NA,""
"image-keyboard-response",571,446827,"0.0-3.186-2.186","rd6y5pgyslt8uvc",394,"9.csv","","null","resources/images/fishbone.png","null","",NA,NA,NA,NA,""
"image-keyboard-response",572,447081,"0.0-3.187-0.187","rd6y5pgyslt8uvc",394,"9.csv","","253.39999997615814","resources/trios/L2T4A3.jpg","37","restless",0.6,0.2,0.5,0.314982047540558,"true"
"image-keyboard-response",573,447487,"0.0-3.187-1.187","rd6y5pgyslt8uvc",394,"9.csv","","null","resources/maskTrios/L2BB.jpg","null","",NA,NA,NA,NA,""
"image-keyboard-response",574,448699,"0.0-3.187-2.187","rd6y5pgyslt8uvc",394,"9.csv","","null","resources/images/coin2.png","null","",NA,NA,NA,NA,""
"image-keyboard-response",575,449327,"0.0-3.188-0.188","rd6y5pgyslt8uvc",394,"9.csv","","627.3000000119209","resources/trios/L2T2A3.jpg","37","restless",0.5,0.2,0.5,0.6507217243204,"false"
"image-keyboard-response",576,449741,"0.0-3.188-1.188","rd6y5pgyslt8uvc",394,"9.csv","","null","resources/maskTrios/L2BB.jpg","null","",NA,NA,NA,NA,""
"image-keyboard-response",577,450952,"0.0-3.188-2.188","rd6y5pgyslt8uvc",394,"9.csv","","null","resources/images/fishbone.png","null","",NA,NA,NA,NA,""
"image-keyboard-response",578,451420,"0.0-3.189-0.189","rd6y5pgyslt8uvc",394,"9.csv","","467.30000001192093","resources/trios/L2T2A3.jpg","39","restless",0.5,0.2,0.5,0.045689244600402,"true"
"image-keyboard-response",579,451826,"0.0-3.189-1.189","rd6y5pgyslt8uvc",394,"9.csv","","null","resources/maskTrios/BBA3.jpg","null","",NA,NA,NA,NA,""
"image-keyboard-response",580,453039,"0.0-3.189-2.189","rd6y5pgyslt8uvc",394,"9.csv","","null","resources/images/coin2.png","null","",NA,NA,NA,NA,""
"image-keyboard-response",581,454466,"0.0-3.190-0.190","rd6y5pgyslt8uvc",394,"9.csv","","1426.199999988079","resources/trios/L1T2A1.jpg","38","restless",0.4,0.2,0.5,0.595014897047225,"false"
"image-keyboard-response",582,454881,"0.0-3.190-1.190","rd6y5pgyslt8uvc",394,"9.csv","","null","resources/maskTrios/BT2B.jpg","null","",NA,NA,NA,NA,""
"image-keyboard-response",583,456094,"0.0-3.190-2.190","rd6y5pgyslt8uvc",394,"9.csv","","null","resources/images/fishbone.png","null","",NA,NA,NA,NA,""
"image-keyboard-response",584,456889,"0.0-3.191-0.191","rd6y5pgyslt8uvc",394,"9.csv","","793.5","resources/trios/L2T2A3.jpg","37","restless",0.4,0.2,0.5,0.67622908588489,"false"
"image-keyboard-response",585,457305,"0.0-3.191-1.191","rd6y5pgyslt8uvc",394,"9.csv","","null","resources/maskTrios/L2BB.jpg","null","",NA,NA,NA,NA,""
"image-keyboard-response",586,458517,"0.0-3.191-2.191","rd6y5pgyslt8uvc",394,"9.csv","","null","resources/images/fishbone.png","null","",NA,NA,NA,NA,""
"image-keyboard-response",587,459797,"0.0-3.192-0.192","rd6y5pgyslt8uvc",394,"9.csv","","1279.7000000476837","resources/trios/L2T2A1.jpg","37","restless",0.4,0.2,0.4,0.900735959769141,"false"
"image-keyboard-response",588,460201,"0.0-3.192-1.192","rd6y5pgyslt8uvc",394,"9.csv","","null","resources/maskTrios/L2BB.jpg","null","",NA,NA,NA,NA,""
"image-keyboard-response",589,461416,"0.0-3.192-2.192","rd6y5pgyslt8uvc",394,"9.csv","","null","resources/images/fishbone.png","null","",NA,NA,NA,NA,""
"image-keyboard-response",590,461667,"0.0-3.193-0.193","rd6y5pgyslt8uvc",394,"9.csv","","249.69999998807907","resources/trios/L1T4A3.jpg","37","restless",0.4,0.2,0.4,0.788918422878209,"false"
"image-keyboard-response",591,462070,"0.0-3.193-1.193","rd6y5pgyslt8uvc",394,"9.csv","","null","resources/maskTrios/L1BB.jpg","null","",NA,NA,NA,NA,""
"image-keyboard-response",592,463271,"0.0-3.193-2.193","rd6y5pgyslt8uvc",394,"9.csv","","null","resources/images/fishbone.png","null","",NA,NA,NA,NA,""
"image-keyboard-response",593,463320,"0.0-3.194-0.194","rd6y5pgyslt8uvc",394,"9.csv","","48","resources/trios/L1T2A3.jpg","38","restless",0.4,0.2,0.4,0.690721448831205,"false"
"image-keyboard-response",594,463724,"0.0-3.194-1.194","rd6y5pgyslt8uvc",394,"9.csv","","null","resources/maskTrios/BT2B.jpg","null","",NA,NA,NA,NA,""
"image-keyboard-response",595,464927,"0.0-3.194-2.194","rd6y5pgyslt8uvc",394,"9.csv","","null","resources/images/fishbone.png","null","",NA,NA,NA,NA,""
"image-keyboard-response",596,465094,"0.0-3.195-0.195","rd6y5pgyslt8uvc",394,"9.csv","","165.80000001192093","resources/trios/L1T2A1.jpg","37","restless",0.4,0.2,0.4,0.17409558804943,"true"
"image-keyboard-response",597,465505,"0.0-3.195-1.195","rd6y5pgyslt8uvc",394,"9.csv","","null","resources/maskTrios/L1BB.jpg","null","",NA,NA,NA,NA,""
"image-keyboard-response",598,466709,"0.0-3.195-2.195","rd6y5pgyslt8uvc",394,"9.csv","","null","resources/images/coin2.png","null","",NA,NA,NA,NA,""
"image-keyboard-response",599,466950,"0.0-3.196-0.196","rd6y5pgyslt8uvc",394,"9.csv","","239.79999995231628","resources/trios/L1T4A3.jpg","37","restless",0.4,0.1,0.4,0.709321476588731,"false"
"image-keyboard-response",600,467364,"0.0-3.196-1.196","rd6y5pgyslt8uvc",394,"9.csv","","null","resources/maskTrios/L1BB.jpg","null","",NA,NA,NA,NA,""
"image-keyboard-response",601,468570,"0.0-3.196-2.196","rd6y5pgyslt8uvc",394,"9.csv","","null","resources/images/fishbone.png","null","",NA,NA,NA,NA,""
"image-keyboard-response",602,468710,"0.0-3.197-0.197","rd6y5pgyslt8uvc",394,"9.csv","","138.20000004768372","resources/trios/L2T2A3.jpg","38","restless",0.4,0.1,0.4,0.954452379592938,"false"
"image-keyboard-response",603,469114,"0.0-3.197-1.197","rd6y5pgyslt8uvc",394,"9.csv","","null","resources/maskTrios/BT2B.jpg","null","",NA,NA,NA,NA,""
"image-keyboard-response",604,470317,"0.0-3.197-2.197","rd6y5pgyslt8uvc",394,"9.csv","","null","resources/images/fishbone.png","null","",NA,NA,NA,NA,""
"image-keyboard-response",605,470708,"0.0-3.198-0.198","rd6y5pgyslt8uvc",394,"9.csv","","390.7000000476837","resources/trios/L2T4A3.jpg","39","restless",0.4,0.1,0.4,0.482452435791159,"false"
"image-keyboard-response",606,471117,"0.0-3.198-1.198","rd6y5pgyslt8uvc",394,"9.csv","","null","resources/maskTrios/BBA3.jpg","null","",NA,NA,NA,NA,""
"image-keyboard-response",607,472332,"0.0-3.198-2.198","rd6y5pgyslt8uvc",394,"9.csv","","null","resources/images/fishbone.png","null","",NA,NA,NA,NA,""
"image-keyboard-response",608,472769,"0.0-3.199-0.199","rd6y5pgyslt8uvc",394,"9.csv","","436.30000001192093","resources/trios/L1T2A3.jpg","37","restless",0.4,0.1,0.4,0.508595699761865,"false"
"image-keyboard-response",609,473178,"0.0-3.199-1.199","rd6y5pgyslt8uvc",394,"9.csv","","null","resources/maskTrios/L1BB.jpg","null","",NA,NA,NA,NA,""
"image-keyboard-response",610,474393,"0.0-3.199-2.199","rd6y5pgyslt8uvc",394,"9.csv","","null","resources/images/fishbone.png","null","",NA,NA,NA,NA,""
"image-keyboard-response",611,474493,"0.0-3.200-0.200","rd6y5pgyslt8uvc",394,"9.csv","","99","resources/trios/L1T4A1.jpg","38","restless",0.4,0.1,0.4,0.845425153900497,"false"
"image-keyboard-response",612,474910,"0.0-3.200-1.200","rd6y5pgyslt8uvc",394,"9.csv","","null","resources/maskTrios/BT4B.jpg","null","",NA,NA,NA,NA,""
"image-keyboard-response",613,476126,"0.0-3.200-2.200","rd6y5pgyslt8uvc",394,"9.csv","","null","resources/images/fishbone.png","null","",NA,NA,NA,NA,""
