"trial_type","trial_index","time_elapsed","internal_node_id","subject","participantCode","walkNumber","success","rt","stimulus","key_press","test_part","leftProb","midProb","rightProb","generatedNum","correct"
"pavlovia",0,1059,"0.0-0.0","976hzrbpj6n1lo2",975,"98.csv","","","","","",NA,NA,NA,NA,""
"fullscreen",1,7991,"0.0-1.0","976hzrbpj6n1lo2",975,"98.csv","true","","","","",NA,NA,NA,NA,""
"html-keyboard-response",2,21936,"0.0-2.0-0.0","976hzrbpj6n1lo2",975,"98.csv","","13943.599999904633","<p><font size='6'>Arrrgh!</p></font><p>Can you be the best pirate? Try to find lots of gold! But beware, some islands have more gold than others, and over time, the island with the most gold may change. Can YOU figure it out? </p><font size='6'>GOOD LUCK, CAPTAIN!!!</font><p>Press any key to begin</p>","32","",NA,NA,NA,NA,""
"image-keyboard-response",3,24943,"0.0-2.0-1.0","976hzrbpj6n1lo2",975,"98.csv","","null","resources/image_sets/111.png","null","",NA,NA,NA,NA,""
"image-keyboard-response",4,28977,"0.0-2.0-2.0","976hzrbpj6n1lo2",975,"98.csv","","4031.9000000953674","resources/image_sets/left_highlight.png","37","",NA,NA,NA,NA,""
"image-keyboard-response",5,33380,"0.0-2.0-3.0","976hzrbpj6n1lo2",975,"98.csv","","4401.199999809265","resources/image_sets/mid_highlight.png","38","",NA,NA,NA,NA,""
"image-keyboard-response",6,35107,"0.0-2.0-4.0","976hzrbpj6n1lo2",975,"98.csv","","1726.2999999523163","resources/image_sets/right_highlight.png","39","",NA,NA,NA,NA,""
"image-keyboard-response",7,36949,"0.0-2.0-5.0","976hzrbpj6n1lo2",975,"98.csv","","1841.2999999523163","resources/image_sets/111.png","13","",NA,NA,NA,NA,""
"image-keyboard-response",8,41026,"0.0-2.0-6.0","976hzrbpj6n1lo2",975,"98.csv","","4075.5","resources/images/coin2.png","13","",NA,NA,NA,NA,""
"image-keyboard-response",9,43740,"0.0-2.0-7.0","976hzrbpj6n1lo2",975,"98.csv","","2712.7999999523163","resources/images/fishbone.png","13","",NA,NA,NA,NA,""
"html-keyboard-response",10,55554,"0.0-2.0-8.0","976hzrbpj6n1lo2",975,"98.csv","","11814.299999952316","<p>Your first journey will be a long one, but you will get a well deserved break at the end</p><p>After the break you will have four more journeys, but each will be much shorter than the first, and you will have breaks in between each</p><p>Press Enter to begin</p>","13","",NA,NA,NA,NA,""
"image-keyboard-response",11,57499,"0.0-3.0-0.0","976hzrbpj6n1lo2",975,"98.csv","","1943.3000001907349","resources/trios/L2T1A3.jpg","39","restless",0.3,0.7,0.9,0.158243840295706,"true"
"image-keyboard-response",12,57905,"0.0-3.0-1.0","976hzrbpj6n1lo2",975,"98.csv","","null","resources/maskTrios/BBA3.jpg","null","",NA,NA,NA,NA,""
"image-keyboard-response",13,59110,"0.0-3.0-2.0","976hzrbpj6n1lo2",975,"98.csv","","null","resources/images/coin2.png","null","",NA,NA,NA,NA,""
"image-keyboard-response",14,62640,"0.0-3.1-0.1","976hzrbpj6n1lo2",975,"98.csv","","3526.9000000953674","resources/trios/L2T2A3.jpg","38","restless",0.3,0.7,0.9,0.0473061417025666,"true"
"image-keyboard-response",15,63047,"0.0-3.1-1.1","976hzrbpj6n1lo2",975,"98.csv","","null","resources/maskTrios/BT2B.jpg","null","",NA,NA,NA,NA,""
"image-keyboard-response",16,64254,"0.0-3.1-2.1","976hzrbpj6n1lo2",975,"98.csv","","null","resources/images/coin2.png","null","",NA,NA,NA,NA,""
"image-keyboard-response",17,65571,"0.0-3.2-0.2","976hzrbpj6n1lo2",975,"98.csv","","1315.2000000476837","resources/trios/L2T1A1.jpg","39","restless",0.3,0.7,0.9,0.393799138983874,"true"
"image-keyboard-response",18,65980,"0.0-3.2-1.2","976hzrbpj6n1lo2",975,"98.csv","","null","resources/maskTrios/BBA1.jpg","null","",NA,NA,NA,NA,""
"image-keyboard-response",19,67186,"0.0-3.2-2.2","976hzrbpj6n1lo2",975,"98.csv","","null","resources/images/coin2.png","null","",NA,NA,NA,NA,""
"image-keyboard-response",20,67863,"0.0-3.3-0.3","976hzrbpj6n1lo2",975,"98.csv","","675","resources/trios/L1T2A1.jpg","37","restless",0.3,0.7,0.9,0.679042570589496,"false"
"image-keyboard-response",21,68272,"0.0-3.3-1.3","976hzrbpj6n1lo2",975,"98.csv","","null","resources/maskTrios/L1BB.jpg","null","",NA,NA,NA,NA,""
"image-keyboard-response",22,69481,"0.0-3.3-2.3","976hzrbpj6n1lo2",975,"98.csv","","null","resources/images/fishbone.png","null","",NA,NA,NA,NA,""
"image-keyboard-response",23,70426,"0.0-3.4-0.4","976hzrbpj6n1lo2",975,"98.csv","","943.9000000953674","resources/trios/L2T2A1.jpg","38","restless",0.3,0.7,0.9,0.874957654035204,"false"
"image-keyboard-response",24,70831,"0.0-3.4-1.4","976hzrbpj6n1lo2",975,"98.csv","","null","resources/maskTrios/BT2B.jpg","null","",NA,NA,NA,NA,""
"image-keyboard-response",25,72035,"0.0-3.4-2.4","976hzrbpj6n1lo2",975,"98.csv","","null","resources/images/fishbone.png","null","",NA,NA,NA,NA,""
"image-keyboard-response",26,73964,"0.0-3.5-0.5","976hzrbpj6n1lo2",975,"98.csv","","1926.7000000476837","resources/trios/L1T1A1.jpg","37","restless",0.3,0.7,0.8,0.671687132174015,"false"
"image-keyboard-response",27,74367,"0.0-3.5-1.5","976hzrbpj6n1lo2",975,"98.csv","","null","resources/maskTrios/L1BB.jpg","null","",NA,NA,NA,NA,""
"image-keyboard-response",28,75571,"0.0-3.5-2.5","976hzrbpj6n1lo2",975,"98.csv","","null","resources/images/fishbone.png","null","",NA,NA,NA,NA,""
"image-keyboard-response",29,75987,"0.0-3.6-0.6","976hzrbpj6n1lo2",975,"98.csv","","414.2999999523163","resources/trios/L2T1A3.jpg","39","restless",0.3,0.7,0.8,0.00109355278190737,"true"
"image-keyboard-response",30,76396,"0.0-3.6-1.6","976hzrbpj6n1lo2",975,"98.csv","","null","resources/maskTrios/BBA3.jpg","null","",NA,NA,NA,NA,""
"image-keyboard-response",31,77603,"0.0-3.6-2.6","976hzrbpj6n1lo2",975,"98.csv","","null","resources/images/coin2.png","null","",NA,NA,NA,NA,""
"image-keyboard-response",32,78339,"0.0-3.7-0.7","976hzrbpj6n1lo2",975,"98.csv","","734.2999999523163","resources/trios/L1T2A1.jpg","39","restless",0.3,0.7,0.8,0.949129322672888,"false"
"image-keyboard-response",33,78745,"0.0-3.7-1.7","976hzrbpj6n1lo2",975,"98.csv","","null","resources/maskTrios/BBA1.jpg","null","",NA,NA,NA,NA,""
"image-keyboard-response",34,79948,"0.0-3.7-2.7","976hzrbpj6n1lo2",975,"98.csv","","null","resources/images/fishbone.png","null","",NA,NA,NA,NA,""
"image-keyboard-response",35,80973,"0.0-3.8-0.8","976hzrbpj6n1lo2",975,"98.csv","","1022.7999999523163","resources/trios/L2T2A3.jpg","39","restless",0.3,0.7,0.8,0.101794650925163,"true"
"image-keyboard-response",36,81378,"0.0-3.8-1.8","976hzrbpj6n1lo2",975,"98.csv","","null","resources/maskTrios/BBA3.jpg","null","",NA,NA,NA,NA,""
"image-keyboard-response",37,82586,"0.0-3.8-2.8","976hzrbpj6n1lo2",975,"98.csv","","null","resources/images/coin2.png","null","",NA,NA,NA,NA,""
"image-keyboard-response",38,85549,"0.0-3.9-0.9","976hzrbpj6n1lo2",975,"98.csv","","2960.600000143051","resources/trios/L1T2A1.jpg","38","restless",0.3,0.7,0.8,0.316694790185411,"true"
"image-keyboard-response",39,85954,"0.0-3.9-1.9","976hzrbpj6n1lo2",975,"98.csv","","null","resources/maskTrios/BT2B.jpg","null","",NA,NA,NA,NA,""
"image-keyboard-response",40,87162,"0.0-3.9-2.9","976hzrbpj6n1lo2",975,"98.csv","","null","resources/images/coin2.png","null","",NA,NA,NA,NA,""
"image-keyboard-response",41,87780,"0.0-3.10-0.10","976hzrbpj6n1lo2",975,"98.csv","","616.3999998569489","resources/trios/L1T2A1.jpg","38","restless",0.3,0.7,0.8,0.460302594094744,"true"
"image-keyboard-response",42,88189,"0.0-3.10-1.10","976hzrbpj6n1lo2",975,"98.csv","","null","resources/maskTrios/BT2B.jpg","null","",NA,NA,NA,NA,""
"image-keyboard-response",43,89398,"0.0-3.10-2.10","976hzrbpj6n1lo2",975,"98.csv","","null","resources/images/coin2.png","null","",NA,NA,NA,NA,""
"image-keyboard-response",44,90065,"0.0-3.11-0.11","976hzrbpj6n1lo2",975,"98.csv","","665.0999999046326","resources/trios/L1T1A3.jpg","39","restless",0.3,0.7,0.8,0.582388243976031,"true"
"image-keyboard-response",45,90467,"0.0-3.11-1.11","976hzrbpj6n1lo2",975,"98.csv","","null","resources/maskTrios/BBA3.jpg","null","",NA,NA,NA,NA,""
"image-keyboard-response",46,91673,"0.0-3.11-2.11","976hzrbpj6n1lo2",975,"98.csv","","null","resources/images/coin2.png","null","",NA,NA,NA,NA,""
"image-keyboard-response",47,92271,"0.0-3.12-0.12","976hzrbpj6n1lo2",975,"98.csv","","596.4000000953674","resources/trios/L2T2A3.jpg","38","restless",0.3,0.7,0.8,0.893038382980424,"false"
"image-keyboard-response",48,92678,"0.0-3.12-1.12","976hzrbpj6n1lo2",975,"98.csv","","null","resources/maskTrios/BT2B.jpg","null","",NA,NA,NA,NA,""
"image-keyboard-response",49,93881,"0.0-3.12-2.12","976hzrbpj6n1lo2",975,"98.csv","","null","resources/images/fishbone.png","null","",NA,NA,NA,NA,""
"image-keyboard-response",50,94175,"0.0-3.13-0.13","976hzrbpj6n1lo2",975,"98.csv","","292.7000000476837","resources/trios/L1T2A1.jpg","39","restless",0.2,0.8,0.8,0.60428598541957,"true"
"image-keyboard-response",51,94582,"0.0-3.13-1.13","976hzrbpj6n1lo2",975,"98.csv","","null","resources/maskTrios/BBA1.jpg","null","",NA,NA,NA,NA,""
"image-keyboard-response",52,95790,"0.0-3.13-2.13","976hzrbpj6n1lo2",975,"98.csv","","null","resources/images/coin2.png","null","",NA,NA,NA,NA,""
"image-keyboard-response",53,96769,"0.0-3.14-0.14","976hzrbpj6n1lo2",975,"98.csv","","976.7000000476837","resources/trios/L1T2A1.jpg","39","restless",0.2,0.8,0.8,0.725237729775412,"true"
"image-keyboard-response",54,97174,"0.0-3.14-1.14","976hzrbpj6n1lo2",975,"98.csv","","null","resources/maskTrios/BBA1.jpg","null","",NA,NA,NA,NA,""
"image-keyboard-response",55,98383,"0.0-3.14-2.14","976hzrbpj6n1lo2",975,"98.csv","","null","resources/images/coin2.png","null","",NA,NA,NA,NA,""
"image-keyboard-response",56,98815,"0.0-3.15-0.15","976hzrbpj6n1lo2",975,"98.csv","","430.5","resources/trios/L2T1A1.jpg","39","restless",0.2,0.8,0.8,0.818860481741696,"false"
"image-keyboard-response",57,99218,"0.0-3.15-1.15","976hzrbpj6n1lo2",975,"98.csv","","null","resources/maskTrios/BBA1.jpg","null","",NA,NA,NA,NA,""
"image-keyboard-response",58,100427,"0.0-3.15-2.15","976hzrbpj6n1lo2",975,"98.csv","","null","resources/images/fishbone.png","null","",NA,NA,NA,NA,""
"image-keyboard-response",59,100966,"0.0-3.16-0.16","976hzrbpj6n1lo2",975,"98.csv","","536.6000001430511","resources/trios/L1T2A1.jpg","38","restless",0.2,0.8,0.8,0.950410973618451,"false"
"image-keyboard-response",60,101372,"0.0-3.16-1.16","976hzrbpj6n1lo2",975,"98.csv","","null","resources/maskTrios/BT2B.jpg","null","",NA,NA,NA,NA,""
"image-keyboard-response",61,102578,"0.0-3.16-2.16","976hzrbpj6n1lo2",975,"98.csv","","null","resources/images/fishbone.png","null","",NA,NA,NA,NA,""
"image-keyboard-response",62,102855,"0.0-3.17-0.17","976hzrbpj6n1lo2",975,"98.csv","","275","resources/trios/L2T2A3.jpg","37","restless",0.2,0.8,0.8,0.755948857490567,"false"
"image-keyboard-response",63,103262,"0.0-3.17-1.17","976hzrbpj6n1lo2",975,"98.csv","","null","resources/maskTrios/L2BB.jpg","null","",NA,NA,NA,NA,""
"image-keyboard-response",64,104469,"0.0-3.17-2.17","976hzrbpj6n1lo2",975,"98.csv","","null","resources/images/fishbone.png","null","",NA,NA,NA,NA,""
"image-keyboard-response",65,104787,"0.0-3.18-0.18","976hzrbpj6n1lo2",975,"98.csv","","315.5","resources/trios/L2T1A3.jpg","39","restless",0.2,0.8,0.8,0.867849452055846,"false"
"image-keyboard-response",66,105195,"0.0-3.18-1.18","976hzrbpj6n1lo2",975,"98.csv","","null","resources/maskTrios/BBA3.jpg","null","",NA,NA,NA,NA,""
"image-keyboard-response",67,106400,"0.0-3.18-2.18","976hzrbpj6n1lo2",975,"98.csv","","null","resources/images/fishbone.png","null","",NA,NA,NA,NA,""
"image-keyboard-response",68,106805,"0.0-3.19-0.19","976hzrbpj6n1lo2",975,"98.csv","","403.2000000476837","resources/trios/L1T2A3.jpg","38","restless",0.2,0.9,0.8,0.727906993480307,"true"
"image-keyboard-response",69,107212,"0.0-3.19-1.19","976hzrbpj6n1lo2",975,"98.csv","","null","resources/maskTrios/BT2B.jpg","null","",NA,NA,NA,NA,""
"image-keyboard-response",70,108415,"0.0-3.19-2.19","976hzrbpj6n1lo2",975,"98.csv","","null","resources/images/coin2.png","null","",NA,NA,NA,NA,""
"image-keyboard-response",71,109095,"0.0-3.20-0.20","976hzrbpj6n1lo2",975,"98.csv","","677.5","resources/trios/L2T2A1.jpg","39","restless",0.2,0.9,0.8,0.724122702785003,"true"
"image-keyboard-response",72,109503,"0.0-3.20-1.20","976hzrbpj6n1lo2",975,"98.csv","","null","resources/maskTrios/BBA1.jpg","null","",NA,NA,NA,NA,""
"image-keyboard-response",73,110712,"0.0-3.20-2.20","976hzrbpj6n1lo2",975,"98.csv","","null","resources/images/coin2.png","null","",NA,NA,NA,NA,""
"image-keyboard-response",74,111242,"0.0-3.21-0.21","976hzrbpj6n1lo2",975,"98.csv","","527.6999998092651","resources/trios/L2T1A3.jpg","39","restless",0.2,0.9,0.8,0.841971122982135,"false"
"image-keyboard-response",75,111649,"0.0-3.21-1.21","976hzrbpj6n1lo2",975,"98.csv","","null","resources/maskTrios/BBA3.jpg","null","",NA,NA,NA,NA,""
"image-keyboard-response",76,112857,"0.0-3.21-2.21","976hzrbpj6n1lo2",975,"98.csv","","null","resources/images/fishbone.png","null","",NA,NA,NA,NA,""
"image-keyboard-response",77,113673,"0.0-3.22-0.22","976hzrbpj6n1lo2",975,"98.csv","","813.9000000953674","resources/trios/L2T1A3.jpg","37","restless",0.2,0.9,0.8,0.691807950592503,"false"
"image-keyboard-response",78,114080,"0.0-3.22-1.22","976hzrbpj6n1lo2",975,"98.csv","","null","resources/maskTrios/L2BB.jpg","null","",NA,NA,NA,NA,""
"image-keyboard-response",79,115286,"0.0-3.22-2.22","976hzrbpj6n1lo2",975,"98.csv","","null","resources/images/fishbone.png","null","",NA,NA,NA,NA,""
"image-keyboard-response",80,115538,"0.0-3.23-0.23","976hzrbpj6n1lo2",975,"98.csv","","249.40000009536743","resources/trios/L1T2A1.jpg","38","restless",0.3,0.9,0.8,0.132584886252004,"true"
"image-keyboard-response",81,115944,"0.0-3.23-1.23","976hzrbpj6n1lo2",975,"98.csv","","null","resources/maskTrios/BT2B.jpg","null","",NA,NA,NA,NA,""
"image-keyboard-response",82,117147,"0.0-3.23-2.23","976hzrbpj6n1lo2",975,"98.csv","","null","resources/images/coin2.png","null","",NA,NA,NA,NA,""
"image-keyboard-response",83,117457,"0.0-3.24-0.24","976hzrbpj6n1lo2",975,"98.csv","","308.7000000476837","resources/trios/L1T1A3.jpg","37","restless",0.3,0.9,0.7,0.222161445449704,"true"
"image-keyboard-response",84,117861,"0.0-3.24-1.24","976hzrbpj6n1lo2",975,"98.csv","","null","resources/maskTrios/L1BB.jpg","null","",NA,NA,NA,NA,""
"image-keyboard-response",85,119063,"0.0-3.24-2.24","976hzrbpj6n1lo2",975,"98.csv","","null","resources/images/coin2.png","null","",NA,NA,NA,NA,""
"image-keyboard-response",86,119567,"0.0-3.25-0.25","976hzrbpj6n1lo2",975,"98.csv","","501.7999999523163","resources/trios/L2T2A3.jpg","39","restless",0.3,0.9,0.6,0.364217394307257,"true"
"image-keyboard-response",87,119969,"0.0-3.25-1.25","976hzrbpj6n1lo2",975,"98.csv","","null","resources/maskTrios/BBA3.jpg","null","",NA,NA,NA,NA,""
"image-keyboard-response",88,121176,"0.0-3.25-2.25","976hzrbpj6n1lo2",975,"98.csv","","null","resources/images/coin2.png","null","",NA,NA,NA,NA,""
"image-keyboard-response",89,121581,"0.0-3.26-0.26","976hzrbpj6n1lo2",975,"98.csv","","403.30000019073486","resources/trios/L2T2A3.jpg","38","restless",0.3,0.9,0.6,0.812105543070953,"true"
"image-keyboard-response",90,121988,"0.0-3.26-1.26","976hzrbpj6n1lo2",975,"98.csv","","null","resources/maskTrios/BT2B.jpg","null","",NA,NA,NA,NA,""
"image-keyboard-response",91,123190,"0.0-3.26-2.26","976hzrbpj6n1lo2",975,"98.csv","","null","resources/images/coin2.png","null","",NA,NA,NA,NA,""
"image-keyboard-response",92,123640,"0.0-3.27-0.27","976hzrbpj6n1lo2",975,"98.csv","","447.90000009536743","resources/trios/L1T2A1.jpg","39","restless",0.3,0.9,0.6,0.995567451077217,"false"
"image-keyboard-response",93,124048,"0.0-3.27-1.27","976hzrbpj6n1lo2",975,"98.csv","","null","resources/maskTrios/BBA1.jpg","null","",NA,NA,NA,NA,""
"image-keyboard-response",94,125257,"0.0-3.27-2.27","976hzrbpj6n1lo2",975,"98.csv","","null","resources/images/fishbone.png","null","",NA,NA,NA,NA,""
"image-keyboard-response",95,125726,"0.0-3.28-0.28","976hzrbpj6n1lo2",975,"98.csv","","465.90000009536743","resources/trios/L2T1A1.jpg","38","restless",0.3,0.9,0.5,0.424711395864819,"true"
"image-keyboard-response",96,126131,"0.0-3.28-1.28","976hzrbpj6n1lo2",975,"98.csv","","null","resources/maskTrios/BT1B.jpg","null","",NA,NA,NA,NA,""
"image-keyboard-response",97,127341,"0.0-3.28-2.28","976hzrbpj6n1lo2",975,"98.csv","","null","resources/images/coin2.png","null","",NA,NA,NA,NA,""
"image-keyboard-response",98,128221,"0.0-3.29-0.29","976hzrbpj6n1lo2",975,"98.csv","","878.7999999523163","resources/trios/L2T2A3.jpg","39","restless",0.3,0.9,0.5,0.095645784406756,"true"
"image-keyboard-response",99,128630,"0.0-3.29-1.29","976hzrbpj6n1lo2",975,"98.csv","","null","resources/maskTrios/BBA3.jpg","null","",NA,NA,NA,NA,""
"image-keyboard-response",100,129832,"0.0-3.29-2.29","976hzrbpj6n1lo2",975,"98.csv","","null","resources/images/coin2.png","null","",NA,NA,NA,NA,""
"image-keyboard-response",101,130392,"0.0-3.30-0.30","976hzrbpj6n1lo2",975,"98.csv","","558.0999999046326","resources/trios/L1T2A3.jpg","38","restless",0.3,0.9,0.5,0.623827636645419,"true"
"image-keyboard-response",102,130798,"0.0-3.30-1.30","976hzrbpj6n1lo2",975,"98.csv","","null","resources/maskTrios/BT2B.jpg","null","",NA,NA,NA,NA,""
"image-keyboard-response",103,132002,"0.0-3.30-2.30","976hzrbpj6n1lo2",975,"98.csv","","null","resources/images/coin2.png","null","",NA,NA,NA,NA,""
"image-keyboard-response",104,132715,"0.0-3.31-0.31","976hzrbpj6n1lo2",975,"98.csv","","711.5999999046326","resources/trios/L1T1A3.jpg","39","restless",0.3,0.9,0.5,0.345681734524431,"true"
"image-keyboard-response",105,133118,"0.0-3.31-1.31","976hzrbpj6n1lo2",975,"98.csv","","null","resources/maskTrios/BBA3.jpg","null","",NA,NA,NA,NA,""
"image-keyboard-response",106,134327,"0.0-3.31-2.31","976hzrbpj6n1lo2",975,"98.csv","","null","resources/images/coin2.png","null","",NA,NA,NA,NA,""
"image-keyboard-response",107,134998,"0.0-3.32-0.32","976hzrbpj6n1lo2",975,"98.csv","","668.4000000953674","resources/trios/L2T1A1.jpg","39","restless",0.3,0.9,0.5,0.77322297012184,"false"
"image-keyboard-response",108,135404,"0.0-3.32-1.32","976hzrbpj6n1lo2",975,"98.csv","","null","resources/maskTrios/BBA1.jpg","null","",NA,NA,NA,NA,""
"image-keyboard-response",109,136608,"0.0-3.32-2.32","976hzrbpj6n1lo2",975,"98.csv","","null","resources/images/fishbone.png","null","",NA,NA,NA,NA,""
"image-keyboard-response",110,136935,"0.0-3.33-0.33","976hzrbpj6n1lo2",975,"98.csv","","325.7000000476837","resources/trios/L1T1A3.jpg","38","restless",0.3,0.9,0.5,0.896214293751584,"true"
"image-keyboard-response",111,137341,"0.0-3.33-1.33","976hzrbpj6n1lo2",975,"98.csv","","null","resources/maskTrios/BT1B.jpg","null","",NA,NA,NA,NA,""
"image-keyboard-response",112,138551,"0.0-3.33-2.33","976hzrbpj6n1lo2",975,"98.csv","","null","resources/images/coin2.png","null","",NA,NA,NA,NA,""
"image-keyboard-response",113,138916,"0.0-3.34-0.34","976hzrbpj6n1lo2",975,"98.csv","","363.2999999523163","resources/trios/L1T2A1.jpg","39","restless",0.3,0.9,0.5,0.481674873878651,"true"
"image-keyboard-response",114,139325,"0.0-3.34-1.34","976hzrbpj6n1lo2",975,"98.csv","","null","resources/maskTrios/BBA1.jpg","null","",NA,NA,NA,NA,""
"image-keyboard-response",115,140534,"0.0-3.34-2.34","976hzrbpj6n1lo2",975,"98.csv","","null","resources/images/coin2.png","null","",NA,NA,NA,NA,""
"image-keyboard-response",116,140942,"0.0-3.35-0.35","976hzrbpj6n1lo2",975,"98.csv","","403.7999999523163","resources/trios/L2T1A3.jpg","38","restless",0.2,0.9,0.5,0.430529090157934,"true"
"image-keyboard-response",117,141349,"0.0-3.35-1.35","976hzrbpj6n1lo2",975,"98.csv","","null","resources/maskTrios/BT1B.jpg","null","",NA,NA,NA,NA,""
"image-keyboard-response",118,142552,"0.0-3.35-2.35","976hzrbpj6n1lo2",975,"98.csv","","null","resources/images/coin2.png","null","",NA,NA,NA,NA,""
"image-keyboard-response",119,142851,"0.0-3.36-0.36","976hzrbpj6n1lo2",975,"98.csv","","297.5","resources/trios/L2T1A1.jpg","39","restless",0.2,0.9,0.5,0.110516490616449,"true"
"image-keyboard-response",120,143258,"0.0-3.36-1.36","976hzrbpj6n1lo2",975,"98.csv","","null","resources/maskTrios/BBA1.jpg","null","",NA,NA,NA,NA,""
"image-keyboard-response",121,144463,"0.0-3.36-2.36","976hzrbpj6n1lo2",975,"98.csv","","null","resources/images/coin2.png","null","",NA,NA,NA,NA,""
"image-keyboard-response",122,144877,"0.0-3.37-0.37","976hzrbpj6n1lo2",975,"98.csv","","412","resources/trios/L2T2A1.jpg","39","restless",0.3,0.9,0.5,0.210124440603041,"true"
"image-keyboard-response",123,145284,"0.0-3.37-1.37","976hzrbpj6n1lo2",975,"98.csv","","null","resources/maskTrios/BBA1.jpg","null","",NA,NA,NA,NA,""
"image-keyboard-response",124,146488,"0.0-3.37-2.37","976hzrbpj6n1lo2",975,"98.csv","","null","resources/images/coin2.png","null","",NA,NA,NA,NA,""
"image-keyboard-response",125,146809,"0.0-3.38-0.38","976hzrbpj6n1lo2",975,"98.csv","","319.40000009536743","resources/trios/L1T2A1.jpg","39","restless",0.3,0.9,0.5,0.821132155173977,"false"
"image-keyboard-response",126,147215,"0.0-3.38-1.38","976hzrbpj6n1lo2",975,"98.csv","","null","resources/maskTrios/BBA1.jpg","null","",NA,NA,NA,NA,""
"image-keyboard-response",127,148424,"0.0-3.38-2.38","976hzrbpj6n1lo2",975,"98.csv","","null","resources/images/fishbone.png","null","",NA,NA,NA,NA,""
"image-keyboard-response",128,148731,"0.0-3.39-0.39","976hzrbpj6n1lo2",975,"98.csv","","305.19999980926514","resources/trios/L1T2A3.jpg","38","restless",0.3,0.9,0.5,0.0308906817375938,"true"
"image-keyboard-response",129,149137,"0.0-3.39-1.39","976hzrbpj6n1lo2",975,"98.csv","","null","resources/maskTrios/BT2B.jpg","null","",NA,NA,NA,NA,""
"image-keyboard-response",130,150344,"0.0-3.39-2.39","976hzrbpj6n1lo2",975,"98.csv","","null","resources/images/coin2.png","null","",NA,NA,NA,NA,""
"image-keyboard-response",131,150604,"0.0-3.40-0.40","976hzrbpj6n1lo2",975,"98.csv","","257.2999999523163","resources/trios/L2T2A3.jpg","37","restless",0.3,0.9,0.6,0.812985099627141,"false"
"image-keyboard-response",132,151010,"0.0-3.40-1.40","976hzrbpj6n1lo2",975,"98.csv","","null","resources/maskTrios/L2BB.jpg","null","",NA,NA,NA,NA,""
"image-keyboard-response",133,152214,"0.0-3.40-2.40","976hzrbpj6n1lo2",975,"98.csv","","null","resources/images/fishbone.png","null","",NA,NA,NA,NA,""
"image-keyboard-response",134,152563,"0.0-3.41-0.41","976hzrbpj6n1lo2",975,"98.csv","","346.7000000476837","resources/trios/L2T1A3.jpg","39","restless",0.3,0.9,0.6,0.236103913941953,"true"
"image-keyboard-response",135,152970,"0.0-3.41-1.41","976hzrbpj6n1lo2",975,"98.csv","","null","resources/maskTrios/BBA3.jpg","null","",NA,NA,NA,NA,""
"image-keyboard-response",136,154179,"0.0-3.41-2.41","976hzrbpj6n1lo2",975,"98.csv","","null","resources/images/coin2.png","null","",NA,NA,NA,NA,""
"image-keyboard-response",137,154480,"0.0-3.42-0.42","976hzrbpj6n1lo2",975,"98.csv","","299.90000009536743","resources/trios/L2T2A1.jpg","39","restless",0.3,0.9,0.6,0.514904750744871,"true"
"image-keyboard-response",138,154888,"0.0-3.42-1.42","976hzrbpj6n1lo2",975,"98.csv","","null","resources/maskTrios/BBA1.jpg","null","",NA,NA,NA,NA,""
"image-keyboard-response",139,156097,"0.0-3.42-2.42","976hzrbpj6n1lo2",975,"98.csv","","null","resources/images/coin2.png","null","",NA,NA,NA,NA,""
"image-keyboard-response",140,156469,"0.0-3.43-0.43","976hzrbpj6n1lo2",975,"98.csv","","368.7999999523163","resources/trios/L1T2A1.jpg","38","restless",0.3,0.9,0.6,0.668059241127052,"true"
"image-keyboard-response",141,156874,"0.0-3.43-1.43","976hzrbpj6n1lo2",975,"98.csv","","null","resources/maskTrios/BT2B.jpg","null","",NA,NA,NA,NA,""
"image-keyboard-response",142,158081,"0.0-3.43-2.43","976hzrbpj6n1lo2",975,"98.csv","","null","resources/images/coin2.png","null","",NA,NA,NA,NA,""
"image-keyboard-response",143,158355,"0.0-3.44-0.44","976hzrbpj6n1lo2",975,"98.csv","","271.7000000476837","resources/trios/L1T2A3.jpg","39","restless",0.3,0.9,0.6,0.2105621764273,"true"
"image-keyboard-response",144,158758,"0.0-3.44-1.44","976hzrbpj6n1lo2",975,"98.csv","","null","resources/maskTrios/BBA3.jpg","null","",NA,NA,NA,NA,""
"image-keyboard-response",145,159960,"0.0-3.44-2.44","976hzrbpj6n1lo2",975,"98.csv","","null","resources/images/coin2.png","null","",NA,NA,NA,NA,""
"image-keyboard-response",146,160336,"0.0-3.45-0.45","976hzrbpj6n1lo2",975,"98.csv","","373.2999999523163","resources/trios/L1T2A3.jpg","39","restless",0.3,0.9,0.6,0.980108481449059,"false"
"image-keyboard-response",147,160740,"0.0-3.45-1.45","976hzrbpj6n1lo2",975,"98.csv","","null","resources/maskTrios/BBA3.jpg","null","",NA,NA,NA,NA,""
"image-keyboard-response",148,161946,"0.0-3.45-2.45","976hzrbpj6n1lo2",975,"98.csv","","null","resources/images/fishbone.png","null","",NA,NA,NA,NA,""
"image-keyboard-response",149,162227,"0.0-3.46-0.46","976hzrbpj6n1lo2",975,"98.csv","","279.5","resources/trios/L1T2A3.jpg","38","restless",0.3,0.9,0.6,0.819494739372593,"true"
"image-keyboard-response",150,162633,"0.0-3.46-1.46","976hzrbpj6n1lo2",975,"98.csv","","null","resources/maskTrios/BT2B.jpg","null","",NA,NA,NA,NA,""
"image-keyboard-response",151,163840,"0.0-3.46-2.46","976hzrbpj6n1lo2",975,"98.csv","","null","resources/images/coin2.png","null","",NA,NA,NA,NA,""
"image-keyboard-response",152,164171,"0.0-3.47-0.47","976hzrbpj6n1lo2",975,"98.csv","","329.7000000476837","resources/trios/L1T1A3.jpg","39","restless",0.3,0.9,0.6,0.498925910710469,"true"
"image-keyboard-response",153,164578,"0.0-3.47-1.47","976hzrbpj6n1lo2",975,"98.csv","","null","resources/maskTrios/BBA3.jpg","null","",NA,NA,NA,NA,""
"image-keyboard-response",154,165786,"0.0-3.47-2.47","976hzrbpj6n1lo2",975,"98.csv","","null","resources/images/coin2.png","null","",NA,NA,NA,NA,""
"image-keyboard-response",155,166091,"0.0-3.48-0.48","976hzrbpj6n1lo2",975,"98.csv","","302.89999985694885","resources/trios/L2T2A1.jpg","39","restless",0.3,0.9,0.6,0.772799969555968,"false"
"image-keyboard-response",156,166499,"0.0-3.48-1.48","976hzrbpj6n1lo2",975,"98.csv","","null","resources/maskTrios/BBA1.jpg","null","",NA,NA,NA,NA,""
"image-keyboard-response",157,167706,"0.0-3.48-2.48","976hzrbpj6n1lo2",975,"98.csv","","null","resources/images/fishbone.png","null","",NA,NA,NA,NA,""
"image-keyboard-response",158,167993,"0.0-3.49-0.49","976hzrbpj6n1lo2",975,"98.csv","","284.90000009536743","resources/trios/L2T1A1.jpg","38","restless",0.3,0.8,0.6,0.973544338297484,"false"
"image-keyboard-response",159,168402,"0.0-3.49-1.49","976hzrbpj6n1lo2",975,"98.csv","","null","resources/maskTrios/BT1B.jpg","null","",NA,NA,NA,NA,""
"image-keyboard-response",160,169610,"0.0-3.49-2.49","976hzrbpj6n1lo2",975,"98.csv","","null","resources/images/fishbone.png","null","",NA,NA,NA,NA,""
"image-keyboard-response",161,169914,"0.0-3.50-0.50","976hzrbpj6n1lo2",975,"98.csv","","301.7999999523163","resources/trios/L1T2A3.jpg","37","restless",0.3,0.8,0.6,0.925780071464923,"false"
"image-keyboard-response",162,170317,"0.0-3.50-1.50","976hzrbpj6n1lo2",975,"98.csv","","null","resources/maskTrios/L1BB.jpg","null","",NA,NA,NA,NA,""
"image-keyboard-response",163,171518,"0.0-3.50-2.50","976hzrbpj6n1lo2",975,"98.csv","","null","resources/images/fishbone.png","null","",NA,NA,NA,NA,""
"image-keyboard-response",164,171846,"0.0-3.51-0.51","976hzrbpj6n1lo2",975,"98.csv","","325.30000019073486","resources/trios/L2T2A1.jpg","38","restless",0.3,0.7,0.6,0.428193953571072,"true"
"image-keyboard-response",165,172250,"0.0-3.51-1.51","976hzrbpj6n1lo2",975,"98.csv","","null","resources/maskTrios/BT2B.jpg","null","",NA,NA,NA,NA,""
"image-keyboard-response",166,173459,"0.0-3.51-2.51","976hzrbpj6n1lo2",975,"98.csv","","null","resources/images/coin2.png","null","",NA,NA,NA,NA,""
"image-keyboard-response",167,173744,"0.0-3.52-0.52","976hzrbpj6n1lo2",975,"98.csv","","283","resources/trios/L2T1A3.jpg","39","restless",0.3,0.7,0.6,0.974031605896003,"false"
"image-keyboard-response",168,174152,"0.0-3.52-1.52","976hzrbpj6n1lo2",975,"98.csv","","null","resources/maskTrios/BBA3.jpg","null","",NA,NA,NA,NA,""
"image-keyboard-response",169,175356,"0.0-3.52-2.52","976hzrbpj6n1lo2",975,"98.csv","","null","resources/images/fishbone.png","null","",NA,NA,NA,NA,""
"image-keyboard-response",170,175672,"0.0-3.53-0.53","976hzrbpj6n1lo2",975,"98.csv","","314.19999980926514","resources/trios/L2T1A3.jpg","38","restless",0.3,0.7,0.6,0.0997370672823568,"true"
"image-keyboard-response",171,176074,"0.0-3.53-1.53","976hzrbpj6n1lo2",975,"98.csv","","null","resources/maskTrios/BT1B.jpg","null","",NA,NA,NA,NA,""
"image-keyboard-response",172,177283,"0.0-3.53-2.53","976hzrbpj6n1lo2",975,"98.csv","","null","resources/images/coin2.png","null","",NA,NA,NA,NA,""
"image-keyboard-response",173,177718,"0.0-3.54-0.54","976hzrbpj6n1lo2",975,"98.csv","","433.7000000476837","resources/trios/L1T2A3.jpg","39","restless",0.3,0.7,0.6,0.848853208652402,"false"
"image-keyboard-response",174,178126,"0.0-3.54-1.54","976hzrbpj6n1lo2",975,"98.csv","","null","resources/maskTrios/BBA3.jpg","null","",NA,NA,NA,NA,""
"image-keyboard-response",175,179329,"0.0-3.54-2.54","976hzrbpj6n1lo2",975,"98.csv","","null","resources/images/fishbone.png","null","",NA,NA,NA,NA,""
"image-keyboard-response",176,179610,"0.0-3.55-0.55","976hzrbpj6n1lo2",975,"98.csv","","279","resources/trios/L2T2A3.jpg","38","restless",0.3,0.7,0.6,0.365293623791986,"true"
"image-keyboard-response",177,180014,"0.0-3.55-1.55","976hzrbpj6n1lo2",975,"98.csv","","null","resources/maskTrios/BT2B.jpg","null","",NA,NA,NA,NA,""
"image-keyboard-response",178,181221,"0.0-3.55-2.55","976hzrbpj6n1lo2",975,"98.csv","","null","resources/images/coin2.png","null","",NA,NA,NA,NA,""
"image-keyboard-response",179,181520,"0.0-3.56-0.56","976hzrbpj6n1lo2",975,"98.csv","","296.89999985694885","resources/trios/L2T2A3.jpg","39","restless",0.3,0.7,0.6,0.993482368850132,"false"
"image-keyboard-response",180,181922,"0.0-3.56-1.56","976hzrbpj6n1lo2",975,"98.csv","","null","resources/maskTrios/BBA3.jpg","null","",NA,NA,NA,NA,""
"image-keyboard-response",181,183130,"0.0-3.56-2.56","976hzrbpj6n1lo2",975,"98.csv","","null","resources/images/fishbone.png","null","",NA,NA,NA,NA,""
"image-keyboard-response",182,183358,"0.0-3.57-0.57","976hzrbpj6n1lo2",975,"98.csv","","225.79999995231628","resources/trios/L2T2A3.jpg","38","restless",0.3,0.7,0.6,0.700625273722813,"false"
"image-keyboard-response",183,183761,"0.0-3.57-1.57","976hzrbpj6n1lo2",975,"98.csv","","null","resources/maskTrios/BT2B.jpg","null","",NA,NA,NA,NA,""
"image-keyboard-response",184,184966,"0.0-3.57-2.57","976hzrbpj6n1lo2",975,"98.csv","","null","resources/images/fishbone.png","null","",NA,NA,NA,NA,""
"image-keyboard-response",185,185242,"0.0-3.58-0.58","976hzrbpj6n1lo2",975,"98.csv","","274.19999980926514","resources/trios/L2T2A3.jpg","37","restless",0.3,0.7,0.6,0.0184205970275542,"true"
"image-keyboard-response",186,185651,"0.0-3.58-1.58","976hzrbpj6n1lo2",975,"98.csv","","null","resources/maskTrios/L2BB.jpg","null","",NA,NA,NA,NA,""
"image-keyboard-response",187,186860,"0.0-3.58-2.58","976hzrbpj6n1lo2",975,"98.csv","","null","resources/images/coin2.png","null","",NA,NA,NA,NA,""
"image-keyboard-response",188,187058,"0.0-3.59-0.59","976hzrbpj6n1lo2",975,"98.csv","","196.39999985694885","resources/trios/L1T2A1.jpg","39","restless",0.3,0.7,0.6,0.0878167363057891,"true"
"image-keyboard-response",189,187467,"0.0-3.59-1.59","976hzrbpj6n1lo2",975,"98.csv","","null","resources/maskTrios/BBA1.jpg","null","",NA,NA,NA,NA,""
"image-keyboard-response",190,188670,"0.0-3.59-2.59","976hzrbpj6n1lo2",975,"98.csv","","null","resources/images/coin2.png","null","",NA,NA,NA,NA,""
"image-keyboard-response",191,189613,"0.0-3.60-0.60","976hzrbpj6n1lo2",975,"98.csv","","940.6000001430511","resources/trios/L2T2A1.jpg","38","restless",0.3,0.7,0.5,0.580735700539855,"true"
"image-keyboard-response",192,190021,"0.0-3.60-1.60","976hzrbpj6n1lo2",975,"98.csv","","null","resources/maskTrios/BT2B.jpg","null","",NA,NA,NA,NA,""
"image-keyboard-response",193,191226,"0.0-3.60-2.60","976hzrbpj6n1lo2",975,"98.csv","","null","resources/images/coin2.png","null","",NA,NA,NA,NA,""
"image-keyboard-response",194,192586,"0.0-3.61-0.61","976hzrbpj6n1lo2",975,"98.csv","","1358.0999999046326","resources/trios/L1T2A3.jpg","39","restless",0.3,0.6,0.6,0.396986004022076,"true"
"image-keyboard-response",195,192995,"0.0-3.61-1.61","976hzrbpj6n1lo2",975,"98.csv","","null","resources/maskTrios/BBA3.jpg","null","",NA,NA,NA,NA,""
"image-keyboard-response",196,194198,"0.0-3.61-2.61","976hzrbpj6n1lo2",975,"98.csv","","null","resources/images/coin2.png","null","",NA,NA,NA,NA,""
"image-keyboard-response",197,194584,"0.0-3.62-0.62","976hzrbpj6n1lo2",975,"98.csv","","384","resources/trios/L1T1A3.jpg","38","restless",0.3,0.6,0.6,0.91897175913301,"false"
"image-keyboard-response",198,194991,"0.0-3.62-1.62","976hzrbpj6n1lo2",975,"98.csv","","null","resources/maskTrios/BT1B.jpg","null","",NA,NA,NA,NA,""
"image-keyboard-response",199,196195,"0.0-3.62-2.62","976hzrbpj6n1lo2",975,"98.csv","","null","resources/images/fishbone.png","null","",NA,NA,NA,NA,""
"image-keyboard-response",200,196583,"0.0-3.63-0.63","976hzrbpj6n1lo2",975,"98.csv","","386.09999990463257","resources/trios/L1T2A1.jpg","39","restless",0.2,0.6,0.6,0.960507536782263,"false"
"image-keyboard-response",201,196987,"0.0-3.63-1.63","976hzrbpj6n1lo2",975,"98.csv","","null","resources/maskTrios/BBA1.jpg","null","",NA,NA,NA,NA,""
"image-keyboard-response",202,198192,"0.0-3.63-2.63","976hzrbpj6n1lo2",975,"98.csv","","null","resources/images/fishbone.png","null","",NA,NA,NA,NA,""
"image-keyboard-response",203,198578,"0.0-3.64-0.64","976hzrbpj6n1lo2",975,"98.csv","","384.40000009536743","resources/trios/L2T2A1.jpg","37","restless",0.2,0.6,0.7,0.293637281397672,"false"
"image-keyboard-response",204,198983,"0.0-3.64-1.64","976hzrbpj6n1lo2",975,"98.csv","","null","resources/maskTrios/L2BB.jpg","null","",NA,NA,NA,NA,""
"image-keyboard-response",205,200186,"0.0-3.64-2.64","976hzrbpj6n1lo2",975,"98.csv","","null","resources/images/fishbone.png","null","",NA,NA,NA,NA,""
"image-keyboard-response",206,202018,"0.0-3.65-0.65","976hzrbpj6n1lo2",975,"98.csv","","1829.8999998569489","resources/trios/L2T2A3.jpg","39","restless",0.2,0.6,0.7,0.514885932950431,"true"
"image-keyboard-response",207,202424,"0.0-3.65-1.65","976hzrbpj6n1lo2",975,"98.csv","","null","resources/maskTrios/BBA3.jpg","null","",NA,NA,NA,NA,""
"image-keyboard-response",208,203634,"0.0-3.65-2.65","976hzrbpj6n1lo2",975,"98.csv","","null","resources/images/coin2.png","null","",NA,NA,NA,NA,""
"image-keyboard-response",209,205604,"0.0-3.66-0.66","976hzrbpj6n1lo2",975,"98.csv","","1968.2999999523163","resources/trios/L1T2A1.jpg","39","restless",0.2,0.6,0.7,0.686185250834923,"true"
"image-keyboard-response",210,206008,"0.0-3.66-1.66","976hzrbpj6n1lo2",975,"98.csv","","null","resources/maskTrios/BBA1.jpg","null","",NA,NA,NA,NA,""
"image-keyboard-response",211,207213,"0.0-3.66-2.66","976hzrbpj6n1lo2",975,"98.csv","","null","resources/images/coin2.png","null","",NA,NA,NA,NA,""
"image-keyboard-response",212,207971,"0.0-3.67-0.67","976hzrbpj6n1lo2",975,"98.csv","","755.9000000953674","resources/trios/L2T2A3.jpg","39","restless",0.2,0.6,0.7,0.130848536858282,"true"
"image-keyboard-response",213,208379,"0.0-3.67-1.67","976hzrbpj6n1lo2",975,"98.csv","","null","resources/maskTrios/BBA3.jpg","null","",NA,NA,NA,NA,""
"image-keyboard-response",214,209586,"0.0-3.67-2.67","976hzrbpj6n1lo2",975,"98.csv","","null","resources/images/coin2.png","null","",NA,NA,NA,NA,""
"image-keyboard-response",215,210095,"0.0-3.68-0.68","976hzrbpj6n1lo2",975,"98.csv","","507.7999999523163","resources/trios/L2T1A1.jpg","38","restless",0.2,0.6,0.7,0.961060423715747,"false"
"image-keyboard-response",216,210499,"0.0-3.68-1.68","976hzrbpj6n1lo2",975,"98.csv","","null","resources/maskTrios/BT1B.jpg","null","",NA,NA,NA,NA,""
"image-keyboard-response",217,211706,"0.0-3.68-2.68","976hzrbpj6n1lo2",975,"98.csv","","null","resources/images/fishbone.png","null","",NA,NA,NA,NA,""
"image-keyboard-response",218,212276,"0.0-3.69-0.69","976hzrbpj6n1lo2",975,"98.csv","","567.9000000953674","resources/trios/L1T1A3.jpg","39","restless",0.2,0.6,0.7,0.0353102283877442,"true"
"image-keyboard-response",219,212681,"0.0-3.69-1.69","976hzrbpj6n1lo2",975,"98.csv","","null","resources/maskTrios/BBA3.jpg","null","",NA,NA,NA,NA,""
"image-keyboard-response",220,213889,"0.0-3.69-2.69","976hzrbpj6n1lo2",975,"98.csv","","null","resources/images/coin2.png","null","",NA,NA,NA,NA,""
"image-keyboard-response",221,214442,"0.0-3.70-0.70","976hzrbpj6n1lo2",975,"98.csv","","550.5999999046326","resources/trios/L2T1A1.jpg","39","restless",0.3,0.6,0.7,0.74503937508172,"false"
"image-keyboard-response",222,214844,"0.0-3.70-1.70","976hzrbpj6n1lo2",975,"98.csv","","null","resources/maskTrios/BBA1.jpg","null","",NA,NA,NA,NA,""
"image-keyboard-response",223,216052,"0.0-3.70-2.70","976hzrbpj6n1lo2",975,"98.csv","","null","resources/images/fishbone.png","null","",NA,NA,NA,NA,""
"image-keyboard-response",224,217013,"0.0-3.71-0.71","976hzrbpj6n1lo2",975,"98.csv","","958.9000000953674","resources/trios/L1T2A1.jpg","39","restless",0.3,0.5,0.7,0.0425854407541295,"true"
"image-keyboard-response",225,217420,"0.0-3.71-1.71","976hzrbpj6n1lo2",975,"98.csv","","null","resources/maskTrios/BBA1.jpg","null","",NA,NA,NA,NA,""
"image-keyboard-response",226,218627,"0.0-3.71-2.71","976hzrbpj6n1lo2",975,"98.csv","","null","resources/images/coin2.png","null","",NA,NA,NA,NA,""
"image-keyboard-response",227,218981,"0.0-3.72-0.72","976hzrbpj6n1lo2",975,"98.csv","","352.2999999523163","resources/trios/L2T2A3.jpg","38","restless",0.4,0.5,0.7,0.446955079789433,"true"
"image-keyboard-response",228,219388,"0.0-3.72-1.72","976hzrbpj6n1lo2",975,"98.csv","","null","resources/maskTrios/BT2B.jpg","null","",NA,NA,NA,NA,""
"image-keyboard-response",229,220590,"0.0-3.72-2.72","976hzrbpj6n1lo2",975,"98.csv","","null","resources/images/coin2.png","null","",NA,NA,NA,NA,""
"image-keyboard-response",230,221091,"0.0-3.73-0.73","976hzrbpj6n1lo2",975,"98.csv","","498.7999999523163","resources/trios/L1T1A3.jpg","39","restless",0.4,0.5,0.7,0.745546289249408,"false"
"image-keyboard-response",231,221497,"0.0-3.73-1.73","976hzrbpj6n1lo2",975,"98.csv","","null","resources/maskTrios/BBA3.jpg","null","",NA,NA,NA,NA,""
"image-keyboard-response",232,222704,"0.0-3.73-2.73","976hzrbpj6n1lo2",975,"98.csv","","null","resources/images/fishbone.png","null","",NA,NA,NA,NA,""
"image-keyboard-response",233,223729,"0.0-3.74-0.74","976hzrbpj6n1lo2",975,"98.csv","","1022.5","resources/trios/L2T2A3.jpg","38","restless",0.4,0.5,0.6,0.439643659149591,"true"
"image-keyboard-response",234,224137,"0.0-3.74-1.74","976hzrbpj6n1lo2",975,"98.csv","","null","resources/maskTrios/BT2B.jpg","null","",NA,NA,NA,NA,""
"image-keyboard-response",235,225344,"0.0-3.74-2.74","976hzrbpj6n1lo2",975,"98.csv","","null","resources/images/coin2.png","null","",NA,NA,NA,NA,""
"image-keyboard-response",236,225761,"0.0-3.75-0.75","976hzrbpj6n1lo2",975,"98.csv","","415.10000014305115","resources/trios/L1T2A1.jpg","38","restless",0.4,0.5,0.5,0.640568959848398,"false"
"image-keyboard-response",237,226168,"0.0-3.75-1.75","976hzrbpj6n1lo2",975,"98.csv","","null","resources/maskTrios/BT2B.jpg","null","",NA,NA,NA,NA,""
"image-keyboard-response",238,227375,"0.0-3.75-2.75","976hzrbpj6n1lo2",975,"98.csv","","null","resources/images/fishbone.png","null","",NA,NA,NA,NA,""
"image-keyboard-response",239,227759,"0.0-3.76-0.76","976hzrbpj6n1lo2",975,"98.csv","","382.39999985694885","resources/trios/L2T1A3.jpg","39","restless",0.5,0.5,0.5,0.527199257065135,"false"
"image-keyboard-response",240,228163,"0.0-3.76-1.76","976hzrbpj6n1lo2",975,"98.csv","","null","resources/maskTrios/BBA3.jpg","null","",NA,NA,NA,NA,""
"image-keyboard-response",241,229367,"0.0-3.76-2.76","976hzrbpj6n1lo2",975,"98.csv","","null","resources/images/fishbone.png","null","",NA,NA,NA,NA,""
"image-keyboard-response",242,229376,"0.0-3.77-0.77","976hzrbpj6n1lo2",975,"98.csv","","7.799999952316284","resources/trios/L2T1A3.jpg","39","restless",0.5,0.5,0.5,0.985299191288386,"false"
"image-keyboard-response",243,229783,"0.0-3.77-1.77","976hzrbpj6n1lo2",975,"98.csv","","null","resources/maskTrios/BBA3.jpg","null","",NA,NA,NA,NA,""
"image-keyboard-response",244,230991,"0.0-3.77-2.77","976hzrbpj6n1lo2",975,"98.csv","","null","resources/images/fishbone.png","null","",NA,NA,NA,NA,""
"image-keyboard-response",245,231850,"0.0-3.78-0.78","976hzrbpj6n1lo2",975,"98.csv","","857.1000001430511","resources/trios/L2T2A1.jpg","39","restless",0.5,0.5,0.5,0.34646107105961,"true"
"image-keyboard-response",246,232257,"0.0-3.78-1.78","976hzrbpj6n1lo2",975,"98.csv","","null","resources/maskTrios/BBA1.jpg","null","",NA,NA,NA,NA,""
"image-keyboard-response",247,233465,"0.0-3.78-2.78","976hzrbpj6n1lo2",975,"98.csv","","null","resources/images/coin2.png","null","",NA,NA,NA,NA,""
"image-keyboard-response",248,233605,"0.0-3.79-0.79","976hzrbpj6n1lo2",975,"98.csv","","138.29999995231628","resources/trios/L1T1A1.jpg","39","restless",0.5,0.5,0.5,0.437747157932353,"true"
"image-keyboard-response",249,234010,"0.0-3.79-1.79","976hzrbpj6n1lo2",975,"98.csv","","null","resources/maskTrios/BBA1.jpg","null","",NA,NA,NA,NA,""
"image-keyboard-response",250,235214,"0.0-3.79-2.79","976hzrbpj6n1lo2",975,"98.csv","","null","resources/images/coin2.png","null","",NA,NA,NA,NA,""
"image-keyboard-response",251,235834,"0.0-3.80-0.80","976hzrbpj6n1lo2",975,"98.csv","","617.2000000476837","resources/trios/L1T1A3.jpg","39","restless",0.5,0.5,0.5,0.744904109499596,"false"
"image-keyboard-response",252,236239,"0.0-3.80-1.80","976hzrbpj6n1lo2",975,"98.csv","","null","resources/maskTrios/BBA3.jpg","null","",NA,NA,NA,NA,""
"image-keyboard-response",253,237441,"0.0-3.80-2.80","976hzrbpj6n1lo2",975,"98.csv","","null","resources/images/fishbone.png","null","",NA,NA,NA,NA,""
"image-keyboard-response",254,239755,"0.0-3.81-0.81","976hzrbpj6n1lo2",975,"98.csv","","2311.7000000476837","resources/trios/L2T1A1.jpg","38","restless",0.5,0.5,0.5,0.351749791419385,"true"
"image-keyboard-response",255,240161,"0.0-3.81-1.81","976hzrbpj6n1lo2",975,"98.csv","","null","resources/maskTrios/BT1B.jpg","null","",NA,NA,NA,NA,""
"image-keyboard-response",256,241368,"0.0-3.81-2.81","976hzrbpj6n1lo2",975,"98.csv","","null","resources/images/coin2.png","null","",NA,NA,NA,NA,""
"image-keyboard-response",257,241459,"0.0-3.82-0.82","976hzrbpj6n1lo2",975,"98.csv","","89","resources/trios/L1T1A3.jpg","39","restless",0.5,0.5,0.5,0.85236904735462,"false"
"image-keyboard-response",258,241860,"0.0-3.82-1.82","976hzrbpj6n1lo2",975,"98.csv","","null","resources/maskTrios/BBA3.jpg","null","",NA,NA,NA,NA,""
"image-keyboard-response",259,243063,"0.0-3.82-2.82","976hzrbpj6n1lo2",975,"98.csv","","null","resources/images/fishbone.png","null","",NA,NA,NA,NA,""
"image-keyboard-response",260,243399,"0.0-3.83-0.83","976hzrbpj6n1lo2",975,"98.csv","","333.7000000476837","resources/trios/L2T1A3.jpg","39","restless",0.5,0.6,0.5,0.460187246298275,"true"
"image-keyboard-response",261,243800,"0.0-3.83-1.83","976hzrbpj6n1lo2",975,"98.csv","","null","resources/maskTrios/BBA3.jpg","null","",NA,NA,NA,NA,""
"image-keyboard-response",262,245003,"0.0-3.83-2.83","976hzrbpj6n1lo2",975,"98.csv","","null","resources/images/coin2.png","null","",NA,NA,NA,NA,""
"image-keyboard-response",263,245946,"0.0-3.84-0.84","976hzrbpj6n1lo2",975,"98.csv","","941.5999999046326","resources/trios/L1T2A3.jpg","39","restless",0.5,0.6,0.5,0.344706413295283,"true"
"image-keyboard-response",264,246353,"0.0-3.84-1.84","976hzrbpj6n1lo2",975,"98.csv","","null","resources/maskTrios/BBA3.jpg","null","",NA,NA,NA,NA,""
"image-keyboard-response",265,247559,"0.0-3.84-2.84","976hzrbpj6n1lo2",975,"98.csv","","null","resources/images/coin2.png","null","",NA,NA,NA,NA,""
"image-keyboard-response",266,248763,"0.0-3.85-0.85","976hzrbpj6n1lo2",975,"98.csv","","1202.4000000953674","resources/trios/L1T1A3.jpg","38","restless",0.5,0.6,0.5,0.842238402186365,"false"
"image-keyboard-response",267,249166,"0.0-3.85-1.85","976hzrbpj6n1lo2",975,"98.csv","","null","resources/maskTrios/BT1B.jpg","null","",NA,NA,NA,NA,""
"image-keyboard-response",268,250370,"0.0-3.85-2.85","976hzrbpj6n1lo2",975,"98.csv","","null","resources/images/fishbone.png","null","",NA,NA,NA,NA,""
"image-keyboard-response",269,250940,"0.0-3.86-0.86","976hzrbpj6n1lo2",975,"98.csv","","568.5","resources/trios/L1T1A3.jpg","39","restless",0.5,0.6,0.5,0.718786137569495,"false"
"image-keyboard-response",270,251347,"0.0-3.86-1.86","976hzrbpj6n1lo2",975,"98.csv","","null","resources/maskTrios/BBA3.jpg","null","",NA,NA,NA,NA,""
"image-keyboard-response",271,252554,"0.0-3.86-2.86","976hzrbpj6n1lo2",975,"98.csv","","null","resources/images/fishbone.png","null","",NA,NA,NA,NA,""
"image-keyboard-response",272,253246,"0.0-3.87-0.87","976hzrbpj6n1lo2",975,"98.csv","","690.2999999523163","resources/trios/L2T2A1.jpg","39","restless",0.5,0.6,0.5,0.330992018818392,"true"
"image-keyboard-response",273,253651,"0.0-3.87-1.87","976hzrbpj6n1lo2",975,"98.csv","","null","resources/maskTrios/BBA1.jpg","null","",NA,NA,NA,NA,""
"image-keyboard-response",274,254860,"0.0-3.87-2.87","976hzrbpj6n1lo2",975,"98.csv","","null","resources/images/coin2.png","null","",NA,NA,NA,NA,""
"image-keyboard-response",275,255249,"0.0-3.88-0.88","976hzrbpj6n1lo2",975,"98.csv","","386.7999999523163","resources/trios/L2T1A3.jpg","38","restless",0.5,0.6,0.5,0.491058935237171,"true"
"image-keyboard-response",276,255651,"0.0-3.88-1.88","976hzrbpj6n1lo2",975,"98.csv","","null","resources/maskTrios/BT1B.jpg","null","",NA,NA,NA,NA,""
"image-keyboard-response",277,256860,"0.0-3.88-2.88","976hzrbpj6n1lo2",975,"98.csv","","null","resources/images/coin2.png","null","",NA,NA,NA,NA,""
"image-keyboard-response",278,258115,"0.0-3.89-0.89","976hzrbpj6n1lo2",975,"98.csv","","1253.2999999523163","resources/trios/L1T2A3.jpg","39","restless",0.5,0.6,0.5,0.235294616768391,"true"
"image-keyboard-response",279,258517,"0.0-3.89-1.89","976hzrbpj6n1lo2",975,"98.csv","","null","resources/maskTrios/BBA3.jpg","null","",NA,NA,NA,NA,""
"image-keyboard-response",280,259726,"0.0-3.89-2.89","976hzrbpj6n1lo2",975,"98.csv","","null","resources/images/coin2.png","null","",NA,NA,NA,NA,""
"image-keyboard-response",281,260328,"0.0-3.90-0.90","976hzrbpj6n1lo2",975,"98.csv","","600.5","resources/trios/L2T1A1.jpg","39","restless",0.5,0.6,0.5,0.0264429764614538,"true"
"image-keyboard-response",282,260731,"0.0-3.90-1.90","976hzrbpj6n1lo2",975,"98.csv","","null","resources/maskTrios/BBA1.jpg","null","",NA,NA,NA,NA,""
"image-keyboard-response",283,261935,"0.0-3.90-2.90","976hzrbpj6n1lo2",975,"98.csv","","null","resources/images/coin2.png","null","",NA,NA,NA,NA,""
"image-keyboard-response",284,262420,"0.0-3.91-0.91","976hzrbpj6n1lo2",975,"98.csv","","482.7999999523163","resources/trios/L2T1A1.jpg","39","restless",0.6,0.6,0.5,0.692919999769401,"false"
"image-keyboard-response",285,262827,"0.0-3.91-1.91","976hzrbpj6n1lo2",975,"98.csv","","null","resources/maskTrios/BBA1.jpg","null","",NA,NA,NA,NA,""
"image-keyboard-response",286,264033,"0.0-3.91-2.91","976hzrbpj6n1lo2",975,"98.csv","","null","resources/images/fishbone.png","null","",NA,NA,NA,NA,""
"image-keyboard-response",287,264532,"0.0-3.92-0.92","976hzrbpj6n1lo2",975,"98.csv","","497.89999985694885","resources/trios/L1T2A3.jpg","38","restless",0.6,0.5,0.5,0.905430715261779,"false"
"image-keyboard-response",288,264941,"0.0-3.92-1.92","976hzrbpj6n1lo2",975,"98.csv","","null","resources/maskTrios/BT2B.jpg","null","",NA,NA,NA,NA,""
"image-keyboard-response",289,266149,"0.0-3.92-2.92","976hzrbpj6n1lo2",975,"98.csv","","null","resources/images/fishbone.png","null","",NA,NA,NA,NA,""
"image-keyboard-response",290,266238,"0.0-3.93-0.93","976hzrbpj6n1lo2",975,"98.csv","","86.90000009536743","resources/trios/L2T1A1.jpg","37","restless",0.6,0.4,0.5,0.807873108130556,"false"
"image-keyboard-response",291,266643,"0.0-3.93-1.93","976hzrbpj6n1lo2",975,"98.csv","","null","resources/maskTrios/L2BB.jpg","null","",NA,NA,NA,NA,""
"image-keyboard-response",292,267851,"0.0-3.93-2.93","976hzrbpj6n1lo2",975,"98.csv","","null","resources/images/fishbone.png","null","",NA,NA,NA,NA,""
"image-keyboard-response",293,268652,"0.0-3.94-0.94","976hzrbpj6n1lo2",975,"98.csv","","798.6999998092651","resources/trios/L1T2A3.jpg","39","restless",0.6,0.4,0.5,0.730576918182536,"false"
"image-keyboard-response",294,269054,"0.0-3.94-1.94","976hzrbpj6n1lo2",975,"98.csv","","null","resources/maskTrios/BBA3.jpg","null","",NA,NA,NA,NA,""
"image-keyboard-response",295,270256,"0.0-3.94-2.94","976hzrbpj6n1lo2",975,"98.csv","","null","resources/images/fishbone.png","null","",NA,NA,NA,NA,""
"image-keyboard-response",296,270483,"0.0-3.95-0.95","976hzrbpj6n1lo2",975,"98.csv","","225.29999995231628","resources/trios/L1T1A3.jpg","38","restless",0.6,0.4,0.5,0.527246524746869,"false"
"image-keyboard-response",297,270886,"0.0-3.95-1.95","976hzrbpj6n1lo2",975,"98.csv","","null","resources/maskTrios/BT1B.jpg","null","",NA,NA,NA,NA,""
"image-keyboard-response",298,272093,"0.0-3.95-2.95","976hzrbpj6n1lo2",975,"98.csv","","null","resources/images/fishbone.png","null","",NA,NA,NA,NA,""
"image-keyboard-response",299,272196,"0.0-3.96-0.96","976hzrbpj6n1lo2",975,"98.csv","","101.39999985694885","resources/trios/L2T1A1.jpg","39","restless",0.6,0.4,0.5,0.446353080614126,"true"
"image-keyboard-response",300,272601,"0.0-3.96-1.96","976hzrbpj6n1lo2",975,"98.csv","","null","resources/maskTrios/BBA1.jpg","null","",NA,NA,NA,NA,""
"image-keyboard-response",301,273805,"0.0-3.96-2.96","976hzrbpj6n1lo2",975,"98.csv","","null","resources/images/coin2.png","null","",NA,NA,NA,NA,""
"image-keyboard-response",302,274178,"0.0-3.97-0.97","976hzrbpj6n1lo2",975,"98.csv","","371.60000014305115","resources/trios/L2T1A3.jpg","38","restless",0.6,0.4,0.5,0.0224822340004618,"true"
"image-keyboard-response",303,274581,"0.0-3.97-1.97","976hzrbpj6n1lo2",975,"98.csv","","null","resources/maskTrios/BT1B.jpg","null","",NA,NA,NA,NA,""
"image-keyboard-response",304,275783,"0.0-3.97-2.97","976hzrbpj6n1lo2",975,"98.csv","","null","resources/images/coin2.png","null","",NA,NA,NA,NA,""
"image-keyboard-response",305,275885,"0.0-3.98-0.98","976hzrbpj6n1lo2",975,"98.csv","","100.10000014305115","resources/trios/L2T2A1.jpg","39","restless",0.6,0.4,0.5,0.0828429124083929,"true"
"image-keyboard-response",306,276287,"0.0-3.98-1.98","976hzrbpj6n1lo2",975,"98.csv","","null","resources/maskTrios/BBA1.jpg","null","",NA,NA,NA,NA,""
"image-keyboard-response",307,277491,"0.0-3.98-2.98","976hzrbpj6n1lo2",975,"98.csv","","null","resources/images/coin2.png","null","",NA,NA,NA,NA,""
"image-keyboard-response",308,278019,"0.0-3.99-0.99","976hzrbpj6n1lo2",975,"98.csv","","526","resources/trios/L2T1A3.jpg","39","restless",0.6,0.4,0.5,0.266774953862247,"true"
"image-keyboard-response",309,278424,"0.0-3.99-1.99","976hzrbpj6n1lo2",975,"98.csv","","null","resources/maskTrios/BBA3.jpg","null","",NA,NA,NA,NA,""
"image-keyboard-response",310,279626,"0.0-3.99-2.99","976hzrbpj6n1lo2",975,"98.csv","","null","resources/images/coin2.png","null","",NA,NA,NA,NA,""
"image-keyboard-response",311,280004,"0.0-3.100-0.100","976hzrbpj6n1lo2",975,"98.csv","","376.7000000476837","resources/trios/L2T1A1.jpg","37","restless",0.6,0.4,0.5,0.739008797318238,"false"
"image-keyboard-response",312,280412,"0.0-3.100-1.100","976hzrbpj6n1lo2",975,"98.csv","","null","resources/maskTrios/L2BB.jpg","null","",NA,NA,NA,NA,""
"image-keyboard-response",313,281616,"0.0-3.100-2.100","976hzrbpj6n1lo2",975,"98.csv","","null","resources/images/fishbone.png","null","",NA,NA,NA,NA,""
"image-keyboard-response",314,282143,"0.0-3.101-0.101","976hzrbpj6n1lo2",975,"98.csv","","524.8999998569489","resources/trios/L1T1A1.jpg","38","restless",0.6,0.3,0.5,0.379802188449426,"false"
"image-keyboard-response",315,282548,"0.0-3.101-1.101","976hzrbpj6n1lo2",975,"98.csv","","null","resources/maskTrios/BT1B.jpg","null","",NA,NA,NA,NA,""
"image-keyboard-response",316,283754,"0.0-3.101-2.101","976hzrbpj6n1lo2",975,"98.csv","","null","resources/images/fishbone.png","null","",NA,NA,NA,NA,""
"image-keyboard-response",317,284258,"0.0-3.102-0.102","976hzrbpj6n1lo2",975,"98.csv","","501.80000019073486","resources/trios/L1T1A1.jpg","39","restless",0.6,0.3,0.5,0.0131460478807481,"true"
"image-keyboard-response",318,284663,"0.0-3.102-1.102","976hzrbpj6n1lo2",975,"98.csv","","null","resources/maskTrios/BBA1.jpg","null","",NA,NA,NA,NA,""
"image-keyboard-response",319,285870,"0.0-3.102-2.102","976hzrbpj6n1lo2",975,"98.csv","","null","resources/images/coin2.png","null","",NA,NA,NA,NA,""
"image-keyboard-response",320,286769,"0.0-3.103-0.103","976hzrbpj6n1lo2",975,"98.csv","","897.6000001430511","resources/trios/L2T1A1.jpg","39","restless",0.6,0.3,0.5,0.13637647757426,"true"
"image-keyboard-response",321,287178,"0.0-3.103-1.103","976hzrbpj6n1lo2",975,"98.csv","","null","resources/maskTrios/BBA1.jpg","null","",NA,NA,NA,NA,""
"image-keyboard-response",322,288381,"0.0-3.103-2.103","976hzrbpj6n1lo2",975,"98.csv","","null","resources/images/coin2.png","null","",NA,NA,NA,NA,""
"image-keyboard-response",323,289010,"0.0-3.104-0.104","976hzrbpj6n1lo2",975,"98.csv","","626.9000000953674","resources/trios/L2T1A1.jpg","39","restless",0.6,0.3,0.6,0.226381646512358,"true"
"image-keyboard-response",324,289416,"0.0-3.104-1.104","976hzrbpj6n1lo2",975,"98.csv","","null","resources/maskTrios/BBA1.jpg","null","",NA,NA,NA,NA,""
"image-keyboard-response",325,290625,"0.0-3.104-2.104","976hzrbpj6n1lo2",975,"98.csv","","null","resources/images/coin2.png","null","",NA,NA,NA,NA,""
"image-keyboard-response",326,291015,"0.0-3.105-0.105","976hzrbpj6n1lo2",975,"98.csv","","387.7999999523163","resources/trios/L1T2A3.jpg","38","restless",0.6,0.3,0.7,0.700295518846767,"false"
"image-keyboard-response",327,291421,"0.0-3.105-1.105","976hzrbpj6n1lo2",975,"98.csv","","null","resources/maskTrios/BT2B.jpg","null","",NA,NA,NA,NA,""
"image-keyboard-response",328,292623,"0.0-3.105-2.105","976hzrbpj6n1lo2",975,"98.csv","","null","resources/images/fishbone.png","null","",NA,NA,NA,NA,""
"image-keyboard-response",329,293151,"0.0-3.106-0.106","976hzrbpj6n1lo2",975,"98.csv","","526.2999999523163","resources/trios/L1T1A3.jpg","37","restless",0.6,0.2,0.7,0.464386882445287,"true"
"image-keyboard-response",330,293558,"0.0-3.106-1.106","976hzrbpj6n1lo2",975,"98.csv","","null","resources/maskTrios/L1BB.jpg","null","",NA,NA,NA,NA,""
"image-keyboard-response",331,294761,"0.0-3.106-2.106","976hzrbpj6n1lo2",975,"98.csv","","null","resources/images/coin2.png","null","",NA,NA,NA,NA,""
"image-keyboard-response",332,295107,"0.0-3.107-0.107","976hzrbpj6n1lo2",975,"98.csv","","344.5","resources/trios/L1T1A1.jpg","39","restless",0.7,0.2,0.7,0.936388967465848,"false"
"image-keyboard-response",333,295511,"0.0-3.107-1.107","976hzrbpj6n1lo2",975,"98.csv","","null","resources/maskTrios/BBA1.jpg","null","",NA,NA,NA,NA,""
"image-keyboard-response",334,296718,"0.0-3.107-2.107","976hzrbpj6n1lo2",975,"98.csv","","null","resources/images/fishbone.png","null","",NA,NA,NA,NA,""
"image-keyboard-response",335,297134,"0.0-3.108-0.108","976hzrbpj6n1lo2",975,"98.csv","","414.2999999523163","resources/trios/L1T1A3.jpg","37","restless",0.7,0.2,0.6,0.208071303714197,"true"
"image-keyboard-response",336,297540,"0.0-3.108-1.108","976hzrbpj6n1lo2",975,"98.csv","","null","resources/maskTrios/L1BB.jpg","null","",NA,NA,NA,NA,""
"image-keyboard-response",337,298742,"0.0-3.108-2.108","976hzrbpj6n1lo2",975,"98.csv","","null","resources/images/coin2.png","null","",NA,NA,NA,NA,""
"image-keyboard-response",338,299308,"0.0-3.109-0.109","976hzrbpj6n1lo2",975,"98.csv","","563.7000000476837","resources/trios/L1T2A1.jpg","38","restless",0.7,0.2,0.6,0.751957150290568,"false"
"image-keyboard-response",339,299714,"0.0-3.109-1.109","976hzrbpj6n1lo2",975,"98.csv","","null","resources/maskTrios/BT2B.jpg","null","",NA,NA,NA,NA,""
"image-keyboard-response",340,300918,"0.0-3.109-2.109","976hzrbpj6n1lo2",975,"98.csv","","null","resources/images/fishbone.png","null","",NA,NA,NA,NA,""
"image-keyboard-response",341,301186,"0.0-3.110-0.110","976hzrbpj6n1lo2",975,"98.csv","","266.2999999523163","resources/trios/L2T1A1.jpg","39","restless",0.7,0.2,0.6,0.460438640237518,"true"
"image-keyboard-response",342,301594,"0.0-3.110-1.110","976hzrbpj6n1lo2",975,"98.csv","","null","resources/maskTrios/BBA1.jpg","null","",NA,NA,NA,NA,""
"image-keyboard-response",343,302797,"0.0-3.110-2.110","976hzrbpj6n1lo2",975,"98.csv","","null","resources/images/coin2.png","null","",NA,NA,NA,NA,""
"image-keyboard-response",344,303764,"0.0-3.111-0.111","976hzrbpj6n1lo2",975,"98.csv","","965","resources/trios/L2T2A3.jpg","39","restless",0.7,0.2,0.5,0.62344294118419,"false"
"image-keyboard-response",345,304172,"0.0-3.111-1.111","976hzrbpj6n1lo2",975,"98.csv","","null","resources/maskTrios/BBA3.jpg","null","",NA,NA,NA,NA,""
"image-keyboard-response",346,305377,"0.0-3.111-2.111","976hzrbpj6n1lo2",975,"98.csv","","null","resources/images/fishbone.png","null","",NA,NA,NA,NA,""
"image-keyboard-response",347,305573,"0.0-3.112-0.112","976hzrbpj6n1lo2",975,"98.csv","","192.80000019073486","resources/trios/L1T2A1.jpg","38","restless",0.7,0.2,0.5,0.94905248945611,"false"
"image-keyboard-response",348,305976,"0.0-3.112-1.112","976hzrbpj6n1lo2",975,"98.csv","","null","resources/maskTrios/BT2B.jpg","null","",NA,NA,NA,NA,""
"image-keyboard-response",349,307181,"0.0-3.112-2.112","976hzrbpj6n1lo2",975,"98.csv","","null","resources/images/fishbone.png","null","",NA,NA,NA,NA,""
"image-keyboard-response",350,307585,"0.0-3.113-0.113","976hzrbpj6n1lo2",975,"98.csv","","402.5","resources/trios/L1T1A1.jpg","37","restless",0.7,0.2,0.5,0.95420771284099,"false"
"image-keyboard-response",351,307990,"0.0-3.113-1.113","976hzrbpj6n1lo2",975,"98.csv","","null","resources/maskTrios/L1BB.jpg","null","",NA,NA,NA,NA,""
"image-keyboard-response",352,309195,"0.0-3.113-2.113","976hzrbpj6n1lo2",975,"98.csv","","null","resources/images/fishbone.png","null","",NA,NA,NA,NA,""
"image-keyboard-response",353,309641,"0.0-3.114-0.114","976hzrbpj6n1lo2",975,"98.csv","","444.2999999523163","resources/trios/L1T1A3.jpg","39","restless",0.7,0.2,0.6,0.284560201858602,"true"
"image-keyboard-response",354,310045,"0.0-3.114-1.114","976hzrbpj6n1lo2",975,"98.csv","","null","resources/maskTrios/BBA3.jpg","null","",NA,NA,NA,NA,""
"image-keyboard-response",355,311254,"0.0-3.114-2.114","976hzrbpj6n1lo2",975,"98.csv","","null","resources/images/coin2.png","null","",NA,NA,NA,NA,""
"image-keyboard-response",356,311779,"0.0-3.115-0.115","976hzrbpj6n1lo2",975,"98.csv","","523.4000000953674","resources/trios/L1T1A1.jpg","39","restless",0.7,0.2,0.6,0.493186753849884,"true"
"image-keyboard-response",357,312185,"0.0-3.115-1.115","976hzrbpj6n1lo2",975,"98.csv","","null","resources/maskTrios/BBA1.jpg","null","",NA,NA,NA,NA,""
"image-keyboard-response",358,313391,"0.0-3.115-2.115","976hzrbpj6n1lo2",975,"98.csv","","null","resources/images/coin2.png","null","",NA,NA,NA,NA,""
"image-keyboard-response",359,313602,"0.0-3.116-0.116","976hzrbpj6n1lo2",975,"98.csv","","208.79999995231628","resources/trios/L1T1A1.jpg","38","restless",0.7,0.2,0.6,0.243223439361961,"false"
"image-keyboard-response",360,314008,"0.0-3.116-1.116","976hzrbpj6n1lo2",975,"98.csv","","null","resources/maskTrios/BT1B.jpg","null","",NA,NA,NA,NA,""
"image-keyboard-response",361,315210,"0.0-3.116-2.116","976hzrbpj6n1lo2",975,"98.csv","","null","resources/images/fishbone.png","null","",NA,NA,NA,NA,""
"image-keyboard-response",362,316132,"0.0-3.117-0.117","976hzrbpj6n1lo2",975,"98.csv","","919.2999999523163","resources/trios/L1T2A3.jpg","39","restless",0.7,0.2,0.6,0.467743437651621,"true"
"image-keyboard-response",363,316539,"0.0-3.117-1.117","976hzrbpj6n1lo2",975,"98.csv","","null","resources/maskTrios/BBA3.jpg","null","",NA,NA,NA,NA,""
"image-keyboard-response",364,317746,"0.0-3.117-2.117","976hzrbpj6n1lo2",975,"98.csv","","null","resources/images/coin2.png","null","",NA,NA,NA,NA,""
"image-keyboard-response",365,318435,"0.0-3.118-0.118","976hzrbpj6n1lo2",975,"98.csv","","687.0999999046326","resources/trios/L2T1A1.jpg","39","restless",0.7,0.3,0.6,0.798598207908891,"false"
"image-keyboard-response",366,318844,"0.0-3.118-1.118","976hzrbpj6n1lo2",975,"98.csv","","null","resources/maskTrios/BBA1.jpg","null","",NA,NA,NA,NA,""
"image-keyboard-response",367,320052,"0.0-3.118-2.118","976hzrbpj6n1lo2",975,"98.csv","","null","resources/images/fishbone.png","null","",NA,NA,NA,NA,""
"image-keyboard-response",368,320690,"0.0-3.119-0.119","976hzrbpj6n1lo2",975,"98.csv","","635.2999999523163","resources/trios/L1T1A1.jpg","39","restless",0.7,0.3,0.6,0.603763250719446,"false"
"image-keyboard-response",369,321094,"0.0-3.119-1.119","976hzrbpj6n1lo2",975,"98.csv","","null","resources/maskTrios/BBA1.jpg","null","",NA,NA,NA,NA,""
"image-keyboard-response",370,322301,"0.0-3.119-2.119","976hzrbpj6n1lo2",975,"98.csv","","null","resources/images/fishbone.png","null","",NA,NA,NA,NA,""
"image-keyboard-response",371,322627,"0.0-3.120-0.120","976hzrbpj6n1lo2",975,"98.csv","","323.2999999523163","resources/trios/L2T2A1.jpg","37","restless",0.7,0.3,0.5,0.345508267931904,"true"
"image-keyboard-response",372,323033,"0.0-3.120-1.120","976hzrbpj6n1lo2",975,"98.csv","","null","resources/maskTrios/L2BB.jpg","null","",NA,NA,NA,NA,""
"image-keyboard-response",373,324240,"0.0-3.120-2.120","976hzrbpj6n1lo2",975,"98.csv","","null","resources/images/coin2.png","null","",NA,NA,NA,NA,""
"image-keyboard-response",374,324369,"0.0-3.121-0.121","976hzrbpj6n1lo2",975,"98.csv","","126.59999990463257","resources/trios/L2T2A3.jpg","39","restless",0.7,0.3,0.5,0.282343334253977,"true"
"image-keyboard-response",375,324777,"0.0-3.121-1.121","976hzrbpj6n1lo2",975,"98.csv","","null","resources/maskTrios/BBA3.jpg","null","",NA,NA,NA,NA,""
"image-keyboard-response",376,325981,"0.0-3.121-2.121","976hzrbpj6n1lo2",975,"98.csv","","null","resources/images/coin2.png","null","",NA,NA,NA,NA,""
"image-keyboard-response",377,327563,"0.0-3.122-0.122","976hzrbpj6n1lo2",975,"98.csv","","1580.6000001430511","resources/trios/L1T2A3.jpg","37","restless",0.7,0.3,0.5,0.482153672756094,"true"
"image-keyboard-response",378,327969,"0.0-3.122-1.122","976hzrbpj6n1lo2",975,"98.csv","","null","resources/maskTrios/L1BB.jpg","null","",NA,NA,NA,NA,""
"image-keyboard-response",379,329172,"0.0-3.122-2.122","976hzrbpj6n1lo2",975,"98.csv","","null","resources/images/coin2.png","null","",NA,NA,NA,NA,""
"image-keyboard-response",380,329246,"0.0-3.123-0.123","976hzrbpj6n1lo2",975,"98.csv","","72.09999990463257","resources/trios/L2T2A1.jpg","38","restless",0.7,0.3,0.5,0.848806031742639,"false"
"image-keyboard-response",381,329651,"0.0-3.123-1.123","976hzrbpj6n1lo2",975,"98.csv","","null","resources/maskTrios/BT2B.jpg","null","",NA,NA,NA,NA,""
"image-keyboard-response",382,330860,"0.0-3.123-2.123","976hzrbpj6n1lo2",975,"98.csv","","null","resources/images/fishbone.png","null","",NA,NA,NA,NA,""
"image-keyboard-response",383,330936,"0.0-3.124-0.124","976hzrbpj6n1lo2",975,"98.csv","","73.79999995231628","resources/trios/L1T2A1.jpg","39","restless",0.8,0.3,0.5,0.947119839012721,"false"
"image-keyboard-response",384,331343,"0.0-3.124-1.124","976hzrbpj6n1lo2",975,"98.csv","","null","resources/maskTrios/BBA1.jpg","null","",NA,NA,NA,NA,""
"image-keyboard-response",385,332552,"0.0-3.124-2.124","976hzrbpj6n1lo2",975,"98.csv","","null","resources/images/fishbone.png","null","",NA,NA,NA,NA,""
"image-keyboard-response",386,333406,"0.0-3.125-0.125","976hzrbpj6n1lo2",975,"98.csv","","851.5999999046326","resources/trios/L2T1A3.jpg","38","restless",0.8,0.3,0.4,0.257837341522066,"true"
"image-keyboard-response",387,333812,"0.0-3.125-1.125","976hzrbpj6n1lo2",975,"98.csv","","null","resources/maskTrios/BT1B.jpg","null","",NA,NA,NA,NA,""
"image-keyboard-response",388,335018,"0.0-3.125-2.125","976hzrbpj6n1lo2",975,"98.csv","","null","resources/images/coin2.png","null","",NA,NA,NA,NA,""
"image-keyboard-response",389,335068,"0.0-3.126-0.126","976hzrbpj6n1lo2",975,"98.csv","","48","resources/trios/L2T2A3.jpg","38","restless",0.8,0.3,0.4,0.0391309048109412,"true"
"image-keyboard-response",390,335476,"0.0-3.126-1.126","976hzrbpj6n1lo2",975,"98.csv","","null","resources/maskTrios/BT2B.jpg","null","",NA,NA,NA,NA,""
"image-keyboard-response",391,336683,"0.0-3.126-2.126","976hzrbpj6n1lo2",975,"98.csv","","null","resources/images/coin2.png","null","",NA,NA,NA,NA,""
"image-keyboard-response",392,338678,"0.0-3.127-0.127","976hzrbpj6n1lo2",975,"98.csv","","1992.6000001430511","resources/trios/L1T2A3.jpg","38","restless",0.7,0.3,0.4,0.86297461813143,"false"
"image-keyboard-response",393,339080,"0.0-3.127-1.127","976hzrbpj6n1lo2",975,"98.csv","","null","resources/maskTrios/BT2B.jpg","null","",NA,NA,NA,NA,""
"image-keyboard-response",394,340287,"0.0-3.127-2.127","976hzrbpj6n1lo2",975,"98.csv","","null","resources/images/fishbone.png","null","",NA,NA,NA,NA,""
"image-keyboard-response",395,340809,"0.0-3.128-0.128","976hzrbpj6n1lo2",975,"98.csv","","519.7999999523163","resources/trios/L2T2A1.jpg","38","restless",0.7,0.3,0.4,0.558282484501851,"false"
"image-keyboard-response",396,341213,"0.0-3.128-1.128","976hzrbpj6n1lo2",975,"98.csv","","null","resources/maskTrios/BT2B.jpg","null","",NA,NA,NA,NA,""
"image-keyboard-response",397,342421,"0.0-3.128-2.128","976hzrbpj6n1lo2",975,"98.csv","","null","resources/images/fishbone.png","null","",NA,NA,NA,NA,""
"image-keyboard-response",398,342842,"0.0-3.129-0.129","976hzrbpj6n1lo2",975,"98.csv","","418.30000019073486","resources/trios/L1T1A1.jpg","39","restless",0.7,0.3,0.3,0.190830333203186,"true"
"image-keyboard-response",399,343247,"0.0-3.129-1.129","976hzrbpj6n1lo2",975,"98.csv","","null","resources/maskTrios/BBA1.jpg","null","",NA,NA,NA,NA,""
"image-keyboard-response",400,344449,"0.0-3.129-2.129","976hzrbpj6n1lo2",975,"98.csv","","null","resources/images/coin2.png","null","",NA,NA,NA,NA,""
"image-keyboard-response",401,345802,"0.0-3.130-0.130","976hzrbpj6n1lo2",975,"98.csv","","1351.0999999046326","resources/trios/L2T1A3.jpg","37","restless",0.7,0.3,0.3,0.389785125230711,"true"
"image-keyboard-response",402,346211,"0.0-3.130-1.130","976hzrbpj6n1lo2",975,"98.csv","","null","resources/maskTrios/L2BB.jpg","null","",NA,NA,NA,NA,""
"image-keyboard-response",403,347413,"0.0-3.130-2.130","976hzrbpj6n1lo2",975,"98.csv","","null","resources/images/coin2.png","null","",NA,NA,NA,NA,""
"image-keyboard-response",404,347911,"0.0-3.131-0.131","976hzrbpj6n1lo2",975,"98.csv","","496.09999990463257","resources/trios/L1T2A1.jpg","39","restless",0.7,0.4,0.3,0.111310158219517,"true"
"image-keyboard-response",405,348320,"0.0-3.131-1.131","976hzrbpj6n1lo2",975,"98.csv","","null","resources/maskTrios/BBA1.jpg","null","",NA,NA,NA,NA,""
"image-keyboard-response",406,349526,"0.0-3.131-2.131","976hzrbpj6n1lo2",975,"98.csv","","null","resources/images/coin2.png","null","",NA,NA,NA,NA,""
"image-keyboard-response",407,349866,"0.0-3.132-0.132","976hzrbpj6n1lo2",975,"98.csv","","338.59999990463257","resources/trios/L1T1A1.jpg","37","restless",0.7,0.4,0.3,0.0458431739051406,"true"
"image-keyboard-response",408,350275,"0.0-3.132-1.132","976hzrbpj6n1lo2",975,"98.csv","","null","resources/maskTrios/L1BB.jpg","null","",NA,NA,NA,NA,""
"image-keyboard-response",409,351485,"0.0-3.132-2.132","976hzrbpj6n1lo2",975,"98.csv","","null","resources/images/coin2.png","null","",NA,NA,NA,NA,""
"image-keyboard-response",410,351925,"0.0-3.133-0.133","976hzrbpj6n1lo2",975,"98.csv","","438.2999999523163","resources/trios/L1T1A3.jpg","39","restless",0.7,0.4,0.3,0.869324629240664,"false"
"image-keyboard-response",411,352332,"0.0-3.133-1.133","976hzrbpj6n1lo2",975,"98.csv","","null","resources/maskTrios/BBA3.jpg","null","",NA,NA,NA,NA,""
"image-keyboard-response",412,353539,"0.0-3.133-2.133","976hzrbpj6n1lo2",975,"98.csv","","null","resources/images/fishbone.png","null","",NA,NA,NA,NA,""
"image-keyboard-response",413,355980,"0.0-3.134-0.134","976hzrbpj6n1lo2",975,"98.csv","","2438.5","resources/trios/L2T2A1.jpg","38","restless",0.7,0.4,0.3,0.922296945596592,"false"
"image-keyboard-response",414,356387,"0.0-3.134-1.134","976hzrbpj6n1lo2",975,"98.csv","","null","resources/maskTrios/BT2B.jpg","null","",NA,NA,NA,NA,""
"image-keyboard-response",415,357593,"0.0-3.134-2.134","976hzrbpj6n1lo2",975,"98.csv","","null","resources/images/fishbone.png","null","",NA,NA,NA,NA,""
"image-keyboard-response",416,357990,"0.0-3.135-0.135","976hzrbpj6n1lo2",975,"98.csv","","395.40000009536743","resources/trios/L2T1A3.jpg","39","restless",0.7,0.4,0.3,0.728583886520677,"false"
"image-keyboard-response",417,358399,"0.0-3.135-1.135","976hzrbpj6n1lo2",975,"98.csv","","null","resources/maskTrios/BBA3.jpg","null","",NA,NA,NA,NA,""
"image-keyboard-response",418,359604,"0.0-3.135-2.135","976hzrbpj6n1lo2",975,"98.csv","","null","resources/images/fishbone.png","null","",NA,NA,NA,NA,""
"image-keyboard-response",419,360063,"0.0-3.136-0.136","976hzrbpj6n1lo2",975,"98.csv","","455.89999985694885","resources/trios/L2T1A3.jpg","37","restless",0.7,0.4,0.3,0.832578499686869,"false"
"image-keyboard-response",420,360465,"0.0-3.136-1.136","976hzrbpj6n1lo2",975,"98.csv","","null","resources/maskTrios/L2BB.jpg","null","",NA,NA,NA,NA,""
"image-keyboard-response",421,361670,"0.0-3.136-2.136","976hzrbpj6n1lo2",975,"98.csv","","null","resources/images/fishbone.png","null","",NA,NA,NA,NA,""
"image-keyboard-response",422,362052,"0.0-3.137-0.137","976hzrbpj6n1lo2",975,"98.csv","","379.59999990463257","resources/trios/L1T2A3.jpg","39","restless",0.7,0.4,0.3,0.254704662422143,"true"
"image-keyboard-response",423,362458,"0.0-3.137-1.137","976hzrbpj6n1lo2",975,"98.csv","","null","resources/maskTrios/BBA3.jpg","null","",NA,NA,NA,NA,""
"image-keyboard-response",424,363665,"0.0-3.137-2.137","976hzrbpj6n1lo2",975,"98.csv","","null","resources/images/coin2.png","null","",NA,NA,NA,NA,""
"image-keyboard-response",425,364479,"0.0-3.138-0.138","976hzrbpj6n1lo2",975,"98.csv","","811.9000000953674","resources/trios/L1T2A3.jpg","38","restless",0.7,0.4,0.3,0.207472733115091,"true"
"image-keyboard-response",426,364888,"0.0-3.138-1.138","976hzrbpj6n1lo2",975,"98.csv","","null","resources/maskTrios/BT2B.jpg","null","",NA,NA,NA,NA,""
"image-keyboard-response",427,366094,"0.0-3.138-2.138","976hzrbpj6n1lo2",975,"98.csv","","null","resources/images/coin2.png","null","",NA,NA,NA,NA,""
"image-keyboard-response",428,366589,"0.0-3.139-0.139","976hzrbpj6n1lo2",975,"98.csv","","492.59999990463257","resources/trios/L1T2A1.jpg","39","restless",0.7,0.4,0.3,0.0887138986279066,"true"
"image-keyboard-response",429,366997,"0.0-3.139-1.139","976hzrbpj6n1lo2",975,"98.csv","","null","resources/maskTrios/BBA1.jpg","null","",NA,NA,NA,NA,""
"image-keyboard-response",430,368206,"0.0-3.139-2.139","976hzrbpj6n1lo2",975,"98.csv","","null","resources/images/coin2.png","null","",NA,NA,NA,NA,""
"image-keyboard-response",431,369401,"0.0-3.140-0.140","976hzrbpj6n1lo2",975,"98.csv","","1192.7999999523163","resources/trios/L1T2A1.jpg","39","restless",0.7,0.4,0.3,0.852882730020986,"false"
"image-keyboard-response",432,369805,"0.0-3.140-1.140","976hzrbpj6n1lo2",975,"98.csv","","null","resources/maskTrios/BBA1.jpg","null","",NA,NA,NA,NA,""
"image-keyboard-response",433,371013,"0.0-3.140-2.140","976hzrbpj6n1lo2",975,"98.csv","","null","resources/images/fishbone.png","null","",NA,NA,NA,NA,""
"image-keyboard-response",434,372931,"0.0-3.141-0.141","976hzrbpj6n1lo2",975,"98.csv","","1915.2999999523163","resources/trios/L1T2A1.jpg","37","restless",0.7,0.4,0.3,0.0474668623090138,"true"
"image-keyboard-response",435,373334,"0.0-3.141-1.141","976hzrbpj6n1lo2",975,"98.csv","","null","resources/maskTrios/L1BB.jpg","null","",NA,NA,NA,NA,""
"image-keyboard-response",436,374543,"0.0-3.141-2.141","976hzrbpj6n1lo2",975,"98.csv","","null","resources/images/coin2.png","null","",NA,NA,NA,NA,""
"image-keyboard-response",437,374857,"0.0-3.142-0.142","976hzrbpj6n1lo2",975,"98.csv","","311.89999985694885","resources/trios/L1T1A1.jpg","38","restless",0.7,0.5,0.3,0.57295095685429,"false"
"image-keyboard-response",438,375263,"0.0-3.142-1.142","976hzrbpj6n1lo2",975,"98.csv","","null","resources/maskTrios/BT1B.jpg","null","",NA,NA,NA,NA,""
"image-keyboard-response",439,376469,"0.0-3.142-2.142","976hzrbpj6n1lo2",975,"98.csv","","null","resources/images/fishbone.png","null","",NA,NA,NA,NA,""
"image-keyboard-response",440,376669,"0.0-3.143-0.143","976hzrbpj6n1lo2",975,"98.csv","","198","resources/trios/L1T2A1.jpg","39","restless",0.7,0.5,0.3,0.0855155752209977,"true"
"image-keyboard-response",441,377077,"0.0-3.143-1.143","976hzrbpj6n1lo2",975,"98.csv","","null","resources/maskTrios/BBA1.jpg","null","",NA,NA,NA,NA,""
"image-keyboard-response",442,378288,"0.0-3.143-2.143","976hzrbpj6n1lo2",975,"98.csv","","null","resources/images/coin2.png","null","",NA,NA,NA,NA,""
"image-keyboard-response",443,378810,"0.0-3.144-0.144","976hzrbpj6n1lo2",975,"98.csv","","520.0999999046326","resources/trios/L2T2A1.jpg","39","restless",0.7,0.5,0.3,0.102242310741411,"true"
"image-keyboard-response",444,379213,"0.0-3.144-1.144","976hzrbpj6n1lo2",975,"98.csv","","null","resources/maskTrios/BBA1.jpg","null","",NA,NA,NA,NA,""
"image-keyboard-response",445,380422,"0.0-3.144-2.144","976hzrbpj6n1lo2",975,"98.csv","","null","resources/images/coin2.png","null","",NA,NA,NA,NA,""
"image-keyboard-response",446,381008,"0.0-3.145-0.145","976hzrbpj6n1lo2",975,"98.csv","","583.7000000476837","resources/trios/L2T2A3.jpg","38","restless",0.6,0.5,0.2,0.882843779099995,"false"
"image-keyboard-response",447,381417,"0.0-3.145-1.145","976hzrbpj6n1lo2",975,"98.csv","","null","resources/maskTrios/BT2B.jpg","null","",NA,NA,NA,NA,""
"image-keyboard-response",448,382622,"0.0-3.145-2.145","976hzrbpj6n1lo2",975,"98.csv","","null","resources/images/fishbone.png","null","",NA,NA,NA,NA,""
"image-keyboard-response",449,382760,"0.0-3.146-0.146","976hzrbpj6n1lo2",975,"98.csv","","134.60000014305115","resources/trios/L1T1A1.jpg","39","restless",0.6,0.5,0.2,0.451583380947183,"false"
"image-keyboard-response",450,383163,"0.0-3.146-1.146","976hzrbpj6n1lo2",975,"98.csv","","null","resources/maskTrios/BBA1.jpg","null","",NA,NA,NA,NA,""
"image-keyboard-response",451,384365,"0.0-3.146-2.146","976hzrbpj6n1lo2",975,"98.csv","","null","resources/images/fishbone.png","null","",NA,NA,NA,NA,""
"image-keyboard-response",452,384585,"0.0-3.147-0.147","976hzrbpj6n1lo2",975,"98.csv","","219.29999995231628","resources/trios/L1T1A3.jpg","38","restless",0.6,0.5,0.2,0.709507419838641,"false"
"image-keyboard-response",453,384987,"0.0-3.147-1.147","976hzrbpj6n1lo2",975,"98.csv","","null","resources/maskTrios/BT1B.jpg","null","",NA,NA,NA,NA,""
"image-keyboard-response",454,386191,"0.0-3.147-2.147","976hzrbpj6n1lo2",975,"98.csv","","null","resources/images/fishbone.png","null","",NA,NA,NA,NA,""
"image-keyboard-response",455,386224,"0.0-3.148-0.148","976hzrbpj6n1lo2",975,"98.csv","","31.90000009536743","resources/trios/L1T2A1.jpg","38","restless",0.6,0.5,0.2,0.301603873918848,"true"
"image-keyboard-response",456,386627,"0.0-3.148-1.148","976hzrbpj6n1lo2",975,"98.csv","","null","resources/maskTrios/BT2B.jpg","null","",NA,NA,NA,NA,""
"image-keyboard-response",457,387830,"0.0-3.148-2.148","976hzrbpj6n1lo2",975,"98.csv","","null","resources/images/coin2.png","null","",NA,NA,NA,NA,""
"image-keyboard-response",458,387933,"0.0-3.149-0.149","976hzrbpj6n1lo2",975,"98.csv","","102","resources/trios/L2T2A3.jpg","38","restless",0.6,0.5,0.2,0.792147160991167,"false"
"image-keyboard-response",459,388336,"0.0-3.149-1.149","976hzrbpj6n1lo2",975,"98.csv","","null","resources/maskTrios/BT2B.jpg","null","",NA,NA,NA,NA,""
"image-keyboard-response",460,389538,"0.0-3.149-2.149","976hzrbpj6n1lo2",975,"98.csv","","null","resources/images/fishbone.png","null","",NA,NA,NA,NA,""
"image-keyboard-response",461,389613,"0.0-3.150-0.150","976hzrbpj6n1lo2",975,"98.csv","","72.79999995231628","resources/trios/L2T1A1.jpg","38","restless",0.6,0.5,0.3,0.687550249920087,"false"
"image-keyboard-response",462,390020,"0.0-3.150-1.150","976hzrbpj6n1lo2",975,"98.csv","","null","resources/maskTrios/BT1B.jpg","null","",NA,NA,NA,NA,""
"image-keyboard-response",463,391224,"0.0-3.150-2.150","976hzrbpj6n1lo2",975,"98.csv","","null","resources/images/fishbone.png","null","",NA,NA,NA,NA,""
"image-keyboard-response",464,391406,"0.0-3.151-0.151","976hzrbpj6n1lo2",975,"98.csv","","180.40000009536743","resources/trios/L2T2A3.jpg","38","restless",0.6,0.5,0.3,0.430229936313236,"true"
"image-keyboard-response",465,391808,"0.0-3.151-1.151","976hzrbpj6n1lo2",975,"98.csv","","null","resources/maskTrios/BT2B.jpg","null","",NA,NA,NA,NA,""
"image-keyboard-response",466,393011,"0.0-3.151-2.151","976hzrbpj6n1lo2",975,"98.csv","","null","resources/images/coin2.png","null","",NA,NA,NA,NA,""
"image-keyboard-response",467,393326,"0.0-3.152-0.152","976hzrbpj6n1lo2",975,"98.csv","","314","resources/trios/L2T1A3.jpg","39","restless",0.6,0.5,0.3,0.87114029361017,"false"
"image-keyboard-response",468,393733,"0.0-3.152-1.152","976hzrbpj6n1lo2",975,"98.csv","","null","resources/maskTrios/BBA3.jpg","null","",NA,NA,NA,NA,""
"image-keyboard-response",469,394935,"0.0-3.152-2.152","976hzrbpj6n1lo2",975,"98.csv","","null","resources/images/fishbone.png","null","",NA,NA,NA,NA,""
"image-keyboard-response",470,395008,"0.0-3.153-0.153","976hzrbpj6n1lo2",975,"98.csv","","70.20000004768372","resources/trios/L2T2A1.jpg","38","restless",0.6,0.5,0.3,0.645746085199619,"false"
"image-keyboard-response",471,395413,"0.0-3.153-1.153","976hzrbpj6n1lo2",975,"98.csv","","null","resources/maskTrios/BT2B.jpg","null","",NA,NA,NA,NA,""
"image-keyboard-response",472,396616,"0.0-3.153-2.153","976hzrbpj6n1lo2",975,"98.csv","","null","resources/images/fishbone.png","null","",NA,NA,NA,NA,""
"image-keyboard-response",473,396886,"0.0-3.154-0.154","976hzrbpj6n1lo2",975,"98.csv","","268.7000000476837","resources/trios/L2T1A3.jpg","37","restless",0.6,0.5,0.3,0.473116766714332,"true"
"image-keyboard-response",474,397291,"0.0-3.154-1.154","976hzrbpj6n1lo2",975,"98.csv","","null","resources/maskTrios/L2BB.jpg","null","",NA,NA,NA,NA,""
"image-keyboard-response",475,398496,"0.0-3.154-2.154","976hzrbpj6n1lo2",975,"98.csv","","null","resources/images/coin2.png","null","",NA,NA,NA,NA,""
"image-keyboard-response",476,398546,"0.0-3.155-0.155","976hzrbpj6n1lo2",975,"98.csv","","47.299999952316284","resources/trios/L2T1A3.jpg","38","restless",0.6,0.5,0.4,0.189670749975055,"true"
"image-keyboard-response",477,398948,"0.0-3.155-1.155","976hzrbpj6n1lo2",975,"98.csv","","null","resources/maskTrios/BT1B.jpg","null","",NA,NA,NA,NA,""
"image-keyboard-response",478,400153,"0.0-3.155-2.155","976hzrbpj6n1lo2",975,"98.csv","","null","resources/images/coin2.png","null","",NA,NA,NA,NA,""
"image-keyboard-response",479,400442,"0.0-3.156-0.156","976hzrbpj6n1lo2",975,"98.csv","","287.10000014305115","resources/trios/L1T2A1.jpg","39","restless",0.6,0.5,0.4,0.0041967714178448,"true"
"image-keyboard-response",480,400847,"0.0-3.156-1.156","976hzrbpj6n1lo2",975,"98.csv","","null","resources/maskTrios/BBA1.jpg","null","",NA,NA,NA,NA,""
"image-keyboard-response",481,402055,"0.0-3.156-2.156","976hzrbpj6n1lo2",975,"98.csv","","null","resources/images/coin2.png","null","",NA,NA,NA,NA,""
"image-keyboard-response",482,402117,"0.0-3.157-0.157","976hzrbpj6n1lo2",975,"98.csv","","59.299999952316284","resources/trios/L1T2A1.jpg","37","restless",0.6,0.5,0.4,0.00105967044705002,"true"
"image-keyboard-response",483,402523,"0.0-3.157-1.157","976hzrbpj6n1lo2",975,"98.csv","","null","resources/maskTrios/L1BB.jpg","null","",NA,NA,NA,NA,""
"image-keyboard-response",484,403730,"0.0-3.157-2.157","976hzrbpj6n1lo2",975,"98.csv","","null","resources/images/coin2.png","null","",NA,NA,NA,NA,""
"image-keyboard-response",485,404157,"0.0-3.158-0.158","976hzrbpj6n1lo2",975,"98.csv","","424.80000019073486","resources/trios/L2T2A1.jpg","39","restless",0.6,0.5,0.4,0.904938734168576,"false"
"image-keyboard-response",486,404559,"0.0-3.158-1.158","976hzrbpj6n1lo2",975,"98.csv","","null","resources/maskTrios/BBA1.jpg","null","",NA,NA,NA,NA,""
"image-keyboard-response",487,405763,"0.0-3.158-2.158","976hzrbpj6n1lo2",975,"98.csv","","null","resources/images/fishbone.png","null","",NA,NA,NA,NA,""
"image-keyboard-response",488,406056,"0.0-3.159-0.159","976hzrbpj6n1lo2",975,"98.csv","","291.2000000476837","resources/trios/L2T2A1.jpg","39","restless",0.6,0.5,0.4,0.877473557903051,"false"
"image-keyboard-response",489,406465,"0.0-3.159-1.159","976hzrbpj6n1lo2",975,"98.csv","","null","resources/maskTrios/BBA1.jpg","null","",NA,NA,NA,NA,""
"image-keyboard-response",490,407672,"0.0-3.159-2.159","976hzrbpj6n1lo2",975,"98.csv","","null","resources/images/fishbone.png","null","",NA,NA,NA,NA,""
"image-keyboard-response",491,407739,"0.0-3.160-0.160","976hzrbpj6n1lo2",975,"98.csv","","65.20000004768372","resources/trios/L1T1A3.jpg","37","restless",0.6,0.5,0.4,0.869723256586476,"false"
"image-keyboard-response",492,408141,"0.0-3.160-1.160","976hzrbpj6n1lo2",975,"98.csv","","null","resources/maskTrios/L1BB.jpg","null","",NA,NA,NA,NA,""
"image-keyboard-response",493,409345,"0.0-3.160-2.160","976hzrbpj6n1lo2",975,"98.csv","","null","resources/images/fishbone.png","null","",NA,NA,NA,NA,""
"image-keyboard-response",494,409457,"0.0-3.161-0.161","976hzrbpj6n1lo2",975,"98.csv","","109.5","resources/trios/L2T2A1.jpg","38","restless",0.6,0.5,0.4,0.617753851179931,"false"
"image-keyboard-response",495,409866,"0.0-3.161-1.161","976hzrbpj6n1lo2",975,"98.csv","","null","resources/maskTrios/BT2B.jpg","null","",NA,NA,NA,NA,""
"image-keyboard-response",496,411069,"0.0-3.161-2.161","976hzrbpj6n1lo2",975,"98.csv","","null","resources/images/fishbone.png","null","",NA,NA,NA,NA,""
"image-keyboard-response",497,411295,"0.0-3.162-0.162","976hzrbpj6n1lo2",975,"98.csv","","223.5","resources/trios/L1T2A3.jpg","38","restless",0.6,0.5,0.4,0.94371395630895,"false"
"image-keyboard-response",498,411698,"0.0-3.162-1.162","976hzrbpj6n1lo2",975,"98.csv","","null","resources/maskTrios/BT2B.jpg","null","",NA,NA,NA,NA,""
"image-keyboard-response",499,412901,"0.0-3.162-2.162","976hzrbpj6n1lo2",975,"98.csv","","null","resources/images/fishbone.png","null","",NA,NA,NA,NA,""
"image-keyboard-response",500,413027,"0.0-3.163-0.163","976hzrbpj6n1lo2",975,"98.csv","","123.29999995231628","resources/trios/L2T1A1.jpg","37","restless",0.6,0.5,0.5,0.655368768609497,"false"
"image-keyboard-response",501,413431,"0.0-3.163-1.163","976hzrbpj6n1lo2",975,"98.csv","","null","resources/maskTrios/L2BB.jpg","null","",NA,NA,NA,NA,""
"image-keyboard-response",502,414634,"0.0-3.163-2.163","976hzrbpj6n1lo2",975,"98.csv","","null","resources/images/fishbone.png","null","",NA,NA,NA,NA,""
"image-keyboard-response",503,414643,"0.0-3.164-0.164","976hzrbpj6n1lo2",975,"98.csv","","6.800000190734863","resources/trios/L1T2A1.jpg","37","restless",0.6,0.5,0.5,0.79649178194288,"false"
"image-keyboard-response",504,415047,"0.0-3.164-1.164","976hzrbpj6n1lo2",975,"98.csv","","null","resources/maskTrios/L1BB.jpg","null","",NA,NA,NA,NA,""
"image-keyboard-response",505,416250,"0.0-3.164-2.164","976hzrbpj6n1lo2",975,"98.csv","","null","resources/images/fishbone.png","null","",NA,NA,NA,NA,""
"image-keyboard-response",506,416462,"0.0-3.165-0.165","976hzrbpj6n1lo2",975,"98.csv","","210","resources/trios/L1T1A3.jpg","39","restless",0.6,0.4,0.5,0.612959755067997,"false"
"image-keyboard-response",507,416871,"0.0-3.165-1.165","976hzrbpj6n1lo2",975,"98.csv","","null","resources/maskTrios/BBA3.jpg","null","",NA,NA,NA,NA,""
"image-keyboard-response",508,418078,"0.0-3.165-2.165","976hzrbpj6n1lo2",975,"98.csv","","null","resources/images/fishbone.png","null","",NA,NA,NA,NA,""
"image-keyboard-response",509,418274,"0.0-3.166-0.166","976hzrbpj6n1lo2",975,"98.csv","","194.39999985694885","resources/trios/L1T1A3.jpg","37","restless",0.6,0.4,0.5,0.946000954864903,"false"
"image-keyboard-response",510,418681,"0.0-3.166-1.166","976hzrbpj6n1lo2",975,"98.csv","","null","resources/maskTrios/L1BB.jpg","null","",NA,NA,NA,NA,""
"image-keyboard-response",511,419886,"0.0-3.166-2.166","976hzrbpj6n1lo2",975,"98.csv","","null","resources/images/fishbone.png","null","",NA,NA,NA,NA,""
"image-keyboard-response",512,419955,"0.0-3.167-0.167","976hzrbpj6n1lo2",975,"98.csv","","66.29999995231628","resources/trios/L1T1A3.jpg","37","restless",0.6,0.4,0.5,0.288565986876731,"true"
"image-keyboard-response",513,420357,"0.0-3.167-1.167","976hzrbpj6n1lo2",975,"98.csv","","null","resources/maskTrios/L1BB.jpg","null","",NA,NA,NA,NA,""
"image-keyboard-response",514,421567,"0.0-3.167-2.167","976hzrbpj6n1lo2",975,"98.csv","","null","resources/images/coin2.png","null","",NA,NA,NA,NA,""
"image-keyboard-response",515,421644,"0.0-3.168-0.168","976hzrbpj6n1lo2",975,"98.csv","","75.90000009536743","resources/trios/L1T1A3.jpg","37","restless",0.6,0.4,0.5,0.0242437138940224,"true"
"image-keyboard-response",516,422047,"0.0-3.168-1.168","976hzrbpj6n1lo2",975,"98.csv","","null","resources/maskTrios/L1BB.jpg","null","",NA,NA,NA,NA,""
"image-keyboard-response",517,423252,"0.0-3.168-2.168","976hzrbpj6n1lo2",975,"98.csv","","null","resources/images/coin2.png","null","",NA,NA,NA,NA,""
"image-keyboard-response",518,423695,"0.0-3.169-0.169","976hzrbpj6n1lo2",975,"98.csv","","441.2000000476837","resources/trios/L1T2A1.jpg","37","restless",0.5,0.4,0.5,0.721825787560108,"false"
"image-keyboard-response",519,424101,"0.0-3.169-1.169","976hzrbpj6n1lo2",975,"98.csv","","null","resources/maskTrios/L1BB.jpg","null","",NA,NA,NA,NA,""
"image-keyboard-response",520,425303,"0.0-3.169-2.169","976hzrbpj6n1lo2",975,"98.csv","","null","resources/images/fishbone.png","null","",NA,NA,NA,NA,""
"image-keyboard-response",521,425574,"0.0-3.170-0.170","976hzrbpj6n1lo2",975,"98.csv","","269.10000014305115","resources/trios/L2T1A3.jpg","39","restless",0.5,0.4,0.6,0.954350179029088,"false"
"image-keyboard-response",522,425983,"0.0-3.170-1.170","976hzrbpj6n1lo2",975,"98.csv","","null","resources/maskTrios/BBA3.jpg","null","",NA,NA,NA,NA,""
"image-keyboard-response",523,427190,"0.0-3.170-2.170","976hzrbpj6n1lo2",975,"98.csv","","null","resources/images/fishbone.png","null","",NA,NA,NA,NA,""
"image-keyboard-response",524,427788,"0.0-3.171-0.171","976hzrbpj6n1lo2",975,"98.csv","","597.0999999046326","resources/trios/L1T1A1.jpg","38","restless",0.5,0.4,0.6,0.662459868360418,"false"
"image-keyboard-response",525,428194,"0.0-3.171-1.171","976hzrbpj6n1lo2",975,"98.csv","","null","resources/maskTrios/BT1B.jpg","null","",NA,NA,NA,NA,""
"image-keyboard-response",526,429397,"0.0-3.171-2.171","976hzrbpj6n1lo2",975,"98.csv","","null","resources/images/fishbone.png","null","",NA,NA,NA,NA,""
"image-keyboard-response",527,429485,"0.0-3.172-0.172","976hzrbpj6n1lo2",975,"98.csv","","86","resources/trios/L1T2A1.jpg","39","restless",0.5,0.5,0.6,0.548619753909638,"true"
"image-keyboard-response",528,429890,"0.0-3.172-1.172","976hzrbpj6n1lo2",975,"98.csv","","null","resources/maskTrios/BBA1.jpg","null","",NA,NA,NA,NA,""
"image-keyboard-response",529,431093,"0.0-3.172-2.172","976hzrbpj6n1lo2",975,"98.csv","","null","resources/images/coin2.png","null","",NA,NA,NA,NA,""
"image-keyboard-response",530,431427,"0.0-3.173-0.173","976hzrbpj6n1lo2",975,"98.csv","","332.7999999523163","resources/trios/L1T1A3.jpg","38","restless",0.5,0.5,0.6,0.893376131135762,"false"
"image-keyboard-response",531,431832,"0.0-3.173-1.173","976hzrbpj6n1lo2",975,"98.csv","","null","resources/maskTrios/BT1B.jpg","null","",NA,NA,NA,NA,""
"image-keyboard-response",532,433037,"0.0-3.173-2.173","976hzrbpj6n1lo2",975,"98.csv","","null","resources/images/fishbone.png","null","",NA,NA,NA,NA,""
"image-keyboard-response",533,433077,"0.0-3.174-0.174","976hzrbpj6n1lo2",975,"98.csv","","38.10000014305115","resources/trios/L1T1A1.jpg","38","restless",0.5,0.5,0.6,0.772948303363696,"false"
"image-keyboard-response",534,433481,"0.0-3.174-1.174","976hzrbpj6n1lo2",975,"98.csv","","null","resources/maskTrios/BT1B.jpg","null","",NA,NA,NA,NA,""
"image-keyboard-response",535,434689,"0.0-3.174-2.174","976hzrbpj6n1lo2",975,"98.csv","","null","resources/images/fishbone.png","null","",NA,NA,NA,NA,""
"image-keyboard-response",536,434865,"0.0-3.175-0.175","976hzrbpj6n1lo2",975,"98.csv","","174.70000004768372","resources/trios/L1T1A1.jpg","37","restless",0.4,0.5,0.6,0.84319119867453,"false"
"image-keyboard-response",537,435271,"0.0-3.175-1.175","976hzrbpj6n1lo2",975,"98.csv","","null","resources/maskTrios/L1BB.jpg","null","",NA,NA,NA,NA,""
"image-keyboard-response",538,436477,"0.0-3.175-2.175","976hzrbpj6n1lo2",975,"98.csv","","null","resources/images/fishbone.png","null","",NA,NA,NA,NA,""
"image-keyboard-response",539,436658,"0.0-3.176-0.176","976hzrbpj6n1lo2",975,"98.csv","","178.89999985694885","resources/trios/L1T1A3.jpg","38","restless",0.4,0.5,0.6,0.0127831150996425,"true"
"image-keyboard-response",540,437063,"0.0-3.176-1.176","976hzrbpj6n1lo2",975,"98.csv","","null","resources/maskTrios/BT1B.jpg","null","",NA,NA,NA,NA,""
"image-keyboard-response",541,438266,"0.0-3.176-2.176","976hzrbpj6n1lo2",975,"98.csv","","null","resources/images/coin2.png","null","",NA,NA,NA,NA,""
"image-keyboard-response",542,438400,"0.0-3.177-0.177","976hzrbpj6n1lo2",975,"98.csv","","132.69999980926514","resources/trios/L2T2A3.jpg","38","restless",0.4,0.5,0.6,0.351533029303978,"true"
"image-keyboard-response",543,438809,"0.0-3.177-1.177","976hzrbpj6n1lo2",975,"98.csv","","null","resources/maskTrios/BT2B.jpg","null","",NA,NA,NA,NA,""
"image-keyboard-response",544,440015,"0.0-3.177-2.177","976hzrbpj6n1lo2",975,"98.csv","","null","resources/images/coin2.png","null","",NA,NA,NA,NA,""
"image-keyboard-response",545,440136,"0.0-3.178-0.178","976hzrbpj6n1lo2",975,"98.csv","","119.5","resources/trios/L2T1A1.jpg","37","restless",0.4,0.5,0.6,0.20284588043801,"true"
"image-keyboard-response",546,440541,"0.0-3.178-1.178","976hzrbpj6n1lo2",975,"98.csv","","null","resources/maskTrios/L2BB.jpg","null","",NA,NA,NA,NA,""
"image-keyboard-response",547,441745,"0.0-3.178-2.178","976hzrbpj6n1lo2",975,"98.csv","","null","resources/images/coin2.png","null","",NA,NA,NA,NA,""
"image-keyboard-response",548,441854,"0.0-3.179-0.179","976hzrbpj6n1lo2",975,"98.csv","","107.19999980926514","resources/trios/L2T1A1.jpg","37","restless",0.4,0.5,0.6,0.274272993155283,"true"
"image-keyboard-response",549,442258,"0.0-3.179-1.179","976hzrbpj6n1lo2",975,"98.csv","","null","resources/maskTrios/L2BB.jpg","null","",NA,NA,NA,NA,""
"image-keyboard-response",550,443464,"0.0-3.179-2.179","976hzrbpj6n1lo2",975,"98.csv","","null","resources/images/coin2.png","null","",NA,NA,NA,NA,""
"image-keyboard-response",551,443580,"0.0-3.180-0.180","976hzrbpj6n1lo2",975,"98.csv","","114.20000004768372","resources/trios/L1T2A1.jpg","37","restless",0.4,0.5,0.6,0.290635755045964,"true"
"image-keyboard-response",552,443986,"0.0-3.180-1.180","976hzrbpj6n1lo2",975,"98.csv","","null","resources/maskTrios/L1BB.jpg","null","",NA,NA,NA,NA,""
"image-keyboard-response",553,445192,"0.0-3.180-2.180","976hzrbpj6n1lo2",975,"98.csv","","null","resources/images/coin2.png","null","",NA,NA,NA,NA,""
"image-keyboard-response",554,445311,"0.0-3.181-0.181","976hzrbpj6n1lo2",975,"98.csv","","118","resources/trios/L1T2A1.jpg","38","restless",0.4,0.5,0.6,0.289528393283846,"true"
"image-keyboard-response",555,445715,"0.0-3.181-1.181","976hzrbpj6n1lo2",975,"98.csv","","null","resources/maskTrios/BT2B.jpg","null","",NA,NA,NA,NA,""
"image-keyboard-response",556,446924,"0.0-3.181-2.181","976hzrbpj6n1lo2",975,"98.csv","","null","resources/images/coin2.png","null","",NA,NA,NA,NA,""
"image-keyboard-response",557,447490,"0.0-3.182-0.182","976hzrbpj6n1lo2",975,"98.csv","","564.3999998569489","resources/trios/L2T1A1.jpg","39","restless",0.4,0.5,0.6,0.0767856398371207,"true"
"image-keyboard-response",558,447898,"0.0-3.182-1.182","976hzrbpj6n1lo2",975,"98.csv","","null","resources/maskTrios/BBA1.jpg","null","",NA,NA,NA,NA,""
"image-keyboard-response",559,449101,"0.0-3.182-2.182","976hzrbpj6n1lo2",975,"98.csv","","null","resources/images/coin2.png","null","",NA,NA,NA,NA,""
"image-keyboard-response",560,449272,"0.0-3.183-0.183","976hzrbpj6n1lo2",975,"98.csv","","168.90000009536743","resources/trios/L2T1A1.jpg","39","restless",0.4,0.5,0.6,0.237388348555021,"true"
"image-keyboard-response",561,449680,"0.0-3.183-1.183","976hzrbpj6n1lo2",975,"98.csv","","null","resources/maskTrios/BBA1.jpg","null","",NA,NA,NA,NA,""
"image-keyboard-response",562,450884,"0.0-3.183-2.183","976hzrbpj6n1lo2",975,"98.csv","","null","resources/images/coin2.png","null","",NA,NA,NA,NA,""
"image-keyboard-response",563,451184,"0.0-3.184-0.184","976hzrbpj6n1lo2",975,"98.csv","","297.7999999523163","resources/trios/L1T1A1.jpg","39","restless",0.4,0.5,0.6,0.198090841929418,"true"
"image-keyboard-response",564,451589,"0.0-3.184-1.184","976hzrbpj6n1lo2",975,"98.csv","","null","resources/maskTrios/BBA1.jpg","null","",NA,NA,NA,NA,""
"image-keyboard-response",565,452795,"0.0-3.184-2.184","976hzrbpj6n1lo2",975,"98.csv","","null","resources/images/coin2.png","null","",NA,NA,NA,NA,""
"image-keyboard-response",566,452877,"0.0-3.185-0.185","976hzrbpj6n1lo2",975,"98.csv","","80.29999995231628","resources/trios/L2T2A1.jpg","38","restless",0.4,0.5,0.6,0.071740216425723,"true"
"image-keyboard-response",567,453284,"0.0-3.185-1.185","976hzrbpj6n1lo2",975,"98.csv","","null","resources/maskTrios/BT2B.jpg","null","",NA,NA,NA,NA,""
"image-keyboard-response",568,454489,"0.0-3.185-2.185","976hzrbpj6n1lo2",975,"98.csv","","null","resources/images/coin2.png","null","",NA,NA,NA,NA,""
"image-keyboard-response",569,454631,"0.0-3.186-0.186","976hzrbpj6n1lo2",975,"98.csv","","139.79999995231628","resources/trios/L2T1A3.jpg","37","restless",0.4,0.4,0.6,0.503419908717646,"false"
"image-keyboard-response",570,455039,"0.0-3.186-1.186","976hzrbpj6n1lo2",975,"98.csv","","null","resources/maskTrios/L2BB.jpg","null","",NA,NA,NA,NA,""
"image-keyboard-response",571,456248,"0.0-3.186-2.186","976hzrbpj6n1lo2",975,"98.csv","","null","resources/images/fishbone.png","null","",NA,NA,NA,NA,""
"image-keyboard-response",572,456392,"0.0-3.187-0.187","976hzrbpj6n1lo2",975,"98.csv","","142.20000004768372","resources/trios/L2T1A3.jpg","38","restless",0.4,0.4,0.6,0.120833310655806,"true"
"image-keyboard-response",573,456797,"0.0-3.187-1.187","976hzrbpj6n1lo2",975,"98.csv","","null","resources/maskTrios/BT1B.jpg","null","",NA,NA,NA,NA,""
"image-keyboard-response",574,458005,"0.0-3.187-2.187","976hzrbpj6n1lo2",975,"98.csv","","null","resources/images/coin2.png","null","",NA,NA,NA,NA,""
"image-keyboard-response",575,458142,"0.0-3.188-0.188","976hzrbpj6n1lo2",975,"98.csv","","135.79999995231628","resources/trios/L1T1A1.jpg","39","restless",0.4,0.4,0.6,0.644286133035619,"false"
"image-keyboard-response",576,458545,"0.0-3.188-1.188","976hzrbpj6n1lo2",975,"98.csv","","null","resources/maskTrios/BBA1.jpg","null","",NA,NA,NA,NA,""
"image-keyboard-response",577,459752,"0.0-3.188-2.188","976hzrbpj6n1lo2",975,"98.csv","","null","resources/images/fishbone.png","null","",NA,NA,NA,NA,""
"image-keyboard-response",578,459779,"0.0-3.189-0.189","976hzrbpj6n1lo2",975,"98.csv","","25.600000143051147","resources/trios/L2T1A1.jpg","39","restless",0.4,0.4,0.5,0.954968173701205,"false"
"image-keyboard-response",579,460186,"0.0-3.189-1.189","976hzrbpj6n1lo2",975,"98.csv","","null","resources/maskTrios/BBA1.jpg","null","",NA,NA,NA,NA,""
"image-keyboard-response",580,461395,"0.0-3.189-2.189","976hzrbpj6n1lo2",975,"98.csv","","null","resources/images/fishbone.png","null","",NA,NA,NA,NA,""
"image-keyboard-response",581,461413,"0.0-3.190-0.190","976hzrbpj6n1lo2",975,"98.csv","","15.299999952316284","resources/trios/L1T1A3.jpg","37","restless",0.4,0.4,0.4,0.215413157695121,"true"
"image-keyboard-response",582,461817,"0.0-3.190-1.190","976hzrbpj6n1lo2",975,"98.csv","","null","resources/maskTrios/L1BB.jpg","null","",NA,NA,NA,NA,""
"image-keyboard-response",583,463023,"0.0-3.190-2.190","976hzrbpj6n1lo2",975,"98.csv","","null","resources/images/coin2.png","null","",NA,NA,NA,NA,""
"image-keyboard-response",584,463325,"0.0-3.191-0.191","976hzrbpj6n1lo2",975,"98.csv","","300","resources/trios/L1T1A3.jpg","38","restless",0.4,0.4,0.4,0.530539749319156,"false"
"image-keyboard-response",585,463733,"0.0-3.191-1.191","976hzrbpj6n1lo2",975,"98.csv","","null","resources/maskTrios/BT1B.jpg","null","",NA,NA,NA,NA,""
"image-keyboard-response",586,464938,"0.0-3.191-2.191","976hzrbpj6n1lo2",975,"98.csv","","null","resources/images/fishbone.png","null","",NA,NA,NA,NA,""
"image-keyboard-response",587,464982,"0.0-3.192-0.192","976hzrbpj6n1lo2",975,"98.csv","","42","resources/trios/L2T2A3.jpg","37","restless",0.4,0.3,0.4,0.797687868907513,"false"
"image-keyboard-response",588,465389,"0.0-3.192-1.192","976hzrbpj6n1lo2",975,"98.csv","","null","resources/maskTrios/L2BB.jpg","null","",NA,NA,NA,NA,""
"image-keyboard-response",589,466592,"0.0-3.192-2.192","976hzrbpj6n1lo2",975,"98.csv","","null","resources/images/fishbone.png","null","",NA,NA,NA,NA,""
"image-keyboard-response",590,466627,"0.0-3.193-0.193","976hzrbpj6n1lo2",975,"98.csv","","32.40000009536743","resources/trios/L2T1A1.jpg","39","restless",0.4,0.3,0.4,0.112042568233557,"true"
"image-keyboard-response",591,467034,"0.0-3.193-1.193","976hzrbpj6n1lo2",975,"98.csv","","null","resources/maskTrios/BBA1.jpg","null","",NA,NA,NA,NA,""
"image-keyboard-response",592,468238,"0.0-3.193-2.193","976hzrbpj6n1lo2",975,"98.csv","","null","resources/images/coin2.png","null","",NA,NA,NA,NA,""
"image-keyboard-response",593,468370,"0.0-3.194-0.194","976hzrbpj6n1lo2",975,"98.csv","","129.09999990463257","resources/trios/L1T2A3.jpg","37","restless",0.4,0.3,0.4,0.610209298149487,"false"
"image-keyboard-response",594,468774,"0.0-3.194-1.194","976hzrbpj6n1lo2",975,"98.csv","","null","resources/maskTrios/L1BB.jpg","null","",NA,NA,NA,NA,""
"image-keyboard-response",595,469978,"0.0-3.194-2.194","976hzrbpj6n1lo2",975,"98.csv","","null","resources/images/fishbone.png","null","",NA,NA,NA,NA,""
"image-keyboard-response",596,470180,"0.0-3.195-0.195","976hzrbpj6n1lo2",975,"98.csv","","200","resources/trios/L1T2A1.jpg","39","restless",0.4,0.4,0.4,0.357679366081886,"true"
"image-keyboard-response",597,470584,"0.0-3.195-1.195","976hzrbpj6n1lo2",975,"98.csv","","null","resources/maskTrios/BBA1.jpg","null","",NA,NA,NA,NA,""
"image-keyboard-response",598,471794,"0.0-3.195-2.195","976hzrbpj6n1lo2",975,"98.csv","","null","resources/images/coin2.png","null","",NA,NA,NA,NA,""
"image-keyboard-response",599,472021,"0.0-3.196-0.196","976hzrbpj6n1lo2",975,"98.csv","","224.79999995231628","resources/trios/L1T1A3.jpg","39","restless",0.4,0.4,0.4,0.00476707279398458,"true"
"image-keyboard-response",600,472429,"0.0-3.196-1.196","976hzrbpj6n1lo2",975,"98.csv","","null","resources/maskTrios/BBA3.jpg","null","",NA,NA,NA,NA,""
"image-keyboard-response",601,473632,"0.0-3.196-2.196","976hzrbpj6n1lo2",975,"98.csv","","null","resources/images/coin2.png","null","",NA,NA,NA,NA,""
"image-keyboard-response",602,473746,"0.0-3.197-0.197","976hzrbpj6n1lo2",975,"98.csv","","112.10000014305115","resources/trios/L2T2A3.jpg","37","restless",0.4,0.4,0.3,0.205113138756467,"true"
"image-keyboard-response",603,474151,"0.0-3.197-1.197","976hzrbpj6n1lo2",975,"98.csv","","null","resources/maskTrios/L2BB.jpg","null","",NA,NA,NA,NA,""
"image-keyboard-response",604,475356,"0.0-3.197-2.197","976hzrbpj6n1lo2",975,"98.csv","","null","resources/images/coin2.png","null","",NA,NA,NA,NA,""
"image-keyboard-response",605,475697,"0.0-3.198-0.198","976hzrbpj6n1lo2",975,"98.csv","","339.2000000476837","resources/trios/L1T1A3.jpg","39","restless",0.4,0.4,0.3,0.966398666817562,"false"
"image-keyboard-response",606,476105,"0.0-3.198-1.198","976hzrbpj6n1lo2",975,"98.csv","","null","resources/maskTrios/BBA3.jpg","null","",NA,NA,NA,NA,""
"image-keyboard-response",607,477311,"0.0-3.198-2.198","976hzrbpj6n1lo2",975,"98.csv","","null","resources/images/fishbone.png","null","",NA,NA,NA,NA,""
"image-keyboard-response",608,477483,"0.0-3.199-0.199","976hzrbpj6n1lo2",975,"98.csv","","170","resources/trios/L1T1A1.jpg","37","restless",0.4,0.4,0.3,0.100539161329188,"true"
"image-keyboard-response",609,477885,"0.0-3.199-1.199","976hzrbpj6n1lo2",975,"98.csv","","null","resources/maskTrios/L1BB.jpg","null","",NA,NA,NA,NA,""
