"trial_type","trial_index","time_elapsed","internal_node_id","subject","participantCode","walkNumber","success","rt","stimulus","key_press","test_part","leftProb","midProb","rightProb","generatedNum","correct"
"pavlovia",0,885,"0.0-0.0","bc9hr80gw4q3fzx",713,"52.csv","","","","","",NA,NA,NA,NA,""
"fullscreen",1,3030462,"0.0-1.0","bc9hr80gw4q3fzx",713,"52.csv","true","","","","",NA,NA,NA,NA,""
"html-keyboard-response",2,3034762,"0.0-2.0-0.0","bc9hr80gw4q3fzx",713,"52.csv","","4297.5","<p><font size='6'>Arrrgh!</p></font><p>Can you be the best pirate? Try to find lots of gold! But beware, some islands have more gold than others, and over time, the island with the most gold may change. Can YOU figure it out? </p><font size='6'>GOOD LUCK, CAPTAIN!!!</font><p>Press any key to begin</p>","32","",NA,NA,NA,NA,""
"image-keyboard-response",3,3037768,"0.0-2.0-1.0","bc9hr80gw4q3fzx",713,"52.csv","","null","resources/image_sets/111.png","null","",NA,NA,NA,NA,""
"image-keyboard-response",4,3077263,"0.0-2.0-2.0","bc9hr80gw4q3fzx",713,"52.csv","","39490.5","resources/image_sets/left_highlight.png","37","",NA,NA,NA,NA,""
"image-keyboard-response",5,3078521,"0.0-2.0-3.0","bc9hr80gw4q3fzx",713,"52.csv","","1256.2000000029802","resources/image_sets/mid_highlight.png","38","",NA,NA,NA,NA,""
"image-keyboard-response",6,3079195,"0.0-2.0-4.0","bc9hr80gw4q3fzx",713,"52.csv","","672.7000000029802","resources/image_sets/right_highlight.png","39","",NA,NA,NA,NA,""
"image-keyboard-response",7,3083974,"0.0-2.0-5.0","bc9hr80gw4q3fzx",713,"52.csv","","4777.100000008941","resources/image_sets/111.png","13","",NA,NA,NA,NA,""
"image-keyboard-response",8,3089627,"0.0-2.0-6.0","bc9hr80gw4q3fzx",713,"52.csv","","5651.800000011921","resources/images/coin2.png","13","",NA,NA,NA,NA,""
"image-keyboard-response",9,3091650,"0.0-2.0-7.0","bc9hr80gw4q3fzx",713,"52.csv","","2021.3999999910593","resources/images/fishbone.png","13","",NA,NA,NA,NA,""
"html-keyboard-response",10,3107650,"0.0-2.0-8.0","bc9hr80gw4q3fzx",713,"52.csv","","15999.20000000298","<p>Your first journey will be a long one, but you will get a well deserved break at the end</p><p>After the break you will have four more journeys, but each will be much shorter than the first, and you will have breaks in between each</p><p>Press Enter to begin</p>","13","",NA,NA,NA,NA,""
"image-keyboard-response",11,3110960,"0.0-3.0-0.0","bc9hr80gw4q3fzx",713,"52.csv","","3306","resources/trios/L4T4A1.jpg","39","restless",0.7,0.9,0.3,0.865192438670599,"false"
"image-keyboard-response",12,3111367,"0.0-3.0-1.0","bc9hr80gw4q3fzx",713,"52.csv","","null","resources/maskTrios/BBA1.jpg","null","",NA,NA,NA,NA,""
"image-keyboard-response",13,3112571,"0.0-3.0-2.0","bc9hr80gw4q3fzx",713,"52.csv","","null","resources/images/fishbone.png","null","",NA,NA,NA,NA,""
"image-keyboard-response",14,3112816,"0.0-3.1-0.1","bc9hr80gw4q3fzx",713,"52.csv","","242.19999998807907","resources/trios/L4T4A2.jpg","39","restless",0.7,0.9,0.3,0.197931938716272,"true"
"image-keyboard-response",15,3113222,"0.0-3.1-1.1","bc9hr80gw4q3fzx",713,"52.csv","","null","resources/maskTrios/BBA2.jpg","null","",NA,NA,NA,NA,""
"image-keyboard-response",16,3114426,"0.0-3.1-2.1","bc9hr80gw4q3fzx",713,"52.csv","","null","resources/images/coin2.png","null","",NA,NA,NA,NA,""
"image-keyboard-response",17,3115139,"0.0-3.2-0.2","bc9hr80gw4q3fzx",713,"52.csv","","711","resources/trios/L1T4A2.jpg","38","restless",0.7,0.9,0.3,0.37440245128295,"true"
"image-keyboard-response",18,3115543,"0.0-3.2-1.2","bc9hr80gw4q3fzx",713,"52.csv","","null","resources/maskTrios/BT4B.jpg","null","",NA,NA,NA,NA,""
"image-keyboard-response",19,3116748,"0.0-3.2-2.2","bc9hr80gw4q3fzx",713,"52.csv","","null","resources/images/coin2.png","null","",NA,NA,NA,NA,""
"image-keyboard-response",20,3116988,"0.0-3.3-0.3","bc9hr80gw4q3fzx",713,"52.csv","","238.5","resources/trios/L1T1A2.jpg","37","restless",0.7,0.9,0.3,0.116943249516993,"true"
"image-keyboard-response",21,3117391,"0.0-3.3-1.3","bc9hr80gw4q3fzx",713,"52.csv","","null","resources/maskTrios/L1BB.jpg","null","",NA,NA,NA,NA,""
"image-keyboard-response",22,3118597,"0.0-3.3-2.3","bc9hr80gw4q3fzx",713,"52.csv","","null","resources/images/coin2.png","null","",NA,NA,NA,NA,""
"image-keyboard-response",23,3118916,"0.0-3.4-0.4","bc9hr80gw4q3fzx",713,"52.csv","","317.1000000089407","resources/trios/L1T4A1.jpg","37","restless",0.8,0.9,0.3,0.647673916270457,"true"
"image-keyboard-response",24,3119321,"0.0-3.4-1.4","bc9hr80gw4q3fzx",713,"52.csv","","null","resources/maskTrios/L1BB.jpg","null","",NA,NA,NA,NA,""
"image-keyboard-response",25,3120525,"0.0-3.4-2.4","bc9hr80gw4q3fzx",713,"52.csv","","null","resources/images/coin2.png","null","",NA,NA,NA,NA,""
"image-keyboard-response",26,3120783,"0.0-3.5-0.5","bc9hr80gw4q3fzx",713,"52.csv","","256","resources/trios/L4T4A1.jpg","39","restless",0.8,0.8,0.3,0.549192133757411,"false"
"image-keyboard-response",27,3121188,"0.0-3.5-1.5","bc9hr80gw4q3fzx",713,"52.csv","","null","resources/maskTrios/BBA1.jpg","null","",NA,NA,NA,NA,""
"image-keyboard-response",28,3122392,"0.0-3.5-2.5","bc9hr80gw4q3fzx",713,"52.csv","","null","resources/images/fishbone.png","null","",NA,NA,NA,NA,""
"image-keyboard-response",29,3122763,"0.0-3.6-0.6","bc9hr80gw4q3fzx",713,"52.csv","","368.29999999701977","resources/trios/L4T1A2.jpg","39","restless",0.8,0.8,0.3,0.851664486200306,"false"
"image-keyboard-response",30,3123168,"0.0-3.6-1.6","bc9hr80gw4q3fzx",713,"52.csv","","null","resources/maskTrios/BBA2.jpg","null","",NA,NA,NA,NA,""
"image-keyboard-response",31,3124372,"0.0-3.6-2.6","bc9hr80gw4q3fzx",713,"52.csv","","null","resources/images/fishbone.png","null","",NA,NA,NA,NA,""
"image-keyboard-response",32,3124586,"0.0-3.7-0.7","bc9hr80gw4q3fzx",713,"52.csv","","211.79999999701977","resources/trios/L4T4A1.jpg","39","restless",0.8,0.8,0.3,0.691558942110834,"false"
"image-keyboard-response",33,3124992,"0.0-3.7-1.7","bc9hr80gw4q3fzx",713,"52.csv","","null","resources/maskTrios/BBA1.jpg","null","",NA,NA,NA,NA,""
"image-keyboard-response",34,3126196,"0.0-3.7-2.7","bc9hr80gw4q3fzx",713,"52.csv","","null","resources/images/fishbone.png","null","",NA,NA,NA,NA,""
"image-keyboard-response",35,3127647,"0.0-3.8-0.8","bc9hr80gw4q3fzx",713,"52.csv","","1449.7000000029802","resources/trios/L1T1A2.jpg","39","restless",0.8,0.8,0.3,0.485325887100239,"false"
"image-keyboard-response",36,3128050,"0.0-3.8-1.8","bc9hr80gw4q3fzx",713,"52.csv","","null","resources/maskTrios/BBA2.jpg","null","",NA,NA,NA,NA,""
"image-keyboard-response",37,3129255,"0.0-3.8-2.8","bc9hr80gw4q3fzx",713,"52.csv","","null","resources/images/fishbone.png","null","",NA,NA,NA,NA,""
"image-keyboard-response",38,3130536,"0.0-3.9-0.9","bc9hr80gw4q3fzx",713,"52.csv","","1279.2000000029802","resources/trios/L1T1A1.jpg","39","restless",0.8,0.8,0.3,0.461378627878269,"false"
"image-keyboard-response",39,3130940,"0.0-3.9-1.9","bc9hr80gw4q3fzx",713,"52.csv","","null","resources/maskTrios/BBA1.jpg","null","",NA,NA,NA,NA,""
"image-keyboard-response",40,3132142,"0.0-3.9-2.9","bc9hr80gw4q3fzx",713,"52.csv","","null","resources/images/fishbone.png","null","",NA,NA,NA,NA,""
"image-keyboard-response",41,3132458,"0.0-3.10-0.10","bc9hr80gw4q3fzx",713,"52.csv","","313.29999999701977","resources/trios/L4T4A1.jpg","37","restless",0.8,0.8,0.3,0.0935109557217952,"true"
"image-keyboard-response",42,3132861,"0.0-3.10-1.10","bc9hr80gw4q3fzx",713,"52.csv","","null","resources/maskTrios/L4BB.jpg","null","",NA,NA,NA,NA,""
"image-keyboard-response",43,3134065,"0.0-3.10-2.10","bc9hr80gw4q3fzx",713,"52.csv","","null","resources/images/coin2.png","null","",NA,NA,NA,NA,""
"image-keyboard-response",44,3134210,"0.0-3.11-0.11","bc9hr80gw4q3fzx",713,"52.csv","","143.29999999701977","resources/trios/L1T1A2.jpg","38","restless",0.8,0.8,0.3,0.454937604932977,"true"
"image-keyboard-response",45,3134613,"0.0-3.11-1.11","bc9hr80gw4q3fzx",713,"52.csv","","null","resources/maskTrios/BT1B.jpg","null","",NA,NA,NA,NA,""
"image-keyboard-response",46,3135816,"0.0-3.11-2.11","bc9hr80gw4q3fzx",713,"52.csv","","null","resources/images/coin2.png","null","",NA,NA,NA,NA,""
"image-keyboard-response",47,3136049,"0.0-3.12-0.12","bc9hr80gw4q3fzx",713,"52.csv","","231.5","resources/trios/L1T4A1.jpg","39","restless",0.9,0.8,0.2,0.129923402986191,"true"
"image-keyboard-response",48,3136452,"0.0-3.12-1.12","bc9hr80gw4q3fzx",713,"52.csv","","null","resources/maskTrios/BBA1.jpg","null","",NA,NA,NA,NA,""
"image-keyboard-response",49,3137655,"0.0-3.12-2.12","bc9hr80gw4q3fzx",713,"52.csv","","null","resources/images/coin2.png","null","",NA,NA,NA,NA,""
"image-keyboard-response",50,3138392,"0.0-3.13-0.13","bc9hr80gw4q3fzx",713,"52.csv","","735.3000000119209","resources/trios/L1T1A1.jpg","37","restless",0.9,0.8,0.2,0.81786102575319,"true"
"image-keyboard-response",51,3138796,"0.0-3.13-1.13","bc9hr80gw4q3fzx",713,"52.csv","","null","resources/maskTrios/L1BB.jpg","null","",NA,NA,NA,NA,""
"image-keyboard-response",52,3140002,"0.0-3.13-2.13","bc9hr80gw4q3fzx",713,"52.csv","","null","resources/images/coin2.png","null","",NA,NA,NA,NA,""
"image-keyboard-response",53,3140189,"0.0-3.14-0.14","bc9hr80gw4q3fzx",713,"52.csv","","185.09999999403954","resources/trios/L1T1A2.jpg","38","restless",0.9,0.7,0.2,0.357909181260692,"true"
"image-keyboard-response",54,3140591,"0.0-3.14-1.14","bc9hr80gw4q3fzx",713,"52.csv","","null","resources/maskTrios/BT1B.jpg","null","",NA,NA,NA,NA,""
"image-keyboard-response",55,3141795,"0.0-3.14-2.14","bc9hr80gw4q3fzx",713,"52.csv","","null","resources/images/coin2.png","null","",NA,NA,NA,NA,""
"image-keyboard-response",56,3141833,"0.0-3.15-0.15","bc9hr80gw4q3fzx",713,"52.csv","","37.20000000298023","resources/trios/L4T1A2.jpg","39","restless",0.9,0.7,0.2,0.85356489675933,"false"
"image-keyboard-response",57,3142239,"0.0-3.15-1.15","bc9hr80gw4q3fzx",713,"52.csv","","null","resources/maskTrios/BBA2.jpg","null","",NA,NA,NA,NA,""
"image-keyboard-response",58,3143441,"0.0-3.15-2.15","bc9hr80gw4q3fzx",713,"52.csv","","null","resources/images/fishbone.png","null","",NA,NA,NA,NA,""
"image-keyboard-response",59,3143675,"0.0-3.16-0.16","bc9hr80gw4q3fzx",713,"52.csv","","232","resources/trios/L1T1A1.jpg","37","restless",0.9,0.7,0.2,0.133923604714908,"true"
"image-keyboard-response",60,3144079,"0.0-3.16-1.16","bc9hr80gw4q3fzx",713,"52.csv","","null","resources/maskTrios/L1BB.jpg","null","",NA,NA,NA,NA,""
"image-keyboard-response",61,3145282,"0.0-3.16-2.16","bc9hr80gw4q3fzx",713,"52.csv","","null","resources/images/coin2.png","null","",NA,NA,NA,NA,""
"image-keyboard-response",62,3145509,"0.0-3.17-0.17","bc9hr80gw4q3fzx",713,"52.csv","","225","resources/trios/L4T4A2.jpg","38","restless",0.8,0.7,0.2,0.0837313714870671,"true"
"image-keyboard-response",63,3145916,"0.0-3.17-1.17","bc9hr80gw4q3fzx",713,"52.csv","","null","resources/maskTrios/BT4B.jpg","null","",NA,NA,NA,NA,""
"image-keyboard-response",64,3147119,"0.0-3.17-2.17","bc9hr80gw4q3fzx",713,"52.csv","","null","resources/images/coin2.png","null","",NA,NA,NA,NA,""
"image-keyboard-response",65,3147325,"0.0-3.18-0.18","bc9hr80gw4q3fzx",713,"52.csv","","204.29999999701977","resources/trios/L4T1A2.jpg","39","restless",0.8,0.6,0.2,0.434097259401156,"false"
"image-keyboard-response",66,3147728,"0.0-3.18-1.18","bc9hr80gw4q3fzx",713,"52.csv","","null","resources/maskTrios/BBA2.jpg","null","",NA,NA,NA,NA,""
"image-keyboard-response",67,3148931,"0.0-3.18-2.18","bc9hr80gw4q3fzx",713,"52.csv","","null","resources/images/fishbone.png","null","",NA,NA,NA,NA,""
"image-keyboard-response",68,3149434,"0.0-3.19-0.19","bc9hr80gw4q3fzx",713,"52.csv","","500.79999999701977","resources/trios/L1T4A2.jpg","37","restless",0.7,0.6,0.2,0.934174013165548,"false"
"image-keyboard-response",69,3149837,"0.0-3.19-1.19","bc9hr80gw4q3fzx",713,"52.csv","","null","resources/maskTrios/L1BB.jpg","null","",NA,NA,NA,NA,""
"image-keyboard-response",70,3151040,"0.0-3.19-2.19","bc9hr80gw4q3fzx",713,"52.csv","","null","resources/images/fishbone.png","null","",NA,NA,NA,NA,""
"image-keyboard-response",71,3151244,"0.0-3.20-0.20","bc9hr80gw4q3fzx",713,"52.csv","","201.6000000089407","resources/trios/L1T4A2.jpg","39","restless",0.7,0.6,0.3,0.963106637920731,"false"
"image-keyboard-response",72,3151647,"0.0-3.20-1.20","bc9hr80gw4q3fzx",713,"52.csv","","null","resources/maskTrios/BBA2.jpg","null","",NA,NA,NA,NA,""
"image-keyboard-response",73,3152850,"0.0-3.20-2.20","bc9hr80gw4q3fzx",713,"52.csv","","null","resources/images/fishbone.png","null","",NA,NA,NA,NA,""
"image-keyboard-response",74,3152886,"0.0-3.21-0.21","bc9hr80gw4q3fzx",713,"52.csv","","34.29999999701977","resources/trios/L4T4A1.jpg","38","restless",0.7,0.5,0.3,0.574748021168646,"false"
"image-keyboard-response",75,3153290,"0.0-3.21-1.21","bc9hr80gw4q3fzx",713,"52.csv","","null","resources/maskTrios/BT4B.jpg","null","",NA,NA,NA,NA,""
"image-keyboard-response",76,3154494,"0.0-3.21-2.21","bc9hr80gw4q3fzx",713,"52.csv","","null","resources/images/fishbone.png","null","",NA,NA,NA,NA,""
"image-keyboard-response",77,3155084,"0.0-3.22-0.22","bc9hr80gw4q3fzx",713,"52.csv","","589","resources/trios/L1T4A2.jpg","37","restless",0.7,0.5,0.3,0.050441090557841,"true"
"image-keyboard-response",78,3155489,"0.0-3.22-1.22","bc9hr80gw4q3fzx",713,"52.csv","","null","resources/maskTrios/L1BB.jpg","null","",NA,NA,NA,NA,""
"image-keyboard-response",79,3156693,"0.0-3.22-2.22","bc9hr80gw4q3fzx",713,"52.csv","","null","resources/images/coin2.png","null","",NA,NA,NA,NA,""
"image-keyboard-response",80,3156939,"0.0-3.23-0.23","bc9hr80gw4q3fzx",713,"52.csv","","244.59999999403954","resources/trios/L4T1A1.jpg","38","restless",0.7,0.5,0.3,0.527573395668381,"false"
"image-keyboard-response",81,3157341,"0.0-3.23-1.23","bc9hr80gw4q3fzx",713,"52.csv","","null","resources/maskTrios/BT1B.jpg","null","",NA,NA,NA,NA,""
"image-keyboard-response",82,3158544,"0.0-3.23-2.23","bc9hr80gw4q3fzx",713,"52.csv","","null","resources/images/fishbone.png","null","",NA,NA,NA,NA,""
"image-keyboard-response",83,3158993,"0.0-3.24-0.24","bc9hr80gw4q3fzx",713,"52.csv","","447.09999999403954","resources/trios/L4T1A2.jpg","39","restless",0.7,0.5,0.3,0.288442742486916,"true"
"image-keyboard-response",84,3159398,"0.0-3.24-1.24","bc9hr80gw4q3fzx",713,"52.csv","","null","resources/maskTrios/BBA2.jpg","null","",NA,NA,NA,NA,""
"image-keyboard-response",85,3160604,"0.0-3.24-2.24","bc9hr80gw4q3fzx",713,"52.csv","","null","resources/images/coin2.png","null","",NA,NA,NA,NA,""
"image-keyboard-response",86,3160817,"0.0-3.25-0.25","bc9hr80gw4q3fzx",713,"52.csv","","210.19999998807907","resources/trios/L4T4A1.jpg","38","restless",0.8,0.5,0.3,0.372708278619273,"true"
"image-keyboard-response",87,3161222,"0.0-3.25-1.25","bc9hr80gw4q3fzx",713,"52.csv","","null","resources/maskTrios/BT4B.jpg","null","",NA,NA,NA,NA,""
"image-keyboard-response",88,3162424,"0.0-3.25-2.25","bc9hr80gw4q3fzx",713,"52.csv","","null","resources/images/coin2.png","null","",NA,NA,NA,NA,""
"image-keyboard-response",89,3162857,"0.0-3.26-0.26","bc9hr80gw4q3fzx",713,"52.csv","","431.79999999701977","resources/trios/L4T1A1.jpg","37","restless",0.8,0.5,0.3,0.682657016583974,"true"
"image-keyboard-response",90,3163264,"0.0-3.26-1.26","bc9hr80gw4q3fzx",713,"52.csv","","null","resources/maskTrios/L4BB.jpg","null","",NA,NA,NA,NA,""
"image-keyboard-response",91,3164469,"0.0-3.26-2.26","bc9hr80gw4q3fzx",713,"52.csv","","null","resources/images/coin2.png","null","",NA,NA,NA,NA,""
"image-keyboard-response",92,3165597,"0.0-3.27-0.27","bc9hr80gw4q3fzx",713,"52.csv","","1125.5999999940395","resources/trios/L4T4A1.jpg","37","restless",0.8,0.5,0.3,0.673499184703983,"true"
"image-keyboard-response",93,3166001,"0.0-3.27-1.27","bc9hr80gw4q3fzx",713,"52.csv","","null","resources/maskTrios/L4BB.jpg","null","",NA,NA,NA,NA,""
"image-keyboard-response",94,3167205,"0.0-3.27-2.27","bc9hr80gw4q3fzx",713,"52.csv","","null","resources/images/coin2.png","null","",NA,NA,NA,NA,""
"image-keyboard-response",95,3170823,"0.0-3.28-0.28","bc9hr80gw4q3fzx",713,"52.csv","","3615.2999999970198","resources/trios/L4T1A2.jpg","39","restless",0.9,0.5,0.2,0.252552415017107,"false"
"image-keyboard-response",96,3171229,"0.0-3.28-1.28","bc9hr80gw4q3fzx",713,"52.csv","","null","resources/maskTrios/BBA2.jpg","null","",NA,NA,NA,NA,""
"image-keyboard-response",97,3172431,"0.0-3.28-2.28","bc9hr80gw4q3fzx",713,"52.csv","","null","resources/images/fishbone.png","null","",NA,NA,NA,NA,""
"image-keyboard-response",98,3173220,"0.0-3.29-0.29","bc9hr80gw4q3fzx",713,"52.csv","","786.4000000059605","resources/trios/L1T1A2.jpg","38","restless",0.9,0.5,0.2,0.814627146052455,"false"
"image-keyboard-response",99,3173622,"0.0-3.29-1.29","bc9hr80gw4q3fzx",713,"52.csv","","null","resources/maskTrios/BT1B.jpg","null","",NA,NA,NA,NA,""
"image-keyboard-response",100,3174828,"0.0-3.29-2.29","bc9hr80gw4q3fzx",713,"52.csv","","null","resources/images/fishbone.png","null","",NA,NA,NA,NA,""
"image-keyboard-response",101,3175432,"0.0-3.30-0.30","bc9hr80gw4q3fzx",713,"52.csv","","602.2000000029802","resources/trios/L4T1A2.jpg","37","restless",0.9,0.5,0.3,0.380619455400997,"true"
"image-keyboard-response",102,3175836,"0.0-3.30-1.30","bc9hr80gw4q3fzx",713,"52.csv","","null","resources/maskTrios/L4BB.jpg","null","",NA,NA,NA,NA,""
"image-keyboard-response",103,3177040,"0.0-3.30-2.30","bc9hr80gw4q3fzx",713,"52.csv","","null","resources/images/coin2.png","null","",NA,NA,NA,NA,""
"image-keyboard-response",104,3178214,"0.0-3.31-0.31","bc9hr80gw4q3fzx",713,"52.csv","","1172.1000000089407","resources/trios/L4T4A1.jpg","37","restless",0.9,0.4,0.3,0.0645714815889367,"true"
"image-keyboard-response",105,3178619,"0.0-3.31-1.31","bc9hr80gw4q3fzx",713,"52.csv","","null","resources/maskTrios/L4BB.jpg","null","",NA,NA,NA,NA,""
"image-keyboard-response",106,3179823,"0.0-3.31-2.31","bc9hr80gw4q3fzx",713,"52.csv","","null","resources/images/coin2.png","null","",NA,NA,NA,NA,""
"image-keyboard-response",107,3181119,"0.0-3.32-0.32","bc9hr80gw4q3fzx",713,"52.csv","","1293.8999999910593","resources/trios/L1T4A2.jpg","38","restless",0.9,0.4,0.3,0.618243884794129,"false"
"image-keyboard-response",108,3181524,"0.0-3.32-1.32","bc9hr80gw4q3fzx",713,"52.csv","","null","resources/maskTrios/BT4B.jpg","null","",NA,NA,NA,NA,""
"image-keyboard-response",109,3182728,"0.0-3.32-2.32","bc9hr80gw4q3fzx",713,"52.csv","","null","resources/images/fishbone.png","null","",NA,NA,NA,NA,""
"image-keyboard-response",110,3183871,"0.0-3.33-0.33","bc9hr80gw4q3fzx",713,"52.csv","","1142","resources/trios/L1T4A1.jpg","39","restless",0.9,0.4,0.3,0.736514580505067,"false"
"image-keyboard-response",111,3184273,"0.0-3.33-1.33","bc9hr80gw4q3fzx",713,"52.csv","","null","resources/maskTrios/BBA1.jpg","null","",NA,NA,NA,NA,""
"image-keyboard-response",112,3185477,"0.0-3.33-2.33","bc9hr80gw4q3fzx",713,"52.csv","","null","resources/images/fishbone.png","null","",NA,NA,NA,NA,""
"image-keyboard-response",113,3185719,"0.0-3.34-0.34","bc9hr80gw4q3fzx",713,"52.csv","","240.30000001192093","resources/trios/L4T1A1.jpg","37","restless",0.8,0.4,0.3,0.860679813871249,"false"
"image-keyboard-response",114,3186124,"0.0-3.34-1.34","bc9hr80gw4q3fzx",713,"52.csv","","null","resources/maskTrios/L4BB.jpg","null","",NA,NA,NA,NA,""
"image-keyboard-response",115,3187331,"0.0-3.34-2.34","bc9hr80gw4q3fzx",713,"52.csv","","null","resources/images/fishbone.png","null","",NA,NA,NA,NA,""
"image-keyboard-response",116,3187546,"0.0-3.35-0.35","bc9hr80gw4q3fzx",713,"52.csv","","213.90000000596046","resources/trios/L4T1A2.jpg","39","restless",0.8,0.4,0.3,0.486681874636741,"false"
"image-keyboard-response",117,3187950,"0.0-3.35-1.35","bc9hr80gw4q3fzx",713,"52.csv","","null","resources/maskTrios/BBA2.jpg","null","",NA,NA,NA,NA,""
"image-keyboard-response",118,3189154,"0.0-3.35-2.35","bc9hr80gw4q3fzx",713,"52.csv","","null","resources/images/fishbone.png","null","",NA,NA,NA,NA,""
"image-keyboard-response",119,3192764,"0.0-3.36-0.36","bc9hr80gw4q3fzx",713,"52.csv","","3608.6000000089407","resources/trios/L4T4A2.jpg","39","restless",0.8,0.4,0.3,0.597356847538202,"false"
"image-keyboard-response",120,3193169,"0.0-3.36-1.36","bc9hr80gw4q3fzx",713,"52.csv","","null","resources/maskTrios/BBA2.jpg","null","",NA,NA,NA,NA,""
"image-keyboard-response",121,3194373,"0.0-3.36-2.36","bc9hr80gw4q3fzx",713,"52.csv","","null","resources/images/fishbone.png","null","",NA,NA,NA,NA,""
"image-keyboard-response",122,3194647,"0.0-3.37-0.37","bc9hr80gw4q3fzx",713,"52.csv","","273.20000000298023","resources/trios/L4T1A2.jpg","37","restless",0.8,0.5,0.3,0.190400055857157,"true"
"image-keyboard-response",123,3195049,"0.0-3.37-1.37","bc9hr80gw4q3fzx",713,"52.csv","","null","resources/maskTrios/L4BB.jpg","null","",NA,NA,NA,NA,""
"image-keyboard-response",124,3196252,"0.0-3.37-2.37","bc9hr80gw4q3fzx",713,"52.csv","","null","resources/images/coin2.png","null","",NA,NA,NA,NA,""
"image-keyboard-response",125,3196531,"0.0-3.38-0.38","bc9hr80gw4q3fzx",713,"52.csv","","277","resources/trios/L1T4A1.jpg","38","restless",0.8,0.5,0.3,0.609545413738773,"false"
"image-keyboard-response",126,3196935,"0.0-3.38-1.38","bc9hr80gw4q3fzx",713,"52.csv","","null","resources/maskTrios/BT4B.jpg","null","",NA,NA,NA,NA,""
"image-keyboard-response",127,3198139,"0.0-3.38-2.38","bc9hr80gw4q3fzx",713,"52.csv","","null","resources/images/fishbone.png","null","",NA,NA,NA,NA,""
"image-keyboard-response",128,3199010,"0.0-3.39-0.39","bc9hr80gw4q3fzx",713,"52.csv","","869","resources/trios/L1T1A1.jpg","37","restless",0.8,0.5,0.4,0.806153917259439,"false"
"image-keyboard-response",129,3199413,"0.0-3.39-1.39","bc9hr80gw4q3fzx",713,"52.csv","","null","resources/maskTrios/L1BB.jpg","null","",NA,NA,NA,NA,""
"image-keyboard-response",130,3200620,"0.0-3.39-2.39","bc9hr80gw4q3fzx",713,"52.csv","","null","resources/images/fishbone.png","null","",NA,NA,NA,NA,""
"image-keyboard-response",131,3201444,"0.0-3.40-0.40","bc9hr80gw4q3fzx",713,"52.csv","","822.0999999940395","resources/trios/L4T4A2.jpg","37","restless",0.8,0.5,0.4,0.77056390954941,"true"
"image-keyboard-response",132,3201848,"0.0-3.40-1.40","bc9hr80gw4q3fzx",713,"52.csv","","null","resources/maskTrios/L4BB.jpg","null","",NA,NA,NA,NA,""
"image-keyboard-response",133,3203054,"0.0-3.40-2.40","bc9hr80gw4q3fzx",713,"52.csv","","null","resources/images/coin2.png","null","",NA,NA,NA,NA,""
"image-keyboard-response",134,3208088,"0.0-3.41-0.41","bc9hr80gw4q3fzx",713,"52.csv","","5032.600000008941","resources/trios/L4T4A1.jpg","38","restless",0.8,0.5,0.4,0.557611929193723,"false"
"image-keyboard-response",135,3208492,"0.0-3.41-1.41","bc9hr80gw4q3fzx",713,"52.csv","","null","resources/maskTrios/BT4B.jpg","null","",NA,NA,NA,NA,""
"image-keyboard-response",136,3209696,"0.0-3.41-2.41","bc9hr80gw4q3fzx",713,"52.csv","","null","resources/images/fishbone.png","null","",NA,NA,NA,NA,""
"image-keyboard-response",137,3209978,"0.0-3.42-0.42","bc9hr80gw4q3fzx",713,"52.csv","","280.6000000089407","resources/trios/L1T4A1.jpg","37","restless",0.8,0.5,0.4,0.540986443664014,"true"
"image-keyboard-response",138,3210382,"0.0-3.42-1.42","bc9hr80gw4q3fzx",713,"52.csv","","null","resources/maskTrios/L1BB.jpg","null","",NA,NA,NA,NA,""
"image-keyboard-response",139,3211587,"0.0-3.42-2.42","bc9hr80gw4q3fzx",713,"52.csv","","null","resources/images/coin2.png","null","",NA,NA,NA,NA,""
"image-keyboard-response",140,3213366,"0.0-3.43-0.43","bc9hr80gw4q3fzx",713,"52.csv","","1777.7999999970198","resources/trios/L1T1A1.jpg","38","restless",0.7,0.5,0.5,0.357908926742928,"true"
"image-keyboard-response",141,3213771,"0.0-3.43-1.43","bc9hr80gw4q3fzx",713,"52.csv","","null","resources/maskTrios/BT1B.jpg","null","",NA,NA,NA,NA,""
"image-keyboard-response",142,3214975,"0.0-3.43-2.43","bc9hr80gw4q3fzx",713,"52.csv","","null","resources/images/coin2.png","null","",NA,NA,NA,NA,""
"image-keyboard-response",143,3215842,"0.0-3.44-0.44","bc9hr80gw4q3fzx",713,"52.csv","","864.7999999970198","resources/trios/L1T4A2.jpg","39","restless",0.7,0.5,0.5,0.27283835749387,"true"
"image-keyboard-response",144,3216244,"0.0-3.44-1.44","bc9hr80gw4q3fzx",713,"52.csv","","null","resources/maskTrios/BBA2.jpg","null","",NA,NA,NA,NA,""
"image-keyboard-response",145,3217448,"0.0-3.44-2.44","bc9hr80gw4q3fzx",713,"52.csv","","null","resources/images/coin2.png","null","",NA,NA,NA,NA,""
"image-keyboard-response",146,3218529,"0.0-3.45-0.45","bc9hr80gw4q3fzx",713,"52.csv","","1079.0999999940395","resources/trios/L4T4A2.jpg","37","restless",0.7,0.5,0.5,0.360692211874834,"true"
"image-keyboard-response",147,3218935,"0.0-3.45-1.45","bc9hr80gw4q3fzx",713,"52.csv","","null","resources/maskTrios/L4BB.jpg","null","",NA,NA,NA,NA,""
"image-keyboard-response",148,3220138,"0.0-3.45-2.45","bc9hr80gw4q3fzx",713,"52.csv","","null","resources/images/coin2.png","null","",NA,NA,NA,NA,""
"image-keyboard-response",149,3221955,"0.0-3.46-0.46","bc9hr80gw4q3fzx",713,"52.csv","","1814.5","resources/trios/L1T4A2.jpg","37","restless",0.7,0.5,0.5,0.878885946075892,"false"
"image-keyboard-response",150,3222359,"0.0-3.46-1.46","bc9hr80gw4q3fzx",713,"52.csv","","null","resources/maskTrios/L1BB.jpg","null","",NA,NA,NA,NA,""
"image-keyboard-response",151,3223561,"0.0-3.46-2.46","bc9hr80gw4q3fzx",713,"52.csv","","null","resources/images/fishbone.png","null","",NA,NA,NA,NA,""
"image-keyboard-response",152,3224111,"0.0-3.47-0.47","bc9hr80gw4q3fzx",713,"52.csv","","548.5","resources/trios/L1T1A2.jpg","37","restless",0.7,0.5,0.5,0.424233176735804,"true"
"image-keyboard-response",153,3224514,"0.0-3.47-1.47","bc9hr80gw4q3fzx",713,"52.csv","","null","resources/maskTrios/L1BB.jpg","null","",NA,NA,NA,NA,""
"image-keyboard-response",154,3225718,"0.0-3.47-2.47","bc9hr80gw4q3fzx",713,"52.csv","","null","resources/images/coin2.png","null","",NA,NA,NA,NA,""
"image-keyboard-response",155,3225954,"0.0-3.48-0.48","bc9hr80gw4q3fzx",713,"52.csv","","234.90000000596046","resources/trios/L4T1A2.jpg","38","restless",0.7,0.5,0.5,0.0889331856166575,"true"
"image-keyboard-response",156,3226359,"0.0-3.48-1.48","bc9hr80gw4q3fzx",713,"52.csv","","null","resources/maskTrios/BT1B.jpg","null","",NA,NA,NA,NA,""
"image-keyboard-response",157,3227564,"0.0-3.48-2.48","bc9hr80gw4q3fzx",713,"52.csv","","null","resources/images/coin2.png","null","",NA,NA,NA,NA,""
"image-keyboard-response",158,3227702,"0.0-3.49-0.49","bc9hr80gw4q3fzx",713,"52.csv","","136.70000000298023","resources/trios/L4T4A1.jpg","39","restless",0.7,0.4,0.5,0.406130166103628,"true"
"image-keyboard-response",159,3228107,"0.0-3.49-1.49","bc9hr80gw4q3fzx",713,"52.csv","","null","resources/maskTrios/BBA1.jpg","null","",NA,NA,NA,NA,""
"image-keyboard-response",160,3229311,"0.0-3.49-2.49","bc9hr80gw4q3fzx",713,"52.csv","","null","resources/images/coin2.png","null","",NA,NA,NA,NA,""
"image-keyboard-response",161,3231162,"0.0-3.50-0.50","bc9hr80gw4q3fzx",713,"52.csv","","1849.4000000059605","resources/trios/L4T1A2.jpg","39","restless",0.7,0.4,0.5,0.193023266051567,"true"
"image-keyboard-response",162,3231567,"0.0-3.50-1.50","bc9hr80gw4q3fzx",713,"52.csv","","null","resources/maskTrios/BBA2.jpg","null","",NA,NA,NA,NA,""
"image-keyboard-response",163,3232772,"0.0-3.50-2.50","bc9hr80gw4q3fzx",713,"52.csv","","null","resources/images/coin2.png","null","",NA,NA,NA,NA,""
"image-keyboard-response",164,3233053,"0.0-3.51-0.51","bc9hr80gw4q3fzx",713,"52.csv","","279.29999999701977","resources/trios/L1T1A1.jpg","37","restless",0.7,0.4,0.5,0.519705274974718,"true"
"image-keyboard-response",165,3233458,"0.0-3.51-1.51","bc9hr80gw4q3fzx",713,"52.csv","","null","resources/maskTrios/L1BB.jpg","null","",NA,NA,NA,NA,""
"image-keyboard-response",166,3234659,"0.0-3.51-2.51","bc9hr80gw4q3fzx",713,"52.csv","","null","resources/images/coin2.png","null","",NA,NA,NA,NA,""
"image-keyboard-response",167,3234897,"0.0-3.52-0.52","bc9hr80gw4q3fzx",713,"52.csv","","236.20000000298023","resources/trios/L4T1A1.jpg","38","restless",0.7,0.4,0.5,0.696533848014056,"false"
"image-keyboard-response",168,3235301,"0.0-3.52-1.52","bc9hr80gw4q3fzx",713,"52.csv","","null","resources/maskTrios/BT1B.jpg","null","",NA,NA,NA,NA,""
"image-keyboard-response",169,3236507,"0.0-3.52-2.52","bc9hr80gw4q3fzx",713,"52.csv","","null","resources/images/fishbone.png","null","",NA,NA,NA,NA,""
"image-keyboard-response",170,3236726,"0.0-3.53-0.53","bc9hr80gw4q3fzx",713,"52.csv","","217.29999999701977","resources/trios/L1T1A2.jpg","39","restless",0.7,0.4,0.5,0.382697654263426,"true"
"image-keyboard-response",171,3237132,"0.0-3.53-1.53","bc9hr80gw4q3fzx",713,"52.csv","","null","resources/maskTrios/BBA2.jpg","null","",NA,NA,NA,NA,""
"image-keyboard-response",172,3238337,"0.0-3.53-2.53","bc9hr80gw4q3fzx",713,"52.csv","","null","resources/images/coin2.png","null","",NA,NA,NA,NA,""
"image-keyboard-response",173,3238977,"0.0-3.54-0.54","bc9hr80gw4q3fzx",713,"52.csv","","638.1999999880791","resources/trios/L1T1A2.jpg","38","restless",0.6,0.4,0.5,0.208478463369111,"true"
"image-keyboard-response",174,3239382,"0.0-3.54-1.54","bc9hr80gw4q3fzx",713,"52.csv","","null","resources/maskTrios/BT1B.jpg","null","",NA,NA,NA,NA,""
"image-keyboard-response",175,3240587,"0.0-3.54-2.54","bc9hr80gw4q3fzx",713,"52.csv","","null","resources/images/coin2.png","null","",NA,NA,NA,NA,""
"image-keyboard-response",176,3240853,"0.0-3.55-0.55","bc9hr80gw4q3fzx",713,"52.csv","","263.79999999701977","resources/trios/L1T4A2.jpg","37","restless",0.6,0.4,0.5,0.92421482344103,"false"
"image-keyboard-response",177,3241254,"0.0-3.55-1.55","bc9hr80gw4q3fzx",713,"52.csv","","null","resources/maskTrios/L1BB.jpg","null","",NA,NA,NA,NA,""
"image-keyboard-response",178,3242461,"0.0-3.55-2.55","bc9hr80gw4q3fzx",713,"52.csv","","null","resources/images/fishbone.png","null","",NA,NA,NA,NA,""
"image-keyboard-response",179,3242681,"0.0-3.56-0.56","bc9hr80gw4q3fzx",713,"52.csv","","218.6000000089407","resources/trios/L1T1A2.jpg","37","restless",0.6,0.4,0.5,0.705611588569715,"false"
"image-keyboard-response",180,3243087,"0.0-3.56-1.56","bc9hr80gw4q3fzx",713,"52.csv","","null","resources/maskTrios/L1BB.jpg","null","",NA,NA,NA,NA,""
"image-keyboard-response",181,3244289,"0.0-3.56-2.56","bc9hr80gw4q3fzx",713,"52.csv","","null","resources/images/fishbone.png","null","",NA,NA,NA,NA,""
"image-keyboard-response",182,3245275,"0.0-3.57-0.57","bc9hr80gw4q3fzx",713,"52.csv","","984.3999999910593","resources/trios/L4T1A2.jpg","37","restless",0.6,0.4,0.5,0.556618082127843,"true"
"image-keyboard-response",183,3245681,"0.0-3.57-1.57","bc9hr80gw4q3fzx",713,"52.csv","","null","resources/maskTrios/L4BB.jpg","null","",NA,NA,NA,NA,""
"image-keyboard-response",184,3246887,"0.0-3.57-2.57","bc9hr80gw4q3fzx",713,"52.csv","","null","resources/images/coin2.png","null","",NA,NA,NA,NA,""
"image-keyboard-response",185,3249176,"0.0-3.58-0.58","bc9hr80gw4q3fzx",713,"52.csv","","2287","resources/trios/L1T4A2.jpg","38","restless",0.6,0.4,0.5,0.578482998389948,"false"
"image-keyboard-response",186,3249578,"0.0-3.58-1.58","bc9hr80gw4q3fzx",713,"52.csv","","null","resources/maskTrios/BT4B.jpg","null","",NA,NA,NA,NA,""
"image-keyboard-response",187,3250784,"0.0-3.58-2.58","bc9hr80gw4q3fzx",713,"52.csv","","null","resources/images/fishbone.png","null","",NA,NA,NA,NA,""
"image-keyboard-response",188,3251241,"0.0-3.59-0.59","bc9hr80gw4q3fzx",713,"52.csv","","455.70000000298023","resources/trios/L4T1A2.jpg","37","restless",0.6,0.5,0.5,0.915109354547237,"false"
"image-keyboard-response",189,3251646,"0.0-3.59-1.59","bc9hr80gw4q3fzx",713,"52.csv","","null","resources/maskTrios/L4BB.jpg","null","",NA,NA,NA,NA,""
"image-keyboard-response",190,3252850,"0.0-3.59-2.59","bc9hr80gw4q3fzx",713,"52.csv","","null","resources/images/fishbone.png","null","",NA,NA,NA,NA,""
"image-keyboard-response",191,3253033,"0.0-3.60-0.60","bc9hr80gw4q3fzx",713,"52.csv","","180.5","resources/trios/L4T1A1.jpg","37","restless",0.6,0.5,0.5,0.024467363951246,"true"
"image-keyboard-response",192,3253438,"0.0-3.60-1.60","bc9hr80gw4q3fzx",713,"52.csv","","null","resources/maskTrios/L4BB.jpg","null","",NA,NA,NA,NA,""
"image-keyboard-response",193,3254643,"0.0-3.60-2.60","bc9hr80gw4q3fzx",713,"52.csv","","null","resources/images/coin2.png","null","",NA,NA,NA,NA,""
"image-keyboard-response",194,3255986,"0.0-3.61-0.61","bc9hr80gw4q3fzx",713,"52.csv","","1341.7000000029802","resources/trios/L1T4A2.jpg","39","restless",0.6,0.5,0.5,0.696490255395891,"false"
"image-keyboard-response",195,3256391,"0.0-3.61-1.61","bc9hr80gw4q3fzx",713,"52.csv","","null","resources/maskTrios/BBA2.jpg","null","",NA,NA,NA,NA,""
"image-keyboard-response",196,3257593,"0.0-3.61-2.61","bc9hr80gw4q3fzx",713,"52.csv","","null","resources/images/fishbone.png","null","",NA,NA,NA,NA,""
"image-keyboard-response",197,3258309,"0.0-3.62-0.62","bc9hr80gw4q3fzx",713,"52.csv","","713.5999999940395","resources/trios/L4T4A2.jpg","37","restless",0.6,0.5,0.5,0.460035474506745,"true"
"image-keyboard-response",198,3258711,"0.0-3.62-1.62","bc9hr80gw4q3fzx",713,"52.csv","","null","resources/maskTrios/L4BB.jpg","null","",NA,NA,NA,NA,""
"image-keyboard-response",199,3259915,"0.0-3.62-2.62","bc9hr80gw4q3fzx",713,"52.csv","","null","resources/images/coin2.png","null","",NA,NA,NA,NA,""
"image-keyboard-response",200,3262284,"0.0-3.63-0.63","bc9hr80gw4q3fzx",713,"52.csv","","2367.4000000059605","resources/trios/L1T1A1.jpg","37","restless",0.6,0.5,0.5,0.137123012421974,"true"
"image-keyboard-response",201,3262689,"0.0-3.63-1.63","bc9hr80gw4q3fzx",713,"52.csv","","null","resources/maskTrios/L1BB.jpg","null","",NA,NA,NA,NA,""
"image-keyboard-response",202,3263894,"0.0-3.63-2.63","bc9hr80gw4q3fzx",713,"52.csv","","null","resources/images/coin2.png","null","",NA,NA,NA,NA,""
"image-keyboard-response",203,3265141,"0.0-3.64-0.64","bc9hr80gw4q3fzx",713,"52.csv","","1244.9000000059605","resources/trios/L1T1A2.jpg","38","restless",0.6,0.5,0.5,0.670447093913223,"false"
"image-keyboard-response",204,3265545,"0.0-3.64-1.64","bc9hr80gw4q3fzx",713,"52.csv","","null","resources/maskTrios/BT1B.jpg","null","",NA,NA,NA,NA,""
"image-keyboard-response",205,3266749,"0.0-3.64-2.64","bc9hr80gw4q3fzx",713,"52.csv","","null","resources/images/fishbone.png","null","",NA,NA,NA,NA,""
"image-keyboard-response",206,3267015,"0.0-3.65-0.65","bc9hr80gw4q3fzx",713,"52.csv","","264.69999998807907","resources/trios/L1T1A2.jpg","37","restless",0.5,0.5,0.4,0.756290344921781,"false"
"image-keyboard-response",207,3267421,"0.0-3.65-1.65","bc9hr80gw4q3fzx",713,"52.csv","","null","resources/maskTrios/L1BB.jpg","null","",NA,NA,NA,NA,""
"image-keyboard-response",208,3268625,"0.0-3.65-2.65","bc9hr80gw4q3fzx",713,"52.csv","","null","resources/images/fishbone.png","null","",NA,NA,NA,NA,""
"image-keyboard-response",209,3269074,"0.0-3.66-0.66","bc9hr80gw4q3fzx",713,"52.csv","","447.59999999403954","resources/trios/L1T4A1.jpg","37","restless",0.5,0.5,0.4,0.591859990635469,"false"
"image-keyboard-response",210,3269476,"0.0-3.66-1.66","bc9hr80gw4q3fzx",713,"52.csv","","null","resources/maskTrios/L1BB.jpg","null","",NA,NA,NA,NA,""
"image-keyboard-response",211,3270681,"0.0-3.66-2.66","bc9hr80gw4q3fzx",713,"52.csv","","null","resources/images/fishbone.png","null","",NA,NA,NA,NA,""
"image-keyboard-response",212,3272240,"0.0-3.67-0.67","bc9hr80gw4q3fzx",713,"52.csv","","1557.5","resources/trios/L1T1A2.jpg","39","restless",0.5,0.5,0.4,0.375316707552147,"true"
"image-keyboard-response",213,3272643,"0.0-3.67-1.67","bc9hr80gw4q3fzx",713,"52.csv","","null","resources/maskTrios/BBA2.jpg","null","",NA,NA,NA,NA,""
"image-keyboard-response",214,3273845,"0.0-3.67-2.67","bc9hr80gw4q3fzx",713,"52.csv","","null","resources/images/coin2.png","null","",NA,NA,NA,NA,""
"image-keyboard-response",215,3274161,"0.0-3.68-0.68","bc9hr80gw4q3fzx",713,"52.csv","","314.59999999403954","resources/trios/L4T4A2.jpg","38","restless",0.5,0.5,0.4,0.559691955818586,"false"
"image-keyboard-response",216,3274565,"0.0-3.68-1.68","bc9hr80gw4q3fzx",713,"52.csv","","null","resources/maskTrios/BT4B.jpg","null","",NA,NA,NA,NA,""
"image-keyboard-response",217,3275767,"0.0-3.68-2.68","bc9hr80gw4q3fzx",713,"52.csv","","null","resources/images/fishbone.png","null","",NA,NA,NA,NA,""
"image-keyboard-response",218,3276770,"0.0-3.69-0.69","bc9hr80gw4q3fzx",713,"52.csv","","1001.6000000089407","resources/trios/L1T1A1.jpg","37","restless",0.5,0.5,0.4,0.111147868759848,"true"
"image-keyboard-response",219,3277176,"0.0-3.69-1.69","bc9hr80gw4q3fzx",713,"52.csv","","null","resources/maskTrios/L1BB.jpg","null","",NA,NA,NA,NA,""
"image-keyboard-response",220,3278382,"0.0-3.69-2.69","bc9hr80gw4q3fzx",713,"52.csv","","null","resources/images/coin2.png","null","",NA,NA,NA,NA,""
"image-keyboard-response",221,3282489,"0.0-3.70-0.70","bc9hr80gw4q3fzx",713,"52.csv","","4105.300000011921","resources/trios/L1T1A1.jpg","39","restless",0.6,0.5,0.4,0.0482187790948305,"true"
"image-keyboard-response",222,3282895,"0.0-3.70-1.70","bc9hr80gw4q3fzx",713,"52.csv","","null","resources/maskTrios/BBA1.jpg","null","",NA,NA,NA,NA,""
"image-keyboard-response",223,3284103,"0.0-3.70-2.70","bc9hr80gw4q3fzx",713,"52.csv","","null","resources/images/coin2.png","null","",NA,NA,NA,NA,""
"image-keyboard-response",224,3288576,"0.0-3.71-0.71","bc9hr80gw4q3fzx",713,"52.csv","","4471.4000000059605","resources/trios/L1T4A1.jpg","38","restless",0.6,0.4,0.4,0.515287479094151,"false"
"image-keyboard-response",225,3288981,"0.0-3.71-1.71","bc9hr80gw4q3fzx",713,"52.csv","","null","resources/maskTrios/BT4B.jpg","null","",NA,NA,NA,NA,""
"image-keyboard-response",226,3290183,"0.0-3.71-2.71","bc9hr80gw4q3fzx",713,"52.csv","","null","resources/images/fishbone.png","null","",NA,NA,NA,NA,""
"image-keyboard-response",227,3290724,"0.0-3.72-0.72","bc9hr80gw4q3fzx",713,"52.csv","","539.0999999940395","resources/trios/L4T4A2.jpg","37","restless",0.6,0.4,0.4,0.99950194147279,"false"
"image-keyboard-response",228,3291129,"0.0-3.72-1.72","bc9hr80gw4q3fzx",713,"52.csv","","null","resources/maskTrios/L4BB.jpg","null","",NA,NA,NA,NA,""
"image-keyboard-response",229,3292335,"0.0-3.72-2.72","bc9hr80gw4q3fzx",713,"52.csv","","null","resources/images/fishbone.png","null","",NA,NA,NA,NA,""
"image-keyboard-response",230,3292578,"0.0-3.73-0.73","bc9hr80gw4q3fzx",713,"52.csv","","241.20000000298023","resources/trios/L4T4A2.jpg","37","restless",0.6,0.4,0.4,0.16599670491123,"true"
"image-keyboard-response",231,3292980,"0.0-3.73-1.73","bc9hr80gw4q3fzx",713,"52.csv","","null","resources/maskTrios/L4BB.jpg","null","",NA,NA,NA,NA,""
"image-keyboard-response",232,3294183,"0.0-3.73-2.73","bc9hr80gw4q3fzx",713,"52.csv","","null","resources/images/coin2.png","null","",NA,NA,NA,NA,""
"image-keyboard-response",233,3294558,"0.0-3.74-0.74","bc9hr80gw4q3fzx",713,"52.csv","","373.6000000089407","resources/trios/L1T1A2.jpg","39","restless",0.6,0.4,0.4,0.607768290003442,"false"
"image-keyboard-response",234,3294964,"0.0-3.74-1.74","bc9hr80gw4q3fzx",713,"52.csv","","null","resources/maskTrios/BBA2.jpg","null","",NA,NA,NA,NA,""
"image-keyboard-response",235,3296169,"0.0-3.74-2.74","bc9hr80gw4q3fzx",713,"52.csv","","null","resources/images/fishbone.png","null","",NA,NA,NA,NA,""
"image-keyboard-response",236,3296391,"0.0-3.75-0.75","bc9hr80gw4q3fzx",713,"52.csv","","220.5","resources/trios/L1T4A1.jpg","38","restless",0.6,0.4,0.4,0.072665419377969,"true"
"image-keyboard-response",237,3296797,"0.0-3.75-1.75","bc9hr80gw4q3fzx",713,"52.csv","","null","resources/maskTrios/BT4B.jpg","null","",NA,NA,NA,NA,""
"image-keyboard-response",238,3298001,"0.0-3.75-2.75","bc9hr80gw4q3fzx",713,"52.csv","","null","resources/images/coin2.png","null","",NA,NA,NA,NA,""
"image-keyboard-response",239,3299174,"0.0-3.76-0.76","bc9hr80gw4q3fzx",713,"52.csv","","1170.6000000089407","resources/trios/L4T1A2.jpg","37","restless",0.6,0.5,0.4,0.663768577017849,"false"
"image-keyboard-response",240,3299576,"0.0-3.76-1.76","bc9hr80gw4q3fzx",713,"52.csv","","null","resources/maskTrios/L4BB.jpg","null","",NA,NA,NA,NA,""
"image-keyboard-response",241,3300782,"0.0-3.76-2.76","bc9hr80gw4q3fzx",713,"52.csv","","null","resources/images/fishbone.png","null","",NA,NA,NA,NA,""
"image-keyboard-response",242,3301008,"0.0-3.77-0.77","bc9hr80gw4q3fzx",713,"52.csv","","224.69999998807907","resources/trios/L1T1A1.jpg","37","restless",0.6,0.5,0.4,0.595096618905909,"true"
"image-keyboard-response",243,3301413,"0.0-3.77-1.77","bc9hr80gw4q3fzx",713,"52.csv","","null","resources/maskTrios/L1BB.jpg","null","",NA,NA,NA,NA,""
"image-keyboard-response",244,3302618,"0.0-3.77-2.77","bc9hr80gw4q3fzx",713,"52.csv","","null","resources/images/coin2.png","null","",NA,NA,NA,NA,""
"image-keyboard-response",245,3303030,"0.0-3.78-0.78","bc9hr80gw4q3fzx",713,"52.csv","","409.70000000298023","resources/trios/L1T1A2.jpg","38","restless",0.6,0.5,0.4,0.232576369937053,"true"
"image-keyboard-response",246,3303435,"0.0-3.78-1.78","bc9hr80gw4q3fzx",713,"52.csv","","null","resources/maskTrios/BT1B.jpg","null","",NA,NA,NA,NA,""
"image-keyboard-response",247,3304638,"0.0-3.78-2.78","bc9hr80gw4q3fzx",713,"52.csv","","null","resources/images/coin2.png","null","",NA,NA,NA,NA,""
"image-keyboard-response",248,3304865,"0.0-3.79-0.79","bc9hr80gw4q3fzx",713,"52.csv","","226","resources/trios/L4T1A1.jpg","39","restless",0.6,0.5,0.4,0.823444261072463,"false"
"image-keyboard-response",249,3305267,"0.0-3.79-1.79","bc9hr80gw4q3fzx",713,"52.csv","","null","resources/maskTrios/BBA1.jpg","null","",NA,NA,NA,NA,""
"image-keyboard-response",250,3306473,"0.0-3.79-2.79","bc9hr80gw4q3fzx",713,"52.csv","","null","resources/images/fishbone.png","null","",NA,NA,NA,NA,""
"image-keyboard-response",251,3306683,"0.0-3.80-0.80","bc9hr80gw4q3fzx",713,"52.csv","","208.8999999910593","resources/trios/L4T1A2.jpg","37","restless",0.6,0.5,0.5,0.0278323978353958,"true"
"image-keyboard-response",252,3307086,"0.0-3.80-1.80","bc9hr80gw4q3fzx",713,"52.csv","","null","resources/maskTrios/L4BB.jpg","null","",NA,NA,NA,NA,""
"image-keyboard-response",253,3308293,"0.0-3.80-2.80","bc9hr80gw4q3fzx",713,"52.csv","","null","resources/images/coin2.png","null","",NA,NA,NA,NA,""
"image-keyboard-response",254,3308508,"0.0-3.81-0.81","bc9hr80gw4q3fzx",713,"52.csv","","212.70000000298023","resources/trios/L4T1A1.jpg","38","restless",0.6,0.5,0.5,0.29955753034078,"true"
"image-keyboard-response",255,3308913,"0.0-3.81-1.81","bc9hr80gw4q3fzx",713,"52.csv","","null","resources/maskTrios/BT1B.jpg","null","",NA,NA,NA,NA,""
"image-keyboard-response",256,3310117,"0.0-3.81-2.81","bc9hr80gw4q3fzx",713,"52.csv","","null","resources/images/coin2.png","null","",NA,NA,NA,NA,""
"image-keyboard-response",257,3310894,"0.0-3.82-0.82","bc9hr80gw4q3fzx",713,"52.csv","","775.1000000089407","resources/trios/L1T1A1.jpg","39","restless",0.6,0.5,0.5,0.687693429249286,"false"
"image-keyboard-response",258,3311297,"0.0-3.82-1.82","bc9hr80gw4q3fzx",713,"52.csv","","null","resources/maskTrios/BBA1.jpg","null","",NA,NA,NA,NA,""
"image-keyboard-response",259,3312499,"0.0-3.82-2.82","bc9hr80gw4q3fzx",713,"52.csv","","null","resources/images/fishbone.png","null","",NA,NA,NA,NA,""
"image-keyboard-response",260,3312731,"0.0-3.83-0.83","bc9hr80gw4q3fzx",713,"52.csv","","230.09999999403954","resources/trios/L4T1A1.jpg","37","restless",0.6,0.5,0.5,0.911668506737967,"false"
"image-keyboard-response",261,3313135,"0.0-3.83-1.83","bc9hr80gw4q3fzx",713,"52.csv","","null","resources/maskTrios/L4BB.jpg","null","",NA,NA,NA,NA,""
"image-keyboard-response",262,3314341,"0.0-3.83-2.83","bc9hr80gw4q3fzx",713,"52.csv","","null","resources/images/fishbone.png","null","",NA,NA,NA,NA,""
"image-keyboard-response",263,3314560,"0.0-3.84-0.84","bc9hr80gw4q3fzx",713,"52.csv","","218.1000000089407","resources/trios/L4T4A2.jpg","39","restless",0.6,0.5,0.5,0.762790350521775,"false"
"image-keyboard-response",264,3314965,"0.0-3.84-1.84","bc9hr80gw4q3fzx",713,"52.csv","","null","resources/maskTrios/BBA2.jpg","null","",NA,NA,NA,NA,""
"image-keyboard-response",265,3316171,"0.0-3.84-2.84","bc9hr80gw4q3fzx",713,"52.csv","","null","resources/images/fishbone.png","null","",NA,NA,NA,NA,""
"image-keyboard-response",266,3316255,"0.0-3.85-0.85","bc9hr80gw4q3fzx",713,"52.csv","","82.79999999701977","resources/trios/L1T1A1.jpg","39","restless",0.6,0.5,0.6,0.528996609844294,"true"
"image-keyboard-response",267,3316659,"0.0-3.85-1.85","bc9hr80gw4q3fzx",713,"52.csv","","null","resources/maskTrios/BBA1.jpg","null","",NA,NA,NA,NA,""
"image-keyboard-response",268,3317866,"0.0-3.85-2.85","bc9hr80gw4q3fzx",713,"52.csv","","null","resources/images/coin2.png","null","",NA,NA,NA,NA,""
"image-keyboard-response",269,3329667,"0.0-3.86-0.86","bc9hr80gw4q3fzx",713,"52.csv","","11798.59999999404","resources/trios/L1T1A2.jpg","39","restless",0.6,0.4,0.6,0.963108322565509,"false"
"image-keyboard-response",270,3330074,"0.0-3.86-1.86","bc9hr80gw4q3fzx",713,"52.csv","","null","resources/maskTrios/BBA2.jpg","null","",NA,NA,NA,NA,""
"image-keyboard-response",271,3331279,"0.0-3.86-2.86","bc9hr80gw4q3fzx",713,"52.csv","","null","resources/images/fishbone.png","null","",NA,NA,NA,NA,""
"image-keyboard-response",272,3332141,"0.0-3.87-0.87","bc9hr80gw4q3fzx",713,"52.csv","","859.7999999970198","resources/trios/L1T1A1.jpg","39","restless",0.7,0.4,0.6,0.996108349783873,"false"
"image-keyboard-response",273,3332543,"0.0-3.87-1.87","bc9hr80gw4q3fzx",713,"52.csv","","null","resources/maskTrios/BBA1.jpg","null","",NA,NA,NA,NA,""
"image-keyboard-response",274,3333746,"0.0-3.87-2.87","bc9hr80gw4q3fzx",713,"52.csv","","null","resources/images/fishbone.png","null","",NA,NA,NA,NA,""
"image-keyboard-response",275,3334218,"0.0-3.88-0.88","bc9hr80gw4q3fzx",713,"52.csv","","470.5","resources/trios/L1T1A1.jpg","39","restless",0.7,0.4,0.6,0.417186015946783,"true"
"image-keyboard-response",276,3334624,"0.0-3.88-1.88","bc9hr80gw4q3fzx",713,"52.csv","","null","resources/maskTrios/BBA1.jpg","null","",NA,NA,NA,NA,""
"image-keyboard-response",277,3335829,"0.0-3.88-2.88","bc9hr80gw4q3fzx",713,"52.csv","","null","resources/images/coin2.png","null","",NA,NA,NA,NA,""
"image-keyboard-response",278,3336546,"0.0-3.89-0.89","bc9hr80gw4q3fzx",713,"52.csv","","715.5999999940395","resources/trios/L4T1A1.jpg","39","restless",0.7,0.4,0.6,0.233748754271341,"true"
"image-keyboard-response",279,3336949,"0.0-3.89-1.89","bc9hr80gw4q3fzx",713,"52.csv","","null","resources/maskTrios/BBA1.jpg","null","",NA,NA,NA,NA,""
"image-keyboard-response",280,3338153,"0.0-3.89-2.89","bc9hr80gw4q3fzx",713,"52.csv","","null","resources/images/coin2.png","null","",NA,NA,NA,NA,""
"image-keyboard-response",281,3405806,"0.0-3.90-0.90","bc9hr80gw4q3fzx",713,"52.csv","","67650.39999999106","resources/trios/L1T4A2.jpg","37","restless",0.7,0.4,0.6,0.295400308443618,"true"
"image-keyboard-response",282,3406214,"0.0-3.90-1.90","bc9hr80gw4q3fzx",713,"52.csv","","null","resources/maskTrios/L1BB.jpg","null","",NA,NA,NA,NA,""
"image-keyboard-response",283,3407416,"0.0-3.90-2.90","bc9hr80gw4q3fzx",713,"52.csv","","null","resources/images/coin2.png","null","",NA,NA,NA,NA,""
"image-keyboard-response",284,3419098,"0.0-3.91-0.91","bc9hr80gw4q3fzx",713,"52.csv","","11680.29999999702","resources/trios/L1T4A2.jpg","37","restless",0.7,0.4,0.6,0.776559301809749,"false"
"image-keyboard-response",285,3419504,"0.0-3.91-1.91","bc9hr80gw4q3fzx",713,"52.csv","","null","resources/maskTrios/L1BB.jpg","null","",NA,NA,NA,NA,""
"image-keyboard-response",286,3420709,"0.0-3.91-2.91","bc9hr80gw4q3fzx",713,"52.csv","","null","resources/images/fishbone.png","null","",NA,NA,NA,NA,""
"image-keyboard-response",287,3424263,"0.0-3.92-0.92","bc9hr80gw4q3fzx",713,"52.csv","","3552.5999999940395","resources/trios/L4T4A2.jpg","37","restless",0.7,0.4,0.6,0.335191259097546,"true"
"image-keyboard-response",288,3424668,"0.0-3.92-1.92","bc9hr80gw4q3fzx",713,"52.csv","","null","resources/maskTrios/L4BB.jpg","null","",NA,NA,NA,NA,""
"image-keyboard-response",289,3425872,"0.0-3.92-2.92","bc9hr80gw4q3fzx",713,"52.csv","","null","resources/images/coin2.png","null","",NA,NA,NA,NA,""
"image-keyboard-response",290,3445187,"0.0-3.93-0.93","bc9hr80gw4q3fzx",713,"52.csv","","19313.10000000894","resources/trios/L4T1A1.jpg","39","restless",0.7,0.4,0.6,0.230405398928705,"true"
"image-keyboard-response",291,3445594,"0.0-3.93-1.93","bc9hr80gw4q3fzx",713,"52.csv","","null","resources/maskTrios/BBA1.jpg","null","",NA,NA,NA,NA,""
"image-keyboard-response",292,3446800,"0.0-3.93-2.93","bc9hr80gw4q3fzx",713,"52.csv","","null","resources/images/coin2.png","null","",NA,NA,NA,NA,""
"image-keyboard-response",293,3450919,"0.0-3.94-0.94","bc9hr80gw4q3fzx",713,"52.csv","","4117.399999991059","resources/trios/L4T1A2.jpg","38","restless",0.7,0.4,0.6,0.334584802059362,"true"
"image-keyboard-response",294,3451324,"0.0-3.94-1.94","bc9hr80gw4q3fzx",713,"52.csv","","null","resources/maskTrios/BT1B.jpg","null","",NA,NA,NA,NA,""
"image-keyboard-response",295,3452530,"0.0-3.94-2.94","bc9hr80gw4q3fzx",713,"52.csv","","null","resources/images/coin2.png","null","",NA,NA,NA,NA,""
"image-keyboard-response",296,3455314,"0.0-3.95-0.95","bc9hr80gw4q3fzx",713,"52.csv","","2781.5999999940395","resources/trios/L4T4A2.jpg","37","restless",0.8,0.4,0.6,0.0915182532994077,"true"
"image-keyboard-response",297,3455716,"0.0-3.95-1.95","bc9hr80gw4q3fzx",713,"52.csv","","null","resources/maskTrios/L4BB.jpg","null","",NA,NA,NA,NA,""
"image-keyboard-response",298,3456922,"0.0-3.95-2.95","bc9hr80gw4q3fzx",713,"52.csv","","null","resources/images/coin2.png","null","",NA,NA,NA,NA,""
"image-keyboard-response",299,3461663,"0.0-3.96-0.96","bc9hr80gw4q3fzx",713,"52.csv","","4739.4000000059605","resources/trios/L4T1A2.jpg","38","restless",0.8,0.4,0.6,0.889672069979296,"false"
"image-keyboard-response",300,3462068,"0.0-3.96-1.96","bc9hr80gw4q3fzx",713,"52.csv","","null","resources/maskTrios/BT1B.jpg","null","",NA,NA,NA,NA,""
"image-keyboard-response",301,3463271,"0.0-3.96-2.96","bc9hr80gw4q3fzx",713,"52.csv","","null","resources/images/fishbone.png","null","",NA,NA,NA,NA,""
"image-keyboard-response",302,3464511,"0.0-3.97-0.97","bc9hr80gw4q3fzx",713,"52.csv","","1238.199999988079","resources/trios/L4T4A1.jpg","39","restless",0.8,0.4,0.6,0.332540636741343,"true"
"image-keyboard-response",303,3464915,"0.0-3.97-1.97","bc9hr80gw4q3fzx",713,"52.csv","","null","resources/maskTrios/BBA1.jpg","null","",NA,NA,NA,NA,""
"image-keyboard-response",304,3466118,"0.0-3.97-2.97","bc9hr80gw4q3fzx",713,"52.csv","","null","resources/images/coin2.png","null","",NA,NA,NA,NA,""
"image-keyboard-response",305,3468325,"0.0-3.98-0.98","bc9hr80gw4q3fzx",713,"52.csv","","2205","resources/trios/L4T4A2.jpg","37","restless",0.8,0.4,0.6,0.820126784336219,"false"
"image-keyboard-response",306,3468730,"0.0-3.98-1.98","bc9hr80gw4q3fzx",713,"52.csv","","null","resources/maskTrios/L4BB.jpg","null","",NA,NA,NA,NA,""
"image-keyboard-response",307,3469935,"0.0-3.98-2.98","bc9hr80gw4q3fzx",713,"52.csv","","null","resources/images/fishbone.png","null","",NA,NA,NA,NA,""
"image-keyboard-response",308,3472704,"0.0-3.99-0.99","bc9hr80gw4q3fzx",713,"52.csv","","2767.5999999940395","resources/trios/L1T4A2.jpg","37","restless",0.8,0.4,0.6,0.755904794537987,"true"
"image-keyboard-response",309,3473109,"0.0-3.99-1.99","bc9hr80gw4q3fzx",713,"52.csv","","null","resources/maskTrios/L1BB.jpg","null","",NA,NA,NA,NA,""
"image-keyboard-response",310,3474314,"0.0-3.99-2.99","bc9hr80gw4q3fzx",713,"52.csv","","null","resources/images/coin2.png","null","",NA,NA,NA,NA,""
"image-keyboard-response",311,3478061,"0.0-3.100-0.100","bc9hr80gw4q3fzx",713,"52.csv","","3744.5","resources/trios/L1T4A2.jpg","38","restless",0.8,0.3,0.6,0.612665328052086,"false"
"image-keyboard-response",312,3478466,"0.0-3.100-1.100","bc9hr80gw4q3fzx",713,"52.csv","","null","resources/maskTrios/BT4B.jpg","null","",NA,NA,NA,NA,""
"image-keyboard-response",313,3479672,"0.0-3.100-2.100","bc9hr80gw4q3fzx",713,"52.csv","","null","resources/images/fishbone.png","null","",NA,NA,NA,NA,""
"image-keyboard-response",314,3480808,"0.0-3.101-0.101","bc9hr80gw4q3fzx",713,"52.csv","","1134.7000000029802","resources/trios/L4T1A1.jpg","39","restless",0.8,0.3,0.6,0.834639156209619,"false"
"image-keyboard-response",315,3481212,"0.0-3.101-1.101","bc9hr80gw4q3fzx",713,"52.csv","","null","resources/maskTrios/BBA1.jpg","null","",NA,NA,NA,NA,""
"image-keyboard-response",316,3482418,"0.0-3.101-2.101","bc9hr80gw4q3fzx",713,"52.csv","","null","resources/images/fishbone.png","null","",NA,NA,NA,NA,""
"image-keyboard-response",317,3483636,"0.0-3.102-0.102","bc9hr80gw4q3fzx",713,"52.csv","","1216.2999999970198","resources/trios/L4T1A2.jpg","37","restless",0.8,0.2,0.6,0.928360101322036,"false"
"image-keyboard-response",318,3484042,"0.0-3.102-1.102","bc9hr80gw4q3fzx",713,"52.csv","","null","resources/maskTrios/L4BB.jpg","null","",NA,NA,NA,NA,""
"image-keyboard-response",319,3485245,"0.0-3.102-2.102","bc9hr80gw4q3fzx",713,"52.csv","","null","resources/images/fishbone.png","null","",NA,NA,NA,NA,""
"image-keyboard-response",320,3486564,"0.0-3.103-0.103","bc9hr80gw4q3fzx",713,"52.csv","","1317.4000000059605","resources/trios/L4T1A2.jpg","38","restless",0.8,0.2,0.6,0.228712930397226,"false"
"image-keyboard-response",321,3486967,"0.0-3.103-1.103","bc9hr80gw4q3fzx",713,"52.csv","","null","resources/maskTrios/BT1B.jpg","null","",NA,NA,NA,NA,""
"image-keyboard-response",322,3488172,"0.0-3.103-2.103","bc9hr80gw4q3fzx",713,"52.csv","","null","resources/images/fishbone.png","null","",NA,NA,NA,NA,""
"image-keyboard-response",323,3488802,"0.0-3.104-0.104","bc9hr80gw4q3fzx",713,"52.csv","","627.6000000089407","resources/trios/L4T4A2.jpg","37","restless",0.8,0.2,0.6,0.908335370531685,"false"
"image-keyboard-response",324,3489208,"0.0-3.104-1.104","bc9hr80gw4q3fzx",713,"52.csv","","null","resources/maskTrios/L4BB.jpg","null","",NA,NA,NA,NA,""
"image-keyboard-response",325,3490413,"0.0-3.104-2.104","bc9hr80gw4q3fzx",713,"52.csv","","null","resources/images/fishbone.png","null","",NA,NA,NA,NA,""
"image-keyboard-response",326,3490861,"0.0-3.105-0.105","bc9hr80gw4q3fzx",713,"52.csv","","446.3999999910593","resources/trios/L1T4A2.jpg","37","restless",0.8,0.2,0.6,0.0894844469284644,"true"
"image-keyboard-response",327,3491267,"0.0-3.105-1.105","bc9hr80gw4q3fzx",713,"52.csv","","null","resources/maskTrios/L1BB.jpg","null","",NA,NA,NA,NA,""
"image-keyboard-response",328,3492472,"0.0-3.105-2.105","bc9hr80gw4q3fzx",713,"52.csv","","null","resources/images/coin2.png","null","",NA,NA,NA,NA,""
"image-keyboard-response",329,3493074,"0.0-3.106-0.106","bc9hr80gw4q3fzx",713,"52.csv","","600.4000000059605","resources/trios/L1T1A1.jpg","39","restless",0.8,0.2,0.6,0.263488556163922,"true"
"image-keyboard-response",330,3493478,"0.0-3.106-1.106","bc9hr80gw4q3fzx",713,"52.csv","","null","resources/maskTrios/BBA1.jpg","null","",NA,NA,NA,NA,""
"image-keyboard-response",331,3494682,"0.0-3.106-2.106","bc9hr80gw4q3fzx",713,"52.csv","","null","resources/images/coin2.png","null","",NA,NA,NA,NA,""
"image-keyboard-response",332,3498416,"0.0-3.107-0.107","bc9hr80gw4q3fzx",713,"52.csv","","3732","resources/trios/L4T4A1.jpg","39","restless",0.8,0.2,0.6,0.891473418284884,"false"
"image-keyboard-response",333,3498822,"0.0-3.107-1.107","bc9hr80gw4q3fzx",713,"52.csv","","null","resources/maskTrios/BBA1.jpg","null","",NA,NA,NA,NA,""
"image-keyboard-response",334,3500027,"0.0-3.107-2.107","bc9hr80gw4q3fzx",713,"52.csv","","null","resources/images/fishbone.png","null","",NA,NA,NA,NA,""
"image-keyboard-response",335,3500783,"0.0-3.108-0.108","bc9hr80gw4q3fzx",713,"52.csv","","753.7999999970198","resources/trios/L1T1A2.jpg","39","restless",0.9,0.2,0.6,0.958869738902425,"false"
"image-keyboard-response",336,3501185,"0.0-3.108-1.108","bc9hr80gw4q3fzx",713,"52.csv","","null","resources/maskTrios/BBA2.jpg","null","",NA,NA,NA,NA,""
"image-keyboard-response",337,3502390,"0.0-3.108-2.108","bc9hr80gw4q3fzx",713,"52.csv","","null","resources/images/fishbone.png","null","",NA,NA,NA,NA,""
"image-keyboard-response",338,3506414,"0.0-3.109-0.109","bc9hr80gw4q3fzx",713,"52.csv","","4021.5","resources/trios/L4T4A2.jpg","37","restless",0.9,0.3,0.6,0.615388858310743,"true"
"image-keyboard-response",339,3506817,"0.0-3.109-1.109","bc9hr80gw4q3fzx",713,"52.csv","","null","resources/maskTrios/L4BB.jpg","null","",NA,NA,NA,NA,""
"image-keyboard-response",340,3508024,"0.0-3.109-2.109","bc9hr80gw4q3fzx",713,"52.csv","","null","resources/images/coin2.png","null","",NA,NA,NA,NA,""
"image-keyboard-response",341,3509683,"0.0-3.110-0.110","bc9hr80gw4q3fzx",713,"52.csv","","1657.4000000059605","resources/trios/L4T4A2.jpg","37","restless",0.9,0.3,0.6,0.998457662077069,"false"
"image-keyboard-response",342,3510088,"0.0-3.110-1.110","bc9hr80gw4q3fzx",713,"52.csv","","null","resources/maskTrios/L4BB.jpg","null","",NA,NA,NA,NA,""
"image-keyboard-response",343,3511295,"0.0-3.110-2.110","bc9hr80gw4q3fzx",713,"52.csv","","null","resources/images/fishbone.png","null","",NA,NA,NA,NA,""
"image-keyboard-response",344,3512588,"0.0-3.111-0.111","bc9hr80gw4q3fzx",713,"52.csv","","1291.7999999970198","resources/trios/L1T1A2.jpg","37","restless",0.9,0.4,0.6,0.253913747342813,"true"
"image-keyboard-response",345,3512992,"0.0-3.111-1.111","bc9hr80gw4q3fzx",713,"52.csv","","null","resources/maskTrios/L1BB.jpg","null","",NA,NA,NA,NA,""
"image-keyboard-response",346,3514197,"0.0-3.111-2.111","bc9hr80gw4q3fzx",713,"52.csv","","null","resources/images/coin2.png","null","",NA,NA,NA,NA,""
"image-keyboard-response",347,3515239,"0.0-3.112-0.112","bc9hr80gw4q3fzx",713,"52.csv","","1040.9000000059605","resources/trios/L1T1A1.jpg","39","restless",0.9,0.5,0.7,0.975557183252214,"false"
"image-keyboard-response",348,3515644,"0.0-3.112-1.112","bc9hr80gw4q3fzx",713,"52.csv","","null","resources/maskTrios/BBA1.jpg","null","",NA,NA,NA,NA,""
"image-keyboard-response",349,3516849,"0.0-3.112-2.112","bc9hr80gw4q3fzx",713,"52.csv","","null","resources/images/fishbone.png","null","",NA,NA,NA,NA,""
"image-keyboard-response",350,3517164,"0.0-3.113-0.113","bc9hr80gw4q3fzx",713,"52.csv","","313","resources/trios/L1T1A2.jpg","38","restless",0.9,0.5,0.8,0.284674631734033,"true"
"image-keyboard-response",351,3517569,"0.0-3.113-1.113","bc9hr80gw4q3fzx",713,"52.csv","","null","resources/maskTrios/BT1B.jpg","null","",NA,NA,NA,NA,""
"image-keyboard-response",352,3518775,"0.0-3.113-2.113","bc9hr80gw4q3fzx",713,"52.csv","","null","resources/images/coin2.png","null","",NA,NA,NA,NA,""
"image-keyboard-response",353,3521350,"0.0-3.114-0.114","bc9hr80gw4q3fzx",713,"52.csv","","2572.8999999910593","resources/trios/L4T4A2.jpg","37","restless",0.9,0.5,0.7,0.156994928812809,"true"
"image-keyboard-response",354,3521754,"0.0-3.114-1.114","bc9hr80gw4q3fzx",713,"52.csv","","null","resources/maskTrios/L4BB.jpg","null","",NA,NA,NA,NA,""
"image-keyboard-response",355,3522960,"0.0-3.114-2.114","bc9hr80gw4q3fzx",713,"52.csv","","null","resources/images/coin2.png","null","",NA,NA,NA,NA,""
"image-keyboard-response",356,3523445,"0.0-3.115-0.115","bc9hr80gw4q3fzx",713,"52.csv","","482.79999999701977","resources/trios/L4T4A1.jpg","38","restless",0.9,0.5,0.7,0.185418093648999,"true"
"image-keyboard-response",357,3523847,"0.0-3.115-1.115","bc9hr80gw4q3fzx",713,"52.csv","","null","resources/maskTrios/BT4B.jpg","null","",NA,NA,NA,NA,""
"image-keyboard-response",358,3525049,"0.0-3.115-2.115","bc9hr80gw4q3fzx",713,"52.csv","","null","resources/images/coin2.png","null","",NA,NA,NA,NA,""
"image-keyboard-response",359,3525289,"0.0-3.116-0.116","bc9hr80gw4q3fzx",713,"52.csv","","238.70000000298023","resources/trios/L1T1A1.jpg","39","restless",0.9,0.5,0.8,0.304146374147401,"true"
"image-keyboard-response",360,3525693,"0.0-3.116-1.116","bc9hr80gw4q3fzx",713,"52.csv","","null","resources/maskTrios/BBA1.jpg","null","",NA,NA,NA,NA,""
"image-keyboard-response",361,3526895,"0.0-3.116-2.116","bc9hr80gw4q3fzx",713,"52.csv","","null","resources/images/coin2.png","null","",NA,NA,NA,NA,""
"image-keyboard-response",362,3527942,"0.0-3.117-0.117","bc9hr80gw4q3fzx",713,"52.csv","","1044.9000000059605","resources/trios/L4T4A1.jpg","37","restless",0.9,0.5,0.9,0.506994185661183,"true"
"image-keyboard-response",363,3528347,"0.0-3.117-1.117","bc9hr80gw4q3fzx",713,"52.csv","","null","resources/maskTrios/L4BB.jpg","null","",NA,NA,NA,NA,""
"image-keyboard-response",364,3529553,"0.0-3.117-2.117","bc9hr80gw4q3fzx",713,"52.csv","","null","resources/images/coin2.png","null","",NA,NA,NA,NA,""
"image-keyboard-response",365,3529806,"0.0-3.118-0.118","bc9hr80gw4q3fzx",713,"52.csv","","251.20000000298023","resources/trios/L4T4A1.jpg","38","restless",0.9,0.5,0.9,0.984911772054977,"false"
"image-keyboard-response",366,3530212,"0.0-3.118-1.118","bc9hr80gw4q3fzx",713,"52.csv","","null","resources/maskTrios/BT4B.jpg","null","",NA,NA,NA,NA,""
"image-keyboard-response",367,3531416,"0.0-3.118-2.118","bc9hr80gw4q3fzx",713,"52.csv","","null","resources/images/fishbone.png","null","",NA,NA,NA,NA,""
"image-keyboard-response",368,3531823,"0.0-3.119-0.119","bc9hr80gw4q3fzx",713,"52.csv","","405","resources/trios/L4T4A2.jpg","39","restless",0.9,0.5,0.9,0.371638439269236,"true"
"image-keyboard-response",369,3532229,"0.0-3.119-1.119","bc9hr80gw4q3fzx",713,"52.csv","","null","resources/maskTrios/BBA2.jpg","null","",NA,NA,NA,NA,""
"image-keyboard-response",370,3533433,"0.0-3.119-2.119","bc9hr80gw4q3fzx",713,"52.csv","","null","resources/images/coin2.png","null","",NA,NA,NA,NA,""
"image-keyboard-response",371,3534216,"0.0-3.120-0.120","bc9hr80gw4q3fzx",713,"52.csv","","781.6000000089407","resources/trios/L4T4A1.jpg","37","restless",0.9,0.5,0.9,0.34855469558262,"true"
"image-keyboard-response",372,3534621,"0.0-3.120-1.120","bc9hr80gw4q3fzx",713,"52.csv","","null","resources/maskTrios/L4BB.jpg","null","",NA,NA,NA,NA,""
"image-keyboard-response",373,3535828,"0.0-3.120-2.120","bc9hr80gw4q3fzx",713,"52.csv","","null","resources/images/coin2.png","null","",NA,NA,NA,NA,""
"image-keyboard-response",374,3536002,"0.0-3.121-0.121","bc9hr80gw4q3fzx",713,"52.csv","","171.59999999403954","resources/trios/L4T4A2.jpg","38","restless",0.9,0.5,0.9,0.686397723232616,"false"
"image-keyboard-response",375,3536405,"0.0-3.121-1.121","bc9hr80gw4q3fzx",713,"52.csv","","null","resources/maskTrios/BT4B.jpg","null","",NA,NA,NA,NA,""
"image-keyboard-response",376,3537609,"0.0-3.121-2.121","bc9hr80gw4q3fzx",713,"52.csv","","null","resources/images/fishbone.png","null","",NA,NA,NA,NA,""
"image-keyboard-response",377,3537985,"0.0-3.122-0.122","bc9hr80gw4q3fzx",713,"52.csv","","373.6000000089407","resources/trios/L1T1A1.jpg","37","restless",0.9,0.5,0.9,0.406557649149327,"true"
"image-keyboard-response",378,3538391,"0.0-3.122-1.122","bc9hr80gw4q3fzx",713,"52.csv","","null","resources/maskTrios/L1BB.jpg","null","",NA,NA,NA,NA,""
"image-keyboard-response",379,3539596,"0.0-3.122-2.122","bc9hr80gw4q3fzx",713,"52.csv","","null","resources/images/coin2.png","null","",NA,NA,NA,NA,""
"image-keyboard-response",380,3539857,"0.0-3.123-0.123","bc9hr80gw4q3fzx",713,"52.csv","","258.79999999701977","resources/trios/L4T1A2.jpg","39","restless",0.9,0.5,0.9,0.319187511248979,"true"
"image-keyboard-response",381,3540261,"0.0-3.123-1.123","bc9hr80gw4q3fzx",713,"52.csv","","null","resources/maskTrios/BBA2.jpg","null","",NA,NA,NA,NA,""
"image-keyboard-response",382,3541464,"0.0-3.123-2.123","bc9hr80gw4q3fzx",713,"52.csv","","null","resources/images/coin2.png","null","",NA,NA,NA,NA,""
"image-keyboard-response",383,3541699,"0.0-3.124-0.124","bc9hr80gw4q3fzx",713,"52.csv","","233.09999999403954","resources/trios/L1T1A2.jpg","38","restless",0.9,0.5,0.9,0.497126753982731,"true"
"image-keyboard-response",384,3542100,"0.0-3.124-1.124","bc9hr80gw4q3fzx",713,"52.csv","","null","resources/maskTrios/BT1B.jpg","null","",NA,NA,NA,NA,""
"image-keyboard-response",385,3543305,"0.0-3.124-2.124","bc9hr80gw4q3fzx",713,"52.csv","","null","resources/images/coin2.png","null","",NA,NA,NA,NA,""
"image-keyboard-response",386,3543573,"0.0-3.125-0.125","bc9hr80gw4q3fzx",713,"52.csv","","265.5","resources/trios/L1T4A2.jpg","37","restless",0.9,0.5,0.9,0.996403883109698,"false"
"image-keyboard-response",387,3543979,"0.0-3.125-1.125","bc9hr80gw4q3fzx",713,"52.csv","","null","resources/maskTrios/L1BB.jpg","null","",NA,NA,NA,NA,""
"image-keyboard-response",388,3545181,"0.0-3.125-2.125","bc9hr80gw4q3fzx",713,"52.csv","","null","resources/images/fishbone.png","null","",NA,NA,NA,NA,""
"image-keyboard-response",389,3545864,"0.0-3.126-0.126","bc9hr80gw4q3fzx",713,"52.csv","","681.7000000029802","resources/trios/L1T1A1.jpg","39","restless",0.9,0.5,0.9,0.336392021729354,"true"
"image-keyboard-response",390,3546270,"0.0-3.126-1.126","bc9hr80gw4q3fzx",713,"52.csv","","null","resources/maskTrios/BBA1.jpg","null","",NA,NA,NA,NA,""
"image-keyboard-response",391,3547473,"0.0-3.126-2.126","bc9hr80gw4q3fzx",713,"52.csv","","null","resources/images/coin2.png","null","",NA,NA,NA,NA,""
"image-keyboard-response",392,3547727,"0.0-3.127-0.127","bc9hr80gw4q3fzx",713,"52.csv","","252.29999999701977","resources/trios/L1T1A2.jpg","38","restless",0.9,0.5,0.9,0.786482671413369,"false"
"image-keyboard-response",393,3548134,"0.0-3.127-1.127","bc9hr80gw4q3fzx",713,"52.csv","","null","resources/maskTrios/BT1B.jpg","null","",NA,NA,NA,NA,""
"image-keyboard-response",394,3549339,"0.0-3.127-2.127","bc9hr80gw4q3fzx",713,"52.csv","","null","resources/images/fishbone.png","null","",NA,NA,NA,NA,""
"image-keyboard-response",395,3549785,"0.0-3.128-0.128","bc9hr80gw4q3fzx",713,"52.csv","","443.8999999910593","resources/trios/L4T4A2.jpg","37","restless",0.8,0.5,0.9,0.206783458638775,"true"
"image-keyboard-response",396,3550191,"0.0-3.128-1.128","bc9hr80gw4q3fzx",713,"52.csv","","null","resources/maskTrios/L4BB.jpg","null","",NA,NA,NA,NA,""
"image-keyboard-response",397,3551397,"0.0-3.128-2.128","bc9hr80gw4q3fzx",713,"52.csv","","null","resources/images/coin2.png","null","",NA,NA,NA,NA,""
"image-keyboard-response",398,3551801,"0.0-3.129-0.129","bc9hr80gw4q3fzx",713,"52.csv","","401.79999999701977","resources/trios/L4T4A2.jpg","39","restless",0.8,0.5,0.9,0.866459533877395,"true"
"image-keyboard-response",399,3552205,"0.0-3.129-1.129","bc9hr80gw4q3fzx",713,"52.csv","","null","resources/maskTrios/BBA2.jpg","null","",NA,NA,NA,NA,""
"image-keyboard-response",400,3553410,"0.0-3.129-2.129","bc9hr80gw4q3fzx",713,"52.csv","","null","resources/images/coin2.png","null","",NA,NA,NA,NA,""
"image-keyboard-response",401,3554026,"0.0-3.130-0.130","bc9hr80gw4q3fzx",713,"52.csv","","613.9000000059605","resources/trios/L4T4A1.jpg","38","restless",0.8,0.5,0.9,0.0371815517370351,"true"
"image-keyboard-response",402,3554430,"0.0-3.130-1.130","bc9hr80gw4q3fzx",713,"52.csv","","null","resources/maskTrios/BT4B.jpg","null","",NA,NA,NA,NA,""
"image-keyboard-response",403,3555636,"0.0-3.130-2.130","bc9hr80gw4q3fzx",713,"52.csv","","null","resources/images/coin2.png","null","",NA,NA,NA,NA,""
"image-keyboard-response",404,3555830,"0.0-3.131-0.131","bc9hr80gw4q3fzx",713,"52.csv","","192.1000000089407","resources/trios/L1T1A2.jpg","39","restless",0.7,0.5,0.9,0.871552292604945,"true"
"image-keyboard-response",405,3556235,"0.0-3.131-1.131","bc9hr80gw4q3fzx",713,"52.csv","","null","resources/maskTrios/BBA2.jpg","null","",NA,NA,NA,NA,""
"image-keyboard-response",406,3557441,"0.0-3.131-2.131","bc9hr80gw4q3fzx",713,"52.csv","","null","resources/images/coin2.png","null","",NA,NA,NA,NA,""
"image-keyboard-response",407,3557716,"0.0-3.132-0.132","bc9hr80gw4q3fzx",713,"52.csv","","273.1000000089407","resources/trios/L1T4A2.jpg","37","restless",0.6,0.5,0.9,0.258082690460078,"true"
"image-keyboard-response",408,3558118,"0.0-3.132-1.132","bc9hr80gw4q3fzx",713,"52.csv","","null","resources/maskTrios/L1BB.jpg","null","",NA,NA,NA,NA,""
"image-keyboard-response",409,3559323,"0.0-3.132-2.132","bc9hr80gw4q3fzx",713,"52.csv","","null","resources/images/coin2.png","null","",NA,NA,NA,NA,""
"image-keyboard-response",410,3559577,"0.0-3.133-0.133","bc9hr80gw4q3fzx",713,"52.csv","","252.29999999701977","resources/trios/L1T4A2.jpg","39","restless",0.6,0.5,0.9,0.187626296964531,"true"
"image-keyboard-response",411,3559982,"0.0-3.133-1.133","bc9hr80gw4q3fzx",713,"52.csv","","null","resources/maskTrios/BBA2.jpg","null","",NA,NA,NA,NA,""
"image-keyboard-response",412,3561188,"0.0-3.133-2.133","bc9hr80gw4q3fzx",713,"52.csv","","null","resources/images/coin2.png","null","",NA,NA,NA,NA,""
"image-keyboard-response",413,3561430,"0.0-3.134-0.134","bc9hr80gw4q3fzx",713,"52.csv","","240.40000000596046","resources/trios/L4T4A1.jpg","38","restless",0.6,0.5,0.9,0.0513783241480554,"true"
"image-keyboard-response",414,3561835,"0.0-3.134-1.134","bc9hr80gw4q3fzx",713,"52.csv","","null","resources/maskTrios/BT4B.jpg","null","",NA,NA,NA,NA,""
"image-keyboard-response",415,3563041,"0.0-3.134-2.134","bc9hr80gw4q3fzx",713,"52.csv","","null","resources/images/coin2.png","null","",NA,NA,NA,NA,""
"image-keyboard-response",416,3563293,"0.0-3.135-0.135","bc9hr80gw4q3fzx",713,"52.csv","","250","resources/trios/L1T4A2.jpg","39","restless",0.6,0.5,0.9,0.679476458881691,"true"
"image-keyboard-response",417,3563697,"0.0-3.135-1.135","bc9hr80gw4q3fzx",713,"52.csv","","null","resources/maskTrios/BBA2.jpg","null","",NA,NA,NA,NA,""
"image-keyboard-response",418,3564903,"0.0-3.135-2.135","bc9hr80gw4q3fzx",713,"52.csv","","null","resources/images/coin2.png","null","",NA,NA,NA,NA,""
"image-keyboard-response",419,3565144,"0.0-3.136-0.136","bc9hr80gw4q3fzx",713,"52.csv","","238.79999999701977","resources/trios/L1T1A2.jpg","37","restless",0.5,0.5,0.8,0.950191864702097,"false"
"image-keyboard-response",420,3565548,"0.0-3.136-1.136","bc9hr80gw4q3fzx",713,"52.csv","","null","resources/maskTrios/L1BB.jpg","null","",NA,NA,NA,NA,""
"image-keyboard-response",421,3566755,"0.0-3.136-2.136","bc9hr80gw4q3fzx",713,"52.csv","","null","resources/images/fishbone.png","null","",NA,NA,NA,NA,""
"image-keyboard-response",422,3567446,"0.0-3.137-0.137","bc9hr80gw4q3fzx",713,"52.csv","","689.4000000059605","resources/trios/L4T4A1.jpg","37","restless",0.5,0.5,0.8,0.397757313950233,"true"
"image-keyboard-response",423,3567853,"0.0-3.137-1.137","bc9hr80gw4q3fzx",713,"52.csv","","null","resources/maskTrios/L4BB.jpg","null","",NA,NA,NA,NA,""
"image-keyboard-response",424,3569057,"0.0-3.137-2.137","bc9hr80gw4q3fzx",713,"52.csv","","null","resources/images/coin2.png","null","",NA,NA,NA,NA,""
"image-keyboard-response",425,3569158,"0.0-3.138-0.138","bc9hr80gw4q3fzx",713,"52.csv","","99.29999999701977","resources/trios/L1T1A1.jpg","38","restless",0.5,0.5,0.8,0.294423372660754,"true"
"image-keyboard-response",426,3569565,"0.0-3.138-1.138","bc9hr80gw4q3fzx",713,"52.csv","","null","resources/maskTrios/BT1B.jpg","null","",NA,NA,NA,NA,""
"image-keyboard-response",427,3570770,"0.0-3.138-2.138","bc9hr80gw4q3fzx",713,"52.csv","","null","resources/images/coin2.png","null","",NA,NA,NA,NA,""
"image-keyboard-response",428,3571037,"0.0-3.139-0.139","bc9hr80gw4q3fzx",713,"52.csv","","265.6000000089407","resources/trios/L4T4A1.jpg","39","restless",0.5,0.5,0.8,0.0851685923867578,"true"
"image-keyboard-response",429,3571442,"0.0-3.139-1.139","bc9hr80gw4q3fzx",713,"52.csv","","null","resources/maskTrios/BBA1.jpg","null","",NA,NA,NA,NA,""
"image-keyboard-response",430,3572648,"0.0-3.139-2.139","bc9hr80gw4q3fzx",713,"52.csv","","null","resources/images/coin2.png","null","",NA,NA,NA,NA,""
"image-keyboard-response",431,3573211,"0.0-3.140-0.140","bc9hr80gw4q3fzx",713,"52.csv","","561.5","resources/trios/L4T1A1.jpg","39","restless",0.5,0.5,0.8,0.807075405897452,"false"
"image-keyboard-response",432,3573614,"0.0-3.140-1.140","bc9hr80gw4q3fzx",713,"52.csv","","null","resources/maskTrios/BBA1.jpg","null","",NA,NA,NA,NA,""
"image-keyboard-response",433,3574819,"0.0-3.140-2.140","bc9hr80gw4q3fzx",713,"52.csv","","null","resources/images/fishbone.png","null","",NA,NA,NA,NA,""
"image-keyboard-response",434,3575378,"0.0-3.141-0.141","bc9hr80gw4q3fzx",713,"52.csv","","557.9000000059605","resources/trios/L1T1A2.jpg","39","restless",0.5,0.5,0.8,0.69019140817904,"true"
"image-keyboard-response",435,3575784,"0.0-3.141-1.141","bc9hr80gw4q3fzx",713,"52.csv","","null","resources/maskTrios/BBA2.jpg","null","",NA,NA,NA,NA,""
"image-keyboard-response",436,3576991,"0.0-3.141-2.141","bc9hr80gw4q3fzx",713,"52.csv","","null","resources/images/coin2.png","null","",NA,NA,NA,NA,""
"image-keyboard-response",437,3577118,"0.0-3.142-0.142","bc9hr80gw4q3fzx",713,"52.csv","","125.6000000089407","resources/trios/L1T1A1.jpg","38","restless",0.5,0.5,0.8,0.927669671298044,"false"
"image-keyboard-response",438,3577524,"0.0-3.142-1.142","bc9hr80gw4q3fzx",713,"52.csv","","null","resources/maskTrios/BT1B.jpg","null","",NA,NA,NA,NA,""
"image-keyboard-response",439,3578728,"0.0-3.142-2.142","bc9hr80gw4q3fzx",713,"52.csv","","null","resources/images/fishbone.png","null","",NA,NA,NA,NA,""
"image-keyboard-response",440,3578940,"0.0-3.143-0.143","bc9hr80gw4q3fzx",713,"52.csv","","209.8999999910593","resources/trios/L4T4A2.jpg","39","restless",0.5,0.5,0.8,0.170543230946086,"true"
"image-keyboard-response",441,3579342,"0.0-3.143-1.143","bc9hr80gw4q3fzx",713,"52.csv","","null","resources/maskTrios/BBA2.jpg","null","",NA,NA,NA,NA,""
"image-keyboard-response",442,3580546,"0.0-3.143-2.143","bc9hr80gw4q3fzx",713,"52.csv","","null","resources/images/coin2.png","null","",NA,NA,NA,NA,""
"image-keyboard-response",443,3580783,"0.0-3.144-0.144","bc9hr80gw4q3fzx",713,"52.csv","","235","resources/trios/L4T1A1.jpg","38","restless",0.5,0.6,0.8,0.780982146932027,"false"
"image-keyboard-response",444,3581186,"0.0-3.144-1.144","bc9hr80gw4q3fzx",713,"52.csv","","null","resources/maskTrios/BT1B.jpg","null","",NA,NA,NA,NA,""
"image-keyboard-response",445,3582388,"0.0-3.144-2.144","bc9hr80gw4q3fzx",713,"52.csv","","null","resources/images/fishbone.png","null","",NA,NA,NA,NA,""
"image-keyboard-response",446,3582573,"0.0-3.145-0.145","bc9hr80gw4q3fzx",713,"52.csv","","183.1000000089407","resources/trios/L1T1A2.jpg","39","restless",0.5,0.6,0.8,0.641740946461104,"true"
"image-keyboard-response",447,3582975,"0.0-3.145-1.145","bc9hr80gw4q3fzx",713,"52.csv","","null","resources/maskTrios/BBA2.jpg","null","",NA,NA,NA,NA,""
"image-keyboard-response",448,3584181,"0.0-3.145-2.145","bc9hr80gw4q3fzx",713,"52.csv","","null","resources/images/coin2.png","null","",NA,NA,NA,NA,""
"image-keyboard-response",449,3584376,"0.0-3.146-0.146","bc9hr80gw4q3fzx",713,"52.csv","","193.70000000298023","resources/trios/L1T1A2.jpg","37","restless",0.5,0.6,0.8,0.127516007190741,"true"
"image-keyboard-response",450,3584782,"0.0-3.146-1.146","bc9hr80gw4q3fzx",713,"52.csv","","null","resources/maskTrios/L1BB.jpg","null","",NA,NA,NA,NA,""
"image-keyboard-response",451,3585986,"0.0-3.146-2.146","bc9hr80gw4q3fzx",713,"52.csv","","null","resources/images/coin2.png","null","",NA,NA,NA,NA,""
"image-keyboard-response",452,3588357,"0.0-3.147-0.147","bc9hr80gw4q3fzx",713,"52.csv","","2369.2000000029802","resources/trios/L4T1A2.jpg","38","restless",0.5,0.6,0.8,0.414454764438335,"true"
"image-keyboard-response",453,3588762,"0.0-3.147-1.147","bc9hr80gw4q3fzx",713,"52.csv","","null","resources/maskTrios/BT1B.jpg","null","",NA,NA,NA,NA,""
"image-keyboard-response",454,3589968,"0.0-3.147-2.147","bc9hr80gw4q3fzx",713,"52.csv","","null","resources/images/coin2.png","null","",NA,NA,NA,NA,""
"image-keyboard-response",455,3590745,"0.0-3.148-0.148","bc9hr80gw4q3fzx",713,"52.csv","","774.9000000059605","resources/trios/L4T4A2.jpg","37","restless",0.5,0.6,0.8,0.782077819639268,"false"
"image-keyboard-response",456,3591150,"0.0-3.148-1.148","bc9hr80gw4q3fzx",713,"52.csv","","null","resources/maskTrios/L4BB.jpg","null","",NA,NA,NA,NA,""
"image-keyboard-response",457,3592355,"0.0-3.148-2.148","bc9hr80gw4q3fzx",713,"52.csv","","null","resources/images/fishbone.png","null","",NA,NA,NA,NA,""
"image-keyboard-response",458,3592588,"0.0-3.149-0.149","bc9hr80gw4q3fzx",713,"52.csv","","230.40000000596046","resources/trios/L4T1A2.jpg","39","restless",0.5,0.6,0.7,0.659553727036563,"true"
"image-keyboard-response",459,3592990,"0.0-3.149-1.149","bc9hr80gw4q3fzx",713,"52.csv","","null","resources/maskTrios/BBA2.jpg","null","",NA,NA,NA,NA,""
"image-keyboard-response",460,3594194,"0.0-3.149-2.149","bc9hr80gw4q3fzx",713,"52.csv","","null","resources/images/coin2.png","null","",NA,NA,NA,NA,""
"image-keyboard-response",461,3594343,"0.0-3.150-0.150","bc9hr80gw4q3fzx",713,"52.csv","","146.40000000596046","resources/trios/L4T4A2.jpg","37","restless",0.5,0.6,0.8,0.284687802496864,"true"
"image-keyboard-response",462,3594748,"0.0-3.150-1.150","bc9hr80gw4q3fzx",713,"52.csv","","null","resources/maskTrios/L4BB.jpg","null","",NA,NA,NA,NA,""
"image-keyboard-response",463,3595950,"0.0-3.150-2.150","bc9hr80gw4q3fzx",713,"52.csv","","null","resources/images/coin2.png","null","",NA,NA,NA,NA,""
"image-keyboard-response",464,3596132,"0.0-3.151-0.151","bc9hr80gw4q3fzx",713,"52.csv","","179.59999999403954","resources/trios/L4T1A1.jpg","38","restless",0.4,0.6,0.8,0.0215755381176348,"true"
"image-keyboard-response",465,3596537,"0.0-3.151-1.151","bc9hr80gw4q3fzx",713,"52.csv","","null","resources/maskTrios/BT1B.jpg","null","",NA,NA,NA,NA,""
"image-keyboard-response",466,3597742,"0.0-3.151-2.151","bc9hr80gw4q3fzx",713,"52.csv","","null","resources/images/coin2.png","null","",NA,NA,NA,NA,""
"image-keyboard-response",467,3597939,"0.0-3.152-0.152","bc9hr80gw4q3fzx",713,"52.csv","","194.79999999701977","resources/trios/L1T1A2.jpg","39","restless",0.4,0.6,0.8,0.786666098051446,"true"
"image-keyboard-response",468,3598344,"0.0-3.152-1.152","bc9hr80gw4q3fzx",713,"52.csv","","null","resources/maskTrios/BBA2.jpg","null","",NA,NA,NA,NA,""
"image-keyboard-response",469,3599551,"0.0-3.152-2.152","bc9hr80gw4q3fzx",713,"52.csv","","null","resources/images/coin2.png","null","",NA,NA,NA,NA,""
"image-keyboard-response",470,3600098,"0.0-3.153-0.153","bc9hr80gw4q3fzx",713,"52.csv","","545.2000000029802","resources/trios/L1T4A1.jpg","38","restless",0.4,0.5,0.8,0.399150802188872,"true"
"image-keyboard-response",471,3600502,"0.0-3.153-1.153","bc9hr80gw4q3fzx",713,"52.csv","","null","resources/maskTrios/BT4B.jpg","null","",NA,NA,NA,NA,""
"image-keyboard-response",472,3601709,"0.0-3.153-2.153","bc9hr80gw4q3fzx",713,"52.csv","","null","resources/images/coin2.png","null","",NA,NA,NA,NA,""
"image-keyboard-response",473,3602495,"0.0-3.154-0.154","bc9hr80gw4q3fzx",713,"52.csv","","784.5999999940395","resources/trios/L1T4A1.jpg","37","restless",0.4,0.5,0.8,0.377653624436777,"true"
"image-keyboard-response",474,3602898,"0.0-3.154-1.154","bc9hr80gw4q3fzx",713,"52.csv","","null","resources/maskTrios/L1BB.jpg","null","",NA,NA,NA,NA,""
"image-keyboard-response",475,3604103,"0.0-3.154-2.154","bc9hr80gw4q3fzx",713,"52.csv","","null","resources/images/coin2.png","null","",NA,NA,NA,NA,""
"image-keyboard-response",476,3604443,"0.0-3.155-0.155","bc9hr80gw4q3fzx",713,"52.csv","","338.20000000298023","resources/trios/L4T4A1.jpg","39","restless",0.4,0.5,0.8,0.725524476423183,"true"
"image-keyboard-response",477,3604846,"0.0-3.155-1.155","bc9hr80gw4q3fzx",713,"52.csv","","null","resources/maskTrios/BBA1.jpg","null","",NA,NA,NA,NA,""
"image-keyboard-response",478,3606050,"0.0-3.155-2.155","bc9hr80gw4q3fzx",713,"52.csv","","null","resources/images/coin2.png","null","",NA,NA,NA,NA,""
"image-keyboard-response",479,3606786,"0.0-3.156-0.156","bc9hr80gw4q3fzx",713,"52.csv","","733.7000000029802","resources/trios/L1T1A1.jpg","37","restless",0.4,0.5,0.8,0.942822833939783,"false"
"image-keyboard-response",480,3607189,"0.0-3.156-1.156","bc9hr80gw4q3fzx",713,"52.csv","","null","resources/maskTrios/L1BB.jpg","null","",NA,NA,NA,NA,""
"image-keyboard-response",481,3608391,"0.0-3.156-2.156","bc9hr80gw4q3fzx",713,"52.csv","","null","resources/images/fishbone.png","null","",NA,NA,NA,NA,""
"image-keyboard-response",482,3608540,"0.0-3.157-0.157","bc9hr80gw4q3fzx",713,"52.csv","","147.5","resources/trios/L4T1A2.jpg","38","restless",0.4,0.5,0.8,0.141014110176906,"true"
"image-keyboard-response",483,3608946,"0.0-3.157-1.157","bc9hr80gw4q3fzx",713,"52.csv","","null","resources/maskTrios/BT1B.jpg","null","",NA,NA,NA,NA,""
"image-keyboard-response",484,3610152,"0.0-3.157-2.157","bc9hr80gw4q3fzx",713,"52.csv","","null","resources/images/coin2.png","null","",NA,NA,NA,NA,""
"image-keyboard-response",485,3610529,"0.0-3.158-0.158","bc9hr80gw4q3fzx",713,"52.csv","","375.40000000596046","resources/trios/L4T1A1.jpg","39","restless",0.4,0.5,0.8,0.766380911912522,"true"
"image-keyboard-response",486,3610934,"0.0-3.158-1.158","bc9hr80gw4q3fzx",713,"52.csv","","null","resources/maskTrios/BBA1.jpg","null","",NA,NA,NA,NA,""
"image-keyboard-response",487,3612137,"0.0-3.158-2.158","bc9hr80gw4q3fzx",713,"52.csv","","null","resources/images/coin2.png","null","",NA,NA,NA,NA,""
"image-keyboard-response",488,3612234,"0.0-3.159-0.159","bc9hr80gw4q3fzx",713,"52.csv","","95.90000000596046","resources/trios/L4T1A1.jpg","37","restless",0.3,0.5,0.8,0.978176456284042,"false"
"image-keyboard-response",489,3612637,"0.0-3.159-1.159","bc9hr80gw4q3fzx",713,"52.csv","","null","resources/maskTrios/L4BB.jpg","null","",NA,NA,NA,NA,""
"image-keyboard-response",490,3613842,"0.0-3.159-2.159","bc9hr80gw4q3fzx",713,"52.csv","","null","resources/images/fishbone.png","null","",NA,NA,NA,NA,""
"image-keyboard-response",491,3614394,"0.0-3.160-0.160","bc9hr80gw4q3fzx",713,"52.csv","","550.5","resources/trios/L4T1A1.jpg","38","restless",0.3,0.5,0.8,0.885114894450012,"false"
"image-keyboard-response",492,3614796,"0.0-3.160-1.160","bc9hr80gw4q3fzx",713,"52.csv","","null","resources/maskTrios/BT1B.jpg","null","",NA,NA,NA,NA,""
"image-keyboard-response",493,3615999,"0.0-3.160-2.160","bc9hr80gw4q3fzx",713,"52.csv","","null","resources/images/fishbone.png","null","",NA,NA,NA,NA,""
"image-keyboard-response",494,3616256,"0.0-3.161-0.161","bc9hr80gw4q3fzx",713,"52.csv","","255.70000000298023","resources/trios/L1T1A1.jpg","39","restless",0.3,0.5,0.8,0.459774719340287,"true"
"image-keyboard-response",495,3616660,"0.0-3.161-1.161","bc9hr80gw4q3fzx",713,"52.csv","","null","resources/maskTrios/BBA1.jpg","null","",NA,NA,NA,NA,""
"image-keyboard-response",496,3617867,"0.0-3.161-2.161","bc9hr80gw4q3fzx",713,"52.csv","","null","resources/images/coin2.png","null","",NA,NA,NA,NA,""
"image-keyboard-response",497,3617993,"0.0-3.162-0.162","bc9hr80gw4q3fzx",713,"52.csv","","124.3999999910593","resources/trios/L1T4A1.jpg","38","restless",0.3,0.5,0.8,0.684609408945069,"false"
"image-keyboard-response",498,3618398,"0.0-3.162-1.162","bc9hr80gw4q3fzx",713,"52.csv","","null","resources/maskTrios/BT4B.jpg","null","",NA,NA,NA,NA,""
"image-keyboard-response",499,3619604,"0.0-3.162-2.162","bc9hr80gw4q3fzx",713,"52.csv","","null","resources/images/fishbone.png","null","",NA,NA,NA,NA,""
"image-keyboard-response",500,3619836,"0.0-3.163-0.163","bc9hr80gw4q3fzx",713,"52.csv","","230.40000000596046","resources/trios/L4T1A1.jpg","39","restless",0.3,0.5,0.8,0.110865867730542,"true"
"image-keyboard-response",501,3620241,"0.0-3.163-1.163","bc9hr80gw4q3fzx",713,"52.csv","","null","resources/maskTrios/BBA1.jpg","null","",NA,NA,NA,NA,""
"image-keyboard-response",502,3621448,"0.0-3.163-2.163","bc9hr80gw4q3fzx",713,"52.csv","","null","resources/images/coin2.png","null","",NA,NA,NA,NA,""
"image-keyboard-response",503,3621663,"0.0-3.164-0.164","bc9hr80gw4q3fzx",713,"52.csv","","213","resources/trios/L1T4A2.jpg","38","restless",0.3,0.5,0.8,0.160920277571492,"true"
"image-keyboard-response",504,3622068,"0.0-3.164-1.164","bc9hr80gw4q3fzx",713,"52.csv","","null","resources/maskTrios/BT4B.jpg","null","",NA,NA,NA,NA,""
"image-keyboard-response",505,3623273,"0.0-3.164-2.164","bc9hr80gw4q3fzx",713,"52.csv","","null","resources/images/coin2.png","null","",NA,NA,NA,NA,""
"image-keyboard-response",506,3623533,"0.0-3.165-0.165","bc9hr80gw4q3fzx",713,"52.csv","","258.70000000298023","resources/trios/L4T4A1.jpg","37","restless",0.3,0.5,0.8,0.162131273888271,"true"
"image-keyboard-response",507,3623937,"0.0-3.165-1.165","bc9hr80gw4q3fzx",713,"52.csv","","null","resources/maskTrios/L4BB.jpg","null","",NA,NA,NA,NA,""
"image-keyboard-response",508,3625140,"0.0-3.165-2.165","bc9hr80gw4q3fzx",713,"52.csv","","null","resources/images/coin2.png","null","",NA,NA,NA,NA,""
"image-keyboard-response",509,3625600,"0.0-3.166-0.166","bc9hr80gw4q3fzx",713,"52.csv","","457.5","resources/trios/L1T1A1.jpg","39","restless",0.3,0.5,0.8,0.103639996378729,"true"
"image-keyboard-response",510,3626002,"0.0-3.166-1.166","bc9hr80gw4q3fzx",713,"52.csv","","null","resources/maskTrios/BBA1.jpg","null","",NA,NA,NA,NA,""
"image-keyboard-response",511,3627209,"0.0-3.166-2.166","bc9hr80gw4q3fzx",713,"52.csv","","null","resources/images/coin2.png","null","",NA,NA,NA,NA,""
"image-keyboard-response",512,3630674,"0.0-3.167-0.167","bc9hr80gw4q3fzx",713,"52.csv","","3463.300000011921","resources/trios/L4T4A1.jpg","39","restless",0.3,0.5,0.8,0.21833378497828,"true"
"image-keyboard-response",513,3631076,"0.0-3.167-1.167","bc9hr80gw4q3fzx",713,"52.csv","","null","resources/maskTrios/BBA1.jpg","null","",NA,NA,NA,NA,""
"image-keyboard-response",514,3632280,"0.0-3.167-2.167","bc9hr80gw4q3fzx",713,"52.csv","","null","resources/images/coin2.png","null","",NA,NA,NA,NA,""
"image-keyboard-response",515,3632920,"0.0-3.168-0.168","bc9hr80gw4q3fzx",713,"52.csv","","638.5","resources/trios/L4T4A1.jpg","38","restless",0.3,0.5,0.8,0.191483819268525,"true"
"image-keyboard-response",516,3633324,"0.0-3.168-1.168","bc9hr80gw4q3fzx",713,"52.csv","","null","resources/maskTrios/BT4B.jpg","null","",NA,NA,NA,NA,""
"image-keyboard-response",517,3634529,"0.0-3.168-2.168","bc9hr80gw4q3fzx",713,"52.csv","","null","resources/images/coin2.png","null","",NA,NA,NA,NA,""
"image-keyboard-response",518,3634787,"0.0-3.169-0.169","bc9hr80gw4q3fzx",713,"52.csv","","257.79999999701977","resources/trios/L1T4A1.jpg","37","restless",0.3,0.5,0.7,0.0819555526228501,"true"
"image-keyboard-response",519,3635190,"0.0-3.169-1.169","bc9hr80gw4q3fzx",713,"52.csv","","null","resources/maskTrios/L1BB.jpg","null","",NA,NA,NA,NA,""
"image-keyboard-response",520,3636393,"0.0-3.169-2.169","bc9hr80gw4q3fzx",713,"52.csv","","null","resources/images/coin2.png","null","",NA,NA,NA,NA,""
"image-keyboard-response",521,3636634,"0.0-3.170-0.170","bc9hr80gw4q3fzx",713,"52.csv","","239.29999999701977","resources/trios/L1T4A2.jpg","39","restless",0.3,0.5,0.7,0.157984756104071,"true"
"image-keyboard-response",522,3637041,"0.0-3.170-1.170","bc9hr80gw4q3fzx",713,"52.csv","","null","resources/maskTrios/BBA2.jpg","null","",NA,NA,NA,NA,""
"image-keyboard-response",523,3638245,"0.0-3.170-2.170","bc9hr80gw4q3fzx",713,"52.csv","","null","resources/images/coin2.png","null","",NA,NA,NA,NA,""
"image-keyboard-response",524,3638502,"0.0-3.171-0.171","bc9hr80gw4q3fzx",713,"52.csv","","255.30000001192093","resources/trios/L4T4A2.jpg","39","restless",0.3,0.5,0.7,0.684001454246993,"true"
"image-keyboard-response",525,3638906,"0.0-3.171-1.171","bc9hr80gw4q3fzx",713,"52.csv","","null","resources/maskTrios/BBA2.jpg","null","",NA,NA,NA,NA,""
"image-keyboard-response",526,3640111,"0.0-3.171-2.171","bc9hr80gw4q3fzx",713,"52.csv","","null","resources/images/coin2.png","null","",NA,NA,NA,NA,""
"image-keyboard-response",527,3640357,"0.0-3.172-0.172","bc9hr80gw4q3fzx",713,"52.csv","","243.79999999701977","resources/trios/L1T4A2.jpg","38","restless",0.3,0.5,0.7,0.807562643255056,"false"
"image-keyboard-response",528,3640762,"0.0-3.172-1.172","bc9hr80gw4q3fzx",713,"52.csv","","null","resources/maskTrios/BT4B.jpg","null","",NA,NA,NA,NA,""
"image-keyboard-response",529,3641965,"0.0-3.172-2.172","bc9hr80gw4q3fzx",713,"52.csv","","null","resources/images/fishbone.png","null","",NA,NA,NA,NA,""
"image-keyboard-response",530,3642044,"0.0-3.173-0.173","bc9hr80gw4q3fzx",713,"52.csv","","77.80000001192093","resources/trios/L1T1A2.jpg","37","restless",0.3,0.5,0.7,0.971055797290742,"false"
"image-keyboard-response",531,3642447,"0.0-3.173-1.173","bc9hr80gw4q3fzx",713,"52.csv","","null","resources/maskTrios/L1BB.jpg","null","",NA,NA,NA,NA,""
"image-keyboard-response",532,3643651,"0.0-3.173-2.173","bc9hr80gw4q3fzx",713,"52.csv","","null","resources/images/fishbone.png","null","",NA,NA,NA,NA,""
"image-keyboard-response",533,3643709,"0.0-3.174-0.174","bc9hr80gw4q3fzx",713,"52.csv","","55.5","resources/trios/L1T1A1.jpg","39","restless",0.3,0.5,0.7,0.704554692282395,"false"
"image-keyboard-response",534,3644112,"0.0-3.174-1.174","bc9hr80gw4q3fzx",713,"52.csv","","null","resources/maskTrios/BBA1.jpg","null","",NA,NA,NA,NA,""
"image-keyboard-response",535,3645317,"0.0-3.174-2.174","bc9hr80gw4q3fzx",713,"52.csv","","null","resources/images/fishbone.png","null","",NA,NA,NA,NA,""
"image-keyboard-response",536,3645710,"0.0-3.175-0.175","bc9hr80gw4q3fzx",713,"52.csv","","391.20000000298023","resources/trios/L4T4A1.jpg","39","restless",0.3,0.5,0.7,0.216897029139379,"true"
"image-keyboard-response",537,3646116,"0.0-3.175-1.175","bc9hr80gw4q3fzx",713,"52.csv","","null","resources/maskTrios/BBA1.jpg","null","",NA,NA,NA,NA,""
"image-keyboard-response",538,3647322,"0.0-3.175-2.175","bc9hr80gw4q3fzx",713,"52.csv","","null","resources/images/coin2.png","null","",NA,NA,NA,NA,""
"image-keyboard-response",539,3647488,"0.0-3.176-0.176","bc9hr80gw4q3fzx",713,"52.csv","","164.90000000596046","resources/trios/L1T1A2.jpg","38","restless",0.4,0.5,0.7,0.671513539460925,"false"
"image-keyboard-response",540,3647893,"0.0-3.176-1.176","bc9hr80gw4q3fzx",713,"52.csv","","null","resources/maskTrios/BT1B.jpg","null","",NA,NA,NA,NA,""
"image-keyboard-response",541,3649096,"0.0-3.176-2.176","bc9hr80gw4q3fzx",713,"52.csv","","null","resources/images/fishbone.png","null","",NA,NA,NA,NA,""
"image-keyboard-response",542,3649326,"0.0-3.177-0.177","bc9hr80gw4q3fzx",713,"52.csv","","227.5","resources/trios/L4T1A1.jpg","39","restless",0.5,0.5,0.6,0.209643897944352,"true"
"image-keyboard-response",543,3649728,"0.0-3.177-1.177","bc9hr80gw4q3fzx",713,"52.csv","","null","resources/maskTrios/BBA1.jpg","null","",NA,NA,NA,NA,""
"image-keyboard-response",544,3650931,"0.0-3.177-2.177","bc9hr80gw4q3fzx",713,"52.csv","","null","resources/images/coin2.png","null","",NA,NA,NA,NA,""
"image-keyboard-response",545,3651073,"0.0-3.178-0.178","bc9hr80gw4q3fzx",713,"52.csv","","139.19999998807907","resources/trios/L1T1A1.jpg","37","restless",0.5,0.5,0.6,0.39786435688479,"true"
"image-keyboard-response",546,3651475,"0.0-3.178-1.178","bc9hr80gw4q3fzx",713,"52.csv","","null","resources/maskTrios/L1BB.jpg","null","",NA,NA,NA,NA,""
"image-keyboard-response",547,3652679,"0.0-3.178-2.178","bc9hr80gw4q3fzx",713,"52.csv","","null","resources/images/coin2.png","null","",NA,NA,NA,NA,""
"image-keyboard-response",548,3652836,"0.0-3.179-0.179","bc9hr80gw4q3fzx",713,"52.csv","","155","resources/trios/L4T4A1.jpg","38","restless",0.5,0.5,0.6,0.613003654374084,"false"
"image-keyboard-response",549,3653240,"0.0-3.179-1.179","bc9hr80gw4q3fzx",713,"52.csv","","null","resources/maskTrios/BT4B.jpg","null","",NA,NA,NA,NA,""
"image-keyboard-response",550,3654442,"0.0-3.179-2.179","bc9hr80gw4q3fzx",713,"52.csv","","null","resources/images/fishbone.png","null","",NA,NA,NA,NA,""
"image-keyboard-response",551,3654546,"0.0-3.180-0.180","bc9hr80gw4q3fzx",713,"52.csv","","102.6000000089407","resources/trios/L1T1A1.jpg","39","restless",0.6,0.5,0.6,0.0136690913519408,"true"
"image-keyboard-response",552,3654951,"0.0-3.180-1.180","bc9hr80gw4q3fzx",713,"52.csv","","null","resources/maskTrios/BBA1.jpg","null","",NA,NA,NA,NA,""
"image-keyboard-response",553,3656156,"0.0-3.180-2.180","bc9hr80gw4q3fzx",713,"52.csv","","null","resources/images/coin2.png","null","",NA,NA,NA,NA,""
"image-keyboard-response",554,3656201,"0.0-3.181-0.181","bc9hr80gw4q3fzx",713,"52.csv","","43","resources/trios/L4T1A2.jpg","39","restless",0.6,0.5,0.6,0.518321547258902,"true"
"image-keyboard-response",555,3656607,"0.0-3.181-1.181","bc9hr80gw4q3fzx",713,"52.csv","","null","resources/maskTrios/BBA2.jpg","null","",NA,NA,NA,NA,""
"image-keyboard-response",556,3657811,"0.0-3.181-2.181","bc9hr80gw4q3fzx",713,"52.csv","","null","resources/images/coin2.png","null","",NA,NA,NA,NA,""
"image-keyboard-response",557,3658022,"0.0-3.182-0.182","bc9hr80gw4q3fzx",713,"52.csv","","209.29999999701977","resources/trios/L4T1A1.jpg","38","restless",0.6,0.5,0.6,0.948381971445318,"false"
"image-keyboard-response",558,3658426,"0.0-3.182-1.182","bc9hr80gw4q3fzx",713,"52.csv","","null","resources/maskTrios/BT1B.jpg","null","",NA,NA,NA,NA,""
"image-keyboard-response",559,3659631,"0.0-3.182-2.182","bc9hr80gw4q3fzx",713,"52.csv","","null","resources/images/fishbone.png","null","",NA,NA,NA,NA,""
"image-keyboard-response",560,3659681,"0.0-3.183-0.183","bc9hr80gw4q3fzx",713,"52.csv","","48.5","resources/trios/L4T1A2.jpg","39","restless",0.6,0.5,0.6,0.726382208829524,"false"
"image-keyboard-response",561,3660083,"0.0-3.183-1.183","bc9hr80gw4q3fzx",713,"52.csv","","null","resources/maskTrios/BBA2.jpg","null","",NA,NA,NA,NA,""
"image-keyboard-response",562,3661290,"0.0-3.183-2.183","bc9hr80gw4q3fzx",713,"52.csv","","null","resources/images/fishbone.png","null","",NA,NA,NA,NA,""
"image-keyboard-response",563,3661316,"0.0-3.184-0.184","bc9hr80gw4q3fzx",713,"52.csv","","24.399999991059303","resources/trios/L1T4A1.jpg","39","restless",0.6,0.4,0.6,0.71504893319843,"false"
"image-keyboard-response",564,3661722,"0.0-3.184-1.184","bc9hr80gw4q3fzx",713,"52.csv","","null","resources/maskTrios/BBA1.jpg","null","",NA,NA,NA,NA,""
"image-keyboard-response",565,3662928,"0.0-3.184-2.184","bc9hr80gw4q3fzx",713,"52.csv","","null","resources/images/fishbone.png","null","",NA,NA,NA,NA,""
"image-keyboard-response",566,3663021,"0.0-3.185-0.185","bc9hr80gw4q3fzx",713,"52.csv","","92.1000000089407","resources/trios/L4T1A2.jpg","39","restless",0.6,0.4,0.5,0.517276283156582,"false"
"image-keyboard-response",567,3663423,"0.0-3.185-1.185","bc9hr80gw4q3fzx",713,"52.csv","","null","resources/maskTrios/BBA2.jpg","null","",NA,NA,NA,NA,""
"image-keyboard-response",568,3664629,"0.0-3.185-2.185","bc9hr80gw4q3fzx",713,"52.csv","","null","resources/images/fishbone.png","null","",NA,NA,NA,NA,""
"image-keyboard-response",569,3664838,"0.0-3.186-0.186","bc9hr80gw4q3fzx",713,"52.csv","","207.1000000089407","resources/trios/L4T1A1.jpg","37","restless",0.6,0.4,0.5,0.107673814236876,"true"
"image-keyboard-response",570,3665241,"0.0-3.186-1.186","bc9hr80gw4q3fzx",713,"52.csv","","null","resources/maskTrios/L4BB.jpg","null","",NA,NA,NA,NA,""
"image-keyboard-response",571,3666448,"0.0-3.186-2.186","bc9hr80gw4q3fzx",713,"52.csv","","null","resources/images/coin2.png","null","",NA,NA,NA,NA,""
"image-keyboard-response",572,3666941,"0.0-3.187-0.187","bc9hr80gw4q3fzx",713,"52.csv","","491.79999999701977","resources/trios/L1T1A1.jpg","39","restless",0.6,0.4,0.5,0.395347127529111,"true"
"image-keyboard-response",573,3667345,"0.0-3.187-1.187","bc9hr80gw4q3fzx",713,"52.csv","","null","resources/maskTrios/BBA1.jpg","null","",NA,NA,NA,NA,""
"image-keyboard-response",574,3668549,"0.0-3.187-2.187","bc9hr80gw4q3fzx",713,"52.csv","","null","resources/images/coin2.png","null","",NA,NA,NA,NA,""
"image-keyboard-response",575,3668741,"0.0-3.188-0.188","bc9hr80gw4q3fzx",713,"52.csv","","189.70000000298023","resources/trios/L4T1A1.jpg","38","restless",0.6,0.4,0.5,0.624159823401635,"false"
"image-keyboard-response",576,3669144,"0.0-3.188-1.188","bc9hr80gw4q3fzx",713,"52.csv","","null","resources/maskTrios/BT1B.jpg","null","",NA,NA,NA,NA,""
"image-keyboard-response",577,3670348,"0.0-3.188-2.188","bc9hr80gw4q3fzx",713,"52.csv","","null","resources/images/fishbone.png","null","",NA,NA,NA,NA,""
"image-keyboard-response",578,3670551,"0.0-3.189-0.189","bc9hr80gw4q3fzx",713,"52.csv","","201.6000000089407","resources/trios/L1T1A2.jpg","37","restless",0.5,0.4,0.4,0.350741576564869,"true"
"image-keyboard-response",579,3670953,"0.0-3.189-1.189","bc9hr80gw4q3fzx",713,"52.csv","","null","resources/maskTrios/L1BB.jpg","null","",NA,NA,NA,NA,""
"image-keyboard-response",580,3672158,"0.0-3.189-2.189","bc9hr80gw4q3fzx",713,"52.csv","","null","resources/images/coin2.png","null","",NA,NA,NA,NA,""
"image-keyboard-response",581,3672202,"0.0-3.190-0.190","bc9hr80gw4q3fzx",713,"52.csv","","42.099999994039536","resources/trios/L1T4A1.jpg","38","restless",0.5,0.4,0.4,0.684672692623242,"false"
"image-keyboard-response",582,3672607,"0.0-3.190-1.190","bc9hr80gw4q3fzx",713,"52.csv","","null","resources/maskTrios/BT4B.jpg","null","",NA,NA,NA,NA,""
"image-keyboard-response",583,3673810,"0.0-3.190-2.190","bc9hr80gw4q3fzx",713,"52.csv","","null","resources/images/fishbone.png","null","",NA,NA,NA,NA,""
"image-keyboard-response",584,3673813,"0.0-3.191-0.191","bc9hr80gw4q3fzx",713,"52.csv","","1.5","resources/trios/L1T4A1.jpg","37","restless",0.5,0.4,0.4,0.134626586915405,"true"
"image-keyboard-response",585,3674217,"0.0-3.191-1.191","bc9hr80gw4q3fzx",713,"52.csv","","null","resources/maskTrios/L1BB.jpg","null","",NA,NA,NA,NA,""
"image-keyboard-response",586,3675422,"0.0-3.191-2.191","bc9hr80gw4q3fzx",713,"52.csv","","null","resources/images/coin2.png","null","",NA,NA,NA,NA,""
"image-keyboard-response",587,3675649,"0.0-3.192-0.192","bc9hr80gw4q3fzx",713,"52.csv","","224.90000000596046","resources/trios/L1T4A2.jpg","39","restless",0.5,0.4,0.4,0.169358382612375,"true"
"image-keyboard-response",588,3676052,"0.0-3.192-1.192","bc9hr80gw4q3fzx",713,"52.csv","","null","resources/maskTrios/BBA2.jpg","null","",NA,NA,NA,NA,""
"image-keyboard-response",589,3677257,"0.0-3.192-2.192","bc9hr80gw4q3fzx",713,"52.csv","","null","resources/images/coin2.png","null","",NA,NA,NA,NA,""
"image-keyboard-response",590,3677482,"0.0-3.193-0.193","bc9hr80gw4q3fzx",713,"52.csv","","223.3999999910593","resources/trios/L1T1A1.jpg","38","restless",0.6,0.4,0.4,0.940717064447051,"false"
"image-keyboard-response",591,3677888,"0.0-3.193-1.193","bc9hr80gw4q3fzx",713,"52.csv","","null","resources/maskTrios/BT1B.jpg","null","",NA,NA,NA,NA,""
"image-keyboard-response",592,3679091,"0.0-3.193-2.193","bc9hr80gw4q3fzx",713,"52.csv","","null","resources/images/fishbone.png","null","",NA,NA,NA,NA,""
"image-keyboard-response",593,3679344,"0.0-3.194-0.194","bc9hr80gw4q3fzx",713,"52.csv","","251","resources/trios/L1T4A2.jpg","39","restless",0.6,0.4,0.4,0.365289654426022,"true"
"image-keyboard-response",594,3679747,"0.0-3.194-1.194","bc9hr80gw4q3fzx",713,"52.csv","","null","resources/maskTrios/BBA2.jpg","null","",NA,NA,NA,NA,""
"image-keyboard-response",595,3680952,"0.0-3.194-2.194","bc9hr80gw4q3fzx",713,"52.csv","","null","resources/images/coin2.png","null","",NA,NA,NA,NA,""
"image-keyboard-response",596,3680977,"0.0-3.195-0.195","bc9hr80gw4q3fzx",713,"52.csv","","23.299999997019768","resources/trios/L1T4A1.jpg","37","restless",0.6,0.4,0.4,0.482510450190805,"true"
"image-keyboard-response",597,3681382,"0.0-3.195-1.195","bc9hr80gw4q3fzx",713,"52.csv","","null","resources/maskTrios/L1BB.jpg","null","",NA,NA,NA,NA,""
"image-keyboard-response",598,3682585,"0.0-3.195-2.195","bc9hr80gw4q3fzx",713,"52.csv","","null","resources/images/coin2.png","null","",NA,NA,NA,NA,""
"image-keyboard-response",599,3682779,"0.0-3.196-0.196","bc9hr80gw4q3fzx",713,"52.csv","","192","resources/trios/L4T1A2.jpg","38","restless",0.6,0.4,0.4,0.433164095671003,"false"
"image-keyboard-response",600,3683185,"0.0-3.196-1.196","bc9hr80gw4q3fzx",713,"52.csv","","null","resources/maskTrios/BT1B.jpg","null","",NA,NA,NA,NA,""
"image-keyboard-response",601,3684391,"0.0-3.196-2.196","bc9hr80gw4q3fzx",713,"52.csv","","null","resources/images/fishbone.png","null","",NA,NA,NA,NA,""
"image-keyboard-response",602,3684700,"0.0-3.197-0.197","bc9hr80gw4q3fzx",713,"52.csv","","307.09999999403954","resources/trios/L4T4A1.jpg","37","restless",0.6,0.4,0.4,0.911747003164118,"false"
"image-keyboard-response",603,3685102,"0.0-3.197-1.197","bc9hr80gw4q3fzx",713,"52.csv","","null","resources/maskTrios/L4BB.jpg","null","",NA,NA,NA,NA,""
"image-keyboard-response",604,3686306,"0.0-3.197-2.197","bc9hr80gw4q3fzx",713,"52.csv","","null","resources/images/fishbone.png","null","",NA,NA,NA,NA,""
"image-keyboard-response",605,3686462,"0.0-3.198-0.198","bc9hr80gw4q3fzx",713,"52.csv","","153.59999999403954","resources/trios/L1T4A1.jpg","39","restless",0.6,0.4,0.4,0.6874009881417,"false"
