"trial_type","trial_index","time_elapsed","internal_node_id","subject","participantCode","walkNumber","success","rt","stimulus","key_press","test_part","leftProb","midProb","rightProb","generatedNum","correct"
"pavlovia",0,1114,"0.0-0.0","43rnskww51ftp76",238,"200.csv","","","","","",NA,NA,NA,NA,""
"fullscreen",1,10925,"0.0-1.0","43rnskww51ftp76",238,"200.csv","true","","","","",NA,NA,NA,NA,""
"html-keyboard-response",2,16909,"0.0-2.0-0.0","43rnskww51ftp76",238,"200.csv","","5982.799999952316","<p><font size='6'>Arrrgh!</p></font><p>Can you be the best pirate? Try to find lots of gold! But beware, some islands have more gold than others, and over time, the island with the most gold may change. Can YOU figure it out? </p><font size='6'>GOOD LUCK, CAPTAIN!!!</font><p>Press any key to begin</p>","32","",NA,NA,NA,NA,""
"image-keyboard-response",3,19929,"0.0-2.0-1.0","43rnskww51ftp76",238,"200.csv","","null","resources/image_sets/111.png","null","",NA,NA,NA,NA,""
"image-keyboard-response",4,29124,"0.0-2.0-2.0","43rnskww51ftp76",238,"200.csv","","9192.5","resources/image_sets/left_highlight.png","37","",NA,NA,NA,NA,""
"image-keyboard-response",5,31347,"0.0-2.0-3.0","43rnskww51ftp76",238,"200.csv","","2220","resources/image_sets/mid_highlight.png","38","",NA,NA,NA,NA,""
"image-keyboard-response",6,32173,"0.0-2.0-4.0","43rnskww51ftp76",238,"200.csv","","825.2000000476837","resources/image_sets/right_highlight.png","39","",NA,NA,NA,NA,""
"image-keyboard-response",7,35371,"0.0-2.0-5.0","43rnskww51ftp76",238,"200.csv","","3196.399999856949","resources/image_sets/111.png","13","",NA,NA,NA,NA,""
"image-keyboard-response",8,39040,"0.0-2.0-6.0","43rnskww51ftp76",238,"200.csv","","3666.5","resources/images/coin2.png","13","",NA,NA,NA,NA,""
"image-keyboard-response",9,41576,"0.0-2.0-7.0","43rnskww51ftp76",238,"200.csv","","2534.7999999523163","resources/images/fishbone.png","13","",NA,NA,NA,NA,""
"html-keyboard-response",10,43303,"0.0-2.0-8.0","43rnskww51ftp76",238,"200.csv","","1726.7000000476837","<p>Your first journey will be a long one, but you will get a well deserved break at the end</p><p>After the break you will have four more journeys, but each will be much shorter than the first, and you will have breaks in between each</p><p>Press Enter to begin</p>","13","",NA,NA,NA,NA,""
"image-keyboard-response",11,45461,"0.0-3.0-0.0","43rnskww51ftp76",238,"200.csv","","2156.399999856949","resources/trios/L4T2A1.jpg","38","restless",0.9,0.7,0.3,0.0859310456546662,"true"
"image-keyboard-response",12,45886,"0.0-3.0-1.0","43rnskww51ftp76",238,"200.csv","","null","resources/maskTrios/BT2B.jpg","null","",NA,NA,NA,NA,""
"image-keyboard-response",13,47113,"0.0-3.0-2.0","43rnskww51ftp76",238,"200.csv","","null","resources/images/coin2.png","null","",NA,NA,NA,NA,""
"image-keyboard-response",14,48548,"0.0-3.1-0.1","43rnskww51ftp76",238,"200.csv","","1433.7000000476837","resources/trios/L4T4A1.jpg","38","restless",0.8,0.7,0.3,0.427916176733375,"true"
"image-keyboard-response",15,48968,"0.0-3.1-1.1","43rnskww51ftp76",238,"200.csv","","null","resources/maskTrios/BT4B.jpg","null","",NA,NA,NA,NA,""
"image-keyboard-response",16,50186,"0.0-3.1-2.1","43rnskww51ftp76",238,"200.csv","","null","resources/images/coin2.png","null","",NA,NA,NA,NA,""
"image-keyboard-response",17,51007,"0.0-3.2-0.2","43rnskww51ftp76",238,"200.csv","","816.3999998569489","resources/trios/L4T4A1.jpg","38","restless",0.8,0.7,0.3,0.18056466484189,"true"
"image-keyboard-response",18,51416,"0.0-3.2-1.2","43rnskww51ftp76",238,"200.csv","","null","resources/maskTrios/BT4B.jpg","null","",NA,NA,NA,NA,""
"image-keyboard-response",19,52633,"0.0-3.2-2.2","43rnskww51ftp76",238,"200.csv","","null","resources/images/coin2.png","null","",NA,NA,NA,NA,""
"image-keyboard-response",20,53965,"0.0-3.3-0.3","43rnskww51ftp76",238,"200.csv","","1329.5","resources/trios/L4T2A3.jpg","38","restless",0.8,0.7,0.4,0.830112565727071,"false"
"image-keyboard-response",21,54383,"0.0-3.3-1.3","43rnskww51ftp76",238,"200.csv","","null","resources/maskTrios/BT2B.jpg","null","",NA,NA,NA,NA,""
"image-keyboard-response",22,55598,"0.0-3.3-2.3","43rnskww51ftp76",238,"200.csv","","null","resources/images/fishbone.png","null","",NA,NA,NA,NA,""
"image-keyboard-response",23,57224,"0.0-3.4-0.4","43rnskww51ftp76",238,"200.csv","","1624.1000001430511","resources/trios/L2T2A3.jpg","37","restless",0.8,0.7,0.4,0.331760058232014,"true"
"image-keyboard-response",24,57642,"0.0-3.4-1.4","43rnskww51ftp76",238,"200.csv","","null","resources/maskTrios/L2BB.jpg","null","",NA,NA,NA,NA,""
"image-keyboard-response",25,58848,"0.0-3.4-2.4","43rnskww51ftp76",238,"200.csv","","null","resources/images/coin2.png","null","",NA,NA,NA,NA,""
"image-keyboard-response",26,59419,"0.0-3.5-0.5","43rnskww51ftp76",238,"200.csv","","570","resources/trios/L4T2A1.jpg","37","restless",0.8,0.7,0.4,0.893344703175341,"false"
"image-keyboard-response",27,59826,"0.0-3.5-1.5","43rnskww51ftp76",238,"200.csv","","null","resources/maskTrios/L4BB.jpg","null","",NA,NA,NA,NA,""
"image-keyboard-response",28,61042,"0.0-3.5-2.5","43rnskww51ftp76",238,"200.csv","","null","resources/images/fishbone.png","null","",NA,NA,NA,NA,""
"image-keyboard-response",29,61722,"0.0-3.6-0.6","43rnskww51ftp76",238,"200.csv","","678.5","resources/trios/L2T4A1.jpg","38","restless",0.7,0.7,0.4,0.0597602230538286,"true"
"image-keyboard-response",30,62138,"0.0-3.6-1.6","43rnskww51ftp76",238,"200.csv","","null","resources/maskTrios/BT4B.jpg","null","",NA,NA,NA,NA,""
"image-keyboard-response",31,63354,"0.0-3.6-2.6","43rnskww51ftp76",238,"200.csv","","null","resources/images/coin2.png","null","",NA,NA,NA,NA,""
"image-keyboard-response",32,65001,"0.0-3.7-0.7","43rnskww51ftp76",238,"200.csv","","1645.1000001430511","resources/trios/L2T2A1.jpg","37","restless",0.7,0.7,0.4,0.885372911161723,"false"
"image-keyboard-response",33,65421,"0.0-3.7-1.7","43rnskww51ftp76",238,"200.csv","","null","resources/maskTrios/L2BB.jpg","null","",NA,NA,NA,NA,""
"image-keyboard-response",34,66650,"0.0-3.7-2.7","43rnskww51ftp76",238,"200.csv","","null","resources/images/fishbone.png","null","",NA,NA,NA,NA,""
"image-keyboard-response",35,68101,"0.0-3.8-0.8","43rnskww51ftp76",238,"200.csv","","1448.8999998569489","resources/trios/L2T2A3.jpg","38","restless",0.7,0.7,0.4,0.142433083224412,"true"
"image-keyboard-response",36,68522,"0.0-3.8-1.8","43rnskww51ftp76",238,"200.csv","","null","resources/maskTrios/BT2B.jpg","null","",NA,NA,NA,NA,""
"image-keyboard-response",37,69738,"0.0-3.8-2.8","43rnskww51ftp76",238,"200.csv","","null","resources/images/coin2.png","null","",NA,NA,NA,NA,""
"image-keyboard-response",38,70558,"0.0-3.9-0.9","43rnskww51ftp76",238,"200.csv","","818.5","resources/trios/L4T2A3.jpg","38","restless",0.7,0.7,0.4,0.366978823502738,"true"
"image-keyboard-response",39,70970,"0.0-3.9-1.9","43rnskww51ftp76",238,"200.csv","","null","resources/maskTrios/BT2B.jpg","null","",NA,NA,NA,NA,""
"image-keyboard-response",40,72184,"0.0-3.9-2.9","43rnskww51ftp76",238,"200.csv","","null","resources/images/coin2.png","null","",NA,NA,NA,NA,""
"image-keyboard-response",41,73087,"0.0-3.10-0.10","43rnskww51ftp76",238,"200.csv","","899.7999999523163","resources/trios/L2T2A1.jpg","38","restless",0.7,0.7,0.5,0.626462377279325,"true"
"image-keyboard-response",42,73497,"0.0-3.10-1.10","43rnskww51ftp76",238,"200.csv","","null","resources/maskTrios/BT2B.jpg","null","",NA,NA,NA,NA,""
"image-keyboard-response",43,74711,"0.0-3.10-2.10","43rnskww51ftp76",238,"200.csv","","null","resources/images/coin2.png","null","",NA,NA,NA,NA,""
"image-keyboard-response",44,75591,"0.0-3.11-0.11","43rnskww51ftp76",238,"200.csv","","878.2000000476837","resources/trios/L2T2A1.jpg","38","restless",0.7,0.8,0.5,0.695791925706251,"true"
"image-keyboard-response",45,76007,"0.0-3.11-1.11","43rnskww51ftp76",238,"200.csv","","null","resources/maskTrios/BT2B.jpg","null","",NA,NA,NA,NA,""
"image-keyboard-response",46,77222,"0.0-3.11-2.11","43rnskww51ftp76",238,"200.csv","","null","resources/images/coin2.png","null","",NA,NA,NA,NA,""
"image-keyboard-response",47,78220,"0.0-3.12-0.12","43rnskww51ftp76",238,"200.csv","","995.7999999523163","resources/trios/L4T4A3.jpg","38","restless",0.7,0.8,0.5,0.567762190352386,"true"
"image-keyboard-response",48,78637,"0.0-3.12-1.12","43rnskww51ftp76",238,"200.csv","","null","resources/maskTrios/BT4B.jpg","null","",NA,NA,NA,NA,""
"image-keyboard-response",49,79853,"0.0-3.12-2.12","43rnskww51ftp76",238,"200.csv","","null","resources/images/coin2.png","null","",NA,NA,NA,NA,""
"image-keyboard-response",50,80467,"0.0-3.13-0.13","43rnskww51ftp76",238,"200.csv","","612","resources/trios/L4T4A3.jpg","38","restless",0.7,0.8,0.5,0.806014785382595,"false"
"image-keyboard-response",51,80870,"0.0-3.13-1.13","43rnskww51ftp76",238,"200.csv","","null","resources/maskTrios/BT4B.jpg","null","",NA,NA,NA,NA,""
"image-keyboard-response",52,82087,"0.0-3.13-2.13","43rnskww51ftp76",238,"200.csv","","null","resources/images/fishbone.png","null","",NA,NA,NA,NA,""
"image-keyboard-response",53,82950,"0.0-3.14-0.14","43rnskww51ftp76",238,"200.csv","","862.1999998092651","resources/trios/L4T2A3.jpg","38","restless",0.7,0.8,0.5,0.428625305941746,"true"
"image-keyboard-response",54,83359,"0.0-3.14-1.14","43rnskww51ftp76",238,"200.csv","","null","resources/maskTrios/BT2B.jpg","null","",NA,NA,NA,NA,""
"image-keyboard-response",55,84582,"0.0-3.14-2.14","43rnskww51ftp76",238,"200.csv","","null","resources/images/coin2.png","null","",NA,NA,NA,NA,""
"image-keyboard-response",56,85193,"0.0-3.15-0.15","43rnskww51ftp76",238,"200.csv","","609.2999999523163","resources/trios/L4T4A3.jpg","38","restless",0.7,0.8,0.5,0.0551145268176525,"true"
"image-keyboard-response",57,85599,"0.0-3.15-1.15","43rnskww51ftp76",238,"200.csv","","null","resources/maskTrios/BT4B.jpg","null","",NA,NA,NA,NA,""
"image-keyboard-response",58,86814,"0.0-3.15-2.15","43rnskww51ftp76",238,"200.csv","","null","resources/images/coin2.png","null","",NA,NA,NA,NA,""
"image-keyboard-response",59,87310,"0.0-3.16-0.16","43rnskww51ftp76",238,"200.csv","","493.7999999523163","resources/trios/L4T4A3.jpg","37","restless",0.7,0.8,0.5,0.511427851093963,"true"
"image-keyboard-response",60,87725,"0.0-3.16-1.16","43rnskww51ftp76",238,"200.csv","","null","resources/maskTrios/L4BB.jpg","null","",NA,NA,NA,NA,""
"image-keyboard-response",61,88944,"0.0-3.16-2.16","43rnskww51ftp76",238,"200.csv","","null","resources/images/coin2.png","null","",NA,NA,NA,NA,""
"image-keyboard-response",62,89352,"0.0-3.17-0.17","43rnskww51ftp76",238,"200.csv","","405.60000014305115","resources/trios/L4T2A3.jpg","38","restless",0.7,0.8,0.5,0.646234534764182,"true"
"image-keyboard-response",63,89763,"0.0-3.17-1.17","43rnskww51ftp76",238,"200.csv","","null","resources/maskTrios/BT2B.jpg","null","",NA,NA,NA,NA,""
"image-keyboard-response",64,90980,"0.0-3.17-2.17","43rnskww51ftp76",238,"200.csv","","null","resources/images/coin2.png","null","",NA,NA,NA,NA,""
"image-keyboard-response",65,91375,"0.0-3.18-0.18","43rnskww51ftp76",238,"200.csv","","393","resources/trios/L4T4A3.jpg","38","restless",0.7,0.8,0.5,0.277388778015017,"true"
"image-keyboard-response",66,91785,"0.0-3.18-1.18","43rnskww51ftp76",238,"200.csv","","null","resources/maskTrios/BT4B.jpg","null","",NA,NA,NA,NA,""
"image-keyboard-response",67,93000,"0.0-3.18-2.18","43rnskww51ftp76",238,"200.csv","","null","resources/images/coin2.png","null","",NA,NA,NA,NA,""
"image-keyboard-response",68,93601,"0.0-3.19-0.19","43rnskww51ftp76",238,"200.csv","","599.5999999046326","resources/trios/L4T2A3.jpg","38","restless",0.7,0.8,0.5,0.273326050673798,"true"
"image-keyboard-response",69,94019,"0.0-3.19-1.19","43rnskww51ftp76",238,"200.csv","","null","resources/maskTrios/BT2B.jpg","null","",NA,NA,NA,NA,""
"image-keyboard-response",70,95223,"0.0-3.19-2.19","43rnskww51ftp76",238,"200.csv","","null","resources/images/coin2.png","null","",NA,NA,NA,NA,""
"image-keyboard-response",71,95891,"0.0-3.20-0.20","43rnskww51ftp76",238,"200.csv","","674","resources/trios/L2T2A3.jpg","38","restless",0.7,0.7,0.5,0.217532840452751,"true"
"image-keyboard-response",72,96298,"0.0-3.20-1.20","43rnskww51ftp76",238,"200.csv","","null","resources/maskTrios/BT2B.jpg","null","",NA,NA,NA,NA,""
"image-keyboard-response",73,97514,"0.0-3.20-2.20","43rnskww51ftp76",238,"200.csv","","null","resources/images/coin2.png","null","",NA,NA,NA,NA,""
"image-keyboard-response",74,98105,"0.0-3.21-0.21","43rnskww51ftp76",238,"200.csv","","590.4000000953674","resources/trios/L2T2A1.jpg","38","restless",0.7,0.7,0.5,0.23234196157219,"true"
"image-keyboard-response",75,98515,"0.0-3.21-1.21","43rnskww51ftp76",238,"200.csv","","null","resources/maskTrios/BT2B.jpg","null","",NA,NA,NA,NA,""
"image-keyboard-response",76,99730,"0.0-3.21-2.21","43rnskww51ftp76",238,"200.csv","","null","resources/images/coin2.png","null","",NA,NA,NA,NA,""
"image-keyboard-response",77,100137,"0.0-3.22-0.22","43rnskww51ftp76",238,"200.csv","","404.90000009536743","resources/trios/L2T2A1.jpg","38","restless",0.7,0.7,0.5,0.244965633737532,"true"
"image-keyboard-response",78,100551,"0.0-3.22-1.22","43rnskww51ftp76",238,"200.csv","","null","resources/maskTrios/BT2B.jpg","null","",NA,NA,NA,NA,""
"image-keyboard-response",79,101765,"0.0-3.22-2.22","43rnskww51ftp76",238,"200.csv","","null","resources/images/coin2.png","null","",NA,NA,NA,NA,""
"image-keyboard-response",80,102155,"0.0-3.23-0.23","43rnskww51ftp76",238,"200.csv","","388.39999985694885","resources/trios/L2T2A1.jpg","38","restless",0.7,0.7,0.5,0.669739987607622,"true"
"image-keyboard-response",81,102574,"0.0-3.23-1.23","43rnskww51ftp76",238,"200.csv","","null","resources/maskTrios/BT2B.jpg","null","",NA,NA,NA,NA,""
"image-keyboard-response",82,103791,"0.0-3.23-2.23","43rnskww51ftp76",238,"200.csv","","null","resources/images/coin2.png","null","",NA,NA,NA,NA,""
"image-keyboard-response",83,104201,"0.0-3.24-0.24","43rnskww51ftp76",238,"200.csv","","407.90000009536743","resources/trios/L2T2A1.jpg","38","restless",0.7,0.7,0.6,0.3616139002337,"true"
"image-keyboard-response",84,104608,"0.0-3.24-1.24","43rnskww51ftp76",238,"200.csv","","null","resources/maskTrios/BT2B.jpg","null","",NA,NA,NA,NA,""
"image-keyboard-response",85,105826,"0.0-3.24-2.24","43rnskww51ftp76",238,"200.csv","","null","resources/images/coin2.png","null","",NA,NA,NA,NA,""
"image-keyboard-response",86,106241,"0.0-3.25-0.25","43rnskww51ftp76",238,"200.csv","","413.2999999523163","resources/trios/L4T2A1.jpg","38","restless",0.7,0.7,0.6,0.619055854072414,"true"
"image-keyboard-response",87,106665,"0.0-3.25-1.25","43rnskww51ftp76",238,"200.csv","","null","resources/maskTrios/BT2B.jpg","null","",NA,NA,NA,NA,""
"image-keyboard-response",88,107878,"0.0-3.25-2.25","43rnskww51ftp76",238,"200.csv","","null","resources/images/coin2.png","null","",NA,NA,NA,NA,""
"image-keyboard-response",89,108226,"0.0-3.26-0.26","43rnskww51ftp76",238,"200.csv","","346.10000014305115","resources/trios/L4T2A3.jpg","38","restless",0.7,0.7,0.6,0.587931755209345,"true"
"image-keyboard-response",90,108639,"0.0-3.26-1.26","43rnskww51ftp76",238,"200.csv","","null","resources/maskTrios/BT2B.jpg","null","",NA,NA,NA,NA,""
"image-keyboard-response",91,109856,"0.0-3.26-2.26","43rnskww51ftp76",238,"200.csv","","null","resources/images/coin2.png","null","",NA,NA,NA,NA,""
"image-keyboard-response",92,110327,"0.0-3.27-0.27","43rnskww51ftp76",238,"200.csv","","469.7999999523163","resources/trios/L2T4A1.jpg","38","restless",0.7,0.7,0.6,0.30925002121409,"true"
"image-keyboard-response",93,110736,"0.0-3.27-1.27","43rnskww51ftp76",238,"200.csv","","null","resources/maskTrios/BT4B.jpg","null","",NA,NA,NA,NA,""
"image-keyboard-response",94,111952,"0.0-3.27-2.27","43rnskww51ftp76",238,"200.csv","","null","resources/images/coin2.png","null","",NA,NA,NA,NA,""
"image-keyboard-response",95,112711,"0.0-3.28-0.28","43rnskww51ftp76",238,"200.csv","","756.8999998569489","resources/trios/L4T2A1.jpg","38","restless",0.7,0.7,0.6,0.273377916982902,"true"
"image-keyboard-response",96,113123,"0.0-3.28-1.28","43rnskww51ftp76",238,"200.csv","","null","resources/maskTrios/BT2B.jpg","null","",NA,NA,NA,NA,""
"image-keyboard-response",97,114331,"0.0-3.28-2.28","43rnskww51ftp76",238,"200.csv","","null","resources/images/coin2.png","null","",NA,NA,NA,NA,""
"image-keyboard-response",98,114953,"0.0-3.29-0.29","43rnskww51ftp76",238,"200.csv","","619.8999998569489","resources/trios/L2T2A3.jpg","38","restless",0.7,0.6,0.6,0.476786575161093,"true"
"image-keyboard-response",99,115378,"0.0-3.29-1.29","43rnskww51ftp76",238,"200.csv","","null","resources/maskTrios/BT2B.jpg","null","",NA,NA,NA,NA,""
"image-keyboard-response",100,116596,"0.0-3.29-2.29","43rnskww51ftp76",238,"200.csv","","null","resources/images/coin2.png","null","",NA,NA,NA,NA,""
"image-keyboard-response",101,117404,"0.0-3.30-0.30","43rnskww51ftp76",238,"200.csv","","806.3000001907349","resources/trios/L2T2A3.jpg","38","restless",0.7,0.6,0.6,0.838845751516359,"false"
"image-keyboard-response",102,117810,"0.0-3.30-1.30","43rnskww51ftp76",238,"200.csv","","null","resources/maskTrios/BT2B.jpg","null","",NA,NA,NA,NA,""
"image-keyboard-response",103,119025,"0.0-3.30-2.30","43rnskww51ftp76",238,"200.csv","","null","resources/images/fishbone.png","null","",NA,NA,NA,NA,""
"image-keyboard-response",104,119973,"0.0-3.31-0.31","43rnskww51ftp76",238,"200.csv","","945","resources/trios/L4T2A1.jpg","38","restless",0.7,0.6,0.6,0.717354805793962,"false"
"image-keyboard-response",105,120377,"0.0-3.31-1.31","43rnskww51ftp76",238,"200.csv","","null","resources/maskTrios/BT2B.jpg","null","",NA,NA,NA,NA,""
"image-keyboard-response",106,121597,"0.0-3.31-2.31","43rnskww51ftp76",238,"200.csv","","null","resources/images/fishbone.png","null","",NA,NA,NA,NA,""
"image-keyboard-response",107,122158,"0.0-3.32-0.32","43rnskww51ftp76",238,"200.csv","","559.7999999523163","resources/trios/L2T4A3.jpg","38","restless",0.7,0.6,0.6,0.656264764666324,"false"
"image-keyboard-response",108,122579,"0.0-3.32-1.32","43rnskww51ftp76",238,"200.csv","","null","resources/maskTrios/BT4B.jpg","null","",NA,NA,NA,NA,""
"image-keyboard-response",109,123794,"0.0-3.32-2.32","43rnskww51ftp76",238,"200.csv","","null","resources/images/fishbone.png","null","",NA,NA,NA,NA,""
"image-keyboard-response",110,124300,"0.0-3.33-0.33","43rnskww51ftp76",238,"200.csv","","503.69999980926514","resources/trios/L4T2A1.jpg","38","restless",0.6,0.6,0.6,0.918922001300527,"false"
"image-keyboard-response",111,124719,"0.0-3.33-1.33","43rnskww51ftp76",238,"200.csv","","null","resources/maskTrios/BT2B.jpg","null","",NA,NA,NA,NA,""
"image-keyboard-response",112,125927,"0.0-3.33-2.33","43rnskww51ftp76",238,"200.csv","","null","resources/images/fishbone.png","null","",NA,NA,NA,NA,""
"image-keyboard-response",113,126595,"0.0-3.34-0.34","43rnskww51ftp76",238,"200.csv","","666.0999999046326","resources/trios/L4T4A3.jpg","37","restless",0.6,0.5,0.6,0.904312762454805,"false"
"image-keyboard-response",114,127006,"0.0-3.34-1.34","43rnskww51ftp76",238,"200.csv","","null","resources/maskTrios/L4BB.jpg","null","",NA,NA,NA,NA,""
"image-keyboard-response",115,128222,"0.0-3.34-2.34","43rnskww51ftp76",238,"200.csv","","null","resources/images/fishbone.png","null","",NA,NA,NA,NA,""
"image-keyboard-response",116,128490,"0.0-3.35-0.35","43rnskww51ftp76",238,"200.csv","","266.7999999523163","resources/trios/L2T4A3.jpg","38","restless",0.6,0.5,0.6,0.803905365105367,"false"
"image-keyboard-response",117,128906,"0.0-3.35-1.35","43rnskww51ftp76",238,"200.csv","","null","resources/maskTrios/BT4B.jpg","null","",NA,NA,NA,NA,""
"image-keyboard-response",118,130121,"0.0-3.35-2.35","43rnskww51ftp76",238,"200.csv","","null","resources/images/fishbone.png","null","",NA,NA,NA,NA,""
"image-keyboard-response",119,130442,"0.0-3.36-0.36","43rnskww51ftp76",238,"200.csv","","317.89999985694885","resources/trios/L2T4A1.jpg","39","restless",0.6,0.5,0.6,0.84497511258095,"false"
"image-keyboard-response",120,130852,"0.0-3.36-1.36","43rnskww51ftp76",238,"200.csv","","null","resources/maskTrios/BBA1.jpg","null","",NA,NA,NA,NA,""
"image-keyboard-response",121,132070,"0.0-3.36-2.36","43rnskww51ftp76",238,"200.csv","","null","resources/images/fishbone.png","null","",NA,NA,NA,NA,""
"image-keyboard-response",122,132464,"0.0-3.37-0.37","43rnskww51ftp76",238,"200.csv","","391.10000014305115","resources/trios/L2T4A1.jpg","38","restless",0.5,0.5,0.6,0.12269177606381,"true"
"image-keyboard-response",123,132888,"0.0-3.37-1.37","43rnskww51ftp76",238,"200.csv","","null","resources/maskTrios/BT4B.jpg","null","",NA,NA,NA,NA,""
"image-keyboard-response",124,134105,"0.0-3.37-2.37","43rnskww51ftp76",238,"200.csv","","null","resources/images/coin2.png","null","",NA,NA,NA,NA,""
"image-keyboard-response",125,134788,"0.0-3.38-0.38","43rnskww51ftp76",238,"200.csv","","681.4000000953674","resources/trios/L2T4A1.jpg","38","restless",0.5,0.5,0.6,0.907897234636756,"false"
"image-keyboard-response",126,135199,"0.0-3.38-1.38","43rnskww51ftp76",238,"200.csv","","null","resources/maskTrios/BT4B.jpg","null","",NA,NA,NA,NA,""
"image-keyboard-response",127,136416,"0.0-3.38-2.38","43rnskww51ftp76",238,"200.csv","","null","resources/images/fishbone.png","null","",NA,NA,NA,NA,""
"image-keyboard-response",128,136842,"0.0-3.39-0.39","43rnskww51ftp76",238,"200.csv","","423.7999999523163","resources/trios/L4T4A1.jpg","38","restless",0.5,0.5,0.6,0.016207279029961,"true"
"image-keyboard-response",129,137251,"0.0-3.39-1.39","43rnskww51ftp76",238,"200.csv","","null","resources/maskTrios/BT4B.jpg","null","",NA,NA,NA,NA,""
"image-keyboard-response",130,138457,"0.0-3.39-2.39","43rnskww51ftp76",238,"200.csv","","null","resources/images/coin2.png","null","",NA,NA,NA,NA,""
"image-keyboard-response",131,138808,"0.0-3.40-0.40","43rnskww51ftp76",238,"200.csv","","349.30000019073486","resources/trios/L4T2A1.jpg","38","restless",0.5,0.5,0.6,0.387835426636235,"true"
"image-keyboard-response",132,139229,"0.0-3.40-1.40","43rnskww51ftp76",238,"200.csv","","null","resources/maskTrios/BT2B.jpg","null","",NA,NA,NA,NA,""
"image-keyboard-response",133,140446,"0.0-3.40-2.40","43rnskww51ftp76",238,"200.csv","","null","resources/images/coin2.png","null","",NA,NA,NA,NA,""
"image-keyboard-response",134,140801,"0.0-3.41-0.41","43rnskww51ftp76",238,"200.csv","","352.19999980926514","resources/trios/L2T4A1.jpg","38","restless",0.5,0.4,0.5,0.541385424907553,"false"
"image-keyboard-response",135,141209,"0.0-3.41-1.41","43rnskww51ftp76",238,"200.csv","","null","resources/maskTrios/BT4B.jpg","null","",NA,NA,NA,NA,""
"image-keyboard-response",136,142418,"0.0-3.41-2.41","43rnskww51ftp76",238,"200.csv","","null","resources/images/fishbone.png","null","",NA,NA,NA,NA,""
"image-keyboard-response",137,142983,"0.0-3.42-0.42","43rnskww51ftp76",238,"200.csv","","563.9000000953674","resources/trios/L2T2A3.jpg","38","restless",0.5,0.4,0.5,0.85986802292306,"false"
"image-keyboard-response",138,143394,"0.0-3.42-1.42","43rnskww51ftp76",238,"200.csv","","null","resources/maskTrios/BT2B.jpg","null","",NA,NA,NA,NA,""
"image-keyboard-response",139,144603,"0.0-3.42-2.42","43rnskww51ftp76",238,"200.csv","","null","resources/images/fishbone.png","null","",NA,NA,NA,NA,""
"image-keyboard-response",140,145232,"0.0-3.43-0.43","43rnskww51ftp76",238,"200.csv","","626.6999998092651","resources/trios/L4T2A1.jpg","37","restless",0.5,0.4,0.5,0.0454738125691496,"true"
"image-keyboard-response",141,145642,"0.0-3.43-1.43","43rnskww51ftp76",238,"200.csv","","null","resources/maskTrios/L4BB.jpg","null","",NA,NA,NA,NA,""
"image-keyboard-response",142,146849,"0.0-3.43-2.43","43rnskww51ftp76",238,"200.csv","","null","resources/images/coin2.png","null","",NA,NA,NA,NA,""
"image-keyboard-response",143,147351,"0.0-3.44-0.44","43rnskww51ftp76",238,"200.csv","","499.59999990463257","resources/trios/L4T2A1.jpg","37","restless",0.5,0.4,0.5,0.979757171664955,"false"
"image-keyboard-response",144,147773,"0.0-3.44-1.44","43rnskww51ftp76",238,"200.csv","","null","resources/maskTrios/L4BB.jpg","null","",NA,NA,NA,NA,""
"image-keyboard-response",145,148988,"0.0-3.44-2.44","43rnskww51ftp76",238,"200.csv","","null","resources/images/fishbone.png","null","",NA,NA,NA,NA,""
"image-keyboard-response",146,149269,"0.0-3.45-0.45","43rnskww51ftp76",238,"200.csv","","279.10000014305115","resources/trios/L4T4A1.jpg","38","restless",0.5,0.4,0.5,0.896655368561213,"false"
"image-keyboard-response",147,149681,"0.0-3.45-1.45","43rnskww51ftp76",238,"200.csv","","null","resources/maskTrios/BT4B.jpg","null","",NA,NA,NA,NA,""
"image-keyboard-response",148,150890,"0.0-3.45-2.45","43rnskww51ftp76",238,"200.csv","","null","resources/images/fishbone.png","null","",NA,NA,NA,NA,""
"image-keyboard-response",149,151134,"0.0-3.46-0.46","43rnskww51ftp76",238,"200.csv","","242.70000004768372","resources/trios/L4T4A3.jpg","38","restless",0.4,0.3,0.5,0.0594951710160874,"true"
"image-keyboard-response",150,151547,"0.0-3.46-1.46","43rnskww51ftp76",238,"200.csv","","null","resources/maskTrios/BT4B.jpg","null","",NA,NA,NA,NA,""
"image-keyboard-response",151,152763,"0.0-3.46-2.46","43rnskww51ftp76",238,"200.csv","","null","resources/images/coin2.png","null","",NA,NA,NA,NA,""
"image-keyboard-response",152,153237,"0.0-3.47-0.47","43rnskww51ftp76",238,"200.csv","","471.7000000476837","resources/trios/L2T2A3.jpg","38","restless",0.4,0.3,0.5,0.848842534322116,"false"
"image-keyboard-response",153,153661,"0.0-3.47-1.47","43rnskww51ftp76",238,"200.csv","","null","resources/maskTrios/BT2B.jpg","null","",NA,NA,NA,NA,""
"image-keyboard-response",154,154877,"0.0-3.47-2.47","43rnskww51ftp76",238,"200.csv","","null","resources/images/fishbone.png","null","",NA,NA,NA,NA,""
"image-keyboard-response",155,155259,"0.0-3.48-0.48","43rnskww51ftp76",238,"200.csv","","380.5","resources/trios/L4T2A1.jpg","38","restless",0.4,0.3,0.5,0.0691587833029492,"true"
"image-keyboard-response",156,155665,"0.0-3.48-1.48","43rnskww51ftp76",238,"200.csv","","null","resources/maskTrios/BT2B.jpg","null","",NA,NA,NA,NA,""
"image-keyboard-response",157,156888,"0.0-3.48-2.48","43rnskww51ftp76",238,"200.csv","","null","resources/images/coin2.png","null","",NA,NA,NA,NA,""
"image-keyboard-response",158,157151,"0.0-3.49-0.49","43rnskww51ftp76",238,"200.csv","","260.5","resources/trios/L2T4A3.jpg","38","restless",0.5,0.3,0.5,0.6165781433361,"false"
"image-keyboard-response",159,157565,"0.0-3.49-1.49","43rnskww51ftp76",238,"200.csv","","null","resources/maskTrios/BT4B.jpg","null","",NA,NA,NA,NA,""
"image-keyboard-response",160,158772,"0.0-3.49-2.49","43rnskww51ftp76",238,"200.csv","","null","resources/images/fishbone.png","null","",NA,NA,NA,NA,""
"image-keyboard-response",161,159233,"0.0-3.50-0.50","43rnskww51ftp76",238,"200.csv","","459.59999990463257","resources/trios/L4T2A3.jpg","38","restless",0.5,0.3,0.4,0.675995609539754,"false"
"image-keyboard-response",162,159647,"0.0-3.50-1.50","43rnskww51ftp76",238,"200.csv","","null","resources/maskTrios/BT2B.jpg","null","",NA,NA,NA,NA,""
"image-keyboard-response",163,160862,"0.0-3.50-2.50","43rnskww51ftp76",238,"200.csv","","null","resources/images/fishbone.png","null","",NA,NA,NA,NA,""
"image-keyboard-response",164,161100,"0.0-3.51-0.51","43rnskww51ftp76",238,"200.csv","","236.5","resources/trios/L2T2A3.jpg","38","restless",0.5,0.3,0.4,0.963796707519679,"false"
"image-keyboard-response",165,161514,"0.0-3.51-1.51","43rnskww51ftp76",238,"200.csv","","null","resources/maskTrios/BT2B.jpg","null","",NA,NA,NA,NA,""
"image-keyboard-response",166,162724,"0.0-3.51-2.51","43rnskww51ftp76",238,"200.csv","","null","resources/images/fishbone.png","null","",NA,NA,NA,NA,""
"image-keyboard-response",167,163628,"0.0-3.52-0.52","43rnskww51ftp76",238,"200.csv","","902.7000000476837","resources/trios/L2T2A1.jpg","37","restless",0.5,0.3,0.4,0.539564740457774,"false"
"image-keyboard-response",168,164032,"0.0-3.52-1.52","43rnskww51ftp76",238,"200.csv","","null","resources/maskTrios/L2BB.jpg","null","",NA,NA,NA,NA,""
"image-keyboard-response",169,165241,"0.0-3.52-2.52","43rnskww51ftp76",238,"200.csv","","null","resources/images/fishbone.png","null","",NA,NA,NA,NA,""
"image-keyboard-response",170,165496,"0.0-3.53-0.53","43rnskww51ftp76",238,"200.csv","","253.29999995231628","resources/trios/L2T4A1.jpg","38","restless",0.5,0.3,0.4,0.123449014784348,"true"
"image-keyboard-response",171,165910,"0.0-3.53-1.53","43rnskww51ftp76",238,"200.csv","","null","resources/maskTrios/BT4B.jpg","null","",NA,NA,NA,NA,""
"image-keyboard-response",172,167124,"0.0-3.53-2.53","43rnskww51ftp76",238,"200.csv","","null","resources/images/coin2.png","null","",NA,NA,NA,NA,""
"image-keyboard-response",173,167373,"0.0-3.54-0.54","43rnskww51ftp76",238,"200.csv","","246.90000009536743","resources/trios/L2T4A1.jpg","38","restless",0.5,0.3,0.4,0.309216459650127,"false"
"image-keyboard-response",174,167776,"0.0-3.54-1.54","43rnskww51ftp76",238,"200.csv","","null","resources/maskTrios/BT4B.jpg","null","",NA,NA,NA,NA,""
"image-keyboard-response",175,168994,"0.0-3.54-2.54","43rnskww51ftp76",238,"200.csv","","null","resources/images/fishbone.png","null","",NA,NA,NA,NA,""
"image-keyboard-response",176,169225,"0.0-3.55-0.55","43rnskww51ftp76",238,"200.csv","","229.80000019073486","resources/trios/L2T4A1.jpg","38","restless",0.5,0.3,0.4,0.465116480420718,"false"
"image-keyboard-response",177,169635,"0.0-3.55-1.55","43rnskww51ftp76",238,"200.csv","","null","resources/maskTrios/BT4B.jpg","null","",NA,NA,NA,NA,""
"image-keyboard-response",178,170852,"0.0-3.55-2.55","43rnskww51ftp76",238,"200.csv","","null","resources/images/fishbone.png","null","",NA,NA,NA,NA,""
"image-keyboard-response",179,170909,"0.0-3.56-0.56","43rnskww51ftp76",238,"200.csv","","55","resources/trios/L2T4A1.jpg","38","restless",0.5,0.3,0.4,0.756011524779741,"false"
"image-keyboard-response",180,171322,"0.0-3.56-1.56","43rnskww51ftp76",238,"200.csv","","null","resources/maskTrios/BT4B.jpg","null","",NA,NA,NA,NA,""
"image-keyboard-response",181,172538,"0.0-3.56-2.56","43rnskww51ftp76",238,"200.csv","","null","resources/images/fishbone.png","null","",NA,NA,NA,NA,""
"image-keyboard-response",182,172713,"0.0-3.57-0.57","43rnskww51ftp76",238,"200.csv","","173.29999995231628","resources/trios/L4T2A3.jpg","38","restless",0.5,0.3,0.4,0.11970923423419,"true"
"image-keyboard-response",183,173133,"0.0-3.57-1.57","43rnskww51ftp76",238,"200.csv","","null","resources/maskTrios/BT2B.jpg","null","",NA,NA,NA,NA,""
"image-keyboard-response",184,174348,"0.0-3.57-2.57","43rnskww51ftp76",238,"200.csv","","null","resources/images/coin2.png","null","",NA,NA,NA,NA,""
"image-keyboard-response",185,174549,"0.0-3.58-0.58","43rnskww51ftp76",238,"200.csv","","198.79999995231628","resources/trios/L2T2A3.jpg","38","restless",0.5,0.3,0.4,0.948569581395728,"false"
"image-keyboard-response",186,174955,"0.0-3.58-1.58","43rnskww51ftp76",238,"200.csv","","null","resources/maskTrios/BT2B.jpg","null","",NA,NA,NA,NA,""
"image-keyboard-response",187,176170,"0.0-3.58-2.58","43rnskww51ftp76",238,"200.csv","","null","resources/images/fishbone.png","null","",NA,NA,NA,NA,""
"image-keyboard-response",188,176497,"0.0-3.59-0.59","43rnskww51ftp76",238,"200.csv","","324.2000000476837","resources/trios/L2T4A3.jpg","38","restless",0.5,0.4,0.4,0.473123475803763,"false"
"image-keyboard-response",189,176917,"0.0-3.59-1.59","43rnskww51ftp76",238,"200.csv","","null","resources/maskTrios/BT4B.jpg","null","",NA,NA,NA,NA,""
"image-keyboard-response",190,178131,"0.0-3.59-2.59","43rnskww51ftp76",238,"200.csv","","null","resources/images/fishbone.png","null","",NA,NA,NA,NA,""
"image-keyboard-response",191,178299,"0.0-3.60-0.60","43rnskww51ftp76",238,"200.csv","","166","resources/trios/L2T2A3.jpg","38","restless",0.6,0.4,0.4,0.211525176543636,"true"
"image-keyboard-response",192,178712,"0.0-3.60-1.60","43rnskww51ftp76",238,"200.csv","","null","resources/maskTrios/BT2B.jpg","null","",NA,NA,NA,NA,""
"image-keyboard-response",193,179928,"0.0-3.60-2.60","43rnskww51ftp76",238,"200.csv","","null","resources/images/coin2.png","null","",NA,NA,NA,NA,""
"image-keyboard-response",194,180217,"0.0-3.61-0.61","43rnskww51ftp76",238,"200.csv","","288.09999990463257","resources/trios/L4T2A3.jpg","38","restless",0.6,0.4,0.4,0.693384113393887,"false"
"image-keyboard-response",195,180626,"0.0-3.61-1.61","43rnskww51ftp76",238,"200.csv","","null","resources/maskTrios/BT2B.jpg","null","",NA,NA,NA,NA,""
"image-keyboard-response",196,181843,"0.0-3.61-2.61","43rnskww51ftp76",238,"200.csv","","null","resources/images/fishbone.png","null","",NA,NA,NA,NA,""
"image-keyboard-response",197,181943,"0.0-3.62-0.62","43rnskww51ftp76",238,"200.csv","","99.29999995231628","resources/trios/L2T2A3.jpg","38","restless",0.6,0.4,0.4,0.840655797054495,"false"
"image-keyboard-response",198,182360,"0.0-3.62-1.62","43rnskww51ftp76",238,"200.csv","","null","resources/maskTrios/BT2B.jpg","null","",NA,NA,NA,NA,""
"image-keyboard-response",199,183578,"0.0-3.62-2.62","43rnskww51ftp76",238,"200.csv","","null","resources/images/fishbone.png","null","",NA,NA,NA,NA,""
"image-keyboard-response",200,183634,"0.0-3.63-0.63","43rnskww51ftp76",238,"200.csv","","50.90000009536743","resources/trios/L4T4A3.jpg","38","restless",0.6,0.4,0.4,0.472569457945922,"false"
"image-keyboard-response",201,184046,"0.0-3.63-1.63","43rnskww51ftp76",238,"200.csv","","null","resources/maskTrios/BT4B.jpg","null","",NA,NA,NA,NA,""
"image-keyboard-response",202,185248,"0.0-3.63-2.63","43rnskww51ftp76",238,"200.csv","","null","resources/images/fishbone.png","null","",NA,NA,NA,NA,""
"image-keyboard-response",203,185252,"0.0-3.64-0.64","43rnskww51ftp76",238,"200.csv","","3.4000000953674316","resources/trios/L2T4A3.jpg","38","restless",0.6,0.4,0.4,0.850242431555865,"false"
"image-keyboard-response",204,185658,"0.0-3.64-1.64","43rnskww51ftp76",238,"200.csv","","null","resources/maskTrios/BT4B.jpg","null","",NA,NA,NA,NA,""
"image-keyboard-response",205,186874,"0.0-3.64-2.64","43rnskww51ftp76",238,"200.csv","","null","resources/images/fishbone.png","null","",NA,NA,NA,NA,""
"image-keyboard-response",206,186902,"0.0-3.65-0.65","43rnskww51ftp76",238,"200.csv","","26.40000009536743","resources/trios/L2T4A1.jpg","38","restless",0.6,0.4,0.4,0.196656826854378,"true"
"image-keyboard-response",207,187319,"0.0-3.65-1.65","43rnskww51ftp76",238,"200.csv","","null","resources/maskTrios/BT4B.jpg","null","",NA,NA,NA,NA,""
"image-keyboard-response",208,188543,"0.0-3.65-2.65","43rnskww51ftp76",238,"200.csv","","null","resources/images/coin2.png","null","",NA,NA,NA,NA,""
"image-keyboard-response",209,188738,"0.0-3.66-0.66","43rnskww51ftp76",238,"200.csv","","193.10000014305115","resources/trios/L2T2A3.jpg","38","restless",0.6,0.4,0.4,0.466463541424427,"false"
"image-keyboard-response",210,189155,"0.0-3.66-1.66","43rnskww51ftp76",238,"200.csv","","null","resources/maskTrios/BT2B.jpg","null","",NA,NA,NA,NA,""
"image-keyboard-response",211,190372,"0.0-3.66-2.66","43rnskww51ftp76",238,"200.csv","","null","resources/images/fishbone.png","null","",NA,NA,NA,NA,""
"image-keyboard-response",212,190416,"0.0-3.67-0.67","43rnskww51ftp76",238,"200.csv","","42","resources/trios/L2T2A3.jpg","38","restless",0.6,0.5,0.4,0.729400673679033,"false"
"image-keyboard-response",213,190823,"0.0-3.67-1.67","43rnskww51ftp76",238,"200.csv","","null","resources/maskTrios/BT2B.jpg","null","",NA,NA,NA,NA,""
"image-keyboard-response",214,192040,"0.0-3.67-2.67","43rnskww51ftp76",238,"200.csv","","null","resources/images/fishbone.png","null","",NA,NA,NA,NA,""
"image-keyboard-response",215,192412,"0.0-3.68-0.68","43rnskww51ftp76",238,"200.csv","","370.09999990463257","resources/trios/L4T4A1.jpg","38","restless",0.7,0.5,0.4,0.925021556129613,"false"
"image-keyboard-response",216,192819,"0.0-3.68-1.68","43rnskww51ftp76",238,"200.csv","","null","resources/maskTrios/BT4B.jpg","null","",NA,NA,NA,NA,""
"image-keyboard-response",217,194028,"0.0-3.68-2.68","43rnskww51ftp76",238,"200.csv","","null","resources/images/fishbone.png","null","",NA,NA,NA,NA,""
"image-keyboard-response",218,194146,"0.0-3.69-0.69","43rnskww51ftp76",238,"200.csv","","116","resources/trios/L4T4A3.jpg","38","restless",0.7,0.5,0.3,0.305130715512278,"true"
"image-keyboard-response",219,194566,"0.0-3.69-1.69","43rnskww51ftp76",238,"200.csv","","null","resources/maskTrios/BT4B.jpg","null","",NA,NA,NA,NA,""
"image-keyboard-response",220,195783,"0.0-3.69-2.69","43rnskww51ftp76",238,"200.csv","","null","resources/images/coin2.png","null","",NA,NA,NA,NA,""
"image-keyboard-response",221,195976,"0.0-3.70-0.70","43rnskww51ftp76",238,"200.csv","","191.20000004768372","resources/trios/L2T2A1.jpg","38","restless",0.7,0.5,0.3,0.3103845991304,"true"
"image-keyboard-response",222,196388,"0.0-3.70-1.70","43rnskww51ftp76",238,"200.csv","","null","resources/maskTrios/BT2B.jpg","null","",NA,NA,NA,NA,""
"image-keyboard-response",223,197605,"0.0-3.70-2.70","43rnskww51ftp76",238,"200.csv","","null","resources/images/coin2.png","null","",NA,NA,NA,NA,""
"image-keyboard-response",224,197853,"0.0-3.71-0.71","43rnskww51ftp76",238,"200.csv","","246.79999995231628","resources/trios/L4T4A1.jpg","38","restless",0.7,0.5,0.3,0.329791233701416,"true"
"image-keyboard-response",225,198263,"0.0-3.71-1.71","43rnskww51ftp76",238,"200.csv","","null","resources/maskTrios/BT4B.jpg","null","",NA,NA,NA,NA,""
"image-keyboard-response",226,199479,"0.0-3.71-2.71","43rnskww51ftp76",238,"200.csv","","null","resources/images/coin2.png","null","",NA,NA,NA,NA,""
"image-keyboard-response",227,199664,"0.0-3.72-0.72","43rnskww51ftp76",238,"200.csv","","182.90000009536743","resources/trios/L2T4A3.jpg","38","restless",0.7,0.5,0.3,0.631298083901211,"false"
"image-keyboard-response",228,200074,"0.0-3.72-1.72","43rnskww51ftp76",238,"200.csv","","null","resources/maskTrios/BT4B.jpg","null","",NA,NA,NA,NA,""
"image-keyboard-response",229,201284,"0.0-3.72-2.72","43rnskww51ftp76",238,"200.csv","","null","resources/images/fishbone.png","null","",NA,NA,NA,NA,""
"image-keyboard-response",230,201486,"0.0-3.73-0.73","43rnskww51ftp76",238,"200.csv","","200.80000019073486","resources/trios/L2T4A3.jpg","38","restless",0.7,0.5,0.3,0.718763568255556,"false"
"image-keyboard-response",231,201896,"0.0-3.73-1.73","43rnskww51ftp76",238,"200.csv","","null","resources/maskTrios/BT4B.jpg","null","",NA,NA,NA,NA,""
"image-keyboard-response",232,203115,"0.0-3.73-2.73","43rnskww51ftp76",238,"200.csv","","null","resources/images/fishbone.png","null","",NA,NA,NA,NA,""
"image-keyboard-response",233,203386,"0.0-3.74-0.74","43rnskww51ftp76",238,"200.csv","","269.2999999523163","resources/trios/L2T2A1.jpg","38","restless",0.7,0.4,0.4,0.652786934085267,"false"
"image-keyboard-response",234,203794,"0.0-3.74-1.74","43rnskww51ftp76",238,"200.csv","","null","resources/maskTrios/BT2B.jpg","null","",NA,NA,NA,NA,""
"image-keyboard-response",235,205012,"0.0-3.74-2.74","43rnskww51ftp76",238,"200.csv","","null","resources/images/fishbone.png","null","",NA,NA,NA,NA,""
"image-keyboard-response",236,205069,"0.0-3.75-0.75","43rnskww51ftp76",238,"200.csv","","54.90000009536743","resources/trios/L2T4A3.jpg","38","restless",0.7,0.4,0.4,0.830818139595219,"false"
"image-keyboard-response",237,205472,"0.0-3.75-1.75","43rnskww51ftp76",238,"200.csv","","null","resources/maskTrios/BT4B.jpg","null","",NA,NA,NA,NA,""
"image-keyboard-response",238,206685,"0.0-3.75-2.75","43rnskww51ftp76",238,"200.csv","","null","resources/images/fishbone.png","null","",NA,NA,NA,NA,""
"image-keyboard-response",239,206774,"0.0-3.76-0.76","43rnskww51ftp76",238,"200.csv","","87.79999995231628","resources/trios/L4T4A1.jpg","38","restless",0.7,0.4,0.4,0.920276557767645,"false"
"image-keyboard-response",240,207187,"0.0-3.76-1.76","43rnskww51ftp76",238,"200.csv","","null","resources/maskTrios/BT4B.jpg","null","",NA,NA,NA,NA,""
"image-keyboard-response",241,208404,"0.0-3.76-2.76","43rnskww51ftp76",238,"200.csv","","null","resources/images/fishbone.png","null","",NA,NA,NA,NA,""
"image-keyboard-response",242,208500,"0.0-3.77-0.77","43rnskww51ftp76",238,"200.csv","","94.40000009536743","resources/trios/L2T2A3.jpg","38","restless",0.7,0.4,0.4,0.514708280015624,"false"
"image-keyboard-response",243,208905,"0.0-3.77-1.77","43rnskww51ftp76",238,"200.csv","","null","resources/maskTrios/BT2B.jpg","null","",NA,NA,NA,NA,""
"image-keyboard-response",244,210108,"0.0-3.77-2.77","43rnskww51ftp76",238,"200.csv","","null","resources/images/fishbone.png","null","",NA,NA,NA,NA,""
"image-keyboard-response",245,210242,"0.0-3.78-0.78","43rnskww51ftp76",238,"200.csv","","132","resources/trios/L2T2A3.jpg","38","restless",0.7,0.4,0.4,0.289053718035738,"true"
"image-keyboard-response",246,210652,"0.0-3.78-1.78","43rnskww51ftp76",238,"200.csv","","null","resources/maskTrios/BT2B.jpg","null","",NA,NA,NA,NA,""
"image-keyboard-response",247,211870,"0.0-3.78-2.78","43rnskww51ftp76",238,"200.csv","","null","resources/images/coin2.png","null","",NA,NA,NA,NA,""
"image-keyboard-response",248,211950,"0.0-3.79-0.79","43rnskww51ftp76",238,"200.csv","","77.29999995231628","resources/trios/L2T4A1.jpg","38","restless",0.7,0.4,0.4,0.604029558951536,"false"
"image-keyboard-response",249,212371,"0.0-3.79-1.79","43rnskww51ftp76",238,"200.csv","","null","resources/maskTrios/BT4B.jpg","null","",NA,NA,NA,NA,""
"image-keyboard-response",250,213579,"0.0-3.79-2.79","43rnskww51ftp76",238,"200.csv","","null","resources/images/fishbone.png","null","",NA,NA,NA,NA,""
"image-keyboard-response",251,213658,"0.0-3.80-0.80","43rnskww51ftp76",238,"200.csv","","78.10000014305115","resources/trios/L4T2A3.jpg","38","restless",0.7,0.4,0.4,0.889410185925178,"false"
"image-keyboard-response",252,214064,"0.0-3.80-1.80","43rnskww51ftp76",238,"200.csv","","null","resources/maskTrios/BT2B.jpg","null","",NA,NA,NA,NA,""
"image-keyboard-response",253,215279,"0.0-3.80-2.80","43rnskww51ftp76",238,"200.csv","","null","resources/images/fishbone.png","null","",NA,NA,NA,NA,""
"image-keyboard-response",254,215427,"0.0-3.81-0.81","43rnskww51ftp76",238,"200.csv","","147.59999990463257","resources/trios/L2T2A1.jpg","38","restless",0.7,0.4,0.4,0.186922371284542,"true"
"image-keyboard-response",255,215834,"0.0-3.81-1.81","43rnskww51ftp76",238,"200.csv","","null","resources/maskTrios/BT2B.jpg","null","",NA,NA,NA,NA,""
"image-keyboard-response",256,217041,"0.0-3.81-2.81","43rnskww51ftp76",238,"200.csv","","null","resources/images/coin2.png","null","",NA,NA,NA,NA,""
"image-keyboard-response",257,217091,"0.0-3.82-0.82","43rnskww51ftp76",238,"200.csv","","48.299999952316284","resources/trios/L2T4A1.jpg","38","restless",0.7,0.4,0.4,0.58049360200384,"false"
"image-keyboard-response",258,217496,"0.0-3.82-1.82","43rnskww51ftp76",238,"200.csv","","null","resources/maskTrios/BT4B.jpg","null","",NA,NA,NA,NA,""
"image-keyboard-response",259,218711,"0.0-3.82-2.82","43rnskww51ftp76",238,"200.csv","","null","resources/images/fishbone.png","null","",NA,NA,NA,NA,""
"image-keyboard-response",260,218875,"0.0-3.83-0.83","43rnskww51ftp76",238,"200.csv","","161.89999985694885","resources/trios/L2T4A3.jpg","38","restless",0.7,0.4,0.4,0.0968190795055084,"true"
"image-keyboard-response",261,219290,"0.0-3.83-1.83","43rnskww51ftp76",238,"200.csv","","null","resources/maskTrios/BT4B.jpg","null","",NA,NA,NA,NA,""
"image-keyboard-response",262,220504,"0.0-3.83-2.83","43rnskww51ftp76",238,"200.csv","","null","resources/images/coin2.png","null","",NA,NA,NA,NA,""
"image-keyboard-response",263,220630,"0.0-3.84-0.84","43rnskww51ftp76",238,"200.csv","","123.59999990463257","resources/trios/L4T4A3.jpg","38","restless",0.7,0.4,0.4,0.0598133443363056,"true"
"image-keyboard-response",264,221039,"0.0-3.84-1.84","43rnskww51ftp76",238,"200.csv","","null","resources/maskTrios/BT4B.jpg","null","",NA,NA,NA,NA,""
"image-keyboard-response",265,222257,"0.0-3.84-2.84","43rnskww51ftp76",238,"200.csv","","null","resources/images/coin2.png","null","",NA,NA,NA,NA,""
"image-keyboard-response",266,222479,"0.0-3.85-0.85","43rnskww51ftp76",238,"200.csv","","221.39999985694885","resources/trios/L4T2A3.jpg","38","restless",0.7,0.4,0.3,0.782587274088665,"false"
"image-keyboard-response",267,222893,"0.0-3.85-1.85","43rnskww51ftp76",238,"200.csv","","null","resources/maskTrios/BT2B.jpg","null","",NA,NA,NA,NA,""
"image-keyboard-response",268,224110,"0.0-3.85-2.85","43rnskww51ftp76",238,"200.csv","","null","resources/images/fishbone.png","null","",NA,NA,NA,NA,""
"image-keyboard-response",269,224164,"0.0-3.86-0.86","43rnskww51ftp76",238,"200.csv","","51.59999990463257","resources/trios/L4T4A3.jpg","38","restless",0.7,0.4,0.3,0.103610828078554,"true"
"image-keyboard-response",270,224569,"0.0-3.86-1.86","43rnskww51ftp76",238,"200.csv","","null","resources/maskTrios/BT4B.jpg","null","",NA,NA,NA,NA,""
"image-keyboard-response",271,225776,"0.0-3.86-2.86","43rnskww51ftp76",238,"200.csv","","null","resources/images/coin2.png","null","",NA,NA,NA,NA,""
"image-keyboard-response",272,225793,"0.0-3.87-0.87","43rnskww51ftp76",238,"200.csv","","14.699999809265137","resources/trios/L4T2A1.jpg","37","restless",0.6,0.4,0.3,0.364648039091898,"true"
"image-keyboard-response",273,226206,"0.0-3.87-1.87","43rnskww51ftp76",238,"200.csv","","null","resources/maskTrios/L4BB.jpg","null","",NA,NA,NA,NA,""
"image-keyboard-response",274,227420,"0.0-3.87-2.87","43rnskww51ftp76",238,"200.csv","","null","resources/images/coin2.png","null","",NA,NA,NA,NA,""
"image-keyboard-response",275,227427,"0.0-3.88-0.88","43rnskww51ftp76",238,"200.csv","","4.8999998569488525","resources/trios/L2T2A1.jpg","37","restless",0.6,0.4,0.3,0.109682190637898,"true"
"image-keyboard-response",276,227835,"0.0-3.88-1.88","43rnskww51ftp76",238,"200.csv","","null","resources/maskTrios/L2BB.jpg","null","",NA,NA,NA,NA,""
"image-keyboard-response",277,229050,"0.0-3.88-2.88","43rnskww51ftp76",238,"200.csv","","null","resources/images/coin2.png","null","",NA,NA,NA,NA,""
"image-keyboard-response",278,229092,"0.0-3.89-0.89","43rnskww51ftp76",238,"200.csv","","39.799999952316284","resources/trios/L2T2A3.jpg","37","restless",0.6,0.4,0.3,0.288082574646308,"true"
"image-keyboard-response",279,229505,"0.0-3.89-1.89","43rnskww51ftp76",238,"200.csv","","null","resources/maskTrios/L2BB.jpg","null","",NA,NA,NA,NA,""
"image-keyboard-response",280,230713,"0.0-3.89-2.89","43rnskww51ftp76",238,"200.csv","","null","resources/images/coin2.png","null","",NA,NA,NA,NA,""
"image-keyboard-response",281,230728,"0.0-3.90-0.90","43rnskww51ftp76",238,"200.csv","","14.299999952316284","resources/trios/L4T4A1.jpg","37","restless",0.6,0.5,0.3,0.853332042029205,"false"
"image-keyboard-response",282,231139,"0.0-3.90-1.90","43rnskww51ftp76",238,"200.csv","","null","resources/maskTrios/L4BB.jpg","null","",NA,NA,NA,NA,""
"image-keyboard-response",283,232348,"0.0-3.90-2.90","43rnskww51ftp76",238,"200.csv","","null","resources/images/fishbone.png","null","",NA,NA,NA,NA,""
"image-keyboard-response",284,232409,"0.0-3.91-0.91","43rnskww51ftp76",238,"200.csv","","59.200000047683716","resources/trios/L4T4A3.jpg","38","restless",0.6,0.5,0.3,0.00262482391365149,"true"
"image-keyboard-response",285,232818,"0.0-3.91-1.91","43rnskww51ftp76",238,"200.csv","","null","resources/maskTrios/BT4B.jpg","null","",NA,NA,NA,NA,""
"image-keyboard-response",286,234027,"0.0-3.91-2.91","43rnskww51ftp76",238,"200.csv","","null","resources/images/coin2.png","null","",NA,NA,NA,NA,""
"image-keyboard-response",287,234087,"0.0-3.92-0.92","43rnskww51ftp76",238,"200.csv","","58.09999990463257","resources/trios/L2T2A3.jpg","37","restless",0.6,0.5,0.3,0.246188357748296,"true"
"image-keyboard-response",288,234503,"0.0-3.92-1.92","43rnskww51ftp76",238,"200.csv","","null","resources/maskTrios/L2BB.jpg","null","",NA,NA,NA,NA,""
"image-keyboard-response",289,235711,"0.0-3.92-2.92","43rnskww51ftp76",238,"200.csv","","null","resources/images/coin2.png","null","",NA,NA,NA,NA,""
"image-keyboard-response",290,235822,"0.0-3.93-0.93","43rnskww51ftp76",238,"200.csv","","109.40000009536743","resources/trios/L2T4A1.jpg","37","restless",0.6,0.5,0.3,0.715097831436008,"false"
"image-keyboard-response",291,236228,"0.0-3.93-1.93","43rnskww51ftp76",238,"200.csv","","null","resources/maskTrios/L2BB.jpg","null","",NA,NA,NA,NA,""
"image-keyboard-response",292,237442,"0.0-3.93-2.93","43rnskww51ftp76",238,"200.csv","","null","resources/images/fishbone.png","null","",NA,NA,NA,NA,""
"image-keyboard-response",293,237543,"0.0-3.94-0.94","43rnskww51ftp76",238,"200.csv","","99.29999995231628","resources/trios/L2T4A3.jpg","38","restless",0.6,0.5,0.3,0.10018056215448,"true"
"image-keyboard-response",294,237959,"0.0-3.94-1.94","43rnskww51ftp76",238,"200.csv","","null","resources/maskTrios/BT4B.jpg","null","",NA,NA,NA,NA,""
"image-keyboard-response",295,239177,"0.0-3.94-2.94","43rnskww51ftp76",238,"200.csv","","null","resources/images/coin2.png","null","",NA,NA,NA,NA,""
"image-keyboard-response",296,239249,"0.0-3.95-0.95","43rnskww51ftp76",238,"200.csv","","70.5","resources/trios/L4T2A3.jpg","37","restless",0.6,0.5,0.3,0.0823856666414571,"true"
"image-keyboard-response",297,239661,"0.0-3.95-1.95","43rnskww51ftp76",238,"200.csv","","null","resources/maskTrios/L4BB.jpg","null","",NA,NA,NA,NA,""
"image-keyboard-response",298,240872,"0.0-3.95-2.95","43rnskww51ftp76",238,"200.csv","","null","resources/images/coin2.png","null","",NA,NA,NA,NA,""
"image-keyboard-response",299,240876,"0.0-3.96-0.96","43rnskww51ftp76",238,"200.csv","","0.7999999523162842","resources/trios/L4T2A3.jpg","37","restless",0.6,0.4,0.3,0.677997546431667,"false"
"image-keyboard-response",300,241286,"0.0-3.96-1.96","43rnskww51ftp76",238,"200.csv","","null","resources/maskTrios/L4BB.jpg","null","",NA,NA,NA,NA,""
"image-keyboard-response",301,242507,"0.0-3.96-2.96","43rnskww51ftp76",238,"200.csv","","null","resources/images/fishbone.png","null","",NA,NA,NA,NA,""
"image-keyboard-response",302,242564,"0.0-3.97-0.97","43rnskww51ftp76",238,"200.csv","","55.60000014305115","resources/trios/L4T2A3.jpg","38","restless",0.6,0.4,0.3,0.685769681748518,"false"
"image-keyboard-response",303,242967,"0.0-3.97-1.97","43rnskww51ftp76",238,"200.csv","","null","resources/maskTrios/BT2B.jpg","null","",NA,NA,NA,NA,""
"image-keyboard-response",304,244175,"0.0-3.97-2.97","43rnskww51ftp76",238,"200.csv","","null","resources/images/fishbone.png","null","",NA,NA,NA,NA,""
"image-keyboard-response",305,244235,"0.0-3.98-0.98","43rnskww51ftp76",238,"200.csv","","58.5","resources/trios/L4T4A3.jpg","38","restless",0.6,0.4,0.2,0.130248278794586,"true"
"image-keyboard-response",306,244643,"0.0-3.98-1.98","43rnskww51ftp76",238,"200.csv","","null","resources/maskTrios/BT4B.jpg","null","",NA,NA,NA,NA,""
"image-keyboard-response",307,245847,"0.0-3.98-2.98","43rnskww51ftp76",238,"200.csv","","null","resources/images/coin2.png","null","",NA,NA,NA,NA,""
"image-keyboard-response",308,245994,"0.0-3.99-0.99","43rnskww51ftp76",238,"200.csv","","145.79999995231628","resources/trios/L2T2A1.jpg","38","restless",0.6,0.4,0.1,0.951711703875431,"false"
"image-keyboard-response",309,246399,"0.0-3.99-1.99","43rnskww51ftp76",238,"200.csv","","null","resources/maskTrios/BT2B.jpg","null","",NA,NA,NA,NA,""
"image-keyboard-response",310,247618,"0.0-3.99-2.99","43rnskww51ftp76",238,"200.csv","","null","resources/images/fishbone.png","null","",NA,NA,NA,NA,""
"image-keyboard-response",311,247660,"0.0-3.100-0.100","43rnskww51ftp76",238,"200.csv","","40.40000009536743","resources/trios/L4T4A1.jpg","38","restless",0.6,0.4,0.1,0.439129113024376,"false"
"image-keyboard-response",312,248069,"0.0-3.100-1.100","43rnskww51ftp76",238,"200.csv","","null","resources/maskTrios/BT4B.jpg","null","",NA,NA,NA,NA,""
"image-keyboard-response",313,249286,"0.0-3.100-2.100","43rnskww51ftp76",238,"200.csv","","null","resources/images/fishbone.png","null","",NA,NA,NA,NA,""
"image-keyboard-response",314,249304,"0.0-3.101-0.101","43rnskww51ftp76",238,"200.csv","","17","resources/trios/L4T2A1.jpg","38","restless",0.6,0.4,0.1,0.47725120080989,"false"
"image-keyboard-response",315,249707,"0.0-3.101-1.101","43rnskww51ftp76",238,"200.csv","","null","resources/maskTrios/BT2B.jpg","null","",NA,NA,NA,NA,""
"image-keyboard-response",316,250924,"0.0-3.101-2.101","43rnskww51ftp76",238,"200.csv","","null","resources/images/fishbone.png","null","",NA,NA,NA,NA,""
"image-keyboard-response",317,250981,"0.0-3.102-0.102","43rnskww51ftp76",238,"200.csv","","55.90000009536743","resources/trios/L2T2A1.jpg","38","restless",0.6,0.4,0.2,0.718535120681649,"false"
"image-keyboard-response",318,251399,"0.0-3.102-1.102","43rnskww51ftp76",238,"200.csv","","null","resources/maskTrios/BT2B.jpg","null","",NA,NA,NA,NA,""
"image-keyboard-response",319,252617,"0.0-3.102-2.102","43rnskww51ftp76",238,"200.csv","","null","resources/images/fishbone.png","null","",NA,NA,NA,NA,""
"image-keyboard-response",320,252724,"0.0-3.103-0.103","43rnskww51ftp76",238,"200.csv","","106.5","resources/trios/L2T4A3.jpg","38","restless",0.6,0.5,0.2,0.0648072326757896,"true"
"image-keyboard-response",321,253147,"0.0-3.103-1.103","43rnskww51ftp76",238,"200.csv","","null","resources/maskTrios/BT4B.jpg","null","",NA,NA,NA,NA,""
"image-keyboard-response",322,254366,"0.0-3.103-2.103","43rnskww51ftp76",238,"200.csv","","null","resources/images/coin2.png","null","",NA,NA,NA,NA,""
"image-keyboard-response",323,254483,"0.0-3.104-0.104","43rnskww51ftp76",238,"200.csv","","114.79999995231628","resources/trios/L4T2A1.jpg","38","restless",0.6,0.5,0.2,0.732232156434951,"false"
"image-keyboard-response",324,254896,"0.0-3.104-1.104","43rnskww51ftp76",238,"200.csv","","null","resources/maskTrios/BT2B.jpg","null","",NA,NA,NA,NA,""
"image-keyboard-response",325,256112,"0.0-3.104-2.104","43rnskww51ftp76",238,"200.csv","","null","resources/images/fishbone.png","null","",NA,NA,NA,NA,""
"image-keyboard-response",326,256193,"0.0-3.105-0.105","43rnskww51ftp76",238,"200.csv","","78.5","resources/trios/L2T2A1.jpg","38","restless",0.6,0.5,0.2,0.783764572997289,"false"
"image-keyboard-response",327,256612,"0.0-3.105-1.105","43rnskww51ftp76",238,"200.csv","","null","resources/maskTrios/BT2B.jpg","null","",NA,NA,NA,NA,""
"image-keyboard-response",328,257822,"0.0-3.105-2.105","43rnskww51ftp76",238,"200.csv","","null","resources/images/fishbone.png","null","",NA,NA,NA,NA,""
"image-keyboard-response",329,257837,"0.0-3.106-0.106","43rnskww51ftp76",238,"200.csv","","13.200000047683716","resources/trios/L4T2A1.jpg","37","restless",0.6,0.5,0.2,0.718287270510128,"false"
"image-keyboard-response",330,258256,"0.0-3.106-1.106","43rnskww51ftp76",238,"200.csv","","null","resources/maskTrios/L4BB.jpg","null","",NA,NA,NA,NA,""
"image-keyboard-response",331,259474,"0.0-3.106-2.106","43rnskww51ftp76",238,"200.csv","","null","resources/images/fishbone.png","null","",NA,NA,NA,NA,""
"image-keyboard-response",332,259521,"0.0-3.107-0.107","43rnskww51ftp76",238,"200.csv","","45.09999990463257","resources/trios/L4T2A3.jpg","37","restless",0.6,0.6,0.2,0.00253458520615291,"true"
"image-keyboard-response",333,259938,"0.0-3.107-1.107","43rnskww51ftp76",238,"200.csv","","null","resources/maskTrios/L4BB.jpg","null","",NA,NA,NA,NA,""
"image-keyboard-response",334,261142,"0.0-3.107-2.107","43rnskww51ftp76",238,"200.csv","","null","resources/images/coin2.png","null","",NA,NA,NA,NA,""
"image-keyboard-response",335,261248,"0.0-3.108-0.108","43rnskww51ftp76",238,"200.csv","","105","resources/trios/L2T4A1.jpg","37","restless",0.6,0.6,0.2,0.535777027523637,"true"
"image-keyboard-response",336,261666,"0.0-3.108-1.108","43rnskww51ftp76",238,"200.csv","","null","resources/maskTrios/L2BB.jpg","null","",NA,NA,NA,NA,""
"image-keyboard-response",337,262882,"0.0-3.108-2.108","43rnskww51ftp76",238,"200.csv","","null","resources/images/coin2.png","null","",NA,NA,NA,NA,""
"image-keyboard-response",338,262988,"0.0-3.109-0.109","43rnskww51ftp76",238,"200.csv","","104.90000009536743","resources/trios/L2T2A3.jpg","38","restless",0.6,0.6,0.2,0.910032983743344,"false"
"image-keyboard-response",339,263399,"0.0-3.109-1.109","43rnskww51ftp76",238,"200.csv","","null","resources/maskTrios/BT2B.jpg","null","",NA,NA,NA,NA,""
"image-keyboard-response",340,264616,"0.0-3.109-2.109","43rnskww51ftp76",238,"200.csv","","null","resources/images/fishbone.png","null","",NA,NA,NA,NA,""
"image-keyboard-response",341,264649,"0.0-3.110-0.110","43rnskww51ftp76",238,"200.csv","","31.5","resources/trios/L2T2A1.jpg","37","restless",0.5,0.6,0.2,0.789669106254869,"false"
"image-keyboard-response",342,265052,"0.0-3.110-1.110","43rnskww51ftp76",238,"200.csv","","null","resources/maskTrios/L2BB.jpg","null","",NA,NA,NA,NA,""
"image-keyboard-response",343,266268,"0.0-3.110-2.110","43rnskww51ftp76",238,"200.csv","","null","resources/images/fishbone.png","null","",NA,NA,NA,NA,""
"image-keyboard-response",344,266337,"0.0-3.111-0.111","43rnskww51ftp76",238,"200.csv","","68.20000004768372","resources/trios/L4T4A3.jpg","37","restless",0.5,0.6,0.2,0.722071915010178,"false"
"image-keyboard-response",345,266749,"0.0-3.111-1.111","43rnskww51ftp76",238,"200.csv","","null","resources/maskTrios/L4BB.jpg","null","",NA,NA,NA,NA,""
"image-keyboard-response",346,267960,"0.0-3.111-2.111","43rnskww51ftp76",238,"200.csv","","null","resources/images/fishbone.png","null","",NA,NA,NA,NA,""
"image-keyboard-response",347,267971,"0.0-3.112-0.112","43rnskww51ftp76",238,"200.csv","","9.399999856948853","resources/trios/L4T4A3.jpg","38","restless",0.5,0.6,0.3,0.614347987692622,"false"
"image-keyboard-response",348,268376,"0.0-3.112-1.112","43rnskww51ftp76",238,"200.csv","","null","resources/maskTrios/BT4B.jpg","null","",NA,NA,NA,NA,""
"image-keyboard-response",349,269584,"0.0-3.112-2.112","43rnskww51ftp76",238,"200.csv","","null","resources/images/fishbone.png","null","",NA,NA,NA,NA,""
"image-keyboard-response",350,269730,"0.0-3.113-0.113","43rnskww51ftp76",238,"200.csv","","144.69999980926514","resources/trios/L2T2A1.jpg","38","restless",0.5,0.6,0.3,0.957663390208214,"false"
"image-keyboard-response",351,270144,"0.0-3.113-1.113","43rnskww51ftp76",238,"200.csv","","null","resources/maskTrios/BT2B.jpg","null","",NA,NA,NA,NA,""
"image-keyboard-response",352,271355,"0.0-3.113-2.113","43rnskww51ftp76",238,"200.csv","","null","resources/images/fishbone.png","null","",NA,NA,NA,NA,""
"image-keyboard-response",353,271510,"0.0-3.114-0.114","43rnskww51ftp76",238,"200.csv","","149.70000004768372","resources/trios/L2T2A3.jpg","38","restless",0.5,0.6,0.3,0.656791314193086,"false"
"image-keyboard-response",354,271928,"0.0-3.114-1.114","43rnskww51ftp76",238,"200.csv","","null","resources/maskTrios/BT2B.jpg","null","",NA,NA,NA,NA,""
"image-keyboard-response",355,273143,"0.0-3.114-2.114","43rnskww51ftp76",238,"200.csv","","null","resources/images/fishbone.png","null","",NA,NA,NA,NA,""
"image-keyboard-response",356,273161,"0.0-3.115-0.115","43rnskww51ftp76",238,"200.csv","","16.700000047683716","resources/trios/L2T4A3.jpg","37","restless",0.5,0.6,0.3,0.201458017423577,"true"
"image-keyboard-response",357,273585,"0.0-3.115-1.115","43rnskww51ftp76",238,"200.csv","","null","resources/maskTrios/L2BB.jpg","null","",NA,NA,NA,NA,""
"image-keyboard-response",358,274795,"0.0-3.115-2.115","43rnskww51ftp76",238,"200.csv","","null","resources/images/coin2.png","null","",NA,NA,NA,NA,""
"image-keyboard-response",359,274827,"0.0-3.116-0.116","43rnskww51ftp76",238,"200.csv","","30.200000047683716","resources/trios/L2T4A1.jpg","38","restless",0.5,0.6,0.3,0.196465793475989,"true"
"image-keyboard-response",360,275240,"0.0-3.116-1.116","43rnskww51ftp76",238,"200.csv","","null","resources/maskTrios/BT4B.jpg","null","",NA,NA,NA,NA,""
"image-keyboard-response",361,276457,"0.0-3.116-2.116","43rnskww51ftp76",238,"200.csv","","null","resources/images/coin2.png","null","",NA,NA,NA,NA,""
"image-keyboard-response",362,276499,"0.0-3.117-0.117","43rnskww51ftp76",238,"200.csv","","40.90000009536743","resources/trios/L2T4A1.jpg","38","restless",0.5,0.6,0.3,0.26799483284481,"true"
"image-keyboard-response",363,276910,"0.0-3.117-1.117","43rnskww51ftp76",238,"200.csv","","null","resources/maskTrios/BT4B.jpg","null","",NA,NA,NA,NA,""
"image-keyboard-response",364,278134,"0.0-3.117-2.117","43rnskww51ftp76",238,"200.csv","","null","resources/images/coin2.png","null","",NA,NA,NA,NA,""
"image-keyboard-response",365,278150,"0.0-3.118-0.118","43rnskww51ftp76",238,"200.csv","","14.299999952316284","resources/trios/L4T4A1.jpg","38","restless",0.5,0.6,0.3,0.292350221272548,"true"
"image-keyboard-response",366,278561,"0.0-3.118-1.118","43rnskww51ftp76",238,"200.csv","","null","resources/maskTrios/BT4B.jpg","null","",NA,NA,NA,NA,""
"image-keyboard-response",367,279772,"0.0-3.118-2.118","43rnskww51ftp76",238,"200.csv","","null","resources/images/coin2.png","null","",NA,NA,NA,NA,""
"image-keyboard-response",368,279928,"0.0-3.119-0.119","43rnskww51ftp76",238,"200.csv","","154.29999995231628","resources/trios/L2T2A3.jpg","38","restless",0.5,0.6,0.4,0.84319329263764,"false"
"image-keyboard-response",369,280333,"0.0-3.119-1.119","43rnskww51ftp76",238,"200.csv","","null","resources/maskTrios/BT2B.jpg","null","",NA,NA,NA,NA,""
"image-keyboard-response",370,281551,"0.0-3.119-2.119","43rnskww51ftp76",238,"200.csv","","null","resources/images/fishbone.png","null","",NA,NA,NA,NA,""
"image-keyboard-response",371,281585,"0.0-3.120-0.120","43rnskww51ftp76",238,"200.csv","","32.200000047683716","resources/trios/L4T2A3.jpg","37","restless",0.5,0.6,0.4,0.838977108136416,"false"
"image-keyboard-response",372,281989,"0.0-3.120-1.120","43rnskww51ftp76",238,"200.csv","","null","resources/maskTrios/L4BB.jpg","null","",NA,NA,NA,NA,""
"image-keyboard-response",373,283211,"0.0-3.120-2.120","43rnskww51ftp76",238,"200.csv","","null","resources/images/fishbone.png","null","",NA,NA,NA,NA,""
"image-keyboard-response",374,283286,"0.0-3.121-0.121","43rnskww51ftp76",238,"200.csv","","72.39999985694885","resources/trios/L4T2A1.jpg","38","restless",0.5,0.6,0.4,0.413920237467017,"true"
"image-keyboard-response",375,283695,"0.0-3.121-1.121","43rnskww51ftp76",238,"200.csv","","null","resources/maskTrios/BT2B.jpg","null","",NA,NA,NA,NA,""
"image-keyboard-response",376,284914,"0.0-3.121-2.121","43rnskww51ftp76",238,"200.csv","","null","resources/images/coin2.png","null","",NA,NA,NA,NA,""
"image-keyboard-response",377,284916,"0.0-3.122-0.122","43rnskww51ftp76",238,"200.csv","","0.10000014305114746","resources/trios/L2T2A3.jpg","37","restless",0.5,0.6,0.4,0.649691740517751,"false"
"image-keyboard-response",378,285320,"0.0-3.122-1.122","43rnskww51ftp76",238,"200.csv","","null","resources/maskTrios/L2BB.jpg","null","",NA,NA,NA,NA,""
"image-keyboard-response",379,286535,"0.0-3.122-2.122","43rnskww51ftp76",238,"200.csv","","null","resources/images/fishbone.png","null","",NA,NA,NA,NA,""
"image-keyboard-response",380,286657,"0.0-3.123-0.123","43rnskww51ftp76",238,"200.csv","","119.59999990463257","resources/trios/L4T4A1.jpg","38","restless",0.5,0.6,0.4,0.0641634235635768,"true"
"image-keyboard-response",381,287066,"0.0-3.123-1.123","43rnskww51ftp76",238,"200.csv","","null","resources/maskTrios/BT4B.jpg","null","",NA,NA,NA,NA,""
"image-keyboard-response",382,288274,"0.0-3.123-2.123","43rnskww51ftp76",238,"200.csv","","null","resources/images/coin2.png","null","",NA,NA,NA,NA,""
"image-keyboard-response",383,288446,"0.0-3.124-0.124","43rnskww51ftp76",238,"200.csv","","170.69999980926514","resources/trios/L4T2A3.jpg","38","restless",0.5,0.6,0.4,0.224039570062851,"true"
"image-keyboard-response",384,288862,"0.0-3.124-1.124","43rnskww51ftp76",238,"200.csv","","null","resources/maskTrios/BT2B.jpg","null","",NA,NA,NA,NA,""
"image-keyboard-response",385,290079,"0.0-3.124-2.124","43rnskww51ftp76",238,"200.csv","","null","resources/images/coin2.png","null","",NA,NA,NA,NA,""
"image-keyboard-response",386,290144,"0.0-3.125-0.125","43rnskww51ftp76",238,"200.csv","","62.60000014305115","resources/trios/L2T4A1.jpg","38","restless",0.5,0.6,0.4,0.988336113474092,"false"
"image-keyboard-response",387,290551,"0.0-3.125-1.125","43rnskww51ftp76",238,"200.csv","","null","resources/maskTrios/BT4B.jpg","null","",NA,NA,NA,NA,""
"image-keyboard-response",388,291771,"0.0-3.125-2.125","43rnskww51ftp76",238,"200.csv","","null","resources/images/fishbone.png","null","",NA,NA,NA,NA,""
"image-keyboard-response",389,291831,"0.0-3.126-0.126","43rnskww51ftp76",238,"200.csv","","58.5","resources/trios/L2T4A1.jpg","38","restless",0.5,0.6,0.3,0.776674724248624,"false"
"image-keyboard-response",390,292241,"0.0-3.126-1.126","43rnskww51ftp76",238,"200.csv","","null","resources/maskTrios/BT4B.jpg","null","",NA,NA,NA,NA,""
"image-keyboard-response",391,293457,"0.0-3.126-2.126","43rnskww51ftp76",238,"200.csv","","null","resources/images/fishbone.png","null","",NA,NA,NA,NA,""
"image-keyboard-response",392,293630,"0.0-3.127-0.127","43rnskww51ftp76",238,"200.csv","","171.89999985694885","resources/trios/L4T4A3.jpg","38","restless",0.5,0.6,0.3,0.94923787238621,"false"
"image-keyboard-response",393,294045,"0.0-3.127-1.127","43rnskww51ftp76",238,"200.csv","","null","resources/maskTrios/BT4B.jpg","null","",NA,NA,NA,NA,""
"image-keyboard-response",394,295252,"0.0-3.127-2.127","43rnskww51ftp76",238,"200.csv","","null","resources/images/fishbone.png","null","",NA,NA,NA,NA,""
"image-keyboard-response",395,295397,"0.0-3.128-0.128","43rnskww51ftp76",238,"200.csv","","143.29999995231628","resources/trios/L2T4A3.jpg","38","restless",0.5,0.6,0.3,0.323427008016069,"true"
"image-keyboard-response",396,295809,"0.0-3.128-1.128","43rnskww51ftp76",238,"200.csv","","null","resources/maskTrios/BT4B.jpg","null","",NA,NA,NA,NA,""
"image-keyboard-response",397,297016,"0.0-3.128-2.128","43rnskww51ftp76",238,"200.csv","","null","resources/images/coin2.png","null","",NA,NA,NA,NA,""
"image-keyboard-response",398,297208,"0.0-3.129-0.129","43rnskww51ftp76",238,"200.csv","","190.29999995231628","resources/trios/L4T4A3.jpg","38","restless",0.5,0.6,0.3,0.733190975677832,"false"
"image-keyboard-response",399,297621,"0.0-3.129-1.129","43rnskww51ftp76",238,"200.csv","","null","resources/maskTrios/BT4B.jpg","null","",NA,NA,NA,NA,""
"image-keyboard-response",400,298835,"0.0-3.129-2.129","43rnskww51ftp76",238,"200.csv","","null","resources/images/fishbone.png","null","",NA,NA,NA,NA,""
"image-keyboard-response",401,299170,"0.0-3.130-0.130","43rnskww51ftp76",238,"200.csv","","333.2999999523163","resources/trios/L4T2A1.jpg","38","restless",0.6,0.5,0.3,0.9527870884001,"false"
"image-keyboard-response",402,299587,"0.0-3.130-1.130","43rnskww51ftp76",238,"200.csv","","null","resources/maskTrios/BT2B.jpg","null","",NA,NA,NA,NA,""
"image-keyboard-response",403,300809,"0.0-3.130-2.130","43rnskww51ftp76",238,"200.csv","","null","resources/images/fishbone.png","null","",NA,NA,NA,NA,""
"image-keyboard-response",404,300939,"0.0-3.131-0.131","43rnskww51ftp76",238,"200.csv","","127.29999995231628","resources/trios/L4T2A3.jpg","38","restless",0.6,0.5,0.4,0.414509363109423,"true"
"image-keyboard-response",405,301349,"0.0-3.131-1.131","43rnskww51ftp76",238,"200.csv","","null","resources/maskTrios/BT2B.jpg","null","",NA,NA,NA,NA,""
"image-keyboard-response",406,302555,"0.0-3.131-2.131","43rnskww51ftp76",238,"200.csv","","null","resources/images/coin2.png","null","",NA,NA,NA,NA,""
"image-keyboard-response",407,302763,"0.0-3.132-0.132","43rnskww51ftp76",238,"200.csv","","205.90000009536743","resources/trios/L2T2A1.jpg","38","restless",0.6,0.6,0.4,0.969479468188073,"false"
"image-keyboard-response",408,303170,"0.0-3.132-1.132","43rnskww51ftp76",238,"200.csv","","null","resources/maskTrios/BT2B.jpg","null","",NA,NA,NA,NA,""
"image-keyboard-response",409,304383,"0.0-3.132-2.132","43rnskww51ftp76",238,"200.csv","","null","resources/images/fishbone.png","null","",NA,NA,NA,NA,""
"image-keyboard-response",410,304555,"0.0-3.133-0.133","43rnskww51ftp76",238,"200.csv","","169.70000004768372","resources/trios/L2T2A1.jpg","38","restless",0.6,0.6,0.4,0.196030900667627,"true"
"image-keyboard-response",411,304966,"0.0-3.133-1.133","43rnskww51ftp76",238,"200.csv","","null","resources/maskTrios/BT2B.jpg","null","",NA,NA,NA,NA,""
"image-keyboard-response",412,306181,"0.0-3.133-2.133","43rnskww51ftp76",238,"200.csv","","null","resources/images/coin2.png","null","",NA,NA,NA,NA,""
"image-keyboard-response",413,306357,"0.0-3.134-0.134","43rnskww51ftp76",238,"200.csv","","175","resources/trios/L4T4A1.jpg","38","restless",0.6,0.6,0.4,0.476809284930121,"true"
"image-keyboard-response",414,306776,"0.0-3.134-1.134","43rnskww51ftp76",238,"200.csv","","null","resources/maskTrios/BT4B.jpg","null","",NA,NA,NA,NA,""
"image-keyboard-response",415,307993,"0.0-3.134-2.134","43rnskww51ftp76",238,"200.csv","","null","resources/images/coin2.png","null","",NA,NA,NA,NA,""
"image-keyboard-response",416,308066,"0.0-3.135-0.135","43rnskww51ftp76",238,"200.csv","","71.79999995231628","resources/trios/L4T4A3.jpg","38","restless",0.6,0.6,0.5,0.489587946900526,"true"
"image-keyboard-response",417,308476,"0.0-3.135-1.135","43rnskww51ftp76",238,"200.csv","","null","resources/maskTrios/BT4B.jpg","null","",NA,NA,NA,NA,""
"image-keyboard-response",418,309693,"0.0-3.135-2.135","43rnskww51ftp76",238,"200.csv","","null","resources/images/coin2.png","null","",NA,NA,NA,NA,""
"image-keyboard-response",419,309775,"0.0-3.136-0.136","43rnskww51ftp76",238,"200.csv","","80.79999995231628","resources/trios/L2T4A1.jpg","38","restless",0.6,0.6,0.5,0.285623521552361,"true"
"image-keyboard-response",420,310187,"0.0-3.136-1.136","43rnskww51ftp76",238,"200.csv","","null","resources/maskTrios/BT4B.jpg","null","",NA,NA,NA,NA,""
"image-keyboard-response",421,311412,"0.0-3.136-2.136","43rnskww51ftp76",238,"200.csv","","null","resources/images/coin2.png","null","",NA,NA,NA,NA,""
"image-keyboard-response",422,311520,"0.0-3.137-0.137","43rnskww51ftp76",238,"200.csv","","106.20000004768372","resources/trios/L2T2A3.jpg","38","restless",0.6,0.6,0.5,0.194757213062402,"true"
"image-keyboard-response",423,311927,"0.0-3.137-1.137","43rnskww51ftp76",238,"200.csv","","null","resources/maskTrios/BT2B.jpg","null","",NA,NA,NA,NA,""
"image-keyboard-response",424,313130,"0.0-3.137-2.137","43rnskww51ftp76",238,"200.csv","","null","resources/images/coin2.png","null","",NA,NA,NA,NA,""
"image-keyboard-response",425,313252,"0.0-3.138-0.138","43rnskww51ftp76",238,"200.csv","","119.60000014305115","resources/trios/L2T2A3.jpg","38","restless",0.6,0.6,0.5,0.462598892604232,"true"
"image-keyboard-response",426,313667,"0.0-3.138-1.138","43rnskww51ftp76",238,"200.csv","","null","resources/maskTrios/BT2B.jpg","null","",NA,NA,NA,NA,""
"image-keyboard-response",427,314882,"0.0-3.138-2.138","43rnskww51ftp76",238,"200.csv","","null","resources/images/coin2.png","null","",NA,NA,NA,NA,""
"image-keyboard-response",428,315051,"0.0-3.139-0.139","43rnskww51ftp76",238,"200.csv","","166.59999990463257","resources/trios/L2T4A3.jpg","38","restless",0.6,0.6,0.5,0.630247124522856,"false"
"image-keyboard-response",429,315457,"0.0-3.139-1.139","43rnskww51ftp76",238,"200.csv","","null","resources/maskTrios/BT4B.jpg","null","",NA,NA,NA,NA,""
"image-keyboard-response",430,316671,"0.0-3.139-2.139","43rnskww51ftp76",238,"200.csv","","null","resources/images/fishbone.png","null","",NA,NA,NA,NA,""
"image-keyboard-response",431,316709,"0.0-3.140-0.140","43rnskww51ftp76",238,"200.csv","","36.10000014305115","resources/trios/L4T4A1.jpg","38","restless",0.5,0.6,0.5,0.601767811531829,"false"
"image-keyboard-response",432,317116,"0.0-3.140-1.140","43rnskww51ftp76",238,"200.csv","","null","resources/maskTrios/BT4B.jpg","null","",NA,NA,NA,NA,""
"image-keyboard-response",433,318322,"0.0-3.140-2.140","43rnskww51ftp76",238,"200.csv","","null","resources/images/fishbone.png","null","",NA,NA,NA,NA,""
"image-keyboard-response",434,318344,"0.0-3.141-0.141","43rnskww51ftp76",238,"200.csv","","20.799999952316284","resources/trios/L2T2A1.jpg","38","restless",0.5,0.6,0.5,0.412794153902126,"true"
"image-keyboard-response",435,318754,"0.0-3.141-1.141","43rnskww51ftp76",238,"200.csv","","null","resources/maskTrios/BT2B.jpg","null","",NA,NA,NA,NA,""
"image-keyboard-response",436,319969,"0.0-3.141-2.141","43rnskww51ftp76",238,"200.csv","","null","resources/images/coin2.png","null","",NA,NA,NA,NA,""
"image-keyboard-response",437,319989,"0.0-3.142-0.142","43rnskww51ftp76",238,"200.csv","","18.399999856948853","resources/trios/L2T4A1.jpg","38","restless",0.5,0.6,0.5,0.3094217508865,"true"
"image-keyboard-response",438,320399,"0.0-3.142-1.142","43rnskww51ftp76",238,"200.csv","","null","resources/maskTrios/BT4B.jpg","null","",NA,NA,NA,NA,""
"image-keyboard-response",439,321606,"0.0-3.142-2.142","43rnskww51ftp76",238,"200.csv","","null","resources/images/coin2.png","null","",NA,NA,NA,NA,""
"image-keyboard-response",440,321720,"0.0-3.143-0.143","43rnskww51ftp76",238,"200.csv","","111.79999995231628","resources/trios/L2T2A3.jpg","38","restless",0.5,0.5,0.6,0.493914091563441,"true"
"image-keyboard-response",441,322131,"0.0-3.143-1.143","43rnskww51ftp76",238,"200.csv","","null","resources/maskTrios/BT2B.jpg","null","",NA,NA,NA,NA,""
"image-keyboard-response",442,323339,"0.0-3.143-2.143","43rnskww51ftp76",238,"200.csv","","null","resources/images/coin2.png","null","",NA,NA,NA,NA,""
"image-keyboard-response",443,323390,"0.0-3.144-0.144","43rnskww51ftp76",238,"200.csv","","49.299999952316284","resources/trios/L4T4A1.jpg","38","restless",0.5,0.5,0.6,0.0781648173056326,"true"
"image-keyboard-response",444,323800,"0.0-3.144-1.144","43rnskww51ftp76",238,"200.csv","","null","resources/maskTrios/BT4B.jpg","null","",NA,NA,NA,NA,""
"image-keyboard-response",445,325007,"0.0-3.144-2.144","43rnskww51ftp76",238,"200.csv","","null","resources/images/coin2.png","null","",NA,NA,NA,NA,""
"image-keyboard-response",446,325033,"0.0-3.145-0.145","43rnskww51ftp76",238,"200.csv","","24","resources/trios/L2T2A3.jpg","38","restless",0.5,0.5,0.6,0.681352881219552,"false"
"image-keyboard-response",447,325445,"0.0-3.145-1.145","43rnskww51ftp76",238,"200.csv","","null","resources/maskTrios/BT2B.jpg","null","",NA,NA,NA,NA,""
"image-keyboard-response",448,326661,"0.0-3.145-2.145","43rnskww51ftp76",238,"200.csv","","null","resources/images/fishbone.png","null","",NA,NA,NA,NA,""
"image-keyboard-response",449,326859,"0.0-3.146-0.146","43rnskww51ftp76",238,"200.csv","","196.5","resources/trios/L2T2A1.jpg","38","restless",0.5,0.5,0.6,0.559632005502989,"false"
"image-keyboard-response",450,327272,"0.0-3.146-1.146","43rnskww51ftp76",238,"200.csv","","null","resources/maskTrios/BT2B.jpg","null","",NA,NA,NA,NA,""
"image-keyboard-response",451,328488,"0.0-3.146-2.146","43rnskww51ftp76",238,"200.csv","","null","resources/images/fishbone.png","null","",NA,NA,NA,NA,""
"image-keyboard-response",452,328524,"0.0-3.147-0.147","43rnskww51ftp76",238,"200.csv","","34.39999985694885","resources/trios/L4T2A1.jpg","38","restless",0.5,0.5,0.6,0.893351234433156,"false"
"image-keyboard-response",453,328949,"0.0-3.147-1.147","43rnskww51ftp76",238,"200.csv","","null","resources/maskTrios/BT2B.jpg","null","",NA,NA,NA,NA,""
"image-keyboard-response",454,330159,"0.0-3.147-2.147","43rnskww51ftp76",238,"200.csv","","null","resources/images/fishbone.png","null","",NA,NA,NA,NA,""
"image-keyboard-response",455,330246,"0.0-3.148-0.148","43rnskww51ftp76",238,"200.csv","","84.5","resources/trios/L4T4A3.jpg","37","restless",0.5,0.5,0.6,0.885407924338236,"false"
"image-keyboard-response",456,330659,"0.0-3.148-1.148","43rnskww51ftp76",238,"200.csv","","null","resources/maskTrios/L4BB.jpg","null","",NA,NA,NA,NA,""
"image-keyboard-response",457,331869,"0.0-3.148-2.148","43rnskww51ftp76",238,"200.csv","","null","resources/images/fishbone.png","null","",NA,NA,NA,NA,""
"image-keyboard-response",458,331886,"0.0-3.149-0.149","43rnskww51ftp76",238,"200.csv","","14.900000095367432","resources/trios/L4T4A1.jpg","37","restless",0.5,0.5,0.6,0.259676429507166,"true"
"image-keyboard-response",459,332305,"0.0-3.149-1.149","43rnskww51ftp76",238,"200.csv","","null","resources/maskTrios/L4BB.jpg","null","",NA,NA,NA,NA,""
"image-keyboard-response",460,333520,"0.0-3.149-2.149","43rnskww51ftp76",238,"200.csv","","null","resources/images/coin2.png","null","",NA,NA,NA,NA,""
"image-keyboard-response",461,333550,"0.0-3.150-0.150","43rnskww51ftp76",238,"200.csv","","28","resources/trios/L4T2A1.jpg","38","restless",0.5,0.5,0.7,0.675194721253703,"false"
"image-keyboard-response",462,333957,"0.0-3.150-1.150","43rnskww51ftp76",238,"200.csv","","null","resources/maskTrios/BT2B.jpg","null","",NA,NA,NA,NA,""
"image-keyboard-response",463,335180,"0.0-3.150-2.150","43rnskww51ftp76",238,"200.csv","","null","resources/images/fishbone.png","null","",NA,NA,NA,NA,""
"image-keyboard-response",464,335207,"0.0-3.151-0.151","43rnskww51ftp76",238,"200.csv","","25.800000190734863","resources/trios/L2T4A3.jpg","38","restless",0.5,0.5,0.7,0.869894593556059,"false"
"image-keyboard-response",465,335617,"0.0-3.151-1.151","43rnskww51ftp76",238,"200.csv","","null","resources/maskTrios/BT4B.jpg","null","",NA,NA,NA,NA,""
"image-keyboard-response",466,336822,"0.0-3.151-2.151","43rnskww51ftp76",238,"200.csv","","null","resources/images/fishbone.png","null","",NA,NA,NA,NA,""
"image-keyboard-response",467,336959,"0.0-3.152-0.152","43rnskww51ftp76",238,"200.csv","","136","resources/trios/L2T4A1.jpg","38","restless",0.5,0.4,0.7,0.954779833652588,"false"
"image-keyboard-response",468,337380,"0.0-3.152-1.152","43rnskww51ftp76",238,"200.csv","","null","resources/maskTrios/BT4B.jpg","null","",NA,NA,NA,NA,""
"image-keyboard-response",469,338582,"0.0-3.152-2.152","43rnskww51ftp76",238,"200.csv","","null","resources/images/fishbone.png","null","",NA,NA,NA,NA,""
"image-keyboard-response",470,338701,"0.0-3.153-0.153","43rnskww51ftp76",238,"200.csv","","117","resources/trios/L4T4A1.jpg","37","restless",0.4,0.3,0.7,0.52562236858545,"false"
"image-keyboard-response",471,339115,"0.0-3.153-1.153","43rnskww51ftp76",238,"200.csv","","null","resources/maskTrios/L4BB.jpg","null","",NA,NA,NA,NA,""
"image-keyboard-response",472,340331,"0.0-3.153-2.153","43rnskww51ftp76",238,"200.csv","","null","resources/images/fishbone.png","null","",NA,NA,NA,NA,""
"image-keyboard-response",473,340360,"0.0-3.154-0.154","43rnskww51ftp76",238,"200.csv","","27.600000143051147","resources/trios/L4T4A1.jpg","37","restless",0.4,0.3,0.7,0.806369088519771,"false"
"image-keyboard-response",474,340768,"0.0-3.154-1.154","43rnskww51ftp76",238,"200.csv","","null","resources/maskTrios/L4BB.jpg","null","",NA,NA,NA,NA,""
"image-keyboard-response",475,341979,"0.0-3.154-2.154","43rnskww51ftp76",238,"200.csv","","null","resources/images/fishbone.png","null","",NA,NA,NA,NA,""
"image-keyboard-response",476,341985,"0.0-3.155-0.155","43rnskww51ftp76",238,"200.csv","","4.400000095367432","resources/trios/L4T2A3.jpg","37","restless",0.4,0.3,0.7,0.714892444117301,"false"
"image-keyboard-response",477,342397,"0.0-3.155-1.155","43rnskww51ftp76",238,"200.csv","","null","resources/maskTrios/L4BB.jpg","null","",NA,NA,NA,NA,""
"image-keyboard-response",478,343613,"0.0-3.155-2.155","43rnskww51ftp76",238,"200.csv","","null","resources/images/fishbone.png","null","",NA,NA,NA,NA,""
"image-keyboard-response",479,343668,"0.0-3.156-0.156","43rnskww51ftp76",238,"200.csv","","53.5","resources/trios/L2T4A1.jpg","38","restless",0.4,0.3,0.7,0.543232773179688,"false"
"image-keyboard-response",480,344074,"0.0-3.156-1.156","43rnskww51ftp76",238,"200.csv","","null","resources/maskTrios/BT4B.jpg","null","",NA,NA,NA,NA,""
"image-keyboard-response",481,345290,"0.0-3.156-2.156","43rnskww51ftp76",238,"200.csv","","null","resources/images/fishbone.png","null","",NA,NA,NA,NA,""
"image-keyboard-response",482,345373,"0.0-3.157-0.157","43rnskww51ftp76",238,"200.csv","","81.70000004768372","resources/trios/L4T4A3.jpg","38","restless",0.4,0.3,0.7,0.482895813502457,"false"
"image-keyboard-response",483,345778,"0.0-3.157-1.157","43rnskww51ftp76",238,"200.csv","","null","resources/maskTrios/BT4B.jpg","null","",NA,NA,NA,NA,""
"image-keyboard-response",484,346981,"0.0-3.157-2.157","43rnskww51ftp76",238,"200.csv","","null","resources/images/fishbone.png","null","",NA,NA,NA,NA,""
"image-keyboard-response",485,347120,"0.0-3.158-0.158","43rnskww51ftp76",238,"200.csv","","137.90000009536743","resources/trios/L2T2A3.jpg","38","restless",0.5,0.3,0.7,0.939781674164895,"false"
"image-keyboard-response",486,347540,"0.0-3.158-1.158","43rnskww51ftp76",238,"200.csv","","null","resources/maskTrios/BT2B.jpg","null","",NA,NA,NA,NA,""
"image-keyboard-response",487,348758,"0.0-3.158-2.158","43rnskww51ftp76",238,"200.csv","","null","resources/images/fishbone.png","null","",NA,NA,NA,NA,""
"image-keyboard-response",488,348816,"0.0-3.159-0.159","43rnskww51ftp76",238,"200.csv","","56.5","resources/trios/L4T4A3.jpg","37","restless",0.5,0.3,0.7,0.498838403549196,"true"
"image-keyboard-response",489,349225,"0.0-3.159-1.159","43rnskww51ftp76",238,"200.csv","","null","resources/maskTrios/L4BB.jpg","null","",NA,NA,NA,NA,""
"image-keyboard-response",490,350440,"0.0-3.159-2.159","43rnskww51ftp76",238,"200.csv","","null","resources/images/coin2.png","null","",NA,NA,NA,NA,""
"image-keyboard-response",491,350463,"0.0-3.160-0.160","43rnskww51ftp76",238,"200.csv","","20.09999990463257","resources/trios/L4T2A1.jpg","37","restless",0.5,0.3,0.7,0.973001204741424,"false"
"image-keyboard-response",492,350886,"0.0-3.160-1.160","43rnskww51ftp76",238,"200.csv","","null","resources/maskTrios/L4BB.jpg","null","",NA,NA,NA,NA,""
"image-keyboard-response",493,352099,"0.0-3.160-2.160","43rnskww51ftp76",238,"200.csv","","null","resources/images/fishbone.png","null","",NA,NA,NA,NA,""
"image-keyboard-response",494,352243,"0.0-3.161-0.161","43rnskww51ftp76",238,"200.csv","","141.90000009536743","resources/trios/L4T2A3.jpg","38","restless",0.5,0.3,0.7,0.0337294219532982,"true"
"image-keyboard-response",495,352653,"0.0-3.161-1.161","43rnskww51ftp76",238,"200.csv","","null","resources/maskTrios/BT2B.jpg","null","",NA,NA,NA,NA,""
"image-keyboard-response",496,353864,"0.0-3.161-2.161","43rnskww51ftp76",238,"200.csv","","null","resources/images/coin2.png","null","",NA,NA,NA,NA,""
"image-keyboard-response",497,354032,"0.0-3.162-0.162","43rnskww51ftp76",238,"200.csv","","166.10000014305115","resources/trios/L2T2A1.jpg","37","restless",0.5,0.3,0.7,0.731748114287071,"false"
"image-keyboard-response",498,354435,"0.0-3.162-1.162","43rnskww51ftp76",238,"200.csv","","null","resources/maskTrios/L2BB.jpg","null","",NA,NA,NA,NA,""
"image-keyboard-response",499,355646,"0.0-3.162-2.162","43rnskww51ftp76",238,"200.csv","","null","resources/images/fishbone.png","null","",NA,NA,NA,NA,""
"image-keyboard-response",500,355672,"0.0-3.163-0.163","43rnskww51ftp76",238,"200.csv","","24.299999952316284","resources/trios/L4T2A1.jpg","38","restless",0.5,0.3,0.7,0.890542441400045,"false"
"image-keyboard-response",501,356091,"0.0-3.163-1.163","43rnskww51ftp76",238,"200.csv","","null","resources/maskTrios/BT2B.jpg","null","",NA,NA,NA,NA,""
"image-keyboard-response",502,357300,"0.0-3.163-2.163","43rnskww51ftp76",238,"200.csv","","null","resources/images/fishbone.png","null","",NA,NA,NA,NA,""
"image-keyboard-response",503,357377,"0.0-3.164-0.164","43rnskww51ftp76",238,"200.csv","","75.60000014305115","resources/trios/L4T2A3.jpg","38","restless",0.5,0.3,0.7,0.968264822016541,"false"
"image-keyboard-response",504,357799,"0.0-3.164-1.164","43rnskww51ftp76",238,"200.csv","","null","resources/maskTrios/BT2B.jpg","null","",NA,NA,NA,NA,""
"image-keyboard-response",505,359010,"0.0-3.164-2.164","43rnskww51ftp76",238,"200.csv","","null","resources/images/fishbone.png","null","",NA,NA,NA,NA,""
"image-keyboard-response",506,359130,"0.0-3.165-0.165","43rnskww51ftp76",238,"200.csv","","118","resources/trios/L4T2A1.jpg","37","restless",0.5,0.3,0.7,0.653741405395122,"false"
"image-keyboard-response",507,359537,"0.0-3.165-1.165","43rnskww51ftp76",238,"200.csv","","null","resources/maskTrios/L4BB.jpg","null","",NA,NA,NA,NA,""
"image-keyboard-response",508,360748,"0.0-3.165-2.165","43rnskww51ftp76",238,"200.csv","","null","resources/images/fishbone.png","null","",NA,NA,NA,NA,""
"image-keyboard-response",509,360897,"0.0-3.166-0.166","43rnskww51ftp76",238,"200.csv","","147.09999990463257","resources/trios/L2T2A3.jpg","38","restless",0.5,0.3,0.7,0.538207378591246,"false"
"image-keyboard-response",510,361313,"0.0-3.166-1.166","43rnskww51ftp76",238,"200.csv","","null","resources/maskTrios/BT2B.jpg","null","",NA,NA,NA,NA,""
"image-keyboard-response",511,362530,"0.0-3.166-2.166","43rnskww51ftp76",238,"200.csv","","null","resources/images/fishbone.png","null","",NA,NA,NA,NA,""
"image-keyboard-response",512,362666,"0.0-3.167-0.167","43rnskww51ftp76",238,"200.csv","","134.09999990463257","resources/trios/L4T4A1.jpg","38","restless",0.5,0.3,0.7,0.724010152907238,"false"
"image-keyboard-response",513,363076,"0.0-3.167-1.167","43rnskww51ftp76",238,"200.csv","","null","resources/maskTrios/BT4B.jpg","null","",NA,NA,NA,NA,""
"image-keyboard-response",514,364293,"0.0-3.167-2.167","43rnskww51ftp76",238,"200.csv","","null","resources/images/fishbone.png","null","",NA,NA,NA,NA,""
"image-keyboard-response",515,364477,"0.0-3.168-0.168","43rnskww51ftp76",238,"200.csv","","182.70000004768372","resources/trios/L4T2A3.jpg","38","restless",0.4,0.3,0.7,0.20574135683182,"true"
"image-keyboard-response",516,364889,"0.0-3.168-1.168","43rnskww51ftp76",238,"200.csv","","null","resources/maskTrios/BT2B.jpg","null","",NA,NA,NA,NA,""
"image-keyboard-response",517,366092,"0.0-3.168-2.168","43rnskww51ftp76",238,"200.csv","","null","resources/images/coin2.png","null","",NA,NA,NA,NA,""
"image-keyboard-response",518,366319,"0.0-3.169-0.169","43rnskww51ftp76",238,"200.csv","","225.79999995231628","resources/trios/L2T4A1.jpg","38","restless",0.4,0.2,0.7,0.93755557184732,"false"
"image-keyboard-response",519,366741,"0.0-3.169-1.169","43rnskww51ftp76",238,"200.csv","","null","resources/maskTrios/BT4B.jpg","null","",NA,NA,NA,NA,""
"image-keyboard-response",520,367944,"0.0-3.169-2.169","43rnskww51ftp76",238,"200.csv","","null","resources/images/fishbone.png","null","",NA,NA,NA,NA,""
"image-keyboard-response",521,368128,"0.0-3.170-0.170","43rnskww51ftp76",238,"200.csv","","182.79999995231628","resources/trios/L4T4A3.jpg","38","restless",0.4,0.2,0.8,0.982603226565966,"false"
"image-keyboard-response",522,368536,"0.0-3.170-1.170","43rnskww51ftp76",238,"200.csv","","null","resources/maskTrios/BT4B.jpg","null","",NA,NA,NA,NA,""
"image-keyboard-response",523,369753,"0.0-3.170-2.170","43rnskww51ftp76",238,"200.csv","","null","resources/images/fishbone.png","null","",NA,NA,NA,NA,""
"image-keyboard-response",524,369768,"0.0-3.171-0.171","43rnskww51ftp76",238,"200.csv","","14.099999904632568","resources/trios/L2T2A1.jpg","38","restless",0.4,0.2,0.8,0.5838202042651,"false"
"image-keyboard-response",525,370181,"0.0-3.171-1.171","43rnskww51ftp76",238,"200.csv","","null","resources/maskTrios/BT2B.jpg","null","",NA,NA,NA,NA,""
"image-keyboard-response",526,371395,"0.0-3.171-2.171","43rnskww51ftp76",238,"200.csv","","null","resources/images/fishbone.png","null","",NA,NA,NA,NA,""
"image-keyboard-response",527,371499,"0.0-3.172-0.172","43rnskww51ftp76",238,"200.csv","","101.79999995231628","resources/trios/L4T2A1.jpg","38","restless",0.4,0.2,0.8,0.960223350635844,"false"
"image-keyboard-response",528,371914,"0.0-3.172-1.172","43rnskww51ftp76",238,"200.csv","","null","resources/maskTrios/BT2B.jpg","null","",NA,NA,NA,NA,""
"image-keyboard-response",529,373124,"0.0-3.172-2.172","43rnskww51ftp76",238,"200.csv","","null","resources/images/fishbone.png","null","",NA,NA,NA,NA,""
"image-keyboard-response",530,373126,"0.0-3.173-0.173","43rnskww51ftp76",238,"200.csv","","0.10000014305114746","resources/trios/L2T2A1.jpg","38","restless",0.4,0.2,0.8,0.755723418160419,"false"
"image-keyboard-response",531,373533,"0.0-3.173-1.173","43rnskww51ftp76",238,"200.csv","","null","resources/maskTrios/BT2B.jpg","null","",NA,NA,NA,NA,""
"image-keyboard-response",532,374738,"0.0-3.173-2.173","43rnskww51ftp76",238,"200.csv","","null","resources/images/fishbone.png","null","",NA,NA,NA,NA,""
"image-keyboard-response",533,374903,"0.0-3.174-0.174","43rnskww51ftp76",238,"200.csv","","163.40000009536743","resources/trios/L2T4A1.jpg","38","restless",0.4,0.2,0.8,0.846206654682144,"false"
"image-keyboard-response",534,375314,"0.0-3.174-1.174","43rnskww51ftp76",238,"200.csv","","null","resources/maskTrios/BT4B.jpg","null","",NA,NA,NA,NA,""
"image-keyboard-response",535,376525,"0.0-3.174-2.174","43rnskww51ftp76",238,"200.csv","","null","resources/images/fishbone.png","null","",NA,NA,NA,NA,""
"image-keyboard-response",536,376745,"0.0-3.175-0.175","43rnskww51ftp76",238,"200.csv","","218.40000009536743","resources/trios/L2T2A1.jpg","38","restless",0.4,0.2,0.8,0.377631785545864,"false"
"image-keyboard-response",537,377157,"0.0-3.175-1.175","43rnskww51ftp76",238,"200.csv","","null","resources/maskTrios/BT2B.jpg","null","",NA,NA,NA,NA,""
"image-keyboard-response",538,378362,"0.0-3.175-2.175","43rnskww51ftp76",238,"200.csv","","null","resources/images/fishbone.png","null","",NA,NA,NA,NA,""
"image-keyboard-response",539,378607,"0.0-3.176-0.176","43rnskww51ftp76",238,"200.csv","","243.09999990463257","resources/trios/L2T2A1.jpg","38","restless",0.4,0.2,0.8,0.182575451923275,"true"
"image-keyboard-response",540,379026,"0.0-3.176-1.176","43rnskww51ftp76",238,"200.csv","","null","resources/maskTrios/BT2B.jpg","null","",NA,NA,NA,NA,""
"image-keyboard-response",541,380242,"0.0-3.176-2.176","43rnskww51ftp76",238,"200.csv","","null","resources/images/coin2.png","null","",NA,NA,NA,NA,""
"image-keyboard-response",542,380315,"0.0-3.177-0.177","43rnskww51ftp76",238,"200.csv","","70.90000009536743","resources/trios/L4T4A1.jpg","38","restless",0.4,0.2,0.8,0.909084998191156,"false"
"image-keyboard-response",543,380726,"0.0-3.177-1.177","43rnskww51ftp76",238,"200.csv","","null","resources/maskTrios/BT4B.jpg","null","",NA,NA,NA,NA,""
"image-keyboard-response",544,381928,"0.0-3.177-2.177","43rnskww51ftp76",238,"200.csv","","null","resources/images/fishbone.png","null","",NA,NA,NA,NA,""
"image-keyboard-response",545,381947,"0.0-3.178-0.178","43rnskww51ftp76",238,"200.csv","","16.200000047683716","resources/trios/L4T2A1.jpg","38","restless",0.4,0.2,0.8,0.96332909727827,"false"
"image-keyboard-response",546,382364,"0.0-3.178-1.178","43rnskww51ftp76",238,"200.csv","","null","resources/maskTrios/BT2B.jpg","null","",NA,NA,NA,NA,""
"image-keyboard-response",547,383573,"0.0-3.178-2.178","43rnskww51ftp76",238,"200.csv","","null","resources/images/fishbone.png","null","",NA,NA,NA,NA,""
"image-keyboard-response",548,383631,"0.0-3.179-0.179","43rnskww51ftp76",238,"200.csv","","55.90000009536743","resources/trios/L2T2A1.jpg","37","restless",0.4,0.2,0.8,0.343634852002406,"true"
"image-keyboard-response",549,384041,"0.0-3.179-1.179","43rnskww51ftp76",238,"200.csv","","null","resources/maskTrios/L2BB.jpg","null","",NA,NA,NA,NA,""
"image-keyboard-response",550,385260,"0.0-3.179-2.179","43rnskww51ftp76",238,"200.csv","","null","resources/images/coin2.png","null","",NA,NA,NA,NA,""
"image-keyboard-response",551,385403,"0.0-3.180-0.180","43rnskww51ftp76",238,"200.csv","","141","resources/trios/L2T2A3.jpg","38","restless",0.4,0.2,0.8,0.671361274797302,"false"
"image-keyboard-response",552,385806,"0.0-3.180-1.180","43rnskww51ftp76",238,"200.csv","","null","resources/maskTrios/BT2B.jpg","null","",NA,NA,NA,NA,""
"image-keyboard-response",553,387024,"0.0-3.180-2.180","43rnskww51ftp76",238,"200.csv","","null","resources/images/fishbone.png","null","",NA,NA,NA,NA,""
"image-keyboard-response",554,387100,"0.0-3.181-0.181","43rnskww51ftp76",238,"200.csv","","74.70000004768372","resources/trios/L4T4A1.jpg","38","restless",0.4,0.3,0.8,0.418917384440896,"false"
"image-keyboard-response",555,387507,"0.0-3.181-1.181","43rnskww51ftp76",238,"200.csv","","null","resources/maskTrios/BT4B.jpg","null","",NA,NA,NA,NA,""
"image-keyboard-response",556,388714,"0.0-3.181-2.181","43rnskww51ftp76",238,"200.csv","","null","resources/images/fishbone.png","null","",NA,NA,NA,NA,""
"image-keyboard-response",557,388846,"0.0-3.182-0.182","43rnskww51ftp76",238,"200.csv","","130.59999990463257","resources/trios/L4T2A1.jpg","37","restless",0.4,0.4,0.8,0.675512184048699,"false"
"image-keyboard-response",558,389263,"0.0-3.182-1.182","43rnskww51ftp76",238,"200.csv","","null","resources/maskTrios/L4BB.jpg","null","",NA,NA,NA,NA,""
"image-keyboard-response",559,390481,"0.0-3.182-2.182","43rnskww51ftp76",238,"200.csv","","null","resources/images/fishbone.png","null","",NA,NA,NA,NA,""
"image-keyboard-response",560,390615,"0.0-3.183-0.183","43rnskww51ftp76",238,"200.csv","","133","resources/trios/L2T4A1.jpg","37","restless",0.4,0.4,0.8,0.917923295644747,"false"
"image-keyboard-response",561,391036,"0.0-3.183-1.183","43rnskww51ftp76",238,"200.csv","","null","resources/maskTrios/L2BB.jpg","null","",NA,NA,NA,NA,""
"image-keyboard-response",562,392245,"0.0-3.183-2.183","43rnskww51ftp76",238,"200.csv","","null","resources/images/fishbone.png","null","",NA,NA,NA,NA,""
"image-keyboard-response",563,392398,"0.0-3.184-0.184","43rnskww51ftp76",238,"200.csv","","151.5","resources/trios/L2T2A3.jpg","37","restless",0.4,0.4,0.8,0.988304322660097,"false"
"image-keyboard-response",564,392817,"0.0-3.184-1.184","43rnskww51ftp76",238,"200.csv","","null","resources/maskTrios/L2BB.jpg","null","",NA,NA,NA,NA,""
"image-keyboard-response",565,394033,"0.0-3.184-2.184","43rnskww51ftp76",238,"200.csv","","null","resources/images/fishbone.png","null","",NA,NA,NA,NA,""
"image-keyboard-response",566,394038,"0.0-3.185-0.185","43rnskww51ftp76",238,"200.csv","","3.299999952316284","resources/trios/L4T2A3.jpg","38","restless",0.4,0.4,0.8,0.376702606905162,"true"
"image-keyboard-response",567,394456,"0.0-3.185-1.185","43rnskww51ftp76",238,"200.csv","","null","resources/maskTrios/BT2B.jpg","null","",NA,NA,NA,NA,""
"image-keyboard-response",568,395676,"0.0-3.185-2.185","43rnskww51ftp76",238,"200.csv","","null","resources/images/coin2.png","null","",NA,NA,NA,NA,""
"image-keyboard-response",569,395704,"0.0-3.186-0.186","43rnskww51ftp76",238,"200.csv","","26.399999856948853","resources/trios/L4T2A3.jpg","38","restless",0.4,0.4,0.8,0.0087792211949338,"true"
"image-keyboard-response",570,396115,"0.0-3.186-1.186","43rnskww51ftp76",238,"200.csv","","null","resources/maskTrios/BT2B.jpg","null","",NA,NA,NA,NA,""
"image-keyboard-response",571,397332,"0.0-3.186-2.186","43rnskww51ftp76",238,"200.csv","","null","resources/images/coin2.png","null","",NA,NA,NA,NA,""
"image-keyboard-response",572,397477,"0.0-3.187-0.187","43rnskww51ftp76",238,"200.csv","","143.09999990463257","resources/trios/L4T2A3.jpg","38","restless",0.4,0.4,0.8,0.374777588929649,"true"
"image-keyboard-response",573,397879,"0.0-3.187-1.187","43rnskww51ftp76",238,"200.csv","","null","resources/maskTrios/BT2B.jpg","null","",NA,NA,NA,NA,""
"image-keyboard-response",574,399094,"0.0-3.187-2.187","43rnskww51ftp76",238,"200.csv","","null","resources/images/coin2.png","null","",NA,NA,NA,NA,""
"image-keyboard-response",575,399122,"0.0-3.188-0.188","43rnskww51ftp76",238,"200.csv","","25.699999809265137","resources/trios/L4T2A1.jpg","38","restless",0.4,0.4,0.8,0.340837739770804,"true"
"image-keyboard-response",576,399539,"0.0-3.188-1.188","43rnskww51ftp76",238,"200.csv","","null","resources/maskTrios/BT2B.jpg","null","",NA,NA,NA,NA,""
"image-keyboard-response",577,400770,"0.0-3.188-2.188","43rnskww51ftp76",238,"200.csv","","null","resources/images/coin2.png","null","",NA,NA,NA,NA,""
"image-keyboard-response",578,400785,"0.0-3.189-0.189","43rnskww51ftp76",238,"200.csv","","13.599999904632568","resources/trios/L2T2A3.jpg","38","restless",0.4,0.3,0.8,0.189717876461377,"true"
"image-keyboard-response",579,401194,"0.0-3.189-1.189","43rnskww51ftp76",238,"200.csv","","null","resources/maskTrios/BT2B.jpg","null","",NA,NA,NA,NA,""
"image-keyboard-response",580,402410,"0.0-3.189-2.189","43rnskww51ftp76",238,"200.csv","","null","resources/images/coin2.png","null","",NA,NA,NA,NA,""
"image-keyboard-response",581,402441,"0.0-3.190-0.190","43rnskww51ftp76",238,"200.csv","","29.399999856948853","resources/trios/L2T4A3.jpg","38","restless",0.4,0.3,0.8,0.973389750578247,"false"
"image-keyboard-response",582,402853,"0.0-3.190-1.190","43rnskww51ftp76",238,"200.csv","","null","resources/maskTrios/BT4B.jpg","null","",NA,NA,NA,NA,""
"image-keyboard-response",583,404060,"0.0-3.190-2.190","43rnskww51ftp76",238,"200.csv","","null","resources/images/fishbone.png","null","",NA,NA,NA,NA,""
"image-keyboard-response",584,404243,"0.0-3.191-0.191","43rnskww51ftp76",238,"200.csv","","181.70000004768372","resources/trios/L2T2A1.jpg","37","restless",0.4,0.3,0.8,0.190929578171663,"true"
"image-keyboard-response",585,404649,"0.0-3.191-1.191","43rnskww51ftp76",238,"200.csv","","null","resources/maskTrios/L2BB.jpg","null","",NA,NA,NA,NA,""
"image-keyboard-response",586,405857,"0.0-3.191-2.191","43rnskww51ftp76",238,"200.csv","","null","resources/images/coin2.png","null","",NA,NA,NA,NA,""
"image-keyboard-response",587,405864,"0.0-3.192-0.192","43rnskww51ftp76",238,"200.csv","","5.6000001430511475","resources/trios/L4T4A1.jpg","38","restless",0.4,0.3,0.7,0.5257516936749,"false"
"image-keyboard-response",588,406274,"0.0-3.192-1.192","43rnskww51ftp76",238,"200.csv","","null","resources/maskTrios/BT4B.jpg","null","",NA,NA,NA,NA,""
"image-keyboard-response",589,407490,"0.0-3.192-2.192","43rnskww51ftp76",238,"200.csv","","null","resources/images/fishbone.png","null","",NA,NA,NA,NA,""
"image-keyboard-response",590,407567,"0.0-3.193-0.193","43rnskww51ftp76",238,"200.csv","","75.5","resources/trios/L4T2A3.jpg","37","restless",0.4,0.3,0.7,0.613549128159613,"false"
"image-keyboard-response",591,407972,"0.0-3.193-1.193","43rnskww51ftp76",238,"200.csv","","null","resources/maskTrios/L4BB.jpg","null","",NA,NA,NA,NA,""
"image-keyboard-response",592,409185,"0.0-3.193-2.193","43rnskww51ftp76",238,"200.csv","","null","resources/images/fishbone.png","null","",NA,NA,NA,NA,""
"image-keyboard-response",593,409423,"0.0-3.194-0.194","43rnskww51ftp76",238,"200.csv","","234.70000004768372","resources/trios/L2T2A3.jpg","37","restless",0.4,0.3,0.7,0.859066463570143,"false"
"image-keyboard-response",594,409831,"0.0-3.194-1.194","43rnskww51ftp76",238,"200.csv","","null","resources/maskTrios/L2BB.jpg","null","",NA,NA,NA,NA,""
"image-keyboard-response",595,411048,"0.0-3.194-2.194","43rnskww51ftp76",238,"200.csv","","null","resources/images/fishbone.png","null","",NA,NA,NA,NA,""
"image-keyboard-response",596,411123,"0.0-3.195-0.195","43rnskww51ftp76",238,"200.csv","","73.90000009536743","resources/trios/L2T4A1.jpg","37","restless",0.4,0.3,0.7,0.104417704928587,"true"
"image-keyboard-response",597,411531,"0.0-3.195-1.195","43rnskww51ftp76",238,"200.csv","","null","resources/maskTrios/L2BB.jpg","null","",NA,NA,NA,NA,""
"image-keyboard-response",598,412748,"0.0-3.195-2.195","43rnskww51ftp76",238,"200.csv","","null","resources/images/coin2.png","null","",NA,NA,NA,NA,""
"image-keyboard-response",599,412753,"0.0-3.196-0.196","43rnskww51ftp76",238,"200.csv","","2.4000000953674316","resources/trios/L2T2A3.jpg","38","restless",0.4,0.3,0.7,0.0650209825421348,"true"
"image-keyboard-response",600,413164,"0.0-3.196-1.196","43rnskww51ftp76",238,"200.csv","","null","resources/maskTrios/BT2B.jpg","null","",NA,NA,NA,NA,""
"image-keyboard-response",601,414378,"0.0-3.196-2.196","43rnskww51ftp76",238,"200.csv","","null","resources/images/coin2.png","null","",NA,NA,NA,NA,""
"image-keyboard-response",602,414727,"0.0-3.197-0.197","43rnskww51ftp76",238,"200.csv","","347.2000000476837","resources/trios/L2T2A3.jpg","38","restless",0.4,0.3,0.7,0.487847799061549,"false"
"image-keyboard-response",603,415143,"0.0-3.197-1.197","43rnskww51ftp76",238,"200.csv","","null","resources/maskTrios/BT2B.jpg","null","",NA,NA,NA,NA,""
"image-keyboard-response",604,416355,"0.0-3.197-2.197","43rnskww51ftp76",238,"200.csv","","null","resources/images/fishbone.png","null","",NA,NA,NA,NA,""
"image-keyboard-response",605,416405,"0.0-3.198-0.198","43rnskww51ftp76",238,"200.csv","","47.90000009536743","resources/trios/L4T4A1.jpg","38","restless",0.4,0.3,0.7,0.284737384669248,"true"
