"trial_type","trial_index","time_elapsed","internal_node_id","subject","participantCode","walkNumber","success","rt","stimulus","key_press","test_part","leftProb","midProb","rightProb","generatedNum","correct"
"pavlovia",0,1040,"0.0-0.0","fbuz53cba3m7vvk",114,"200.csv","","","","","",NA,NA,NA,NA,""
"fullscreen",1,4889,"0.0-1.0","fbuz53cba3m7vvk",114,"200.csv","true","","","","",NA,NA,NA,NA,""
"html-keyboard-response",2,12173,"0.0-2.0-0.0","fbuz53cba3m7vvk",114,"200.csv","","7281","<p><font size='6'>Arrrgh!</p></font><p>Can you be the best pirate? Try to find lots of gold! But beware, some islands have more gold than others, and over time, the island with the most gold may change. Can YOU figure it out? </p><font size='6'>GOOD LUCK, CAPTAIN!!!</font><p>Press any key to begin</p>","13","",NA,NA,NA,NA,""
"image-keyboard-response",3,15176,"0.0-2.0-1.0","fbuz53cba3m7vvk",114,"200.csv","","null","resources/image_sets/111.png","null","",NA,NA,NA,NA,""
"image-keyboard-response",4,18936,"0.0-2.0-2.0","fbuz53cba3m7vvk",114,"200.csv","","3757","resources/image_sets/left_highlight.png","37","",NA,NA,NA,NA,""
"image-keyboard-response",5,20401,"0.0-2.0-3.0","fbuz53cba3m7vvk",114,"200.csv","","1464","resources/image_sets/mid_highlight.png","38","",NA,NA,NA,NA,""
"image-keyboard-response",6,21177,"0.0-2.0-4.0","fbuz53cba3m7vvk",114,"200.csv","","774","resources/image_sets/right_highlight.png","39","",NA,NA,NA,NA,""
"image-keyboard-response",7,23107,"0.0-2.0-5.0","fbuz53cba3m7vvk",114,"200.csv","","1928","resources/image_sets/111.png","13","",NA,NA,NA,NA,""
"image-keyboard-response",8,24683,"0.0-2.0-6.0","fbuz53cba3m7vvk",114,"200.csv","","1574","resources/images/coin2.png","13","",NA,NA,NA,NA,""
"image-keyboard-response",9,25726,"0.0-2.0-7.0","fbuz53cba3m7vvk",114,"200.csv","","1042","resources/images/fishbone.png","13","",NA,NA,NA,NA,""
"html-keyboard-response",10,30831,"0.0-2.0-8.0","fbuz53cba3m7vvk",114,"200.csv","","5103.999999999996","<p>Your first journey will be a long one, but you will get a well deserved break at the end</p><p>After the break you will have four more journeys, but each will be much shorter than the first, and you will have breaks in between each</p><p>Press Enter to begin</p>","13","",NA,NA,NA,NA,""
"image-keyboard-response",11,33165,"0.0-3.0-0.0","fbuz53cba3m7vvk",114,"200.csv","","2331","resources/trios/L2T1A3.jpg","38","restless",0.9,0.7,0.3,0.4564704723575,"true"
"image-keyboard-response",12,33571,"0.0-3.0-1.0","fbuz53cba3m7vvk",114,"200.csv","","null","resources/maskTrios/BT1B.jpg","null","",NA,NA,NA,NA,""
"image-keyboard-response",13,34775,"0.0-3.0-2.0","fbuz53cba3m7vvk",114,"200.csv","","null","resources/images/coin2.png","null","",NA,NA,NA,NA,""
"image-keyboard-response",14,36439,"0.0-3.1-0.1","fbuz53cba3m7vvk",114,"200.csv","","1660","resources/trios/L2T2A3.jpg","37","restless",0.8,0.7,0.3,0.891660213164762,"false"
"image-keyboard-response",15,36842,"0.0-3.1-1.1","fbuz53cba3m7vvk",114,"200.csv","","null","resources/maskTrios/L2BB.jpg","null","",NA,NA,NA,NA,""
"image-keyboard-response",16,38046,"0.0-3.1-2.1","fbuz53cba3m7vvk",114,"200.csv","","null","resources/images/fishbone.png","null","",NA,NA,NA,NA,""
"image-keyboard-response",17,39937,"0.0-3.2-0.2","fbuz53cba3m7vvk",114,"200.csv","","1889","resources/trios/L4T1A2.jpg","38","restless",0.8,0.7,0.3,0.510022104440711,"true"
"image-keyboard-response",18,40341,"0.0-3.2-1.2","fbuz53cba3m7vvk",114,"200.csv","","null","resources/maskTrios/BT1B.jpg","null","",NA,NA,NA,NA,""
"image-keyboard-response",19,41552,"0.0-3.2-2.2","fbuz53cba3m7vvk",114,"200.csv","","null","resources/images/coin2.png","null","",NA,NA,NA,NA,""
"image-keyboard-response",20,42179,"0.0-3.3-0.3","fbuz53cba3m7vvk",114,"200.csv","","624.0000000000073","resources/trios/L2T1A3.jpg","38","restless",0.8,0.7,0.4,0.98404581104869,"false"
"image-keyboard-response",21,42582,"0.0-3.3-1.3","fbuz53cba3m7vvk",114,"200.csv","","null","resources/maskTrios/BT1B.jpg","null","",NA,NA,NA,NA,""
"image-keyboard-response",22,43785,"0.0-3.3-2.3","fbuz53cba3m7vvk",114,"200.csv","","null","resources/images/fishbone.png","null","",NA,NA,NA,NA,""
"image-keyboard-response",23,44906,"0.0-3.4-0.4","fbuz53cba3m7vvk",114,"200.csv","","1119","resources/trios/L4T1A3.jpg","38","restless",0.8,0.7,0.4,0.773209711061309,"false"
"image-keyboard-response",24,45310,"0.0-3.4-1.4","fbuz53cba3m7vvk",114,"200.csv","","null","resources/maskTrios/BT1B.jpg","null","",NA,NA,NA,NA,""
"image-keyboard-response",25,46513,"0.0-3.4-2.4","fbuz53cba3m7vvk",114,"200.csv","","null","resources/images/fishbone.png","null","",NA,NA,NA,NA,""
"image-keyboard-response",26,47173,"0.0-3.5-0.5","fbuz53cba3m7vvk",114,"200.csv","","658","resources/trios/L4T1A3.jpg","39","restless",0.8,0.7,0.4,0.245512924477833,"true"
"image-keyboard-response",27,47576,"0.0-3.5-1.5","fbuz53cba3m7vvk",114,"200.csv","","null","resources/maskTrios/BBA3.jpg","null","",NA,NA,NA,NA,""
"image-keyboard-response",28,48779,"0.0-3.5-2.5","fbuz53cba3m7vvk",114,"200.csv","","null","resources/images/coin2.png","null","",NA,NA,NA,NA,""
"image-keyboard-response",29,51164,"0.0-3.6-0.6","fbuz53cba3m7vvk",114,"200.csv","","2383","resources/trios/L2T2A3.jpg","38","restless",0.7,0.7,0.4,0.132615463659871,"true"
"image-keyboard-response",30,51567,"0.0-3.6-1.6","fbuz53cba3m7vvk",114,"200.csv","","null","resources/maskTrios/BT2B.jpg","null","",NA,NA,NA,NA,""
"image-keyboard-response",31,52771,"0.0-3.6-2.6","fbuz53cba3m7vvk",114,"200.csv","","null","resources/images/coin2.png","null","",NA,NA,NA,NA,""
"image-keyboard-response",32,54160,"0.0-3.7-0.7","fbuz53cba3m7vvk",114,"200.csv","","1387","resources/trios/L4T2A3.jpg","37","restless",0.7,0.7,0.4,0.367842700415828,"true"
"image-keyboard-response",33,54564,"0.0-3.7-1.7","fbuz53cba3m7vvk",114,"200.csv","","null","resources/maskTrios/L4BB.jpg","null","",NA,NA,NA,NA,""
"image-keyboard-response",34,55768,"0.0-3.7-2.7","fbuz53cba3m7vvk",114,"200.csv","","null","resources/images/coin2.png","null","",NA,NA,NA,NA,""
"image-keyboard-response",35,56949,"0.0-3.8-0.8","fbuz53cba3m7vvk",114,"200.csv","","1178","resources/trios/L4T1A2.jpg","39","restless",0.7,0.7,0.4,0.00778220118714723,"true"
"image-keyboard-response",36,57352,"0.0-3.8-1.8","fbuz53cba3m7vvk",114,"200.csv","","null","resources/maskTrios/BBA2.jpg","null","",NA,NA,NA,NA,""
"image-keyboard-response",37,58556,"0.0-3.8-2.8","fbuz53cba3m7vvk",114,"200.csv","","null","resources/images/coin2.png","null","",NA,NA,NA,NA,""
"image-keyboard-response",38,61503,"0.0-3.9-0.9","fbuz53cba3m7vvk",114,"200.csv","","2944","resources/trios/L4T1A2.jpg","39","restless",0.7,0.7,0.4,0.748568846021849,"false"
"image-keyboard-response",39,61906,"0.0-3.9-1.9","fbuz53cba3m7vvk",114,"200.csv","","null","resources/maskTrios/BBA2.jpg","null","",NA,NA,NA,NA,""
"image-keyboard-response",40,63109,"0.0-3.9-2.9","fbuz53cba3m7vvk",114,"200.csv","","null","resources/images/fishbone.png","null","",NA,NA,NA,NA,""
"image-keyboard-response",41,64594,"0.0-3.10-0.10","fbuz53cba3m7vvk",114,"200.csv","","1483","resources/trios/L4T1A3.jpg","37","restless",0.7,0.7,0.5,0.239642297984079,"true"
"image-keyboard-response",42,64997,"0.0-3.10-1.10","fbuz53cba3m7vvk",114,"200.csv","","null","resources/maskTrios/L4BB.jpg","null","",NA,NA,NA,NA,""
"image-keyboard-response",43,66201,"0.0-3.10-2.10","fbuz53cba3m7vvk",114,"200.csv","","null","resources/images/coin2.png","null","",NA,NA,NA,NA,""
"image-keyboard-response",44,68217,"0.0-3.11-0.11","fbuz53cba3m7vvk",114,"200.csv","","2015","resources/trios/L2T2A2.jpg","38","restless",0.7,0.8,0.5,0.440830455391296,"true"
"image-keyboard-response",45,68621,"0.0-3.11-1.11","fbuz53cba3m7vvk",114,"200.csv","","null","resources/maskTrios/BT2B.jpg","null","",NA,NA,NA,NA,""
"image-keyboard-response",46,69824,"0.0-3.11-2.11","fbuz53cba3m7vvk",114,"200.csv","","null","resources/images/coin2.png","null","",NA,NA,NA,NA,""
"image-keyboard-response",47,71133,"0.0-3.12-0.12","fbuz53cba3m7vvk",114,"200.csv","","1306","resources/trios/L2T1A3.jpg","39","restless",0.7,0.8,0.5,0.764557048420103,"false"
"image-keyboard-response",48,71536,"0.0-3.12-1.12","fbuz53cba3m7vvk",114,"200.csv","","null","resources/maskTrios/BBA3.jpg","null","",NA,NA,NA,NA,""
"image-keyboard-response",49,72739,"0.0-3.12-2.12","fbuz53cba3m7vvk",114,"200.csv","","null","resources/images/fishbone.png","null","",NA,NA,NA,NA,""
"image-keyboard-response",50,73440,"0.0-3.13-0.13","fbuz53cba3m7vvk",114,"200.csv","","700","resources/trios/L4T1A2.jpg","38","restless",0.7,0.8,0.5,0.750633661076158,"true"
"image-keyboard-response",51,73843,"0.0-3.13-1.13","fbuz53cba3m7vvk",114,"200.csv","","null","resources/maskTrios/BT1B.jpg","null","",NA,NA,NA,NA,""
"image-keyboard-response",52,75047,"0.0-3.13-2.13","fbuz53cba3m7vvk",114,"200.csv","","null","resources/images/coin2.png","null","",NA,NA,NA,NA,""
"image-keyboard-response",53,75681,"0.0-3.14-0.14","fbuz53cba3m7vvk",114,"200.csv","","632.0000000000146","resources/trios/L4T2A3.jpg","37","restless",0.7,0.8,0.5,0.696408464227719,"true"
"image-keyboard-response",54,76083,"0.0-3.14-1.14","fbuz53cba3m7vvk",114,"200.csv","","null","resources/maskTrios/L4BB.jpg","null","",NA,NA,NA,NA,""
"image-keyboard-response",55,77286,"0.0-3.14-2.14","fbuz53cba3m7vvk",114,"200.csv","","null","resources/images/coin2.png","null","",NA,NA,NA,NA,""
"image-keyboard-response",56,77908,"0.0-3.15-0.15","fbuz53cba3m7vvk",114,"200.csv","","620","resources/trios/L4T2A2.jpg","39","restless",0.7,0.8,0.5,0.621966785274558,"false"
"image-keyboard-response",57,78311,"0.0-3.15-1.15","fbuz53cba3m7vvk",114,"200.csv","","null","resources/maskTrios/BBA2.jpg","null","",NA,NA,NA,NA,""
"image-keyboard-response",58,79514,"0.0-3.15-2.15","fbuz53cba3m7vvk",114,"200.csv","","null","resources/images/fishbone.png","null","",NA,NA,NA,NA,""
"image-keyboard-response",59,80206,"0.0-3.16-0.16","fbuz53cba3m7vvk",114,"200.csv","","690","resources/trios/L2T1A2.jpg","38","restless",0.7,0.8,0.5,0.841359776008265,"false"
"image-keyboard-response",60,80609,"0.0-3.16-1.16","fbuz53cba3m7vvk",114,"200.csv","","null","resources/maskTrios/BT1B.jpg","null","",NA,NA,NA,NA,""
"image-keyboard-response",61,81812,"0.0-3.16-2.16","fbuz53cba3m7vvk",114,"200.csv","","null","resources/images/fishbone.png","null","",NA,NA,NA,NA,""
"image-keyboard-response",62,82961,"0.0-3.17-0.17","fbuz53cba3m7vvk",114,"200.csv","","1146.9999999999854","resources/trios/L2T2A3.jpg","39","restless",0.7,0.8,0.5,0.411755179286147,"true"
"image-keyboard-response",63,83364,"0.0-3.17-1.17","fbuz53cba3m7vvk",114,"200.csv","","null","resources/maskTrios/BBA3.jpg","null","",NA,NA,NA,NA,""
"image-keyboard-response",64,84568,"0.0-3.17-2.17","fbuz53cba3m7vvk",114,"200.csv","","null","resources/images/coin2.png","null","",NA,NA,NA,NA,""
"image-keyboard-response",65,85796,"0.0-3.18-0.18","fbuz53cba3m7vvk",114,"200.csv","","1227.0000000000146","resources/trios/L2T1A3.jpg","37","restless",0.7,0.8,0.5,0.0477125855693656,"true"
"image-keyboard-response",66,86198,"0.0-3.18-1.18","fbuz53cba3m7vvk",114,"200.csv","","null","resources/maskTrios/L2BB.jpg","null","",NA,NA,NA,NA,""
"image-keyboard-response",67,87401,"0.0-3.18-2.18","fbuz53cba3m7vvk",114,"200.csv","","null","resources/images/coin2.png","null","",NA,NA,NA,NA,""
"image-keyboard-response",68,88178,"0.0-3.19-0.19","fbuz53cba3m7vvk",114,"200.csv","","774.9999999999854","resources/trios/L2T2A2.jpg","38","restless",0.7,0.8,0.5,0.357548507289434,"true"
"image-keyboard-response",69,88581,"0.0-3.19-1.19","fbuz53cba3m7vvk",114,"200.csv","","null","resources/maskTrios/BT2B.jpg","null","",NA,NA,NA,NA,""
"image-keyboard-response",70,89784,"0.0-3.19-2.19","fbuz53cba3m7vvk",114,"200.csv","","null","resources/images/coin2.png","null","",NA,NA,NA,NA,""
"image-keyboard-response",71,90743,"0.0-3.20-0.20","fbuz53cba3m7vvk",114,"200.csv","","957","resources/trios/L2T1A2.jpg","37","restless",0.7,0.7,0.5,0.896740618699242,"false"
"image-keyboard-response",72,91147,"0.0-3.20-1.20","fbuz53cba3m7vvk",114,"200.csv","","null","resources/maskTrios/L2BB.jpg","null","",NA,NA,NA,NA,""
"image-keyboard-response",73,92349,"0.0-3.20-2.20","fbuz53cba3m7vvk",114,"200.csv","","null","resources/images/fishbone.png","null","",NA,NA,NA,NA,""
"image-keyboard-response",74,92981,"0.0-3.21-0.21","fbuz53cba3m7vvk",114,"200.csv","","630","resources/trios/L2T1A3.jpg","39","restless",0.7,0.7,0.5,0.253156059742193,"true"
"image-keyboard-response",75,93385,"0.0-3.21-1.21","fbuz53cba3m7vvk",114,"200.csv","","null","resources/maskTrios/BBA3.jpg","null","",NA,NA,NA,NA,""
"image-keyboard-response",76,94588,"0.0-3.21-2.21","fbuz53cba3m7vvk",114,"200.csv","","null","resources/images/coin2.png","null","",NA,NA,NA,NA,""
"image-keyboard-response",77,95413,"0.0-3.22-0.22","fbuz53cba3m7vvk",114,"200.csv","","823.0000000000146","resources/trios/L4T1A3.jpg","38","restless",0.7,0.7,0.5,0.630715044351455,"true"
"image-keyboard-response",78,95815,"0.0-3.22-1.22","fbuz53cba3m7vvk",114,"200.csv","","null","resources/maskTrios/BT1B.jpg","null","",NA,NA,NA,NA,""
"image-keyboard-response",79,97018,"0.0-3.22-2.22","fbuz53cba3m7vvk",114,"200.csv","","null","resources/images/coin2.png","null","",NA,NA,NA,NA,""
"image-keyboard-response",80,98258,"0.0-3.23-0.23","fbuz53cba3m7vvk",114,"200.csv","","1238","resources/trios/L4T2A2.jpg","38","restless",0.7,0.7,0.5,0.288677948900336,"true"
"image-keyboard-response",81,98661,"0.0-3.23-1.23","fbuz53cba3m7vvk",114,"200.csv","","null","resources/maskTrios/BT2B.jpg","null","",NA,NA,NA,NA,""
"image-keyboard-response",82,99864,"0.0-3.23-2.23","fbuz53cba3m7vvk",114,"200.csv","","null","resources/images/coin2.png","null","",NA,NA,NA,NA,""
"image-keyboard-response",83,100387,"0.0-3.24-0.24","fbuz53cba3m7vvk",114,"200.csv","","521","resources/trios/L4T2A3.jpg","39","restless",0.7,0.7,0.6,0.651045833112112,"false"
"image-keyboard-response",84,100790,"0.0-3.24-1.24","fbuz53cba3m7vvk",114,"200.csv","","null","resources/maskTrios/BBA3.jpg","null","",NA,NA,NA,NA,""
"image-keyboard-response",85,101993,"0.0-3.24-2.24","fbuz53cba3m7vvk",114,"200.csv","","null","resources/images/fishbone.png","null","",NA,NA,NA,NA,""
"image-keyboard-response",86,102694,"0.0-3.25-0.25","fbuz53cba3m7vvk",114,"200.csv","","700","resources/trios/L2T1A2.jpg","38","restless",0.7,0.7,0.6,0.569902827538033,"true"
"image-keyboard-response",87,103097,"0.0-3.25-1.25","fbuz53cba3m7vvk",114,"200.csv","","null","resources/maskTrios/BT1B.jpg","null","",NA,NA,NA,NA,""
"image-keyboard-response",88,104300,"0.0-3.25-2.25","fbuz53cba3m7vvk",114,"200.csv","","null","resources/images/coin2.png","null","",NA,NA,NA,NA,""
"image-keyboard-response",89,104836,"0.0-3.26-0.26","fbuz53cba3m7vvk",114,"200.csv","","534","resources/trios/L4T2A2.jpg","39","restless",0.7,0.7,0.6,0.271257782355217,"true"
"image-keyboard-response",90,105238,"0.0-3.26-1.26","fbuz53cba3m7vvk",114,"200.csv","","null","resources/maskTrios/BBA2.jpg","null","",NA,NA,NA,NA,""
"image-keyboard-response",91,106441,"0.0-3.26-2.26","fbuz53cba3m7vvk",114,"200.csv","","null","resources/images/coin2.png","null","",NA,NA,NA,NA,""
"image-keyboard-response",92,108637,"0.0-3.27-0.27","fbuz53cba3m7vvk",114,"200.csv","","2193.9999999999854","resources/trios/L4T2A2.jpg","37","restless",0.7,0.7,0.6,0.807530248553569,"false"
"image-keyboard-response",93,109040,"0.0-3.27-1.27","fbuz53cba3m7vvk",114,"200.csv","","null","resources/maskTrios/L4BB.jpg","null","",NA,NA,NA,NA,""
"image-keyboard-response",94,110242,"0.0-3.27-2.27","fbuz53cba3m7vvk",114,"200.csv","","null","resources/images/fishbone.png","null","",NA,NA,NA,NA,""
"image-keyboard-response",95,110698,"0.0-3.28-0.28","fbuz53cba3m7vvk",114,"200.csv","","453","resources/trios/L4T1A2.jpg","38","restless",0.7,0.7,0.6,0.161829713018981,"true"
"image-keyboard-response",96,111101,"0.0-3.28-1.28","fbuz53cba3m7vvk",114,"200.csv","","null","resources/maskTrios/BT1B.jpg","null","",NA,NA,NA,NA,""
"image-keyboard-response",97,112304,"0.0-3.28-2.28","fbuz53cba3m7vvk",114,"200.csv","","null","resources/images/coin2.png","null","",NA,NA,NA,NA,""
"image-keyboard-response",98,112601,"0.0-3.29-0.29","fbuz53cba3m7vvk",114,"200.csv","","294.99999999998545","resources/trios/L4T1A2.jpg","39","restless",0.7,0.6,0.6,0.313357486040843,"true"
"image-keyboard-response",99,113004,"0.0-3.29-1.29","fbuz53cba3m7vvk",114,"200.csv","","null","resources/maskTrios/BBA2.jpg","null","",NA,NA,NA,NA,""
"image-keyboard-response",100,114211,"0.0-3.29-2.29","fbuz53cba3m7vvk",114,"200.csv","","null","resources/images/coin2.png","null","",NA,NA,NA,NA,""
"image-keyboard-response",101,119471,"0.0-3.30-0.30","fbuz53cba3m7vvk",114,"200.csv","","5257","resources/trios/L4T1A3.jpg","39","restless",0.7,0.6,0.6,0.307593220232863,"true"
"image-keyboard-response",102,119874,"0.0-3.30-1.30","fbuz53cba3m7vvk",114,"200.csv","","null","resources/maskTrios/BBA3.jpg","null","",NA,NA,NA,NA,""
"image-keyboard-response",103,121078,"0.0-3.30-2.30","fbuz53cba3m7vvk",114,"200.csv","","null","resources/images/coin2.png","null","",NA,NA,NA,NA,""
"image-keyboard-response",104,121866,"0.0-3.31-0.31","fbuz53cba3m7vvk",114,"200.csv","","786.9999999999854","resources/trios/L4T2A2.jpg","37","restless",0.7,0.6,0.6,0.721200152975429,"false"
"image-keyboard-response",105,122270,"0.0-3.31-1.31","fbuz53cba3m7vvk",114,"200.csv","","null","resources/maskTrios/L4BB.jpg","null","",NA,NA,NA,NA,""
"image-keyboard-response",106,123472,"0.0-3.31-2.31","fbuz53cba3m7vvk",114,"200.csv","","null","resources/images/fishbone.png","null","",NA,NA,NA,NA,""
"image-keyboard-response",107,123829,"0.0-3.32-0.32","fbuz53cba3m7vvk",114,"200.csv","","355.00000000001455","resources/trios/L4T1A2.jpg","38","restless",0.7,0.6,0.6,0.647657570874918,"false"
"image-keyboard-response",108,124233,"0.0-3.32-1.32","fbuz53cba3m7vvk",114,"200.csv","","null","resources/maskTrios/BT1B.jpg","null","",NA,NA,NA,NA,""
"image-keyboard-response",109,125435,"0.0-3.32-2.32","fbuz53cba3m7vvk",114,"200.csv","","null","resources/images/fishbone.png","null","",NA,NA,NA,NA,""
"image-keyboard-response",110,126039,"0.0-3.33-0.33","fbuz53cba3m7vvk",114,"200.csv","","601","resources/trios/L4T1A2.jpg","38","restless",0.6,0.6,0.6,0.343331152769201,"true"
"image-keyboard-response",111,126442,"0.0-3.33-1.33","fbuz53cba3m7vvk",114,"200.csv","","null","resources/maskTrios/BT1B.jpg","null","",NA,NA,NA,NA,""
"image-keyboard-response",112,127645,"0.0-3.33-2.33","fbuz53cba3m7vvk",114,"200.csv","","null","resources/images/coin2.png","null","",NA,NA,NA,NA,""
"image-keyboard-response",113,127950,"0.0-3.34-0.34","fbuz53cba3m7vvk",114,"200.csv","","303","resources/trios/L2T1A3.jpg","39","restless",0.6,0.5,0.6,0.0381494279877688,"true"
"image-keyboard-response",114,128354,"0.0-3.34-1.34","fbuz53cba3m7vvk",114,"200.csv","","null","resources/maskTrios/BBA3.jpg","null","",NA,NA,NA,NA,""
"image-keyboard-response",115,129557,"0.0-3.34-2.34","fbuz53cba3m7vvk",114,"200.csv","","null","resources/images/coin2.png","null","",NA,NA,NA,NA,""
"image-keyboard-response",116,129947,"0.0-3.35-0.35","fbuz53cba3m7vvk",114,"200.csv","","389","resources/trios/L4T2A3.jpg","37","restless",0.6,0.5,0.6,0.104575727012432,"true"
"image-keyboard-response",117,130352,"0.0-3.35-1.35","fbuz53cba3m7vvk",114,"200.csv","","null","resources/maskTrios/L4BB.jpg","null","",NA,NA,NA,NA,""
"image-keyboard-response",118,131555,"0.0-3.35-2.35","fbuz53cba3m7vvk",114,"200.csv","","null","resources/images/coin2.png","null","",NA,NA,NA,NA,""
"image-keyboard-response",119,131919,"0.0-3.36-0.36","fbuz53cba3m7vvk",114,"200.csv","","362","resources/trios/L4T2A3.jpg","39","restless",0.6,0.5,0.6,0.637378366814793,"false"
"image-keyboard-response",120,132322,"0.0-3.36-1.36","fbuz53cba3m7vvk",114,"200.csv","","null","resources/maskTrios/BBA3.jpg","null","",NA,NA,NA,NA,""
"image-keyboard-response",121,133525,"0.0-3.36-2.36","fbuz53cba3m7vvk",114,"200.csv","","null","resources/images/fishbone.png","null","",NA,NA,NA,NA,""
"image-keyboard-response",122,133840,"0.0-3.37-0.37","fbuz53cba3m7vvk",114,"200.csv","","312","resources/trios/L2T1A2.jpg","38","restless",0.5,0.5,0.6,0.0818972099069425,"true"
"image-keyboard-response",123,134242,"0.0-3.37-1.37","fbuz53cba3m7vvk",114,"200.csv","","null","resources/maskTrios/BT1B.jpg","null","",NA,NA,NA,NA,""
"image-keyboard-response",124,135445,"0.0-3.37-2.37","fbuz53cba3m7vvk",114,"200.csv","","null","resources/images/coin2.png","null","",NA,NA,NA,NA,""
"image-keyboard-response",125,135784,"0.0-3.38-0.38","fbuz53cba3m7vvk",114,"200.csv","","337","resources/trios/L2T2A2.jpg","37","restless",0.5,0.5,0.6,0.711269143890262,"false"
"image-keyboard-response",126,136187,"0.0-3.38-1.38","fbuz53cba3m7vvk",114,"200.csv","","null","resources/maskTrios/L2BB.jpg","null","",NA,NA,NA,NA,""
"image-keyboard-response",127,137390,"0.0-3.38-2.38","fbuz53cba3m7vvk",114,"200.csv","","null","resources/images/fishbone.png","null","",NA,NA,NA,NA,""
"image-keyboard-response",128,137946,"0.0-3.39-0.39","fbuz53cba3m7vvk",114,"200.csv","","555","resources/trios/L2T1A2.jpg","39","restless",0.5,0.5,0.6,0.446864209616944,"true"
"image-keyboard-response",129,138349,"0.0-3.39-1.39","fbuz53cba3m7vvk",114,"200.csv","","null","resources/maskTrios/BBA2.jpg","null","",NA,NA,NA,NA,""
"image-keyboard-response",130,139551,"0.0-3.39-2.39","fbuz53cba3m7vvk",114,"200.csv","","null","resources/images/coin2.png","null","",NA,NA,NA,NA,""
"image-keyboard-response",131,139867,"0.0-3.40-0.40","fbuz53cba3m7vvk",114,"200.csv","","314","resources/trios/L2T2A2.jpg","38","restless",0.5,0.5,0.6,0.884972190362887,"false"
"image-keyboard-response",132,140269,"0.0-3.40-1.40","fbuz53cba3m7vvk",114,"200.csv","","null","resources/maskTrios/BT2B.jpg","null","",NA,NA,NA,NA,""
"image-keyboard-response",133,141472,"0.0-3.40-2.40","fbuz53cba3m7vvk",114,"200.csv","","null","resources/images/fishbone.png","null","",NA,NA,NA,NA,""
"image-keyboard-response",134,141762,"0.0-3.41-0.41","fbuz53cba3m7vvk",114,"200.csv","","288","resources/trios/L4T2A2.jpg","39","restless",0.5,0.4,0.5,0.537750492084387,"false"
"image-keyboard-response",135,142164,"0.0-3.41-1.41","fbuz53cba3m7vvk",114,"200.csv","","null","resources/maskTrios/BBA2.jpg","null","",NA,NA,NA,NA,""
"image-keyboard-response",136,143367,"0.0-3.41-2.41","fbuz53cba3m7vvk",114,"200.csv","","null","resources/images/fishbone.png","null","",NA,NA,NA,NA,""
"image-keyboard-response",137,143695,"0.0-3.42-0.42","fbuz53cba3m7vvk",114,"200.csv","","326","resources/trios/L2T2A3.jpg","38","restless",0.5,0.4,0.5,0.597232133184967,"false"
"image-keyboard-response",138,144100,"0.0-3.42-1.42","fbuz53cba3m7vvk",114,"200.csv","","null","resources/maskTrios/BT2B.jpg","null","",NA,NA,NA,NA,""
"image-keyboard-response",139,145303,"0.0-3.42-2.42","fbuz53cba3m7vvk",114,"200.csv","","null","resources/images/fishbone.png","null","",NA,NA,NA,NA,""
"image-keyboard-response",140,145595,"0.0-3.43-0.43","fbuz53cba3m7vvk",114,"200.csv","","289","resources/trios/L4T2A3.jpg","37","restless",0.5,0.4,0.5,0.262844975505385,"true"
"image-keyboard-response",141,145998,"0.0-3.43-1.43","fbuz53cba3m7vvk",114,"200.csv","","null","resources/maskTrios/L4BB.jpg","null","",NA,NA,NA,NA,""
"image-keyboard-response",142,147201,"0.0-3.43-2.43","fbuz53cba3m7vvk",114,"200.csv","","null","resources/images/coin2.png","null","",NA,NA,NA,NA,""
"image-keyboard-response",143,147522,"0.0-3.44-0.44","fbuz53cba3m7vvk",114,"200.csv","","319","resources/trios/L4T1A2.jpg","38","restless",0.5,0.4,0.5,0.651309520873514,"false"
"image-keyboard-response",144,147925,"0.0-3.44-1.44","fbuz53cba3m7vvk",114,"200.csv","","null","resources/maskTrios/BT1B.jpg","null","",NA,NA,NA,NA,""
"image-keyboard-response",145,149128,"0.0-3.44-2.44","fbuz53cba3m7vvk",114,"200.csv","","null","resources/images/fishbone.png","null","",NA,NA,NA,NA,""
"image-keyboard-response",146,149393,"0.0-3.45-0.45","fbuz53cba3m7vvk",114,"200.csv","","263","resources/trios/L4T2A3.jpg","39","restless",0.5,0.4,0.5,0.00898626505967093,"true"
"image-keyboard-response",147,149797,"0.0-3.45-1.45","fbuz53cba3m7vvk",114,"200.csv","","null","resources/maskTrios/BBA3.jpg","null","",NA,NA,NA,NA,""
"image-keyboard-response",148,151000,"0.0-3.45-2.45","fbuz53cba3m7vvk",114,"200.csv","","null","resources/images/coin2.png","null","",NA,NA,NA,NA,""
"image-keyboard-response",149,151338,"0.0-3.46-0.46","fbuz53cba3m7vvk",114,"200.csv","","336","resources/trios/L4T2A3.jpg","37","restless",0.4,0.3,0.5,0.449394776031403,"false"
"image-keyboard-response",150,151741,"0.0-3.46-1.46","fbuz53cba3m7vvk",114,"200.csv","","null","resources/maskTrios/L4BB.jpg","null","",NA,NA,NA,NA,""
"image-keyboard-response",151,152943,"0.0-3.46-2.46","fbuz53cba3m7vvk",114,"200.csv","","null","resources/images/fishbone.png","null","",NA,NA,NA,NA,""
"image-keyboard-response",152,153218,"0.0-3.47-0.47","fbuz53cba3m7vvk",114,"200.csv","","273","resources/trios/L2T1A2.jpg","38","restless",0.4,0.3,0.5,0.375217364738133,"false"
"image-keyboard-response",153,153621,"0.0-3.47-1.47","fbuz53cba3m7vvk",114,"200.csv","","null","resources/maskTrios/BT1B.jpg","null","",NA,NA,NA,NA,""
"image-keyboard-response",154,154824,"0.0-3.47-2.47","fbuz53cba3m7vvk",114,"200.csv","","null","resources/images/fishbone.png","null","",NA,NA,NA,NA,""
"image-keyboard-response",155,154829,"0.0-3.48-0.48","fbuz53cba3m7vvk",114,"200.csv","","3","resources/trios/L2T2A2.jpg","39","restless",0.4,0.3,0.5,0.951173991675228,"false"
"image-keyboard-response",156,155233,"0.0-3.48-1.48","fbuz53cba3m7vvk",114,"200.csv","","null","resources/maskTrios/BBA2.jpg","null","",NA,NA,NA,NA,""
"image-keyboard-response",157,156436,"0.0-3.48-2.48","fbuz53cba3m7vvk",114,"200.csv","","null","resources/images/fishbone.png","null","",NA,NA,NA,NA,""
"image-keyboard-response",158,157582,"0.0-3.49-0.49","fbuz53cba3m7vvk",114,"200.csv","","1142","resources/trios/L2T1A3.jpg","37","restless",0.5,0.3,0.5,0.576169000459932,"false"
"image-keyboard-response",159,157985,"0.0-3.49-1.49","fbuz53cba3m7vvk",114,"200.csv","","null","resources/maskTrios/L2BB.jpg","null","",NA,NA,NA,NA,""
"image-keyboard-response",160,159188,"0.0-3.49-2.49","fbuz53cba3m7vvk",114,"200.csv","","null","resources/images/fishbone.png","null","",NA,NA,NA,NA,""
"image-keyboard-response",161,159548,"0.0-3.50-0.50","fbuz53cba3m7vvk",114,"200.csv","","358","resources/trios/L4T2A3.jpg","39","restless",0.5,0.3,0.4,0.508702310151321,"false"
"image-keyboard-response",162,159954,"0.0-3.50-1.50","fbuz53cba3m7vvk",114,"200.csv","","null","resources/maskTrios/BBA3.jpg","null","",NA,NA,NA,NA,""
"image-keyboard-response",163,161156,"0.0-3.50-2.50","fbuz53cba3m7vvk",114,"200.csv","","null","resources/images/fishbone.png","null","",NA,NA,NA,NA,""
"image-keyboard-response",164,161552,"0.0-3.51-0.51","fbuz53cba3m7vvk",114,"200.csv","","394","resources/trios/L4T1A3.jpg","38","restless",0.5,0.3,0.4,0.0502052541346992,"true"
"image-keyboard-response",165,161955,"0.0-3.51-1.51","fbuz53cba3m7vvk",114,"200.csv","","null","resources/maskTrios/BT1B.jpg","null","",NA,NA,NA,NA,""
"image-keyboard-response",166,163158,"0.0-3.51-2.51","fbuz53cba3m7vvk",114,"200.csv","","null","resources/images/coin2.png","null","",NA,NA,NA,NA,""
"image-keyboard-response",167,163501,"0.0-3.52-0.52","fbuz53cba3m7vvk",114,"200.csv","","341.0000000000291","resources/trios/L2T2A2.jpg","39","restless",0.5,0.3,0.4,0.650480005721844,"false"
"image-keyboard-response",168,163904,"0.0-3.52-1.52","fbuz53cba3m7vvk",114,"200.csv","","null","resources/maskTrios/BBA2.jpg","null","",NA,NA,NA,NA,""
"image-keyboard-response",169,165107,"0.0-3.52-2.52","fbuz53cba3m7vvk",114,"200.csv","","null","resources/images/fishbone.png","null","",NA,NA,NA,NA,""
"image-keyboard-response",170,165380,"0.0-3.53-0.53","fbuz53cba3m7vvk",114,"200.csv","","271","resources/trios/L2T2A2.jpg","38","restless",0.5,0.3,0.4,0.290208129744902,"true"
"image-keyboard-response",171,165783,"0.0-3.53-1.53","fbuz53cba3m7vvk",114,"200.csv","","null","resources/maskTrios/BT2B.jpg","null","",NA,NA,NA,NA,""
"image-keyboard-response",172,166986,"0.0-3.53-2.53","fbuz53cba3m7vvk",114,"200.csv","","null","resources/images/coin2.png","null","",NA,NA,NA,NA,""
"image-keyboard-response",173,167422,"0.0-3.54-0.54","fbuz53cba3m7vvk",114,"200.csv","","433","resources/trios/L4T2A2.jpg","38","restless",0.5,0.3,0.4,0.159132514092736,"true"
"image-keyboard-response",174,167827,"0.0-3.54-1.54","fbuz53cba3m7vvk",114,"200.csv","","null","resources/maskTrios/BT2B.jpg","null","",NA,NA,NA,NA,""
"image-keyboard-response",175,169030,"0.0-3.54-2.54","fbuz53cba3m7vvk",114,"200.csv","","null","resources/images/coin2.png","null","",NA,NA,NA,NA,""
"image-keyboard-response",176,169739,"0.0-3.55-0.55","fbuz53cba3m7vvk",114,"200.csv","","706","resources/trios/L4T1A2.jpg","37","restless",0.5,0.3,0.4,0.36689014209831,"true"
"image-keyboard-response",177,170142,"0.0-3.55-1.55","fbuz53cba3m7vvk",114,"200.csv","","null","resources/maskTrios/L4BB.jpg","null","",NA,NA,NA,NA,""
"image-keyboard-response",178,171345,"0.0-3.55-2.55","fbuz53cba3m7vvk",114,"200.csv","","null","resources/images/coin2.png","null","",NA,NA,NA,NA,""
"image-keyboard-response",179,171809,"0.0-3.56-0.56","fbuz53cba3m7vvk",114,"200.csv","","461","resources/trios/L4T2A2.jpg","38","restless",0.5,0.3,0.4,0.413999017217974,"false"
"image-keyboard-response",180,172214,"0.0-3.56-1.56","fbuz53cba3m7vvk",114,"200.csv","","null","resources/maskTrios/BT2B.jpg","null","",NA,NA,NA,NA,""
"image-keyboard-response",181,173417,"0.0-3.56-2.56","fbuz53cba3m7vvk",114,"200.csv","","null","resources/images/fishbone.png","null","",NA,NA,NA,NA,""
"image-keyboard-response",182,173677,"0.0-3.57-0.57","fbuz53cba3m7vvk",114,"200.csv","","257","resources/trios/L4T2A3.jpg","39","restless",0.5,0.3,0.4,0.406830959358393,"false"
"image-keyboard-response",183,174081,"0.0-3.57-1.57","fbuz53cba3m7vvk",114,"200.csv","","null","resources/maskTrios/BBA3.jpg","null","",NA,NA,NA,NA,""
"image-keyboard-response",184,175283,"0.0-3.57-2.57","fbuz53cba3m7vvk",114,"200.csv","","null","resources/images/fishbone.png","null","",NA,NA,NA,NA,""
"image-keyboard-response",185,175552,"0.0-3.58-0.58","fbuz53cba3m7vvk",114,"200.csv","","266","resources/trios/L4T1A2.jpg","37","restless",0.5,0.3,0.4,0.107117127824176,"true"
"image-keyboard-response",186,175955,"0.0-3.58-1.58","fbuz53cba3m7vvk",114,"200.csv","","null","resources/maskTrios/L4BB.jpg","null","",NA,NA,NA,NA,""
"image-keyboard-response",187,177158,"0.0-3.58-2.58","fbuz53cba3m7vvk",114,"200.csv","","null","resources/images/coin2.png","null","",NA,NA,NA,NA,""
"image-keyboard-response",188,177906,"0.0-3.59-0.59","fbuz53cba3m7vvk",114,"200.csv","","746.0000000000291","resources/trios/L4T1A3.jpg","39","restless",0.5,0.4,0.4,0.626137843326993,"false"
"image-keyboard-response",189,178309,"0.0-3.59-1.59","fbuz53cba3m7vvk",114,"200.csv","","null","resources/maskTrios/BBA3.jpg","null","",NA,NA,NA,NA,""
"image-keyboard-response",190,179512,"0.0-3.59-2.59","fbuz53cba3m7vvk",114,"200.csv","","null","resources/images/fishbone.png","null","",NA,NA,NA,NA,""
"image-keyboard-response",191,179841,"0.0-3.60-0.60","fbuz53cba3m7vvk",114,"200.csv","","327","resources/trios/L2T1A3.jpg","38","restless",0.6,0.4,0.4,0.678879769476883,"false"
"image-keyboard-response",192,180244,"0.0-3.60-1.60","fbuz53cba3m7vvk",114,"200.csv","","null","resources/maskTrios/BT1B.jpg","null","",NA,NA,NA,NA,""
"image-keyboard-response",193,181447,"0.0-3.60-2.60","fbuz53cba3m7vvk",114,"200.csv","","null","resources/images/fishbone.png","null","",NA,NA,NA,NA,""
"image-keyboard-response",194,181776,"0.0-3.61-0.61","fbuz53cba3m7vvk",114,"200.csv","","326.0000000000291","resources/trios/L2T2A3.jpg","37","restless",0.6,0.4,0.4,0.982203457006757,"false"
"image-keyboard-response",195,182179,"0.0-3.61-1.61","fbuz53cba3m7vvk",114,"200.csv","","null","resources/maskTrios/L2BB.jpg","null","",NA,NA,NA,NA,""
"image-keyboard-response",196,183381,"0.0-3.61-2.61","fbuz53cba3m7vvk",114,"200.csv","","null","resources/images/fishbone.png","null","",NA,NA,NA,NA,""
"image-keyboard-response",197,183387,"0.0-3.62-0.62","fbuz53cba3m7vvk",114,"200.csv","","1","resources/trios/L4T2A3.jpg","39","restless",0.6,0.4,0.4,0.455476354878291,"false"
"image-keyboard-response",198,183790,"0.0-3.62-1.62","fbuz53cba3m7vvk",114,"200.csv","","null","resources/maskTrios/BBA3.jpg","null","",NA,NA,NA,NA,""
"image-keyboard-response",199,184993,"0.0-3.62-2.62","fbuz53cba3m7vvk",114,"200.csv","","null","resources/images/fishbone.png","null","",NA,NA,NA,NA,""
"image-keyboard-response",200,185028,"0.0-3.63-0.63","fbuz53cba3m7vvk",114,"200.csv","","32.999999999970896","resources/trios/L4T1A3.jpg","38","restless",0.6,0.4,0.4,0.289656359058619,"true"
"image-keyboard-response",201,185430,"0.0-3.63-1.63","fbuz53cba3m7vvk",114,"200.csv","","null","resources/maskTrios/BT1B.jpg","null","",NA,NA,NA,NA,""
"image-keyboard-response",202,186633,"0.0-3.63-2.63","fbuz53cba3m7vvk",114,"200.csv","","null","resources/images/coin2.png","null","",NA,NA,NA,NA,""
"image-keyboard-response",203,187545,"0.0-3.64-0.64","fbuz53cba3m7vvk",114,"200.csv","","910","resources/trios/L4T1A2.jpg","38","restless",0.6,0.4,0.4,0.378325049143404,"true"
"image-keyboard-response",204,187948,"0.0-3.64-1.64","fbuz53cba3m7vvk",114,"200.csv","","null","resources/maskTrios/BT1B.jpg","null","",NA,NA,NA,NA,""
"image-keyboard-response",205,189151,"0.0-3.64-2.64","fbuz53cba3m7vvk",114,"200.csv","","null","resources/images/coin2.png","null","",NA,NA,NA,NA,""
"image-keyboard-response",206,189791,"0.0-3.65-0.65","fbuz53cba3m7vvk",114,"200.csv","","638","resources/trios/L2T1A2.jpg","37","restless",0.6,0.4,0.4,0.0457152570554209,"true"
"image-keyboard-response",207,190194,"0.0-3.65-1.65","fbuz53cba3m7vvk",114,"200.csv","","null","resources/maskTrios/L2BB.jpg","null","",NA,NA,NA,NA,""
"image-keyboard-response",208,191397,"0.0-3.65-2.65","fbuz53cba3m7vvk",114,"200.csv","","null","resources/images/coin2.png","null","",NA,NA,NA,NA,""
"image-keyboard-response",209,191798,"0.0-3.66-0.66","fbuz53cba3m7vvk",114,"200.csv","","394","resources/trios/L4T2A2.jpg","39","restless",0.6,0.4,0.4,0.557274888041675,"false"
"image-keyboard-response",210,192201,"0.0-3.66-1.66","fbuz53cba3m7vvk",114,"200.csv","","null","resources/maskTrios/BBA2.jpg","null","",NA,NA,NA,NA,""
"image-keyboard-response",211,193404,"0.0-3.66-2.66","fbuz53cba3m7vvk",114,"200.csv","","null","resources/images/fishbone.png","null","",NA,NA,NA,NA,""
"image-keyboard-response",212,193862,"0.0-3.67-0.67","fbuz53cba3m7vvk",114,"200.csv","","454.9999999999709","resources/trios/L4T1A3.jpg","38","restless",0.6,0.5,0.4,0.848280881626329,"false"
"image-keyboard-response",213,194265,"0.0-3.67-1.67","fbuz53cba3m7vvk",114,"200.csv","","null","resources/maskTrios/BT1B.jpg","null","",NA,NA,NA,NA,""
"image-keyboard-response",214,195468,"0.0-3.67-2.67","fbuz53cba3m7vvk",114,"200.csv","","null","resources/images/fishbone.png","null","",NA,NA,NA,NA,""
"image-keyboard-response",215,195748,"0.0-3.68-0.68","fbuz53cba3m7vvk",114,"200.csv","","275.9999999999709","resources/trios/L4T2A3.jpg","37","restless",0.7,0.5,0.4,0.0501147101279065,"true"
"image-keyboard-response",216,196151,"0.0-3.68-1.68","fbuz53cba3m7vvk",114,"200.csv","","null","resources/maskTrios/L4BB.jpg","null","",NA,NA,NA,NA,""
"image-keyboard-response",217,197354,"0.0-3.68-2.68","fbuz53cba3m7vvk",114,"200.csv","","null","resources/images/coin2.png","null","",NA,NA,NA,NA,""
"image-keyboard-response",218,198078,"0.0-3.69-0.69","fbuz53cba3m7vvk",114,"200.csv","","722","resources/trios/L2T2A3.jpg","38","restless",0.7,0.5,0.3,0.0822319914417721,"true"
"image-keyboard-response",219,198481,"0.0-3.69-1.69","fbuz53cba3m7vvk",114,"200.csv","","null","resources/maskTrios/BT2B.jpg","null","",NA,NA,NA,NA,""
"image-keyboard-response",220,199684,"0.0-3.69-2.69","fbuz53cba3m7vvk",114,"200.csv","","null","resources/images/coin2.png","null","",NA,NA,NA,NA,""
"image-keyboard-response",221,199980,"0.0-3.70-0.70","fbuz53cba3m7vvk",114,"200.csv","","293.9999999999709","resources/trios/L2T1A3.jpg","39","restless",0.7,0.5,0.3,0.11889736046624,"true"
"image-keyboard-response",222,200383,"0.0-3.70-1.70","fbuz53cba3m7vvk",114,"200.csv","","null","resources/maskTrios/BBA3.jpg","null","",NA,NA,NA,NA,""
"image-keyboard-response",223,201586,"0.0-3.70-2.70","fbuz53cba3m7vvk",114,"200.csv","","null","resources/images/coin2.png","null","",NA,NA,NA,NA,""
"image-keyboard-response",224,201885,"0.0-3.71-0.71","fbuz53cba3m7vvk",114,"200.csv","","296","resources/trios/L4T2A2.jpg","39","restless",0.7,0.5,0.3,0.321188699643362,"false"
"image-keyboard-response",225,202288,"0.0-3.71-1.71","fbuz53cba3m7vvk",114,"200.csv","","null","resources/maskTrios/BBA2.jpg","null","",NA,NA,NA,NA,""
"image-keyboard-response",226,203490,"0.0-3.71-2.71","fbuz53cba3m7vvk",114,"200.csv","","null","resources/images/fishbone.png","null","",NA,NA,NA,NA,""
"image-keyboard-response",227,203768,"0.0-3.72-0.72","fbuz53cba3m7vvk",114,"200.csv","","275","resources/trios/L4T2A2.jpg","37","restless",0.7,0.5,0.3,0.732536843235471,"false"
"image-keyboard-response",228,204171,"0.0-3.72-1.72","fbuz53cba3m7vvk",114,"200.csv","","null","resources/maskTrios/L4BB.jpg","null","",NA,NA,NA,NA,""
"image-keyboard-response",229,205374,"0.0-3.72-2.72","fbuz53cba3m7vvk",114,"200.csv","","null","resources/images/fishbone.png","null","",NA,NA,NA,NA,""
"image-keyboard-response",230,205657,"0.0-3.73-0.73","fbuz53cba3m7vvk",114,"200.csv","","282","resources/trios/L4T2A2.jpg","38","restless",0.7,0.5,0.3,0.14586039439515,"true"
"image-keyboard-response",231,206060,"0.0-3.73-1.73","fbuz53cba3m7vvk",114,"200.csv","","null","resources/maskTrios/BT2B.jpg","null","",NA,NA,NA,NA,""
"image-keyboard-response",232,207263,"0.0-3.73-2.73","fbuz53cba3m7vvk",114,"200.csv","","null","resources/images/coin2.png","null","",NA,NA,NA,NA,""
"image-keyboard-response",233,207544,"0.0-3.74-0.74","fbuz53cba3m7vvk",114,"200.csv","","279","resources/trios/L4T1A2.jpg","37","restless",0.7,0.4,0.4,0.350591941605194,"true"
"image-keyboard-response",234,207950,"0.0-3.74-1.74","fbuz53cba3m7vvk",114,"200.csv","","null","resources/maskTrios/L4BB.jpg","null","",NA,NA,NA,NA,""
"image-keyboard-response",235,209154,"0.0-3.74-2.74","fbuz53cba3m7vvk",114,"200.csv","","null","resources/images/coin2.png","null","",NA,NA,NA,NA,""
"image-keyboard-response",236,209516,"0.0-3.75-0.75","fbuz53cba3m7vvk",114,"200.csv","","358.9999999999709","resources/trios/L2T1A2.jpg","37","restless",0.7,0.4,0.4,0.941595625170406,"false"
"image-keyboard-response",237,209919,"0.0-3.75-1.75","fbuz53cba3m7vvk",114,"200.csv","","null","resources/maskTrios/L2BB.jpg","null","",NA,NA,NA,NA,""
"image-keyboard-response",238,211122,"0.0-3.75-2.75","fbuz53cba3m7vvk",114,"200.csv","","null","resources/images/fishbone.png","null","",NA,NA,NA,NA,""
"image-keyboard-response",239,211291,"0.0-3.76-0.76","fbuz53cba3m7vvk",114,"200.csv","","166","resources/trios/L4T1A2.jpg","39","restless",0.7,0.4,0.4,0.033474015184375,"true"
"image-keyboard-response",240,211694,"0.0-3.76-1.76","fbuz53cba3m7vvk",114,"200.csv","","null","resources/maskTrios/BBA2.jpg","null","",NA,NA,NA,NA,""
"image-keyboard-response",241,212897,"0.0-3.76-2.76","fbuz53cba3m7vvk",114,"200.csv","","null","resources/images/coin2.png","null","",NA,NA,NA,NA,""
"image-keyboard-response",242,213153,"0.0-3.77-0.77","fbuz53cba3m7vvk",114,"200.csv","","254","resources/trios/L4T2A2.jpg","38","restless",0.7,0.4,0.4,0.879132725877329,"false"
"image-keyboard-response",243,213557,"0.0-3.77-1.77","fbuz53cba3m7vvk",114,"200.csv","","null","resources/maskTrios/BT2B.jpg","null","",NA,NA,NA,NA,""
"image-keyboard-response",244,214759,"0.0-3.77-2.77","fbuz53cba3m7vvk",114,"200.csv","","null","resources/images/fishbone.png","null","",NA,NA,NA,NA,""
"image-keyboard-response",245,215204,"0.0-3.78-0.78","fbuz53cba3m7vvk",114,"200.csv","","442","resources/trios/L2T1A2.jpg","37","restless",0.7,0.4,0.4,0.563127019933983,"true"
"image-keyboard-response",246,215607,"0.0-3.78-1.78","fbuz53cba3m7vvk",114,"200.csv","","null","resources/maskTrios/L2BB.jpg","null","",NA,NA,NA,NA,""
"image-keyboard-response",247,216810,"0.0-3.78-2.78","fbuz53cba3m7vvk",114,"200.csv","","null","resources/images/coin2.png","null","",NA,NA,NA,NA,""
"image-keyboard-response",248,217395,"0.0-3.79-0.79","fbuz53cba3m7vvk",114,"200.csv","","583","resources/trios/L4T2A3.jpg","39","restless",0.7,0.4,0.4,0.690680346274468,"false"
"image-keyboard-response",249,217799,"0.0-3.79-1.79","fbuz53cba3m7vvk",114,"200.csv","","null","resources/maskTrios/BBA3.jpg","null","",NA,NA,NA,NA,""
"image-keyboard-response",250,219001,"0.0-3.79-2.79","fbuz53cba3m7vvk",114,"200.csv","","null","resources/images/fishbone.png","null","",NA,NA,NA,NA,""
"image-keyboard-response",251,219265,"0.0-3.80-0.80","fbuz53cba3m7vvk",114,"200.csv","","262","resources/trios/L4T2A2.jpg","38","restless",0.7,0.4,0.4,0.349262498668996,"true"
"image-keyboard-response",252,219668,"0.0-3.80-1.80","fbuz53cba3m7vvk",114,"200.csv","","null","resources/maskTrios/BT2B.jpg","null","",NA,NA,NA,NA,""
"image-keyboard-response",253,220874,"0.0-3.80-2.80","fbuz53cba3m7vvk",114,"200.csv","","null","resources/images/coin2.png","null","",NA,NA,NA,NA,""
"image-keyboard-response",254,221646,"0.0-3.81-0.81","fbuz53cba3m7vvk",114,"200.csv","","768","resources/trios/L2T1A3.jpg","37","restless",0.7,0.4,0.4,0.100819852725426,"true"
"image-keyboard-response",255,222051,"0.0-3.81-1.81","fbuz53cba3m7vvk",114,"200.csv","","null","resources/maskTrios/L2BB.jpg","null","",NA,NA,NA,NA,""
"image-keyboard-response",256,223254,"0.0-3.81-2.81","fbuz53cba3m7vvk",114,"200.csv","","null","resources/images/coin2.png","null","",NA,NA,NA,NA,""
"image-keyboard-response",257,223988,"0.0-3.82-0.82","fbuz53cba3m7vvk",114,"200.csv","","732","resources/trios/L4T2A3.jpg","38","restless",0.7,0.4,0.4,0.437800329045479,"false"
"image-keyboard-response",258,224390,"0.0-3.82-1.82","fbuz53cba3m7vvk",114,"200.csv","","null","resources/maskTrios/BT2B.jpg","null","",NA,NA,NA,NA,""
"image-keyboard-response",259,225593,"0.0-3.82-2.82","fbuz53cba3m7vvk",114,"200.csv","","null","resources/images/fishbone.png","null","",NA,NA,NA,NA,""
"image-keyboard-response",260,225879,"0.0-3.83-0.83","fbuz53cba3m7vvk",114,"200.csv","","284","resources/trios/L4T1A3.jpg","39","restless",0.7,0.4,0.4,0.963613580363979,"false"
"image-keyboard-response",261,226283,"0.0-3.83-1.83","fbuz53cba3m7vvk",114,"200.csv","","null","resources/maskTrios/BBA3.jpg","null","",NA,NA,NA,NA,""
"image-keyboard-response",262,227486,"0.0-3.83-2.83","fbuz53cba3m7vvk",114,"200.csv","","null","resources/images/fishbone.png","null","",NA,NA,NA,NA,""
"image-keyboard-response",263,227739,"0.0-3.84-0.84","fbuz53cba3m7vvk",114,"200.csv","","251","resources/trios/L4T2A3.jpg","37","restless",0.7,0.4,0.4,0.401993138973035,"true"
"image-keyboard-response",264,228142,"0.0-3.84-1.84","fbuz53cba3m7vvk",114,"200.csv","","null","resources/maskTrios/L4BB.jpg","null","",NA,NA,NA,NA,""
"image-keyboard-response",265,229345,"0.0-3.84-2.84","fbuz53cba3m7vvk",114,"200.csv","","null","resources/images/coin2.png","null","",NA,NA,NA,NA,""
"image-keyboard-response",266,231428,"0.0-3.85-0.85","fbuz53cba3m7vvk",114,"200.csv","","2080","resources/trios/L4T2A2.jpg","38","restless",0.7,0.4,0.3,0.840796817060337,"false"
"image-keyboard-response",267,231832,"0.0-3.85-1.85","fbuz53cba3m7vvk",114,"200.csv","","null","resources/maskTrios/BT2B.jpg","null","",NA,NA,NA,NA,""
"image-keyboard-response",268,233034,"0.0-3.85-2.85","fbuz53cba3m7vvk",114,"200.csv","","null","resources/images/fishbone.png","null","",NA,NA,NA,NA,""
"image-keyboard-response",269,233266,"0.0-3.86-0.86","fbuz53cba3m7vvk",114,"200.csv","","229","resources/trios/L4T1A3.jpg","39","restless",0.7,0.4,0.3,0.06021894977204,"true"
"image-keyboard-response",270,233669,"0.0-3.86-1.86","fbuz53cba3m7vvk",114,"200.csv","","null","resources/maskTrios/BBA3.jpg","null","",NA,NA,NA,NA,""
"image-keyboard-response",271,234872,"0.0-3.86-2.86","fbuz53cba3m7vvk",114,"200.csv","","null","resources/images/coin2.png","null","",NA,NA,NA,NA,""
"image-keyboard-response",272,235745,"0.0-3.87-0.87","fbuz53cba3m7vvk",114,"200.csv","","870","resources/trios/L4T2A3.jpg","38","restless",0.6,0.4,0.3,0.765896680621892,"false"
"image-keyboard-response",273,236148,"0.0-3.87-1.87","fbuz53cba3m7vvk",114,"200.csv","","null","resources/maskTrios/BT2B.jpg","null","",NA,NA,NA,NA,""
"image-keyboard-response",274,237351,"0.0-3.87-2.87","fbuz53cba3m7vvk",114,"200.csv","","null","resources/images/fishbone.png","null","",NA,NA,NA,NA,""
"image-keyboard-response",275,237650,"0.0-3.88-0.88","fbuz53cba3m7vvk",114,"200.csv","","293.0000000000291","resources/trios/L2T1A3.jpg","37","restless",0.6,0.4,0.3,0.360436260302827,"true"
"image-keyboard-response",276,238053,"0.0-3.88-1.88","fbuz53cba3m7vvk",114,"200.csv","","null","resources/maskTrios/L2BB.jpg","null","",NA,NA,NA,NA,""
"image-keyboard-response",277,239256,"0.0-3.88-2.88","fbuz53cba3m7vvk",114,"200.csv","","null","resources/images/coin2.png","null","",NA,NA,NA,NA,""
"image-keyboard-response",278,240270,"0.0-3.89-0.89","fbuz53cba3m7vvk",114,"200.csv","","1011.0000000000291","resources/trios/L4T2A2.jpg","37","restless",0.6,0.4,0.3,0.282835833263372,"true"
"image-keyboard-response",279,240673,"0.0-3.89-1.89","fbuz53cba3m7vvk",114,"200.csv","","null","resources/maskTrios/L4BB.jpg","null","",NA,NA,NA,NA,""
"image-keyboard-response",280,241876,"0.0-3.89-2.89","fbuz53cba3m7vvk",114,"200.csv","","null","resources/images/coin2.png","null","",NA,NA,NA,NA,""
"image-keyboard-response",281,243462,"0.0-3.90-0.90","fbuz53cba3m7vvk",114,"200.csv","","1583","resources/trios/L4T2A3.jpg","38","restless",0.6,0.5,0.3,0.752886019597779,"false"
"image-keyboard-response",282,243864,"0.0-3.90-1.90","fbuz53cba3m7vvk",114,"200.csv","","null","resources/maskTrios/BT2B.jpg","null","",NA,NA,NA,NA,""
"image-keyboard-response",283,245067,"0.0-3.90-2.90","fbuz53cba3m7vvk",114,"200.csv","","null","resources/images/fishbone.png","null","",NA,NA,NA,NA,""
"image-keyboard-response",284,245379,"0.0-3.91-0.91","fbuz53cba3m7vvk",114,"200.csv","","309","resources/trios/L2T1A2.jpg","37","restless",0.6,0.5,0.3,0.0316348053947476,"true"
"image-keyboard-response",285,245782,"0.0-3.91-1.91","fbuz53cba3m7vvk",114,"200.csv","","null","resources/maskTrios/L2BB.jpg","null","",NA,NA,NA,NA,""
"image-keyboard-response",286,246985,"0.0-3.91-2.91","fbuz53cba3m7vvk",114,"200.csv","","null","resources/images/coin2.png","null","",NA,NA,NA,NA,""
"image-keyboard-response",287,248083,"0.0-3.92-0.92","fbuz53cba3m7vvk",114,"200.csv","","1095","resources/trios/L2T2A2.jpg","39","restless",0.6,0.5,0.3,0.734232295513908,"false"
"image-keyboard-response",288,248487,"0.0-3.92-1.92","fbuz53cba3m7vvk",114,"200.csv","","null","resources/maskTrios/BBA2.jpg","null","",NA,NA,NA,NA,""
"image-keyboard-response",289,249690,"0.0-3.92-2.92","fbuz53cba3m7vvk",114,"200.csv","","null","resources/images/fishbone.png","null","",NA,NA,NA,NA,""
"image-keyboard-response",290,250205,"0.0-3.93-0.93","fbuz53cba3m7vvk",114,"200.csv","","513.0000000000291","resources/trios/L2T1A2.jpg","37","restless",0.6,0.5,0.3,0.828794098293386,"false"
"image-keyboard-response",291,250608,"0.0-3.93-1.93","fbuz53cba3m7vvk",114,"200.csv","","null","resources/maskTrios/L2BB.jpg","null","",NA,NA,NA,NA,""
"image-keyboard-response",292,251811,"0.0-3.93-2.93","fbuz53cba3m7vvk",114,"200.csv","","null","resources/images/fishbone.png","null","",NA,NA,NA,NA,""
"image-keyboard-response",293,252146,"0.0-3.94-0.94","fbuz53cba3m7vvk",114,"200.csv","","333","resources/trios/L2T2A3.jpg","38","restless",0.6,0.5,0.3,0.0177534009897037,"true"
"image-keyboard-response",294,252549,"0.0-3.94-1.94","fbuz53cba3m7vvk",114,"200.csv","","null","resources/maskTrios/BT2B.jpg","null","",NA,NA,NA,NA,""
"image-keyboard-response",295,253756,"0.0-3.94-2.94","fbuz53cba3m7vvk",114,"200.csv","","null","resources/images/coin2.png","null","",NA,NA,NA,NA,""
"image-keyboard-response",296,255686,"0.0-3.95-0.95","fbuz53cba3m7vvk",114,"200.csv","","1927.999999999971","resources/trios/L4T2A3.jpg","39","restless",0.6,0.5,0.3,0.455756116676119,"false"
"image-keyboard-response",297,256089,"0.0-3.95-1.95","fbuz53cba3m7vvk",114,"200.csv","","null","resources/maskTrios/BBA3.jpg","null","",NA,NA,NA,NA,""
"image-keyboard-response",298,257292,"0.0-3.95-2.95","fbuz53cba3m7vvk",114,"200.csv","","null","resources/images/fishbone.png","null","",NA,NA,NA,NA,""
"image-keyboard-response",299,258214,"0.0-3.96-0.96","fbuz53cba3m7vvk",114,"200.csv","","920","resources/trios/L2T1A3.jpg","38","restless",0.6,0.4,0.3,0.96669678168543,"false"
"image-keyboard-response",300,258617,"0.0-3.96-1.96","fbuz53cba3m7vvk",114,"200.csv","","null","resources/maskTrios/BT1B.jpg","null","",NA,NA,NA,NA,""
"image-keyboard-response",301,259820,"0.0-3.96-2.96","fbuz53cba3m7vvk",114,"200.csv","","null","resources/images/fishbone.png","null","",NA,NA,NA,NA,""
"image-keyboard-response",302,260196,"0.0-3.97-0.97","fbuz53cba3m7vvk",114,"200.csv","","374.0000000000582","resources/trios/L2T2A2.jpg","37","restless",0.6,0.4,0.3,0.0592110881342796,"true"
"image-keyboard-response",303,260599,"0.0-3.97-1.97","fbuz53cba3m7vvk",114,"200.csv","","null","resources/maskTrios/L2BB.jpg","null","",NA,NA,NA,NA,""
"image-keyboard-response",304,261802,"0.0-3.97-2.97","fbuz53cba3m7vvk",114,"200.csv","","null","resources/images/coin2.png","null","",NA,NA,NA,NA,""
"image-keyboard-response",305,263521,"0.0-3.98-0.98","fbuz53cba3m7vvk",114,"200.csv","","1716","resources/trios/L2T2A3.jpg","37","restless",0.6,0.4,0.2,0.905627765377906,"false"
"image-keyboard-response",306,263925,"0.0-3.98-1.98","fbuz53cba3m7vvk",114,"200.csv","","null","resources/maskTrios/L2BB.jpg","null","",NA,NA,NA,NA,""
"image-keyboard-response",307,265127,"0.0-3.98-2.98","fbuz53cba3m7vvk",114,"200.csv","","null","resources/images/fishbone.png","null","",NA,NA,NA,NA,""
"image-keyboard-response",308,265374,"0.0-3.99-0.99","fbuz53cba3m7vvk",114,"200.csv","","245.0000000000582","resources/trios/L4T1A3.jpg","38","restless",0.6,0.4,0.1,0.718882431999538,"false"
"image-keyboard-response",309,265777,"0.0-3.99-1.99","fbuz53cba3m7vvk",114,"200.csv","","null","resources/maskTrios/BT1B.jpg","null","",NA,NA,NA,NA,""
"image-keyboard-response",310,266980,"0.0-3.99-2.99","fbuz53cba3m7vvk",114,"200.csv","","null","resources/images/fishbone.png","null","",NA,NA,NA,NA,""
"image-keyboard-response",311,267034,"0.0-3.100-0.100","fbuz53cba3m7vvk",114,"200.csv","","51","resources/trios/L2T1A3.jpg","39","restless",0.6,0.4,0.1,0.950789480293824,"false"
"image-keyboard-response",312,267436,"0.0-3.100-1.100","fbuz53cba3m7vvk",114,"200.csv","","null","resources/maskTrios/BBA3.jpg","null","",NA,NA,NA,NA,""
"image-keyboard-response",313,268638,"0.0-3.100-2.100","fbuz53cba3m7vvk",114,"200.csv","","null","resources/images/fishbone.png","null","",NA,NA,NA,NA,""
"image-keyboard-response",314,269151,"0.0-3.101-0.101","fbuz53cba3m7vvk",114,"200.csv","","508","resources/trios/L4T1A2.jpg","37","restless",0.6,0.4,0.1,0.242477792712218,"true"
"image-keyboard-response",315,269554,"0.0-3.101-1.101","fbuz53cba3m7vvk",114,"200.csv","","null","resources/maskTrios/L4BB.jpg","null","",NA,NA,NA,NA,""
"image-keyboard-response",316,270757,"0.0-3.101-2.101","fbuz53cba3m7vvk",114,"200.csv","","null","resources/images/coin2.png","null","",NA,NA,NA,NA,""
"image-keyboard-response",317,271233,"0.0-3.102-0.102","fbuz53cba3m7vvk",114,"200.csv","","472.0000000000582","resources/trios/L2T2A2.jpg","37","restless",0.6,0.4,0.2,0.926685795908466,"false"
"image-keyboard-response",318,271636,"0.0-3.102-1.102","fbuz53cba3m7vvk",114,"200.csv","","null","resources/maskTrios/L2BB.jpg","null","",NA,NA,NA,NA,""
"image-keyboard-response",319,272839,"0.0-3.102-2.102","fbuz53cba3m7vvk",114,"200.csv","","null","resources/images/fishbone.png","null","",NA,NA,NA,NA,""
"image-keyboard-response",320,273113,"0.0-3.103-0.103","fbuz53cba3m7vvk",114,"200.csv","","272","resources/trios/L4T2A3.jpg","38","restless",0.6,0.5,0.2,0.199896921050751,"true"
"image-keyboard-response",321,273516,"0.0-3.103-1.103","fbuz53cba3m7vvk",114,"200.csv","","null","resources/maskTrios/BT2B.jpg","null","",NA,NA,NA,NA,""
"image-keyboard-response",322,274719,"0.0-3.103-2.103","fbuz53cba3m7vvk",114,"200.csv","","null","resources/images/coin2.png","null","",NA,NA,NA,NA,""
"image-keyboard-response",323,275187,"0.0-3.104-0.104","fbuz53cba3m7vvk",114,"200.csv","","464","resources/trios/L4T1A3.jpg","39","restless",0.6,0.5,0.2,0.372329325355607,"false"
"image-keyboard-response",324,275590,"0.0-3.104-1.104","fbuz53cba3m7vvk",114,"200.csv","","null","resources/maskTrios/BBA3.jpg","null","",NA,NA,NA,NA,""
"image-keyboard-response",325,276792,"0.0-3.104-2.104","fbuz53cba3m7vvk",114,"200.csv","","null","resources/images/fishbone.png","null","",NA,NA,NA,NA,""
"image-keyboard-response",326,276802,"0.0-3.105-0.105","fbuz53cba3m7vvk",114,"200.csv","","7","resources/trios/L4T1A2.jpg","37","restless",0.6,0.5,0.2,0.894728198573124,"false"
"image-keyboard-response",327,277205,"0.0-3.105-1.105","fbuz53cba3m7vvk",114,"200.csv","","null","resources/maskTrios/L4BB.jpg","null","",NA,NA,NA,NA,""
"image-keyboard-response",328,278408,"0.0-3.105-2.105","fbuz53cba3m7vvk",114,"200.csv","","null","resources/images/fishbone.png","null","",NA,NA,NA,NA,""
"image-keyboard-response",329,278764,"0.0-3.106-0.106","fbuz53cba3m7vvk",114,"200.csv","","353.9999999999418","resources/trios/L2T1A2.jpg","38","restless",0.6,0.5,0.2,0.0413650340410372,"true"
"image-keyboard-response",330,279167,"0.0-3.106-1.106","fbuz53cba3m7vvk",114,"200.csv","","null","resources/maskTrios/BT1B.jpg","null","",NA,NA,NA,NA,""
"image-keyboard-response",331,280374,"0.0-3.106-2.106","fbuz53cba3m7vvk",114,"200.csv","","null","resources/images/coin2.png","null","",NA,NA,NA,NA,""
"image-keyboard-response",332,280911,"0.0-3.107-0.107","fbuz53cba3m7vvk",114,"200.csv","","535","resources/trios/L4T2A3.jpg","38","restless",0.6,0.6,0.2,0.1015430885019,"true"
"image-keyboard-response",333,281315,"0.0-3.107-1.107","fbuz53cba3m7vvk",114,"200.csv","","null","resources/maskTrios/BT2B.jpg","null","",NA,NA,NA,NA,""
"image-keyboard-response",334,282518,"0.0-3.107-2.107","fbuz53cba3m7vvk",114,"200.csv","","null","resources/images/coin2.png","null","",NA,NA,NA,NA,""
"image-keyboard-response",335,282938,"0.0-3.108-0.108","fbuz53cba3m7vvk",114,"200.csv","","418","resources/trios/L2T1A3.jpg","39","restless",0.6,0.6,0.2,0.541384556908109,"false"
"image-keyboard-response",336,283341,"0.0-3.108-1.108","fbuz53cba3m7vvk",114,"200.csv","","null","resources/maskTrios/BBA3.jpg","null","",NA,NA,NA,NA,""
"image-keyboard-response",337,284547,"0.0-3.108-2.108","fbuz53cba3m7vvk",114,"200.csv","","null","resources/images/fishbone.png","null","",NA,NA,NA,NA,""
"image-keyboard-response",338,284983,"0.0-3.109-0.109","fbuz53cba3m7vvk",114,"200.csv","","431","resources/trios/L4T1A3.jpg","37","restless",0.6,0.6,0.2,0.68380249000763,"false"
"image-keyboard-response",339,285387,"0.0-3.109-1.109","fbuz53cba3m7vvk",114,"200.csv","","null","resources/maskTrios/L4BB.jpg","null","",NA,NA,NA,NA,""
"image-keyboard-response",340,286590,"0.0-3.109-2.109","fbuz53cba3m7vvk",114,"200.csv","","null","resources/images/fishbone.png","null","",NA,NA,NA,NA,""
"image-keyboard-response",341,286916,"0.0-3.110-0.110","fbuz53cba3m7vvk",114,"200.csv","","324","resources/trios/L4T2A2.jpg","38","restless",0.5,0.6,0.2,0.152070584908072,"true"
"image-keyboard-response",342,287319,"0.0-3.110-1.110","fbuz53cba3m7vvk",114,"200.csv","","null","resources/maskTrios/BT2B.jpg","null","",NA,NA,NA,NA,""
"image-keyboard-response",343,288522,"0.0-3.110-2.110","fbuz53cba3m7vvk",114,"200.csv","","null","resources/images/coin2.png","null","",NA,NA,NA,NA,""
"image-keyboard-response",344,289140,"0.0-3.111-0.111","fbuz53cba3m7vvk",114,"200.csv","","616","resources/trios/L2T2A3.jpg","39","restless",0.5,0.6,0.2,0.668761859309362,"false"
"image-keyboard-response",345,289543,"0.0-3.111-1.111","fbuz53cba3m7vvk",114,"200.csv","","null","resources/maskTrios/BBA3.jpg","null","",NA,NA,NA,NA,""
"image-keyboard-response",346,290746,"0.0-3.111-2.111","fbuz53cba3m7vvk",114,"200.csv","","null","resources/images/fishbone.png","null","",NA,NA,NA,NA,""
"image-keyboard-response",347,291046,"0.0-3.112-0.112","fbuz53cba3m7vvk",114,"200.csv","","298","resources/trios/L2T1A2.jpg","37","restless",0.5,0.6,0.3,0.172005413577566,"true"
"image-keyboard-response",348,291449,"0.0-3.112-1.112","fbuz53cba3m7vvk",114,"200.csv","","null","resources/maskTrios/L2BB.jpg","null","",NA,NA,NA,NA,""
"image-keyboard-response",349,292651,"0.0-3.112-2.112","fbuz53cba3m7vvk",114,"200.csv","","null","resources/images/coin2.png","null","",NA,NA,NA,NA,""
"image-keyboard-response",350,294190,"0.0-3.113-0.113","fbuz53cba3m7vvk",114,"200.csv","","1537","resources/trios/L2T2A2.jpg","38","restless",0.5,0.6,0.3,0.588965677227595,"true"
"image-keyboard-response",351,294593,"0.0-3.113-1.113","fbuz53cba3m7vvk",114,"200.csv","","null","resources/maskTrios/BT2B.jpg","null","",NA,NA,NA,NA,""
"image-keyboard-response",352,295796,"0.0-3.113-2.113","fbuz53cba3m7vvk",114,"200.csv","","null","resources/images/coin2.png","null","",NA,NA,NA,NA,""
"image-keyboard-response",353,296539,"0.0-3.114-0.114","fbuz53cba3m7vvk",114,"200.csv","","741","resources/trios/L4T1A2.jpg","39","restless",0.5,0.6,0.3,0.983584031849237,"false"
"image-keyboard-response",354,296943,"0.0-3.114-1.114","fbuz53cba3m7vvk",114,"200.csv","","null","resources/maskTrios/BBA2.jpg","null","",NA,NA,NA,NA,""
"image-keyboard-response",355,298145,"0.0-3.114-2.114","fbuz53cba3m7vvk",114,"200.csv","","null","resources/images/fishbone.png","null","",NA,NA,NA,NA,""
"image-keyboard-response",356,298499,"0.0-3.115-0.115","fbuz53cba3m7vvk",114,"200.csv","","352.0000000000582","resources/trios/L2T2A2.jpg","38","restless",0.5,0.6,0.3,0.337914061651873,"true"
"image-keyboard-response",357,298903,"0.0-3.115-1.115","fbuz53cba3m7vvk",114,"200.csv","","null","resources/maskTrios/BT2B.jpg","null","",NA,NA,NA,NA,""
"image-keyboard-response",358,300106,"0.0-3.115-2.115","fbuz53cba3m7vvk",114,"200.csv","","null","resources/images/coin2.png","null","",NA,NA,NA,NA,""
"image-keyboard-response",359,303620,"0.0-3.116-0.116","fbuz53cba3m7vvk",114,"200.csv","","3511.000000000058","resources/trios/L4T2A3.jpg","38","restless",0.5,0.6,0.3,0.603919225292864,"false"
"image-keyboard-response",360,304023,"0.0-3.116-1.116","fbuz53cba3m7vvk",114,"200.csv","","null","resources/maskTrios/BT2B.jpg","null","",NA,NA,NA,NA,""
"image-keyboard-response",361,305226,"0.0-3.116-2.116","fbuz53cba3m7vvk",114,"200.csv","","null","resources/images/fishbone.png","null","",NA,NA,NA,NA,""
"image-keyboard-response",362,305315,"0.0-3.117-0.117","fbuz53cba3m7vvk",114,"200.csv","","86","resources/trios/L4T2A2.jpg","37","restless",0.5,0.6,0.3,0.461591240232058,"true"
"image-keyboard-response",363,305718,"0.0-3.117-1.117","fbuz53cba3m7vvk",114,"200.csv","","null","resources/maskTrios/L4BB.jpg","null","",NA,NA,NA,NA,""
"image-keyboard-response",364,306922,"0.0-3.117-2.117","fbuz53cba3m7vvk",114,"200.csv","","null","resources/images/coin2.png","null","",NA,NA,NA,NA,""
"image-keyboard-response",365,307186,"0.0-3.118-0.118","fbuz53cba3m7vvk",114,"200.csv","","261","resources/trios/L2T1A3.jpg","39","restless",0.5,0.6,0.3,0.0670589515114164,"true"
"image-keyboard-response",366,307589,"0.0-3.118-1.118","fbuz53cba3m7vvk",114,"200.csv","","null","resources/maskTrios/BBA3.jpg","null","",NA,NA,NA,NA,""
"image-keyboard-response",367,308792,"0.0-3.118-2.118","fbuz53cba3m7vvk",114,"200.csv","","null","resources/images/coin2.png","null","",NA,NA,NA,NA,""
"image-keyboard-response",368,310355,"0.0-3.119-0.119","fbuz53cba3m7vvk",114,"200.csv","","1556","resources/trios/L2T1A2.jpg","38","restless",0.5,0.6,0.4,0.684587729347815,"false"
"image-keyboard-response",369,310758,"0.0-3.119-1.119","fbuz53cba3m7vvk",114,"200.csv","","null","resources/maskTrios/BT1B.jpg","null","",NA,NA,NA,NA,""
"image-keyboard-response",370,311961,"0.0-3.119-2.119","fbuz53cba3m7vvk",114,"200.csv","","null","resources/images/fishbone.png","null","",NA,NA,NA,NA,""
"image-keyboard-response",371,312427,"0.0-3.120-0.120","fbuz53cba3m7vvk",114,"200.csv","","464","resources/trios/L4T2A3.jpg","37","restless",0.5,0.6,0.4,0.519345479893582,"false"
"image-keyboard-response",372,312830,"0.0-3.120-1.120","fbuz53cba3m7vvk",114,"200.csv","","null","resources/maskTrios/L4BB.jpg","null","",NA,NA,NA,NA,""
"image-keyboard-response",373,314033,"0.0-3.120-2.120","fbuz53cba3m7vvk",114,"200.csv","","null","resources/images/fishbone.png","null","",NA,NA,NA,NA,""
"image-keyboard-response",374,314133,"0.0-3.121-0.121","fbuz53cba3m7vvk",114,"200.csv","","97.99999999994179","resources/trios/L4T2A3.jpg","38","restless",0.5,0.6,0.4,0.925828539544971,"false"
"image-keyboard-response",375,314536,"0.0-3.121-1.121","fbuz53cba3m7vvk",114,"200.csv","","null","resources/maskTrios/BT2B.jpg","null","",NA,NA,NA,NA,""
"image-keyboard-response",376,315739,"0.0-3.121-2.121","fbuz53cba3m7vvk",114,"200.csv","","null","resources/images/fishbone.png","null","",NA,NA,NA,NA,""
"image-keyboard-response",377,315931,"0.0-3.122-0.122","fbuz53cba3m7vvk",114,"200.csv","","187","resources/trios/L2T1A2.jpg","39","restless",0.5,0.6,0.4,0.331656632165978,"true"
"image-keyboard-response",378,316335,"0.0-3.122-1.122","fbuz53cba3m7vvk",114,"200.csv","","null","resources/maskTrios/BBA2.jpg","null","",NA,NA,NA,NA,""
"image-keyboard-response",379,317538,"0.0-3.122-2.122","fbuz53cba3m7vvk",114,"200.csv","","null","resources/images/coin2.png","null","",NA,NA,NA,NA,""
"image-keyboard-response",380,317975,"0.0-3.123-0.123","fbuz53cba3m7vvk",114,"200.csv","","435","resources/trios/L4T1A2.jpg","38","restless",0.5,0.6,0.4,0.584111392185619,"true"
"image-keyboard-response",381,318378,"0.0-3.123-1.123","fbuz53cba3m7vvk",114,"200.csv","","null","resources/maskTrios/BT1B.jpg","null","",NA,NA,NA,NA,""
"image-keyboard-response",382,319580,"0.0-3.123-2.123","fbuz53cba3m7vvk",114,"200.csv","","null","resources/images/coin2.png","null","",NA,NA,NA,NA,""
"image-keyboard-response",383,319904,"0.0-3.124-0.124","fbuz53cba3m7vvk",114,"200.csv","","322","resources/trios/L4T1A3.jpg","37","restless",0.5,0.6,0.4,0.190131449940967,"true"
"image-keyboard-response",384,320309,"0.0-3.124-1.124","fbuz53cba3m7vvk",114,"200.csv","","null","resources/maskTrios/L4BB.jpg","null","",NA,NA,NA,NA,""
"image-keyboard-response",385,321513,"0.0-3.124-2.124","fbuz53cba3m7vvk",114,"200.csv","","null","resources/images/coin2.png","null","",NA,NA,NA,NA,""
"image-keyboard-response",386,321928,"0.0-3.125-0.125","fbuz53cba3m7vvk",114,"200.csv","","409","resources/trios/L2T2A2.jpg","38","restless",0.5,0.6,0.4,0.235055609231719,"true"
"image-keyboard-response",387,322331,"0.0-3.125-1.125","fbuz53cba3m7vvk",114,"200.csv","","null","resources/maskTrios/BT2B.jpg","null","",NA,NA,NA,NA,""
"image-keyboard-response",388,323535,"0.0-3.125-2.125","fbuz53cba3m7vvk",114,"200.csv","","null","resources/images/coin2.png","null","",NA,NA,NA,NA,""
"image-keyboard-response",389,323770,"0.0-3.126-0.126","fbuz53cba3m7vvk",114,"200.csv","","233","resources/trios/L2T1A2.jpg","39","restless",0.5,0.6,0.3,0.596341459603136,"false"
"image-keyboard-response",390,324174,"0.0-3.126-1.126","fbuz53cba3m7vvk",114,"200.csv","","null","resources/maskTrios/BBA2.jpg","null","",NA,NA,NA,NA,""
"image-keyboard-response",391,325377,"0.0-3.126-2.126","fbuz53cba3m7vvk",114,"200.csv","","null","resources/images/fishbone.png","null","",NA,NA,NA,NA,""
"image-keyboard-response",392,325839,"0.0-3.127-0.127","fbuz53cba3m7vvk",114,"200.csv","","460","resources/trios/L4T2A3.jpg","38","restless",0.5,0.6,0.3,0.196764118895632,"true"
"image-keyboard-response",393,326243,"0.0-3.127-1.127","fbuz53cba3m7vvk",114,"200.csv","","null","resources/maskTrios/BT2B.jpg","null","",NA,NA,NA,NA,""
"image-keyboard-response",394,327446,"0.0-3.127-2.127","fbuz53cba3m7vvk",114,"200.csv","","null","resources/images/coin2.png","null","",NA,NA,NA,NA,""
"image-keyboard-response",395,327735,"0.0-3.128-0.128","fbuz53cba3m7vvk",114,"200.csv","","286","resources/trios/L4T1A2.jpg","39","restless",0.5,0.6,0.3,0.454496868750773,"false"
"image-keyboard-response",396,328137,"0.0-3.128-1.128","fbuz53cba3m7vvk",114,"200.csv","","null","resources/maskTrios/BBA2.jpg","null","",NA,NA,NA,NA,""
"image-keyboard-response",397,329340,"0.0-3.128-2.128","fbuz53cba3m7vvk",114,"200.csv","","null","resources/images/fishbone.png","null","",NA,NA,NA,NA,""
"image-keyboard-response",398,329431,"0.0-3.129-0.129","fbuz53cba3m7vvk",114,"200.csv","","89","resources/trios/L2T2A3.jpg","37","restless",0.5,0.6,0.3,0.648058273319049,"false"
"image-keyboard-response",399,329834,"0.0-3.129-1.129","fbuz53cba3m7vvk",114,"200.csv","","null","resources/maskTrios/L2BB.jpg","null","",NA,NA,NA,NA,""
"image-keyboard-response",400,331036,"0.0-3.129-2.129","fbuz53cba3m7vvk",114,"200.csv","","null","resources/images/fishbone.png","null","",NA,NA,NA,NA,""
"image-keyboard-response",401,331131,"0.0-3.130-0.130","fbuz53cba3m7vvk",114,"200.csv","","93.00000000005821","resources/trios/L4T1A2.jpg","38","restless",0.6,0.5,0.3,0.510688656491927,"false"
"image-keyboard-response",402,331534,"0.0-3.130-1.130","fbuz53cba3m7vvk",114,"200.csv","","null","resources/maskTrios/BT1B.jpg","null","",NA,NA,NA,NA,""
"image-keyboard-response",403,332737,"0.0-3.130-2.130","fbuz53cba3m7vvk",114,"200.csv","","null","resources/images/fishbone.png","null","",NA,NA,NA,NA,""
"image-keyboard-response",404,333406,"0.0-3.131-0.131","fbuz53cba3m7vvk",114,"200.csv","","667","resources/trios/L2T1A3.jpg","39","restless",0.6,0.5,0.4,0.261911467889354,"true"
"image-keyboard-response",405,333809,"0.0-3.131-1.131","fbuz53cba3m7vvk",114,"200.csv","","null","resources/maskTrios/BBA3.jpg","null","",NA,NA,NA,NA,""
"image-keyboard-response",406,335012,"0.0-3.131-2.131","fbuz53cba3m7vvk",114,"200.csv","","null","resources/images/coin2.png","null","",NA,NA,NA,NA,""
"image-keyboard-response",407,335361,"0.0-3.132-0.132","fbuz53cba3m7vvk",114,"200.csv","","346","resources/trios/L4T2A3.jpg","37","restless",0.6,0.6,0.4,0.394542502639549,"true"
"image-keyboard-response",408,335767,"0.0-3.132-1.132","fbuz53cba3m7vvk",114,"200.csv","","null","resources/maskTrios/L4BB.jpg","null","",NA,NA,NA,NA,""
"image-keyboard-response",409,336970,"0.0-3.132-2.132","fbuz53cba3m7vvk",114,"200.csv","","null","resources/images/coin2.png","null","",NA,NA,NA,NA,""
"image-keyboard-response",410,337268,"0.0-3.133-0.133","fbuz53cba3m7vvk",114,"200.csv","","295","resources/trios/L2T1A2.jpg","37","restless",0.6,0.6,0.4,0.0729652937954419,"true"
"image-keyboard-response",411,337671,"0.0-3.133-1.133","fbuz53cba3m7vvk",114,"200.csv","","null","resources/maskTrios/L2BB.jpg","null","",NA,NA,NA,NA,""
"image-keyboard-response",412,338874,"0.0-3.133-2.133","fbuz53cba3m7vvk",114,"200.csv","","null","resources/images/coin2.png","null","",NA,NA,NA,NA,""
"image-keyboard-response",413,339190,"0.0-3.134-0.134","fbuz53cba3m7vvk",114,"200.csv","","309","resources/trios/L2T1A3.jpg","37","restless",0.6,0.6,0.4,0.671375420520004,"false"
"image-keyboard-response",414,339593,"0.0-3.134-1.134","fbuz53cba3m7vvk",114,"200.csv","","null","resources/maskTrios/L2BB.jpg","null","",NA,NA,NA,NA,""
"image-keyboard-response",415,340796,"0.0-3.134-2.134","fbuz53cba3m7vvk",114,"200.csv","","null","resources/images/fishbone.png","null","",NA,NA,NA,NA,""
"image-keyboard-response",416,341103,"0.0-3.135-0.135","fbuz53cba3m7vvk",114,"200.csv","","304","resources/trios/L4T1A2.jpg","38","restless",0.6,0.6,0.5,0.181766885273844,"true"
"image-keyboard-response",417,341506,"0.0-3.135-1.135","fbuz53cba3m7vvk",114,"200.csv","","null","resources/maskTrios/BT1B.jpg","null","",NA,NA,NA,NA,""
"image-keyboard-response",418,342709,"0.0-3.135-2.135","fbuz53cba3m7vvk",114,"200.csv","","null","resources/images/coin2.png","null","",NA,NA,NA,NA,""
"image-keyboard-response",419,343074,"0.0-3.136-0.136","fbuz53cba3m7vvk",114,"200.csv","","363","resources/trios/L4T2A2.jpg","39","restless",0.6,0.6,0.5,0.421748572458557,"true"
"image-keyboard-response",420,343477,"0.0-3.136-1.136","fbuz53cba3m7vvk",114,"200.csv","","null","resources/maskTrios/BBA2.jpg","null","",NA,NA,NA,NA,""
"image-keyboard-response",421,344680,"0.0-3.136-2.136","fbuz53cba3m7vvk",114,"200.csv","","null","resources/images/coin2.png","null","",NA,NA,NA,NA,""
"image-keyboard-response",422,345035,"0.0-3.137-0.137","fbuz53cba3m7vvk",114,"200.csv","","350.0000000000582","resources/trios/L4T2A2.jpg","39","restless",0.6,0.6,0.5,0.232430341082417,"true"
"image-keyboard-response",423,345439,"0.0-3.137-1.137","fbuz53cba3m7vvk",114,"200.csv","","null","resources/maskTrios/BBA2.jpg","null","",NA,NA,NA,NA,""
"image-keyboard-response",424,346642,"0.0-3.137-2.137","fbuz53cba3m7vvk",114,"200.csv","","null","resources/images/coin2.png","null","",NA,NA,NA,NA,""
"image-keyboard-response",425,346984,"0.0-3.138-0.138","fbuz53cba3m7vvk",114,"200.csv","","340","resources/trios/L2T1A3.jpg","39","restless",0.6,0.6,0.5,0.953300724158942,"false"
"image-keyboard-response",426,347388,"0.0-3.138-1.138","fbuz53cba3m7vvk",114,"200.csv","","null","resources/maskTrios/BBA3.jpg","null","",NA,NA,NA,NA,""
"image-keyboard-response",427,348591,"0.0-3.138-2.138","fbuz53cba3m7vvk",114,"200.csv","","null","resources/images/fishbone.png","null","",NA,NA,NA,NA,""
"image-keyboard-response",428,348861,"0.0-3.139-0.139","fbuz53cba3m7vvk",114,"200.csv","","267","resources/trios/L4T1A2.jpg","38","restless",0.6,0.6,0.5,0.206646673954276,"true"
"image-keyboard-response",429,349263,"0.0-3.139-1.139","fbuz53cba3m7vvk",114,"200.csv","","null","resources/maskTrios/BT1B.jpg","null","",NA,NA,NA,NA,""
"image-keyboard-response",430,350467,"0.0-3.139-2.139","fbuz53cba3m7vvk",114,"200.csv","","null","resources/images/coin2.png","null","",NA,NA,NA,NA,""
"image-keyboard-response",431,350834,"0.0-3.140-0.140","fbuz53cba3m7vvk",114,"200.csv","","362.0000000000582","resources/trios/L4T1A2.jpg","37","restless",0.5,0.6,0.5,0.200240304378829,"true"
"image-keyboard-response",432,351238,"0.0-3.140-1.140","fbuz53cba3m7vvk",114,"200.csv","","null","resources/maskTrios/L4BB.jpg","null","",NA,NA,NA,NA,""
"image-keyboard-response",433,352441,"0.0-3.140-2.140","fbuz53cba3m7vvk",114,"200.csv","","null","resources/images/coin2.png","null","",NA,NA,NA,NA,""
"image-keyboard-response",434,352726,"0.0-3.141-0.141","fbuz53cba3m7vvk",114,"200.csv","","282","resources/trios/L4T2A2.jpg","37","restless",0.5,0.6,0.5,0.609663131963592,"false"
"image-keyboard-response",435,353129,"0.0-3.141-1.141","fbuz53cba3m7vvk",114,"200.csv","","null","resources/maskTrios/L4BB.jpg","null","",NA,NA,NA,NA,""
"image-keyboard-response",436,354331,"0.0-3.141-2.141","fbuz53cba3m7vvk",114,"200.csv","","null","resources/images/fishbone.png","null","",NA,NA,NA,NA,""
"image-keyboard-response",437,354616,"0.0-3.142-0.142","fbuz53cba3m7vvk",114,"200.csv","","281.9999999999418","resources/trios/L2T1A2.jpg","38","restless",0.5,0.6,0.5,0.377104842093773,"true"
"image-keyboard-response",438,355019,"0.0-3.142-1.142","fbuz53cba3m7vvk",114,"200.csv","","null","resources/maskTrios/BT1B.jpg","null","",NA,NA,NA,NA,""
"image-keyboard-response",439,356223,"0.0-3.142-2.142","fbuz53cba3m7vvk",114,"200.csv","","null","resources/images/coin2.png","null","",NA,NA,NA,NA,""
"image-keyboard-response",440,356834,"0.0-3.143-0.143","fbuz53cba3m7vvk",114,"200.csv","","608.0000000000582","resources/trios/L4T2A2.jpg","39","restless",0.5,0.5,0.6,0.0983302749809312,"true"
"image-keyboard-response",441,357237,"0.0-3.143-1.143","fbuz53cba3m7vvk",114,"200.csv","","null","resources/maskTrios/BBA2.jpg","null","",NA,NA,NA,NA,""
"image-keyboard-response",442,358440,"0.0-3.143-2.143","fbuz53cba3m7vvk",114,"200.csv","","null","resources/images/coin2.png","null","",NA,NA,NA,NA,""
"image-keyboard-response",443,358816,"0.0-3.144-0.144","fbuz53cba3m7vvk",114,"200.csv","","373","resources/trios/L4T1A2.jpg","39","restless",0.5,0.5,0.6,0.721444205264644,"false"
"image-keyboard-response",444,359220,"0.0-3.144-1.144","fbuz53cba3m7vvk",114,"200.csv","","null","resources/maskTrios/BBA2.jpg","null","",NA,NA,NA,NA,""
"image-keyboard-response",445,360422,"0.0-3.144-2.144","fbuz53cba3m7vvk",114,"200.csv","","null","resources/images/fishbone.png","null","",NA,NA,NA,NA,""
"image-keyboard-response",446,360699,"0.0-3.145-0.145","fbuz53cba3m7vvk",114,"200.csv","","274","resources/trios/L2T1A3.jpg","38","restless",0.5,0.5,0.6,0.203557937550916,"true"
"image-keyboard-response",447,361102,"0.0-3.145-1.145","fbuz53cba3m7vvk",114,"200.csv","","null","resources/maskTrios/BT1B.jpg","null","",NA,NA,NA,NA,""
"image-keyboard-response",448,362305,"0.0-3.145-2.145","fbuz53cba3m7vvk",114,"200.csv","","null","resources/images/coin2.png","null","",NA,NA,NA,NA,""
"image-keyboard-response",449,362784,"0.0-3.146-0.146","fbuz53cba3m7vvk",114,"200.csv","","476","resources/trios/L2T1A2.jpg","38","restless",0.5,0.5,0.6,0.106219950395366,"true"
"image-keyboard-response",450,363187,"0.0-3.146-1.146","fbuz53cba3m7vvk",114,"200.csv","","null","resources/maskTrios/BT1B.jpg","null","",NA,NA,NA,NA,""
"image-keyboard-response",451,364391,"0.0-3.146-2.146","fbuz53cba3m7vvk",114,"200.csv","","null","resources/images/coin2.png","null","",NA,NA,NA,NA,""
"image-keyboard-response",452,365074,"0.0-3.147-0.147","fbuz53cba3m7vvk",114,"200.csv","","679.9999999999418","resources/trios/L4T2A3.jpg","37","restless",0.5,0.5,0.6,0.0529094493113377,"true"
"image-keyboard-response",453,365477,"0.0-3.147-1.147","fbuz53cba3m7vvk",114,"200.csv","","null","resources/maskTrios/L4BB.jpg","null","",NA,NA,NA,NA,""
"image-keyboard-response",454,366681,"0.0-3.147-2.147","fbuz53cba3m7vvk",114,"200.csv","","null","resources/images/coin2.png","null","",NA,NA,NA,NA,""
"image-keyboard-response",455,367362,"0.0-3.148-0.148","fbuz53cba3m7vvk",114,"200.csv","","679","resources/trios/L4T1A2.jpg","37","restless",0.5,0.5,0.6,0.0138553719181219,"true"
"image-keyboard-response",456,367765,"0.0-3.148-1.148","fbuz53cba3m7vvk",114,"200.csv","","null","resources/maskTrios/L4BB.jpg","null","",NA,NA,NA,NA,""
"image-keyboard-response",457,368968,"0.0-3.148-2.148","fbuz53cba3m7vvk",114,"200.csv","","null","resources/images/coin2.png","null","",NA,NA,NA,NA,""
"image-keyboard-response",458,369326,"0.0-3.149-0.149","fbuz53cba3m7vvk",114,"200.csv","","354.9999999999418","resources/trios/L4T1A2.jpg","38","restless",0.5,0.5,0.6,0.188049483090107,"true"
"image-keyboard-response",459,369729,"0.0-3.149-1.149","fbuz53cba3m7vvk",114,"200.csv","","null","resources/maskTrios/BT1B.jpg","null","",NA,NA,NA,NA,""
"image-keyboard-response",460,370932,"0.0-3.149-2.149","fbuz53cba3m7vvk",114,"200.csv","","null","resources/images/coin2.png","null","",NA,NA,NA,NA,""
"image-keyboard-response",461,371741,"0.0-3.150-0.150","fbuz53cba3m7vvk",114,"200.csv","","803","resources/trios/L4T1A2.jpg","39","restless",0.5,0.5,0.7,0.887257895911604,"false"
"image-keyboard-response",462,372144,"0.0-3.150-1.150","fbuz53cba3m7vvk",114,"200.csv","","null","resources/maskTrios/BBA2.jpg","null","",NA,NA,NA,NA,""
"image-keyboard-response",463,373347,"0.0-3.150-2.150","fbuz53cba3m7vvk",114,"200.csv","","null","resources/images/fishbone.png","null","",NA,NA,NA,NA,""
"image-keyboard-response",464,373728,"0.0-3.151-0.151","fbuz53cba3m7vvk",114,"200.csv","","375","resources/trios/L4T2A3.jpg","38","restless",0.5,0.5,0.7,0.818515809916595,"false"
"image-keyboard-response",465,374132,"0.0-3.151-1.151","fbuz53cba3m7vvk",114,"200.csv","","null","resources/maskTrios/BT2B.jpg","null","",NA,NA,NA,NA,""
"image-keyboard-response",466,375335,"0.0-3.151-2.151","fbuz53cba3m7vvk",114,"200.csv","","null","resources/images/fishbone.png","null","",NA,NA,NA,NA,""
"image-keyboard-response",467,375572,"0.0-3.152-0.152","fbuz53cba3m7vvk",114,"200.csv","","234.0000000000582","resources/trios/L2T1A2.jpg","37","restless",0.5,0.4,0.7,0.301550211012756,"true"
"image-keyboard-response",468,375975,"0.0-3.152-1.152","fbuz53cba3m7vvk",114,"200.csv","","null","resources/maskTrios/L2BB.jpg","null","",NA,NA,NA,NA,""
"image-keyboard-response",469,377179,"0.0-3.152-2.152","fbuz53cba3m7vvk",114,"200.csv","","null","resources/images/coin2.png","null","",NA,NA,NA,NA,""
"image-keyboard-response",470,377595,"0.0-3.153-0.153","fbuz53cba3m7vvk",114,"200.csv","","414","resources/trios/L4T1A2.jpg","39","restless",0.4,0.3,0.7,0.592434900661748,"true"
"image-keyboard-response",471,377998,"0.0-3.153-1.153","fbuz53cba3m7vvk",114,"200.csv","","null","resources/maskTrios/BBA2.jpg","null","",NA,NA,NA,NA,""
"image-keyboard-response",472,379201,"0.0-3.153-2.153","fbuz53cba3m7vvk",114,"200.csv","","null","resources/images/coin2.png","null","",NA,NA,NA,NA,""
"image-keyboard-response",473,379730,"0.0-3.154-0.154","fbuz53cba3m7vvk",114,"200.csv","","526","resources/trios/L2T1A2.jpg","38","restless",0.4,0.3,0.7,0.803964933136269,"false"
"image-keyboard-response",474,380133,"0.0-3.154-1.154","fbuz53cba3m7vvk",114,"200.csv","","null","resources/maskTrios/BT1B.jpg","null","",NA,NA,NA,NA,""
"image-keyboard-response",475,381336,"0.0-3.154-2.154","fbuz53cba3m7vvk",114,"200.csv","","null","resources/images/fishbone.png","null","",NA,NA,NA,NA,""
"image-keyboard-response",476,381507,"0.0-3.155-0.155","fbuz53cba3m7vvk",114,"200.csv","","169.0000000000582","resources/trios/L2T1A3.jpg","39","restless",0.4,0.3,0.7,0.90018123475652,"false"
"image-keyboard-response",477,381910,"0.0-3.155-1.155","fbuz53cba3m7vvk",114,"200.csv","","null","resources/maskTrios/BBA3.jpg","null","",NA,NA,NA,NA,""
"image-keyboard-response",478,383116,"0.0-3.155-2.155","fbuz53cba3m7vvk",114,"200.csv","","null","resources/images/fishbone.png","null","",NA,NA,NA,NA,""
"image-keyboard-response",479,383480,"0.0-3.156-0.156","fbuz53cba3m7vvk",114,"200.csv","","362","resources/trios/L2T1A3.jpg","37","restless",0.4,0.3,0.7,0.339959874945948,"true"
"image-keyboard-response",480,383884,"0.0-3.156-1.156","fbuz53cba3m7vvk",114,"200.csv","","null","resources/maskTrios/L2BB.jpg","null","",NA,NA,NA,NA,""
"image-keyboard-response",481,385087,"0.0-3.156-2.156","fbuz53cba3m7vvk",114,"200.csv","","null","resources/images/coin2.png","null","",NA,NA,NA,NA,""
"image-keyboard-response",482,387124,"0.0-3.157-0.157","fbuz53cba3m7vvk",114,"200.csv","","2034","resources/trios/L2T2A2.jpg","37","restless",0.4,0.3,0.7,0.44563139171417,"false"
"image-keyboard-response",483,387529,"0.0-3.157-1.157","fbuz53cba3m7vvk",114,"200.csv","","null","resources/maskTrios/L2BB.jpg","null","",NA,NA,NA,NA,""
"image-keyboard-response",484,388732,"0.0-3.157-2.157","fbuz53cba3m7vvk",114,"200.csv","","null","resources/images/fishbone.png","null","",NA,NA,NA,NA,""
"image-keyboard-response",485,388925,"0.0-3.158-0.158","fbuz53cba3m7vvk",114,"200.csv","","190","resources/trios/L2T2A3.jpg","38","restless",0.5,0.3,0.7,0.0211023478084548,"true"
"image-keyboard-response",486,389328,"0.0-3.158-1.158","fbuz53cba3m7vvk",114,"200.csv","","null","resources/maskTrios/BT2B.jpg","null","",NA,NA,NA,NA,""
"image-keyboard-response",487,390531,"0.0-3.158-2.158","fbuz53cba3m7vvk",114,"200.csv","","null","resources/images/coin2.png","null","",NA,NA,NA,NA,""
"image-keyboard-response",488,390791,"0.0-3.159-0.159","fbuz53cba3m7vvk",114,"200.csv","","257","resources/trios/L4T1A3.jpg","38","restless",0.5,0.3,0.7,0.0291434305819607,"true"
"image-keyboard-response",489,391194,"0.0-3.159-1.159","fbuz53cba3m7vvk",114,"200.csv","","null","resources/maskTrios/BT1B.jpg","null","",NA,NA,NA,NA,""
"image-keyboard-response",490,392397,"0.0-3.159-2.159","fbuz53cba3m7vvk",114,"200.csv","","null","resources/images/coin2.png","null","",NA,NA,NA,NA,""
"image-keyboard-response",491,392464,"0.0-3.160-0.160","fbuz53cba3m7vvk",114,"200.csv","","64","resources/trios/L4T1A2.jpg","39","restless",0.5,0.3,0.7,0.654269772589298,"true"
"image-keyboard-response",492,392867,"0.0-3.160-1.160","fbuz53cba3m7vvk",114,"200.csv","","null","resources/maskTrios/BBA2.jpg","null","",NA,NA,NA,NA,""
"image-keyboard-response",493,394070,"0.0-3.160-2.160","fbuz53cba3m7vvk",114,"200.csv","","null","resources/images/coin2.png","null","",NA,NA,NA,NA,""
"image-keyboard-response",494,394372,"0.0-3.161-0.161","fbuz53cba3m7vvk",114,"200.csv","","296","resources/trios/L2T2A3.jpg","39","restless",0.5,0.3,0.7,0.0275397365000994,"true"
"image-keyboard-response",495,394774,"0.0-3.161-1.161","fbuz53cba3m7vvk",114,"200.csv","","null","resources/maskTrios/BBA3.jpg","null","",NA,NA,NA,NA,""
"image-keyboard-response",496,395978,"0.0-3.161-2.161","fbuz53cba3m7vvk",114,"200.csv","","null","resources/images/coin2.png","null","",NA,NA,NA,NA,""
"image-keyboard-response",497,397449,"0.0-3.162-0.162","fbuz53cba3m7vvk",114,"200.csv","","1469","resources/trios/L2T2A3.jpg","37","restless",0.5,0.3,0.7,0.319898072208851,"true"
"image-keyboard-response",498,397852,"0.0-3.162-1.162","fbuz53cba3m7vvk",114,"200.csv","","null","resources/maskTrios/L2BB.jpg","null","",NA,NA,NA,NA,""
"image-keyboard-response",499,399055,"0.0-3.162-2.162","fbuz53cba3m7vvk",114,"200.csv","","null","resources/images/coin2.png","null","",NA,NA,NA,NA,""
"image-keyboard-response",500,399392,"0.0-3.163-0.163","fbuz53cba3m7vvk",114,"200.csv","","330.9999999999418","resources/trios/L2T1A2.jpg","37","restless",0.5,0.3,0.7,0.0375002200624862,"true"
"image-keyboard-response",501,399795,"0.0-3.163-1.163","fbuz53cba3m7vvk",114,"200.csv","","null","resources/maskTrios/L2BB.jpg","null","",NA,NA,NA,NA,""
"image-keyboard-response",502,400999,"0.0-3.163-2.163","fbuz53cba3m7vvk",114,"200.csv","","null","resources/images/coin2.png","null","",NA,NA,NA,NA,""
"image-keyboard-response",503,401414,"0.0-3.164-0.164","fbuz53cba3m7vvk",114,"200.csv","","413","resources/trios/L2T2A3.jpg","38","restless",0.5,0.3,0.7,0.899442117985111,"false"
"image-keyboard-response",504,401817,"0.0-3.164-1.164","fbuz53cba3m7vvk",114,"200.csv","","null","resources/maskTrios/BT2B.jpg","null","",NA,NA,NA,NA,""
"image-keyboard-response",505,403020,"0.0-3.164-2.164","fbuz53cba3m7vvk",114,"200.csv","","null","resources/images/fishbone.png","null","",NA,NA,NA,NA,""
"image-keyboard-response",506,403384,"0.0-3.165-0.165","fbuz53cba3m7vvk",114,"200.csv","","361","resources/trios/L2T1A3.jpg","39","restless",0.5,0.3,0.7,0.574414419132758,"true"
"image-keyboard-response",507,403787,"0.0-3.165-1.165","fbuz53cba3m7vvk",114,"200.csv","","null","resources/maskTrios/BBA3.jpg","null","",NA,NA,NA,NA,""
"image-keyboard-response",508,404993,"0.0-3.165-2.165","fbuz53cba3m7vvk",114,"200.csv","","null","resources/images/coin2.png","null","",NA,NA,NA,NA,""
"image-keyboard-response",509,405905,"0.0-3.166-0.166","fbuz53cba3m7vvk",114,"200.csv","","908.9999999999418","resources/trios/L4T1A2.jpg","39","restless",0.5,0.3,0.7,0.136718034521841,"true"
"image-keyboard-response",510,406308,"0.0-3.166-1.166","fbuz53cba3m7vvk",114,"200.csv","","null","resources/maskTrios/BBA2.jpg","null","",NA,NA,NA,NA,""
"image-keyboard-response",511,407511,"0.0-3.166-2.166","fbuz53cba3m7vvk",114,"200.csv","","null","resources/images/coin2.png","null","",NA,NA,NA,NA,""
"image-keyboard-response",512,407856,"0.0-3.167-0.167","fbuz53cba3m7vvk",114,"200.csv","","342","resources/trios/L2T1A2.jpg","38","restless",0.5,0.3,0.7,0.300100607006562,"false"
"image-keyboard-response",513,408259,"0.0-3.167-1.167","fbuz53cba3m7vvk",114,"200.csv","","null","resources/maskTrios/BT1B.jpg","null","",NA,NA,NA,NA,""
"image-keyboard-response",514,409462,"0.0-3.167-2.167","fbuz53cba3m7vvk",114,"200.csv","","null","resources/images/fishbone.png","null","",NA,NA,NA,NA,""
"image-keyboard-response",515,409753,"0.0-3.168-0.168","fbuz53cba3m7vvk",114,"200.csv","","289","resources/trios/L4T1A3.jpg","37","restless",0.4,0.3,0.7,0.279532425031121,"true"
"image-keyboard-response",516,410156,"0.0-3.168-1.168","fbuz53cba3m7vvk",114,"200.csv","","null","resources/maskTrios/L4BB.jpg","null","",NA,NA,NA,NA,""
"image-keyboard-response",517,411360,"0.0-3.168-2.168","fbuz53cba3m7vvk",114,"200.csv","","null","resources/images/coin2.png","null","",NA,NA,NA,NA,""
"image-keyboard-response",518,411653,"0.0-3.169-0.169","fbuz53cba3m7vvk",114,"200.csv","","291","resources/trios/L4T1A3.jpg","37","restless",0.4,0.2,0.7,0.0323628214373,"true"
"image-keyboard-response",519,412057,"0.0-3.169-1.169","fbuz53cba3m7vvk",114,"200.csv","","null","resources/maskTrios/L4BB.jpg","null","",NA,NA,NA,NA,""
"image-keyboard-response",520,413261,"0.0-3.169-2.169","fbuz53cba3m7vvk",114,"200.csv","","null","resources/images/coin2.png","null","",NA,NA,NA,NA,""
"image-keyboard-response",521,414013,"0.0-3.170-0.170","fbuz53cba3m7vvk",114,"200.csv","","750","resources/trios/L4T2A2.jpg","38","restless",0.4,0.2,0.8,0.0892261794168314,"true"
"image-keyboard-response",522,414417,"0.0-3.170-1.170","fbuz53cba3m7vvk",114,"200.csv","","null","resources/maskTrios/BT2B.jpg","null","",NA,NA,NA,NA,""
"image-keyboard-response",523,415620,"0.0-3.170-2.170","fbuz53cba3m7vvk",114,"200.csv","","null","resources/images/coin2.png","null","",NA,NA,NA,NA,""
"image-keyboard-response",524,415901,"0.0-3.171-0.171","fbuz53cba3m7vvk",114,"200.csv","","278","resources/trios/L2T2A2.jpg","38","restless",0.4,0.2,0.8,0.0436471720616665,"true"
"image-keyboard-response",525,416304,"0.0-3.171-1.171","fbuz53cba3m7vvk",114,"200.csv","","null","resources/maskTrios/BT2B.jpg","null","",NA,NA,NA,NA,""
"image-keyboard-response",526,417508,"0.0-3.171-2.171","fbuz53cba3m7vvk",114,"200.csv","","null","resources/images/coin2.png","null","",NA,NA,NA,NA,""
"image-keyboard-response",527,417825,"0.0-3.172-0.172","fbuz53cba3m7vvk",114,"200.csv","","311.9999999999418","resources/trios/L4T1A3.jpg","39","restless",0.4,0.2,0.8,0.105881836498373,"true"
"image-keyboard-response",528,418228,"0.0-3.172-1.172","fbuz53cba3m7vvk",114,"200.csv","","null","resources/maskTrios/BBA3.jpg","null","",NA,NA,NA,NA,""
"image-keyboard-response",529,419431,"0.0-3.172-2.172","fbuz53cba3m7vvk",114,"200.csv","","null","resources/images/coin2.png","null","",NA,NA,NA,NA,""
"image-keyboard-response",530,419759,"0.0-3.173-0.173","fbuz53cba3m7vvk",114,"200.csv","","326","resources/trios/L4T1A2.jpg","39","restless",0.4,0.2,0.8,0.171616420925563,"true"
"image-keyboard-response",531,420162,"0.0-3.173-1.173","fbuz53cba3m7vvk",114,"200.csv","","null","resources/maskTrios/BBA2.jpg","null","",NA,NA,NA,NA,""
"image-keyboard-response",532,421365,"0.0-3.173-2.173","fbuz53cba3m7vvk",114,"200.csv","","null","resources/images/coin2.png","null","",NA,NA,NA,NA,""
"image-keyboard-response",533,421762,"0.0-3.174-0.174","fbuz53cba3m7vvk",114,"200.csv","","392","resources/trios/L4T1A3.jpg","37","restless",0.4,0.2,0.8,0.970046865338952,"false"
"image-keyboard-response",534,422165,"0.0-3.174-1.174","fbuz53cba3m7vvk",114,"200.csv","","null","resources/maskTrios/L4BB.jpg","null","",NA,NA,NA,NA,""
"image-keyboard-response",535,423368,"0.0-3.174-2.174","fbuz53cba3m7vvk",114,"200.csv","","null","resources/images/fishbone.png","null","",NA,NA,NA,NA,""
"image-keyboard-response",536,423626,"0.0-3.175-0.175","fbuz53cba3m7vvk",114,"200.csv","","255","resources/trios/L2T1A3.jpg","38","restless",0.4,0.2,0.8,0.46268576731435,"false"
"image-keyboard-response",537,424029,"0.0-3.175-1.175","fbuz53cba3m7vvk",114,"200.csv","","null","resources/maskTrios/BT1B.jpg","null","",NA,NA,NA,NA,""
"image-keyboard-response",538,425232,"0.0-3.175-2.175","fbuz53cba3m7vvk",114,"200.csv","","null","resources/images/fishbone.png","null","",NA,NA,NA,NA,""
"image-keyboard-response",539,425512,"0.0-3.176-0.176","fbuz53cba3m7vvk",114,"200.csv","","277","resources/trios/L2T2A2.jpg","39","restless",0.4,0.2,0.8,0.87635569066125,"false"
"image-keyboard-response",540,425915,"0.0-3.176-1.176","fbuz53cba3m7vvk",114,"200.csv","","null","resources/maskTrios/BBA2.jpg","null","",NA,NA,NA,NA,""
"image-keyboard-response",541,427118,"0.0-3.176-2.176","fbuz53cba3m7vvk",114,"200.csv","","null","resources/images/fishbone.png","null","",NA,NA,NA,NA,""
"image-keyboard-response",542,427444,"0.0-3.177-0.177","fbuz53cba3m7vvk",114,"200.csv","","323","resources/trios/L4T2A2.jpg","37","restless",0.4,0.2,0.8,0.509485904956135,"false"
"image-keyboard-response",543,427847,"0.0-3.177-1.177","fbuz53cba3m7vvk",114,"200.csv","","null","resources/maskTrios/L4BB.jpg","null","",NA,NA,NA,NA,""
"image-keyboard-response",544,429050,"0.0-3.177-2.177","fbuz53cba3m7vvk",114,"200.csv","","null","resources/images/fishbone.png","null","",NA,NA,NA,NA,""
"image-keyboard-response",545,429310,"0.0-3.178-0.178","fbuz53cba3m7vvk",114,"200.csv","","256.0000000000582","resources/trios/L2T1A2.jpg","38","restless",0.4,0.2,0.8,0.29187608789995,"false"
"image-keyboard-response",546,429714,"0.0-3.178-1.178","fbuz53cba3m7vvk",114,"200.csv","","null","resources/maskTrios/BT1B.jpg","null","",NA,NA,NA,NA,""
"image-keyboard-response",547,430917,"0.0-3.178-2.178","fbuz53cba3m7vvk",114,"200.csv","","null","resources/images/fishbone.png","null","",NA,NA,NA,NA,""
"image-keyboard-response",548,431169,"0.0-3.179-0.179","fbuz53cba3m7vvk",114,"200.csv","","250","resources/trios/L2T2A2.jpg","39","restless",0.4,0.2,0.8,0.249635750575987,"true"
"image-keyboard-response",549,431572,"0.0-3.179-1.179","fbuz53cba3m7vvk",114,"200.csv","","null","resources/maskTrios/BBA2.jpg","null","",NA,NA,NA,NA,""
"image-keyboard-response",550,432776,"0.0-3.179-2.179","fbuz53cba3m7vvk",114,"200.csv","","null","resources/images/coin2.png","null","",NA,NA,NA,NA,""
"image-keyboard-response",551,433068,"0.0-3.180-0.180","fbuz53cba3m7vvk",114,"200.csv","","289.0000000000582","resources/trios/L4T2A3.jpg","39","restless",0.4,0.2,0.8,0.574417766846834,"true"
"image-keyboard-response",552,433471,"0.0-3.180-1.180","fbuz53cba3m7vvk",114,"200.csv","","null","resources/maskTrios/BBA3.jpg","null","",NA,NA,NA,NA,""
"image-keyboard-response",553,434674,"0.0-3.180-2.180","fbuz53cba3m7vvk",114,"200.csv","","null","resources/images/coin2.png","null","",NA,NA,NA,NA,""
"image-keyboard-response",554,434908,"0.0-3.181-0.181","fbuz53cba3m7vvk",114,"200.csv","","231","resources/trios/L4T1A2.jpg","38","restless",0.4,0.3,0.8,0.424780708830757,"false"
"image-keyboard-response",555,435311,"0.0-3.181-1.181","fbuz53cba3m7vvk",114,"200.csv","","null","resources/maskTrios/BT1B.jpg","null","",NA,NA,NA,NA,""
"image-keyboard-response",556,436514,"0.0-3.181-2.181","fbuz53cba3m7vvk",114,"200.csv","","null","resources/images/fishbone.png","null","",NA,NA,NA,NA,""
"image-keyboard-response",557,437151,"0.0-3.182-0.182","fbuz53cba3m7vvk",114,"200.csv","","635","resources/trios/L4T2A2.jpg","39","restless",0.4,0.4,0.8,0.224410569750686,"true"
"image-keyboard-response",558,437555,"0.0-3.182-1.182","fbuz53cba3m7vvk",114,"200.csv","","null","resources/maskTrios/BBA2.jpg","null","",NA,NA,NA,NA,""
"image-keyboard-response",559,438758,"0.0-3.182-2.182","fbuz53cba3m7vvk",114,"200.csv","","null","resources/images/coin2.png","null","",NA,NA,NA,NA,""
"image-keyboard-response",560,439161,"0.0-3.183-0.183","fbuz53cba3m7vvk",114,"200.csv","","400","resources/trios/L2T1A2.jpg","39","restless",0.4,0.4,0.8,0.531504120623938,"true"
"image-keyboard-response",561,439564,"0.0-3.183-1.183","fbuz53cba3m7vvk",114,"200.csv","","null","resources/maskTrios/BBA2.jpg","null","",NA,NA,NA,NA,""
"image-keyboard-response",562,440767,"0.0-3.183-2.183","fbuz53cba3m7vvk",114,"200.csv","","null","resources/images/coin2.png","null","",NA,NA,NA,NA,""
"image-keyboard-response",563,441062,"0.0-3.184-0.184","fbuz53cba3m7vvk",114,"200.csv","","292.9999999999418","resources/trios/L2T2A2.jpg","39","restless",0.4,0.4,0.8,0.863319489881717,"false"
"image-keyboard-response",564,441465,"0.0-3.184-1.184","fbuz53cba3m7vvk",114,"200.csv","","null","resources/maskTrios/BBA2.jpg","null","",NA,NA,NA,NA,""
"image-keyboard-response",565,442668,"0.0-3.184-2.184","fbuz53cba3m7vvk",114,"200.csv","","null","resources/images/fishbone.png","null","",NA,NA,NA,NA,""
"image-keyboard-response",566,442997,"0.0-3.185-0.185","fbuz53cba3m7vvk",114,"200.csv","","327","resources/trios/L2T1A3.jpg","37","restless",0.4,0.4,0.8,0.97238108645274,"false"
"image-keyboard-response",567,443400,"0.0-3.185-1.185","fbuz53cba3m7vvk",114,"200.csv","","null","resources/maskTrios/L2BB.jpg","null","",NA,NA,NA,NA,""
"image-keyboard-response",568,444606,"0.0-3.185-2.185","fbuz53cba3m7vvk",114,"200.csv","","null","resources/images/fishbone.png","null","",NA,NA,NA,NA,""
"image-keyboard-response",569,445717,"0.0-3.186-0.186","fbuz53cba3m7vvk",114,"200.csv","","1107","resources/trios/L4T2A2.jpg","38","restless",0.4,0.4,0.8,0.0736690492609416,"true"
"image-keyboard-response",570,446121,"0.0-3.186-1.186","fbuz53cba3m7vvk",114,"200.csv","","null","resources/maskTrios/BT2B.jpg","null","",NA,NA,NA,NA,""
"image-keyboard-response",571,447327,"0.0-3.186-2.186","fbuz53cba3m7vvk",114,"200.csv","","null","resources/images/coin2.png","null","",NA,NA,NA,NA,""
"image-keyboard-response",572,448495,"0.0-3.187-0.187","fbuz53cba3m7vvk",114,"200.csv","","1166","resources/trios/L2T2A3.jpg","39","restless",0.4,0.4,0.8,0.31871306672178,"true"
"image-keyboard-response",573,448899,"0.0-3.187-1.187","fbuz53cba3m7vvk",114,"200.csv","","null","resources/maskTrios/BBA3.jpg","null","",NA,NA,NA,NA,""
"image-keyboard-response",574,450102,"0.0-3.187-2.187","fbuz53cba3m7vvk",114,"200.csv","","null","resources/images/coin2.png","null","",NA,NA,NA,NA,""
"image-keyboard-response",575,452244,"0.0-3.188-0.188","fbuz53cba3m7vvk",114,"200.csv","","2139","resources/trios/L2T1A2.jpg","39","restless",0.4,0.4,0.8,0.619869801455613,"true"
"image-keyboard-response",576,452647,"0.0-3.188-1.188","fbuz53cba3m7vvk",114,"200.csv","","null","resources/maskTrios/BBA2.jpg","null","",NA,NA,NA,NA,""
"image-keyboard-response",577,453851,"0.0-3.188-2.188","fbuz53cba3m7vvk",114,"200.csv","","null","resources/images/coin2.png","null","",NA,NA,NA,NA,""
"image-keyboard-response",578,455352,"0.0-3.189-0.189","fbuz53cba3m7vvk",114,"200.csv","","1496","resources/trios/L4T2A3.jpg","38","restless",0.4,0.3,0.8,0.607528242191505,"false"
"image-keyboard-response",579,455755,"0.0-3.189-1.189","fbuz53cba3m7vvk",114,"200.csv","","null","resources/maskTrios/BT2B.jpg","null","",NA,NA,NA,NA,""
"image-keyboard-response",580,456958,"0.0-3.189-2.189","fbuz53cba3m7vvk",114,"200.csv","","null","resources/images/fishbone.png","null","",NA,NA,NA,NA,""
"image-keyboard-response",581,457322,"0.0-3.190-0.190","fbuz53cba3m7vvk",114,"200.csv","","361","resources/trios/L4T2A3.jpg","39","restless",0.4,0.3,0.8,0.204061799605298,"true"
"image-keyboard-response",582,457725,"0.0-3.190-1.190","fbuz53cba3m7vvk",114,"200.csv","","null","resources/maskTrios/BBA3.jpg","null","",NA,NA,NA,NA,""
"image-keyboard-response",583,458928,"0.0-3.190-2.190","fbuz53cba3m7vvk",114,"200.csv","","null","resources/images/coin2.png","null","",NA,NA,NA,NA,""
"image-keyboard-response",584,460689,"0.0-3.191-0.191","fbuz53cba3m7vvk",114,"200.csv","","1757.9999999999418","resources/trios/L4T2A3.jpg","39","restless",0.4,0.3,0.8,0.508875484033367,"true"
"image-keyboard-response",585,461092,"0.0-3.191-1.191","fbuz53cba3m7vvk",114,"200.csv","","null","resources/maskTrios/BBA3.jpg","null","",NA,NA,NA,NA,""
"image-keyboard-response",586,462295,"0.0-3.191-2.191","fbuz53cba3m7vvk",114,"200.csv","","null","resources/images/coin2.png","null","",NA,NA,NA,NA,""
"image-keyboard-response",587,465698,"0.0-3.192-0.192","fbuz53cba3m7vvk",114,"200.csv","","3400.000000000058","resources/trios/L2T1A2.jpg","39","restless",0.4,0.3,0.7,0.518784943165312,"true"
"image-keyboard-response",588,466102,"0.0-3.192-1.192","fbuz53cba3m7vvk",114,"200.csv","","null","resources/maskTrios/BBA2.jpg","null","",NA,NA,NA,NA,""
"image-keyboard-response",589,467305,"0.0-3.192-2.192","fbuz53cba3m7vvk",114,"200.csv","","null","resources/images/coin2.png","null","",NA,NA,NA,NA,""
"image-keyboard-response",590,469308,"0.0-3.193-0.193","fbuz53cba3m7vvk",114,"200.csv","","2000","resources/trios/L2T1A3.jpg","39","restless",0.4,0.3,0.7,0.603178577732781,"true"
"image-keyboard-response",591,469712,"0.0-3.193-1.193","fbuz53cba3m7vvk",114,"200.csv","","null","resources/maskTrios/BBA3.jpg","null","",NA,NA,NA,NA,""
"image-keyboard-response",592,470915,"0.0-3.193-2.193","fbuz53cba3m7vvk",114,"200.csv","","null","resources/images/coin2.png","null","",NA,NA,NA,NA,""
"image-keyboard-response",593,471949,"0.0-3.194-0.194","fbuz53cba3m7vvk",114,"200.csv","","1032","resources/trios/L2T1A2.jpg","39","restless",0.4,0.3,0.7,0.95304275221513,"false"
"image-keyboard-response",594,472352,"0.0-3.194-1.194","fbuz53cba3m7vvk",114,"200.csv","","null","resources/maskTrios/BBA2.jpg","null","",NA,NA,NA,NA,""
"image-keyboard-response",595,473555,"0.0-3.194-2.194","fbuz53cba3m7vvk",114,"200.csv","","null","resources/images/fishbone.png","null","",NA,NA,NA,NA,""
"image-keyboard-response",596,473842,"0.0-3.195-0.195","fbuz53cba3m7vvk",114,"200.csv","","284.0000000000582","resources/trios/L2T2A3.jpg","37","restless",0.4,0.3,0.7,0.609560729428058,"false"
"image-keyboard-response",597,474244,"0.0-3.195-1.195","fbuz53cba3m7vvk",114,"200.csv","","null","resources/maskTrios/L2BB.jpg","null","",NA,NA,NA,NA,""
"image-keyboard-response",598,475447,"0.0-3.195-2.195","fbuz53cba3m7vvk",114,"200.csv","","null","resources/images/fishbone.png","null","",NA,NA,NA,NA,""
"image-keyboard-response",599,478163,"0.0-3.196-0.196","fbuz53cba3m7vvk",114,"200.csv","","2713","resources/trios/L4T2A2.jpg","38","restless",0.4,0.3,0.7,0.599416274345368,"false"
"image-keyboard-response",600,478569,"0.0-3.196-1.196","fbuz53cba3m7vvk",114,"200.csv","","null","resources/maskTrios/BT2B.jpg","null","",NA,NA,NA,NA,""
"image-keyboard-response",601,479772,"0.0-3.196-2.196","fbuz53cba3m7vvk",114,"200.csv","","null","resources/images/fishbone.png","null","",NA,NA,NA,NA,""
"image-keyboard-response",602,480020,"0.0-3.197-0.197","fbuz53cba3m7vvk",114,"200.csv","","245.9999999999418","resources/trios/L4T1A3.jpg","39","restless",0.4,0.3,0.7,0.18558964522937,"true"
"image-keyboard-response",603,480424,"0.0-3.197-1.197","fbuz53cba3m7vvk",114,"200.csv","","null","resources/maskTrios/BBA3.jpg","null","",NA,NA,NA,NA,""
"image-keyboard-response",604,481627,"0.0-3.197-2.197","fbuz53cba3m7vvk",114,"200.csv","","null","resources/images/coin2.png","null","",NA,NA,NA,NA,""
"image-keyboard-response",605,481807,"0.0-3.198-0.198","fbuz53cba3m7vvk",114,"200.csv","","176","resources/trios/L2T2A3.jpg","39","restless",0.4,0.3,0.7,0.208126991048983,"true"
"image-keyboard-response",606,482210,"0.0-3.198-1.198","fbuz53cba3m7vvk",114,"200.csv","","null","resources/maskTrios/BBA3.jpg","null","",NA,NA,NA,NA,""
"image-keyboard-response",607,483413,"0.0-3.198-2.198","fbuz53cba3m7vvk",114,"200.csv","","null","resources/images/coin2.png","null","",NA,NA,NA,NA,""
"image-keyboard-response",608,483553,"0.0-3.199-0.199","fbuz53cba3m7vvk",114,"200.csv","","137","resources/trios/L2T1A3.jpg","39","restless",0.4,0.3,0.7,0.3215258767173,"true"
"image-keyboard-response",609,483955,"0.0-3.199-1.199","fbuz53cba3m7vvk",114,"200.csv","","null","resources/maskTrios/BBA3.jpg","null","",NA,NA,NA,NA,""
"image-keyboard-response",610,485159,"0.0-3.199-2.199","fbuz53cba3m7vvk",114,"200.csv","","null","resources/images/coin2.png","null","",NA,NA,NA,NA,""
"image-keyboard-response",611,485267,"0.0-3.200-0.200","fbuz53cba3m7vvk",114,"200.csv","","104.99999999994179","resources/trios/L2T2A2.jpg","39","restless",0.3,0.3,0.7,0.831364678810253,"false"
"image-keyboard-response",612,485670,"0.0-3.200-1.200","fbuz53cba3m7vvk",114,"200.csv","","null","resources/maskTrios/BBA2.jpg","null","",NA,NA,NA,NA,""
"image-keyboard-response",613,486873,"0.0-3.200-2.200","fbuz53cba3m7vvk",114,"200.csv","","null","resources/images/fishbone.png","null","",NA,NA,NA,NA,""
"image-keyboard-response",614,487024,"0.0-3.201-0.201","fbuz53cba3m7vvk",114,"200.csv","","147.9999999999418","resources/trios/L4T2A2.jpg","37","restless",0.3,0.3,0.7,0.964784860414029,"false"
"image-keyboard-response",615,487427,"0.0-3.201-1.201","fbuz53cba3m7vvk",114,"200.csv","","null","resources/maskTrios/L4BB.jpg","null","",NA,NA,NA,NA,""
"image-keyboard-response",616,488630,"0.0-3.201-2.201","fbuz53cba3m7vvk",114,"200.csv","","null","resources/images/fishbone.png","null","",NA,NA,NA,NA,""
