"trial_type","trial_index","time_elapsed","internal_node_id","subject","walkNumber","success","rt","stimulus","key_press","test_part","leftProb","midProb","rightProb","generatedNum","correct"
"pavlovia",0,921,"0.0-0.0","uf6852zzz5uxw4e","193.csv","","","","","",NA,NA,NA,NA,""
"fullscreen",1,15414,"0.0-1.0","uf6852zzz5uxw4e","193.csv","true","","","","",NA,NA,NA,NA,""
"html-keyboard-response",2,20533,"0.0-2.0-0.0","uf6852zzz5uxw4e","193.csv","","5116.699999988079","<p><font size='6'>Arrrgh!</p></font><p>Can you be the best pirate? Try to find lots of gold! But beware, some islands have more gold than others, and over time, the island with the most gold may change. Can YOU figure it out? </p><font size='6'>GOOD LUCK, CAPTAIN!!!</font><p>Press any key to begin</p>","32","",NA,NA,NA,NA,""
"image-keyboard-response",3,23541,"0.0-2.0-1.0","uf6852zzz5uxw4e","193.csv","","null","resources/image_sets/111.png","null","",NA,NA,NA,NA,""
"image-keyboard-response",4,30193,"0.0-2.0-2.0","uf6852zzz5uxw4e","193.csv","","6649.70000000298","resources/image_sets/left_highlight.png","37","",NA,NA,NA,NA,""
"image-keyboard-response",5,31894,"0.0-2.0-3.0","uf6852zzz5uxw4e","193.csv","","1698.5","resources/image_sets/mid_highlight.png","38","",NA,NA,NA,NA,""
"image-keyboard-response",6,32860,"0.0-2.0-4.0","uf6852zzz5uxw4e","193.csv","","963.9000000059605","resources/image_sets/right_highlight.png","39","",NA,NA,NA,NA,""
"image-keyboard-response",7,36989,"0.0-2.0-5.0","uf6852zzz5uxw4e","193.csv","","4127.70000000298","resources/image_sets/111.png","13","",NA,NA,NA,NA,""
"image-keyboard-response",8,40130,"0.0-2.0-6.0","uf6852zzz5uxw4e","193.csv","","3138.7000000029802","resources/images/coin2.png","13","",NA,NA,NA,NA,""
"image-keyboard-response",9,41525,"0.0-2.0-7.0","uf6852zzz5uxw4e","193.csv","","1393.7000000029802","resources/images/fishbone.png","13","",NA,NA,NA,NA,""
"html-keyboard-response",10,45359,"0.0-2.0-8.0","uf6852zzz5uxw4e","193.csv","","3831.7999999970198","<p>Your first journey will be a long one, but you will get a well deserved break at the end</p><p>After the break you will have four more journeys, but each will be much shorter than the first, and you will have breaks in between each</p><p>Press Enter to begin</p>","13","",NA,NA,NA,NA,""
"image-keyboard-response",11,46803,"0.0-3.0-0.0","uf6852zzz5uxw4e","193.csv","","1441","resources/trios/L1T1A3.jpg","38","restless",0.9,0.3,0.7,0.517495064850041,"false"
"image-keyboard-response",12,47213,"0.0-3.0-1.0","uf6852zzz5uxw4e","193.csv","","null","resources/maskTrios/BT1B.jpg","null","",NA,NA,NA,NA,""
"image-keyboard-response",13,48420,"0.0-3.0-2.0","uf6852zzz5uxw4e","193.csv","","null","resources/images/fishbone.png","null","",NA,NA,NA,NA,""
"image-keyboard-response",14,49995,"0.0-3.1-0.1","uf6852zzz5uxw4e","193.csv","","1571.5","resources/trios/L1T4A2.jpg","37","restless",0.9,0.3,0.7,0.524848252017916,"true"
"image-keyboard-response",15,50401,"0.0-3.1-1.1","uf6852zzz5uxw4e","193.csv","","null","resources/maskTrios/L1BB.jpg","null","",NA,NA,NA,NA,""
"image-keyboard-response",16,51610,"0.0-3.1-2.1","uf6852zzz5uxw4e","193.csv","","null","resources/images/coin2.png","null","",NA,NA,NA,NA,""
"image-keyboard-response",17,52099,"0.0-3.2-0.2","uf6852zzz5uxw4e","193.csv","","486.30000001192093","resources/trios/L1T1A2.jpg","39","restless",0.9,0.3,0.7,0.452873057420119,"true"
"image-keyboard-response",18,52506,"0.0-3.2-1.2","uf6852zzz5uxw4e","193.csv","","null","resources/maskTrios/BBA2.jpg","null","",NA,NA,NA,NA,""
"image-keyboard-response",19,53710,"0.0-3.2-2.2","uf6852zzz5uxw4e","193.csv","","null","resources/images/coin2.png","null","",NA,NA,NA,NA,""
"image-keyboard-response",20,54036,"0.0-3.3-0.3","uf6852zzz5uxw4e","193.csv","","323","resources/trios/L1T1A2.jpg","37","restless",0.9,0.3,0.7,0.322989985341124,"true"
"image-keyboard-response",21,54440,"0.0-3.3-1.3","uf6852zzz5uxw4e","193.csv","","null","resources/maskTrios/L1BB.jpg","null","",NA,NA,NA,NA,""
"image-keyboard-response",22,55646,"0.0-3.3-2.3","uf6852zzz5uxw4e","193.csv","","null","resources/images/coin2.png","null","",NA,NA,NA,NA,""
"image-keyboard-response",23,56112,"0.0-3.4-0.4","uf6852zzz5uxw4e","193.csv","","463.79999999701977","resources/trios/L4T4A2.jpg","37","restless",0.9,0.3,0.6,0.551290919039964,"true"
"image-keyboard-response",24,56520,"0.0-3.4-1.4","uf6852zzz5uxw4e","193.csv","","null","resources/maskTrios/L4BB.jpg","null","",NA,NA,NA,NA,""
"image-keyboard-response",25,57727,"0.0-3.4-2.4","uf6852zzz5uxw4e","193.csv","","null","resources/images/coin2.png","null","",NA,NA,NA,NA,""
"image-keyboard-response",26,58194,"0.0-3.5-0.5","uf6852zzz5uxw4e","193.csv","","464.8999999910593","resources/trios/L4T1A2.jpg","37","restless",0.9,0.3,0.6,0.706742500467336,"true"
"image-keyboard-response",27,58602,"0.0-3.5-1.5","uf6852zzz5uxw4e","193.csv","","null","resources/maskTrios/L4BB.jpg","null","",NA,NA,NA,NA,""
"image-keyboard-response",28,59805,"0.0-3.5-2.5","uf6852zzz5uxw4e","193.csv","","null","resources/images/coin2.png","null","",NA,NA,NA,NA,""
"image-keyboard-response",29,60184,"0.0-3.6-0.6","uf6852zzz5uxw4e","193.csv","","376.6000000089407","resources/trios/L1T4A3.jpg","37","restless",0.9,0.3,0.5,0.927970919259722,"false"
"image-keyboard-response",30,60592,"0.0-3.6-1.6","uf6852zzz5uxw4e","193.csv","","null","resources/maskTrios/L1BB.jpg","null","",NA,NA,NA,NA,""
"image-keyboard-response",31,61795,"0.0-3.6-2.6","uf6852zzz5uxw4e","193.csv","","null","resources/images/fishbone.png","null","",NA,NA,NA,NA,""
"image-keyboard-response",32,62120,"0.0-3.7-0.7","uf6852zzz5uxw4e","193.csv","","322.6000000089407","resources/trios/L1T4A2.jpg","38","restless",0.9,0.3,0.5,0.673638878474647,"false"
"image-keyboard-response",33,62527,"0.0-3.7-1.7","uf6852zzz5uxw4e","193.csv","","null","resources/maskTrios/BT4B.jpg","null","",NA,NA,NA,NA,""
"image-keyboard-response",34,63734,"0.0-3.7-2.7","uf6852zzz5uxw4e","193.csv","","null","resources/images/fishbone.png","null","",NA,NA,NA,NA,""
"image-keyboard-response",35,64018,"0.0-3.8-0.8","uf6852zzz5uxw4e","193.csv","","281.5","resources/trios/L4T1A2.jpg","39","restless",0.9,0.3,0.5,0.674109574614843,"false"
"image-keyboard-response",36,64426,"0.0-3.8-1.8","uf6852zzz5uxw4e","193.csv","","null","resources/maskTrios/BBA2.jpg","null","",NA,NA,NA,NA,""
"image-keyboard-response",37,65633,"0.0-3.8-2.8","uf6852zzz5uxw4e","193.csv","","null","resources/images/fishbone.png","null","",NA,NA,NA,NA,""
"image-keyboard-response",38,66014,"0.0-3.9-0.9","uf6852zzz5uxw4e","193.csv","","377.59999999403954","resources/trios/L4T4A3.jpg","37","restless",0.9,0.3,0.5,0.776573883640385,"true"
"image-keyboard-response",39,66419,"0.0-3.9-1.9","uf6852zzz5uxw4e","193.csv","","null","resources/maskTrios/L4BB.jpg","null","",NA,NA,NA,NA,""
"image-keyboard-response",40,67626,"0.0-3.9-2.9","uf6852zzz5uxw4e","193.csv","","null","resources/images/coin2.png","null","",NA,NA,NA,NA,""
"image-keyboard-response",41,68168,"0.0-3.10-0.10","uf6852zzz5uxw4e","193.csv","","539.5","resources/trios/L1T4A3.jpg","37","restless",0.9,0.3,0.5,0.526571784166942,"true"
"image-keyboard-response",42,68571,"0.0-3.10-1.10","uf6852zzz5uxw4e","193.csv","","null","resources/maskTrios/L1BB.jpg","null","",NA,NA,NA,NA,""
"image-keyboard-response",43,69779,"0.0-3.10-2.10","uf6852zzz5uxw4e","193.csv","","null","resources/images/coin2.png","null","",NA,NA,NA,NA,""
"image-keyboard-response",44,70285,"0.0-3.11-0.11","uf6852zzz5uxw4e","193.csv","","503.5","resources/trios/L4T4A3.jpg","38","restless",0.9,0.3,0.4,0.760146714233038,"false"
"image-keyboard-response",45,70692,"0.0-3.11-1.11","uf6852zzz5uxw4e","193.csv","","null","resources/maskTrios/BT4B.jpg","null","",NA,NA,NA,NA,""
"image-keyboard-response",46,71895,"0.0-3.11-2.11","uf6852zzz5uxw4e","193.csv","","null","resources/images/fishbone.png","null","",NA,NA,NA,NA,""
"image-keyboard-response",47,72338,"0.0-3.12-0.12","uf6852zzz5uxw4e","193.csv","","440.09999999403954","resources/trios/L1T4A3.jpg","39","restless",0.9,0.3,0.4,0.693822671021887,"false"
"image-keyboard-response",48,72745,"0.0-3.12-1.12","uf6852zzz5uxw4e","193.csv","","null","resources/maskTrios/BBA3.jpg","null","",NA,NA,NA,NA,""
"image-keyboard-response",49,73948,"0.0-3.12-2.12","uf6852zzz5uxw4e","193.csv","","null","resources/images/fishbone.png","null","",NA,NA,NA,NA,""
"image-keyboard-response",50,74301,"0.0-3.13-0.13","uf6852zzz5uxw4e","193.csv","","350.09999999403954","resources/trios/L1T4A2.jpg","38","restless",0.9,0.3,0.4,0.727521076870222,"false"
"image-keyboard-response",51,74707,"0.0-3.13-1.13","uf6852zzz5uxw4e","193.csv","","null","resources/maskTrios/BT4B.jpg","null","",NA,NA,NA,NA,""
"image-keyboard-response",52,75911,"0.0-3.13-2.13","uf6852zzz5uxw4e","193.csv","","null","resources/images/fishbone.png","null","",NA,NA,NA,NA,""
"image-keyboard-response",53,76299,"0.0-3.14-0.14","uf6852zzz5uxw4e","193.csv","","385.79999999701977","resources/trios/L1T4A2.jpg","37","restless",0.9,0.3,0.4,0.685603643378557,"true"
"image-keyboard-response",54,76706,"0.0-3.14-1.14","uf6852zzz5uxw4e","193.csv","","null","resources/maskTrios/L1BB.jpg","null","",NA,NA,NA,NA,""
"image-keyboard-response",55,77910,"0.0-3.14-2.14","uf6852zzz5uxw4e","193.csv","","null","resources/images/coin2.png","null","",NA,NA,NA,NA,""
"image-keyboard-response",56,78231,"0.0-3.15-0.15","uf6852zzz5uxw4e","193.csv","","318.20000000298023","resources/trios/L1T4A3.jpg","37","restless",0.9,0.4,0.4,0.52642239898491,"true"
"image-keyboard-response",57,78638,"0.0-3.15-1.15","uf6852zzz5uxw4e","193.csv","","null","resources/maskTrios/L1BB.jpg","null","",NA,NA,NA,NA,""
"image-keyboard-response",58,79845,"0.0-3.15-2.15","uf6852zzz5uxw4e","193.csv","","null","resources/images/coin2.png","null","",NA,NA,NA,NA,""
"image-keyboard-response",59,80158,"0.0-3.16-0.16","uf6852zzz5uxw4e","193.csv","","309.70000000298023","resources/trios/L1T1A2.jpg","37","restless",0.9,0.4,0.4,0.609921501921069,"true"
"image-keyboard-response",60,80565,"0.0-3.16-1.16","uf6852zzz5uxw4e","193.csv","","null","resources/maskTrios/L1BB.jpg","null","",NA,NA,NA,NA,""
"image-keyboard-response",61,81772,"0.0-3.16-2.16","uf6852zzz5uxw4e","193.csv","","null","resources/images/coin2.png","null","",NA,NA,NA,NA,""
"image-keyboard-response",62,82106,"0.0-3.17-0.17","uf6852zzz5uxw4e","193.csv","","331.79999999701977","resources/trios/L1T1A3.jpg","37","restless",0.9,0.4,0.4,0.523865380064028,"true"
"image-keyboard-response",63,82514,"0.0-3.17-1.17","uf6852zzz5uxw4e","193.csv","","null","resources/maskTrios/L1BB.jpg","null","",NA,NA,NA,NA,""
"image-keyboard-response",64,83720,"0.0-3.17-2.17","uf6852zzz5uxw4e","193.csv","","null","resources/images/coin2.png","null","",NA,NA,NA,NA,""
"image-keyboard-response",65,84028,"0.0-3.18-0.18","uf6852zzz5uxw4e","193.csv","","305.40000000596046","resources/trios/L1T4A2.jpg","37","restless",0.8,0.4,0.4,0.902244724431061,"false"
"image-keyboard-response",66,84436,"0.0-3.18-1.18","uf6852zzz5uxw4e","193.csv","","null","resources/maskTrios/L1BB.jpg","null","",NA,NA,NA,NA,""
"image-keyboard-response",67,85639,"0.0-3.18-2.18","uf6852zzz5uxw4e","193.csv","","null","resources/images/fishbone.png","null","",NA,NA,NA,NA,""
"image-keyboard-response",68,86334,"0.0-3.19-0.19","uf6852zzz5uxw4e","193.csv","","693","resources/trios/L1T4A3.jpg","39","restless",0.8,0.4,0.4,0.391904539919648,"true"
"image-keyboard-response",69,86742,"0.0-3.19-1.19","uf6852zzz5uxw4e","193.csv","","null","resources/maskTrios/BBA3.jpg","null","",NA,NA,NA,NA,""
"image-keyboard-response",70,87945,"0.0-3.19-2.19","uf6852zzz5uxw4e","193.csv","","null","resources/images/coin2.png","null","",NA,NA,NA,NA,""
"image-keyboard-response",71,88292,"0.0-3.20-0.20","uf6852zzz5uxw4e","193.csv","","345.59999999403954","resources/trios/L4T4A3.jpg","39","restless",0.8,0.4,0.4,0.419998820239488,"false"
"image-keyboard-response",72,88695,"0.0-3.20-1.20","uf6852zzz5uxw4e","193.csv","","null","resources/maskTrios/BBA3.jpg","null","",NA,NA,NA,NA,""
"image-keyboard-response",73,89902,"0.0-3.20-2.20","uf6852zzz5uxw4e","193.csv","","null","resources/images/fishbone.png","null","",NA,NA,NA,NA,""
"image-keyboard-response",74,90275,"0.0-3.21-0.21","uf6852zzz5uxw4e","193.csv","","370.20000000298023","resources/trios/L1T1A3.jpg","38","restless",0.8,0.4,0.4,0.770952578418286,"false"
"image-keyboard-response",75,90683,"0.0-3.21-1.21","uf6852zzz5uxw4e","193.csv","","null","resources/maskTrios/BT1B.jpg","null","",NA,NA,NA,NA,""
"image-keyboard-response",76,91890,"0.0-3.21-2.21","uf6852zzz5uxw4e","193.csv","","null","resources/images/fishbone.png","null","",NA,NA,NA,NA,""
"image-keyboard-response",77,92242,"0.0-3.22-0.22","uf6852zzz5uxw4e","193.csv","","350.20000000298023","resources/trios/L4T1A2.jpg","37","restless",0.8,0.5,0.4,0.734771563142079,"true"
"image-keyboard-response",78,92645,"0.0-3.22-1.22","uf6852zzz5uxw4e","193.csv","","null","resources/maskTrios/L4BB.jpg","null","",NA,NA,NA,NA,""
"image-keyboard-response",79,93849,"0.0-3.22-2.22","uf6852zzz5uxw4e","193.csv","","null","resources/images/coin2.png","null","",NA,NA,NA,NA,""
"image-keyboard-response",80,94131,"0.0-3.23-0.23","uf6852zzz5uxw4e","193.csv","","279.40000000596046","resources/trios/L4T1A2.jpg","37","restless",0.8,0.5,0.4,0.567776421926095,"true"
"image-keyboard-response",81,94538,"0.0-3.23-1.23","uf6852zzz5uxw4e","193.csv","","null","resources/maskTrios/L4BB.jpg","null","",NA,NA,NA,NA,""
"image-keyboard-response",82,95744,"0.0-3.23-2.23","uf6852zzz5uxw4e","193.csv","","null","resources/images/coin2.png","null","",NA,NA,NA,NA,""
"image-keyboard-response",83,96017,"0.0-3.24-0.24","uf6852zzz5uxw4e","193.csv","","271.70000000298023","resources/trios/L4T1A2.jpg","37","restless",0.8,0.5,0.4,0.682512147610297,"true"
"image-keyboard-response",84,96421,"0.0-3.24-1.24","uf6852zzz5uxw4e","193.csv","","null","resources/maskTrios/L4BB.jpg","null","",NA,NA,NA,NA,""
"image-keyboard-response",85,97628,"0.0-3.24-2.24","uf6852zzz5uxw4e","193.csv","","null","resources/images/coin2.png","null","",NA,NA,NA,NA,""
"image-keyboard-response",86,97914,"0.0-3.25-0.25","uf6852zzz5uxw4e","193.csv","","283.29999999701977","resources/trios/L4T4A3.jpg","37","restless",0.8,0.5,0.4,0.64000935696841,"true"
"image-keyboard-response",87,98322,"0.0-3.25-1.25","uf6852zzz5uxw4e","193.csv","","null","resources/maskTrios/L4BB.jpg","null","",NA,NA,NA,NA,""
"image-keyboard-response",88,99525,"0.0-3.25-2.25","uf6852zzz5uxw4e","193.csv","","null","resources/images/coin2.png","null","",NA,NA,NA,NA,""
"image-keyboard-response",89,99953,"0.0-3.26-0.26","uf6852zzz5uxw4e","193.csv","","425.40000000596046","resources/trios/L1T4A3.jpg","37","restless",0.8,0.5,0.4,0.640247826538866,"true"
"image-keyboard-response",90,100360,"0.0-3.26-1.26","uf6852zzz5uxw4e","193.csv","","null","resources/maskTrios/L1BB.jpg","null","",NA,NA,NA,NA,""
"image-keyboard-response",91,101563,"0.0-3.26-2.26","uf6852zzz5uxw4e","193.csv","","null","resources/images/coin2.png","null","",NA,NA,NA,NA,""
"image-keyboard-response",92,101902,"0.0-3.27-0.27","uf6852zzz5uxw4e","193.csv","","336","resources/trios/L1T4A2.jpg","37","restless",0.8,0.5,0.4,0.609013691049126,"true"
"image-keyboard-response",93,102304,"0.0-3.27-1.27","uf6852zzz5uxw4e","193.csv","","null","resources/maskTrios/L1BB.jpg","null","",NA,NA,NA,NA,""
"image-keyboard-response",94,103511,"0.0-3.27-2.27","uf6852zzz5uxw4e","193.csv","","null","resources/images/coin2.png","null","",NA,NA,NA,NA,""
"image-keyboard-response",95,103839,"0.0-3.28-0.28","uf6852zzz5uxw4e","193.csv","","325.5","resources/trios/L1T1A2.jpg","37","restless",0.8,0.5,0.4,0.585194284308113,"true"
"image-keyboard-response",96,104245,"0.0-3.28-1.28","uf6852zzz5uxw4e","193.csv","","null","resources/maskTrios/L1BB.jpg","null","",NA,NA,NA,NA,""
"image-keyboard-response",97,105452,"0.0-3.28-2.28","uf6852zzz5uxw4e","193.csv","","null","resources/images/coin2.png","null","",NA,NA,NA,NA,""
"image-keyboard-response",98,105833,"0.0-3.29-0.29","uf6852zzz5uxw4e","193.csv","","378.80000001192093","resources/trios/L1T1A2.jpg","37","restless",0.8,0.5,0.4,0.652939599296748,"true"
"image-keyboard-response",99,106236,"0.0-3.29-1.29","uf6852zzz5uxw4e","193.csv","","null","resources/maskTrios/L1BB.jpg","null","",NA,NA,NA,NA,""
"image-keyboard-response",100,107443,"0.0-3.29-2.29","uf6852zzz5uxw4e","193.csv","","null","resources/images/coin2.png","null","",NA,NA,NA,NA,""
"image-keyboard-response",101,107817,"0.0-3.30-0.30","uf6852zzz5uxw4e","193.csv","","371.70000000298023","resources/trios/L1T1A2.jpg","37","restless",0.8,0.5,0.4,0.83306372210452,"false"
"image-keyboard-response",102,108224,"0.0-3.30-1.30","uf6852zzz5uxw4e","193.csv","","null","resources/maskTrios/L1BB.jpg","null","",NA,NA,NA,NA,""
"image-keyboard-response",103,109431,"0.0-3.30-2.30","uf6852zzz5uxw4e","193.csv","","null","resources/images/fishbone.png","null","",NA,NA,NA,NA,""
"image-keyboard-response",104,110368,"0.0-3.31-0.31","uf6852zzz5uxw4e","193.csv","","934.7000000029802","resources/trios/L4T4A3.jpg","39","restless",0.8,0.5,0.4,0.591723772063602,"false"
"image-keyboard-response",105,110775,"0.0-3.31-1.31","uf6852zzz5uxw4e","193.csv","","null","resources/maskTrios/BBA3.jpg","null","",NA,NA,NA,NA,""
"image-keyboard-response",106,111982,"0.0-3.31-2.31","uf6852zzz5uxw4e","193.csv","","null","resources/images/fishbone.png","null","",NA,NA,NA,NA,""
"image-keyboard-response",107,112320,"0.0-3.32-0.32","uf6852zzz5uxw4e","193.csv","","335.30000001192093","resources/trios/L1T1A2.jpg","38","restless",0.8,0.5,0.4,0.89775848664109,"false"
"image-keyboard-response",108,112726,"0.0-3.32-1.32","uf6852zzz5uxw4e","193.csv","","null","resources/maskTrios/BT1B.jpg","null","",NA,NA,NA,NA,""
"image-keyboard-response",109,113933,"0.0-3.32-2.32","uf6852zzz5uxw4e","193.csv","","null","resources/images/fishbone.png","null","",NA,NA,NA,NA,""
"image-keyboard-response",110,114257,"0.0-3.33-0.33","uf6852zzz5uxw4e","193.csv","","320.90000000596046","resources/trios/L4T1A2.jpg","37","restless",0.8,0.5,0.4,0.488636665177385,"true"
"image-keyboard-response",111,114663,"0.0-3.33-1.33","uf6852zzz5uxw4e","193.csv","","null","resources/maskTrios/L4BB.jpg","null","",NA,NA,NA,NA,""
"image-keyboard-response",112,115870,"0.0-3.33-2.33","uf6852zzz5uxw4e","193.csv","","null","resources/images/coin2.png","null","",NA,NA,NA,NA,""
"image-keyboard-response",113,116229,"0.0-3.34-0.34","uf6852zzz5uxw4e","193.csv","","355.80000001192093","resources/trios/L1T1A2.jpg","37","restless",0.8,0.5,0.4,0.764296622131556,"true"
"image-keyboard-response",114,116636,"0.0-3.34-1.34","uf6852zzz5uxw4e","193.csv","","null","resources/maskTrios/L1BB.jpg","null","",NA,NA,NA,NA,""
"image-keyboard-response",115,117844,"0.0-3.34-2.34","uf6852zzz5uxw4e","193.csv","","null","resources/images/coin2.png","null","",NA,NA,NA,NA,""
"image-keyboard-response",116,118147,"0.0-3.35-0.35","uf6852zzz5uxw4e","193.csv","","301.19999998807907","resources/trios/L4T4A2.jpg","37","restless",0.8,0.5,0.4,0.97603100856248,"false"
"image-keyboard-response",117,118555,"0.0-3.35-1.35","uf6852zzz5uxw4e","193.csv","","null","resources/maskTrios/L4BB.jpg","null","",NA,NA,NA,NA,""
"image-keyboard-response",118,119762,"0.0-3.35-2.35","uf6852zzz5uxw4e","193.csv","","null","resources/images/fishbone.png","null","",NA,NA,NA,NA,""
"image-keyboard-response",119,120182,"0.0-3.36-0.36","uf6852zzz5uxw4e","193.csv","","418","resources/trios/L1T4A3.jpg","38","restless",0.8,0.5,0.4,0.314325290495477,"true"
"image-keyboard-response",120,120590,"0.0-3.36-1.36","uf6852zzz5uxw4e","193.csv","","null","resources/maskTrios/BT4B.jpg","null","",NA,NA,NA,NA,""
"image-keyboard-response",121,121794,"0.0-3.36-2.36","uf6852zzz5uxw4e","193.csv","","null","resources/images/coin2.png","null","",NA,NA,NA,NA,""
"image-keyboard-response",122,122143,"0.0-3.37-0.37","uf6852zzz5uxw4e","193.csv","","346.19999998807907","resources/trios/L1T1A2.jpg","38","restless",0.8,0.5,0.4,0.10307541028393,"true"
"image-keyboard-response",123,122550,"0.0-3.37-1.37","uf6852zzz5uxw4e","193.csv","","null","resources/maskTrios/BT1B.jpg","null","",NA,NA,NA,NA,""
"image-keyboard-response",124,123757,"0.0-3.37-2.37","uf6852zzz5uxw4e","193.csv","","null","resources/images/coin2.png","null","",NA,NA,NA,NA,""
"image-keyboard-response",125,124088,"0.0-3.38-0.38","uf6852zzz5uxw4e","193.csv","","328.20000000298023","resources/trios/L1T1A3.jpg","38","restless",0.8,0.5,0.4,0.872317733882271,"false"
"image-keyboard-response",126,124494,"0.0-3.38-1.38","uf6852zzz5uxw4e","193.csv","","null","resources/maskTrios/BT1B.jpg","null","",NA,NA,NA,NA,""
"image-keyboard-response",127,125701,"0.0-3.38-2.38","uf6852zzz5uxw4e","193.csv","","null","resources/images/fishbone.png","null","",NA,NA,NA,NA,""
"image-keyboard-response",128,126028,"0.0-3.39-0.39","uf6852zzz5uxw4e","193.csv","","322.90000000596046","resources/trios/L4T1A3.jpg","39","restless",0.8,0.5,0.4,0.202777287847146,"true"
"image-keyboard-response",129,126435,"0.0-3.39-1.39","uf6852zzz5uxw4e","193.csv","","null","resources/maskTrios/BBA3.jpg","null","",NA,NA,NA,NA,""
"image-keyboard-response",130,127642,"0.0-3.39-2.39","uf6852zzz5uxw4e","193.csv","","null","resources/images/coin2.png","null","",NA,NA,NA,NA,""
"image-keyboard-response",131,128045,"0.0-3.40-0.40","uf6852zzz5uxw4e","193.csv","","401.29999999701977","resources/trios/L1T4A3.jpg","39","restless",0.8,0.5,0.4,0.868128774132899,"false"
"image-keyboard-response",132,128450,"0.0-3.40-1.40","uf6852zzz5uxw4e","193.csv","","null","resources/maskTrios/BBA3.jpg","null","",NA,NA,NA,NA,""
"image-keyboard-response",133,129657,"0.0-3.40-2.40","uf6852zzz5uxw4e","193.csv","","null","resources/images/fishbone.png","null","",NA,NA,NA,NA,""
"image-keyboard-response",134,129908,"0.0-3.41-0.41","uf6852zzz5uxw4e","193.csv","","249.1000000089407","resources/trios/L1T4A3.jpg","38","restless",0.8,0.5,0.4,0.869836691718168,"false"
"image-keyboard-response",135,130313,"0.0-3.41-1.41","uf6852zzz5uxw4e","193.csv","","null","resources/maskTrios/BT4B.jpg","null","",NA,NA,NA,NA,""
"image-keyboard-response",136,131519,"0.0-3.41-2.41","uf6852zzz5uxw4e","193.csv","","null","resources/images/fishbone.png","null","",NA,NA,NA,NA,""
"image-keyboard-response",137,131790,"0.0-3.42-0.42","uf6852zzz5uxw4e","193.csv","","268.79999999701977","resources/trios/L1T1A2.jpg","37","restless",0.8,0.5,0.4,0.369448415492246,"true"
"image-keyboard-response",138,132194,"0.0-3.42-1.42","uf6852zzz5uxw4e","193.csv","","null","resources/maskTrios/L1BB.jpg","null","",NA,NA,NA,NA,""
"image-keyboard-response",139,133401,"0.0-3.42-2.42","uf6852zzz5uxw4e","193.csv","","null","resources/images/coin2.png","null","",NA,NA,NA,NA,""
"image-keyboard-response",140,133676,"0.0-3.43-0.43","uf6852zzz5uxw4e","193.csv","","272.70000000298023","resources/trios/L1T4A3.jpg","37","restless",0.8,0.5,0.4,0.559337597738732,"true"
"image-keyboard-response",141,134083,"0.0-3.43-1.43","uf6852zzz5uxw4e","193.csv","","null","resources/maskTrios/L1BB.jpg","null","",NA,NA,NA,NA,""
"image-keyboard-response",142,135291,"0.0-3.43-2.43","uf6852zzz5uxw4e","193.csv","","null","resources/images/coin2.png","null","",NA,NA,NA,NA,""
"image-keyboard-response",143,135726,"0.0-3.44-0.44","uf6852zzz5uxw4e","193.csv","","433.5","resources/trios/L1T1A2.jpg","37","restless",0.8,0.5,0.4,0.93664419887174,"false"
"image-keyboard-response",144,136130,"0.0-3.44-1.44","uf6852zzz5uxw4e","193.csv","","null","resources/maskTrios/L1BB.jpg","null","",NA,NA,NA,NA,""
"image-keyboard-response",145,137337,"0.0-3.44-2.44","uf6852zzz5uxw4e","193.csv","","null","resources/images/fishbone.png","null","",NA,NA,NA,NA,""
"image-keyboard-response",146,138010,"0.0-3.45-0.45","uf6852zzz5uxw4e","193.csv","","670.6000000089407","resources/trios/L4T4A2.jpg","39","restless",0.8,0.5,0.4,0.287055374323074,"true"
"image-keyboard-response",147,138418,"0.0-3.45-1.45","uf6852zzz5uxw4e","193.csv","","null","resources/maskTrios/BBA2.jpg","null","",NA,NA,NA,NA,""
"image-keyboard-response",148,139625,"0.0-3.45-2.45","uf6852zzz5uxw4e","193.csv","","null","resources/images/coin2.png","null","",NA,NA,NA,NA,""
"image-keyboard-response",149,139979,"0.0-3.46-0.46","uf6852zzz5uxw4e","193.csv","","351.5","resources/trios/L4T4A2.jpg","39","restless",0.8,0.6,0.4,0.144344540045402,"true"
"image-keyboard-response",150,140386,"0.0-3.46-1.46","uf6852zzz5uxw4e","193.csv","","null","resources/maskTrios/BBA2.jpg","null","",NA,NA,NA,NA,""
"image-keyboard-response",151,141593,"0.0-3.46-2.46","uf6852zzz5uxw4e","193.csv","","null","resources/images/coin2.png","null","",NA,NA,NA,NA,""
"image-keyboard-response",152,141861,"0.0-3.47-0.47","uf6852zzz5uxw4e","193.csv","","266.09999999403954","resources/trios/L4T1A2.jpg","39","restless",0.8,0.6,0.3,0.412411648027456,"false"
"image-keyboard-response",153,142267,"0.0-3.47-1.47","uf6852zzz5uxw4e","193.csv","","null","resources/maskTrios/BBA2.jpg","null","",NA,NA,NA,NA,""
"image-keyboard-response",154,143474,"0.0-3.47-2.47","uf6852zzz5uxw4e","193.csv","","null","resources/images/fishbone.png","null","",NA,NA,NA,NA,""
"image-keyboard-response",155,143740,"0.0-3.48-0.48","uf6852zzz5uxw4e","193.csv","","263.29999999701977","resources/trios/L1T4A3.jpg","38","restless",0.8,0.6,0.2,0.589141837691441,"true"
"image-keyboard-response",156,144144,"0.0-3.48-1.48","uf6852zzz5uxw4e","193.csv","","null","resources/maskTrios/BT4B.jpg","null","",NA,NA,NA,NA,""
"image-keyboard-response",157,145351,"0.0-3.48-2.48","uf6852zzz5uxw4e","193.csv","","null","resources/images/coin2.png","null","",NA,NA,NA,NA,""
"image-keyboard-response",158,145725,"0.0-3.49-0.49","uf6852zzz5uxw4e","193.csv","","372","resources/trios/L4T4A2.jpg","38","restless",0.8,0.6,0.2,0.551161257294609,"true"
"image-keyboard-response",159,146133,"0.0-3.49-1.49","uf6852zzz5uxw4e","193.csv","","null","resources/maskTrios/BT4B.jpg","null","",NA,NA,NA,NA,""
"image-keyboard-response",160,147340,"0.0-3.49-2.49","uf6852zzz5uxw4e","193.csv","","null","resources/images/coin2.png","null","",NA,NA,NA,NA,""
"image-keyboard-response",161,148282,"0.0-3.50-0.50","uf6852zzz5uxw4e","193.csv","","939.7999999970198","resources/trios/L4T4A2.jpg","38","restless",0.8,0.7,0.2,0.863471853929072,"false"
"image-keyboard-response",162,148689,"0.0-3.50-1.50","uf6852zzz5uxw4e","193.csv","","null","resources/maskTrios/BT4B.jpg","null","",NA,NA,NA,NA,""
"image-keyboard-response",163,149893,"0.0-3.50-2.50","uf6852zzz5uxw4e","193.csv","","null","resources/images/fishbone.png","null","",NA,NA,NA,NA,""
"image-keyboard-response",164,150227,"0.0-3.51-0.51","uf6852zzz5uxw4e","193.csv","","331.19999998807907","resources/trios/L1T1A3.jpg","39","restless",0.8,0.7,0.2,0.569580449512939,"false"
"image-keyboard-response",165,150633,"0.0-3.51-1.51","uf6852zzz5uxw4e","193.csv","","null","resources/maskTrios/BBA3.jpg","null","",NA,NA,NA,NA,""
"image-keyboard-response",166,151840,"0.0-3.51-2.51","uf6852zzz5uxw4e","193.csv","","null","resources/images/fishbone.png","null","",NA,NA,NA,NA,""
"image-keyboard-response",167,152114,"0.0-3.52-0.52","uf6852zzz5uxw4e","193.csv","","271.79999999701977","resources/trios/L4T4A3.jpg","37","restless",0.8,0.7,0.2,0.996476416609757,"false"
"image-keyboard-response",168,152517,"0.0-3.52-1.52","uf6852zzz5uxw4e","193.csv","","null","resources/maskTrios/L4BB.jpg","null","",NA,NA,NA,NA,""
"image-keyboard-response",169,153724,"0.0-3.52-2.52","uf6852zzz5uxw4e","193.csv","","null","resources/images/fishbone.png","null","",NA,NA,NA,NA,""
"image-keyboard-response",170,153938,"0.0-3.53-0.53","uf6852zzz5uxw4e","193.csv","","211.90000000596046","resources/trios/L4T4A3.jpg","38","restless",0.8,0.7,0.2,0.470217828790211,"true"
"image-keyboard-response",171,154343,"0.0-3.53-1.53","uf6852zzz5uxw4e","193.csv","","null","resources/maskTrios/BT4B.jpg","null","",NA,NA,NA,NA,""
"image-keyboard-response",172,155547,"0.0-3.53-2.53","uf6852zzz5uxw4e","193.csv","","null","resources/images/coin2.png","null","",NA,NA,NA,NA,""
"image-keyboard-response",173,155875,"0.0-3.54-0.54","uf6852zzz5uxw4e","193.csv","","326.20000000298023","resources/trios/L1T4A2.jpg","38","restless",0.7,0.6,0.2,0.678231713491084,"false"
"image-keyboard-response",174,156283,"0.0-3.54-1.54","uf6852zzz5uxw4e","193.csv","","null","resources/maskTrios/BT4B.jpg","null","",NA,NA,NA,NA,""
"image-keyboard-response",175,157486,"0.0-3.54-2.54","uf6852zzz5uxw4e","193.csv","","null","resources/images/fishbone.png","null","",NA,NA,NA,NA,""
"image-keyboard-response",176,157803,"0.0-3.55-0.55","uf6852zzz5uxw4e","193.csv","","314.79999999701977","resources/trios/L1T1A3.jpg","39","restless",0.7,0.6,0.2,0.492688003006033,"false"
"image-keyboard-response",177,158210,"0.0-3.55-1.55","uf6852zzz5uxw4e","193.csv","","null","resources/maskTrios/BBA3.jpg","null","",NA,NA,NA,NA,""
"image-keyboard-response",178,159417,"0.0-3.55-2.55","uf6852zzz5uxw4e","193.csv","","null","resources/images/fishbone.png","null","",NA,NA,NA,NA,""
"image-keyboard-response",179,159633,"0.0-3.56-0.56","uf6852zzz5uxw4e","193.csv","","213.09999999403954","resources/trios/L1T1A3.jpg","37","restless",0.7,0.6,0.3,0.0580550721569737,"true"
"image-keyboard-response",180,160040,"0.0-3.56-1.56","uf6852zzz5uxw4e","193.csv","","null","resources/maskTrios/L1BB.jpg","null","",NA,NA,NA,NA,""
"image-keyboard-response",181,161243,"0.0-3.56-2.56","uf6852zzz5uxw4e","193.csv","","null","resources/images/coin2.png","null","",NA,NA,NA,NA,""
"image-keyboard-response",182,161527,"0.0-3.57-0.57","uf6852zzz5uxw4e","193.csv","","281.5","resources/trios/L4T4A3.jpg","37","restless",0.7,0.6,0.3,0.668368720032579,"true"
"image-keyboard-response",183,161932,"0.0-3.57-1.57","uf6852zzz5uxw4e","193.csv","","null","resources/maskTrios/L4BB.jpg","null","",NA,NA,NA,NA,""
"image-keyboard-response",184,163139,"0.0-3.57-2.57","uf6852zzz5uxw4e","193.csv","","null","resources/images/coin2.png","null","",NA,NA,NA,NA,""
"image-keyboard-response",185,163559,"0.0-3.58-0.58","uf6852zzz5uxw4e","193.csv","","417.6000000089407","resources/trios/L4T1A3.jpg","37","restless",0.7,0.6,0.3,0.526161548561333,"true"
"image-keyboard-response",186,163965,"0.0-3.58-1.58","uf6852zzz5uxw4e","193.csv","","null","resources/maskTrios/L4BB.jpg","null","",NA,NA,NA,NA,""
"image-keyboard-response",187,165173,"0.0-3.58-2.58","uf6852zzz5uxw4e","193.csv","","null","resources/images/coin2.png","null","",NA,NA,NA,NA,""
"image-keyboard-response",188,165436,"0.0-3.59-0.59","uf6852zzz5uxw4e","193.csv","","261.20000000298023","resources/trios/L1T1A2.jpg","37","restless",0.6,0.6,0.3,0.426818795359735,"true"
"image-keyboard-response",189,165843,"0.0-3.59-1.59","uf6852zzz5uxw4e","193.csv","","null","resources/maskTrios/L1BB.jpg","null","",NA,NA,NA,NA,""
"image-keyboard-response",190,167050,"0.0-3.59-2.59","uf6852zzz5uxw4e","193.csv","","null","resources/images/coin2.png","null","",NA,NA,NA,NA,""
"image-keyboard-response",191,167425,"0.0-3.60-0.60","uf6852zzz5uxw4e","193.csv","","372.70000000298023","resources/trios/L1T1A2.jpg","37","restless",0.6,0.6,0.2,0.00207972811158541,"true"
"image-keyboard-response",192,167833,"0.0-3.60-1.60","uf6852zzz5uxw4e","193.csv","","null","resources/maskTrios/L1BB.jpg","null","",NA,NA,NA,NA,""
"image-keyboard-response",193,169040,"0.0-3.60-2.60","uf6852zzz5uxw4e","193.csv","","null","resources/images/coin2.png","null","",NA,NA,NA,NA,""
"image-keyboard-response",194,169332,"0.0-3.61-0.61","uf6852zzz5uxw4e","193.csv","","289.3999999910593","resources/trios/L1T4A3.jpg","37","restless",0.6,0.6,0.2,0.249995851254198,"true"
"image-keyboard-response",195,169739,"0.0-3.61-1.61","uf6852zzz5uxw4e","193.csv","","null","resources/maskTrios/L1BB.jpg","null","",NA,NA,NA,NA,""
"image-keyboard-response",196,170943,"0.0-3.61-2.61","uf6852zzz5uxw4e","193.csv","","null","resources/images/coin2.png","null","",NA,NA,NA,NA,""
"image-keyboard-response",197,171464,"0.0-3.62-0.62","uf6852zzz5uxw4e","193.csv","","518.2999999970198","resources/trios/L4T1A3.jpg","37","restless",0.5,0.6,0.2,0.0135892621208804,"true"
"image-keyboard-response",198,171870,"0.0-3.62-1.62","uf6852zzz5uxw4e","193.csv","","null","resources/maskTrios/L4BB.jpg","null","",NA,NA,NA,NA,""
"image-keyboard-response",199,173075,"0.0-3.62-2.62","uf6852zzz5uxw4e","193.csv","","null","resources/images/coin2.png","null","",NA,NA,NA,NA,""
"image-keyboard-response",200,173383,"0.0-3.63-0.63","uf6852zzz5uxw4e","193.csv","","304.8999999910593","resources/trios/L4T1A2.jpg","37","restless",0.5,0.5,0.2,0.814547086028599,"false"
"image-keyboard-response",201,173789,"0.0-3.63-1.63","uf6852zzz5uxw4e","193.csv","","null","resources/maskTrios/L4BB.jpg","null","",NA,NA,NA,NA,""
"image-keyboard-response",202,174993,"0.0-3.63-2.63","uf6852zzz5uxw4e","193.csv","","null","resources/images/fishbone.png","null","",NA,NA,NA,NA,""
"image-keyboard-response",203,175218,"0.0-3.64-0.64","uf6852zzz5uxw4e","193.csv","","223.09999999403954","resources/trios/L1T4A3.jpg","38","restless",0.5,0.5,0.2,0.75230527213122,"false"
"image-keyboard-response",204,175625,"0.0-3.64-1.64","uf6852zzz5uxw4e","193.csv","","null","resources/maskTrios/BT4B.jpg","null","",NA,NA,NA,NA,""
"image-keyboard-response",205,176832,"0.0-3.64-2.64","uf6852zzz5uxw4e","193.csv","","null","resources/images/fishbone.png","null","",NA,NA,NA,NA,""
"image-keyboard-response",206,177538,"0.0-3.65-0.65","uf6852zzz5uxw4e","193.csv","","704.5","resources/trios/L4T4A2.jpg","39","restless",0.4,0.5,0.2,0.157983223052585,"true"
"image-keyboard-response",207,177943,"0.0-3.65-1.65","uf6852zzz5uxw4e","193.csv","","null","resources/maskTrios/BBA2.jpg","null","",NA,NA,NA,NA,""
"image-keyboard-response",208,179150,"0.0-3.65-2.65","uf6852zzz5uxw4e","193.csv","","null","resources/images/coin2.png","null","",NA,NA,NA,NA,""
"image-keyboard-response",209,179489,"0.0-3.66-0.66","uf6852zzz5uxw4e","193.csv","","336.20000000298023","resources/trios/L1T4A3.jpg","39","restless",0.4,0.5,0.1,0.59679503911155,"false"
"image-keyboard-response",210,179893,"0.0-3.66-1.66","uf6852zzz5uxw4e","193.csv","","null","resources/maskTrios/BBA3.jpg","null","",NA,NA,NA,NA,""
"image-keyboard-response",211,181100,"0.0-3.66-2.66","uf6852zzz5uxw4e","193.csv","","null","resources/images/fishbone.png","null","",NA,NA,NA,NA,""
"image-keyboard-response",212,181372,"0.0-3.67-0.67","uf6852zzz5uxw4e","193.csv","","270.1000000089407","resources/trios/L1T1A2.jpg","38","restless",0.4,0.5,0.1,0.141027071245727,"true"
"image-keyboard-response",213,181780,"0.0-3.67-1.67","uf6852zzz5uxw4e","193.csv","","null","resources/maskTrios/BT1B.jpg","null","",NA,NA,NA,NA,""
"image-keyboard-response",214,182987,"0.0-3.67-2.67","uf6852zzz5uxw4e","193.csv","","null","resources/images/coin2.png","null","",NA,NA,NA,NA,""
"image-keyboard-response",215,183336,"0.0-3.68-0.68","uf6852zzz5uxw4e","193.csv","","347.29999999701977","resources/trios/L1T4A2.jpg","38","restless",0.3,0.4,0.1,0.924377554994372,"false"
"image-keyboard-response",216,183742,"0.0-3.68-1.68","uf6852zzz5uxw4e","193.csv","","null","resources/maskTrios/BT4B.jpg","null","",NA,NA,NA,NA,""
"image-keyboard-response",217,184949,"0.0-3.68-2.68","uf6852zzz5uxw4e","193.csv","","null","resources/images/fishbone.png","null","",NA,NA,NA,NA,""
"image-keyboard-response",218,185280,"0.0-3.69-0.69","uf6852zzz5uxw4e","193.csv","","329.40000000596046","resources/trios/L1T1A3.jpg","37","restless",0.3,0.4,0.1,0.395321827260944,"false"
"image-keyboard-response",219,185688,"0.0-3.69-1.69","uf6852zzz5uxw4e","193.csv","","null","resources/maskTrios/L1BB.jpg","null","",NA,NA,NA,NA,""
"image-keyboard-response",220,186892,"0.0-3.69-2.69","uf6852zzz5uxw4e","193.csv","","null","resources/images/fishbone.png","null","",NA,NA,NA,NA,""
"image-keyboard-response",221,187134,"0.0-3.70-0.70","uf6852zzz5uxw4e","193.csv","","239.5","resources/trios/L4T4A3.jpg","38","restless",0.4,0.4,0.1,0.83686317804713,"false"
"image-keyboard-response",222,187540,"0.0-3.70-1.70","uf6852zzz5uxw4e","193.csv","","null","resources/maskTrios/BT4B.jpg","null","",NA,NA,NA,NA,""
"image-keyboard-response",223,188743,"0.0-3.70-2.70","uf6852zzz5uxw4e","193.csv","","null","resources/images/fishbone.png","null","",NA,NA,NA,NA,""
"image-keyboard-response",224,189027,"0.0-3.71-0.71","uf6852zzz5uxw4e","193.csv","","282.29999999701977","resources/trios/L4T1A3.jpg","39","restless",0.4,0.4,0.1,0.516429735969459,"false"
"image-keyboard-response",225,189435,"0.0-3.71-1.71","uf6852zzz5uxw4e","193.csv","","null","resources/maskTrios/BBA3.jpg","null","",NA,NA,NA,NA,""
"image-keyboard-response",226,190642,"0.0-3.71-2.71","uf6852zzz5uxw4e","193.csv","","null","resources/images/fishbone.png","null","",NA,NA,NA,NA,""
"image-keyboard-response",227,191086,"0.0-3.72-0.72","uf6852zzz5uxw4e","193.csv","","442.5","resources/trios/L1T4A3.jpg","38","restless",0.4,0.4,0.1,0.14766642305695,"true"
"image-keyboard-response",228,191493,"0.0-3.72-1.72","uf6852zzz5uxw4e","193.csv","","null","resources/maskTrios/BT4B.jpg","null","",NA,NA,NA,NA,""
"image-keyboard-response",229,192700,"0.0-3.72-2.72","uf6852zzz5uxw4e","193.csv","","null","resources/images/coin2.png","null","",NA,NA,NA,NA,""
"image-keyboard-response",230,193037,"0.0-3.73-0.73","uf6852zzz5uxw4e","193.csv","","335.09999999403954","resources/trios/L1T4A3.jpg","38","restless",0.4,0.4,0.2,0.572373113096655,"false"
"image-keyboard-response",231,193442,"0.0-3.73-1.73","uf6852zzz5uxw4e","193.csv","","null","resources/maskTrios/BT4B.jpg","null","",NA,NA,NA,NA,""
"image-keyboard-response",232,194649,"0.0-3.73-2.73","uf6852zzz5uxw4e","193.csv","","null","resources/images/fishbone.png","null","",NA,NA,NA,NA,""
"image-keyboard-response",233,195025,"0.0-3.74-0.74","uf6852zzz5uxw4e","193.csv","","374","resources/trios/L4T1A2.jpg","38","restless",0.4,0.4,0.2,0.0671912997585278,"true"
"image-keyboard-response",234,195433,"0.0-3.74-1.74","uf6852zzz5uxw4e","193.csv","","null","resources/maskTrios/BT1B.jpg","null","",NA,NA,NA,NA,""
"image-keyboard-response",235,196640,"0.0-3.74-2.74","uf6852zzz5uxw4e","193.csv","","null","resources/images/coin2.png","null","",NA,NA,NA,NA,""
"image-keyboard-response",236,197045,"0.0-3.75-0.75","uf6852zzz5uxw4e","193.csv","","402.40000000596046","resources/trios/L1T4A2.jpg","38","restless",0.4,0.4,0.2,0.488981875355164,"false"
"image-keyboard-response",237,197452,"0.0-3.75-1.75","uf6852zzz5uxw4e","193.csv","","null","resources/maskTrios/BT4B.jpg","null","",NA,NA,NA,NA,""
"image-keyboard-response",238,198656,"0.0-3.75-2.75","uf6852zzz5uxw4e","193.csv","","null","resources/images/fishbone.png","null","",NA,NA,NA,NA,""
"image-keyboard-response",239,199023,"0.0-3.76-0.76","uf6852zzz5uxw4e","193.csv","","364.79999999701977","resources/trios/L1T1A2.jpg","38","restless",0.4,0.5,0.2,0.728742924534117,"false"
"image-keyboard-response",240,199428,"0.0-3.76-1.76","uf6852zzz5uxw4e","193.csv","","null","resources/maskTrios/BT1B.jpg","null","",NA,NA,NA,NA,""
"image-keyboard-response",241,200635,"0.0-3.76-2.76","uf6852zzz5uxw4e","193.csv","","null","resources/images/fishbone.png","null","",NA,NA,NA,NA,""
"image-keyboard-response",242,200963,"0.0-3.77-0.77","uf6852zzz5uxw4e","193.csv","","325.90000000596046","resources/trios/L4T1A2.jpg","38","restless",0.4,0.5,0.2,0.789210508173296,"false"
"image-keyboard-response",243,201370,"0.0-3.77-1.77","uf6852zzz5uxw4e","193.csv","","null","resources/maskTrios/BT1B.jpg","null","",NA,NA,NA,NA,""
"image-keyboard-response",244,202577,"0.0-3.77-2.77","uf6852zzz5uxw4e","193.csv","","null","resources/images/fishbone.png","null","",NA,NA,NA,NA,""
"image-keyboard-response",245,202842,"0.0-3.78-0.78","uf6852zzz5uxw4e","193.csv","","262.20000000298023","resources/trios/L4T4A2.jpg","38","restless",0.4,0.5,0.2,0.492330559081947,"true"
"image-keyboard-response",246,203246,"0.0-3.78-1.78","uf6852zzz5uxw4e","193.csv","","null","resources/maskTrios/BT4B.jpg","null","",NA,NA,NA,NA,""
"image-keyboard-response",247,204454,"0.0-3.78-2.78","uf6852zzz5uxw4e","193.csv","","null","resources/images/coin2.png","null","",NA,NA,NA,NA,""
"image-keyboard-response",248,204737,"0.0-3.79-0.79","uf6852zzz5uxw4e","193.csv","","280.79999999701977","resources/trios/L4T4A2.jpg","37","restless",0.4,0.5,0.2,0.507951290171246,"false"
"image-keyboard-response",249,205141,"0.0-3.79-1.79","uf6852zzz5uxw4e","193.csv","","null","resources/maskTrios/L4BB.jpg","null","",NA,NA,NA,NA,""
"image-keyboard-response",250,206348,"0.0-3.79-2.79","uf6852zzz5uxw4e","193.csv","","null","resources/images/fishbone.png","null","",NA,NA,NA,NA,""
"image-keyboard-response",251,206602,"0.0-3.80-0.80","uf6852zzz5uxw4e","193.csv","","252.1000000089407","resources/trios/L1T4A2.jpg","38","restless",0.4,0.5,0.2,0.487006047972154,"true"
"image-keyboard-response",252,207009,"0.0-3.80-1.80","uf6852zzz5uxw4e","193.csv","","null","resources/maskTrios/BT4B.jpg","null","",NA,NA,NA,NA,""
"image-keyboard-response",253,208211,"0.0-3.80-2.80","uf6852zzz5uxw4e","193.csv","","null","resources/images/coin2.png","null","",NA,NA,NA,NA,""
"image-keyboard-response",254,208497,"0.0-3.81-0.81","uf6852zzz5uxw4e","193.csv","","283.40000000596046","resources/trios/L1T1A2.jpg","37","restless",0.4,0.4,0.2,0.90983592998621,"false"
"image-keyboard-response",255,208903,"0.0-3.81-1.81","uf6852zzz5uxw4e","193.csv","","null","resources/maskTrios/L1BB.jpg","null","",NA,NA,NA,NA,""
"image-keyboard-response",256,210108,"0.0-3.81-2.81","uf6852zzz5uxw4e","193.csv","","null","resources/images/fishbone.png","null","",NA,NA,NA,NA,""
"image-keyboard-response",257,210455,"0.0-3.82-0.82","uf6852zzz5uxw4e","193.csv","","344.8999999910593","resources/trios/L1T4A3.jpg","38","restless",0.4,0.5,0.2,0.803212781557273,"false"
"image-keyboard-response",258,210862,"0.0-3.82-1.82","uf6852zzz5uxw4e","193.csv","","null","resources/maskTrios/BT4B.jpg","null","",NA,NA,NA,NA,""
"image-keyboard-response",259,212064,"0.0-3.82-2.82","uf6852zzz5uxw4e","193.csv","","null","resources/images/fishbone.png","null","",NA,NA,NA,NA,""
"image-keyboard-response",260,212288,"0.0-3.83-0.83","uf6852zzz5uxw4e","193.csv","","221.59999999403954","resources/trios/L1T4A2.jpg","39","restless",0.4,0.5,0.2,0.78455891443551,"false"
"image-keyboard-response",261,212692,"0.0-3.83-1.83","uf6852zzz5uxw4e","193.csv","","null","resources/maskTrios/BBA2.jpg","null","",NA,NA,NA,NA,""
"image-keyboard-response",262,213899,"0.0-3.83-2.83","uf6852zzz5uxw4e","193.csv","","null","resources/images/fishbone.png","null","",NA,NA,NA,NA,""
"image-keyboard-response",263,214093,"0.0-3.84-0.84","uf6852zzz5uxw4e","193.csv","","191.29999999701977","resources/trios/L4T1A3.jpg","38","restless",0.4,0.5,0.2,0.978990995344765,"false"
"image-keyboard-response",264,214500,"0.0-3.84-1.84","uf6852zzz5uxw4e","193.csv","","null","resources/maskTrios/BT1B.jpg","null","",NA,NA,NA,NA,""
"image-keyboard-response",265,215703,"0.0-3.84-2.84","uf6852zzz5uxw4e","193.csv","","null","resources/images/fishbone.png","null","",NA,NA,NA,NA,""
"image-keyboard-response",266,215825,"0.0-3.85-0.85","uf6852zzz5uxw4e","193.csv","","120.1000000089407","resources/trios/L1T1A2.jpg","37","restless",0.4,0.5,0.3,0.652086156858735,"false"
"image-keyboard-response",267,216233,"0.0-3.85-1.85","uf6852zzz5uxw4e","193.csv","","null","resources/maskTrios/L1BB.jpg","null","",NA,NA,NA,NA,""
"image-keyboard-response",268,217440,"0.0-3.85-2.85","uf6852zzz5uxw4e","193.csv","","null","resources/images/fishbone.png","null","",NA,NA,NA,NA,""
"image-keyboard-response",269,217717,"0.0-3.86-0.86","uf6852zzz5uxw4e","193.csv","","274.70000000298023","resources/trios/L1T1A3.jpg","37","restless",0.4,0.5,0.3,0.835162904697137,"false"
"image-keyboard-response",270,218124,"0.0-3.86-1.86","uf6852zzz5uxw4e","193.csv","","null","resources/maskTrios/L1BB.jpg","null","",NA,NA,NA,NA,""
"image-keyboard-response",271,219330,"0.0-3.86-2.86","uf6852zzz5uxw4e","193.csv","","null","resources/images/fishbone.png","null","",NA,NA,NA,NA,""
"image-keyboard-response",272,219673,"0.0-3.87-0.87","uf6852zzz5uxw4e","193.csv","","340.79999999701977","resources/trios/L1T1A2.jpg","37","restless",0.4,0.5,0.3,0.520320680417648,"false"
"image-keyboard-response",273,220080,"0.0-3.87-1.87","uf6852zzz5uxw4e","193.csv","","null","resources/maskTrios/L1BB.jpg","null","",NA,NA,NA,NA,""
"image-keyboard-response",274,221287,"0.0-3.87-2.87","uf6852zzz5uxw4e","193.csv","","null","resources/images/fishbone.png","null","",NA,NA,NA,NA,""
"image-keyboard-response",275,221587,"0.0-3.88-0.88","uf6852zzz5uxw4e","193.csv","","297.90000000596046","resources/trios/L1T4A2.jpg","38","restless",0.4,0.5,0.3,0.675889015356456,"false"
"image-keyboard-response",276,221992,"0.0-3.88-1.88","uf6852zzz5uxw4e","193.csv","","null","resources/maskTrios/BT4B.jpg","null","",NA,NA,NA,NA,""
"image-keyboard-response",277,223199,"0.0-3.88-2.88","uf6852zzz5uxw4e","193.csv","","null","resources/images/fishbone.png","null","",NA,NA,NA,NA,""
"image-keyboard-response",278,223479,"0.0-3.89-0.89","uf6852zzz5uxw4e","193.csv","","278","resources/trios/L4T4A3.jpg","39","restless",0.4,0.5,0.3,0.126710308579787,"true"
"image-keyboard-response",279,223886,"0.0-3.89-1.89","uf6852zzz5uxw4e","193.csv","","null","resources/maskTrios/BBA3.jpg","null","",NA,NA,NA,NA,""
"image-keyboard-response",280,225092,"0.0-3.89-2.89","uf6852zzz5uxw4e","193.csv","","null","resources/images/coin2.png","null","",NA,NA,NA,NA,""
"image-keyboard-response",281,225412,"0.0-3.90-0.90","uf6852zzz5uxw4e","193.csv","","317.6000000089407","resources/trios/L1T4A2.jpg","39","restless",0.4,0.5,0.3,0.962091559970259,"false"
"image-keyboard-response",282,225819,"0.0-3.90-1.90","uf6852zzz5uxw4e","193.csv","","null","resources/maskTrios/BBA2.jpg","null","",NA,NA,NA,NA,""
"image-keyboard-response",283,227026,"0.0-3.90-2.90","uf6852zzz5uxw4e","193.csv","","null","resources/images/fishbone.png","null","",NA,NA,NA,NA,""
"image-keyboard-response",284,227462,"0.0-3.91-0.91","uf6852zzz5uxw4e","193.csv","","434.20000000298023","resources/trios/L1T1A3.jpg","38","restless",0.4,0.5,0.3,0.324125752729092,"true"
"image-keyboard-response",285,227870,"0.0-3.91-1.91","uf6852zzz5uxw4e","193.csv","","null","resources/maskTrios/BT1B.jpg","null","",NA,NA,NA,NA,""
"image-keyboard-response",286,229074,"0.0-3.91-2.91","uf6852zzz5uxw4e","193.csv","","null","resources/images/coin2.png","null","",NA,NA,NA,NA,""
"image-keyboard-response",287,229383,"0.0-3.92-0.92","uf6852zzz5uxw4e","193.csv","","306.79999999701977","resources/trios/L1T1A3.jpg","38","restless",0.4,0.6,0.3,0.889983528097017,"false"
"image-keyboard-response",288,229785,"0.0-3.92-1.92","uf6852zzz5uxw4e","193.csv","","null","resources/maskTrios/BT1B.jpg","null","",NA,NA,NA,NA,""
"image-keyboard-response",289,230992,"0.0-3.92-2.92","uf6852zzz5uxw4e","193.csv","","null","resources/images/fishbone.png","null","",NA,NA,NA,NA,""
"image-keyboard-response",290,231768,"0.0-3.93-0.93","uf6852zzz5uxw4e","193.csv","","774.2000000029802","resources/trios/L4T4A3.jpg","39","restless",0.4,0.6,0.3,0.227359924058588,"true"
"image-keyboard-response",291,232175,"0.0-3.93-1.93","uf6852zzz5uxw4e","193.csv","","null","resources/maskTrios/BBA3.jpg","null","",NA,NA,NA,NA,""
"image-keyboard-response",292,233382,"0.0-3.93-2.93","uf6852zzz5uxw4e","193.csv","","null","resources/images/coin2.png","null","",NA,NA,NA,NA,""
"image-keyboard-response",293,233766,"0.0-3.94-0.94","uf6852zzz5uxw4e","193.csv","","380.79999999701977","resources/trios/L1T1A2.jpg","38","restless",0.4,0.6,0.3,0.777019217515137,"false"
"image-keyboard-response",294,234173,"0.0-3.94-1.94","uf6852zzz5uxw4e","193.csv","","null","resources/maskTrios/BT1B.jpg","null","",NA,NA,NA,NA,""
"image-keyboard-response",295,235380,"0.0-3.94-2.94","uf6852zzz5uxw4e","193.csv","","null","resources/images/fishbone.png","null","",NA,NA,NA,NA,""
"image-keyboard-response",296,235624,"0.0-3.95-0.95","uf6852zzz5uxw4e","193.csv","","241.8999999910593","resources/trios/L1T4A2.jpg","37","restless",0.4,0.6,0.3,0.661160274861725,"false"
"image-keyboard-response",297,236031,"0.0-3.95-1.95","uf6852zzz5uxw4e","193.csv","","null","resources/maskTrios/L1BB.jpg","null","",NA,NA,NA,NA,""
"image-keyboard-response",298,237238,"0.0-3.95-2.95","uf6852zzz5uxw4e","193.csv","","null","resources/images/fishbone.png","null","",NA,NA,NA,NA,""
"image-keyboard-response",299,237539,"0.0-3.96-0.96","uf6852zzz5uxw4e","193.csv","","299","resources/trios/L1T1A2.jpg","39","restless",0.4,0.6,0.3,0.927844195215793,"false"
"image-keyboard-response",300,237941,"0.0-3.96-1.96","uf6852zzz5uxw4e","193.csv","","null","resources/maskTrios/BBA2.jpg","null","",NA,NA,NA,NA,""
"image-keyboard-response",301,239148,"0.0-3.96-2.96","uf6852zzz5uxw4e","193.csv","","null","resources/images/fishbone.png","null","",NA,NA,NA,NA,""
"image-keyboard-response",302,239455,"0.0-3.97-0.97","uf6852zzz5uxw4e","193.csv","","304.3999999910593","resources/trios/L1T1A3.jpg","38","restless",0.4,0.6,0.3,0.694722778379558,"false"
"image-keyboard-response",303,239863,"0.0-3.97-1.97","uf6852zzz5uxw4e","193.csv","","null","resources/maskTrios/BT1B.jpg","null","",NA,NA,NA,NA,""
"image-keyboard-response",304,241068,"0.0-3.97-2.97","uf6852zzz5uxw4e","193.csv","","null","resources/images/fishbone.png","null","",NA,NA,NA,NA,""
"image-keyboard-response",305,241317,"0.0-3.98-0.98","uf6852zzz5uxw4e","193.csv","","246.3999999910593","resources/trios/L4T1A2.jpg","37","restless",0.4,0.6,0.3,0.771488013863653,"false"
"image-keyboard-response",306,241721,"0.0-3.98-1.98","uf6852zzz5uxw4e","193.csv","","null","resources/maskTrios/L4BB.jpg","null","",NA,NA,NA,NA,""
"image-keyboard-response",307,242926,"0.0-3.98-2.98","uf6852zzz5uxw4e","193.csv","","null","resources/images/fishbone.png","null","",NA,NA,NA,NA,""
"image-keyboard-response",308,243157,"0.0-3.99-0.99","uf6852zzz5uxw4e","193.csv","","228.70000000298023","resources/trios/L4T1A2.jpg","37","restless",0.4,0.6,0.3,0.0209083845684896,"true"
"image-keyboard-response",309,243564,"0.0-3.99-1.99","uf6852zzz5uxw4e","193.csv","","null","resources/maskTrios/L4BB.jpg","null","",NA,NA,NA,NA,""
"image-keyboard-response",310,244771,"0.0-3.99-2.99","uf6852zzz5uxw4e","193.csv","","null","resources/images/coin2.png","null","",NA,NA,NA,NA,""
"image-keyboard-response",311,245032,"0.0-3.100-0.100","uf6852zzz5uxw4e","193.csv","","258.70000000298023","resources/trios/L1T1A2.jpg","37","restless",0.4,0.5,0.4,0.834358053503584,"false"
"image-keyboard-response",312,245435,"0.0-3.100-1.100","uf6852zzz5uxw4e","193.csv","","null","resources/maskTrios/L1BB.jpg","null","",NA,NA,NA,NA,""
"image-keyboard-response",313,246642,"0.0-3.100-2.100","uf6852zzz5uxw4e","193.csv","","null","resources/images/fishbone.png","null","",NA,NA,NA,NA,""
"image-keyboard-response",314,246968,"0.0-3.101-0.101","uf6852zzz5uxw4e","193.csv","","323.70000000298023","resources/trios/L4T4A2.jpg","38","restless",0.4,0.5,0.4,0.763384775347665,"false"
"image-keyboard-response",315,247374,"0.0-3.101-1.101","uf6852zzz5uxw4e","193.csv","","null","resources/maskTrios/BT4B.jpg","null","",NA,NA,NA,NA,""
"image-keyboard-response",316,248578,"0.0-3.101-2.101","uf6852zzz5uxw4e","193.csv","","null","resources/images/fishbone.png","null","",NA,NA,NA,NA,""
"image-keyboard-response",317,248812,"0.0-3.102-0.102","uf6852zzz5uxw4e","193.csv","","231.29999999701977","resources/trios/L4T4A3.jpg","39","restless",0.4,0.5,0.4,0.603819938411352,"false"
"image-keyboard-response",318,249220,"0.0-3.102-1.102","uf6852zzz5uxw4e","193.csv","","null","resources/maskTrios/BBA3.jpg","null","",NA,NA,NA,NA,""
"image-keyboard-response",319,250425,"0.0-3.102-2.102","uf6852zzz5uxw4e","193.csv","","null","resources/images/fishbone.png","null","",NA,NA,NA,NA,""
"image-keyboard-response",320,250684,"0.0-3.103-0.103","uf6852zzz5uxw4e","193.csv","","257.20000000298023","resources/trios/L4T1A3.jpg","39","restless",0.4,0.5,0.4,0.485603828269263,"false"
"image-keyboard-response",321,251091,"0.0-3.103-1.103","uf6852zzz5uxw4e","193.csv","","null","resources/maskTrios/BBA3.jpg","null","",NA,NA,NA,NA,""
"image-keyboard-response",322,252293,"0.0-3.103-2.103","uf6852zzz5uxw4e","193.csv","","null","resources/images/fishbone.png","null","",NA,NA,NA,NA,""
"image-keyboard-response",323,252851,"0.0-3.104-0.104","uf6852zzz5uxw4e","193.csv","","555.4000000059605","resources/trios/L1T4A3.jpg","38","restless",0.4,0.5,0.4,0.614449738539756,"false"
"image-keyboard-response",324,253259,"0.0-3.104-1.104","uf6852zzz5uxw4e","193.csv","","null","resources/maskTrios/BT4B.jpg","null","",NA,NA,NA,NA,""
"image-keyboard-response",325,254461,"0.0-3.104-2.104","uf6852zzz5uxw4e","193.csv","","null","resources/images/fishbone.png","null","",NA,NA,NA,NA,""
"image-keyboard-response",326,254723,"0.0-3.105-0.105","uf6852zzz5uxw4e","193.csv","","261.79999999701977","resources/trios/L4T4A2.jpg","37","restless",0.4,0.5,0.4,0.650969220044219,"false"
"image-keyboard-response",327,255128,"0.0-3.105-1.105","uf6852zzz5uxw4e","193.csv","","null","resources/maskTrios/L4BB.jpg","null","",NA,NA,NA,NA,""
"image-keyboard-response",328,256333,"0.0-3.105-2.105","uf6852zzz5uxw4e","193.csv","","null","resources/images/fishbone.png","null","",NA,NA,NA,NA,""
"image-keyboard-response",329,256587,"0.0-3.106-0.106","uf6852zzz5uxw4e","193.csv","","252.40000000596046","resources/trios/L4T4A3.jpg","37","restless",0.4,0.5,0.4,0.0504428340365635,"true"
"image-keyboard-response",330,256991,"0.0-3.106-1.106","uf6852zzz5uxw4e","193.csv","","null","resources/maskTrios/L4BB.jpg","null","",NA,NA,NA,NA,""
"image-keyboard-response",331,258198,"0.0-3.106-2.106","uf6852zzz5uxw4e","193.csv","","null","resources/images/coin2.png","null","",NA,NA,NA,NA,""
"image-keyboard-response",332,258568,"0.0-3.107-0.107","uf6852zzz5uxw4e","193.csv","","367","resources/trios/L1T4A2.jpg","37","restless",0.4,0.5,0.4,0.0287314906933585,"true"
"image-keyboard-response",333,258970,"0.0-3.107-1.107","uf6852zzz5uxw4e","193.csv","","null","resources/maskTrios/L1BB.jpg","null","",NA,NA,NA,NA,""
"image-keyboard-response",334,260175,"0.0-3.107-2.107","uf6852zzz5uxw4e","193.csv","","null","resources/images/coin2.png","null","",NA,NA,NA,NA,""
"image-keyboard-response",335,260495,"0.0-3.108-0.108","uf6852zzz5uxw4e","193.csv","","317.8999999910593","resources/trios/L4T4A2.jpg","37","restless",0.4,0.5,0.4,0.40170166583507,"false"
"image-keyboard-response",336,260903,"0.0-3.108-1.108","uf6852zzz5uxw4e","193.csv","","null","resources/maskTrios/L4BB.jpg","null","",NA,NA,NA,NA,""
"image-keyboard-response",337,262109,"0.0-3.108-2.108","uf6852zzz5uxw4e","193.csv","","null","resources/images/fishbone.png","null","",NA,NA,NA,NA,""
"image-keyboard-response",338,263143,"0.0-3.109-0.109","uf6852zzz5uxw4e","193.csv","","1031.199999988079","resources/trios/L4T1A3.jpg","39","restless",0.4,0.5,0.5,0.162020868835861,"true"
"image-keyboard-response",339,263549,"0.0-3.109-1.109","uf6852zzz5uxw4e","193.csv","","null","resources/maskTrios/BBA3.jpg","null","",NA,NA,NA,NA,""
"image-keyboard-response",340,264756,"0.0-3.109-2.109","uf6852zzz5uxw4e","193.csv","","null","resources/images/coin2.png","null","",NA,NA,NA,NA,""
"image-keyboard-response",341,265162,"0.0-3.110-0.110","uf6852zzz5uxw4e","193.csv","","403","resources/trios/L1T4A3.jpg","39","restless",0.5,0.5,0.5,0.630445547903022,"false"
"image-keyboard-response",342,265569,"0.0-3.110-1.110","uf6852zzz5uxw4e","193.csv","","null","resources/maskTrios/BBA3.jpg","null","",NA,NA,NA,NA,""
"image-keyboard-response",343,266776,"0.0-3.110-2.110","uf6852zzz5uxw4e","193.csv","","null","resources/images/fishbone.png","null","",NA,NA,NA,NA,""
"image-keyboard-response",344,267066,"0.0-3.111-0.111","uf6852zzz5uxw4e","193.csv","","287.79999999701977","resources/trios/L4T1A3.jpg","38","restless",0.5,0.5,0.5,0.188837205605374,"true"
"image-keyboard-response",345,267473,"0.0-3.111-1.111","uf6852zzz5uxw4e","193.csv","","null","resources/maskTrios/BT1B.jpg","null","",NA,NA,NA,NA,""
"image-keyboard-response",346,268679,"0.0-3.111-2.111","uf6852zzz5uxw4e","193.csv","","null","resources/images/coin2.png","null","",NA,NA,NA,NA,""
"image-keyboard-response",347,269074,"0.0-3.112-0.112","uf6852zzz5uxw4e","193.csv","","392.40000000596046","resources/trios/L1T4A2.jpg","38","restless",0.5,0.5,0.5,0.290118257089944,"true"
"image-keyboard-response",348,269480,"0.0-3.112-1.112","uf6852zzz5uxw4e","193.csv","","null","resources/maskTrios/BT4B.jpg","null","",NA,NA,NA,NA,""
"image-keyboard-response",349,270687,"0.0-3.112-2.112","uf6852zzz5uxw4e","193.csv","","null","resources/images/coin2.png","null","",NA,NA,NA,NA,""
"image-keyboard-response",350,270937,"0.0-3.113-0.113","uf6852zzz5uxw4e","193.csv","","247.5","resources/trios/L4T4A3.jpg","38","restless",0.5,0.5,0.5,0.741994795421862,"false"
"image-keyboard-response",351,271341,"0.0-3.113-1.113","uf6852zzz5uxw4e","193.csv","","null","resources/maskTrios/BT4B.jpg","null","",NA,NA,NA,NA,""
"image-keyboard-response",352,272547,"0.0-3.113-2.113","uf6852zzz5uxw4e","193.csv","","null","resources/images/fishbone.png","null","",NA,NA,NA,NA,""
"image-keyboard-response",353,272880,"0.0-3.114-0.114","uf6852zzz5uxw4e","193.csv","","329.8999999910593","resources/trios/L1T1A3.jpg","37","restless",0.5,0.5,0.5,0.0819920241951038,"true"
"image-keyboard-response",354,273287,"0.0-3.114-1.114","uf6852zzz5uxw4e","193.csv","","null","resources/maskTrios/L1BB.jpg","null","",NA,NA,NA,NA,""
"image-keyboard-response",355,274490,"0.0-3.114-2.114","uf6852zzz5uxw4e","193.csv","","null","resources/images/coin2.png","null","",NA,NA,NA,NA,""
"image-keyboard-response",356,274839,"0.0-3.115-0.115","uf6852zzz5uxw4e","193.csv","","347.09999999403954","resources/trios/L1T4A3.jpg","37","restless",0.5,0.5,0.5,0.927977439588693,"false"
"image-keyboard-response",357,275242,"0.0-3.115-1.115","uf6852zzz5uxw4e","193.csv","","null","resources/maskTrios/L1BB.jpg","null","",NA,NA,NA,NA,""
"image-keyboard-response",358,276445,"0.0-3.115-2.115","uf6852zzz5uxw4e","193.csv","","null","resources/images/fishbone.png","null","",NA,NA,NA,NA,""
"image-keyboard-response",359,276705,"0.0-3.116-0.116","uf6852zzz5uxw4e","193.csv","","258.59999999403954","resources/trios/L1T4A3.jpg","39","restless",0.5,0.6,0.5,0.530599737689629,"false"
"image-keyboard-response",360,277112,"0.0-3.116-1.116","uf6852zzz5uxw4e","193.csv","","null","resources/maskTrios/BBA3.jpg","null","",NA,NA,NA,NA,""
"image-keyboard-response",361,278319,"0.0-3.116-2.116","uf6852zzz5uxw4e","193.csv","","null","resources/images/fishbone.png","null","",NA,NA,NA,NA,""
"image-keyboard-response",362,278686,"0.0-3.117-0.117","uf6852zzz5uxw4e","193.csv","","365.29999999701977","resources/trios/L1T4A3.jpg","38","restless",0.5,0.7,0.5,0.414556022795797,"true"
"image-keyboard-response",363,279093,"0.0-3.117-1.117","uf6852zzz5uxw4e","193.csv","","null","resources/maskTrios/BT4B.jpg","null","",NA,NA,NA,NA,""
"image-keyboard-response",364,280299,"0.0-3.117-2.117","uf6852zzz5uxw4e","193.csv","","null","resources/images/coin2.png","null","",NA,NA,NA,NA,""
"image-keyboard-response",365,280554,"0.0-3.118-0.118","uf6852zzz5uxw4e","193.csv","","252.6000000089407","resources/trios/L1T4A3.jpg","38","restless",0.5,0.7,0.5,0.537798514929351,"true"
"image-keyboard-response",366,280961,"0.0-3.118-1.118","uf6852zzz5uxw4e","193.csv","","null","resources/maskTrios/BT4B.jpg","null","",NA,NA,NA,NA,""
"image-keyboard-response",367,282168,"0.0-3.118-2.118","uf6852zzz5uxw4e","193.csv","","null","resources/images/coin2.png","null","",NA,NA,NA,NA,""
"image-keyboard-response",368,282465,"0.0-3.119-0.119","uf6852zzz5uxw4e","193.csv","","294.59999999403954","resources/trios/L4T4A3.jpg","38","restless",0.5,0.7,0.5,0.941837417244335,"false"
"image-keyboard-response",369,282872,"0.0-3.119-1.119","uf6852zzz5uxw4e","193.csv","","null","resources/maskTrios/BT4B.jpg","null","",NA,NA,NA,NA,""
"image-keyboard-response",370,284080,"0.0-3.119-2.119","uf6852zzz5uxw4e","193.csv","","null","resources/images/fishbone.png","null","",NA,NA,NA,NA,""
"image-keyboard-response",371,284531,"0.0-3.120-0.120","uf6852zzz5uxw4e","193.csv","","449.59999999403954","resources/trios/L4T1A2.jpg","37","restless",0.5,0.7,0.5,0.0546187271162886,"true"
"image-keyboard-response",372,284936,"0.0-3.120-1.120","uf6852zzz5uxw4e","193.csv","","null","resources/maskTrios/L4BB.jpg","null","",NA,NA,NA,NA,""
"image-keyboard-response",373,286140,"0.0-3.120-2.120","uf6852zzz5uxw4e","193.csv","","null","resources/images/coin2.png","null","",NA,NA,NA,NA,""
"image-keyboard-response",374,286491,"0.0-3.121-0.121","uf6852zzz5uxw4e","193.csv","","348","resources/trios/L4T4A3.jpg","37","restless",0.5,0.7,0.6,0.219206895148522,"true"
"image-keyboard-response",375,286898,"0.0-3.121-1.121","uf6852zzz5uxw4e","193.csv","","null","resources/maskTrios/L4BB.jpg","null","",NA,NA,NA,NA,""
"image-keyboard-response",376,288105,"0.0-3.121-2.121","uf6852zzz5uxw4e","193.csv","","null","resources/images/coin2.png","null","",NA,NA,NA,NA,""
"image-keyboard-response",377,288402,"0.0-3.122-0.122","uf6852zzz5uxw4e","193.csv","","294.79999999701977","resources/trios/L4T1A2.jpg","37","restless",0.5,0.7,0.6,0.969810864865547,"false"
"image-keyboard-response",378,288806,"0.0-3.122-1.122","uf6852zzz5uxw4e","193.csv","","null","resources/maskTrios/L4BB.jpg","null","",NA,NA,NA,NA,""
"image-keyboard-response",379,290009,"0.0-3.122-2.122","uf6852zzz5uxw4e","193.csv","","null","resources/images/fishbone.png","null","",NA,NA,NA,NA,""
"image-keyboard-response",380,290433,"0.0-3.123-0.123","uf6852zzz5uxw4e","193.csv","","421.09999999403954","resources/trios/L1T1A2.jpg","38","restless",0.5,0.7,0.6,0.734156627102997,"false"
"image-keyboard-response",381,290840,"0.0-3.123-1.123","uf6852zzz5uxw4e","193.csv","","null","resources/maskTrios/BT1B.jpg","null","",NA,NA,NA,NA,""
"image-keyboard-response",382,292047,"0.0-3.123-2.123","uf6852zzz5uxw4e","193.csv","","null","resources/images/fishbone.png","null","",NA,NA,NA,NA,""
"image-keyboard-response",383,292343,"0.0-3.124-0.124","uf6852zzz5uxw4e","193.csv","","293.79999999701977","resources/trios/L1T4A3.jpg","39","restless",0.5,0.7,0.7,0.788597395179965,"false"
"image-keyboard-response",384,292751,"0.0-3.124-1.124","uf6852zzz5uxw4e","193.csv","","null","resources/maskTrios/BBA3.jpg","null","",NA,NA,NA,NA,""
"image-keyboard-response",385,293954,"0.0-3.124-2.124","uf6852zzz5uxw4e","193.csv","","null","resources/images/fishbone.png","null","",NA,NA,NA,NA,""
"image-keyboard-response",386,294249,"0.0-3.125-0.125","uf6852zzz5uxw4e","193.csv","","291.80000001192093","resources/trios/L1T1A2.jpg","38","restless",0.5,0.7,0.7,0.0277496200914042,"true"
"image-keyboard-response",387,294655,"0.0-3.125-1.125","uf6852zzz5uxw4e","193.csv","","null","resources/maskTrios/BT1B.jpg","null","",NA,NA,NA,NA,""
"image-keyboard-response",388,295860,"0.0-3.125-2.125","uf6852zzz5uxw4e","193.csv","","null","resources/images/coin2.png","null","",NA,NA,NA,NA,""
"image-keyboard-response",389,296184,"0.0-3.126-0.126","uf6852zzz5uxw4e","193.csv","","322","resources/trios/L4T4A3.jpg","38","restless",0.5,0.7,0.8,0.880812819613306,"false"
"image-keyboard-response",390,296590,"0.0-3.126-1.126","uf6852zzz5uxw4e","193.csv","","null","resources/maskTrios/BT4B.jpg","null","",NA,NA,NA,NA,""
"image-keyboard-response",391,297797,"0.0-3.126-2.126","uf6852zzz5uxw4e","193.csv","","null","resources/images/fishbone.png","null","",NA,NA,NA,NA,""
"image-keyboard-response",392,298065,"0.0-3.127-0.127","uf6852zzz5uxw4e","193.csv","","266","resources/trios/L4T4A2.jpg","37","restless",0.5,0.7,0.8,0.233686386845244,"true"
"image-keyboard-response",393,298472,"0.0-3.127-1.127","uf6852zzz5uxw4e","193.csv","","null","resources/maskTrios/L4BB.jpg","null","",NA,NA,NA,NA,""
"image-keyboard-response",394,299677,"0.0-3.127-2.127","uf6852zzz5uxw4e","193.csv","","null","resources/images/coin2.png","null","",NA,NA,NA,NA,""
"image-keyboard-response",395,299812,"0.0-3.128-0.128","uf6852zzz5uxw4e","193.csv","","133.3999999910593","resources/trios/L1T1A2.jpg","37","restless",0.6,0.7,0.8,0.360754373792619,"true"
"image-keyboard-response",396,300219,"0.0-3.128-1.128","uf6852zzz5uxw4e","193.csv","","null","resources/maskTrios/L1BB.jpg","null","",NA,NA,NA,NA,""
"image-keyboard-response",397,301423,"0.0-3.128-2.128","uf6852zzz5uxw4e","193.csv","","null","resources/images/coin2.png","null","",NA,NA,NA,NA,""
"image-keyboard-response",398,301650,"0.0-3.129-0.129","uf6852zzz5uxw4e","193.csv","","225.09999999403954","resources/trios/L1T4A3.jpg","37","restless",0.6,0.7,0.8,0.500274751120926,"true"
"image-keyboard-response",399,302057,"0.0-3.129-1.129","uf6852zzz5uxw4e","193.csv","","null","resources/maskTrios/L1BB.jpg","null","",NA,NA,NA,NA,""
"image-keyboard-response",400,303261,"0.0-3.129-2.129","uf6852zzz5uxw4e","193.csv","","null","resources/images/coin2.png","null","",NA,NA,NA,NA,""
"image-keyboard-response",401,303552,"0.0-3.130-0.130","uf6852zzz5uxw4e","193.csv","","289.6000000089407","resources/trios/L1T1A3.jpg","37","restless",0.6,0.7,0.8,0.665082741654728,"false"
"image-keyboard-response",402,303960,"0.0-3.130-1.130","uf6852zzz5uxw4e","193.csv","","null","resources/maskTrios/L1BB.jpg","null","",NA,NA,NA,NA,""
"image-keyboard-response",403,305166,"0.0-3.130-2.130","uf6852zzz5uxw4e","193.csv","","null","resources/images/fishbone.png","null","",NA,NA,NA,NA,""
"image-keyboard-response",404,305579,"0.0-3.131-0.131","uf6852zzz5uxw4e","193.csv","","410.70000000298023","resources/trios/L4T1A2.jpg","38","restless",0.6,0.7,0.8,0.52637742318554,"true"
"image-keyboard-response",405,305984,"0.0-3.131-1.131","uf6852zzz5uxw4e","193.csv","","null","resources/maskTrios/BT1B.jpg","null","",NA,NA,NA,NA,""
"image-keyboard-response",406,307187,"0.0-3.131-2.131","uf6852zzz5uxw4e","193.csv","","null","resources/images/coin2.png","null","",NA,NA,NA,NA,""
"image-keyboard-response",407,307605,"0.0-3.132-0.132","uf6852zzz5uxw4e","193.csv","","415.6000000089407","resources/trios/L1T1A2.jpg","38","restless",0.6,0.7,0.8,0.495544619760709,"true"
"image-keyboard-response",408,308013,"0.0-3.132-1.132","uf6852zzz5uxw4e","193.csv","","null","resources/maskTrios/BT1B.jpg","null","",NA,NA,NA,NA,""
"image-keyboard-response",409,309218,"0.0-3.132-2.132","uf6852zzz5uxw4e","193.csv","","null","resources/images/coin2.png","null","",NA,NA,NA,NA,""
"image-keyboard-response",410,309639,"0.0-3.133-0.133","uf6852zzz5uxw4e","193.csv","","418.80000001192093","resources/trios/L1T1A2.jpg","38","restless",0.6,0.7,0.8,0.859346484330176,"false"
"image-keyboard-response",411,310047,"0.0-3.133-1.133","uf6852zzz5uxw4e","193.csv","","null","resources/maskTrios/BT1B.jpg","null","",NA,NA,NA,NA,""
"image-keyboard-response",412,311253,"0.0-3.133-2.133","uf6852zzz5uxw4e","193.csv","","null","resources/images/fishbone.png","null","",NA,NA,NA,NA,""
"image-keyboard-response",413,311564,"0.0-3.134-0.134","uf6852zzz5uxw4e","193.csv","","308.5","resources/trios/L4T1A3.jpg","39","restless",0.6,0.7,0.9,0.795220234732472,"true"
"image-keyboard-response",414,311972,"0.0-3.134-1.134","uf6852zzz5uxw4e","193.csv","","null","resources/maskTrios/BBA3.jpg","null","",NA,NA,NA,NA,""
"image-keyboard-response",415,313176,"0.0-3.134-2.134","uf6852zzz5uxw4e","193.csv","","null","resources/images/coin2.png","null","",NA,NA,NA,NA,""
"image-keyboard-response",416,313569,"0.0-3.135-0.135","uf6852zzz5uxw4e","193.csv","","390.59999999403954","resources/trios/L1T4A2.jpg","39","restless",0.6,0.7,0.9,0.845588704767803,"true"
"image-keyboard-response",417,313977,"0.0-3.135-1.135","uf6852zzz5uxw4e","193.csv","","null","resources/maskTrios/BBA2.jpg","null","",NA,NA,NA,NA,""
"image-keyboard-response",418,315184,"0.0-3.135-2.135","uf6852zzz5uxw4e","193.csv","","null","resources/images/coin2.png","null","",NA,NA,NA,NA,""
"image-keyboard-response",419,315452,"0.0-3.136-0.136","uf6852zzz5uxw4e","193.csv","","265.5","resources/trios/L4T4A3.jpg","39","restless",0.6,0.6,0.9,0.596028788330508,"true"
"image-keyboard-response",420,315860,"0.0-3.136-1.136","uf6852zzz5uxw4e","193.csv","","null","resources/maskTrios/BBA3.jpg","null","",NA,NA,NA,NA,""
"image-keyboard-response",421,317067,"0.0-3.136-2.136","uf6852zzz5uxw4e","193.csv","","null","resources/images/coin2.png","null","",NA,NA,NA,NA,""
"image-keyboard-response",422,317459,"0.0-3.137-0.137","uf6852zzz5uxw4e","193.csv","","389.90000000596046","resources/trios/L4T4A2.jpg","39","restless",0.6,0.6,0.9,0.614372815876769,"true"
"image-keyboard-response",423,317867,"0.0-3.137-1.137","uf6852zzz5uxw4e","193.csv","","null","resources/maskTrios/BBA2.jpg","null","",NA,NA,NA,NA,""
"image-keyboard-response",424,319069,"0.0-3.137-2.137","uf6852zzz5uxw4e","193.csv","","null","resources/images/coin2.png","null","",NA,NA,NA,NA,""
"image-keyboard-response",425,319429,"0.0-3.138-0.138","uf6852zzz5uxw4e","193.csv","","357.70000000298023","resources/trios/L1T4A2.jpg","39","restless",0.6,0.6,0.9,0.875026263257767,"true"
"image-keyboard-response",426,319832,"0.0-3.138-1.138","uf6852zzz5uxw4e","193.csv","","null","resources/maskTrios/BBA2.jpg","null","",NA,NA,NA,NA,""
"image-keyboard-response",427,321039,"0.0-3.138-2.138","uf6852zzz5uxw4e","193.csv","","null","resources/images/coin2.png","null","",NA,NA,NA,NA,""
"image-keyboard-response",428,321366,"0.0-3.139-0.139","uf6852zzz5uxw4e","193.csv","","324.5","resources/trios/L1T4A2.jpg","39","restless",0.6,0.6,0.9,0.375521857632453,"true"
"image-keyboard-response",429,321774,"0.0-3.139-1.139","uf6852zzz5uxw4e","193.csv","","null","resources/maskTrios/BBA2.jpg","null","",NA,NA,NA,NA,""
"image-keyboard-response",430,322979,"0.0-3.139-2.139","uf6852zzz5uxw4e","193.csv","","null","resources/images/coin2.png","null","",NA,NA,NA,NA,""
"image-keyboard-response",431,323288,"0.0-3.140-0.140","uf6852zzz5uxw4e","193.csv","","306.59999999403954","resources/trios/L1T4A2.jpg","39","restless",0.6,0.6,0.9,0.722626208449307,"true"
"image-keyboard-response",432,323696,"0.0-3.140-1.140","uf6852zzz5uxw4e","193.csv","","null","resources/maskTrios/BBA2.jpg","null","",NA,NA,NA,NA,""
"image-keyboard-response",433,324899,"0.0-3.140-2.140","uf6852zzz5uxw4e","193.csv","","null","resources/images/coin2.png","null","",NA,NA,NA,NA,""
"image-keyboard-response",434,325196,"0.0-3.141-0.141","uf6852zzz5uxw4e","193.csv","","294.70000000298023","resources/trios/L4T4A2.jpg","39","restless",0.6,0.6,0.9,0.570033377449222,"true"
"image-keyboard-response",435,325602,"0.0-3.141-1.141","uf6852zzz5uxw4e","193.csv","","null","resources/maskTrios/BBA2.jpg","null","",NA,NA,NA,NA,""
"image-keyboard-response",436,326809,"0.0-3.141-2.141","uf6852zzz5uxw4e","193.csv","","null","resources/images/coin2.png","null","",NA,NA,NA,NA,""
"image-keyboard-response",437,327169,"0.0-3.142-0.142","uf6852zzz5uxw4e","193.csv","","357.5","resources/trios/L1T1A2.jpg","39","restless",0.6,0.6,0.8,0.0826518414310444,"true"
"image-keyboard-response",438,327574,"0.0-3.142-1.142","uf6852zzz5uxw4e","193.csv","","null","resources/maskTrios/BBA2.jpg","null","",NA,NA,NA,NA,""
"image-keyboard-response",439,328781,"0.0-3.142-2.142","uf6852zzz5uxw4e","193.csv","","null","resources/images/coin2.png","null","",NA,NA,NA,NA,""
"image-keyboard-response",440,329070,"0.0-3.143-0.143","uf6852zzz5uxw4e","193.csv","","286.5","resources/trios/L4T1A2.jpg","39","restless",0.6,0.6,0.8,0.00675128972633687,"true"
"image-keyboard-response",441,329477,"0.0-3.143-1.143","uf6852zzz5uxw4e","193.csv","","null","resources/maskTrios/BBA2.jpg","null","",NA,NA,NA,NA,""
"image-keyboard-response",442,330681,"0.0-3.143-2.143","uf6852zzz5uxw4e","193.csv","","null","resources/images/coin2.png","null","",NA,NA,NA,NA,""
"image-keyboard-response",443,331009,"0.0-3.144-0.144","uf6852zzz5uxw4e","193.csv","","324.70000000298023","resources/trios/L1T4A2.jpg","39","restless",0.6,0.6,0.8,0.549704394723293,"true"
"image-keyboard-response",444,331416,"0.0-3.144-1.144","uf6852zzz5uxw4e","193.csv","","null","resources/maskTrios/BBA2.jpg","null","",NA,NA,NA,NA,""
"image-keyboard-response",445,332624,"0.0-3.144-2.144","uf6852zzz5uxw4e","193.csv","","null","resources/images/coin2.png","null","",NA,NA,NA,NA,""
"image-keyboard-response",446,332872,"0.0-3.145-0.145","uf6852zzz5uxw4e","193.csv","","245.70000000298023","resources/trios/L4T4A3.jpg","39","restless",0.6,0.6,0.8,0.954426755127102,"false"
"image-keyboard-response",447,333278,"0.0-3.145-1.145","uf6852zzz5uxw4e","193.csv","","null","resources/maskTrios/BBA3.jpg","null","",NA,NA,NA,NA,""
"image-keyboard-response",448,334483,"0.0-3.145-2.145","uf6852zzz5uxw4e","193.csv","","null","resources/images/fishbone.png","null","",NA,NA,NA,NA,""
"image-keyboard-response",449,334797,"0.0-3.146-0.146","uf6852zzz5uxw4e","193.csv","","311.79999999701977","resources/trios/L4T1A3.jpg","37","restless",0.6,0.6,0.8,0.503630364609989,"true"
"image-keyboard-response",450,335204,"0.0-3.146-1.146","uf6852zzz5uxw4e","193.csv","","null","resources/maskTrios/L4BB.jpg","null","",NA,NA,NA,NA,""
"image-keyboard-response",451,336409,"0.0-3.146-2.146","uf6852zzz5uxw4e","193.csv","","null","resources/images/coin2.png","null","",NA,NA,NA,NA,""
"image-keyboard-response",452,336586,"0.0-3.147-0.147","uf6852zzz5uxw4e","193.csv","","174","resources/trios/L1T4A3.jpg","37","restless",0.6,0.6,0.8,0.219946711570188,"true"
"image-keyboard-response",453,336989,"0.0-3.147-1.147","uf6852zzz5uxw4e","193.csv","","null","resources/maskTrios/L1BB.jpg","null","",NA,NA,NA,NA,""
"image-keyboard-response",454,338195,"0.0-3.147-2.147","uf6852zzz5uxw4e","193.csv","","null","resources/images/coin2.png","null","",NA,NA,NA,NA,""
"image-keyboard-response",455,338486,"0.0-3.148-0.148","uf6852zzz5uxw4e","193.csv","","289.5","resources/trios/L1T1A2.jpg","37","restless",0.7,0.6,0.8,0.204434257544476,"true"
"image-keyboard-response",456,338889,"0.0-3.148-1.148","uf6852zzz5uxw4e","193.csv","","null","resources/maskTrios/L1BB.jpg","null","",NA,NA,NA,NA,""
"image-keyboard-response",457,340096,"0.0-3.148-2.148","uf6852zzz5uxw4e","193.csv","","null","resources/images/coin2.png","null","",NA,NA,NA,NA,""
"image-keyboard-response",458,340412,"0.0-3.149-0.149","uf6852zzz5uxw4e","193.csv","","314","resources/trios/L4T4A3.jpg","37","restless",0.7,0.6,0.8,0.807502563302912,"false"
"image-keyboard-response",459,340818,"0.0-3.149-1.149","uf6852zzz5uxw4e","193.csv","","null","resources/maskTrios/L4BB.jpg","null","",NA,NA,NA,NA,""
"image-keyboard-response",460,342021,"0.0-3.149-2.149","uf6852zzz5uxw4e","193.csv","","null","resources/images/fishbone.png","null","",NA,NA,NA,NA,""
"image-keyboard-response",461,342324,"0.0-3.150-0.150","uf6852zzz5uxw4e","193.csv","","301.70000000298023","resources/trios/L4T4A3.jpg","38","restless",0.7,0.6,0.7,0.0645034666012543,"true"
"image-keyboard-response",462,342730,"0.0-3.150-1.150","uf6852zzz5uxw4e","193.csv","","null","resources/maskTrios/BT4B.jpg","null","",NA,NA,NA,NA,""
"image-keyboard-response",463,343932,"0.0-3.150-2.150","uf6852zzz5uxw4e","193.csv","","null","resources/images/coin2.png","null","",NA,NA,NA,NA,""
"image-keyboard-response",464,344285,"0.0-3.151-0.151","uf6852zzz5uxw4e","193.csv","","351.70000000298023","resources/trios/L4T4A2.jpg","38","restless",0.6,0.6,0.7,0.502479339895389,"true"
"image-keyboard-response",465,344689,"0.0-3.151-1.151","uf6852zzz5uxw4e","193.csv","","null","resources/maskTrios/BT4B.jpg","null","",NA,NA,NA,NA,""
"image-keyboard-response",466,345895,"0.0-3.151-2.151","uf6852zzz5uxw4e","193.csv","","null","resources/images/coin2.png","null","",NA,NA,NA,NA,""
"image-keyboard-response",467,346127,"0.0-3.152-0.152","uf6852zzz5uxw4e","193.csv","","231.3999999910593","resources/trios/L1T4A3.jpg","38","restless",0.6,0.6,0.7,0.24380656705961,"true"
"image-keyboard-response",468,346530,"0.0-3.152-1.152","uf6852zzz5uxw4e","193.csv","","null","resources/maskTrios/BT4B.jpg","null","",NA,NA,NA,NA,""
"image-keyboard-response",469,347731,"0.0-3.152-2.152","uf6852zzz5uxw4e","193.csv","","null","resources/images/coin2.png","null","",NA,NA,NA,NA,""
"image-keyboard-response",470,348047,"0.0-3.153-0.153","uf6852zzz5uxw4e","193.csv","","314.69999998807907","resources/trios/L4T1A3.jpg","38","restless",0.6,0.6,0.7,0.61514848110287,"false"
"image-keyboard-response",471,348453,"0.0-3.153-1.153","uf6852zzz5uxw4e","193.csv","","null","resources/maskTrios/BT1B.jpg","null","",NA,NA,NA,NA,""
"image-keyboard-response",472,349658,"0.0-3.153-2.153","uf6852zzz5uxw4e","193.csv","","null","resources/images/fishbone.png","null","",NA,NA,NA,NA,""
"image-keyboard-response",473,349765,"0.0-3.154-0.154","uf6852zzz5uxw4e","193.csv","","105.20000000298023","resources/trios/L1T4A3.jpg","37","restless",0.6,0.6,0.7,0.326697802671836,"true"
"image-keyboard-response",474,350167,"0.0-3.154-1.154","uf6852zzz5uxw4e","193.csv","","null","resources/maskTrios/L1BB.jpg","null","",NA,NA,NA,NA,""
"image-keyboard-response",475,351368,"0.0-3.154-2.154","uf6852zzz5uxw4e","193.csv","","null","resources/images/coin2.png","null","",NA,NA,NA,NA,""
"image-keyboard-response",476,351632,"0.0-3.155-0.155","uf6852zzz5uxw4e","193.csv","","262.1000000089407","resources/trios/L4T4A3.jpg","37","restless",0.6,0.6,0.7,0.892180463005146,"false"
"image-keyboard-response",477,352038,"0.0-3.155-1.155","uf6852zzz5uxw4e","193.csv","","null","resources/maskTrios/L4BB.jpg","null","",NA,NA,NA,NA,""
"image-keyboard-response",478,353240,"0.0-3.155-2.155","uf6852zzz5uxw4e","193.csv","","null","resources/images/fishbone.png","null","",NA,NA,NA,NA,""
"image-keyboard-response",479,353473,"0.0-3.156-0.156","uf6852zzz5uxw4e","193.csv","","231.29999999701977","resources/trios/L1T4A3.jpg","37","restless",0.6,0.5,0.7,0.714834127250731,"false"
"image-keyboard-response",480,353877,"0.0-3.156-1.156","uf6852zzz5uxw4e","193.csv","","null","resources/maskTrios/L1BB.jpg","null","",NA,NA,NA,NA,""
"image-keyboard-response",481,355079,"0.0-3.156-2.156","uf6852zzz5uxw4e","193.csv","","null","resources/images/fishbone.png","null","",NA,NA,NA,NA,""
"image-keyboard-response",482,355128,"0.0-3.157-0.157","uf6852zzz5uxw4e","193.csv","","48.3999999910593","resources/trios/L4T1A3.jpg","39","restless",0.6,0.5,0.6,0.954496212488233,"false"
"image-keyboard-response",483,355535,"0.0-3.157-1.157","uf6852zzz5uxw4e","193.csv","","null","resources/maskTrios/BBA3.jpg","null","",NA,NA,NA,NA,""
"image-keyboard-response",484,356739,"0.0-3.157-2.157","uf6852zzz5uxw4e","193.csv","","null","resources/images/fishbone.png","null","",NA,NA,NA,NA,""
"image-keyboard-response",485,356837,"0.0-3.158-0.158","uf6852zzz5uxw4e","193.csv","","96.70000000298023","resources/trios/L4T1A2.jpg","38","restless",0.6,0.5,0.6,0.848540286409241,"false"
"image-keyboard-response",486,357240,"0.0-3.158-1.158","uf6852zzz5uxw4e","193.csv","","null","resources/maskTrios/BT1B.jpg","null","",NA,NA,NA,NA,""
"image-keyboard-response",487,358446,"0.0-3.158-2.158","uf6852zzz5uxw4e","193.csv","","null","resources/images/fishbone.png","null","",NA,NA,NA,NA,""
"image-keyboard-response",488,359039,"0.0-3.159-0.159","uf6852zzz5uxw4e","193.csv","","591.2000000029802","resources/trios/L4T4A3.jpg","37","restless",0.6,0.5,0.6,0.924742663301387,"false"
"image-keyboard-response",489,359447,"0.0-3.159-1.159","uf6852zzz5uxw4e","193.csv","","null","resources/maskTrios/L4BB.jpg","null","",NA,NA,NA,NA,""
"image-keyboard-response",490,360654,"0.0-3.159-2.159","uf6852zzz5uxw4e","193.csv","","null","resources/images/fishbone.png","null","",NA,NA,NA,NA,""
"image-keyboard-response",491,360949,"0.0-3.160-0.160","uf6852zzz5uxw4e","193.csv","","293.09999999403954","resources/trios/L4T1A3.jpg","38","restless",0.6,0.5,0.6,0.668621605879524,"false"
"image-keyboard-response",492,361355,"0.0-3.160-1.160","uf6852zzz5uxw4e","193.csv","","null","resources/maskTrios/BT1B.jpg","null","",NA,NA,NA,NA,""
"image-keyboard-response",493,362561,"0.0-3.160-2.160","uf6852zzz5uxw4e","193.csv","","null","resources/images/fishbone.png","null","",NA,NA,NA,NA,""
"image-keyboard-response",494,362836,"0.0-3.161-0.161","uf6852zzz5uxw4e","193.csv","","272.3999999910593","resources/trios/L1T4A2.jpg","39","restless",0.6,0.5,0.6,0.97564725924012,"false"
"image-keyboard-response",495,363241,"0.0-3.161-1.161","uf6852zzz5uxw4e","193.csv","","null","resources/maskTrios/BBA2.jpg","null","",NA,NA,NA,NA,""
"image-keyboard-response",496,364448,"0.0-3.161-2.161","uf6852zzz5uxw4e","193.csv","","null","resources/images/fishbone.png","null","",NA,NA,NA,NA,""
"image-keyboard-response",497,364693,"0.0-3.162-0.162","uf6852zzz5uxw4e","193.csv","","243.6000000089407","resources/trios/L4T1A2.jpg","37","restless",0.6,0.5,0.7,0.522421189576759,"true"
"image-keyboard-response",498,365098,"0.0-3.162-1.162","uf6852zzz5uxw4e","193.csv","","null","resources/maskTrios/L4BB.jpg","null","",NA,NA,NA,NA,""
"image-keyboard-response",499,366305,"0.0-3.162-2.162","uf6852zzz5uxw4e","193.csv","","null","resources/images/coin2.png","null","",NA,NA,NA,NA,""
"image-keyboard-response",500,366636,"0.0-3.163-0.163","uf6852zzz5uxw4e","193.csv","","328.20000000298023","resources/trios/L4T1A2.jpg","37","restless",0.6,0.4,0.7,0.503129716530013,"true"
"image-keyboard-response",501,367044,"0.0-3.163-1.163","uf6852zzz5uxw4e","193.csv","","null","resources/maskTrios/L4BB.jpg","null","",NA,NA,NA,NA,""
"image-keyboard-response",502,368251,"0.0-3.163-2.163","uf6852zzz5uxw4e","193.csv","","null","resources/images/coin2.png","null","",NA,NA,NA,NA,""
"image-keyboard-response",503,368555,"0.0-3.164-0.164","uf6852zzz5uxw4e","193.csv","","301.70000000298023","resources/trios/L4T4A3.jpg","37","restless",0.6,0.4,0.7,0.385037478214596,"true"
"image-keyboard-response",504,368962,"0.0-3.164-1.164","uf6852zzz5uxw4e","193.csv","","null","resources/maskTrios/L4BB.jpg","null","",NA,NA,NA,NA,""
"image-keyboard-response",505,370166,"0.0-3.164-2.164","uf6852zzz5uxw4e","193.csv","","null","resources/images/coin2.png","null","",NA,NA,NA,NA,""
"image-keyboard-response",506,370428,"0.0-3.165-0.165","uf6852zzz5uxw4e","193.csv","","259.5","resources/trios/L1T4A3.jpg","37","restless",0.6,0.4,0.7,0.0769367713977365,"true"
"image-keyboard-response",507,370831,"0.0-3.165-1.165","uf6852zzz5uxw4e","193.csv","","null","resources/maskTrios/L1BB.jpg","null","",NA,NA,NA,NA,""
"image-keyboard-response",508,372038,"0.0-3.165-2.165","uf6852zzz5uxw4e","193.csv","","null","resources/images/coin2.png","null","",NA,NA,NA,NA,""
"image-keyboard-response",509,372364,"0.0-3.166-0.166","uf6852zzz5uxw4e","193.csv","","323.29999999701977","resources/trios/L4T4A3.jpg","37","restless",0.6,0.4,0.7,0.37061534408689,"true"
"image-keyboard-response",510,372771,"0.0-3.166-1.166","uf6852zzz5uxw4e","193.csv","","null","resources/maskTrios/L4BB.jpg","null","",NA,NA,NA,NA,""
"image-keyboard-response",511,373974,"0.0-3.166-2.166","uf6852zzz5uxw4e","193.csv","","null","resources/images/coin2.png","null","",NA,NA,NA,NA,""
"image-keyboard-response",512,374304,"0.0-3.167-0.167","uf6852zzz5uxw4e","193.csv","","327.90000000596046","resources/trios/L4T1A3.jpg","37","restless",0.6,0.4,0.7,0.824703731873511,"false"
"image-keyboard-response",513,374711,"0.0-3.167-1.167","uf6852zzz5uxw4e","193.csv","","null","resources/maskTrios/L4BB.jpg","null","",NA,NA,NA,NA,""
"image-keyboard-response",514,375919,"0.0-3.167-2.167","uf6852zzz5uxw4e","193.csv","","null","resources/images/fishbone.png","null","",NA,NA,NA,NA,""
"image-keyboard-response",515,376213,"0.0-3.168-0.168","uf6852zzz5uxw4e","193.csv","","291.79999999701977","resources/trios/L4T1A3.jpg","38","restless",0.6,0.4,0.6,0.685094076276576,"false"
"image-keyboard-response",516,376620,"0.0-3.168-1.168","uf6852zzz5uxw4e","193.csv","","null","resources/maskTrios/BT1B.jpg","null","",NA,NA,NA,NA,""
"image-keyboard-response",517,377824,"0.0-3.168-2.168","uf6852zzz5uxw4e","193.csv","","null","resources/images/fishbone.png","null","",NA,NA,NA,NA,""
"image-keyboard-response",518,378114,"0.0-3.169-0.169","uf6852zzz5uxw4e","193.csv","","287.59999999403954","resources/trios/L1T1A3.jpg","39","restless",0.5,0.5,0.6,0.653092056793287,"false"
"image-keyboard-response",519,378521,"0.0-3.169-1.169","uf6852zzz5uxw4e","193.csv","","null","resources/maskTrios/BBA3.jpg","null","",NA,NA,NA,NA,""
"image-keyboard-response",520,379728,"0.0-3.169-2.169","uf6852zzz5uxw4e","193.csv","","null","resources/images/fishbone.png","null","",NA,NA,NA,NA,""
"image-keyboard-response",521,379965,"0.0-3.170-0.170","uf6852zzz5uxw4e","193.csv","","234.29999999701977","resources/trios/L1T4A3.jpg","38","restless",0.5,0.5,0.6,0.120456533490829,"true"
"image-keyboard-response",522,380372,"0.0-3.170-1.170","uf6852zzz5uxw4e","193.csv","","null","resources/maskTrios/BT4B.jpg","null","",NA,NA,NA,NA,""
"image-keyboard-response",523,381578,"0.0-3.170-2.170","uf6852zzz5uxw4e","193.csv","","null","resources/images/coin2.png","null","",NA,NA,NA,NA,""
"image-keyboard-response",524,381978,"0.0-3.171-0.171","uf6852zzz5uxw4e","193.csv","","397.29999999701977","resources/trios/L4T4A3.jpg","38","restless",0.5,0.5,0.6,0.915775707759475,"false"
"image-keyboard-response",525,382385,"0.0-3.171-1.171","uf6852zzz5uxw4e","193.csv","","null","resources/maskTrios/BT4B.jpg","null","",NA,NA,NA,NA,""
"image-keyboard-response",526,383588,"0.0-3.171-2.171","uf6852zzz5uxw4e","193.csv","","null","resources/images/fishbone.png","null","",NA,NA,NA,NA,""
"image-keyboard-response",527,383853,"0.0-3.172-0.172","uf6852zzz5uxw4e","193.csv","","263","resources/trios/L1T4A2.jpg","37","restless",0.4,0.5,0.6,0.124690754135244,"true"
"image-keyboard-response",528,384261,"0.0-3.172-1.172","uf6852zzz5uxw4e","193.csv","","null","resources/maskTrios/L1BB.jpg","null","",NA,NA,NA,NA,""
"image-keyboard-response",529,385469,"0.0-3.172-2.172","uf6852zzz5uxw4e","193.csv","","null","resources/images/coin2.png","null","",NA,NA,NA,NA,""
"image-keyboard-response",530,385800,"0.0-3.173-0.173","uf6852zzz5uxw4e","193.csv","","328.79999999701977","resources/trios/L1T1A3.jpg","37","restless",0.4,0.5,0.6,0.801880539269391,"false"
"image-keyboard-response",531,386204,"0.0-3.173-1.173","uf6852zzz5uxw4e","193.csv","","null","resources/maskTrios/L1BB.jpg","null","",NA,NA,NA,NA,""
"image-keyboard-response",532,387407,"0.0-3.173-2.173","uf6852zzz5uxw4e","193.csv","","null","resources/images/fishbone.png","null","",NA,NA,NA,NA,""
"image-keyboard-response",533,387648,"0.0-3.174-0.174","uf6852zzz5uxw4e","193.csv","","238.69999998807907","resources/trios/L1T1A2.jpg","38","restless",0.4,0.5,0.6,0.736416582251428,"false"
"image-keyboard-response",534,388055,"0.0-3.174-1.174","uf6852zzz5uxw4e","193.csv","","null","resources/maskTrios/BT1B.jpg","null","",NA,NA,NA,NA,""
"image-keyboard-response",535,389262,"0.0-3.174-2.174","uf6852zzz5uxw4e","193.csv","","null","resources/images/fishbone.png","null","",NA,NA,NA,NA,""
"image-keyboard-response",536,389695,"0.0-3.175-0.175","uf6852zzz5uxw4e","193.csv","","430.90000000596046","resources/trios/L4T1A2.jpg","39","restless",0.4,0.5,0.6,0.167831952347721,"true"
"image-keyboard-response",537,390103,"0.0-3.175-1.175","uf6852zzz5uxw4e","193.csv","","null","resources/maskTrios/BBA2.jpg","null","",NA,NA,NA,NA,""
"image-keyboard-response",538,391310,"0.0-3.175-2.175","uf6852zzz5uxw4e","193.csv","","null","resources/images/coin2.png","null","",NA,NA,NA,NA,""
"image-keyboard-response",539,391605,"0.0-3.176-0.176","uf6852zzz5uxw4e","193.csv","","292.5","resources/trios/L4T1A2.jpg","39","restless",0.4,0.5,0.6,0.63071149268821,"false"
"image-keyboard-response",540,392011,"0.0-3.176-1.176","uf6852zzz5uxw4e","193.csv","","null","resources/maskTrios/BBA2.jpg","null","",NA,NA,NA,NA,""
"image-keyboard-response",541,393217,"0.0-3.176-2.176","uf6852zzz5uxw4e","193.csv","","null","resources/images/fishbone.png","null","",NA,NA,NA,NA,""
"image-keyboard-response",542,393831,"0.0-3.177-0.177","uf6852zzz5uxw4e","193.csv","","611.5999999940395","resources/trios/L4T4A2.jpg","37","restless",0.4,0.6,0.6,0.992229817176326,"false"
"image-keyboard-response",543,394235,"0.0-3.177-1.177","uf6852zzz5uxw4e","193.csv","","null","resources/maskTrios/L4BB.jpg","null","",NA,NA,NA,NA,""
"image-keyboard-response",544,395438,"0.0-3.177-2.177","uf6852zzz5uxw4e","193.csv","","null","resources/images/fishbone.png","null","",NA,NA,NA,NA,""
"image-keyboard-response",545,395701,"0.0-3.178-0.178","uf6852zzz5uxw4e","193.csv","","261.09999999403954","resources/trios/L1T1A3.jpg","38","restless",0.4,0.6,0.6,0.270078644607741,"true"
"image-keyboard-response",546,396109,"0.0-3.178-1.178","uf6852zzz5uxw4e","193.csv","","null","resources/maskTrios/BT1B.jpg","null","",NA,NA,NA,NA,""
"image-keyboard-response",547,397316,"0.0-3.178-2.178","uf6852zzz5uxw4e","193.csv","","null","resources/images/coin2.png","null","",NA,NA,NA,NA,""
"image-keyboard-response",548,397700,"0.0-3.179-0.179","uf6852zzz5uxw4e","193.csv","","381.69999998807907","resources/trios/L4T4A3.jpg","38","restless",0.3,0.6,0.6,0.183743702154327,"true"
"image-keyboard-response",549,398108,"0.0-3.179-1.179","uf6852zzz5uxw4e","193.csv","","null","resources/maskTrios/BT4B.jpg","null","",NA,NA,NA,NA,""
"image-keyboard-response",550,399315,"0.0-3.179-2.179","uf6852zzz5uxw4e","193.csv","","null","resources/images/coin2.png","null","",NA,NA,NA,NA,""
"image-keyboard-response",551,399628,"0.0-3.180-0.180","uf6852zzz5uxw4e","193.csv","","310.09999999403954","resources/trios/L4T4A3.jpg","38","restless",0.3,0.6,0.6,0.351692563933057,"true"
"image-keyboard-response",552,400032,"0.0-3.180-1.180","uf6852zzz5uxw4e","193.csv","","null","resources/maskTrios/BT4B.jpg","null","",NA,NA,NA,NA,""
"image-keyboard-response",553,401238,"0.0-3.180-2.180","uf6852zzz5uxw4e","193.csv","","null","resources/images/coin2.png","null","",NA,NA,NA,NA,""
"image-keyboard-response",554,401576,"0.0-3.181-0.181","uf6852zzz5uxw4e","193.csv","","336.09999999403954","resources/trios/L4T1A3.jpg","38","restless",0.3,0.6,0.6,0.557814604460257,"true"
"image-keyboard-response",555,401984,"0.0-3.181-1.181","uf6852zzz5uxw4e","193.csv","","null","resources/maskTrios/BT1B.jpg","null","",NA,NA,NA,NA,""
"image-keyboard-response",556,403188,"0.0-3.181-2.181","uf6852zzz5uxw4e","193.csv","","null","resources/images/coin2.png","null","",NA,NA,NA,NA,""
"image-keyboard-response",557,403539,"0.0-3.182-0.182","uf6852zzz5uxw4e","193.csv","","349.5","resources/trios/L1T4A2.jpg","38","restless",0.3,0.6,0.6,0.541510479943764,"true"
"image-keyboard-response",558,403947,"0.0-3.182-1.182","uf6852zzz5uxw4e","193.csv","","null","resources/maskTrios/BT4B.jpg","null","",NA,NA,NA,NA,""
"image-keyboard-response",559,405154,"0.0-3.182-2.182","uf6852zzz5uxw4e","193.csv","","null","resources/images/coin2.png","null","",NA,NA,NA,NA,""
"image-keyboard-response",560,405494,"0.0-3.183-0.183","uf6852zzz5uxw4e","193.csv","","338","resources/trios/L4T4A2.jpg","38","restless",0.3,0.6,0.5,0.213214173501488,"true"
"image-keyboard-response",561,405902,"0.0-3.183-1.183","uf6852zzz5uxw4e","193.csv","","null","resources/maskTrios/BT4B.jpg","null","",NA,NA,NA,NA,""
"image-keyboard-response",562,407106,"0.0-3.183-2.183","uf6852zzz5uxw4e","193.csv","","null","resources/images/coin2.png","null","",NA,NA,NA,NA,""
"image-keyboard-response",563,407385,"0.0-3.184-0.184","uf6852zzz5uxw4e","193.csv","","277.30000001192093","resources/trios/L4T1A3.jpg","38","restless",0.3,0.6,0.5,0.83965410297618,"false"
"image-keyboard-response",564,407788,"0.0-3.184-1.184","uf6852zzz5uxw4e","193.csv","","null","resources/maskTrios/BT1B.jpg","null","",NA,NA,NA,NA,""
"image-keyboard-response",565,408995,"0.0-3.184-2.184","uf6852zzz5uxw4e","193.csv","","null","resources/images/fishbone.png","null","",NA,NA,NA,NA,""
"image-keyboard-response",566,409242,"0.0-3.185-0.185","uf6852zzz5uxw4e","193.csv","","246.70000000298023","resources/trios/L1T1A2.jpg","37","restless",0.3,0.6,0.5,0.763314901416375,"false"
"image-keyboard-response",567,409646,"0.0-3.185-1.185","uf6852zzz5uxw4e","193.csv","","null","resources/maskTrios/L1BB.jpg","null","",NA,NA,NA,NA,""
"image-keyboard-response",568,410853,"0.0-3.185-2.185","uf6852zzz5uxw4e","193.csv","","null","resources/images/fishbone.png","null","",NA,NA,NA,NA,""
"image-keyboard-response",569,411006,"0.0-3.186-0.186","uf6852zzz5uxw4e","193.csv","","151.1000000089407","resources/trios/L1T4A3.jpg","39","restless",0.3,0.6,0.5,0.627058796070446,"false"
"image-keyboard-response",570,411413,"0.0-3.186-1.186","uf6852zzz5uxw4e","193.csv","","null","resources/maskTrios/BBA3.jpg","null","",NA,NA,NA,NA,""
"image-keyboard-response",571,412619,"0.0-3.186-2.186","uf6852zzz5uxw4e","193.csv","","null","resources/images/fishbone.png","null","",NA,NA,NA,NA,""
"image-keyboard-response",572,412873,"0.0-3.187-0.187","uf6852zzz5uxw4e","193.csv","","252.09999999403954","resources/trios/L1T1A2.jpg","38","restless",0.3,0.6,0.5,0.255343623125905,"true"
"image-keyboard-response",573,413281,"0.0-3.187-1.187","uf6852zzz5uxw4e","193.csv","","null","resources/maskTrios/BT1B.jpg","null","",NA,NA,NA,NA,""
"image-keyboard-response",574,414487,"0.0-3.187-2.187","uf6852zzz5uxw4e","193.csv","","null","resources/images/coin2.png","null","",NA,NA,NA,NA,""
"image-keyboard-response",575,414759,"0.0-3.188-0.188","uf6852zzz5uxw4e","193.csv","","269","resources/trios/L4T4A3.jpg","38","restless",0.3,0.6,0.5,0.00105771562532375,"true"
"image-keyboard-response",576,415164,"0.0-3.188-1.188","uf6852zzz5uxw4e","193.csv","","null","resources/maskTrios/BT4B.jpg","null","",NA,NA,NA,NA,""
"image-keyboard-response",577,416372,"0.0-3.188-2.188","uf6852zzz5uxw4e","193.csv","","null","resources/images/coin2.png","null","",NA,NA,NA,NA,""
"image-keyboard-response",578,416608,"0.0-3.189-0.189","uf6852zzz5uxw4e","193.csv","","233.79999999701977","resources/trios/L1T4A2.jpg","38","restless",0.3,0.6,0.5,0.52699788583969,"true"
"image-keyboard-response",579,417016,"0.0-3.189-1.189","uf6852zzz5uxw4e","193.csv","","null","resources/maskTrios/BT4B.jpg","null","",NA,NA,NA,NA,""
"image-keyboard-response",580,418223,"0.0-3.189-2.189","uf6852zzz5uxw4e","193.csv","","null","resources/images/coin2.png","null","",NA,NA,NA,NA,""
"image-keyboard-response",581,418883,"0.0-3.190-0.190","uf6852zzz5uxw4e","193.csv","","658.0999999940395","resources/trios/L1T1A2.jpg","38","restless",0.3,0.6,0.5,0.531662397663514,"true"
"image-keyboard-response",582,419287,"0.0-3.190-1.190","uf6852zzz5uxw4e","193.csv","","null","resources/maskTrios/BT1B.jpg","null","",NA,NA,NA,NA,""
"image-keyboard-response",583,420495,"0.0-3.190-2.190","uf6852zzz5uxw4e","193.csv","","null","resources/images/coin2.png","null","",NA,NA,NA,NA,""
"image-keyboard-response",584,420893,"0.0-3.191-0.191","uf6852zzz5uxw4e","193.csv","","395.59999999403954","resources/trios/L4T1A2.jpg","38","restless",0.3,0.6,0.5,0.196303524767272,"true"
"image-keyboard-response",585,421299,"0.0-3.191-1.191","uf6852zzz5uxw4e","193.csv","","null","resources/maskTrios/BT1B.jpg","null","",NA,NA,NA,NA,""
"image-keyboard-response",586,422506,"0.0-3.191-2.191","uf6852zzz5uxw4e","193.csv","","null","resources/images/coin2.png","null","",NA,NA,NA,NA,""
"image-keyboard-response",587,422881,"0.0-3.192-0.192","uf6852zzz5uxw4e","193.csv","","372.1000000089407","resources/trios/L4T4A2.jpg","38","restless",0.3,0.6,0.5,0.9969774962636,"false"
"image-keyboard-response",588,423287,"0.0-3.192-1.192","uf6852zzz5uxw4e","193.csv","","null","resources/maskTrios/BT4B.jpg","null","",NA,NA,NA,NA,""
"image-keyboard-response",589,424494,"0.0-3.192-2.192","uf6852zzz5uxw4e","193.csv","","null","resources/images/fishbone.png","null","",NA,NA,NA,NA,""
"image-keyboard-response",590,424586,"0.0-3.193-0.193","uf6852zzz5uxw4e","193.csv","","88.90000000596046","resources/trios/L1T4A3.jpg","37","restless",0.3,0.6,0.5,0.688880713622845,"false"
"image-keyboard-response",591,424993,"0.0-3.193-1.193","uf6852zzz5uxw4e","193.csv","","null","resources/maskTrios/L1BB.jpg","null","",NA,NA,NA,NA,""
"image-keyboard-response",592,426200,"0.0-3.193-2.193","uf6852zzz5uxw4e","193.csv","","null","resources/images/fishbone.png","null","",NA,NA,NA,NA,""
"image-keyboard-response",593,426431,"0.0-3.194-0.194","uf6852zzz5uxw4e","193.csv","","228.6000000089407","resources/trios/L4T4A3.jpg","37","restless",0.3,0.6,0.5,0.215941082973524,"true"
"image-keyboard-response",594,426837,"0.0-3.194-1.194","uf6852zzz5uxw4e","193.csv","","null","resources/maskTrios/L4BB.jpg","null","",NA,NA,NA,NA,""
"image-keyboard-response",595,428044,"0.0-3.194-2.194","uf6852zzz5uxw4e","193.csv","","null","resources/images/coin2.png","null","",NA,NA,NA,NA,""
"image-keyboard-response",596,428429,"0.0-3.195-0.195","uf6852zzz5uxw4e","193.csv","","382.20000000298023","resources/trios/L4T4A2.jpg","37","restless",0.2,0.6,0.5,0.379410730307675,"false"
"image-keyboard-response",597,428835,"0.0-3.195-1.195","uf6852zzz5uxw4e","193.csv","","null","resources/maskTrios/L4BB.jpg","null","",NA,NA,NA,NA,""
"image-keyboard-response",598,430037,"0.0-3.195-2.195","uf6852zzz5uxw4e","193.csv","","null","resources/images/fishbone.png","null","",NA,NA,NA,NA,""
"image-keyboard-response",599,430566,"0.0-3.196-0.196","uf6852zzz5uxw4e","193.csv","","526.7000000029802","resources/trios/L1T4A3.jpg","37","restless",0.2,0.6,0.5,0.177522220558676,"true"
"image-keyboard-response",600,430972,"0.0-3.196-1.196","uf6852zzz5uxw4e","193.csv","","null","resources/maskTrios/L1BB.jpg","null","",NA,NA,NA,NA,""
"image-keyboard-response",601,432180,"0.0-3.196-2.196","uf6852zzz5uxw4e","193.csv","","null","resources/images/coin2.png","null","",NA,NA,NA,NA,""
"image-keyboard-response",602,432559,"0.0-3.197-0.197","uf6852zzz5uxw4e","193.csv","","376.90000000596046","resources/trios/L4T1A2.jpg","37","restless",0.2,0.6,0.4,0.870085959019014,"false"
"image-keyboard-response",603,432967,"0.0-3.197-1.197","uf6852zzz5uxw4e","193.csv","","null","resources/maskTrios/L4BB.jpg","null","",NA,NA,NA,NA,""
"image-keyboard-response",604,434174,"0.0-3.197-2.197","uf6852zzz5uxw4e","193.csv","","null","resources/images/fishbone.png","null","",NA,NA,NA,NA,""
"image-keyboard-response",605,434281,"0.0-3.198-0.198","uf6852zzz5uxw4e","193.csv","","104.8999999910593","resources/trios/L1T4A2.jpg","39","restless",0.1,0.6,0.4,0.422204326211502,"false"
"image-keyboard-response",606,434687,"0.0-3.198-1.198","uf6852zzz5uxw4e","193.csv","","null","resources/maskTrios/BBA2.jpg","null","",NA,NA,NA,NA,""
"image-keyboard-response",607,435894,"0.0-3.198-2.198","uf6852zzz5uxw4e","193.csv","","null","resources/images/fishbone.png","null","",NA,NA,NA,NA,""
"image-keyboard-response",608,436257,"0.0-3.199-0.199","uf6852zzz5uxw4e","193.csv","","360.5","resources/trios/L1T4A3.jpg","38","restless",0.1,0.6,0.4,0.307089230849402,"true"
"image-keyboard-response",609,436664,"0.0-3.199-1.199","uf6852zzz5uxw4e","193.csv","","null","resources/maskTrios/BT4B.jpg","null","",NA,NA,NA,NA,""
"image-keyboard-response",610,437872,"0.0-3.199-2.199","uf6852zzz5uxw4e","193.csv","","null","resources/images/coin2.png","null","",NA,NA,NA,NA,""
"image-keyboard-response",611,438257,"0.0-3.200-0.200","uf6852zzz5uxw4e","193.csv","","382.5","resources/trios/L4T1A3.jpg","38","restless",0.1,0.6,0.3,0.839869297220838,"false"
"image-keyboard-response",612,438664,"0.0-3.200-1.200","uf6852zzz5uxw4e","193.csv","","null","resources/maskTrios/BT1B.jpg","null","",NA,NA,NA,NA,""
"image-keyboard-response",613,439868,"0.0-3.200-2.200","uf6852zzz5uxw4e","193.csv","","null","resources/images/fishbone.png","null","",NA,NA,NA,NA,""
"image-keyboard-response",614,440182,"0.0-3.201-0.201","uf6852zzz5uxw4e","193.csv","","311.09999999403954","resources/trios/L4T4A2.jpg","37","restless",0.1,0.6,0.3,0.918038914829762,"false"
"image-keyboard-response",615,440587,"0.0-3.201-1.201","uf6852zzz5uxw4e","193.csv","","null","resources/maskTrios/L4BB.jpg","null","",NA,NA,NA,NA,""
"image-keyboard-response",616,441794,"0.0-3.201-2.201","uf6852zzz5uxw4e","193.csv","","null","resources/images/fishbone.png","null","",NA,NA,NA,NA,""
"image-keyboard-response",617,442110,"0.0-3.202-0.202","uf6852zzz5uxw4e","193.csv","","313.5","resources/trios/L4T4A3.jpg","37","restless",0.1,0.6,0.3,0.859455671551711,"false"
"image-keyboard-response",618,442517,"0.0-3.202-1.202","uf6852zzz5uxw4e","193.csv","","null","resources/maskTrios/L4BB.jpg","null","",NA,NA,NA,NA,""
"image-keyboard-response",619,443724,"0.0-3.202-2.202","uf6852zzz5uxw4e","193.csv","","null","resources/images/fishbone.png","null","",NA,NA,NA,NA,""
"image-keyboard-response",620,443976,"0.0-3.203-0.203","uf6852zzz5uxw4e","193.csv","","249.30000001192093","resources/trios/L1T1A2.jpg","38","restless",0.1,0.6,0.3,0.284989819983336,"true"
"image-keyboard-response",621,444383,"0.0-3.203-1.203","uf6852zzz5uxw4e","193.csv","","null","resources/maskTrios/BT1B.jpg","null","",NA,NA,NA,NA,""
