"trial_type","trial_index","time_elapsed","internal_node_id","subject","participantCode","walkNumber","success","rt","stimulus","key_press","test_part","leftProb","midProb","rightProb","generatedNum","correct"
"pavlovia",0,1128,"0.0-0.0","q8zqx53un1bq3sk",989,"104.csv","","","","","",NA,NA,NA,NA,""
"fullscreen",1,5873,"0.0-1.0","q8zqx53un1bq3sk",989,"104.csv","true","","","","",NA,NA,NA,NA,""
"html-keyboard-response",2,11387,"0.0-2.0-0.0","q8zqx53un1bq3sk",989,"104.csv","","5511.999999999998","<p><font size='6'>Arrrgh!</p></font><p>Can you be the best pirate? Try to find lots of gold! But beware, some islands have more gold than others, and over time, the island with the most gold may change. Can YOU figure it out? </p><font size='6'>GOOD LUCK, CAPTAIN!!!</font><p>Press any key to begin</p>","32","",NA,NA,NA,NA,""
"image-keyboard-response",3,14389,"0.0-2.0-1.0","q8zqx53un1bq3sk",989,"104.csv","","null","resources/image_sets/111.png","null","",NA,NA,NA,NA,""
"image-keyboard-response",4,56855,"0.0-2.0-2.0","q8zqx53un1bq3sk",989,"104.csv","","42461","resources/image_sets/left_highlight.png","37","",NA,NA,NA,NA,""
"image-keyboard-response",5,59547,"0.0-2.0-3.0","q8zqx53un1bq3sk",989,"104.csv","","2690","resources/image_sets/mid_highlight.png","38","",NA,NA,NA,NA,""
"image-keyboard-response",6,63923,"0.0-2.0-4.0","q8zqx53un1bq3sk",989,"104.csv","","4374","resources/image_sets/right_highlight.png","39","",NA,NA,NA,NA,""
"image-keyboard-response",7,66208,"0.0-2.0-5.0","q8zqx53un1bq3sk",989,"104.csv","","2285","resources/image_sets/111.png","13","",NA,NA,NA,NA,""
"image-keyboard-response",8,68270,"0.0-2.0-6.0","q8zqx53un1bq3sk",989,"104.csv","","2061","resources/images/coin2.png","13","",NA,NA,NA,NA,""
"image-keyboard-response",9,70806,"0.0-2.0-7.0","q8zqx53un1bq3sk",989,"104.csv","","2534","resources/images/fishbone.png","13","",NA,NA,NA,NA,""
"html-keyboard-response",10,71969,"0.0-2.0-8.0","q8zqx53un1bq3sk",989,"104.csv","","1162","<p>Your first journey will be a long one, but you will get a well deserved break at the end</p><p>After the break you will have four more journeys, but each will be much shorter than the first, and you will have breaks in between each</p><p>Press Enter to begin</p>","13","",NA,NA,NA,NA,""
"image-keyboard-response",11,73655,"0.0-3.0-0.0","q8zqx53un1bq3sk",989,"104.csv","","1685","resources/trios/L1T1A2.jpg","38","restless",0.9,0.7,0.3,0.749626306765458,"false"
"image-keyboard-response",12,74058,"0.0-3.0-1.0","q8zqx53un1bq3sk",989,"104.csv","","null","resources/maskTrios/BT1B.jpg","null","",NA,NA,NA,NA,""
"image-keyboard-response",13,75259,"0.0-3.0-2.0","q8zqx53un1bq3sk",989,"104.csv","","null","resources/images/fishbone.png","null","",NA,NA,NA,NA,""
"image-keyboard-response",14,76396,"0.0-3.1-0.1","q8zqx53un1bq3sk",989,"104.csv","","1135","resources/trios/L2T2A3.jpg","38","restless",0.9,0.7,0.3,0.0399528476660441,"true"
"image-keyboard-response",15,76798,"0.0-3.1-1.1","q8zqx53un1bq3sk",989,"104.csv","","null","resources/maskTrios/BT2B.jpg","null","",NA,NA,NA,NA,""
"image-keyboard-response",16,78001,"0.0-3.1-2.1","q8zqx53un1bq3sk",989,"104.csv","","null","resources/images/coin2.png","null","",NA,NA,NA,NA,""
"image-keyboard-response",17,78597,"0.0-3.2-0.2","q8zqx53un1bq3sk",989,"104.csv","","594","resources/trios/L2T2A2.jpg","39","restless",0.9,0.6,0.3,0.839796981353739,"false"
"image-keyboard-response",18,78999,"0.0-3.2-1.2","q8zqx53un1bq3sk",989,"104.csv","","null","resources/maskTrios/BBA2.jpg","null","",NA,NA,NA,NA,""
"image-keyboard-response",19,80202,"0.0-3.2-2.2","q8zqx53un1bq3sk",989,"104.csv","","null","resources/images/fishbone.png","null","",NA,NA,NA,NA,""
"image-keyboard-response",20,81599,"0.0-3.3-0.3","q8zqx53un1bq3sk",989,"104.csv","","1396.0000000000146","resources/trios/L1T1A2.jpg","38","restless",0.8,0.6,0.4,0.896580510349296,"false"
"image-keyboard-response",21,82002,"0.0-3.3-1.3","q8zqx53un1bq3sk",989,"104.csv","","null","resources/maskTrios/BT1B.jpg","null","",NA,NA,NA,NA,""
"image-keyboard-response",22,83204,"0.0-3.3-2.3","q8zqx53un1bq3sk",989,"104.csv","","null","resources/images/fishbone.png","null","",NA,NA,NA,NA,""
"image-keyboard-response",23,85361,"0.0-3.4-0.4","q8zqx53un1bq3sk",989,"104.csv","","2155.0000000000146","resources/trios/L2T1A3.jpg","37","restless",0.8,0.6,0.4,0.39205356626488,"true"
"image-keyboard-response",24,85763,"0.0-3.4-1.4","q8zqx53un1bq3sk",989,"104.csv","","null","resources/maskTrios/L2BB.jpg","null","",NA,NA,NA,NA,""
"image-keyboard-response",25,86965,"0.0-3.4-2.4","q8zqx53un1bq3sk",989,"104.csv","","null","resources/images/coin2.png","null","",NA,NA,NA,NA,""
"image-keyboard-response",26,88015,"0.0-3.5-0.5","q8zqx53un1bq3sk",989,"104.csv","","1049","resources/trios/L1T1A2.jpg","39","restless",0.8,0.6,0.4,0.798967728049184,"false"
"image-keyboard-response",27,88416,"0.0-3.5-1.5","q8zqx53un1bq3sk",989,"104.csv","","null","resources/maskTrios/BBA2.jpg","null","",NA,NA,NA,NA,""
"image-keyboard-response",28,89617,"0.0-3.5-2.5","q8zqx53un1bq3sk",989,"104.csv","","null","resources/images/fishbone.png","null","",NA,NA,NA,NA,""
"image-keyboard-response",29,90142,"0.0-3.6-0.6","q8zqx53un1bq3sk",989,"104.csv","","520.9999999999854","resources/trios/L1T1A2.jpg","37","restless",0.8,0.6,0.4,0.738594270652064,"true"
"image-keyboard-response",30,90545,"0.0-3.6-1.6","q8zqx53un1bq3sk",989,"104.csv","","null","resources/maskTrios/L1BB.jpg","null","",NA,NA,NA,NA,""
"image-keyboard-response",31,91746,"0.0-3.6-2.6","q8zqx53un1bq3sk",989,"104.csv","","null","resources/images/coin2.png","null","",NA,NA,NA,NA,""
"image-keyboard-response",32,92415,"0.0-3.7-0.7","q8zqx53un1bq3sk",989,"104.csv","","668","resources/trios/L2T1A2.jpg","37","restless",0.8,0.6,0.4,0.0260880861777154,"true"
"image-keyboard-response",33,92818,"0.0-3.7-1.7","q8zqx53un1bq3sk",989,"104.csv","","null","resources/maskTrios/L2BB.jpg","null","",NA,NA,NA,NA,""
"image-keyboard-response",34,94019,"0.0-3.7-2.7","q8zqx53un1bq3sk",989,"104.csv","","null","resources/images/coin2.png","null","",NA,NA,NA,NA,""
"image-keyboard-response",35,94492,"0.0-3.8-0.8","q8zqx53un1bq3sk",989,"104.csv","","472.00000000001455","resources/trios/L2T1A3.jpg","37","restless",0.8,0.6,0.4,0.0116596919118794,"true"
"image-keyboard-response",36,94894,"0.0-3.8-1.8","q8zqx53un1bq3sk",989,"104.csv","","null","resources/maskTrios/L2BB.jpg","null","",NA,NA,NA,NA,""
"image-keyboard-response",37,96096,"0.0-3.8-2.8","q8zqx53un1bq3sk",989,"104.csv","","null","resources/images/coin2.png","null","",NA,NA,NA,NA,""
"image-keyboard-response",38,96946,"0.0-3.9-0.9","q8zqx53un1bq3sk",989,"104.csv","","849","resources/trios/L1T2A2.jpg","37","restless",0.8,0.6,0.4,0.434003395075924,"true"
"image-keyboard-response",39,97348,"0.0-3.9-1.9","q8zqx53un1bq3sk",989,"104.csv","","null","resources/maskTrios/L1BB.jpg","null","",NA,NA,NA,NA,""
"image-keyboard-response",40,98551,"0.0-3.9-2.9","q8zqx53un1bq3sk",989,"104.csv","","null","resources/images/coin2.png","null","",NA,NA,NA,NA,""
"image-keyboard-response",41,99046,"0.0-3.10-0.10","q8zqx53un1bq3sk",989,"104.csv","","493","resources/trios/L1T2A2.jpg","37","restless",0.8,0.6,0.4,0.0750315965822813,"true"
"image-keyboard-response",42,99448,"0.0-3.10-1.10","q8zqx53un1bq3sk",989,"104.csv","","null","resources/maskTrios/L1BB.jpg","null","",NA,NA,NA,NA,""
"image-keyboard-response",43,100651,"0.0-3.10-2.10","q8zqx53un1bq3sk",989,"104.csv","","null","resources/images/coin2.png","null","",NA,NA,NA,NA,""
"image-keyboard-response",44,101224,"0.0-3.11-0.11","q8zqx53un1bq3sk",989,"104.csv","","573.0000000000146","resources/trios/L2T1A2.jpg","37","restless",0.8,0.6,0.4,0.577561888435588,"true"
"image-keyboard-response",45,101626,"0.0-3.11-1.11","q8zqx53un1bq3sk",989,"104.csv","","null","resources/maskTrios/L2BB.jpg","null","",NA,NA,NA,NA,""
"image-keyboard-response",46,102829,"0.0-3.11-2.11","q8zqx53un1bq3sk",989,"104.csv","","null","resources/images/coin2.png","null","",NA,NA,NA,NA,""
"image-keyboard-response",47,103392,"0.0-3.12-0.12","q8zqx53un1bq3sk",989,"104.csv","","562","resources/trios/L1T1A3.jpg","37","restless",0.8,0.7,0.4,0.0678704911714474,"true"
"image-keyboard-response",48,103794,"0.0-3.12-1.12","q8zqx53un1bq3sk",989,"104.csv","","null","resources/maskTrios/L1BB.jpg","null","",NA,NA,NA,NA,""
"image-keyboard-response",49,104997,"0.0-3.12-2.12","q8zqx53un1bq3sk",989,"104.csv","","null","resources/images/coin2.png","null","",NA,NA,NA,NA,""
"image-keyboard-response",50,105492,"0.0-3.13-0.13","q8zqx53un1bq3sk",989,"104.csv","","492.99999999998545","resources/trios/L2T1A2.jpg","37","restless",0.8,0.7,0.4,0.431798502504784,"true"
"image-keyboard-response",51,105894,"0.0-3.13-1.13","q8zqx53un1bq3sk",989,"104.csv","","null","resources/maskTrios/L2BB.jpg","null","",NA,NA,NA,NA,""
"image-keyboard-response",52,107096,"0.0-3.13-2.13","q8zqx53un1bq3sk",989,"104.csv","","null","resources/images/coin2.png","null","",NA,NA,NA,NA,""
"image-keyboard-response",53,107407,"0.0-3.14-0.14","q8zqx53un1bq3sk",989,"104.csv","","309","resources/trios/L2T2A3.jpg","37","restless",0.8,0.7,0.4,0.479305539676323,"true"
"image-keyboard-response",54,107809,"0.0-3.14-1.14","q8zqx53un1bq3sk",989,"104.csv","","null","resources/maskTrios/L2BB.jpg","null","",NA,NA,NA,NA,""
"image-keyboard-response",55,109012,"0.0-3.14-2.14","q8zqx53un1bq3sk",989,"104.csv","","null","resources/images/coin2.png","null","",NA,NA,NA,NA,""
"image-keyboard-response",56,109416,"0.0-3.15-0.15","q8zqx53un1bq3sk",989,"104.csv","","403","resources/trios/L2T2A2.jpg","37","restless",0.8,0.7,0.4,0.511243387077734,"true"
"image-keyboard-response",57,109818,"0.0-3.15-1.15","q8zqx53un1bq3sk",989,"104.csv","","null","resources/maskTrios/L2BB.jpg","null","",NA,NA,NA,NA,""
"image-keyboard-response",58,111021,"0.0-3.15-2.15","q8zqx53un1bq3sk",989,"104.csv","","null","resources/images/coin2.png","null","",NA,NA,NA,NA,""
"image-keyboard-response",59,111415,"0.0-3.16-0.16","q8zqx53un1bq3sk",989,"104.csv","","393","resources/trios/L2T2A3.jpg","37","restless",0.8,0.7,0.4,0.303899012845394,"true"
"image-keyboard-response",60,111816,"0.0-3.16-1.16","q8zqx53un1bq3sk",989,"104.csv","","null","resources/maskTrios/L2BB.jpg","null","",NA,NA,NA,NA,""
"image-keyboard-response",61,113018,"0.0-3.16-2.16","q8zqx53un1bq3sk",989,"104.csv","","null","resources/images/coin2.png","null","",NA,NA,NA,NA,""
"image-keyboard-response",62,113350,"0.0-3.17-0.17","q8zqx53un1bq3sk",989,"104.csv","","331.00000000001455","resources/trios/L1T1A2.jpg","37","restless",0.8,0.7,0.4,0.703341209936232,"true"
"image-keyboard-response",63,113752,"0.0-3.17-1.17","q8zqx53un1bq3sk",989,"104.csv","","null","resources/maskTrios/L1BB.jpg","null","",NA,NA,NA,NA,""
"image-keyboard-response",64,114955,"0.0-3.17-2.17","q8zqx53un1bq3sk",989,"104.csv","","null","resources/images/coin2.png","null","",NA,NA,NA,NA,""
"image-keyboard-response",65,115308,"0.0-3.18-0.18","q8zqx53un1bq3sk",989,"104.csv","","352","resources/trios/L1T2A2.jpg","37","restless",0.8,0.7,0.4,0.899433639829165,"false"
"image-keyboard-response",66,115710,"0.0-3.18-1.18","q8zqx53un1bq3sk",989,"104.csv","","null","resources/maskTrios/L1BB.jpg","null","",NA,NA,NA,NA,""
"image-keyboard-response",67,116912,"0.0-3.18-2.18","q8zqx53un1bq3sk",989,"104.csv","","null","resources/images/fishbone.png","null","",NA,NA,NA,NA,""
"image-keyboard-response",68,119046,"0.0-3.19-0.19","q8zqx53un1bq3sk",989,"104.csv","","2133","resources/trios/L1T2A2.jpg","38","restless",0.8,0.7,0.4,0.0844970850082984,"true"
"image-keyboard-response",69,119448,"0.0-3.19-1.19","q8zqx53un1bq3sk",989,"104.csv","","null","resources/maskTrios/BT2B.jpg","null","",NA,NA,NA,NA,""
"image-keyboard-response",70,120651,"0.0-3.19-2.19","q8zqx53un1bq3sk",989,"104.csv","","null","resources/images/coin2.png","null","",NA,NA,NA,NA,""
"image-keyboard-response",71,123303,"0.0-3.20-0.20","q8zqx53un1bq3sk",989,"104.csv","","2651.0000000000146","resources/trios/L2T2A3.jpg","38","restless",0.8,0.6,0.4,0.568760538657503,"true"
"image-keyboard-response",72,123705,"0.0-3.20-1.20","q8zqx53un1bq3sk",989,"104.csv","","null","resources/maskTrios/BT2B.jpg","null","",NA,NA,NA,NA,""
"image-keyboard-response",73,124908,"0.0-3.20-2.20","q8zqx53un1bq3sk",989,"104.csv","","null","resources/images/coin2.png","null","",NA,NA,NA,NA,""
"image-keyboard-response",74,125442,"0.0-3.21-0.21","q8zqx53un1bq3sk",989,"104.csv","","532.9999999999854","resources/trios/L2T2A3.jpg","38","restless",0.8,0.6,0.4,0.763322438080747,"false"
"image-keyboard-response",75,125843,"0.0-3.21-1.21","q8zqx53un1bq3sk",989,"104.csv","","null","resources/maskTrios/BT2B.jpg","null","",NA,NA,NA,NA,""
"image-keyboard-response",76,127045,"0.0-3.21-2.21","q8zqx53un1bq3sk",989,"104.csv","","null","resources/images/fishbone.png","null","",NA,NA,NA,NA,""
"image-keyboard-response",77,127505,"0.0-3.22-0.22","q8zqx53un1bq3sk",989,"104.csv","","459","resources/trios/L2T1A2.jpg","39","restless",0.8,0.6,0.4,0.599061062984061,"false"
"image-keyboard-response",78,127908,"0.0-3.22-1.22","q8zqx53un1bq3sk",989,"104.csv","","null","resources/maskTrios/BBA2.jpg","null","",NA,NA,NA,NA,""
"image-keyboard-response",79,129110,"0.0-3.22-2.22","q8zqx53un1bq3sk",989,"104.csv","","null","resources/images/fishbone.png","null","",NA,NA,NA,NA,""
"image-keyboard-response",80,129945,"0.0-3.23-0.23","q8zqx53un1bq3sk",989,"104.csv","","834","resources/trios/L1T1A3.jpg","37","restless",0.8,0.6,0.4,0.292595851621275,"true"
"image-keyboard-response",81,130347,"0.0-3.23-1.23","q8zqx53un1bq3sk",989,"104.csv","","null","resources/maskTrios/L1BB.jpg","null","",NA,NA,NA,NA,""
"image-keyboard-response",82,131548,"0.0-3.23-2.23","q8zqx53un1bq3sk",989,"104.csv","","null","resources/images/coin2.png","null","",NA,NA,NA,NA,""
"image-keyboard-response",83,132277,"0.0-3.24-0.24","q8zqx53un1bq3sk",989,"104.csv","","728.9999999999709","resources/trios/L2T1A2.jpg","37","restless",0.8,0.5,0.4,0.712618586182075,"true"
"image-keyboard-response",84,132679,"0.0-3.24-1.24","q8zqx53un1bq3sk",989,"104.csv","","null","resources/maskTrios/L2BB.jpg","null","",NA,NA,NA,NA,""
"image-keyboard-response",85,133881,"0.0-3.24-2.24","q8zqx53un1bq3sk",989,"104.csv","","null","resources/images/coin2.png","null","",NA,NA,NA,NA,""
"image-keyboard-response",86,134566,"0.0-3.25-0.25","q8zqx53un1bq3sk",989,"104.csv","","683","resources/trios/L1T1A2.jpg","37","restless",0.8,0.5,0.4,0.846351680778713,"false"
"image-keyboard-response",87,134968,"0.0-3.25-1.25","q8zqx53un1bq3sk",989,"104.csv","","null","resources/maskTrios/L1BB.jpg","null","",NA,NA,NA,NA,""
"image-keyboard-response",88,136170,"0.0-3.25-2.25","q8zqx53un1bq3sk",989,"104.csv","","null","resources/images/fishbone.png","null","",NA,NA,NA,NA,""
"image-keyboard-response",89,136476,"0.0-3.26-0.26","q8zqx53un1bq3sk",989,"104.csv","","305","resources/trios/L2T1A2.jpg","38","restless",0.7,0.5,0.5,0.513782008751052,"false"
"image-keyboard-response",90,136878,"0.0-3.26-1.26","q8zqx53un1bq3sk",989,"104.csv","","null","resources/maskTrios/BT1B.jpg","null","",NA,NA,NA,NA,""
"image-keyboard-response",91,138080,"0.0-3.26-2.26","q8zqx53un1bq3sk",989,"104.csv","","null","resources/images/fishbone.png","null","",NA,NA,NA,NA,""
"image-keyboard-response",92,138364,"0.0-3.27-0.27","q8zqx53un1bq3sk",989,"104.csv","","283","resources/trios/L2T2A3.jpg","39","restless",0.7,0.5,0.5,0.92157072940103,"false"
"image-keyboard-response",93,138766,"0.0-3.27-1.27","q8zqx53un1bq3sk",989,"104.csv","","null","resources/maskTrios/BBA3.jpg","null","",NA,NA,NA,NA,""
"image-keyboard-response",94,139968,"0.0-3.27-2.27","q8zqx53un1bq3sk",989,"104.csv","","null","resources/images/fishbone.png","null","",NA,NA,NA,NA,""
"image-keyboard-response",95,140558,"0.0-3.28-0.28","q8zqx53un1bq3sk",989,"104.csv","","588","resources/trios/L2T1A2.jpg","38","restless",0.7,0.5,0.5,0.571179501730186,"false"
"image-keyboard-response",96,140960,"0.0-3.28-1.28","q8zqx53un1bq3sk",989,"104.csv","","null","resources/maskTrios/BT1B.jpg","null","",NA,NA,NA,NA,""
"image-keyboard-response",97,142163,"0.0-3.28-2.28","q8zqx53un1bq3sk",989,"104.csv","","null","resources/images/fishbone.png","null","",NA,NA,NA,NA,""
"image-keyboard-response",98,143612,"0.0-3.29-0.29","q8zqx53un1bq3sk",989,"104.csv","","1448","resources/trios/L1T2A2.jpg","38","restless",0.7,0.5,0.5,0.661715926657026,"false"
"image-keyboard-response",99,144014,"0.0-3.29-1.29","q8zqx53un1bq3sk",989,"104.csv","","null","resources/maskTrios/BT2B.jpg","null","",NA,NA,NA,NA,""
"image-keyboard-response",100,145217,"0.0-3.29-2.29","q8zqx53un1bq3sk",989,"104.csv","","null","resources/images/fishbone.png","null","",NA,NA,NA,NA,""
"image-keyboard-response",101,146712,"0.0-3.30-0.30","q8zqx53un1bq3sk",989,"104.csv","","1494","resources/trios/L2T2A2.jpg","38","restless",0.7,0.5,0.5,0.988664590711965,"false"
"image-keyboard-response",102,147114,"0.0-3.30-1.30","q8zqx53un1bq3sk",989,"104.csv","","null","resources/maskTrios/BT2B.jpg","null","",NA,NA,NA,NA,""
"image-keyboard-response",103,148315,"0.0-3.30-2.30","q8zqx53un1bq3sk",989,"104.csv","","null","resources/images/fishbone.png","null","",NA,NA,NA,NA,""
"image-keyboard-response",104,149024,"0.0-3.31-0.31","q8zqx53un1bq3sk",989,"104.csv","","706.9999999999709","resources/trios/L1T1A3.jpg","37","restless",0.6,0.5,0.5,0.394817118748263,"true"
"image-keyboard-response",105,149426,"0.0-3.31-1.31","q8zqx53un1bq3sk",989,"104.csv","","null","resources/maskTrios/L1BB.jpg","null","",NA,NA,NA,NA,""
"image-keyboard-response",106,150631,"0.0-3.31-2.31","q8zqx53un1bq3sk",989,"104.csv","","null","resources/images/coin2.png","null","",NA,NA,NA,NA,""
"image-keyboard-response",107,151075,"0.0-3.32-0.32","q8zqx53un1bq3sk",989,"104.csv","","443","resources/trios/L2T2A3.jpg","37","restless",0.6,0.5,0.4,0.544544362267212,"true"
"image-keyboard-response",108,151480,"0.0-3.32-1.32","q8zqx53un1bq3sk",989,"104.csv","","null","resources/maskTrios/L2BB.jpg","null","",NA,NA,NA,NA,""
"image-keyboard-response",109,152682,"0.0-3.32-2.32","q8zqx53un1bq3sk",989,"104.csv","","null","resources/images/coin2.png","null","",NA,NA,NA,NA,""
"image-keyboard-response",110,154533,"0.0-3.33-0.33","q8zqx53un1bq3sk",989,"104.csv","","1849","resources/trios/L2T2A3.jpg","37","restless",0.6,0.5,0.4,0.165677015747415,"true"
"image-keyboard-response",111,154935,"0.0-3.33-1.33","q8zqx53un1bq3sk",989,"104.csv","","null","resources/maskTrios/L2BB.jpg","null","",NA,NA,NA,NA,""
"image-keyboard-response",112,156138,"0.0-3.33-2.33","q8zqx53un1bq3sk",989,"104.csv","","null","resources/images/coin2.png","null","",NA,NA,NA,NA,""
"image-keyboard-response",113,160928,"0.0-3.34-0.34","q8zqx53un1bq3sk",989,"104.csv","","4789","resources/trios/L2T2A2.jpg","39","restless",0.5,0.5,0.4,0.60605609093945,"false"
"image-keyboard-response",114,161330,"0.0-3.34-1.34","q8zqx53un1bq3sk",989,"104.csv","","null","resources/maskTrios/BBA2.jpg","null","",NA,NA,NA,NA,""
"image-keyboard-response",115,162533,"0.0-3.34-2.34","q8zqx53un1bq3sk",989,"104.csv","","null","resources/images/fishbone.png","null","",NA,NA,NA,NA,""
"image-keyboard-response",116,167502,"0.0-3.35-0.35","q8zqx53un1bq3sk",989,"104.csv","","4968","resources/trios/L1T2A2.jpg","38","restless",0.5,0.5,0.4,0.650957841078338,"false"
"image-keyboard-response",117,167905,"0.0-3.35-1.35","q8zqx53un1bq3sk",989,"104.csv","","null","resources/maskTrios/BT2B.jpg","null","",NA,NA,NA,NA,""
"image-keyboard-response",118,169107,"0.0-3.35-2.35","q8zqx53un1bq3sk",989,"104.csv","","null","resources/images/fishbone.png","null","",NA,NA,NA,NA,""
"image-keyboard-response",119,169647,"0.0-3.36-0.36","q8zqx53un1bq3sk",989,"104.csv","","537.9999999999709","resources/trios/L2T1A3.jpg","37","restless",0.5,0.5,0.4,0.335723902688495,"true"
"image-keyboard-response",120,170050,"0.0-3.36-1.36","q8zqx53un1bq3sk",989,"104.csv","","null","resources/maskTrios/L2BB.jpg","null","",NA,NA,NA,NA,""
"image-keyboard-response",121,171253,"0.0-3.36-2.36","q8zqx53un1bq3sk",989,"104.csv","","null","resources/images/coin2.png","null","",NA,NA,NA,NA,""
"image-keyboard-response",122,172118,"0.0-3.37-0.37","q8zqx53un1bq3sk",989,"104.csv","","865","resources/trios/L1T2A3.jpg","37","restless",0.5,0.5,0.4,0.0373933023511517,"true"
"image-keyboard-response",123,172521,"0.0-3.37-1.37","q8zqx53un1bq3sk",989,"104.csv","","null","resources/maskTrios/L1BB.jpg","null","",NA,NA,NA,NA,""
"image-keyboard-response",124,173723,"0.0-3.37-2.37","q8zqx53un1bq3sk",989,"104.csv","","null","resources/images/coin2.png","null","",NA,NA,NA,NA,""
"image-keyboard-response",125,176420,"0.0-3.38-0.38","q8zqx53un1bq3sk",989,"104.csv","","2696","resources/trios/L1T2A2.jpg","37","restless",0.5,0.5,0.4,0.858324900200924,"false"
"image-keyboard-response",126,176822,"0.0-3.38-1.38","q8zqx53un1bq3sk",989,"104.csv","","null","resources/maskTrios/L1BB.jpg","null","",NA,NA,NA,NA,""
"image-keyboard-response",127,178024,"0.0-3.38-2.38","q8zqx53un1bq3sk",989,"104.csv","","null","resources/images/fishbone.png","null","",NA,NA,NA,NA,""
"image-keyboard-response",128,178916,"0.0-3.39-0.39","q8zqx53un1bq3sk",989,"104.csv","","891","resources/trios/L2T2A3.jpg","38","restless",0.5,0.5,0.4,0.763531085130219,"false"
"image-keyboard-response",129,179318,"0.0-3.39-1.39","q8zqx53un1bq3sk",989,"104.csv","","null","resources/maskTrios/BT2B.jpg","null","",NA,NA,NA,NA,""
"image-keyboard-response",130,180521,"0.0-3.39-2.39","q8zqx53un1bq3sk",989,"104.csv","","null","resources/images/fishbone.png","null","",NA,NA,NA,NA,""
"image-keyboard-response",131,181287,"0.0-3.40-0.40","q8zqx53un1bq3sk",989,"104.csv","","766.0000000000291","resources/trios/L2T2A3.jpg","37","restless",0.5,0.5,0.4,0.726056014345015,"false"
"image-keyboard-response",132,181690,"0.0-3.40-1.40","q8zqx53un1bq3sk",989,"104.csv","","null","resources/maskTrios/L2BB.jpg","null","",NA,NA,NA,NA,""
"image-keyboard-response",133,182892,"0.0-3.40-2.40","q8zqx53un1bq3sk",989,"104.csv","","null","resources/images/fishbone.png","null","",NA,NA,NA,NA,""
"image-keyboard-response",134,183037,"0.0-3.41-0.41","q8zqx53un1bq3sk",989,"104.csv","","144","resources/trios/L1T2A2.jpg","37","restless",0.4,0.5,0.4,0.0368035849042585,"true"
"image-keyboard-response",135,183439,"0.0-3.41-1.41","q8zqx53un1bq3sk",989,"104.csv","","null","resources/maskTrios/L1BB.jpg","null","",NA,NA,NA,NA,""
"image-keyboard-response",136,184641,"0.0-3.41-2.41","q8zqx53un1bq3sk",989,"104.csv","","null","resources/images/coin2.png","null","",NA,NA,NA,NA,""
"image-keyboard-response",137,186899,"0.0-3.42-0.42","q8zqx53un1bq3sk",989,"104.csv","","2257","resources/trios/L2T1A2.jpg","38","restless",0.4,0.5,0.4,0.577449321316552,"false"
"image-keyboard-response",138,187301,"0.0-3.42-1.42","q8zqx53un1bq3sk",989,"104.csv","","null","resources/maskTrios/BT1B.jpg","null","",NA,NA,NA,NA,""
"image-keyboard-response",139,188504,"0.0-3.42-2.42","q8zqx53un1bq3sk",989,"104.csv","","null","resources/images/fishbone.png","null","",NA,NA,NA,NA,""
"image-keyboard-response",140,188689,"0.0-3.43-0.43","q8zqx53un1bq3sk",989,"104.csv","","184","resources/trios/L2T2A3.jpg","39","restless",0.4,0.5,0.4,0.0296391086173682,"true"
"image-keyboard-response",141,189091,"0.0-3.43-1.43","q8zqx53un1bq3sk",989,"104.csv","","null","resources/maskTrios/BBA3.jpg","null","",NA,NA,NA,NA,""
"image-keyboard-response",142,190292,"0.0-3.43-2.43","q8zqx53un1bq3sk",989,"104.csv","","null","resources/images/coin2.png","null","",NA,NA,NA,NA,""
"image-keyboard-response",143,191247,"0.0-3.44-0.44","q8zqx53un1bq3sk",989,"104.csv","","954.0000000000291","resources/trios/L1T2A2.jpg","39","restless",0.4,0.5,0.3,0.763849299775264,"false"
"image-keyboard-response",144,191649,"0.0-3.44-1.44","q8zqx53un1bq3sk",989,"104.csv","","null","resources/maskTrios/BBA2.jpg","null","",NA,NA,NA,NA,""
"image-keyboard-response",145,192850,"0.0-3.44-2.44","q8zqx53un1bq3sk",989,"104.csv","","null","resources/images/fishbone.png","null","",NA,NA,NA,NA,""
"image-keyboard-response",146,193217,"0.0-3.45-0.45","q8zqx53un1bq3sk",989,"104.csv","","365","resources/trios/L1T1A3.jpg","38","restless",0.4,0.5,0.3,0.188392899720641,"true"
"image-keyboard-response",147,193618,"0.0-3.45-1.45","q8zqx53un1bq3sk",989,"104.csv","","null","resources/maskTrios/BT1B.jpg","null","",NA,NA,NA,NA,""
"image-keyboard-response",148,194820,"0.0-3.45-2.45","q8zqx53un1bq3sk",989,"104.csv","","null","resources/images/coin2.png","null","",NA,NA,NA,NA,""
"image-keyboard-response",149,195370,"0.0-3.46-0.46","q8zqx53un1bq3sk",989,"104.csv","","549","resources/trios/L2T1A3.jpg","38","restless",0.4,0.5,0.3,0.784603045950749,"false"
"image-keyboard-response",150,195772,"0.0-3.46-1.46","q8zqx53un1bq3sk",989,"104.csv","","null","resources/maskTrios/BT1B.jpg","null","",NA,NA,NA,NA,""
"image-keyboard-response",151,196974,"0.0-3.46-2.46","q8zqx53un1bq3sk",989,"104.csv","","null","resources/images/fishbone.png","null","",NA,NA,NA,NA,""
"image-keyboard-response",152,198022,"0.0-3.47-0.47","q8zqx53un1bq3sk",989,"104.csv","","1047","resources/trios/L2T2A2.jpg","39","restless",0.4,0.5,0.3,0.797642205166853,"false"
"image-keyboard-response",153,198424,"0.0-3.47-1.47","q8zqx53un1bq3sk",989,"104.csv","","null","resources/maskTrios/BBA2.jpg","null","",NA,NA,NA,NA,""
"image-keyboard-response",154,199626,"0.0-3.47-2.47","q8zqx53un1bq3sk",989,"104.csv","","null","resources/images/fishbone.png","null","",NA,NA,NA,NA,""
"image-keyboard-response",155,199704,"0.0-3.48-0.48","q8zqx53un1bq3sk",989,"104.csv","","74","resources/trios/L1T2A2.jpg","37","restless",0.4,0.5,0.3,0.486509998863184,"false"
"image-keyboard-response",156,200107,"0.0-3.48-1.48","q8zqx53un1bq3sk",989,"104.csv","","null","resources/maskTrios/L1BB.jpg","null","",NA,NA,NA,NA,""
"image-keyboard-response",157,201309,"0.0-3.48-2.48","q8zqx53un1bq3sk",989,"104.csv","","null","resources/images/fishbone.png","null","",NA,NA,NA,NA,""
"image-keyboard-response",158,201808,"0.0-3.49-0.49","q8zqx53un1bq3sk",989,"104.csv","","498","resources/trios/L2T1A3.jpg","37","restless",0.3,0.5,0.4,0.28385411508928,"true"
"image-keyboard-response",159,202210,"0.0-3.49-1.49","q8zqx53un1bq3sk",989,"104.csv","","null","resources/maskTrios/L2BB.jpg","null","",NA,NA,NA,NA,""
"image-keyboard-response",160,203412,"0.0-3.49-2.49","q8zqx53un1bq3sk",989,"104.csv","","null","resources/images/coin2.png","null","",NA,NA,NA,NA,""
"image-keyboard-response",161,204977,"0.0-3.50-0.50","q8zqx53un1bq3sk",989,"104.csv","","1565","resources/trios/L1T1A3.jpg","37","restless",0.3,0.5,0.4,0.15230653452924,"true"
"image-keyboard-response",162,205380,"0.0-3.50-1.50","q8zqx53un1bq3sk",989,"104.csv","","null","resources/maskTrios/L1BB.jpg","null","",NA,NA,NA,NA,""
"image-keyboard-response",163,206581,"0.0-3.50-2.50","q8zqx53un1bq3sk",989,"104.csv","","null","resources/images/coin2.png","null","",NA,NA,NA,NA,""
"image-keyboard-response",164,206905,"0.0-3.51-0.51","q8zqx53un1bq3sk",989,"104.csv","","323","resources/trios/L1T2A3.jpg","37","restless",0.3,0.5,0.4,0.491915818021014,"false"
"image-keyboard-response",165,207308,"0.0-3.51-1.51","q8zqx53un1bq3sk",989,"104.csv","","null","resources/maskTrios/L1BB.jpg","null","",NA,NA,NA,NA,""
"image-keyboard-response",166,208510,"0.0-3.51-2.51","q8zqx53un1bq3sk",989,"104.csv","","null","resources/images/fishbone.png","null","",NA,NA,NA,NA,""
"image-keyboard-response",167,209098,"0.0-3.52-0.52","q8zqx53un1bq3sk",989,"104.csv","","586.0000000000291","resources/trios/L2T1A2.jpg","37","restless",0.3,0.5,0.4,0.884033142618311,"false"
"image-keyboard-response",168,209501,"0.0-3.52-1.52","q8zqx53un1bq3sk",989,"104.csv","","null","resources/maskTrios/L2BB.jpg","null","",NA,NA,NA,NA,""
"image-keyboard-response",169,210703,"0.0-3.52-2.52","q8zqx53un1bq3sk",989,"104.csv","","null","resources/images/fishbone.png","null","",NA,NA,NA,NA,""
"image-keyboard-response",170,211172,"0.0-3.53-0.53","q8zqx53un1bq3sk",989,"104.csv","","468","resources/trios/L2T2A3.jpg","37","restless",0.3,0.4,0.4,0.430648425113012,"false"
"image-keyboard-response",171,211574,"0.0-3.53-1.53","q8zqx53un1bq3sk",989,"104.csv","","null","resources/maskTrios/L2BB.jpg","null","",NA,NA,NA,NA,""
"image-keyboard-response",172,212775,"0.0-3.53-2.53","q8zqx53un1bq3sk",989,"104.csv","","null","resources/images/fishbone.png","null","",NA,NA,NA,NA,""
"image-keyboard-response",173,213165,"0.0-3.54-0.54","q8zqx53un1bq3sk",989,"104.csv","","389","resources/trios/L2T1A2.jpg","38","restless",0.3,0.4,0.4,0.066312937224191,"true"
"image-keyboard-response",174,213567,"0.0-3.54-1.54","q8zqx53un1bq3sk",989,"104.csv","","null","resources/maskTrios/BT1B.jpg","null","",NA,NA,NA,NA,""
"image-keyboard-response",175,214769,"0.0-3.54-2.54","q8zqx53un1bq3sk",989,"104.csv","","null","resources/images/coin2.png","null","",NA,NA,NA,NA,""
"image-keyboard-response",176,215339,"0.0-3.55-0.55","q8zqx53un1bq3sk",989,"104.csv","","568","resources/trios/L2T1A3.jpg","37","restless",0.3,0.5,0.5,0.974842227912557,"false"
"image-keyboard-response",177,215741,"0.0-3.55-1.55","q8zqx53un1bq3sk",989,"104.csv","","null","resources/maskTrios/L2BB.jpg","null","",NA,NA,NA,NA,""
"image-keyboard-response",178,216943,"0.0-3.55-2.55","q8zqx53un1bq3sk",989,"104.csv","","null","resources/images/fishbone.png","null","",NA,NA,NA,NA,""
"image-keyboard-response",179,217854,"0.0-3.56-0.56","q8zqx53un1bq3sk",989,"104.csv","","909","resources/trios/L2T1A3.jpg","37","restless",0.3,0.5,0.5,0.460859690584225,"false"
"image-keyboard-response",180,218258,"0.0-3.56-1.56","q8zqx53un1bq3sk",989,"104.csv","","null","resources/maskTrios/L2BB.jpg","null","",NA,NA,NA,NA,""
"image-keyboard-response",181,219459,"0.0-3.56-2.56","q8zqx53un1bq3sk",989,"104.csv","","null","resources/images/fishbone.png","null","",NA,NA,NA,NA,""
"image-keyboard-response",182,221681,"0.0-3.57-0.57","q8zqx53un1bq3sk",989,"104.csv","","2220","resources/trios/L1T2A2.jpg","38","restless",0.3,0.5,0.5,0.444847287041747,"true"
"image-keyboard-response",183,222082,"0.0-3.57-1.57","q8zqx53un1bq3sk",989,"104.csv","","null","resources/maskTrios/BT2B.jpg","null","",NA,NA,NA,NA,""
"image-keyboard-response",184,223284,"0.0-3.57-2.57","q8zqx53un1bq3sk",989,"104.csv","","null","resources/images/coin2.png","null","",NA,NA,NA,NA,""
"image-keyboard-response",185,224951,"0.0-3.58-0.58","q8zqx53un1bq3sk",989,"104.csv","","1665","resources/trios/L1T2A3.jpg","38","restless",0.3,0.5,0.6,0.53749733327508,"false"
"image-keyboard-response",186,225353,"0.0-3.58-1.58","q8zqx53un1bq3sk",989,"104.csv","","null","resources/maskTrios/BT2B.jpg","null","",NA,NA,NA,NA,""
"image-keyboard-response",187,226554,"0.0-3.58-2.58","q8zqx53un1bq3sk",989,"104.csv","","null","resources/images/fishbone.png","null","",NA,NA,NA,NA,""
"image-keyboard-response",188,228514,"0.0-3.59-0.59","q8zqx53un1bq3sk",989,"104.csv","","1959","resources/trios/L2T1A3.jpg","39","restless",0.3,0.5,0.6,0.901357930239,"false"
"image-keyboard-response",189,228916,"0.0-3.59-1.59","q8zqx53un1bq3sk",989,"104.csv","","null","resources/maskTrios/BBA3.jpg","null","",NA,NA,NA,NA,""
"image-keyboard-response",190,230117,"0.0-3.59-2.59","q8zqx53un1bq3sk",989,"104.csv","","null","resources/images/fishbone.png","null","",NA,NA,NA,NA,""
"image-keyboard-response",191,230799,"0.0-3.60-0.60","q8zqx53un1bq3sk",989,"104.csv","","680","resources/trios/L2T2A2.jpg","38","restless",0.3,0.5,0.6,0.514195784958559,"false"
"image-keyboard-response",192,231200,"0.0-3.60-1.60","q8zqx53un1bq3sk",989,"104.csv","","null","resources/maskTrios/BT2B.jpg","null","",NA,NA,NA,NA,""
"image-keyboard-response",193,232402,"0.0-3.60-2.60","q8zqx53un1bq3sk",989,"104.csv","","null","resources/images/fishbone.png","null","",NA,NA,NA,NA,""
"image-keyboard-response",194,232812,"0.0-3.61-0.61","q8zqx53un1bq3sk",989,"104.csv","","408.9999999999709","resources/trios/L2T1A2.jpg","39","restless",0.3,0.5,0.6,0.175541872600878,"true"
"image-keyboard-response",195,233214,"0.0-3.61-1.61","q8zqx53un1bq3sk",989,"104.csv","","null","resources/maskTrios/BBA2.jpg","null","",NA,NA,NA,NA,""
"image-keyboard-response",196,234415,"0.0-3.61-2.61","q8zqx53un1bq3sk",989,"104.csv","","null","resources/images/coin2.png","null","",NA,NA,NA,NA,""
"image-keyboard-response",197,234813,"0.0-3.62-0.62","q8zqx53un1bq3sk",989,"104.csv","","395","resources/trios/L2T1A3.jpg","39","restless",0.3,0.5,0.6,0.475950656650362,"true"
"image-keyboard-response",198,235214,"0.0-3.62-1.62","q8zqx53un1bq3sk",989,"104.csv","","null","resources/maskTrios/BBA3.jpg","null","",NA,NA,NA,NA,""
"image-keyboard-response",199,236416,"0.0-3.62-2.62","q8zqx53un1bq3sk",989,"104.csv","","null","resources/images/coin2.png","null","",NA,NA,NA,NA,""
"image-keyboard-response",200,236816,"0.0-3.63-0.63","q8zqx53un1bq3sk",989,"104.csv","","399","resources/trios/L1T2A2.jpg","39","restless",0.3,0.5,0.6,0.201673243191036,"true"
"image-keyboard-response",201,237219,"0.0-3.63-1.63","q8zqx53un1bq3sk",989,"104.csv","","null","resources/maskTrios/BBA2.jpg","null","",NA,NA,NA,NA,""
"image-keyboard-response",202,238421,"0.0-3.63-2.63","q8zqx53un1bq3sk",989,"104.csv","","null","resources/images/coin2.png","null","",NA,NA,NA,NA,""
"image-keyboard-response",203,238850,"0.0-3.64-0.64","q8zqx53un1bq3sk",989,"104.csv","","429","resources/trios/L1T1A3.jpg","39","restless",0.3,0.5,0.6,0.131581285650521,"true"
"image-keyboard-response",204,239252,"0.0-3.64-1.64","q8zqx53un1bq3sk",989,"104.csv","","null","resources/maskTrios/BBA3.jpg","null","",NA,NA,NA,NA,""
"image-keyboard-response",205,240454,"0.0-3.64-2.64","q8zqx53un1bq3sk",989,"104.csv","","null","resources/images/coin2.png","null","",NA,NA,NA,NA,""
"image-keyboard-response",206,240992,"0.0-3.65-0.65","q8zqx53un1bq3sk",989,"104.csv","","537.0000000000291","resources/trios/L1T2A2.jpg","39","restless",0.4,0.5,0.6,0.0591612373880426,"true"
"image-keyboard-response",207,241395,"0.0-3.65-1.65","q8zqx53un1bq3sk",989,"104.csv","","null","resources/maskTrios/BBA2.jpg","null","",NA,NA,NA,NA,""
"image-keyboard-response",208,242597,"0.0-3.65-2.65","q8zqx53un1bq3sk",989,"104.csv","","null","resources/images/coin2.png","null","",NA,NA,NA,NA,""
"image-keyboard-response",209,243769,"0.0-3.66-0.66","q8zqx53un1bq3sk",989,"104.csv","","1171","resources/trios/L2T2A2.jpg","39","restless",0.4,0.5,0.6,0.138547792133374,"true"
"image-keyboard-response",210,244174,"0.0-3.66-1.66","q8zqx53un1bq3sk",989,"104.csv","","null","resources/maskTrios/BBA2.jpg","null","",NA,NA,NA,NA,""
"image-keyboard-response",211,245376,"0.0-3.66-2.66","q8zqx53un1bq3sk",989,"104.csv","","null","resources/images/coin2.png","null","",NA,NA,NA,NA,""
"image-keyboard-response",212,245728,"0.0-3.67-0.67","q8zqx53un1bq3sk",989,"104.csv","","351","resources/trios/L2T1A2.jpg","39","restless",0.4,0.4,0.6,0.971767051154327,"false"
"image-keyboard-response",213,246131,"0.0-3.67-1.67","q8zqx53un1bq3sk",989,"104.csv","","null","resources/maskTrios/BBA2.jpg","null","",NA,NA,NA,NA,""
"image-keyboard-response",214,247332,"0.0-3.67-2.67","q8zqx53un1bq3sk",989,"104.csv","","null","resources/images/fishbone.png","null","",NA,NA,NA,NA,""
"image-keyboard-response",215,247655,"0.0-3.68-0.68","q8zqx53un1bq3sk",989,"104.csv","","322","resources/trios/L2T1A3.jpg","37","restless",0.4,0.4,0.6,0.00407281761149769,"true"
"image-keyboard-response",216,248058,"0.0-3.68-1.68","q8zqx53un1bq3sk",989,"104.csv","","null","resources/maskTrios/L2BB.jpg","null","",NA,NA,NA,NA,""
"image-keyboard-response",217,249260,"0.0-3.68-2.68","q8zqx53un1bq3sk",989,"104.csv","","null","resources/images/coin2.png","null","",NA,NA,NA,NA,""
"image-keyboard-response",218,249304,"0.0-3.69-0.69","q8zqx53un1bq3sk",989,"104.csv","","42.999999999970896","resources/trios/L2T2A2.jpg","38","restless",0.4,0.4,0.6,0.452560870647476,"false"
"image-keyboard-response",219,249705,"0.0-3.69-1.69","q8zqx53un1bq3sk",989,"104.csv","","null","resources/maskTrios/BT2B.jpg","null","",NA,NA,NA,NA,""
"image-keyboard-response",220,250907,"0.0-3.69-2.69","q8zqx53un1bq3sk",989,"104.csv","","null","resources/images/fishbone.png","null","",NA,NA,NA,NA,""
"image-keyboard-response",221,252162,"0.0-3.70-0.70","q8zqx53un1bq3sk",989,"104.csv","","1253","resources/trios/L2T2A2.jpg","38","restless",0.4,0.5,0.6,0.444801261694888,"true"
"image-keyboard-response",222,252563,"0.0-3.70-1.70","q8zqx53un1bq3sk",989,"104.csv","","null","resources/maskTrios/BT2B.jpg","null","",NA,NA,NA,NA,""
"image-keyboard-response",223,253765,"0.0-3.70-2.70","q8zqx53un1bq3sk",989,"104.csv","","null","resources/images/coin2.png","null","",NA,NA,NA,NA,""
"image-keyboard-response",224,255864,"0.0-3.71-0.71","q8zqx53un1bq3sk",989,"104.csv","","2096.999999999971","resources/trios/L2T2A3.jpg","39","restless",0.4,0.5,0.6,0.669600398479821,"false"
"image-keyboard-response",225,256267,"0.0-3.71-1.71","q8zqx53un1bq3sk",989,"104.csv","","null","resources/maskTrios/BBA3.jpg","null","",NA,NA,NA,NA,""
"image-keyboard-response",226,257469,"0.0-3.71-2.71","q8zqx53un1bq3sk",989,"104.csv","","null","resources/images/fishbone.png","null","",NA,NA,NA,NA,""
"image-keyboard-response",227,258105,"0.0-3.72-0.72","q8zqx53un1bq3sk",989,"104.csv","","635","resources/trios/L1T1A3.jpg","39","restless",0.4,0.5,0.6,0.923938470822145,"false"
"image-keyboard-response",228,258506,"0.0-3.72-1.72","q8zqx53un1bq3sk",989,"104.csv","","null","resources/maskTrios/BBA3.jpg","null","",NA,NA,NA,NA,""
"image-keyboard-response",229,259708,"0.0-3.72-2.72","q8zqx53un1bq3sk",989,"104.csv","","null","resources/images/fishbone.png","null","",NA,NA,NA,NA,""
"image-keyboard-response",230,260670,"0.0-3.73-0.73","q8zqx53un1bq3sk",989,"104.csv","","962","resources/trios/L2T1A2.jpg","37","restless",0.4,0.5,0.6,0.655479281500634,"false"
"image-keyboard-response",231,261073,"0.0-3.73-1.73","q8zqx53un1bq3sk",989,"104.csv","","null","resources/maskTrios/L2BB.jpg","null","",NA,NA,NA,NA,""
"image-keyboard-response",232,262275,"0.0-3.73-2.73","q8zqx53un1bq3sk",989,"104.csv","","null","resources/images/fishbone.png","null","",NA,NA,NA,NA,""
"image-keyboard-response",233,265149,"0.0-3.74-0.74","q8zqx53un1bq3sk",989,"104.csv","","2871.999999999942","resources/trios/L2T2A3.jpg","38","restless",0.4,0.5,0.6,0.682613688143506,"false"
"image-keyboard-response",234,265551,"0.0-3.74-1.74","q8zqx53un1bq3sk",989,"104.csv","","null","resources/maskTrios/BT2B.jpg","null","",NA,NA,NA,NA,""
"image-keyboard-response",235,266754,"0.0-3.74-2.74","q8zqx53un1bq3sk",989,"104.csv","","null","resources/images/fishbone.png","null","",NA,NA,NA,NA,""
"image-keyboard-response",236,267076,"0.0-3.75-0.75","q8zqx53un1bq3sk",989,"104.csv","","320","resources/trios/L2T2A3.jpg","39","restless",0.4,0.5,0.6,0.710814628399025,"false"
"image-keyboard-response",237,267478,"0.0-3.75-1.75","q8zqx53un1bq3sk",989,"104.csv","","null","resources/maskTrios/BBA3.jpg","null","",NA,NA,NA,NA,""
"image-keyboard-response",238,268680,"0.0-3.75-2.75","q8zqx53un1bq3sk",989,"104.csv","","null","resources/images/fishbone.png","null","",NA,NA,NA,NA,""
"image-keyboard-response",239,268921,"0.0-3.76-0.76","q8zqx53un1bq3sk",989,"104.csv","","240","resources/trios/L1T1A3.jpg","37","restless",0.4,0.4,0.6,0.94194368621951,"false"
"image-keyboard-response",240,269324,"0.0-3.76-1.76","q8zqx53un1bq3sk",989,"104.csv","","null","resources/maskTrios/L1BB.jpg","null","",NA,NA,NA,NA,""
"image-keyboard-response",241,270525,"0.0-3.76-2.76","q8zqx53un1bq3sk",989,"104.csv","","null","resources/images/fishbone.png","null","",NA,NA,NA,NA,""
"image-keyboard-response",242,270829,"0.0-3.77-0.77","q8zqx53un1bq3sk",989,"104.csv","","303","resources/trios/L2T2A3.jpg","38","restless",0.4,0.4,0.5,0.450265867714185,"false"
"image-keyboard-response",243,271232,"0.0-3.77-1.77","q8zqx53un1bq3sk",989,"104.csv","","null","resources/maskTrios/BT2B.jpg","null","",NA,NA,NA,NA,""
"image-keyboard-response",244,272434,"0.0-3.77-2.77","q8zqx53un1bq3sk",989,"104.csv","","null","resources/images/fishbone.png","null","",NA,NA,NA,NA,""
"image-keyboard-response",245,272693,"0.0-3.78-0.78","q8zqx53un1bq3sk",989,"104.csv","","259","resources/trios/L1T1A2.jpg","38","restless",0.4,0.4,0.5,0.905837389561904,"false"
"image-keyboard-response",246,273096,"0.0-3.78-1.78","q8zqx53un1bq3sk",989,"104.csv","","null","resources/maskTrios/BT1B.jpg","null","",NA,NA,NA,NA,""
"image-keyboard-response",247,274298,"0.0-3.78-2.78","q8zqx53un1bq3sk",989,"104.csv","","null","resources/images/fishbone.png","null","",NA,NA,NA,NA,""
"image-keyboard-response",248,274571,"0.0-3.79-0.79","q8zqx53un1bq3sk",989,"104.csv","","272","resources/trios/L2T2A2.jpg","37","restless",0.4,0.4,0.5,0.700773929838683,"false"
"image-keyboard-response",249,274973,"0.0-3.79-1.79","q8zqx53un1bq3sk",989,"104.csv","","null","resources/maskTrios/L2BB.jpg","null","",NA,NA,NA,NA,""
"image-keyboard-response",250,276175,"0.0-3.79-2.79","q8zqx53un1bq3sk",989,"104.csv","","null","resources/images/fishbone.png","null","",NA,NA,NA,NA,""
"image-keyboard-response",251,276536,"0.0-3.80-0.80","q8zqx53un1bq3sk",989,"104.csv","","360.9999999999418","resources/trios/L2T1A2.jpg","38","restless",0.4,0.4,0.5,0.552349655840316,"false"
"image-keyboard-response",252,276938,"0.0-3.80-1.80","q8zqx53un1bq3sk",989,"104.csv","","null","resources/maskTrios/BT1B.jpg","null","",NA,NA,NA,NA,""
"image-keyboard-response",253,278140,"0.0-3.80-2.80","q8zqx53un1bq3sk",989,"104.csv","","null","resources/images/fishbone.png","null","",NA,NA,NA,NA,""
"image-keyboard-response",254,278453,"0.0-3.81-0.81","q8zqx53un1bq3sk",989,"104.csv","","312","resources/trios/L1T1A3.jpg","39","restless",0.4,0.5,0.5,0.683712541479325,"false"
"image-keyboard-response",255,278856,"0.0-3.81-1.81","q8zqx53un1bq3sk",989,"104.csv","","null","resources/maskTrios/BBA3.jpg","null","",NA,NA,NA,NA,""
"image-keyboard-response",256,280058,"0.0-3.81-2.81","q8zqx53un1bq3sk",989,"104.csv","","null","resources/images/fishbone.png","null","",NA,NA,NA,NA,""
"image-keyboard-response",257,280084,"0.0-3.82-0.82","q8zqx53un1bq3sk",989,"104.csv","","26","resources/trios/L1T2A2.jpg","37","restless",0.4,0.5,0.5,0.967766027847999,"false"
"image-keyboard-response",258,280487,"0.0-3.82-1.82","q8zqx53un1bq3sk",989,"104.csv","","null","resources/maskTrios/L1BB.jpg","null","",NA,NA,NA,NA,""
"image-keyboard-response",259,281689,"0.0-3.82-2.82","q8zqx53un1bq3sk",989,"104.csv","","null","resources/images/fishbone.png","null","",NA,NA,NA,NA,""
"image-keyboard-response",260,282008,"0.0-3.83-0.83","q8zqx53un1bq3sk",989,"104.csv","","319","resources/trios/L1T1A2.jpg","37","restless",0.4,0.5,0.5,0.416610085172316,"false"
"image-keyboard-response",261,282411,"0.0-3.83-1.83","q8zqx53un1bq3sk",989,"104.csv","","null","resources/maskTrios/L1BB.jpg","null","",NA,NA,NA,NA,""
"image-keyboard-response",262,283613,"0.0-3.83-2.83","q8zqx53un1bq3sk",989,"104.csv","","null","resources/images/fishbone.png","null","",NA,NA,NA,NA,""
"image-keyboard-response",263,284061,"0.0-3.84-0.84","q8zqx53un1bq3sk",989,"104.csv","","447","resources/trios/L2T2A2.jpg","37","restless",0.4,0.5,0.5,0.970549819913907,"false"
"image-keyboard-response",264,284463,"0.0-3.84-1.84","q8zqx53un1bq3sk",989,"104.csv","","null","resources/maskTrios/L2BB.jpg","null","",NA,NA,NA,NA,""
"image-keyboard-response",265,285665,"0.0-3.84-2.84","q8zqx53un1bq3sk",989,"104.csv","","null","resources/images/fishbone.png","null","",NA,NA,NA,NA,""
"image-keyboard-response",266,286364,"0.0-3.85-0.85","q8zqx53un1bq3sk",989,"104.csv","","698","resources/trios/L1T2A2.jpg","37","restless",0.4,0.5,0.5,0.82356139991073,"false"
"image-keyboard-response",267,286766,"0.0-3.85-1.85","q8zqx53un1bq3sk",989,"104.csv","","null","resources/maskTrios/L1BB.jpg","null","",NA,NA,NA,NA,""
"image-keyboard-response",268,287971,"0.0-3.85-2.85","q8zqx53un1bq3sk",989,"104.csv","","null","resources/images/fishbone.png","null","",NA,NA,NA,NA,""
"image-keyboard-response",269,288984,"0.0-3.86-0.86","q8zqx53un1bq3sk",989,"104.csv","","1011","resources/trios/L2T2A3.jpg","37","restless",0.4,0.5,0.5,0.93104493149702,"false"
"image-keyboard-response",270,289386,"0.0-3.86-1.86","q8zqx53un1bq3sk",989,"104.csv","","null","resources/maskTrios/L2BB.jpg","null","",NA,NA,NA,NA,""
"image-keyboard-response",271,290589,"0.0-3.86-2.86","q8zqx53un1bq3sk",989,"104.csv","","null","resources/images/fishbone.png","null","",NA,NA,NA,NA,""
"image-keyboard-response",272,291155,"0.0-3.87-0.87","q8zqx53un1bq3sk",989,"104.csv","","565","resources/trios/L1T2A2.jpg","37","restless",0.4,0.5,0.5,0.736852053469791,"false"
"image-keyboard-response",273,291558,"0.0-3.87-1.87","q8zqx53un1bq3sk",989,"104.csv","","null","resources/maskTrios/L1BB.jpg","null","",NA,NA,NA,NA,""
"image-keyboard-response",274,292759,"0.0-3.87-2.87","q8zqx53un1bq3sk",989,"104.csv","","null","resources/images/fishbone.png","null","",NA,NA,NA,NA,""
"image-keyboard-response",275,293340,"0.0-3.88-0.88","q8zqx53un1bq3sk",989,"104.csv","","580","resources/trios/L2T2A2.jpg","37","restless",0.4,0.5,0.6,0.131422776280989,"true"
"image-keyboard-response",276,293742,"0.0-3.88-1.88","q8zqx53un1bq3sk",989,"104.csv","","null","resources/maskTrios/L2BB.jpg","null","",NA,NA,NA,NA,""
"image-keyboard-response",277,294944,"0.0-3.88-2.88","q8zqx53un1bq3sk",989,"104.csv","","null","resources/images/coin2.png","null","",NA,NA,NA,NA,""
"image-keyboard-response",278,295857,"0.0-3.89-0.89","q8zqx53un1bq3sk",989,"104.csv","","912","resources/trios/L1T2A2.jpg","37","restless",0.4,0.5,0.7,0.0924800637569534,"true"
"image-keyboard-response",279,296259,"0.0-3.89-1.89","q8zqx53un1bq3sk",989,"104.csv","","null","resources/maskTrios/L1BB.jpg","null","",NA,NA,NA,NA,""
"image-keyboard-response",280,297461,"0.0-3.89-2.89","q8zqx53un1bq3sk",989,"104.csv","","null","resources/images/coin2.png","null","",NA,NA,NA,NA,""
"image-keyboard-response",281,297862,"0.0-3.90-0.90","q8zqx53un1bq3sk",989,"104.csv","","400","resources/trios/L1T2A2.jpg","37","restless",0.4,0.6,0.7,0.0501104042074173,"true"
"image-keyboard-response",282,298264,"0.0-3.90-1.90","q8zqx53un1bq3sk",989,"104.csv","","null","resources/maskTrios/L1BB.jpg","null","",NA,NA,NA,NA,""
"image-keyboard-response",283,299466,"0.0-3.90-2.90","q8zqx53un1bq3sk",989,"104.csv","","null","resources/images/coin2.png","null","",NA,NA,NA,NA,""
"image-keyboard-response",284,299982,"0.0-3.91-0.91","q8zqx53un1bq3sk",989,"104.csv","","513","resources/trios/L2T1A2.jpg","37","restless",0.4,0.6,0.7,0.503331464316979,"false"
"image-keyboard-response",285,300384,"0.0-3.91-1.91","q8zqx53un1bq3sk",989,"104.csv","","null","resources/maskTrios/L2BB.jpg","null","",NA,NA,NA,NA,""
"image-keyboard-response",286,301586,"0.0-3.91-2.91","q8zqx53un1bq3sk",989,"104.csv","","null","resources/images/fishbone.png","null","",NA,NA,NA,NA,""
"image-keyboard-response",287,301639,"0.0-3.92-0.92","q8zqx53un1bq3sk",989,"104.csv","","51","resources/trios/L2T1A3.jpg","37","restless",0.4,0.6,0.7,0.331743817298803,"true"
"image-keyboard-response",288,302040,"0.0-3.92-1.92","q8zqx53un1bq3sk",989,"104.csv","","null","resources/maskTrios/L2BB.jpg","null","",NA,NA,NA,NA,""
"image-keyboard-response",289,303242,"0.0-3.92-2.92","q8zqx53un1bq3sk",989,"104.csv","","null","resources/images/coin2.png","null","",NA,NA,NA,NA,""
"image-keyboard-response",290,304904,"0.0-3.93-0.93","q8zqx53un1bq3sk",989,"104.csv","","1661","resources/trios/L2T1A2.jpg","37","restless",0.4,0.7,0.7,0.406991750804996,"false"
"image-keyboard-response",291,305306,"0.0-3.93-1.93","q8zqx53un1bq3sk",989,"104.csv","","null","resources/maskTrios/L2BB.jpg","null","",NA,NA,NA,NA,""
"image-keyboard-response",292,306508,"0.0-3.93-2.93","q8zqx53un1bq3sk",989,"104.csv","","null","resources/images/fishbone.png","null","",NA,NA,NA,NA,""
"image-keyboard-response",293,307328,"0.0-3.94-0.94","q8zqx53un1bq3sk",989,"104.csv","","820","resources/trios/L1T1A3.jpg","37","restless",0.4,0.7,0.7,0.25933332335796,"true"
"image-keyboard-response",294,307731,"0.0-3.94-1.94","q8zqx53un1bq3sk",989,"104.csv","","null","resources/maskTrios/L1BB.jpg","null","",NA,NA,NA,NA,""
"image-keyboard-response",295,308933,"0.0-3.94-2.94","q8zqx53un1bq3sk",989,"104.csv","","null","resources/images/coin2.png","null","",NA,NA,NA,NA,""
"image-keyboard-response",296,309411,"0.0-3.95-0.95","q8zqx53un1bq3sk",989,"104.csv","","477","resources/trios/L1T2A2.jpg","37","restless",0.4,0.7,0.7,0.657162279047024,"false"
"image-keyboard-response",297,309812,"0.0-3.95-1.95","q8zqx53un1bq3sk",989,"104.csv","","null","resources/maskTrios/L1BB.jpg","null","",NA,NA,NA,NA,""
"image-keyboard-response",298,311015,"0.0-3.95-2.95","q8zqx53un1bq3sk",989,"104.csv","","null","resources/images/fishbone.png","null","",NA,NA,NA,NA,""
"image-keyboard-response",299,311578,"0.0-3.96-0.96","q8zqx53un1bq3sk",989,"104.csv","","561.9999999999418","resources/trios/L2T1A3.jpg","37","restless",0.4,0.7,0.8,0.857980885160168,"false"
"image-keyboard-response",300,311980,"0.0-3.96-1.96","q8zqx53un1bq3sk",989,"104.csv","","null","resources/maskTrios/L2BB.jpg","null","",NA,NA,NA,NA,""
"image-keyboard-response",301,313182,"0.0-3.96-2.96","q8zqx53un1bq3sk",989,"104.csv","","null","resources/images/fishbone.png","null","",NA,NA,NA,NA,""
"image-keyboard-response",302,323549,"0.0-3.97-0.97","q8zqx53un1bq3sk",989,"104.csv","","10365","resources/trios/L2T1A2.jpg","39","restless",0.4,0.7,0.8,0.459918098030573,"true"
"image-keyboard-response",303,323951,"0.0-3.97-1.97","q8zqx53un1bq3sk",989,"104.csv","","null","resources/maskTrios/BBA2.jpg","null","",NA,NA,NA,NA,""
"image-keyboard-response",304,325152,"0.0-3.97-2.97","q8zqx53un1bq3sk",989,"104.csv","","null","resources/images/coin2.png","null","",NA,NA,NA,NA,""
"image-keyboard-response",305,325586,"0.0-3.98-0.98","q8zqx53un1bq3sk",989,"104.csv","","432.9999999999418","resources/trios/L2T1A2.jpg","39","restless",0.4,0.7,0.8,0.433309124077533,"true"
"image-keyboard-response",306,325988,"0.0-3.98-1.98","q8zqx53un1bq3sk",989,"104.csv","","null","resources/maskTrios/BBA2.jpg","null","",NA,NA,NA,NA,""
"image-keyboard-response",307,327190,"0.0-3.98-2.98","q8zqx53un1bq3sk",989,"104.csv","","null","resources/images/coin2.png","null","",NA,NA,NA,NA,""
"image-keyboard-response",308,327354,"0.0-3.99-0.99","q8zqx53un1bq3sk",989,"104.csv","","163","resources/trios/L2T1A3.jpg","39","restless",0.4,0.7,0.8,0.312240896243718,"true"
"image-keyboard-response",309,327755,"0.0-3.99-1.99","q8zqx53un1bq3sk",989,"104.csv","","null","resources/maskTrios/BBA3.jpg","null","",NA,NA,NA,NA,""
"image-keyboard-response",310,328958,"0.0-3.99-2.99","q8zqx53un1bq3sk",989,"104.csv","","null","resources/images/coin2.png","null","",NA,NA,NA,NA,""
"image-keyboard-response",311,329062,"0.0-3.100-0.100","q8zqx53un1bq3sk",989,"104.csv","","104","resources/trios/L2T1A2.jpg","37","restless",0.4,0.8,0.8,0.472319429978293,"false"
"image-keyboard-response",312,329463,"0.0-3.100-1.100","q8zqx53un1bq3sk",989,"104.csv","","null","resources/maskTrios/L2BB.jpg","null","",NA,NA,NA,NA,""
"image-keyboard-response",313,330934,"0.0-3.100-2.100","q8zqx53un1bq3sk",989,"104.csv","","null","resources/images/fishbone.png","null","",NA,NA,NA,NA,""
"image-keyboard-response",314,331734,"0.0-3.101-0.101","q8zqx53un1bq3sk",989,"104.csv","","799.9999999999418","resources/trios/L1T2A2.jpg","38","restless",0.4,0.9,0.8,0.970204289857154,"false"
"image-keyboard-response",315,332136,"0.0-3.101-1.101","q8zqx53un1bq3sk",989,"104.csv","","null","resources/maskTrios/BT2B.jpg","null","",NA,NA,NA,NA,""
"image-keyboard-response",316,333338,"0.0-3.101-2.101","q8zqx53un1bq3sk",989,"104.csv","","null","resources/images/fishbone.png","null","",NA,NA,NA,NA,""
"image-keyboard-response",317,333783,"0.0-3.102-0.102","q8zqx53un1bq3sk",989,"104.csv","","444","resources/trios/L1T2A2.jpg","39","restless",0.5,0.9,0.8,0.649221140528868,"true"
"image-keyboard-response",318,334184,"0.0-3.102-1.102","q8zqx53un1bq3sk",989,"104.csv","","null","resources/maskTrios/BBA2.jpg","null","",NA,NA,NA,NA,""
"image-keyboard-response",319,335385,"0.0-3.102-2.102","q8zqx53un1bq3sk",989,"104.csv","","null","resources/images/coin2.png","null","",NA,NA,NA,NA,""
"image-keyboard-response",320,335928,"0.0-3.103-0.103","q8zqx53un1bq3sk",989,"104.csv","","539","resources/trios/L1T1A3.jpg","39","restless",0.5,0.8,0.8,0.334493872294559,"true"
"image-keyboard-response",321,336330,"0.0-3.103-1.103","q8zqx53un1bq3sk",989,"104.csv","","null","resources/maskTrios/BBA3.jpg","null","",NA,NA,NA,NA,""
"image-keyboard-response",322,337531,"0.0-3.103-2.103","q8zqx53un1bq3sk",989,"104.csv","","null","resources/images/coin2.png","null","",NA,NA,NA,NA,""
"image-keyboard-response",323,339389,"0.0-3.104-0.104","q8zqx53un1bq3sk",989,"104.csv","","1857","resources/trios/L2T1A3.jpg","39","restless",0.4,0.8,0.8,0.0419688499988877,"true"
"image-keyboard-response",324,339791,"0.0-3.104-1.104","q8zqx53un1bq3sk",989,"104.csv","","null","resources/maskTrios/BBA3.jpg","null","",NA,NA,NA,NA,""
"image-keyboard-response",325,340993,"0.0-3.104-2.104","q8zqx53un1bq3sk",989,"104.csv","","null","resources/images/coin2.png","null","",NA,NA,NA,NA,""
"image-keyboard-response",326,342618,"0.0-3.105-0.105","q8zqx53un1bq3sk",989,"104.csv","","1623","resources/trios/L2T2A3.jpg","39","restless",0.4,0.8,0.8,0.84038350368068,"false"
"image-keyboard-response",327,343019,"0.0-3.105-1.105","q8zqx53un1bq3sk",989,"104.csv","","null","resources/maskTrios/BBA3.jpg","null","",NA,NA,NA,NA,""
"image-keyboard-response",328,344221,"0.0-3.105-2.105","q8zqx53un1bq3sk",989,"104.csv","","null","resources/images/fishbone.png","null","",NA,NA,NA,NA,""
"image-keyboard-response",329,344656,"0.0-3.106-0.106","q8zqx53un1bq3sk",989,"104.csv","","431","resources/trios/L2T1A3.jpg","39","restless",0.4,0.8,0.8,0.791165098343828,"true"
"image-keyboard-response",330,345058,"0.0-3.106-1.106","q8zqx53un1bq3sk",989,"104.csv","","null","resources/maskTrios/BBA3.jpg","null","",NA,NA,NA,NA,""
"image-keyboard-response",331,346261,"0.0-3.106-2.106","q8zqx53un1bq3sk",989,"104.csv","","null","resources/images/coin2.png","null","",NA,NA,NA,NA,""
"image-keyboard-response",332,347145,"0.0-3.107-0.107","q8zqx53un1bq3sk",989,"104.csv","","882.9999999999418","resources/trios/L1T2A3.jpg","39","restless",0.4,0.8,0.8,0.0846633753925631,"true"
"image-keyboard-response",333,347548,"0.0-3.107-1.107","q8zqx53un1bq3sk",989,"104.csv","","null","resources/maskTrios/BBA3.jpg","null","",NA,NA,NA,NA,""
"image-keyboard-response",334,348750,"0.0-3.107-2.107","q8zqx53un1bq3sk",989,"104.csv","","null","resources/images/coin2.png","null","",NA,NA,NA,NA,""
"image-keyboard-response",335,351306,"0.0-3.108-0.108","q8zqx53un1bq3sk",989,"104.csv","","2555","resources/trios/L2T1A2.jpg","39","restless",0.5,0.8,0.9,0.676381513811262,"true"
"image-keyboard-response",336,351709,"0.0-3.108-1.108","q8zqx53un1bq3sk",989,"104.csv","","null","resources/maskTrios/BBA2.jpg","null","",NA,NA,NA,NA,""
"image-keyboard-response",337,352911,"0.0-3.108-2.108","q8zqx53un1bq3sk",989,"104.csv","","null","resources/images/coin2.png","null","",NA,NA,NA,NA,""
"image-keyboard-response",338,377112,"0.0-3.109-0.109","q8zqx53un1bq3sk",989,"104.csv","","24199","resources/trios/L1T2A2.jpg","39","restless",0.5,0.8,0.9,0.179380680126696,"true"
"image-keyboard-response",339,377515,"0.0-3.109-1.109","q8zqx53un1bq3sk",989,"104.csv","","null","resources/maskTrios/BBA2.jpg","null","",NA,NA,NA,NA,""
"image-keyboard-response",340,378717,"0.0-3.109-2.109","q8zqx53un1bq3sk",989,"104.csv","","null","resources/images/coin2.png","null","",NA,NA,NA,NA,""
"image-keyboard-response",341,379075,"0.0-3.110-0.110","q8zqx53un1bq3sk",989,"104.csv","","356","resources/trios/L2T2A2.jpg","38","restless",0.5,0.8,0.9,0.0474323588370579,"true"
"image-keyboard-response",342,379477,"0.0-3.110-1.110","q8zqx53un1bq3sk",989,"104.csv","","null","resources/maskTrios/BT2B.jpg","null","",NA,NA,NA,NA,""
"image-keyboard-response",343,380679,"0.0-3.110-2.110","q8zqx53un1bq3sk",989,"104.csv","","null","resources/images/coin2.png","null","",NA,NA,NA,NA,""
"image-keyboard-response",344,383648,"0.0-3.111-0.111","q8zqx53un1bq3sk",989,"104.csv","","2968","resources/trios/L2T1A2.jpg","37","restless",0.5,0.8,0.9,0.863472690438674,"false"
"image-keyboard-response",345,384049,"0.0-3.111-1.111","q8zqx53un1bq3sk",989,"104.csv","","null","resources/maskTrios/L2BB.jpg","null","",NA,NA,NA,NA,""
"image-keyboard-response",346,385251,"0.0-3.111-2.111","q8zqx53un1bq3sk",989,"104.csv","","null","resources/images/fishbone.png","null","",NA,NA,NA,NA,""
"image-keyboard-response",347,387382,"0.0-3.112-0.112","q8zqx53un1bq3sk",989,"104.csv","","2128","resources/trios/L2T1A3.jpg","38","restless",0.5,0.7,0.9,0.918206274669031,"false"
"image-keyboard-response",348,387783,"0.0-3.112-1.112","q8zqx53un1bq3sk",989,"104.csv","","null","resources/maskTrios/BT1B.jpg","null","",NA,NA,NA,NA,""
"image-keyboard-response",349,388984,"0.0-3.112-2.112","q8zqx53un1bq3sk",989,"104.csv","","null","resources/images/fishbone.png","null","",NA,NA,NA,NA,""
"image-keyboard-response",350,389377,"0.0-3.113-0.113","q8zqx53un1bq3sk",989,"104.csv","","392","resources/trios/L2T2A3.jpg","37","restless",0.6,0.7,0.9,0.345759124211093,"true"
"image-keyboard-response",351,389779,"0.0-3.113-1.113","q8zqx53un1bq3sk",989,"104.csv","","null","resources/maskTrios/L2BB.jpg","null","",NA,NA,NA,NA,""
"image-keyboard-response",352,390981,"0.0-3.113-2.113","q8zqx53un1bq3sk",989,"104.csv","","null","resources/images/coin2.png","null","",NA,NA,NA,NA,""
"image-keyboard-response",353,391277,"0.0-3.114-0.114","q8zqx53un1bq3sk",989,"104.csv","","291.9999999999418","resources/trios/L1T1A2.jpg","37","restless",0.6,0.7,0.9,0.419025400651513,"true"
"image-keyboard-response",354,391679,"0.0-3.114-1.114","q8zqx53un1bq3sk",989,"104.csv","","null","resources/maskTrios/L1BB.jpg","null","",NA,NA,NA,NA,""
"image-keyboard-response",355,392882,"0.0-3.114-2.114","q8zqx53un1bq3sk",989,"104.csv","","null","resources/images/coin2.png","null","",NA,NA,NA,NA,""
"image-keyboard-response",356,393231,"0.0-3.115-0.115","q8zqx53un1bq3sk",989,"104.csv","","346.9999999999418","resources/trios/L1T2A3.jpg","37","restless",0.5,0.7,0.9,0.566639894952684,"false"
"image-keyboard-response",357,393633,"0.0-3.115-1.115","q8zqx53un1bq3sk",989,"104.csv","","null","resources/maskTrios/L1BB.jpg","null","",NA,NA,NA,NA,""
"image-keyboard-response",358,394835,"0.0-3.115-2.115","q8zqx53un1bq3sk",989,"104.csv","","null","resources/images/fishbone.png","null","",NA,NA,NA,NA,""
"image-keyboard-response",359,394906,"0.0-3.116-0.116","q8zqx53un1bq3sk",989,"104.csv","","69","resources/trios/L1T2A2.jpg","37","restless",0.5,0.7,0.9,0.89107563384449,"false"
"image-keyboard-response",360,395308,"0.0-3.116-1.116","q8zqx53un1bq3sk",989,"104.csv","","null","resources/maskTrios/L1BB.jpg","null","",NA,NA,NA,NA,""
"image-keyboard-response",361,396510,"0.0-3.116-2.116","q8zqx53un1bq3sk",989,"104.csv","","null","resources/images/fishbone.png","null","",NA,NA,NA,NA,""
"image-keyboard-response",362,396672,"0.0-3.117-0.117","q8zqx53un1bq3sk",989,"104.csv","","161","resources/trios/L1T2A3.jpg","37","restless",0.5,0.7,0.9,0.413164736088577,"true"
"image-keyboard-response",363,397074,"0.0-3.117-1.117","q8zqx53un1bq3sk",989,"104.csv","","null","resources/maskTrios/L1BB.jpg","null","",NA,NA,NA,NA,""
"image-keyboard-response",364,398276,"0.0-3.117-2.117","q8zqx53un1bq3sk",989,"104.csv","","null","resources/images/coin2.png","null","",NA,NA,NA,NA,""
"image-keyboard-response",365,398399,"0.0-3.118-0.118","q8zqx53un1bq3sk",989,"104.csv","","122","resources/trios/L1T2A3.jpg","39","restless",0.5,0.6,0.9,0.620464599666717,"true"
"image-keyboard-response",366,398802,"0.0-3.118-1.118","q8zqx53un1bq3sk",989,"104.csv","","null","resources/maskTrios/BBA3.jpg","null","",NA,NA,NA,NA,""
"image-keyboard-response",367,400004,"0.0-3.118-2.118","q8zqx53un1bq3sk",989,"104.csv","","null","resources/images/coin2.png","null","",NA,NA,NA,NA,""
"image-keyboard-response",368,400310,"0.0-3.119-0.119","q8zqx53un1bq3sk",989,"104.csv","","304","resources/trios/L2T2A2.jpg","37","restless",0.5,0.6,0.9,0.34916265859358,"true"
"image-keyboard-response",369,400711,"0.0-3.119-1.119","q8zqx53un1bq3sk",989,"104.csv","","null","resources/maskTrios/L2BB.jpg","null","",NA,NA,NA,NA,""
"image-keyboard-response",370,401913,"0.0-3.119-2.119","q8zqx53un1bq3sk",989,"104.csv","","null","resources/images/coin2.png","null","",NA,NA,NA,NA,""
"image-keyboard-response",371,402328,"0.0-3.120-0.120","q8zqx53un1bq3sk",989,"104.csv","","413","resources/trios/L2T2A2.jpg","37","restless",0.5,0.6,0.9,0.631061524134559,"false"
"image-keyboard-response",372,402730,"0.0-3.120-1.120","q8zqx53un1bq3sk",989,"104.csv","","null","resources/maskTrios/L2BB.jpg","null","",NA,NA,NA,NA,""
"image-keyboard-response",373,403932,"0.0-3.120-2.120","q8zqx53un1bq3sk",989,"104.csv","","null","resources/images/fishbone.png","null","",NA,NA,NA,NA,""
"image-keyboard-response",374,404332,"0.0-3.121-0.121","q8zqx53un1bq3sk",989,"104.csv","","399","resources/trios/L2T2A3.jpg","37","restless",0.5,0.6,0.9,0.00746796498537849,"true"
"image-keyboard-response",375,404734,"0.0-3.121-1.121","q8zqx53un1bq3sk",989,"104.csv","","null","resources/maskTrios/L2BB.jpg","null","",NA,NA,NA,NA,""
"image-keyboard-response",376,405936,"0.0-3.121-2.121","q8zqx53un1bq3sk",989,"104.csv","","null","resources/images/coin2.png","null","",NA,NA,NA,NA,""
"image-keyboard-response",377,406433,"0.0-3.122-0.122","q8zqx53un1bq3sk",989,"104.csv","","495.9999999999418","resources/trios/L1T2A3.jpg","37","restless",0.5,0.6,0.8,0.231172946329624,"true"
"image-keyboard-response",378,406835,"0.0-3.122-1.122","q8zqx53un1bq3sk",989,"104.csv","","null","resources/maskTrios/L1BB.jpg","null","",NA,NA,NA,NA,""
"image-keyboard-response",379,408037,"0.0-3.122-2.122","q8zqx53un1bq3sk",989,"104.csv","","null","resources/images/coin2.png","null","",NA,NA,NA,NA,""
"image-keyboard-response",380,408373,"0.0-3.123-0.123","q8zqx53un1bq3sk",989,"104.csv","","332","resources/trios/L1T1A3.jpg","38","restless",0.5,0.6,0.8,0.547469322357457,"true"
"image-keyboard-response",381,408775,"0.0-3.123-1.123","q8zqx53un1bq3sk",989,"104.csv","","null","resources/maskTrios/BT1B.jpg","null","",NA,NA,NA,NA,""
"image-keyboard-response",382,409977,"0.0-3.123-2.123","q8zqx53un1bq3sk",989,"104.csv","","null","resources/images/coin2.png","null","",NA,NA,NA,NA,""
"image-keyboard-response",383,411155,"0.0-3.124-0.124","q8zqx53un1bq3sk",989,"104.csv","","1176","resources/trios/L2T1A3.jpg","39","restless",0.5,0.6,0.8,0.121404280924626,"true"
"image-keyboard-response",384,411558,"0.0-3.124-1.124","q8zqx53un1bq3sk",989,"104.csv","","null","resources/maskTrios/BBA3.jpg","null","",NA,NA,NA,NA,""
"image-keyboard-response",385,412760,"0.0-3.124-2.124","q8zqx53un1bq3sk",989,"104.csv","","null","resources/images/coin2.png","null","",NA,NA,NA,NA,""
"image-keyboard-response",386,413478,"0.0-3.125-0.125","q8zqx53un1bq3sk",989,"104.csv","","717.0000000000582","resources/trios/L2T2A2.jpg","39","restless",0.5,0.6,0.8,0.907934782577992,"false"
"image-keyboard-response",387,413880,"0.0-3.125-1.125","q8zqx53un1bq3sk",989,"104.csv","","null","resources/maskTrios/BBA2.jpg","null","",NA,NA,NA,NA,""
"image-keyboard-response",388,415082,"0.0-3.125-2.125","q8zqx53un1bq3sk",989,"104.csv","","null","resources/images/fishbone.png","null","",NA,NA,NA,NA,""
"image-keyboard-response",389,417480,"0.0-3.126-0.126","q8zqx53un1bq3sk",989,"104.csv","","2396","resources/trios/L1T1A3.jpg","39","restless",0.5,0.6,0.9,0.833223327605175,"true"
"image-keyboard-response",390,417883,"0.0-3.126-1.126","q8zqx53un1bq3sk",989,"104.csv","","null","resources/maskTrios/BBA3.jpg","null","",NA,NA,NA,NA,""
"image-keyboard-response",391,419085,"0.0-3.126-2.126","q8zqx53un1bq3sk",989,"104.csv","","null","resources/images/coin2.png","null","",NA,NA,NA,NA,""
"image-keyboard-response",392,421966,"0.0-3.127-0.127","q8zqx53un1bq3sk",989,"104.csv","","2880","resources/trios/L2T1A3.jpg","39","restless",0.5,0.6,0.9,0.391497499605558,"true"
"image-keyboard-response",393,422368,"0.0-3.127-1.127","q8zqx53un1bq3sk",989,"104.csv","","null","resources/maskTrios/BBA3.jpg","null","",NA,NA,NA,NA,""
"image-keyboard-response",394,423570,"0.0-3.127-2.127","q8zqx53un1bq3sk",989,"104.csv","","null","resources/images/coin2.png","null","",NA,NA,NA,NA,""
"image-keyboard-response",395,424547,"0.0-3.128-0.128","q8zqx53un1bq3sk",989,"104.csv","","976","resources/trios/L2T2A3.jpg","39","restless",0.5,0.6,0.9,0.118870527334248,"true"
"image-keyboard-response",396,424950,"0.0-3.128-1.128","q8zqx53un1bq3sk",989,"104.csv","","null","resources/maskTrios/BBA3.jpg","null","",NA,NA,NA,NA,""
"image-keyboard-response",397,426152,"0.0-3.128-2.128","q8zqx53un1bq3sk",989,"104.csv","","null","resources/images/coin2.png","null","",NA,NA,NA,NA,""
"image-keyboard-response",398,426422,"0.0-3.129-0.129","q8zqx53un1bq3sk",989,"104.csv","","269","resources/trios/L2T1A2.jpg","39","restless",0.5,0.6,0.9,0.0781067634470707,"true"
"image-keyboard-response",399,426824,"0.0-3.129-1.129","q8zqx53un1bq3sk",989,"104.csv","","null","resources/maskTrios/BBA2.jpg","null","",NA,NA,NA,NA,""
"image-keyboard-response",400,428026,"0.0-3.129-2.129","q8zqx53un1bq3sk",989,"104.csv","","null","resources/images/coin2.png","null","",NA,NA,NA,NA,""
"image-keyboard-response",401,429831,"0.0-3.130-0.130","q8zqx53un1bq3sk",989,"104.csv","","1803.9999999999418","resources/trios/L1T1A3.jpg","39","restless",0.5,0.6,0.9,0.317884002872753,"true"
"image-keyboard-response",402,430232,"0.0-3.130-1.130","q8zqx53un1bq3sk",989,"104.csv","","null","resources/maskTrios/BBA3.jpg","null","",NA,NA,NA,NA,""
"image-keyboard-response",403,431435,"0.0-3.130-2.130","q8zqx53un1bq3sk",989,"104.csv","","null","resources/images/coin2.png","null","",NA,NA,NA,NA,""
"image-keyboard-response",404,432495,"0.0-3.131-0.131","q8zqx53un1bq3sk",989,"104.csv","","1059","resources/trios/L2T1A3.jpg","39","restless",0.5,0.6,0.9,0.255445373802394,"true"
"image-keyboard-response",405,432897,"0.0-3.131-1.131","q8zqx53un1bq3sk",989,"104.csv","","null","resources/maskTrios/BBA3.jpg","null","",NA,NA,NA,NA,""
"image-keyboard-response",406,434099,"0.0-3.131-2.131","q8zqx53un1bq3sk",989,"104.csv","","null","resources/images/coin2.png","null","",NA,NA,NA,NA,""
"image-keyboard-response",407,434578,"0.0-3.132-0.132","q8zqx53un1bq3sk",989,"104.csv","","475","resources/trios/L2T1A3.jpg","39","restless",0.5,0.6,0.9,0.478592095860757,"true"
"image-keyboard-response",408,434980,"0.0-3.132-1.132","q8zqx53un1bq3sk",989,"104.csv","","null","resources/maskTrios/BBA3.jpg","null","",NA,NA,NA,NA,""
"image-keyboard-response",409,436182,"0.0-3.132-2.132","q8zqx53un1bq3sk",989,"104.csv","","null","resources/images/coin2.png","null","",NA,NA,NA,NA,""
"image-keyboard-response",410,436251,"0.0-3.133-0.133","q8zqx53un1bq3sk",989,"104.csv","","68","resources/trios/L2T1A3.jpg","39","restless",0.5,0.6,0.8,0.752193402959185,"true"
"image-keyboard-response",411,436653,"0.0-3.133-1.133","q8zqx53un1bq3sk",989,"104.csv","","null","resources/maskTrios/BBA3.jpg","null","",NA,NA,NA,NA,""
"image-keyboard-response",412,437855,"0.0-3.133-2.133","q8zqx53un1bq3sk",989,"104.csv","","null","resources/images/coin2.png","null","",NA,NA,NA,NA,""
"image-keyboard-response",413,438034,"0.0-3.134-0.134","q8zqx53un1bq3sk",989,"104.csv","","177.0000000000582","resources/trios/L2T1A2.jpg","39","restless",0.5,0.6,0.8,0.937104067547568,"false"
"image-keyboard-response",414,438435,"0.0-3.134-1.134","q8zqx53un1bq3sk",989,"104.csv","","null","resources/maskTrios/BBA2.jpg","null","",NA,NA,NA,NA,""
"image-keyboard-response",415,439637,"0.0-3.134-2.134","q8zqx53un1bq3sk",989,"104.csv","","null","resources/images/fishbone.png","null","",NA,NA,NA,NA,""
"image-keyboard-response",416,440587,"0.0-3.135-0.135","q8zqx53un1bq3sk",989,"104.csv","","948.0000000000582","resources/trios/L1T1A3.jpg","39","restless",0.5,0.6,0.8,0.0767346686795148,"true"
"image-keyboard-response",417,440989,"0.0-3.135-1.135","q8zqx53un1bq3sk",989,"104.csv","","null","resources/maskTrios/BBA3.jpg","null","",NA,NA,NA,NA,""
"image-keyboard-response",418,442191,"0.0-3.135-2.135","q8zqx53un1bq3sk",989,"104.csv","","null","resources/images/coin2.png","null","",NA,NA,NA,NA,""
"image-keyboard-response",419,443705,"0.0-3.136-0.136","q8zqx53un1bq3sk",989,"104.csv","","1513.0000000000582","resources/trios/L1T1A3.jpg","39","restless",0.5,0.6,0.8,0.968869236778295,"false"
"image-keyboard-response",420,444107,"0.0-3.136-1.136","q8zqx53un1bq3sk",989,"104.csv","","null","resources/maskTrios/BBA3.jpg","null","",NA,NA,NA,NA,""
"image-keyboard-response",421,445309,"0.0-3.136-2.136","q8zqx53un1bq3sk",989,"104.csv","","null","resources/images/fishbone.png","null","",NA,NA,NA,NA,""
"image-keyboard-response",422,448150,"0.0-3.137-0.137","q8zqx53un1bq3sk",989,"104.csv","","2840","resources/trios/L2T2A3.jpg","39","restless",0.5,0.6,0.8,0.585271521438296,"true"
"image-keyboard-response",423,448552,"0.0-3.137-1.137","q8zqx53un1bq3sk",989,"104.csv","","null","resources/maskTrios/BBA3.jpg","null","",NA,NA,NA,NA,""
"image-keyboard-response",424,449754,"0.0-3.137-2.137","q8zqx53un1bq3sk",989,"104.csv","","null","resources/images/coin2.png","null","",NA,NA,NA,NA,""
"image-keyboard-response",425,450767,"0.0-3.138-0.138","q8zqx53un1bq3sk",989,"104.csv","","1010","resources/trios/L2T2A2.jpg","39","restless",0.5,0.6,0.8,0.965484059583026,"false"
"image-keyboard-response",426,451169,"0.0-3.138-1.138","q8zqx53un1bq3sk",989,"104.csv","","null","resources/maskTrios/BBA2.jpg","null","",NA,NA,NA,NA,""
"image-keyboard-response",427,452370,"0.0-3.138-2.138","q8zqx53un1bq3sk",989,"104.csv","","null","resources/images/fishbone.png","null","",NA,NA,NA,NA,""
"image-keyboard-response",428,453292,"0.0-3.139-0.139","q8zqx53un1bq3sk",989,"104.csv","","921","resources/trios/L2T1A2.jpg","39","restless",0.6,0.6,0.8,0.899403308692086,"false"
"image-keyboard-response",429,453694,"0.0-3.139-1.139","q8zqx53un1bq3sk",989,"104.csv","","null","resources/maskTrios/BBA2.jpg","null","",NA,NA,NA,NA,""
"image-keyboard-response",430,454895,"0.0-3.139-2.139","q8zqx53un1bq3sk",989,"104.csv","","null","resources/images/fishbone.png","null","",NA,NA,NA,NA,""
"image-keyboard-response",431,455227,"0.0-3.140-0.140","q8zqx53un1bq3sk",989,"104.csv","","331","resources/trios/L1T2A3.jpg","39","restless",0.5,0.6,0.8,0.38246916494789,"true"
"image-keyboard-response",432,455630,"0.0-3.140-1.140","q8zqx53un1bq3sk",989,"104.csv","","null","resources/maskTrios/BBA3.jpg","null","",NA,NA,NA,NA,""
"image-keyboard-response",433,456832,"0.0-3.140-2.140","q8zqx53un1bq3sk",989,"104.csv","","null","resources/images/coin2.png","null","",NA,NA,NA,NA,""
"image-keyboard-response",434,457419,"0.0-3.141-0.141","q8zqx53un1bq3sk",989,"104.csv","","586","resources/trios/L1T2A3.jpg","39","restless",0.5,0.6,0.8,0.718213532194007,"true"
"image-keyboard-response",435,457820,"0.0-3.141-1.141","q8zqx53un1bq3sk",989,"104.csv","","null","resources/maskTrios/BBA3.jpg","null","",NA,NA,NA,NA,""
"image-keyboard-response",436,459022,"0.0-3.141-2.141","q8zqx53un1bq3sk",989,"104.csv","","null","resources/images/coin2.png","null","",NA,NA,NA,NA,""
"image-keyboard-response",437,459342,"0.0-3.142-0.142","q8zqx53un1bq3sk",989,"104.csv","","319.0000000000582","resources/trios/L1T1A2.jpg","39","restless",0.5,0.6,0.8,0.296685103848879,"true"
"image-keyboard-response",438,459744,"0.0-3.142-1.142","q8zqx53un1bq3sk",989,"104.csv","","null","resources/maskTrios/BBA2.jpg","null","",NA,NA,NA,NA,""
"image-keyboard-response",439,460947,"0.0-3.142-2.142","q8zqx53un1bq3sk",989,"104.csv","","null","resources/images/coin2.png","null","",NA,NA,NA,NA,""
"image-keyboard-response",440,461252,"0.0-3.143-0.143","q8zqx53un1bq3sk",989,"104.csv","","303","resources/trios/L2T1A3.jpg","39","restless",0.5,0.6,0.8,0.453177608726293,"true"
"image-keyboard-response",441,461654,"0.0-3.143-1.143","q8zqx53un1bq3sk",989,"104.csv","","null","resources/maskTrios/BBA3.jpg","null","",NA,NA,NA,NA,""
"image-keyboard-response",442,462856,"0.0-3.143-2.143","q8zqx53un1bq3sk",989,"104.csv","","null","resources/images/coin2.png","null","",NA,NA,NA,NA,""
"image-keyboard-response",443,464624,"0.0-3.144-0.144","q8zqx53un1bq3sk",989,"104.csv","","1763.0000000000582","resources/trios/L2T1A2.jpg","39","restless",0.5,0.6,0.8,0.137777246369118,"true"
"image-keyboard-response",444,465026,"0.0-3.144-1.144","q8zqx53un1bq3sk",989,"104.csv","","null","resources/maskTrios/BBA2.jpg","null","",NA,NA,NA,NA,""
"image-keyboard-response",445,466228,"0.0-3.144-2.144","q8zqx53un1bq3sk",989,"104.csv","","null","resources/images/coin2.png","null","",NA,NA,NA,NA,""
"image-keyboard-response",446,467264,"0.0-3.145-0.145","q8zqx53un1bq3sk",989,"104.csv","","1035","resources/trios/L1T2A2.jpg","39","restless",0.5,0.6,0.8,0.26125638167325,"true"
"image-keyboard-response",447,467666,"0.0-3.145-1.145","q8zqx53un1bq3sk",989,"104.csv","","null","resources/maskTrios/BBA2.jpg","null","",NA,NA,NA,NA,""
"image-keyboard-response",448,468867,"0.0-3.145-2.145","q8zqx53un1bq3sk",989,"104.csv","","null","resources/images/coin2.png","null","",NA,NA,NA,NA,""
"image-keyboard-response",449,469707,"0.0-3.146-0.146","q8zqx53un1bq3sk",989,"104.csv","","838","resources/trios/L1T2A3.jpg","39","restless",0.5,0.6,0.8,0.160330142270904,"true"
"image-keyboard-response",450,470109,"0.0-3.146-1.146","q8zqx53un1bq3sk",989,"104.csv","","null","resources/maskTrios/BBA3.jpg","null","",NA,NA,NA,NA,""
"image-keyboard-response",451,471312,"0.0-3.146-2.146","q8zqx53un1bq3sk",989,"104.csv","","null","resources/images/coin2.png","null","",NA,NA,NA,NA,""
"image-keyboard-response",452,473800,"0.0-3.147-0.147","q8zqx53un1bq3sk",989,"104.csv","","2485.999999999942","resources/trios/L1T1A2.jpg","38","restless",0.6,0.6,0.8,0.115147008976264,"true"
"image-keyboard-response",453,474202,"0.0-3.147-1.147","q8zqx53un1bq3sk",989,"104.csv","","null","resources/maskTrios/BT1B.jpg","null","",NA,NA,NA,NA,""
"image-keyboard-response",454,475404,"0.0-3.147-2.147","q8zqx53un1bq3sk",989,"104.csv","","null","resources/images/coin2.png","null","",NA,NA,NA,NA,""
"image-keyboard-response",455,476418,"0.0-3.148-0.148","q8zqx53un1bq3sk",989,"104.csv","","1012","resources/trios/L2T1A3.jpg","38","restless",0.6,0.6,0.8,0.61946128919612,"false"
"image-keyboard-response",456,476820,"0.0-3.148-1.148","q8zqx53un1bq3sk",989,"104.csv","","null","resources/maskTrios/BT1B.jpg","null","",NA,NA,NA,NA,""
"image-keyboard-response",457,478023,"0.0-3.148-2.148","q8zqx53un1bq3sk",989,"104.csv","","null","resources/images/fishbone.png","null","",NA,NA,NA,NA,""
"image-keyboard-response",458,480239,"0.0-3.149-0.149","q8zqx53un1bq3sk",989,"104.csv","","2215","resources/trios/L2T1A2.jpg","38","restless",0.6,0.6,0.7,0.31389957401775,"true"
"image-keyboard-response",459,480641,"0.0-3.149-1.149","q8zqx53un1bq3sk",989,"104.csv","","null","resources/maskTrios/BT1B.jpg","null","",NA,NA,NA,NA,""
"image-keyboard-response",460,481844,"0.0-3.149-2.149","q8zqx53un1bq3sk",989,"104.csv","","null","resources/images/coin2.png","null","",NA,NA,NA,NA,""
"image-keyboard-response",461,483705,"0.0-3.150-0.150","q8zqx53un1bq3sk",989,"104.csv","","1860","resources/trios/L1T1A2.jpg","38","restless",0.6,0.6,0.7,0.0460190839549464,"true"
"image-keyboard-response",462,484107,"0.0-3.150-1.150","q8zqx53un1bq3sk",989,"104.csv","","null","resources/maskTrios/BT1B.jpg","null","",NA,NA,NA,NA,""
"image-keyboard-response",463,485313,"0.0-3.150-2.150","q8zqx53un1bq3sk",989,"104.csv","","null","resources/images/coin2.png","null","",NA,NA,NA,NA,""
"image-keyboard-response",464,487587,"0.0-3.151-0.151","q8zqx53un1bq3sk",989,"104.csv","","2271.999999999942","resources/trios/L1T2A2.jpg","37","restless",0.6,0.5,0.7,0.177475839745609,"true"
"image-keyboard-response",465,487988,"0.0-3.151-1.151","q8zqx53un1bq3sk",989,"104.csv","","null","resources/maskTrios/L1BB.jpg","null","",NA,NA,NA,NA,""
"image-keyboard-response",466,489191,"0.0-3.151-2.151","q8zqx53un1bq3sk",989,"104.csv","","null","resources/images/coin2.png","null","",NA,NA,NA,NA,""
"image-keyboard-response",467,490181,"0.0-3.152-0.152","q8zqx53un1bq3sk",989,"104.csv","","989","resources/trios/L1T1A3.jpg","37","restless",0.6,0.5,0.7,0.364606934418934,"true"
"image-keyboard-response",468,490583,"0.0-3.152-1.152","q8zqx53un1bq3sk",989,"104.csv","","null","resources/maskTrios/L1BB.jpg","null","",NA,NA,NA,NA,""
"image-keyboard-response",469,491786,"0.0-3.152-2.152","q8zqx53un1bq3sk",989,"104.csv","","null","resources/images/coin2.png","null","",NA,NA,NA,NA,""
"image-keyboard-response",470,495003,"0.0-3.153-0.153","q8zqx53un1bq3sk",989,"104.csv","","3216","resources/trios/L2T1A3.jpg","38","restless",0.6,0.5,0.7,0.0442358988451842,"true"
"image-keyboard-response",471,495407,"0.0-3.153-1.153","q8zqx53un1bq3sk",989,"104.csv","","null","resources/maskTrios/BT1B.jpg","null","",NA,NA,NA,NA,""
"image-keyboard-response",472,496608,"0.0-3.153-2.153","q8zqx53un1bq3sk",989,"104.csv","","null","resources/images/coin2.png","null","",NA,NA,NA,NA,""
"image-keyboard-response",473,499251,"0.0-3.154-0.154","q8zqx53un1bq3sk",989,"104.csv","","2642","resources/trios/L1T2A2.jpg","38","restless",0.7,0.5,0.8,0.870043219399985,"false"
"image-keyboard-response",474,499654,"0.0-3.154-1.154","q8zqx53un1bq3sk",989,"104.csv","","null","resources/maskTrios/BT2B.jpg","null","",NA,NA,NA,NA,""
"image-keyboard-response",475,500856,"0.0-3.154-2.154","q8zqx53un1bq3sk",989,"104.csv","","null","resources/images/fishbone.png","null","",NA,NA,NA,NA,""
"image-keyboard-response",476,502222,"0.0-3.155-0.155","q8zqx53un1bq3sk",989,"104.csv","","1364","resources/trios/L2T1A3.jpg","39","restless",0.7,0.5,0.8,0.046606103467306,"true"
"image-keyboard-response",477,502623,"0.0-3.155-1.155","q8zqx53un1bq3sk",989,"104.csv","","null","resources/maskTrios/BBA3.jpg","null","",NA,NA,NA,NA,""
"image-keyboard-response",478,503827,"0.0-3.155-2.155","q8zqx53un1bq3sk",989,"104.csv","","null","resources/images/coin2.png","null","",NA,NA,NA,NA,""
"image-keyboard-response",479,504447,"0.0-3.156-0.156","q8zqx53un1bq3sk",989,"104.csv","","619.0000000000582","resources/trios/L1T1A3.jpg","38","restless",0.7,0.5,0.8,0.957969905257667,"false"
"image-keyboard-response",480,504849,"0.0-3.156-1.156","q8zqx53un1bq3sk",989,"104.csv","","null","resources/maskTrios/BT1B.jpg","null","",NA,NA,NA,NA,""
"image-keyboard-response",481,506050,"0.0-3.156-2.156","q8zqx53un1bq3sk",989,"104.csv","","null","resources/images/fishbone.png","null","",NA,NA,NA,NA,""
"image-keyboard-response",482,506128,"0.0-3.157-0.157","q8zqx53un1bq3sk",989,"104.csv","","76","resources/trios/L2T1A3.jpg","38","restless",0.7,0.5,0.8,0.981232777848944,"false"
"image-keyboard-response",483,506530,"0.0-3.157-1.157","q8zqx53un1bq3sk",989,"104.csv","","null","resources/maskTrios/BT1B.jpg","null","",NA,NA,NA,NA,""
"image-keyboard-response",484,507732,"0.0-3.157-2.157","q8zqx53un1bq3sk",989,"104.csv","","null","resources/images/fishbone.png","null","",NA,NA,NA,NA,""
"image-keyboard-response",485,507934,"0.0-3.158-0.158","q8zqx53un1bq3sk",989,"104.csv","","200.0000000000582","resources/trios/L1T2A3.jpg","38","restless",0.7,0.5,0.8,0.882400674378785,"false"
"image-keyboard-response",486,508336,"0.0-3.158-1.158","q8zqx53un1bq3sk",989,"104.csv","","null","resources/maskTrios/BT2B.jpg","null","",NA,NA,NA,NA,""
"image-keyboard-response",487,509538,"0.0-3.158-2.158","q8zqx53un1bq3sk",989,"104.csv","","null","resources/images/fishbone.png","null","",NA,NA,NA,NA,""
"image-keyboard-response",488,510002,"0.0-3.159-0.159","q8zqx53un1bq3sk",989,"104.csv","","463.0000000001164","resources/trios/L1T1A3.jpg","37","restless",0.7,0.5,0.9,0.810517377072635,"false"
"image-keyboard-response",489,510404,"0.0-3.159-1.159","q8zqx53un1bq3sk",989,"104.csv","","null","resources/maskTrios/L1BB.jpg","null","",NA,NA,NA,NA,""
"image-keyboard-response",490,511605,"0.0-3.159-2.159","q8zqx53un1bq3sk",989,"104.csv","","null","resources/images/fishbone.png","null","",NA,NA,NA,NA,""
"image-keyboard-response",491,515222,"0.0-3.160-0.160","q8zqx53un1bq3sk",989,"104.csv","","3614.9999999998836","resources/trios/L1T2A3.jpg","37","restless",0.7,0.5,0.9,0.709428097793351,"false"
"image-keyboard-response",492,515624,"0.0-3.160-1.160","q8zqx53un1bq3sk",989,"104.csv","","null","resources/maskTrios/L1BB.jpg","null","",NA,NA,NA,NA,""
"image-keyboard-response",493,516826,"0.0-3.160-2.160","q8zqx53un1bq3sk",989,"104.csv","","null","resources/images/fishbone.png","null","",NA,NA,NA,NA,""
"image-keyboard-response",494,517052,"0.0-3.161-0.161","q8zqx53un1bq3sk",989,"104.csv","","220","resources/trios/L2T1A2.jpg","37","restless",0.7,0.5,0.9,0.0869465003386708,"true"
"image-keyboard-response",495,517454,"0.0-3.161-1.161","q8zqx53un1bq3sk",989,"104.csv","","null","resources/maskTrios/L2BB.jpg","null","",NA,NA,NA,NA,""
"image-keyboard-response",496,518657,"0.0-3.161-2.161","q8zqx53un1bq3sk",989,"104.csv","","null","resources/images/coin2.png","null","",NA,NA,NA,NA,""
"image-keyboard-response",497,527572,"0.0-3.162-0.162","q8zqx53un1bq3sk",989,"104.csv","","8913","resources/trios/L2T1A3.jpg","39","restless",0.7,0.5,0.9,0.0986578646743835,"true"
"image-keyboard-response",498,527974,"0.0-3.162-1.162","q8zqx53un1bq3sk",989,"104.csv","","null","resources/maskTrios/BBA3.jpg","null","",NA,NA,NA,NA,""
"image-keyboard-response",499,529177,"0.0-3.162-2.162","q8zqx53un1bq3sk",989,"104.csv","","null","resources/images/coin2.png","null","",NA,NA,NA,NA,""
"image-keyboard-response",500,529791,"0.0-3.163-0.163","q8zqx53un1bq3sk",989,"104.csv","","611","resources/trios/L1T1A3.jpg","39","restless",0.7,0.5,0.9,0.287934680965296,"true"
"image-keyboard-response",501,530193,"0.0-3.163-1.163","q8zqx53un1bq3sk",989,"104.csv","","null","resources/maskTrios/BBA3.jpg","null","",NA,NA,NA,NA,""
"image-keyboard-response",502,531395,"0.0-3.163-2.163","q8zqx53un1bq3sk",989,"104.csv","","null","resources/images/coin2.png","null","",NA,NA,NA,NA,""
"image-keyboard-response",503,545417,"0.0-3.164-0.164","q8zqx53un1bq3sk",989,"104.csv","","14020","resources/trios/L1T1A3.jpg","39","restless",0.7,0.5,0.9,0.145052382545029,"true"
"image-keyboard-response",504,545819,"0.0-3.164-1.164","q8zqx53un1bq3sk",989,"104.csv","","null","resources/maskTrios/BBA3.jpg","null","",NA,NA,NA,NA,""
"image-keyboard-response",505,547022,"0.0-3.164-2.164","q8zqx53un1bq3sk",989,"104.csv","","null","resources/images/coin2.png","null","",NA,NA,NA,NA,""
"image-keyboard-response",506,547099,"0.0-3.165-0.165","q8zqx53un1bq3sk",989,"104.csv","","75","resources/trios/L2T2A2.jpg","39","restless",0.7,0.5,0.9,0.894228683145054,"true"
"image-keyboard-response",507,547502,"0.0-3.165-1.165","q8zqx53un1bq3sk",989,"104.csv","","null","resources/maskTrios/BBA2.jpg","null","",NA,NA,NA,NA,""
"image-keyboard-response",508,548704,"0.0-3.165-2.165","q8zqx53un1bq3sk",989,"104.csv","","null","resources/images/coin2.png","null","",NA,NA,NA,NA,""
"image-keyboard-response",509,548914,"0.0-3.166-0.166","q8zqx53un1bq3sk",989,"104.csv","","209","resources/trios/L1T2A2.jpg","39","restless",0.7,0.5,0.9,0.710026585857563,"true"
"image-keyboard-response",510,549315,"0.0-3.166-1.166","q8zqx53un1bq3sk",989,"104.csv","","null","resources/maskTrios/BBA2.jpg","null","",NA,NA,NA,NA,""
"image-keyboard-response",511,550518,"0.0-3.166-2.166","q8zqx53un1bq3sk",989,"104.csv","","null","resources/images/coin2.png","null","",NA,NA,NA,NA,""
"image-keyboard-response",512,551514,"0.0-3.167-0.167","q8zqx53un1bq3sk",989,"104.csv","","995","resources/trios/L1T2A2.jpg","38","restless",0.7,0.5,0.9,0.316230725876522,"true"
"image-keyboard-response",513,551916,"0.0-3.167-1.167","q8zqx53un1bq3sk",989,"104.csv","","null","resources/maskTrios/BT2B.jpg","null","",NA,NA,NA,NA,""
"image-keyboard-response",514,553117,"0.0-3.167-2.167","q8zqx53un1bq3sk",989,"104.csv","","null","resources/images/coin2.png","null","",NA,NA,NA,NA,""
"image-keyboard-response",515,553499,"0.0-3.168-0.168","q8zqx53un1bq3sk",989,"104.csv","","381","resources/trios/L2T1A2.jpg","38","restless",0.7,0.5,0.8,0.301648948235726,"true"
"image-keyboard-response",516,553902,"0.0-3.168-1.168","q8zqx53un1bq3sk",989,"104.csv","","null","resources/maskTrios/BT1B.jpg","null","",NA,NA,NA,NA,""
"image-keyboard-response",517,555104,"0.0-3.168-2.168","q8zqx53un1bq3sk",989,"104.csv","","null","resources/images/coin2.png","null","",NA,NA,NA,NA,""
"image-keyboard-response",518,557120,"0.0-3.169-0.169","q8zqx53un1bq3sk",989,"104.csv","","2015","resources/trios/L2T1A3.jpg","38","restless",0.6,0.5,0.8,0.311181181608113,"true"
"image-keyboard-response",519,557522,"0.0-3.169-1.169","q8zqx53un1bq3sk",989,"104.csv","","null","resources/maskTrios/BT1B.jpg","null","",NA,NA,NA,NA,""
"image-keyboard-response",520,558725,"0.0-3.169-2.169","q8zqx53un1bq3sk",989,"104.csv","","null","resources/images/coin2.png","null","",NA,NA,NA,NA,""
"image-keyboard-response",521,558888,"0.0-3.170-0.170","q8zqx53un1bq3sk",989,"104.csv","","159.99999999988358","resources/trios/L2T1A3.jpg","39","restless",0.6,0.5,0.8,0.491565699024247,"true"
"image-keyboard-response",522,559291,"0.0-3.170-1.170","q8zqx53un1bq3sk",989,"104.csv","","null","resources/maskTrios/BBA3.jpg","null","",NA,NA,NA,NA,""
"image-keyboard-response",523,560493,"0.0-3.170-2.170","q8zqx53un1bq3sk",989,"104.csv","","null","resources/images/coin2.png","null","",NA,NA,NA,NA,""
"image-keyboard-response",524,563797,"0.0-3.171-0.171","q8zqx53un1bq3sk",989,"104.csv","","3303","resources/trios/L2T2A3.jpg","39","restless",0.6,0.5,0.8,0.101352833662252,"true"
"image-keyboard-response",525,564199,"0.0-3.171-1.171","q8zqx53un1bq3sk",989,"104.csv","","null","resources/maskTrios/BBA3.jpg","null","",NA,NA,NA,NA,""
"image-keyboard-response",526,565401,"0.0-3.171-2.171","q8zqx53un1bq3sk",989,"104.csv","","null","resources/images/coin2.png","null","",NA,NA,NA,NA,""
"image-keyboard-response",527,565681,"0.0-3.172-0.172","q8zqx53un1bq3sk",989,"104.csv","","278","resources/trios/L1T1A2.jpg","39","restless",0.6,0.5,0.8,0.436738347905175,"true"
"image-keyboard-response",528,566084,"0.0-3.172-1.172","q8zqx53un1bq3sk",989,"104.csv","","null","resources/maskTrios/BBA2.jpg","null","",NA,NA,NA,NA,""
"image-keyboard-response",529,567286,"0.0-3.172-2.172","q8zqx53un1bq3sk",989,"104.csv","","null","resources/images/coin2.png","null","",NA,NA,NA,NA,""
"image-keyboard-response",530,570663,"0.0-3.173-0.173","q8zqx53un1bq3sk",989,"104.csv","","3376.9999999998836","resources/trios/L1T2A3.jpg","39","restless",0.6,0.5,0.8,0.488503849401047,"true"
"image-keyboard-response",531,571065,"0.0-3.173-1.173","q8zqx53un1bq3sk",989,"104.csv","","null","resources/maskTrios/BBA3.jpg","null","",NA,NA,NA,NA,""
"image-keyboard-response",532,572267,"0.0-3.173-2.173","q8zqx53un1bq3sk",989,"104.csv","","null","resources/images/coin2.png","null","",NA,NA,NA,NA,""
"image-keyboard-response",533,572417,"0.0-3.174-0.174","q8zqx53un1bq3sk",989,"104.csv","","148","resources/trios/L2T1A2.jpg","39","restless",0.6,0.5,0.8,0.0447213839165592,"true"
"image-keyboard-response",534,572820,"0.0-3.174-1.174","q8zqx53un1bq3sk",989,"104.csv","","null","resources/maskTrios/BBA2.jpg","null","",NA,NA,NA,NA,""
"image-keyboard-response",535,574022,"0.0-3.174-2.174","q8zqx53un1bq3sk",989,"104.csv","","null","resources/images/coin2.png","null","",NA,NA,NA,NA,""
"image-keyboard-response",536,574650,"0.0-3.175-0.175","q8zqx53un1bq3sk",989,"104.csv","","627","resources/trios/L1T2A2.jpg","39","restless",0.6,0.5,0.7,0.141228791703474,"true"
"image-keyboard-response",537,575051,"0.0-3.175-1.175","q8zqx53un1bq3sk",989,"104.csv","","null","resources/maskTrios/BBA2.jpg","null","",NA,NA,NA,NA,""
"image-keyboard-response",538,576254,"0.0-3.175-2.175","q8zqx53un1bq3sk",989,"104.csv","","null","resources/images/coin2.png","null","",NA,NA,NA,NA,""
"image-keyboard-response",539,577565,"0.0-3.176-0.176","q8zqx53un1bq3sk",989,"104.csv","","1306.9999999998836","resources/trios/L1T1A2.jpg","39","restless",0.6,0.5,0.7,0.240949685600214,"true"
"image-keyboard-response",540,577968,"0.0-3.176-1.176","q8zqx53un1bq3sk",989,"104.csv","","null","resources/maskTrios/BBA2.jpg","null","",NA,NA,NA,NA,""
"image-keyboard-response",541,579170,"0.0-3.176-2.176","q8zqx53un1bq3sk",989,"104.csv","","null","resources/images/coin2.png","null","",NA,NA,NA,NA,""
"image-keyboard-response",542,580028,"0.0-3.177-0.177","q8zqx53un1bq3sk",989,"104.csv","","856","resources/trios/L1T2A3.jpg","38","restless",0.6,0.5,0.7,0.762694571134854,"false"
"image-keyboard-response",543,580431,"0.0-3.177-1.177","q8zqx53un1bq3sk",989,"104.csv","","null","resources/maskTrios/BT2B.jpg","null","",NA,NA,NA,NA,""
"image-keyboard-response",544,581632,"0.0-3.177-2.177","q8zqx53un1bq3sk",989,"104.csv","","null","resources/images/fishbone.png","null","",NA,NA,NA,NA,""
"image-keyboard-response",545,582018,"0.0-3.178-0.178","q8zqx53un1bq3sk",989,"104.csv","","384","resources/trios/L2T2A3.jpg","37","restless",0.5,0.5,0.7,0.116375486267594,"true"
"image-keyboard-response",546,582420,"0.0-3.178-1.178","q8zqx53un1bq3sk",989,"104.csv","","null","resources/maskTrios/L2BB.jpg","null","",NA,NA,NA,NA,""
"image-keyboard-response",547,583624,"0.0-3.178-2.178","q8zqx53un1bq3sk",989,"104.csv","","null","resources/images/coin2.png","null","",NA,NA,NA,NA,""
"image-keyboard-response",548,583857,"0.0-3.179-0.179","q8zqx53un1bq3sk",989,"104.csv","","231","resources/trios/L1T1A2.jpg","39","restless",0.5,0.5,0.7,0.561395723820078,"true"
"image-keyboard-response",549,584260,"0.0-3.179-1.179","q8zqx53un1bq3sk",989,"104.csv","","null","resources/maskTrios/BBA2.jpg","null","",NA,NA,NA,NA,""
"image-keyboard-response",550,585462,"0.0-3.179-2.179","q8zqx53un1bq3sk",989,"104.csv","","null","resources/images/coin2.png","null","",NA,NA,NA,NA,""
"image-keyboard-response",551,585549,"0.0-3.180-0.180","q8zqx53un1bq3sk",989,"104.csv","","85","resources/trios/L2T2A3.jpg","38","restless",0.5,0.4,0.7,0.773395926345776,"false"
"image-keyboard-response",552,585952,"0.0-3.180-1.180","q8zqx53un1bq3sk",989,"104.csv","","null","resources/maskTrios/BT2B.jpg","null","",NA,NA,NA,NA,""
"image-keyboard-response",553,587154,"0.0-3.180-2.180","q8zqx53un1bq3sk",989,"104.csv","","null","resources/images/fishbone.png","null","",NA,NA,NA,NA,""
"image-keyboard-response",554,588006,"0.0-3.181-0.181","q8zqx53un1bq3sk",989,"104.csv","","851","resources/trios/L1T1A2.jpg","38","restless",0.5,0.3,0.6,0.772435856550349,"false"
"image-keyboard-response",555,588408,"0.0-3.181-1.181","q8zqx53un1bq3sk",989,"104.csv","","null","resources/maskTrios/BT1B.jpg","null","",NA,NA,NA,NA,""
"image-keyboard-response",556,589611,"0.0-3.181-2.181","q8zqx53un1bq3sk",989,"104.csv","","null","resources/images/fishbone.png","null","",NA,NA,NA,NA,""
"image-keyboard-response",557,591611,"0.0-3.182-0.182","q8zqx53un1bq3sk",989,"104.csv","","1999","resources/trios/L2T1A3.jpg","38","restless",0.5,0.3,0.6,0.173402885137192,"true"
"image-keyboard-response",558,592014,"0.0-3.182-1.182","q8zqx53un1bq3sk",989,"104.csv","","null","resources/maskTrios/BT1B.jpg","null","",NA,NA,NA,NA,""
"image-keyboard-response",559,593216,"0.0-3.182-2.182","q8zqx53un1bq3sk",989,"104.csv","","null","resources/images/coin2.png","null","",NA,NA,NA,NA,""
"image-keyboard-response",560,594239,"0.0-3.183-0.183","q8zqx53un1bq3sk",989,"104.csv","","1021","resources/trios/L1T1A3.jpg","37","restless",0.5,0.3,0.6,0.753072807936771,"false"
"image-keyboard-response",561,594640,"0.0-3.183-1.183","q8zqx53un1bq3sk",989,"104.csv","","null","resources/maskTrios/L1BB.jpg","null","",NA,NA,NA,NA,""
"image-keyboard-response",562,595841,"0.0-3.183-2.183","q8zqx53un1bq3sk",989,"104.csv","","null","resources/images/fishbone.png","null","",NA,NA,NA,NA,""
"image-keyboard-response",563,597281,"0.0-3.184-0.184","q8zqx53un1bq3sk",989,"104.csv","","1439","resources/trios/L2T2A3.jpg","37","restless",0.5,0.3,0.6,0.332910390381384,"true"
"image-keyboard-response",564,597683,"0.0-3.184-1.184","q8zqx53un1bq3sk",989,"104.csv","","null","resources/maskTrios/L2BB.jpg","null","",NA,NA,NA,NA,""
"image-keyboard-response",565,598885,"0.0-3.184-2.184","q8zqx53un1bq3sk",989,"104.csv","","null","resources/images/coin2.png","null","",NA,NA,NA,NA,""
"image-keyboard-response",566,600370,"0.0-3.185-0.185","q8zqx53un1bq3sk",989,"104.csv","","1480.9999999998836","resources/trios/L2T2A3.jpg","38","restless",0.5,0.3,0.6,0.247277053264815,"true"
"image-keyboard-response",567,600772,"0.0-3.185-1.185","q8zqx53un1bq3sk",989,"104.csv","","null","resources/maskTrios/BT2B.jpg","null","",NA,NA,NA,NA,""
"image-keyboard-response",568,601975,"0.0-3.185-2.185","q8zqx53un1bq3sk",989,"104.csv","","null","resources/images/coin2.png","null","",NA,NA,NA,NA,""
"image-keyboard-response",569,606442,"0.0-3.186-0.186","q8zqx53un1bq3sk",989,"104.csv","","4467","resources/trios/L1T1A2.jpg","38","restless",0.5,0.3,0.6,0.377132276069015,"false"
"image-keyboard-response",570,606845,"0.0-3.186-1.186","q8zqx53un1bq3sk",989,"104.csv","","null","resources/maskTrios/BT1B.jpg","null","",NA,NA,NA,NA,""
"image-keyboard-response",571,608047,"0.0-3.186-2.186","q8zqx53un1bq3sk",989,"104.csv","","null","resources/images/fishbone.png","null","",NA,NA,NA,NA,""
"image-keyboard-response",572,608352,"0.0-3.187-0.187","q8zqx53un1bq3sk",989,"104.csv","","304","resources/trios/L1T1A2.jpg","39","restless",0.5,0.3,0.6,0.00275489485026092,"true"
"image-keyboard-response",573,608754,"0.0-3.187-1.187","q8zqx53un1bq3sk",989,"104.csv","","null","resources/maskTrios/BBA2.jpg","null","",NA,NA,NA,NA,""
"image-keyboard-response",574,609957,"0.0-3.187-2.187","q8zqx53un1bq3sk",989,"104.csv","","null","resources/images/coin2.png","null","",NA,NA,NA,NA,""
"image-keyboard-response",575,613866,"0.0-3.188-0.188","q8zqx53un1bq3sk",989,"104.csv","","3907","resources/trios/L1T2A2.jpg","38","restless",0.5,0.3,0.6,0.467731412050357,"false"
"image-keyboard-response",576,614268,"0.0-3.188-1.188","q8zqx53un1bq3sk",989,"104.csv","","null","resources/maskTrios/BT2B.jpg","null","",NA,NA,NA,NA,""
"image-keyboard-response",577,615471,"0.0-3.188-2.188","q8zqx53un1bq3sk",989,"104.csv","","null","resources/images/fishbone.png","null","",NA,NA,NA,NA,""
"image-keyboard-response",578,615512,"0.0-3.189-0.189","q8zqx53un1bq3sk",989,"104.csv","","40","resources/trios/L1T2A3.jpg","38","restless",0.5,0.3,0.6,0.822950451755208,"false"
"image-keyboard-response",579,615914,"0.0-3.189-1.189","q8zqx53un1bq3sk",989,"104.csv","","null","resources/maskTrios/BT2B.jpg","null","",NA,NA,NA,NA,""
"image-keyboard-response",580,617115,"0.0-3.189-2.189","q8zqx53un1bq3sk",989,"104.csv","","null","resources/images/fishbone.png","null","",NA,NA,NA,NA,""
"image-keyboard-response",581,619476,"0.0-3.190-0.190","q8zqx53un1bq3sk",989,"104.csv","","2359","resources/trios/L1T1A2.jpg","39","restless",0.5,0.3,0.6,0.920245682240094,"false"
"image-keyboard-response",582,619878,"0.0-3.190-1.190","q8zqx53un1bq3sk",989,"104.csv","","null","resources/maskTrios/BBA2.jpg","null","",NA,NA,NA,NA,""
"image-keyboard-response",583,621080,"0.0-3.190-2.190","q8zqx53un1bq3sk",989,"104.csv","","null","resources/images/fishbone.png","null","",NA,NA,NA,NA,""
"image-keyboard-response",584,621424,"0.0-3.191-0.191","q8zqx53un1bq3sk",989,"104.csv","","342.9999999998836","resources/trios/L1T2A3.jpg","38","restless",0.5,0.3,0.6,0.835612220509756,"false"
"image-keyboard-response",585,621826,"0.0-3.191-1.191","q8zqx53un1bq3sk",989,"104.csv","","null","resources/maskTrios/BT2B.jpg","null","",NA,NA,NA,NA,""
"image-keyboard-response",586,623029,"0.0-3.191-2.191","q8zqx53un1bq3sk",989,"104.csv","","null","resources/images/fishbone.png","null","",NA,NA,NA,NA,""
"image-keyboard-response",587,626828,"0.0-3.192-0.192","q8zqx53un1bq3sk",989,"104.csv","","3797","resources/trios/L1T1A3.jpg","37","restless",0.5,0.2,0.6,0.624679658964277,"false"
"image-keyboard-response",588,627231,"0.0-3.192-1.192","q8zqx53un1bq3sk",989,"104.csv","","null","resources/maskTrios/L1BB.jpg","null","",NA,NA,NA,NA,""
"image-keyboard-response",589,628433,"0.0-3.192-2.192","q8zqx53un1bq3sk",989,"104.csv","","null","resources/images/fishbone.png","null","",NA,NA,NA,NA,""
"image-keyboard-response",590,628772,"0.0-3.193-0.193","q8zqx53un1bq3sk",989,"104.csv","","337","resources/trios/L2T1A3.jpg","37","restless",0.6,0.2,0.6,0.44004978895456,"true"
"image-keyboard-response",591,629173,"0.0-3.193-1.193","q8zqx53un1bq3sk",989,"104.csv","","null","resources/maskTrios/L2BB.jpg","null","",NA,NA,NA,NA,""
"image-keyboard-response",592,630376,"0.0-3.193-2.193","q8zqx53un1bq3sk",989,"104.csv","","null","resources/images/coin2.png","null","",NA,NA,NA,NA,""
"image-keyboard-response",593,633381,"0.0-3.194-0.194","q8zqx53un1bq3sk",989,"104.csv","","3003","resources/trios/L2T2A2.jpg","39","restless",0.6,0.2,0.5,0.630050565003405,"false"
"image-keyboard-response",594,633783,"0.0-3.194-1.194","q8zqx53un1bq3sk",989,"104.csv","","null","resources/maskTrios/BBA2.jpg","null","",NA,NA,NA,NA,""
"image-keyboard-response",595,634986,"0.0-3.194-2.194","q8zqx53un1bq3sk",989,"104.csv","","null","resources/images/fishbone.png","null","",NA,NA,NA,NA,""
"image-keyboard-response",596,635909,"0.0-3.195-0.195","q8zqx53un1bq3sk",989,"104.csv","","922.0000000001164","resources/trios/L2T1A2.jpg","38","restless",0.6,0.2,0.5,0.0614451738210892,"true"
"image-keyboard-response",597,636311,"0.0-3.195-1.195","q8zqx53un1bq3sk",989,"104.csv","","null","resources/maskTrios/BT1B.jpg","null","",NA,NA,NA,NA,""
"image-keyboard-response",598,637514,"0.0-3.195-2.195","q8zqx53un1bq3sk",989,"104.csv","","null","resources/images/coin2.png","null","",NA,NA,NA,NA,""
"image-keyboard-response",599,640574,"0.0-3.196-0.196","q8zqx53un1bq3sk",989,"104.csv","","3058.9999999998836","resources/trios/L1T2A2.jpg","38","restless",0.6,0.1,0.5,0.580759162601303,"false"
"image-keyboard-response",600,640977,"0.0-3.196-1.196","q8zqx53un1bq3sk",989,"104.csv","","null","resources/maskTrios/BT2B.jpg","null","",NA,NA,NA,NA,""
"image-keyboard-response",601,642179,"0.0-3.196-2.196","q8zqx53un1bq3sk",989,"104.csv","","null","resources/images/fishbone.png","null","",NA,NA,NA,NA,""
"image-keyboard-response",602,644816,"0.0-3.197-0.197","q8zqx53un1bq3sk",989,"104.csv","","2635","resources/trios/L2T1A2.jpg","38","restless",0.6,0.1,0.5,0.175490951472561,"false"
"image-keyboard-response",603,645218,"0.0-3.197-1.197","q8zqx53un1bq3sk",989,"104.csv","","null","resources/maskTrios/BT1B.jpg","null","",NA,NA,NA,NA,""
"image-keyboard-response",604,646420,"0.0-3.197-2.197","q8zqx53un1bq3sk",989,"104.csv","","null","resources/images/fishbone.png","null","",NA,NA,NA,NA,""
"image-keyboard-response",605,647116,"0.0-3.198-0.198","q8zqx53un1bq3sk",989,"104.csv","","694.0000000001164","resources/trios/L1T2A2.jpg","38","restless",0.6,0.1,0.5,0.108628601734906,"false"
"image-keyboard-response",606,647518,"0.0-3.198-1.198","q8zqx53un1bq3sk",989,"104.csv","","null","resources/maskTrios/BT2B.jpg","null","",NA,NA,NA,NA,""
"image-keyboard-response",607,648721,"0.0-3.198-2.198","q8zqx53un1bq3sk",989,"104.csv","","null","resources/images/fishbone.png","null","",NA,NA,NA,NA,""
"image-keyboard-response",608,649504,"0.0-3.199-0.199","q8zqx53un1bq3sk",989,"104.csv","","782","resources/trios/L1T2A2.jpg","38","restless",0.5,0.1,0.5,0.313637980045608,"false"
"image-keyboard-response",609,649906,"0.0-3.199-1.199","q8zqx53un1bq3sk",989,"104.csv","","null","resources/maskTrios/BT2B.jpg","null","",NA,NA,NA,NA,""
"image-keyboard-response",610,651107,"0.0-3.199-2.199","q8zqx53un1bq3sk",989,"104.csv","","null","resources/images/fishbone.png","null","",NA,NA,NA,NA,""
"image-keyboard-response",611,656156,"0.0-3.200-0.200","q8zqx53un1bq3sk",989,"104.csv","","5048","resources/trios/L2T1A3.jpg","39","restless",0.4,0.1,0.5,0.970928523870892,"false"
"image-keyboard-response",612,656557,"0.0-3.200-1.200","q8zqx53un1bq3sk",989,"104.csv","","null","resources/maskTrios/BBA3.jpg","null","",NA,NA,NA,NA,""
"image-keyboard-response",613,657759,"0.0-3.200-2.200","q8zqx53un1bq3sk",989,"104.csv","","null","resources/images/fishbone.png","null","",NA,NA,NA,NA,""
"image-keyboard-response",614,662184,"0.0-3.201-0.201","q8zqx53un1bq3sk",989,"104.csv","","4423.999999999884","resources/trios/L1T2A3.jpg","39","restless",0.3,0.1,0.4,0.393608564401686,"true"
"image-keyboard-response",615,662586,"0.0-3.201-1.201","q8zqx53un1bq3sk",989,"104.csv","","null","resources/maskTrios/BBA3.jpg","null","",NA,NA,NA,NA,""
"image-keyboard-response",616,663790,"0.0-3.201-2.201","q8zqx53un1bq3sk",989,"104.csv","","null","resources/images/coin2.png","null","",NA,NA,NA,NA,""
