"trial_type","trial_index","time_elapsed","internal_node_id","subject","participantCode","walkNumber","success","rt","stimulus","key_press","test_part","leftProb","midProb","rightProb","generatedNum","correct"
"pavlovia",0,1976,"0.0-0.0","exjjq2cu8v6fq9s",443,"56.csv","","","","","",NA,NA,NA,NA,""
"fullscreen",1,5317,"0.0-1.0","exjjq2cu8v6fq9s",443,"56.csv","true","","","","",NA,NA,NA,NA,""
"html-keyboard-response",2,15340,"0.0-2.0-0.0","exjjq2cu8v6fq9s",443,"56.csv","","10020","<p><font size='6'>Arrrgh!</p></font><p>Can you be the best pirate? Try to find lots of gold! But beware, some islands have more gold than others, and over time, the island with the most gold may change. Can YOU figure it out? </p><font size='6'>GOOD LUCK, CAPTAIN!!!</font><p>Press any key to begin</p>","32","",NA,NA,NA,NA,""
"image-keyboard-response",3,18343,"0.0-2.0-1.0","exjjq2cu8v6fq9s",443,"56.csv","","null","resources/image_sets/111.png","null","",NA,NA,NA,NA,""
"image-keyboard-response",4,30594,"0.0-2.0-2.0","exjjq2cu8v6fq9s",443,"56.csv","","12247.999999999996","resources/image_sets/left_highlight.png","37","",NA,NA,NA,NA,""
"image-keyboard-response",5,32887,"0.0-2.0-3.0","exjjq2cu8v6fq9s",443,"56.csv","","2291","resources/image_sets/mid_highlight.png","38","",NA,NA,NA,NA,""
"image-keyboard-response",6,34051,"0.0-2.0-4.0","exjjq2cu8v6fq9s",443,"56.csv","","1163","resources/image_sets/right_highlight.png","39","",NA,NA,NA,NA,""
"image-keyboard-response",7,38013,"0.0-2.0-5.0","exjjq2cu8v6fq9s",443,"56.csv","","3960","resources/image_sets/111.png","13","",NA,NA,NA,NA,""
"image-keyboard-response",8,41220,"0.0-2.0-6.0","exjjq2cu8v6fq9s",443,"56.csv","","3205.9999999999927","resources/images/coin2.png","13","",NA,NA,NA,NA,""
"image-keyboard-response",9,44381,"0.0-2.0-7.0","exjjq2cu8v6fq9s",443,"56.csv","","3159","resources/images/fishbone.png","13","",NA,NA,NA,NA,""
"html-keyboard-response",10,51638,"0.0-2.0-8.0","exjjq2cu8v6fq9s",443,"56.csv","","7255","<p>Your first journey will be a long one, but you will get a well deserved break at the end</p><p>After the break you will have four more journeys, but each will be much shorter than the first, and you will have breaks in between each</p><p>Press Enter to begin</p>","13","",NA,NA,NA,NA,""
"image-keyboard-response",11,55709,"0.0-3.0-0.0","exjjq2cu8v6fq9s",443,"56.csv","","4068.0000000000073","resources/trios/L4T1A3.jpg","37","restless",0.9,0.7,0.3,0.513765810876776,"true"
"image-keyboard-response",12,56113,"0.0-3.0-1.0","exjjq2cu8v6fq9s",443,"56.csv","","null","resources/maskTrios/L4BB.jpg","null","",NA,NA,NA,NA,""
"image-keyboard-response",13,57318,"0.0-3.0-2.0","exjjq2cu8v6fq9s",443,"56.csv","","null","resources/images/coin2.png","null","",NA,NA,NA,NA,""
"image-keyboard-response",14,59375,"0.0-3.1-0.1","exjjq2cu8v6fq9s",443,"56.csv","","2053","resources/trios/L4T4A3.jpg","38","restless",0.9,0.8,0.3,0.160284213736698,"true"
"image-keyboard-response",15,59778,"0.0-3.1-1.1","exjjq2cu8v6fq9s",443,"56.csv","","null","resources/maskTrios/BT4B.jpg","null","",NA,NA,NA,NA,""
"image-keyboard-response",16,60982,"0.0-3.1-2.1","exjjq2cu8v6fq9s",443,"56.csv","","null","resources/images/coin2.png","null","",NA,NA,NA,NA,""
"image-keyboard-response",17,62182,"0.0-3.2-0.2","exjjq2cu8v6fq9s",443,"56.csv","","1197","resources/trios/L4T1A1.jpg","37","restless",0.9,0.8,0.3,0.685189702456227,"true"
"image-keyboard-response",18,62585,"0.0-3.2-1.2","exjjq2cu8v6fq9s",443,"56.csv","","null","resources/maskTrios/L4BB.jpg","null","",NA,NA,NA,NA,""
"image-keyboard-response",19,63789,"0.0-3.2-2.2","exjjq2cu8v6fq9s",443,"56.csv","","null","resources/images/coin2.png","null","",NA,NA,NA,NA,""
"image-keyboard-response",20,65267,"0.0-3.3-0.3","exjjq2cu8v6fq9s",443,"56.csv","","1475","resources/trios/L2T4A1.jpg","37","restless",0.9,0.8,0.3,0.634370569657855,"true"
"image-keyboard-response",21,65671,"0.0-3.3-1.3","exjjq2cu8v6fq9s",443,"56.csv","","null","resources/maskTrios/L2BB.jpg","null","",NA,NA,NA,NA,""
"image-keyboard-response",22,66875,"0.0-3.3-2.3","exjjq2cu8v6fq9s",443,"56.csv","","null","resources/images/coin2.png","null","",NA,NA,NA,NA,""
"image-keyboard-response",23,68533,"0.0-3.4-0.4","exjjq2cu8v6fq9s",443,"56.csv","","1655","resources/trios/L4T4A1.jpg","37","restless",0.9,0.8,0.3,0.575270867084744,"true"
"image-keyboard-response",24,68937,"0.0-3.4-1.4","exjjq2cu8v6fq9s",443,"56.csv","","null","resources/maskTrios/L4BB.jpg","null","",NA,NA,NA,NA,""
"image-keyboard-response",25,70141,"0.0-3.4-2.4","exjjq2cu8v6fq9s",443,"56.csv","","null","resources/images/coin2.png","null","",NA,NA,NA,NA,""
"image-keyboard-response",26,71466,"0.0-3.5-0.5","exjjq2cu8v6fq9s",443,"56.csv","","1322","resources/trios/L2T1A3.jpg","37","restless",0.9,0.8,0.3,0.550965555295158,"true"
"image-keyboard-response",27,71868,"0.0-3.5-1.5","exjjq2cu8v6fq9s",443,"56.csv","","null","resources/maskTrios/L2BB.jpg","null","",NA,NA,NA,NA,""
"image-keyboard-response",28,73072,"0.0-3.5-2.5","exjjq2cu8v6fq9s",443,"56.csv","","null","resources/images/coin2.png","null","",NA,NA,NA,NA,""
"image-keyboard-response",29,73960,"0.0-3.6-0.6","exjjq2cu8v6fq9s",443,"56.csv","","884.9999999999854","resources/trios/L2T1A3.jpg","37","restless",0.9,0.8,0.3,0.656177972820242,"true"
"image-keyboard-response",30,74364,"0.0-3.6-1.6","exjjq2cu8v6fq9s",443,"56.csv","","null","resources/maskTrios/L2BB.jpg","null","",NA,NA,NA,NA,""
"image-keyboard-response",31,75567,"0.0-3.6-2.6","exjjq2cu8v6fq9s",443,"56.csv","","null","resources/images/coin2.png","null","",NA,NA,NA,NA,""
"image-keyboard-response",32,76250,"0.0-3.7-0.7","exjjq2cu8v6fq9s",443,"56.csv","","679","resources/trios/L2T4A3.jpg","37","restless",0.9,0.8,0.3,0.652495645944518,"true"
"image-keyboard-response",33,76652,"0.0-3.7-1.7","exjjq2cu8v6fq9s",443,"56.csv","","null","resources/maskTrios/L2BB.jpg","null","",NA,NA,NA,NA,""
"image-keyboard-response",34,77856,"0.0-3.7-2.7","exjjq2cu8v6fq9s",443,"56.csv","","null","resources/images/coin2.png","null","",NA,NA,NA,NA,""
"image-keyboard-response",35,78394,"0.0-3.8-0.8","exjjq2cu8v6fq9s",443,"56.csv","","535","resources/trios/L2T1A1.jpg","37","restless",0.9,0.8,0.3,0.0510374867224898,"true"
"image-keyboard-response",36,78797,"0.0-3.8-1.8","exjjq2cu8v6fq9s",443,"56.csv","","null","resources/maskTrios/L2BB.jpg","null","",NA,NA,NA,NA,""
"image-keyboard-response",37,80001,"0.0-3.8-2.8","exjjq2cu8v6fq9s",443,"56.csv","","null","resources/images/coin2.png","null","",NA,NA,NA,NA,""
"image-keyboard-response",38,81409,"0.0-3.9-0.9","exjjq2cu8v6fq9s",443,"56.csv","","1406","resources/trios/L4T4A3.jpg","37","restless",0.8,0.8,0.3,0.144791993690605,"true"
"image-keyboard-response",39,81812,"0.0-3.9-1.9","exjjq2cu8v6fq9s",443,"56.csv","","null","resources/maskTrios/L4BB.jpg","null","",NA,NA,NA,NA,""
"image-keyboard-response",40,83015,"0.0-3.9-2.9","exjjq2cu8v6fq9s",443,"56.csv","","null","resources/images/coin2.png","null","",NA,NA,NA,NA,""
"image-keyboard-response",41,83598,"0.0-3.10-0.10","exjjq2cu8v6fq9s",443,"56.csv","","580","resources/trios/L4T1A1.jpg","37","restless",0.8,0.8,0.3,0.552726825275905,"true"
"image-keyboard-response",42,84001,"0.0-3.10-1.10","exjjq2cu8v6fq9s",443,"56.csv","","null","resources/maskTrios/L4BB.jpg","null","",NA,NA,NA,NA,""
"image-keyboard-response",43,85204,"0.0-3.10-2.10","exjjq2cu8v6fq9s",443,"56.csv","","null","resources/images/coin2.png","null","",NA,NA,NA,NA,""
"image-keyboard-response",44,85887,"0.0-3.11-0.11","exjjq2cu8v6fq9s",443,"56.csv","","680.9999999999854","resources/trios/L2T1A1.jpg","37","restless",0.8,0.8,0.3,0.723065188509755,"true"
"image-keyboard-response",45,86290,"0.0-3.11-1.11","exjjq2cu8v6fq9s",443,"56.csv","","null","resources/maskTrios/L2BB.jpg","null","",NA,NA,NA,NA,""
"image-keyboard-response",46,87494,"0.0-3.11-2.11","exjjq2cu8v6fq9s",443,"56.csv","","null","resources/images/coin2.png","null","",NA,NA,NA,NA,""
"image-keyboard-response",47,88188,"0.0-3.12-0.12","exjjq2cu8v6fq9s",443,"56.csv","","691","resources/trios/L4T1A3.jpg","37","restless",0.8,0.8,0.3,0.352444741804474,"true"
"image-keyboard-response",48,88592,"0.0-3.12-1.12","exjjq2cu8v6fq9s",443,"56.csv","","null","resources/maskTrios/L4BB.jpg","null","",NA,NA,NA,NA,""
"image-keyboard-response",49,89795,"0.0-3.12-2.12","exjjq2cu8v6fq9s",443,"56.csv","","null","resources/images/coin2.png","null","",NA,NA,NA,NA,""
"image-keyboard-response",50,90371,"0.0-3.13-0.13","exjjq2cu8v6fq9s",443,"56.csv","","571.9999999999854","resources/trios/L4T4A3.jpg","37","restless",0.8,0.8,0.3,0.569425715703881,"true"
"image-keyboard-response",51,90773,"0.0-3.13-1.13","exjjq2cu8v6fq9s",443,"56.csv","","null","resources/maskTrios/L4BB.jpg","null","",NA,NA,NA,NA,""
"image-keyboard-response",52,91976,"0.0-3.13-2.13","exjjq2cu8v6fq9s",443,"56.csv","","null","resources/images/coin2.png","null","",NA,NA,NA,NA,""
"image-keyboard-response",53,92539,"0.0-3.14-0.14","exjjq2cu8v6fq9s",443,"56.csv","","560","resources/trios/L4T4A3.jpg","37","restless",0.8,0.8,0.2,0.346176668636021,"true"
"image-keyboard-response",54,92942,"0.0-3.14-1.14","exjjq2cu8v6fq9s",443,"56.csv","","null","resources/maskTrios/L4BB.jpg","null","",NA,NA,NA,NA,""
"image-keyboard-response",55,94145,"0.0-3.14-2.14","exjjq2cu8v6fq9s",443,"56.csv","","null","resources/images/coin2.png","null","",NA,NA,NA,NA,""
"image-keyboard-response",56,94881,"0.0-3.15-0.15","exjjq2cu8v6fq9s",443,"56.csv","","733","resources/trios/L2T1A3.jpg","37","restless",0.8,0.8,0.2,0.287153812914591,"true"
"image-keyboard-response",57,95285,"0.0-3.15-1.15","exjjq2cu8v6fq9s",443,"56.csv","","null","resources/maskTrios/L2BB.jpg","null","",NA,NA,NA,NA,""
"image-keyboard-response",58,96488,"0.0-3.15-2.15","exjjq2cu8v6fq9s",443,"56.csv","","null","resources/images/coin2.png","null","",NA,NA,NA,NA,""
"image-keyboard-response",59,97053,"0.0-3.16-0.16","exjjq2cu8v6fq9s",443,"56.csv","","563","resources/trios/L2T4A1.jpg","37","restless",0.7,0.8,0.3,0.0407902323653253,"true"
"image-keyboard-response",60,97457,"0.0-3.16-1.16","exjjq2cu8v6fq9s",443,"56.csv","","null","resources/maskTrios/L2BB.jpg","null","",NA,NA,NA,NA,""
"image-keyboard-response",61,98660,"0.0-3.16-2.16","exjjq2cu8v6fq9s",443,"56.csv","","null","resources/images/coin2.png","null","",NA,NA,NA,NA,""
"image-keyboard-response",62,99158,"0.0-3.17-0.17","exjjq2cu8v6fq9s",443,"56.csv","","495","resources/trios/L2T4A3.jpg","37","restless",0.7,0.9,0.3,0.255081467788536,"true"
"image-keyboard-response",63,99562,"0.0-3.17-1.17","exjjq2cu8v6fq9s",443,"56.csv","","null","resources/maskTrios/L2BB.jpg","null","",NA,NA,NA,NA,""
"image-keyboard-response",64,100765,"0.0-3.17-2.17","exjjq2cu8v6fq9s",443,"56.csv","","null","resources/images/coin2.png","null","",NA,NA,NA,NA,""
"image-keyboard-response",65,101152,"0.0-3.18-0.18","exjjq2cu8v6fq9s",443,"56.csv","","383","resources/trios/L2T1A1.jpg","37","restless",0.7,0.9,0.3,0.351368651345344,"true"
"image-keyboard-response",66,101554,"0.0-3.18-1.18","exjjq2cu8v6fq9s",443,"56.csv","","null","resources/maskTrios/L2BB.jpg","null","",NA,NA,NA,NA,""
"image-keyboard-response",67,102757,"0.0-3.18-2.18","exjjq2cu8v6fq9s",443,"56.csv","","null","resources/images/coin2.png","null","",NA,NA,NA,NA,""
"image-keyboard-response",68,103272,"0.0-3.19-0.19","exjjq2cu8v6fq9s",443,"56.csv","","512","resources/trios/L4T1A1.jpg","37","restless",0.7,0.9,0.3,0.238000645870077,"true"
"image-keyboard-response",69,103674,"0.0-3.19-1.19","exjjq2cu8v6fq9s",443,"56.csv","","null","resources/maskTrios/L4BB.jpg","null","",NA,NA,NA,NA,""
"image-keyboard-response",70,104877,"0.0-3.19-2.19","exjjq2cu8v6fq9s",443,"56.csv","","null","resources/images/coin2.png","null","",NA,NA,NA,NA,""
"image-keyboard-response",71,105293,"0.0-3.20-0.20","exjjq2cu8v6fq9s",443,"56.csv","","413","resources/trios/L4T1A1.jpg","37","restless",0.7,0.9,0.3,0.387964763610312,"true"
"image-keyboard-response",72,105696,"0.0-3.20-1.20","exjjq2cu8v6fq9s",443,"56.csv","","null","resources/maskTrios/L4BB.jpg","null","",NA,NA,NA,NA,""
"image-keyboard-response",73,106898,"0.0-3.20-2.20","exjjq2cu8v6fq9s",443,"56.csv","","null","resources/images/coin2.png","null","",NA,NA,NA,NA,""
"image-keyboard-response",74,107949,"0.0-3.21-0.21","exjjq2cu8v6fq9s",443,"56.csv","","1049","resources/trios/L2T1A3.jpg","37","restless",0.6,0.9,0.3,0.739511000436382,"false"
"image-keyboard-response",75,108352,"0.0-3.21-1.21","exjjq2cu8v6fq9s",443,"56.csv","","null","resources/maskTrios/L2BB.jpg","null","",NA,NA,NA,NA,""
"image-keyboard-response",76,109555,"0.0-3.21-2.21","exjjq2cu8v6fq9s",443,"56.csv","","null","resources/images/fishbone.png","null","",NA,NA,NA,NA,""
"image-keyboard-response",77,110250,"0.0-3.22-0.22","exjjq2cu8v6fq9s",443,"56.csv","","692.9999999999854","resources/trios/L4T1A3.jpg","37","restless",0.5,0.9,0.3,0.674231432976845,"false"
"image-keyboard-response",78,110653,"0.0-3.22-1.22","exjjq2cu8v6fq9s",443,"56.csv","","null","resources/maskTrios/L4BB.jpg","null","",NA,NA,NA,NA,""
"image-keyboard-response",79,111856,"0.0-3.22-2.22","exjjq2cu8v6fq9s",443,"56.csv","","null","resources/images/fishbone.png","null","",NA,NA,NA,NA,""
"image-keyboard-response",80,112481,"0.0-3.23-0.23","exjjq2cu8v6fq9s",443,"56.csv","","622","resources/trios/L2T4A3.jpg","37","restless",0.5,0.9,0.3,0.184118030338511,"true"
"image-keyboard-response",81,112883,"0.0-3.23-1.23","exjjq2cu8v6fq9s",443,"56.csv","","null","resources/maskTrios/L2BB.jpg","null","",NA,NA,NA,NA,""
"image-keyboard-response",82,114086,"0.0-3.23-2.23","exjjq2cu8v6fq9s",443,"56.csv","","null","resources/images/coin2.png","null","",NA,NA,NA,NA,""
"image-keyboard-response",83,114574,"0.0-3.24-0.24","exjjq2cu8v6fq9s",443,"56.csv","","484","resources/trios/L2T1A1.jpg","37","restless",0.4,0.9,0.4,0.399508164834447,"true"
"image-keyboard-response",84,114976,"0.0-3.24-1.24","exjjq2cu8v6fq9s",443,"56.csv","","null","resources/maskTrios/L2BB.jpg","null","",NA,NA,NA,NA,""
"image-keyboard-response",85,116182,"0.0-3.24-2.24","exjjq2cu8v6fq9s",443,"56.csv","","null","resources/images/coin2.png","null","",NA,NA,NA,NA,""
"image-keyboard-response",86,116660,"0.0-3.25-0.25","exjjq2cu8v6fq9s",443,"56.csv","","474.99999999998545","resources/trios/L2T1A3.jpg","37","restless",0.4,0.9,0.4,0.760032605509889,"false"
"image-keyboard-response",87,117065,"0.0-3.25-1.25","exjjq2cu8v6fq9s",443,"56.csv","","null","resources/maskTrios/L2BB.jpg","null","",NA,NA,NA,NA,""
"image-keyboard-response",88,118268,"0.0-3.25-2.25","exjjq2cu8v6fq9s",443,"56.csv","","null","resources/images/fishbone.png","null","",NA,NA,NA,NA,""
"image-keyboard-response",89,120084,"0.0-3.26-0.26","exjjq2cu8v6fq9s",443,"56.csv","","1813.0000000000146","resources/trios/L4T1A3.jpg","38","restless",0.4,0.9,0.4,0.819638580569742,"true"
"image-keyboard-response",90,120487,"0.0-3.26-1.26","exjjq2cu8v6fq9s",443,"56.csv","","null","resources/maskTrios/BT1B.jpg","null","",NA,NA,NA,NA,""
"image-keyboard-response",91,121691,"0.0-3.26-2.26","exjjq2cu8v6fq9s",443,"56.csv","","null","resources/images/coin2.png","null","",NA,NA,NA,NA,""
"image-keyboard-response",92,122431,"0.0-3.27-0.27","exjjq2cu8v6fq9s",443,"56.csv","","736.9999999999854","resources/trios/L2T1A1.jpg","38","restless",0.4,0.9,0.4,0.824709386648815,"true"
"image-keyboard-response",93,122834,"0.0-3.27-1.27","exjjq2cu8v6fq9s",443,"56.csv","","null","resources/maskTrios/BT1B.jpg","null","",NA,NA,NA,NA,""
"image-keyboard-response",94,124037,"0.0-3.27-2.27","exjjq2cu8v6fq9s",443,"56.csv","","null","resources/images/coin2.png","null","",NA,NA,NA,NA,""
"image-keyboard-response",95,124562,"0.0-3.28-0.28","exjjq2cu8v6fq9s",443,"56.csv","","522","resources/trios/L4T1A3.jpg","38","restless",0.4,0.8,0.4,0.926316913565527,"false"
"image-keyboard-response",96,124965,"0.0-3.28-1.28","exjjq2cu8v6fq9s",443,"56.csv","","null","resources/maskTrios/BT1B.jpg","null","",NA,NA,NA,NA,""
"image-keyboard-response",97,126168,"0.0-3.28-2.28","exjjq2cu8v6fq9s",443,"56.csv","","null","resources/images/fishbone.png","null","",NA,NA,NA,NA,""
"image-keyboard-response",98,126908,"0.0-3.29-0.29","exjjq2cu8v6fq9s",443,"56.csv","","736.9999999999854","resources/trios/L2T1A3.jpg","37","restless",0.4,0.8,0.4,0.439785245428254,"false"
"image-keyboard-response",99,127312,"0.0-3.29-1.29","exjjq2cu8v6fq9s",443,"56.csv","","null","resources/maskTrios/L2BB.jpg","null","",NA,NA,NA,NA,""
"image-keyboard-response",100,128514,"0.0-3.29-2.29","exjjq2cu8v6fq9s",443,"56.csv","","null","resources/images/fishbone.png","null","",NA,NA,NA,NA,""
"image-keyboard-response",101,129359,"0.0-3.30-0.30","exjjq2cu8v6fq9s",443,"56.csv","","841.9999999999709","resources/trios/L4T1A3.jpg","39","restless",0.4,0.7,0.4,0.987735080250497,"false"
"image-keyboard-response",102,129762,"0.0-3.30-1.30","exjjq2cu8v6fq9s",443,"56.csv","","null","resources/maskTrios/BBA3.jpg","null","",NA,NA,NA,NA,""
"image-keyboard-response",103,130965,"0.0-3.30-2.30","exjjq2cu8v6fq9s",443,"56.csv","","null","resources/images/fishbone.png","null","",NA,NA,NA,NA,""
"image-keyboard-response",104,131659,"0.0-3.31-0.31","exjjq2cu8v6fq9s",443,"56.csv","","691","resources/trios/L4T1A1.jpg","38","restless",0.4,0.7,0.4,0.745409289898909,"false"
"image-keyboard-response",105,132063,"0.0-3.31-1.31","exjjq2cu8v6fq9s",443,"56.csv","","null","resources/maskTrios/BT1B.jpg","null","",NA,NA,NA,NA,""
"image-keyboard-response",106,133266,"0.0-3.31-2.31","exjjq2cu8v6fq9s",443,"56.csv","","null","resources/images/fishbone.png","null","",NA,NA,NA,NA,""
"image-keyboard-response",107,134984,"0.0-3.32-0.32","exjjq2cu8v6fq9s",443,"56.csv","","1715","resources/trios/L2T1A1.jpg","37","restless",0.4,0.7,0.4,0.387450210197915,"true"
"image-keyboard-response",108,135387,"0.0-3.32-1.32","exjjq2cu8v6fq9s",443,"56.csv","","null","resources/maskTrios/L2BB.jpg","null","",NA,NA,NA,NA,""
"image-keyboard-response",109,136590,"0.0-3.32-2.32","exjjq2cu8v6fq9s",443,"56.csv","","null","resources/images/coin2.png","null","",NA,NA,NA,NA,""
"image-keyboard-response",110,137428,"0.0-3.33-0.33","exjjq2cu8v6fq9s",443,"56.csv","","835.0000000000291","resources/trios/L4T4A1.jpg","37","restless",0.4,0.7,0.4,0.0102555576247265,"true"
"image-keyboard-response",111,137831,"0.0-3.33-1.33","exjjq2cu8v6fq9s",443,"56.csv","","null","resources/maskTrios/L4BB.jpg","null","",NA,NA,NA,NA,""
"image-keyboard-response",112,139035,"0.0-3.33-2.33","exjjq2cu8v6fq9s",443,"56.csv","","null","resources/images/coin2.png","null","",NA,NA,NA,NA,""
"image-keyboard-response",113,139590,"0.0-3.34-0.34","exjjq2cu8v6fq9s",443,"56.csv","","552","resources/trios/L2T4A3.jpg","37","restless",0.4,0.7,0.4,0.746703642799348,"false"
"image-keyboard-response",114,139996,"0.0-3.34-1.34","exjjq2cu8v6fq9s",443,"56.csv","","null","resources/maskTrios/L2BB.jpg","null","",NA,NA,NA,NA,""
"image-keyboard-response",115,141199,"0.0-3.34-2.34","exjjq2cu8v6fq9s",443,"56.csv","","null","resources/images/fishbone.png","null","",NA,NA,NA,NA,""
"image-keyboard-response",116,142462,"0.0-3.35-0.35","exjjq2cu8v6fq9s",443,"56.csv","","1260","resources/trios/L2T4A3.jpg","38","restless",0.4,0.7,0.4,0.914575125470476,"false"
"image-keyboard-response",117,142865,"0.0-3.35-1.35","exjjq2cu8v6fq9s",443,"56.csv","","null","resources/maskTrios/BT4B.jpg","null","",NA,NA,NA,NA,""
"image-keyboard-response",118,144068,"0.0-3.35-2.35","exjjq2cu8v6fq9s",443,"56.csv","","null","resources/images/fishbone.png","null","",NA,NA,NA,NA,""
"image-keyboard-response",119,145448,"0.0-3.36-0.36","exjjq2cu8v6fq9s",443,"56.csv","","1376","resources/trios/L4T4A1.jpg","37","restless",0.3,0.7,0.4,0.784518173761278,"false"
"image-keyboard-response",120,145852,"0.0-3.36-1.36","exjjq2cu8v6fq9s",443,"56.csv","","null","resources/maskTrios/L4BB.jpg","null","",NA,NA,NA,NA,""
"image-keyboard-response",121,147056,"0.0-3.36-2.36","exjjq2cu8v6fq9s",443,"56.csv","","null","resources/images/fishbone.png","null","",NA,NA,NA,NA,""
"image-keyboard-response",122,147527,"0.0-3.37-0.37","exjjq2cu8v6fq9s",443,"56.csv","","468","resources/trios/L4T1A3.jpg","39","restless",0.3,0.7,0.4,0.558675807924282,"false"
"image-keyboard-response",123,147931,"0.0-3.37-1.37","exjjq2cu8v6fq9s",443,"56.csv","","null","resources/maskTrios/BBA3.jpg","null","",NA,NA,NA,NA,""
"image-keyboard-response",124,149134,"0.0-3.37-2.37","exjjq2cu8v6fq9s",443,"56.csv","","null","resources/images/fishbone.png","null","",NA,NA,NA,NA,""
"image-keyboard-response",125,149668,"0.0-3.38-0.38","exjjq2cu8v6fq9s",443,"56.csv","","531","resources/trios/L4T1A1.jpg","39","restless",0.3,0.7,0.4,0.556566715761649,"false"
"image-keyboard-response",126,150072,"0.0-3.38-1.38","exjjq2cu8v6fq9s",443,"56.csv","","null","resources/maskTrios/BBA1.jpg","null","",NA,NA,NA,NA,""
"image-keyboard-response",127,151275,"0.0-3.38-2.38","exjjq2cu8v6fq9s",443,"56.csv","","null","resources/images/fishbone.png","null","",NA,NA,NA,NA,""
"image-keyboard-response",128,153270,"0.0-3.39-0.39","exjjq2cu8v6fq9s",443,"56.csv","","1992","resources/trios/L2T4A3.jpg","37","restless",0.4,0.7,0.5,0.80077478839648,"false"
"image-keyboard-response",129,153673,"0.0-3.39-1.39","exjjq2cu8v6fq9s",443,"56.csv","","null","resources/maskTrios/L2BB.jpg","null","",NA,NA,NA,NA,""
"image-keyboard-response",130,154876,"0.0-3.39-2.39","exjjq2cu8v6fq9s",443,"56.csv","","null","resources/images/fishbone.png","null","",NA,NA,NA,NA,""
"image-keyboard-response",131,155271,"0.0-3.40-0.40","exjjq2cu8v6fq9s",443,"56.csv","","393","resources/trios/L4T1A3.jpg","37","restless",0.4,0.7,0.5,0.465698364821517,"false"
"image-keyboard-response",132,155675,"0.0-3.40-1.40","exjjq2cu8v6fq9s",443,"56.csv","","null","resources/maskTrios/L4BB.jpg","null","",NA,NA,NA,NA,""
"image-keyboard-response",133,156878,"0.0-3.40-2.40","exjjq2cu8v6fq9s",443,"56.csv","","null","resources/images/fishbone.png","null","",NA,NA,NA,NA,""
"image-keyboard-response",134,157331,"0.0-3.41-0.41","exjjq2cu8v6fq9s",443,"56.csv","","451","resources/trios/L4T1A1.jpg","38","restless",0.5,0.7,0.5,0.984608731529187,"false"
"image-keyboard-response",135,157733,"0.0-3.41-1.41","exjjq2cu8v6fq9s",443,"56.csv","","null","resources/maskTrios/BT1B.jpg","null","",NA,NA,NA,NA,""
"image-keyboard-response",136,158936,"0.0-3.41-2.41","exjjq2cu8v6fq9s",443,"56.csv","","null","resources/images/fishbone.png","null","",NA,NA,NA,NA,""
"image-keyboard-response",137,159321,"0.0-3.42-0.42","exjjq2cu8v6fq9s",443,"56.csv","","382","resources/trios/L4T4A3.jpg","38","restless",0.5,0.7,0.5,0.52544679755293,"true"
"image-keyboard-response",138,159723,"0.0-3.42-1.42","exjjq2cu8v6fq9s",443,"56.csv","","null","resources/maskTrios/BT4B.jpg","null","",NA,NA,NA,NA,""
"image-keyboard-response",139,160927,"0.0-3.42-2.42","exjjq2cu8v6fq9s",443,"56.csv","","null","resources/images/coin2.png","null","",NA,NA,NA,NA,""
"image-keyboard-response",140,161299,"0.0-3.43-0.43","exjjq2cu8v6fq9s",443,"56.csv","","370","resources/trios/L2T4A3.jpg","38","restless",0.5,0.8,0.5,0.789896146807799,"true"
"image-keyboard-response",141,161704,"0.0-3.43-1.43","exjjq2cu8v6fq9s",443,"56.csv","","null","resources/maskTrios/BT4B.jpg","null","",NA,NA,NA,NA,""
"image-keyboard-response",142,162908,"0.0-3.43-2.43","exjjq2cu8v6fq9s",443,"56.csv","","null","resources/images/coin2.png","null","",NA,NA,NA,NA,""
"image-keyboard-response",143,163327,"0.0-3.44-0.44","exjjq2cu8v6fq9s",443,"56.csv","","415","resources/trios/L4T4A3.jpg","38","restless",0.5,0.7,0.5,0.320801452415359,"true"
"image-keyboard-response",144,163730,"0.0-3.44-1.44","exjjq2cu8v6fq9s",443,"56.csv","","null","resources/maskTrios/BT4B.jpg","null","",NA,NA,NA,NA,""
"image-keyboard-response",145,164933,"0.0-3.44-2.44","exjjq2cu8v6fq9s",443,"56.csv","","null","resources/images/coin2.png","null","",NA,NA,NA,NA,""
"image-keyboard-response",146,165261,"0.0-3.45-0.45","exjjq2cu8v6fq9s",443,"56.csv","","325","resources/trios/L4T1A3.jpg","38","restless",0.5,0.7,0.5,0.352680865840134,"true"
"image-keyboard-response",147,165665,"0.0-3.45-1.45","exjjq2cu8v6fq9s",443,"56.csv","","null","resources/maskTrios/BT1B.jpg","null","",NA,NA,NA,NA,""
"image-keyboard-response",148,166869,"0.0-3.45-2.45","exjjq2cu8v6fq9s",443,"56.csv","","null","resources/images/coin2.png","null","",NA,NA,NA,NA,""
"image-keyboard-response",149,167230,"0.0-3.46-0.46","exjjq2cu8v6fq9s",443,"56.csv","","355","resources/trios/L2T1A1.jpg","38","restless",0.5,0.7,0.5,0.994223832972182,"false"
"image-keyboard-response",150,167633,"0.0-3.46-1.46","exjjq2cu8v6fq9s",443,"56.csv","","null","resources/maskTrios/BT1B.jpg","null","",NA,NA,NA,NA,""
"image-keyboard-response",151,168836,"0.0-3.46-2.46","exjjq2cu8v6fq9s",443,"56.csv","","null","resources/images/fishbone.png","null","",NA,NA,NA,NA,""
"image-keyboard-response",152,169904,"0.0-3.47-0.47","exjjq2cu8v6fq9s",443,"56.csv","","1064.000000000029","resources/trios/L4T1A1.jpg","38","restless",0.5,0.7,0.6,0.906913894936374,"false"
"image-keyboard-response",153,170307,"0.0-3.47-1.47","exjjq2cu8v6fq9s",443,"56.csv","","null","resources/maskTrios/BT1B.jpg","null","",NA,NA,NA,NA,""
"image-keyboard-response",154,171510,"0.0-3.47-2.47","exjjq2cu8v6fq9s",443,"56.csv","","null","resources/images/fishbone.png","null","",NA,NA,NA,NA,""
"image-keyboard-response",155,171965,"0.0-3.48-0.48","exjjq2cu8v6fq9s",443,"56.csv","","452","resources/trios/L4T1A3.jpg","37","restless",0.5,0.7,0.6,0.325350446879037,"true"
"image-keyboard-response",156,172368,"0.0-3.48-1.48","exjjq2cu8v6fq9s",443,"56.csv","","null","resources/maskTrios/L4BB.jpg","null","",NA,NA,NA,NA,""
"image-keyboard-response",157,173571,"0.0-3.48-2.48","exjjq2cu8v6fq9s",443,"56.csv","","null","resources/images/coin2.png","null","",NA,NA,NA,NA,""
"image-keyboard-response",158,174305,"0.0-3.49-0.49","exjjq2cu8v6fq9s",443,"56.csv","","730","resources/trios/L2T4A3.jpg","37","restless",0.6,0.7,0.6,0.643709403818254,"false"
"image-keyboard-response",159,174707,"0.0-3.49-1.49","exjjq2cu8v6fq9s",443,"56.csv","","null","resources/maskTrios/L2BB.jpg","null","",NA,NA,NA,NA,""
"image-keyboard-response",160,175909,"0.0-3.49-2.49","exjjq2cu8v6fq9s",443,"56.csv","","null","resources/images/fishbone.png","null","",NA,NA,NA,NA,""
"image-keyboard-response",161,176904,"0.0-3.50-0.50","exjjq2cu8v6fq9s",443,"56.csv","","992","resources/trios/L4T1A1.jpg","38","restless",0.6,0.7,0.6,0.721192193783057,"false"
"image-keyboard-response",162,177307,"0.0-3.50-1.50","exjjq2cu8v6fq9s",443,"56.csv","","null","resources/maskTrios/BT1B.jpg","null","",NA,NA,NA,NA,""
"image-keyboard-response",163,178510,"0.0-3.50-2.50","exjjq2cu8v6fq9s",443,"56.csv","","null","resources/images/fishbone.png","null","",NA,NA,NA,NA,""
"image-keyboard-response",164,179866,"0.0-3.51-0.51","exjjq2cu8v6fq9s",443,"56.csv","","1354","resources/trios/L4T4A1.jpg","38","restless",0.6,0.7,0.6,0.537453207975236,"true"
"image-keyboard-response",165,180268,"0.0-3.51-1.51","exjjq2cu8v6fq9s",443,"56.csv","","null","resources/maskTrios/BT4B.jpg","null","",NA,NA,NA,NA,""
"image-keyboard-response",166,181472,"0.0-3.51-2.51","exjjq2cu8v6fq9s",443,"56.csv","","null","resources/images/coin2.png","null","",NA,NA,NA,NA,""
"image-keyboard-response",167,182598,"0.0-3.52-0.52","exjjq2cu8v6fq9s",443,"56.csv","","1123","resources/trios/L2T1A1.jpg","39","restless",0.6,0.6,0.6,0.799849349767861,"false"
"image-keyboard-response",168,183000,"0.0-3.52-1.52","exjjq2cu8v6fq9s",443,"56.csv","","null","resources/maskTrios/BBA1.jpg","null","",NA,NA,NA,NA,""
"image-keyboard-response",169,184203,"0.0-3.52-2.52","exjjq2cu8v6fq9s",443,"56.csv","","null","resources/images/fishbone.png","null","",NA,NA,NA,NA,""
"image-keyboard-response",170,185295,"0.0-3.53-0.53","exjjq2cu8v6fq9s",443,"56.csv","","1090","resources/trios/L4T1A3.jpg","37","restless",0.6,0.6,0.6,0.191551479239434,"true"
"image-keyboard-response",171,185698,"0.0-3.53-1.53","exjjq2cu8v6fq9s",443,"56.csv","","null","resources/maskTrios/L4BB.jpg","null","",NA,NA,NA,NA,""
"image-keyboard-response",172,186902,"0.0-3.53-2.53","exjjq2cu8v6fq9s",443,"56.csv","","null","resources/images/coin2.png","null","",NA,NA,NA,NA,""
"image-keyboard-response",173,187337,"0.0-3.54-0.54","exjjq2cu8v6fq9s",443,"56.csv","","433","resources/trios/L4T1A3.jpg","37","restless",0.6,0.6,0.5,0.336773679253386,"true"
"image-keyboard-response",174,187739,"0.0-3.54-1.54","exjjq2cu8v6fq9s",443,"56.csv","","null","resources/maskTrios/L4BB.jpg","null","",NA,NA,NA,NA,""
"image-keyboard-response",175,188942,"0.0-3.54-2.54","exjjq2cu8v6fq9s",443,"56.csv","","null","resources/images/coin2.png","null","",NA,NA,NA,NA,""
"image-keyboard-response",176,189702,"0.0-3.55-0.55","exjjq2cu8v6fq9s",443,"56.csv","","756","resources/trios/L2T4A3.jpg","38","restless",0.6,0.6,0.5,0.808848199279403,"false"
"image-keyboard-response",177,190106,"0.0-3.55-1.55","exjjq2cu8v6fq9s",443,"56.csv","","null","resources/maskTrios/BT4B.jpg","null","",NA,NA,NA,NA,""
"image-keyboard-response",178,191309,"0.0-3.55-2.55","exjjq2cu8v6fq9s",443,"56.csv","","null","resources/images/fishbone.png","null","",NA,NA,NA,NA,""
"image-keyboard-response",179,192954,"0.0-3.56-0.56","exjjq2cu8v6fq9s",443,"56.csv","","1643","resources/trios/L4T4A3.jpg","37","restless",0.6,0.6,0.5,0.229063010728519,"true"
"image-keyboard-response",180,193357,"0.0-3.56-1.56","exjjq2cu8v6fq9s",443,"56.csv","","null","resources/maskTrios/L4BB.jpg","null","",NA,NA,NA,NA,""
"image-keyboard-response",181,194561,"0.0-3.56-2.56","exjjq2cu8v6fq9s",443,"56.csv","","null","resources/images/coin2.png","null","",NA,NA,NA,NA,""
"image-keyboard-response",182,195591,"0.0-3.57-0.57","exjjq2cu8v6fq9s",443,"56.csv","","1026.999999999971","resources/trios/L2T1A3.jpg","37","restless",0.6,0.6,0.5,0.748621394454596,"false"
"image-keyboard-response",183,195993,"0.0-3.57-1.57","exjjq2cu8v6fq9s",443,"56.csv","","null","resources/maskTrios/L2BB.jpg","null","",NA,NA,NA,NA,""
"image-keyboard-response",184,197196,"0.0-3.57-2.57","exjjq2cu8v6fq9s",443,"56.csv","","null","resources/images/fishbone.png","null","",NA,NA,NA,NA,""
"image-keyboard-response",185,198412,"0.0-3.58-0.58","exjjq2cu8v6fq9s",443,"56.csv","","1210.999999999971","resources/trios/L4T4A1.jpg","37","restless",0.7,0.6,0.6,0.875970708420343,"false"
"image-keyboard-response",186,198815,"0.0-3.58-1.58","exjjq2cu8v6fq9s",443,"56.csv","","null","resources/maskTrios/L4BB.jpg","null","",NA,NA,NA,NA,""
"image-keyboard-response",187,200018,"0.0-3.58-2.58","exjjq2cu8v6fq9s",443,"56.csv","","null","resources/images/fishbone.png","null","",NA,NA,NA,NA,""
"image-keyboard-response",188,200579,"0.0-3.59-0.59","exjjq2cu8v6fq9s",443,"56.csv","","558","resources/trios/L2T4A3.jpg","37","restless",0.7,0.6,0.6,0.945401486536826,"false"
"image-keyboard-response",189,200984,"0.0-3.59-1.59","exjjq2cu8v6fq9s",443,"56.csv","","null","resources/maskTrios/L2BB.jpg","null","",NA,NA,NA,NA,""
"image-keyboard-response",190,202187,"0.0-3.59-2.59","exjjq2cu8v6fq9s",443,"56.csv","","null","resources/images/fishbone.png","null","",NA,NA,NA,NA,""
"image-keyboard-response",191,202827,"0.0-3.60-0.60","exjjq2cu8v6fq9s",443,"56.csv","","637.9999999999709","resources/trios/L4T1A3.jpg","38","restless",0.7,0.6,0.6,0.116772212939547,"true"
"image-keyboard-response",192,203231,"0.0-3.60-1.60","exjjq2cu8v6fq9s",443,"56.csv","","null","resources/maskTrios/BT1B.jpg","null","",NA,NA,NA,NA,""
"image-keyboard-response",193,204434,"0.0-3.60-2.60","exjjq2cu8v6fq9s",443,"56.csv","","null","resources/images/coin2.png","null","",NA,NA,NA,NA,""
"image-keyboard-response",194,204919,"0.0-3.61-0.61","exjjq2cu8v6fq9s",443,"56.csv","","481","resources/trios/L2T1A3.jpg","38","restless",0.7,0.6,0.6,0.167756048616674,"true"
"image-keyboard-response",195,205322,"0.0-3.61-1.61","exjjq2cu8v6fq9s",443,"56.csv","","null","resources/maskTrios/BT1B.jpg","null","",NA,NA,NA,NA,""
"image-keyboard-response",196,206525,"0.0-3.61-2.61","exjjq2cu8v6fq9s",443,"56.csv","","null","resources/images/coin2.png","null","",NA,NA,NA,NA,""
"image-keyboard-response",197,206949,"0.0-3.62-0.62","exjjq2cu8v6fq9s",443,"56.csv","","420","resources/trios/L2T1A1.jpg","38","restless",0.7,0.6,0.6,0.111390412213721,"true"
"image-keyboard-response",198,207353,"0.0-3.62-1.62","exjjq2cu8v6fq9s",443,"56.csv","","null","resources/maskTrios/BT1B.jpg","null","",NA,NA,NA,NA,""
"image-keyboard-response",199,208556,"0.0-3.62-2.62","exjjq2cu8v6fq9s",443,"56.csv","","null","resources/images/coin2.png","null","",NA,NA,NA,NA,""
"image-keyboard-response",200,208971,"0.0-3.63-0.63","exjjq2cu8v6fq9s",443,"56.csv","","412","resources/trios/L4T4A1.jpg","38","restless",0.6,0.6,0.7,0.614892768620055,"false"
"image-keyboard-response",201,209373,"0.0-3.63-1.63","exjjq2cu8v6fq9s",443,"56.csv","","null","resources/maskTrios/BT4B.jpg","null","",NA,NA,NA,NA,""
"image-keyboard-response",202,210582,"0.0-3.63-2.63","exjjq2cu8v6fq9s",443,"56.csv","","null","resources/images/fishbone.png","null","",NA,NA,NA,NA,""
"image-keyboard-response",203,211015,"0.0-3.64-0.64","exjjq2cu8v6fq9s",443,"56.csv","","430","resources/trios/L4T4A3.jpg","37","restless",0.6,0.6,0.7,0.100432434467368,"true"
"image-keyboard-response",204,211418,"0.0-3.64-1.64","exjjq2cu8v6fq9s",443,"56.csv","","null","resources/maskTrios/L4BB.jpg","null","",NA,NA,NA,NA,""
"image-keyboard-response",205,212622,"0.0-3.64-2.64","exjjq2cu8v6fq9s",443,"56.csv","","null","resources/images/coin2.png","null","",NA,NA,NA,NA,""
"image-keyboard-response",206,213359,"0.0-3.65-0.65","exjjq2cu8v6fq9s",443,"56.csv","","735","resources/trios/L2T4A1.jpg","38","restless",0.6,0.5,0.7,0.431356022299044,"true"
"image-keyboard-response",207,213763,"0.0-3.65-1.65","exjjq2cu8v6fq9s",443,"56.csv","","null","resources/maskTrios/BT4B.jpg","null","",NA,NA,NA,NA,""
"image-keyboard-response",208,214966,"0.0-3.65-2.65","exjjq2cu8v6fq9s",443,"56.csv","","null","resources/images/coin2.png","null","",NA,NA,NA,NA,""
"image-keyboard-response",209,215661,"0.0-3.66-0.66","exjjq2cu8v6fq9s",443,"56.csv","","692","resources/trios/L2T4A1.jpg","38","restless",0.6,0.5,0.7,0.665314773504893,"false"
"image-keyboard-response",210,216065,"0.0-3.66-1.66","exjjq2cu8v6fq9s",443,"56.csv","","null","resources/maskTrios/BT4B.jpg","null","",NA,NA,NA,NA,""
"image-keyboard-response",211,217268,"0.0-3.66-2.66","exjjq2cu8v6fq9s",443,"56.csv","","null","resources/images/fishbone.png","null","",NA,NA,NA,NA,""
"image-keyboard-response",212,218078,"0.0-3.67-0.67","exjjq2cu8v6fq9s",443,"56.csv","","805.9999999999709","resources/trios/L2T4A1.jpg","38","restless",0.6,0.5,0.7,0.544537164365516,"false"
"image-keyboard-response",213,218482,"0.0-3.67-1.67","exjjq2cu8v6fq9s",443,"56.csv","","null","resources/maskTrios/BT4B.jpg","null","",NA,NA,NA,NA,""
"image-keyboard-response",214,219685,"0.0-3.67-2.67","exjjq2cu8v6fq9s",443,"56.csv","","null","resources/images/fishbone.png","null","",NA,NA,NA,NA,""
"image-keyboard-response",215,220164,"0.0-3.68-0.68","exjjq2cu8v6fq9s",443,"56.csv","","477","resources/trios/L2T4A1.jpg","37","restless",0.5,0.5,0.7,0.0241298107954834,"true"
"image-keyboard-response",216,220568,"0.0-3.68-1.68","exjjq2cu8v6fq9s",443,"56.csv","","null","resources/maskTrios/L2BB.jpg","null","",NA,NA,NA,NA,""
"image-keyboard-response",217,221771,"0.0-3.68-2.68","exjjq2cu8v6fq9s",443,"56.csv","","null","resources/images/coin2.png","null","",NA,NA,NA,NA,""
"image-keyboard-response",218,222476,"0.0-3.69-0.69","exjjq2cu8v6fq9s",443,"56.csv","","703","resources/trios/L2T1A1.jpg","37","restless",0.5,0.5,0.7,0.491246677066671,"true"
"image-keyboard-response",219,222880,"0.0-3.69-1.69","exjjq2cu8v6fq9s",443,"56.csv","","null","resources/maskTrios/L2BB.jpg","null","",NA,NA,NA,NA,""
"image-keyboard-response",220,224083,"0.0-3.69-2.69","exjjq2cu8v6fq9s",443,"56.csv","","null","resources/images/coin2.png","null","",NA,NA,NA,NA,""
"image-keyboard-response",221,225204,"0.0-3.70-0.70","exjjq2cu8v6fq9s",443,"56.csv","","1118","resources/trios/L4T4A3.jpg","37","restless",0.5,0.5,0.7,0.298110926494242,"true"
"image-keyboard-response",222,225607,"0.0-3.70-1.70","exjjq2cu8v6fq9s",443,"56.csv","","null","resources/maskTrios/L4BB.jpg","null","",NA,NA,NA,NA,""
"image-keyboard-response",223,226811,"0.0-3.70-2.70","exjjq2cu8v6fq9s",443,"56.csv","","null","resources/images/coin2.png","null","",NA,NA,NA,NA,""
"image-keyboard-response",224,227500,"0.0-3.71-0.71","exjjq2cu8v6fq9s",443,"56.csv","","686.9999999999709","resources/trios/L2T1A1.jpg","37","restless",0.5,0.5,0.7,0.0845867202055259,"true"
"image-keyboard-response",225,227903,"0.0-3.71-1.71","exjjq2cu8v6fq9s",443,"56.csv","","null","resources/maskTrios/L2BB.jpg","null","",NA,NA,NA,NA,""
"image-keyboard-response",226,229106,"0.0-3.71-2.71","exjjq2cu8v6fq9s",443,"56.csv","","null","resources/images/coin2.png","null","",NA,NA,NA,NA,""
"image-keyboard-response",227,229838,"0.0-3.72-0.72","exjjq2cu8v6fq9s",443,"56.csv","","726.0000000000291","resources/trios/L4T1A3.jpg","37","restless",0.5,0.5,0.7,0.0709996411325762,"true"
"image-keyboard-response",228,230240,"0.0-3.72-1.72","exjjq2cu8v6fq9s",443,"56.csv","","null","resources/maskTrios/L4BB.jpg","null","",NA,NA,NA,NA,""
"image-keyboard-response",229,231443,"0.0-3.72-2.72","exjjq2cu8v6fq9s",443,"56.csv","","null","resources/images/coin2.png","null","",NA,NA,NA,NA,""
"image-keyboard-response",230,231855,"0.0-3.73-0.73","exjjq2cu8v6fq9s",443,"56.csv","","408","resources/trios/L4T4A1.jpg","37","restless",0.5,0.5,0.7,0.430717315598772,"true"
"image-keyboard-response",231,232257,"0.0-3.73-1.73","exjjq2cu8v6fq9s",443,"56.csv","","null","resources/maskTrios/L4BB.jpg","null","",NA,NA,NA,NA,""
"image-keyboard-response",232,233461,"0.0-3.73-2.73","exjjq2cu8v6fq9s",443,"56.csv","","null","resources/images/coin2.png","null","",NA,NA,NA,NA,""
"image-keyboard-response",233,233858,"0.0-3.74-0.74","exjjq2cu8v6fq9s",443,"56.csv","","390","resources/trios/L4T4A1.jpg","37","restless",0.5,0.5,0.7,0.557266345000646,"false"
"image-keyboard-response",234,234261,"0.0-3.74-1.74","exjjq2cu8v6fq9s",443,"56.csv","","null","resources/maskTrios/L4BB.jpg","null","",NA,NA,NA,NA,""
"image-keyboard-response",235,235464,"0.0-3.74-2.74","exjjq2cu8v6fq9s",443,"56.csv","","null","resources/images/fishbone.png","null","",NA,NA,NA,NA,""
"image-keyboard-response",236,236329,"0.0-3.75-0.75","exjjq2cu8v6fq9s",443,"56.csv","","861","resources/trios/L2T1A3.jpg","37","restless",0.5,0.5,0.7,0.693420301238733,"false"
"image-keyboard-response",237,236732,"0.0-3.75-1.75","exjjq2cu8v6fq9s",443,"56.csv","","null","resources/maskTrios/L2BB.jpg","null","",NA,NA,NA,NA,""
"image-keyboard-response",238,237934,"0.0-3.75-2.75","exjjq2cu8v6fq9s",443,"56.csv","","null","resources/images/fishbone.png","null","",NA,NA,NA,NA,""
"image-keyboard-response",239,238361,"0.0-3.76-0.76","exjjq2cu8v6fq9s",443,"56.csv","","423","resources/trios/L4T4A3.jpg","38","restless",0.5,0.5,0.7,0.050439955146205,"true"
"image-keyboard-response",240,238763,"0.0-3.76-1.76","exjjq2cu8v6fq9s",443,"56.csv","","null","resources/maskTrios/BT4B.jpg","null","",NA,NA,NA,NA,""
"image-keyboard-response",241,239967,"0.0-3.76-2.76","exjjq2cu8v6fq9s",443,"56.csv","","null","resources/images/coin2.png","null","",NA,NA,NA,NA,""
"image-keyboard-response",242,240494,"0.0-3.77-0.77","exjjq2cu8v6fq9s",443,"56.csv","","525","resources/trios/L2T4A1.jpg","38","restless",0.5,0.4,0.7,0.626326683558265,"false"
"image-keyboard-response",243,240897,"0.0-3.77-1.77","exjjq2cu8v6fq9s",443,"56.csv","","null","resources/maskTrios/BT4B.jpg","null","",NA,NA,NA,NA,""
"image-keyboard-response",244,242100,"0.0-3.77-2.77","exjjq2cu8v6fq9s",443,"56.csv","","null","resources/images/fishbone.png","null","",NA,NA,NA,NA,""
"image-keyboard-response",245,242577,"0.0-3.78-0.78","exjjq2cu8v6fq9s",443,"56.csv","","473","resources/trios/L2T4A3.jpg","38","restless",0.5,0.4,0.7,0.911332605584693,"false"
"image-keyboard-response",246,242981,"0.0-3.78-1.78","exjjq2cu8v6fq9s",443,"56.csv","","null","resources/maskTrios/BT4B.jpg","null","",NA,NA,NA,NA,""
"image-keyboard-response",247,244184,"0.0-3.78-2.78","exjjq2cu8v6fq9s",443,"56.csv","","null","resources/images/fishbone.png","null","",NA,NA,NA,NA,""
"image-keyboard-response",248,244543,"0.0-3.79-0.79","exjjq2cu8v6fq9s",443,"56.csv","","357","resources/trios/L4T4A3.jpg","37","restless",0.5,0.4,0.7,0.382328480541085,"true"
"image-keyboard-response",249,244947,"0.0-3.79-1.79","exjjq2cu8v6fq9s",443,"56.csv","","null","resources/maskTrios/L4BB.jpg","null","",NA,NA,NA,NA,""
"image-keyboard-response",250,246150,"0.0-3.79-2.79","exjjq2cu8v6fq9s",443,"56.csv","","null","resources/images/coin2.png","null","",NA,NA,NA,NA,""
"image-keyboard-response",251,246698,"0.0-3.80-0.80","exjjq2cu8v6fq9s",443,"56.csv","","544","resources/trios/L4T1A3.jpg","37","restless",0.5,0.4,0.7,0.158777681846624,"true"
"image-keyboard-response",252,247101,"0.0-3.80-1.80","exjjq2cu8v6fq9s",443,"56.csv","","null","resources/maskTrios/L4BB.jpg","null","",NA,NA,NA,NA,""
"image-keyboard-response",253,248305,"0.0-3.80-2.80","exjjq2cu8v6fq9s",443,"56.csv","","null","resources/images/coin2.png","null","",NA,NA,NA,NA,""
"image-keyboard-response",254,248878,"0.0-3.81-0.81","exjjq2cu8v6fq9s",443,"56.csv","","571","resources/trios/L4T4A3.jpg","37","restless",0.5,0.4,0.7,0.6492024148785,"false"
"image-keyboard-response",255,249281,"0.0-3.81-1.81","exjjq2cu8v6fq9s",443,"56.csv","","null","resources/maskTrios/L4BB.jpg","null","",NA,NA,NA,NA,""
"image-keyboard-response",256,250488,"0.0-3.81-2.81","exjjq2cu8v6fq9s",443,"56.csv","","null","resources/images/fishbone.png","null","",NA,NA,NA,NA,""
"image-keyboard-response",257,250913,"0.0-3.82-0.82","exjjq2cu8v6fq9s",443,"56.csv","","420.9999999999709","resources/trios/L4T4A1.jpg","38","restless",0.5,0.4,0.7,0.968518397215639,"false"
"image-keyboard-response",258,251316,"0.0-3.82-1.82","exjjq2cu8v6fq9s",443,"56.csv","","null","resources/maskTrios/BT4B.jpg","null","",NA,NA,NA,NA,""
"image-keyboard-response",259,252518,"0.0-3.82-2.82","exjjq2cu8v6fq9s",443,"56.csv","","null","resources/images/fishbone.png","null","",NA,NA,NA,NA,""
"image-keyboard-response",260,252913,"0.0-3.83-0.83","exjjq2cu8v6fq9s",443,"56.csv","","390.9999999999418","resources/trios/L4T4A1.jpg","39","restless",0.5,0.4,0.7,0.411132238428987,"true"
"image-keyboard-response",261,253315,"0.0-3.83-1.83","exjjq2cu8v6fq9s",443,"56.csv","","null","resources/maskTrios/BBA1.jpg","null","",NA,NA,NA,NA,""
"image-keyboard-response",262,254519,"0.0-3.83-2.83","exjjq2cu8v6fq9s",443,"56.csv","","null","resources/images/coin2.png","null","",NA,NA,NA,NA,""
"image-keyboard-response",263,255932,"0.0-3.84-0.84","exjjq2cu8v6fq9s",443,"56.csv","","1409","resources/trios/L4T4A3.jpg","39","restless",0.5,0.4,0.7,0.869159401653791,"false"
"image-keyboard-response",264,256335,"0.0-3.84-1.84","exjjq2cu8v6fq9s",443,"56.csv","","null","resources/maskTrios/BBA3.jpg","null","",NA,NA,NA,NA,""
"image-keyboard-response",265,257539,"0.0-3.84-2.84","exjjq2cu8v6fq9s",443,"56.csv","","null","resources/images/fishbone.png","null","",NA,NA,NA,NA,""
"image-keyboard-response",266,257986,"0.0-3.85-0.85","exjjq2cu8v6fq9s",443,"56.csv","","443.9999999999709","resources/trios/L4T4A1.jpg","38","restless",0.5,0.4,0.7,0.695835724450035,"false"
"image-keyboard-response",267,258389,"0.0-3.85-1.85","exjjq2cu8v6fq9s",443,"56.csv","","null","resources/maskTrios/BT4B.jpg","null","",NA,NA,NA,NA,""
"image-keyboard-response",268,259591,"0.0-3.85-2.85","exjjq2cu8v6fq9s",443,"56.csv","","null","resources/images/fishbone.png","null","",NA,NA,NA,NA,""
"image-keyboard-response",269,260627,"0.0-3.86-0.86","exjjq2cu8v6fq9s",443,"56.csv","","1033","resources/trios/L4T1A1.jpg","37","restless",0.5,0.4,0.7,0.424722908041775,"true"
"image-keyboard-response",270,261031,"0.0-3.86-1.86","exjjq2cu8v6fq9s",443,"56.csv","","null","resources/maskTrios/L4BB.jpg","null","",NA,NA,NA,NA,""
"image-keyboard-response",271,262235,"0.0-3.86-2.86","exjjq2cu8v6fq9s",443,"56.csv","","null","resources/images/coin2.png","null","",NA,NA,NA,NA,""
"image-keyboard-response",272,262595,"0.0-3.87-0.87","exjjq2cu8v6fq9s",443,"56.csv","","358","resources/trios/L4T4A1.jpg","37","restless",0.5,0.4,0.7,0.700402606667997,"false"
"image-keyboard-response",273,262998,"0.0-3.87-1.87","exjjq2cu8v6fq9s",443,"56.csv","","null","resources/maskTrios/L4BB.jpg","null","",NA,NA,NA,NA,""
"image-keyboard-response",274,264201,"0.0-3.87-2.87","exjjq2cu8v6fq9s",443,"56.csv","","null","resources/images/fishbone.png","null","",NA,NA,NA,NA,""
"image-keyboard-response",275,265131,"0.0-3.88-0.88","exjjq2cu8v6fq9s",443,"56.csv","","927.0000000000582","resources/trios/L2T1A1.jpg","37","restless",0.5,0.4,0.7,0.395129166151393,"true"
"image-keyboard-response",276,265534,"0.0-3.88-1.88","exjjq2cu8v6fq9s",443,"56.csv","","null","resources/maskTrios/L2BB.jpg","null","",NA,NA,NA,NA,""
"image-keyboard-response",277,266738,"0.0-3.88-2.88","exjjq2cu8v6fq9s",443,"56.csv","","null","resources/images/coin2.png","null","",NA,NA,NA,NA,""
"image-keyboard-response",278,268157,"0.0-3.89-0.89","exjjq2cu8v6fq9s",443,"56.csv","","1417","resources/trios/L4T4A1.jpg","37","restless",0.5,0.4,0.7,0.184807203126327,"true"
"image-keyboard-response",279,268559,"0.0-3.89-1.89","exjjq2cu8v6fq9s",443,"56.csv","","null","resources/maskTrios/L4BB.jpg","null","",NA,NA,NA,NA,""
"image-keyboard-response",280,269762,"0.0-3.89-2.89","exjjq2cu8v6fq9s",443,"56.csv","","null","resources/images/coin2.png","null","",NA,NA,NA,NA,""
"image-keyboard-response",281,270265,"0.0-3.90-0.90","exjjq2cu8v6fq9s",443,"56.csv","","500","resources/trios/L2T4A3.jpg","37","restless",0.4,0.4,0.6,0.778918919924829,"false"
"image-keyboard-response",282,270668,"0.0-3.90-1.90","exjjq2cu8v6fq9s",443,"56.csv","","null","resources/maskTrios/L2BB.jpg","null","",NA,NA,NA,NA,""
"image-keyboard-response",283,271871,"0.0-3.90-2.90","exjjq2cu8v6fq9s",443,"56.csv","","null","resources/images/fishbone.png","null","",NA,NA,NA,NA,""
"image-keyboard-response",284,272619,"0.0-3.91-0.91","exjjq2cu8v6fq9s",443,"56.csv","","745","resources/trios/L4T1A3.jpg","37","restless",0.4,0.4,0.6,0.0104257763245023,"true"
"image-keyboard-response",285,273021,"0.0-3.91-1.91","exjjq2cu8v6fq9s",443,"56.csv","","null","resources/maskTrios/L4BB.jpg","null","",NA,NA,NA,NA,""
"image-keyboard-response",286,274228,"0.0-3.91-2.91","exjjq2cu8v6fq9s",443,"56.csv","","null","resources/images/coin2.png","null","",NA,NA,NA,NA,""
"image-keyboard-response",287,275429,"0.0-3.92-0.92","exjjq2cu8v6fq9s",443,"56.csv","","1197.0000000000582","resources/trios/L4T1A1.jpg","37","restless",0.4,0.4,0.6,0.727900148632472,"false"
"image-keyboard-response",288,275833,"0.0-3.92-1.92","exjjq2cu8v6fq9s",443,"56.csv","","null","resources/maskTrios/L4BB.jpg","null","",NA,NA,NA,NA,""
"image-keyboard-response",289,277036,"0.0-3.92-2.92","exjjq2cu8v6fq9s",443,"56.csv","","null","resources/images/fishbone.png","null","",NA,NA,NA,NA,""
"image-keyboard-response",290,277998,"0.0-3.93-0.93","exjjq2cu8v6fq9s",443,"56.csv","","959","resources/trios/L2T4A3.jpg","38","restless",0.4,0.4,0.6,0.0907986259758586,"true"
"image-keyboard-response",291,278402,"0.0-3.93-1.93","exjjq2cu8v6fq9s",443,"56.csv","","null","resources/maskTrios/BT4B.jpg","null","",NA,NA,NA,NA,""
"image-keyboard-response",292,279606,"0.0-3.93-2.93","exjjq2cu8v6fq9s",443,"56.csv","","null","resources/images/coin2.png","null","",NA,NA,NA,NA,""
"image-keyboard-response",293,280612,"0.0-3.94-0.94","exjjq2cu8v6fq9s",443,"56.csv","","1003","resources/trios/L4T1A1.jpg","38","restless",0.5,0.4,0.6,0.556008096660553,"false"
"image-keyboard-response",294,281015,"0.0-3.94-1.94","exjjq2cu8v6fq9s",443,"56.csv","","null","resources/maskTrios/BT1B.jpg","null","",NA,NA,NA,NA,""
"image-keyboard-response",295,282218,"0.0-3.94-2.94","exjjq2cu8v6fq9s",443,"56.csv","","null","resources/images/fishbone.png","null","",NA,NA,NA,NA,""
"image-keyboard-response",296,283049,"0.0-3.95-0.95","exjjq2cu8v6fq9s",443,"56.csv","","828","resources/trios/L2T4A3.jpg","37","restless",0.5,0.4,0.6,0.916840150226022,"false"
"image-keyboard-response",297,283453,"0.0-3.95-1.95","exjjq2cu8v6fq9s",443,"56.csv","","null","resources/maskTrios/L2BB.jpg","null","",NA,NA,NA,NA,""
"image-keyboard-response",298,284656,"0.0-3.95-2.95","exjjq2cu8v6fq9s",443,"56.csv","","null","resources/images/fishbone.png","null","",NA,NA,NA,NA,""
"image-keyboard-response",299,285300,"0.0-3.96-0.96","exjjq2cu8v6fq9s",443,"56.csv","","641","resources/trios/L4T4A1.jpg","37","restless",0.5,0.4,0.6,0.48700969589656,"true"
"image-keyboard-response",300,285702,"0.0-3.96-1.96","exjjq2cu8v6fq9s",443,"56.csv","","null","resources/maskTrios/L4BB.jpg","null","",NA,NA,NA,NA,""
"image-keyboard-response",301,286906,"0.0-3.96-2.96","exjjq2cu8v6fq9s",443,"56.csv","","null","resources/images/coin2.png","null","",NA,NA,NA,NA,""
"image-keyboard-response",302,287581,"0.0-3.97-0.97","exjjq2cu8v6fq9s",443,"56.csv","","674","resources/trios/L2T4A1.jpg","38","restless",0.5,0.4,0.7,0.146270344099082,"true"
"image-keyboard-response",303,287984,"0.0-3.97-1.97","exjjq2cu8v6fq9s",443,"56.csv","","null","resources/maskTrios/BT4B.jpg","null","",NA,NA,NA,NA,""
"image-keyboard-response",304,289192,"0.0-3.97-2.97","exjjq2cu8v6fq9s",443,"56.csv","","null","resources/images/coin2.png","null","",NA,NA,NA,NA,""
"image-keyboard-response",305,290056,"0.0-3.98-0.98","exjjq2cu8v6fq9s",443,"56.csv","","863","resources/trios/L2T1A1.jpg","37","restless",0.5,0.4,0.7,0.21773684336408,"true"
"image-keyboard-response",306,290459,"0.0-3.98-1.98","exjjq2cu8v6fq9s",443,"56.csv","","null","resources/maskTrios/L2BB.jpg","null","",NA,NA,NA,NA,""
"image-keyboard-response",307,291662,"0.0-3.98-2.98","exjjq2cu8v6fq9s",443,"56.csv","","null","resources/images/coin2.png","null","",NA,NA,NA,NA,""
"image-keyboard-response",308,292115,"0.0-3.99-0.99","exjjq2cu8v6fq9s",443,"56.csv","","449","resources/trios/L2T4A3.jpg","37","restless",0.5,0.4,0.7,0.775088594518531,"false"
"image-keyboard-response",309,292518,"0.0-3.99-1.99","exjjq2cu8v6fq9s",443,"56.csv","","null","resources/maskTrios/L2BB.jpg","null","",NA,NA,NA,NA,""
"image-keyboard-response",310,293722,"0.0-3.99-2.99","exjjq2cu8v6fq9s",443,"56.csv","","null","resources/images/fishbone.png","null","",NA,NA,NA,NA,""
"image-keyboard-response",311,294634,"0.0-3.100-0.100","exjjq2cu8v6fq9s",443,"56.csv","","910","resources/trios/L2T4A3.jpg","38","restless",0.5,0.4,0.7,0.195474872668949,"true"
"image-keyboard-response",312,295037,"0.0-3.100-1.100","exjjq2cu8v6fq9s",443,"56.csv","","null","resources/maskTrios/BT4B.jpg","null","",NA,NA,NA,NA,""
"image-keyboard-response",313,296241,"0.0-3.100-2.100","exjjq2cu8v6fq9s",443,"56.csv","","null","resources/images/coin2.png","null","",NA,NA,NA,NA,""
"image-keyboard-response",314,297037,"0.0-3.101-0.101","exjjq2cu8v6fq9s",443,"56.csv","","792","resources/trios/L4T1A3.jpg","38","restless",0.5,0.4,0.7,0.219907183197843,"true"
"image-keyboard-response",315,297440,"0.0-3.101-1.101","exjjq2cu8v6fq9s",443,"56.csv","","null","resources/maskTrios/BT1B.jpg","null","",NA,NA,NA,NA,""
"image-keyboard-response",316,298643,"0.0-3.101-2.101","exjjq2cu8v6fq9s",443,"56.csv","","null","resources/images/coin2.png","null","",NA,NA,NA,NA,""
"image-keyboard-response",317,299170,"0.0-3.102-0.102","exjjq2cu8v6fq9s",443,"56.csv","","523","resources/trios/L4T1A1.jpg","38","restless",0.5,0.4,0.7,0.0104165123396437,"true"
"image-keyboard-response",318,299573,"0.0-3.102-1.102","exjjq2cu8v6fq9s",443,"56.csv","","null","resources/maskTrios/BT1B.jpg","null","",NA,NA,NA,NA,""
"image-keyboard-response",319,300776,"0.0-3.102-2.102","exjjq2cu8v6fq9s",443,"56.csv","","null","resources/images/coin2.png","null","",NA,NA,NA,NA,""
"image-keyboard-response",320,301184,"0.0-3.103-0.103","exjjq2cu8v6fq9s",443,"56.csv","","403.9999999999418","resources/trios/L2T1A3.jpg","38","restless",0.5,0.4,0.7,0.159708547070662,"true"
"image-keyboard-response",321,301588,"0.0-3.103-1.103","exjjq2cu8v6fq9s",443,"56.csv","","null","resources/maskTrios/BT1B.jpg","null","",NA,NA,NA,NA,""
"image-keyboard-response",322,302791,"0.0-3.103-2.103","exjjq2cu8v6fq9s",443,"56.csv","","null","resources/images/coin2.png","null","",NA,NA,NA,NA,""
"image-keyboard-response",323,303183,"0.0-3.104-0.104","exjjq2cu8v6fq9s",443,"56.csv","","390","resources/trios/L4T1A1.jpg","38","restless",0.5,0.4,0.7,0.544950791524857,"false"
"image-keyboard-response",324,303588,"0.0-3.104-1.104","exjjq2cu8v6fq9s",443,"56.csv","","null","resources/maskTrios/BT1B.jpg","null","",NA,NA,NA,NA,""
"image-keyboard-response",325,304791,"0.0-3.104-2.104","exjjq2cu8v6fq9s",443,"56.csv","","null","resources/images/fishbone.png","null","",NA,NA,NA,NA,""
"image-keyboard-response",326,307108,"0.0-3.105-0.105","exjjq2cu8v6fq9s",443,"56.csv","","2314","resources/trios/L4T1A1.jpg","38","restless",0.6,0.4,0.7,0.100232485452663,"true"
"image-keyboard-response",327,307511,"0.0-3.105-1.105","exjjq2cu8v6fq9s",443,"56.csv","","null","resources/maskTrios/BT1B.jpg","null","",NA,NA,NA,NA,""
"image-keyboard-response",328,308718,"0.0-3.105-2.105","exjjq2cu8v6fq9s",443,"56.csv","","null","resources/images/coin2.png","null","",NA,NA,NA,NA,""
"image-keyboard-response",329,310541,"0.0-3.106-0.106","exjjq2cu8v6fq9s",443,"56.csv","","1819","resources/trios/L2T4A1.jpg","38","restless",0.6,0.4,0.7,0.531281422406213,"false"
"image-keyboard-response",330,310945,"0.0-3.106-1.106","exjjq2cu8v6fq9s",443,"56.csv","","null","resources/maskTrios/BT4B.jpg","null","",NA,NA,NA,NA,""
"image-keyboard-response",331,312148,"0.0-3.106-2.106","exjjq2cu8v6fq9s",443,"56.csv","","null","resources/images/fishbone.png","null","",NA,NA,NA,NA,""
"image-keyboard-response",332,313079,"0.0-3.107-0.107","exjjq2cu8v6fq9s",443,"56.csv","","927","resources/trios/L4T1A1.jpg","38","restless",0.6,0.4,0.7,0.782820006956363,"false"
"image-keyboard-response",333,313482,"0.0-3.107-1.107","exjjq2cu8v6fq9s",443,"56.csv","","null","resources/maskTrios/BT1B.jpg","null","",NA,NA,NA,NA,""
"image-keyboard-response",334,314685,"0.0-3.107-2.107","exjjq2cu8v6fq9s",443,"56.csv","","null","resources/images/fishbone.png","null","",NA,NA,NA,NA,""
"image-keyboard-response",335,315354,"0.0-3.108-0.108","exjjq2cu8v6fq9s",443,"56.csv","","665","resources/trios/L2T1A1.jpg","37","restless",0.6,0.4,0.7,0.082007722998398,"true"
"image-keyboard-response",336,315757,"0.0-3.108-1.108","exjjq2cu8v6fq9s",443,"56.csv","","null","resources/maskTrios/L2BB.jpg","null","",NA,NA,NA,NA,""
"image-keyboard-response",337,316961,"0.0-3.108-2.108","exjjq2cu8v6fq9s",443,"56.csv","","null","resources/images/coin2.png","null","",NA,NA,NA,NA,""
"image-keyboard-response",338,319057,"0.0-3.109-0.109","exjjq2cu8v6fq9s",443,"56.csv","","2093","resources/trios/L4T4A3.jpg","37","restless",0.6,0.3,0.7,0.335617946076699,"true"
"image-keyboard-response",339,319460,"0.0-3.109-1.109","exjjq2cu8v6fq9s",443,"56.csv","","null","resources/maskTrios/L4BB.jpg","null","",NA,NA,NA,NA,""
"image-keyboard-response",340,320663,"0.0-3.109-2.109","exjjq2cu8v6fq9s",443,"56.csv","","null","resources/images/coin2.png","null","",NA,NA,NA,NA,""
"image-keyboard-response",341,321802,"0.0-3.110-0.110","exjjq2cu8v6fq9s",443,"56.csv","","1135","resources/trios/L4T4A3.jpg","37","restless",0.7,0.3,0.7,0.553045158808383,"true"
"image-keyboard-response",342,322205,"0.0-3.110-1.110","exjjq2cu8v6fq9s",443,"56.csv","","null","resources/maskTrios/L4BB.jpg","null","",NA,NA,NA,NA,""
"image-keyboard-response",343,323407,"0.0-3.110-2.110","exjjq2cu8v6fq9s",443,"56.csv","","null","resources/images/coin2.png","null","",NA,NA,NA,NA,""
"image-keyboard-response",344,326348,"0.0-3.111-0.111","exjjq2cu8v6fq9s",443,"56.csv","","2937","resources/trios/L2T4A3.jpg","37","restless",0.7,0.3,0.7,0.0285689330708031,"true"
"image-keyboard-response",345,326752,"0.0-3.111-1.111","exjjq2cu8v6fq9s",443,"56.csv","","null","resources/maskTrios/L2BB.jpg","null","",NA,NA,NA,NA,""
"image-keyboard-response",346,327955,"0.0-3.111-2.111","exjjq2cu8v6fq9s",443,"56.csv","","null","resources/images/coin2.png","null","",NA,NA,NA,NA,""
"image-keyboard-response",347,332861,"0.0-3.112-0.112","exjjq2cu8v6fq9s",443,"56.csv","","4904","resources/trios/L2T1A3.jpg","37","restless",0.7,0.3,0.8,0.421048970885672,"true"
"image-keyboard-response",348,333266,"0.0-3.112-1.112","exjjq2cu8v6fq9s",443,"56.csv","","null","resources/maskTrios/L2BB.jpg","null","",NA,NA,NA,NA,""
"image-keyboard-response",349,334470,"0.0-3.112-2.112","exjjq2cu8v6fq9s",443,"56.csv","","null","resources/images/coin2.png","null","",NA,NA,NA,NA,""
"image-keyboard-response",350,336054,"0.0-3.113-0.113","exjjq2cu8v6fq9s",443,"56.csv","","1580","resources/trios/L2T4A3.jpg","37","restless",0.7,0.2,0.8,0.916609753912121,"false"
"image-keyboard-response",351,336457,"0.0-3.113-1.113","exjjq2cu8v6fq9s",443,"56.csv","","null","resources/maskTrios/L2BB.jpg","null","",NA,NA,NA,NA,""
"image-keyboard-response",352,337660,"0.0-3.113-2.113","exjjq2cu8v6fq9s",443,"56.csv","","null","resources/images/fishbone.png","null","",NA,NA,NA,NA,""
"image-keyboard-response",353,338790,"0.0-3.114-0.114","exjjq2cu8v6fq9s",443,"56.csv","","1127","resources/trios/L4T4A1.jpg","37","restless",0.7,0.2,0.9,0.23020879006846,"true"
"image-keyboard-response",354,339193,"0.0-3.114-1.114","exjjq2cu8v6fq9s",443,"56.csv","","null","resources/maskTrios/L4BB.jpg","null","",NA,NA,NA,NA,""
"image-keyboard-response",355,340396,"0.0-3.114-2.114","exjjq2cu8v6fq9s",443,"56.csv","","null","resources/images/coin2.png","null","",NA,NA,NA,NA,""
"image-keyboard-response",356,341136,"0.0-3.115-0.115","exjjq2cu8v6fq9s",443,"56.csv","","738","resources/trios/L4T1A3.jpg","37","restless",0.7,0.2,0.9,0.110041252975329,"true"
"image-keyboard-response",357,341539,"0.0-3.115-1.115","exjjq2cu8v6fq9s",443,"56.csv","","null","resources/maskTrios/L4BB.jpg","null","",NA,NA,NA,NA,""
"image-keyboard-response",358,342743,"0.0-3.115-2.115","exjjq2cu8v6fq9s",443,"56.csv","","null","resources/images/coin2.png","null","",NA,NA,NA,NA,""
"image-keyboard-response",359,344300,"0.0-3.116-0.116","exjjq2cu8v6fq9s",443,"56.csv","","1555","resources/trios/L2T4A1.jpg","38","restless",0.7,0.2,0.9,0.910582639013409,"false"
"image-keyboard-response",360,344703,"0.0-3.116-1.116","exjjq2cu8v6fq9s",443,"56.csv","","null","resources/maskTrios/BT4B.jpg","null","",NA,NA,NA,NA,""
"image-keyboard-response",361,345906,"0.0-3.116-2.116","exjjq2cu8v6fq9s",443,"56.csv","","null","resources/images/fishbone.png","null","",NA,NA,NA,NA,""
"image-keyboard-response",362,348625,"0.0-3.117-0.117","exjjq2cu8v6fq9s",443,"56.csv","","2714","resources/trios/L2T1A1.jpg","38","restless",0.8,0.2,0.9,0.0856534309983401,"true"
"image-keyboard-response",363,349028,"0.0-3.117-1.117","exjjq2cu8v6fq9s",443,"56.csv","","null","resources/maskTrios/BT1B.jpg","null","",NA,NA,NA,NA,""
"image-keyboard-response",364,350231,"0.0-3.117-2.117","exjjq2cu8v6fq9s",443,"56.csv","","null","resources/images/coin2.png","null","",NA,NA,NA,NA,""
"image-keyboard-response",365,351226,"0.0-3.118-0.118","exjjq2cu8v6fq9s",443,"56.csv","","993.0000000000582","resources/trios/L2T4A1.jpg","37","restless",0.8,0.2,0.9,0.870036621962522,"false"
"image-keyboard-response",366,351631,"0.0-3.118-1.118","exjjq2cu8v6fq9s",443,"56.csv","","null","resources/maskTrios/L2BB.jpg","null","",NA,NA,NA,NA,""
"image-keyboard-response",367,352834,"0.0-3.118-2.118","exjjq2cu8v6fq9s",443,"56.csv","","null","resources/images/fishbone.png","null","",NA,NA,NA,NA,""
"image-keyboard-response",368,353595,"0.0-3.119-0.119","exjjq2cu8v6fq9s",443,"56.csv","","757","resources/trios/L2T4A3.jpg","39","restless",0.8,0.2,0.9,0.686769244169353,"true"
"image-keyboard-response",369,353999,"0.0-3.119-1.119","exjjq2cu8v6fq9s",443,"56.csv","","null","resources/maskTrios/BBA3.jpg","null","",NA,NA,NA,NA,""
"image-keyboard-response",370,355203,"0.0-3.119-2.119","exjjq2cu8v6fq9s",443,"56.csv","","null","resources/images/coin2.png","null","",NA,NA,NA,NA,""
"image-keyboard-response",371,356554,"0.0-3.120-0.120","exjjq2cu8v6fq9s",443,"56.csv","","1347","resources/trios/L4T4A1.jpg","37","restless",0.8,0.2,0.9,0.206082419465658,"true"
"image-keyboard-response",372,356957,"0.0-3.120-1.120","exjjq2cu8v6fq9s",443,"56.csv","","null","resources/maskTrios/L4BB.jpg","null","",NA,NA,NA,NA,""
"image-keyboard-response",373,358160,"0.0-3.120-2.120","exjjq2cu8v6fq9s",443,"56.csv","","null","resources/images/coin2.png","null","",NA,NA,NA,NA,""
"image-keyboard-response",374,358542,"0.0-3.121-0.121","exjjq2cu8v6fq9s",443,"56.csv","","379","resources/trios/L4T4A1.jpg","37","restless",0.8,0.2,0.9,0.105553041993436,"true"
"image-keyboard-response",375,358946,"0.0-3.121-1.121","exjjq2cu8v6fq9s",443,"56.csv","","null","resources/maskTrios/L4BB.jpg","null","",NA,NA,NA,NA,""
"image-keyboard-response",376,360149,"0.0-3.121-2.121","exjjq2cu8v6fq9s",443,"56.csv","","null","resources/images/coin2.png","null","",NA,NA,NA,NA,""
"image-keyboard-response",377,360761,"0.0-3.122-0.122","exjjq2cu8v6fq9s",443,"56.csv","","609","resources/trios/L4T4A1.jpg","37","restless",0.7,0.2,0.9,0.740997478688531,"false"
"image-keyboard-response",378,361165,"0.0-3.122-1.122","exjjq2cu8v6fq9s",443,"56.csv","","null","resources/maskTrios/L4BB.jpg","null","",NA,NA,NA,NA,""
"image-keyboard-response",379,362368,"0.0-3.122-2.122","exjjq2cu8v6fq9s",443,"56.csv","","null","resources/images/fishbone.png","null","",NA,NA,NA,NA,""
"image-keyboard-response",380,363741,"0.0-3.123-0.123","exjjq2cu8v6fq9s",443,"56.csv","","1370","resources/trios/L4T1A1.jpg","37","restless",0.7,0.2,0.9,0.0943089416139029,"true"
"image-keyboard-response",381,364145,"0.0-3.123-1.123","exjjq2cu8v6fq9s",443,"56.csv","","null","resources/maskTrios/L4BB.jpg","null","",NA,NA,NA,NA,""
"image-keyboard-response",382,365348,"0.0-3.123-2.123","exjjq2cu8v6fq9s",443,"56.csv","","null","resources/images/coin2.png","null","",NA,NA,NA,NA,""
"image-keyboard-response",383,366646,"0.0-3.124-0.124","exjjq2cu8v6fq9s",443,"56.csv","","1294.9999999999418","resources/trios/L4T1A1.jpg","37","restless",0.6,0.2,0.9,0.573168349757412,"true"
"image-keyboard-response",384,367049,"0.0-3.124-1.124","exjjq2cu8v6fq9s",443,"56.csv","","null","resources/maskTrios/L4BB.jpg","null","",NA,NA,NA,NA,""
"image-keyboard-response",385,368255,"0.0-3.124-2.124","exjjq2cu8v6fq9s",443,"56.csv","","null","resources/images/coin2.png","null","",NA,NA,NA,NA,""
"image-keyboard-response",386,369333,"0.0-3.125-0.125","exjjq2cu8v6fq9s",443,"56.csv","","1075","resources/trios/L2T4A3.jpg","37","restless",0.6,0.2,0.9,0.366429905827386,"true"
"image-keyboard-response",387,369737,"0.0-3.125-1.125","exjjq2cu8v6fq9s",443,"56.csv","","null","resources/maskTrios/L2BB.jpg","null","",NA,NA,NA,NA,""
"image-keyboard-response",388,370941,"0.0-3.125-2.125","exjjq2cu8v6fq9s",443,"56.csv","","null","resources/images/coin2.png","null","",NA,NA,NA,NA,""
"image-keyboard-response",389,371704,"0.0-3.126-0.126","exjjq2cu8v6fq9s",443,"56.csv","","759","resources/trios/L2T1A1.jpg","37","restless",0.6,0.2,0.9,0.352908621056624,"true"
"image-keyboard-response",390,372108,"0.0-3.126-1.126","exjjq2cu8v6fq9s",443,"56.csv","","null","resources/maskTrios/L2BB.jpg","null","",NA,NA,NA,NA,""
"image-keyboard-response",391,373311,"0.0-3.126-2.126","exjjq2cu8v6fq9s",443,"56.csv","","null","resources/images/coin2.png","null","",NA,NA,NA,NA,""
"image-keyboard-response",392,374479,"0.0-3.127-0.127","exjjq2cu8v6fq9s",443,"56.csv","","1163.9999999999418","resources/trios/L4T4A3.jpg","37","restless",0.5,0.2,0.9,0.804317722380089,"false"
"image-keyboard-response",393,374883,"0.0-3.127-1.127","exjjq2cu8v6fq9s",443,"56.csv","","null","resources/maskTrios/L4BB.jpg","null","",NA,NA,NA,NA,""
"image-keyboard-response",394,376085,"0.0-3.127-2.127","exjjq2cu8v6fq9s",443,"56.csv","","null","resources/images/fishbone.png","null","",NA,NA,NA,NA,""
"image-keyboard-response",395,376637,"0.0-3.128-0.128","exjjq2cu8v6fq9s",443,"56.csv","","548","resources/trios/L4T4A3.jpg","38","restless",0.5,0.2,0.8,0.483525001004304,"false"
"image-keyboard-response",396,377041,"0.0-3.128-1.128","exjjq2cu8v6fq9s",443,"56.csv","","null","resources/maskTrios/BT4B.jpg","null","",NA,NA,NA,NA,""
"image-keyboard-response",397,378244,"0.0-3.128-2.128","exjjq2cu8v6fq9s",443,"56.csv","","null","resources/images/fishbone.png","null","",NA,NA,NA,NA,""
"image-keyboard-response",398,380292,"0.0-3.129-0.129","exjjq2cu8v6fq9s",443,"56.csv","","2045","resources/trios/L2T4A1.jpg","37","restless",0.5,0.2,0.8,0.01488082710201,"true"
"image-keyboard-response",399,380693,"0.0-3.129-1.129","exjjq2cu8v6fq9s",443,"56.csv","","null","resources/maskTrios/L2BB.jpg","null","",NA,NA,NA,NA,""
"image-keyboard-response",400,381896,"0.0-3.129-2.129","exjjq2cu8v6fq9s",443,"56.csv","","null","resources/images/coin2.png","null","",NA,NA,NA,NA,""
"image-keyboard-response",401,383473,"0.0-3.130-0.130","exjjq2cu8v6fq9s",443,"56.csv","","1573.9999999999418","resources/trios/L2T4A1.jpg","37","restless",0.5,0.2,0.7,0.220071929973043,"true"
"image-keyboard-response",402,383875,"0.0-3.130-1.130","exjjq2cu8v6fq9s",443,"56.csv","","null","resources/maskTrios/L2BB.jpg","null","",NA,NA,NA,NA,""
"image-keyboard-response",403,385078,"0.0-3.130-2.130","exjjq2cu8v6fq9s",443,"56.csv","","null","resources/images/coin2.png","null","",NA,NA,NA,NA,""
"image-keyboard-response",404,386013,"0.0-3.131-0.131","exjjq2cu8v6fq9s",443,"56.csv","","931","resources/trios/L4T1A3.jpg","39","restless",0.5,0.2,0.7,0.464836200580825,"true"
"image-keyboard-response",405,386416,"0.0-3.131-1.131","exjjq2cu8v6fq9s",443,"56.csv","","null","resources/maskTrios/BBA3.jpg","null","",NA,NA,NA,NA,""
"image-keyboard-response",406,387619,"0.0-3.131-2.131","exjjq2cu8v6fq9s",443,"56.csv","","null","resources/images/coin2.png","null","",NA,NA,NA,NA,""
"image-keyboard-response",407,389296,"0.0-3.132-0.132","exjjq2cu8v6fq9s",443,"56.csv","","1673","resources/trios/L4T1A1.jpg","38","restless",0.5,0.2,0.7,0.416014770945436,"false"
"image-keyboard-response",408,389698,"0.0-3.132-1.132","exjjq2cu8v6fq9s",443,"56.csv","","null","resources/maskTrios/BT1B.jpg","null","",NA,NA,NA,NA,""
"image-keyboard-response",409,390900,"0.0-3.132-2.132","exjjq2cu8v6fq9s",443,"56.csv","","null","resources/images/fishbone.png","null","",NA,NA,NA,NA,""
"image-keyboard-response",410,391675,"0.0-3.133-0.133","exjjq2cu8v6fq9s",443,"56.csv","","771.9999999999418","resources/trios/L4T4A1.jpg","37","restless",0.5,0.2,0.7,0.0957226346217377,"true"
"image-keyboard-response",411,392078,"0.0-3.133-1.133","exjjq2cu8v6fq9s",443,"56.csv","","null","resources/maskTrios/L4BB.jpg","null","",NA,NA,NA,NA,""
"image-keyboard-response",412,393281,"0.0-3.133-2.133","exjjq2cu8v6fq9s",443,"56.csv","","null","resources/images/coin2.png","null","",NA,NA,NA,NA,""
"image-keyboard-response",413,394119,"0.0-3.134-0.134","exjjq2cu8v6fq9s",443,"56.csv","","834","resources/trios/L4T4A1.jpg","37","restless",0.5,0.2,0.7,0.316748562479802,"true"
"image-keyboard-response",414,394522,"0.0-3.134-1.134","exjjq2cu8v6fq9s",443,"56.csv","","null","resources/maskTrios/L4BB.jpg","null","",NA,NA,NA,NA,""
"image-keyboard-response",415,395727,"0.0-3.134-2.134","exjjq2cu8v6fq9s",443,"56.csv","","null","resources/images/coin2.png","null","",NA,NA,NA,NA,""
"image-keyboard-response",416,396813,"0.0-3.135-0.135","exjjq2cu8v6fq9s",443,"56.csv","","1083","resources/trios/L2T4A1.jpg","37","restless",0.5,0.3,0.7,0.939805387595861,"false"
"image-keyboard-response",417,397216,"0.0-3.135-1.135","exjjq2cu8v6fq9s",443,"56.csv","","null","resources/maskTrios/L2BB.jpg","null","",NA,NA,NA,NA,""
"image-keyboard-response",418,398420,"0.0-3.135-2.135","exjjq2cu8v6fq9s",443,"56.csv","","null","resources/images/fishbone.png","null","",NA,NA,NA,NA,""
"image-keyboard-response",419,399525,"0.0-3.136-0.136","exjjq2cu8v6fq9s",443,"56.csv","","1101.9999999999418","resources/trios/L4T1A3.jpg","39","restless",0.5,0.3,0.7,0.0769422502142346,"true"
"image-keyboard-response",420,399928,"0.0-3.136-1.136","exjjq2cu8v6fq9s",443,"56.csv","","null","resources/maskTrios/BBA3.jpg","null","",NA,NA,NA,NA,""
"image-keyboard-response",421,401131,"0.0-3.136-2.136","exjjq2cu8v6fq9s",443,"56.csv","","null","resources/images/coin2.png","null","",NA,NA,NA,NA,""
"image-keyboard-response",422,401879,"0.0-3.137-0.137","exjjq2cu8v6fq9s",443,"56.csv","","745.0000000000582","resources/trios/L2T4A3.jpg","39","restless",0.5,0.3,0.7,0.533187209401011,"true"
"image-keyboard-response",423,402283,"0.0-3.137-1.137","exjjq2cu8v6fq9s",443,"56.csv","","null","resources/maskTrios/BBA3.jpg","null","",NA,NA,NA,NA,""
"image-keyboard-response",424,403487,"0.0-3.137-2.137","exjjq2cu8v6fq9s",443,"56.csv","","null","resources/images/coin2.png","null","",NA,NA,NA,NA,""
"image-keyboard-response",425,405213,"0.0-3.138-0.138","exjjq2cu8v6fq9s",443,"56.csv","","1722","resources/trios/L2T4A1.jpg","38","restless",0.5,0.3,0.7,0.939537796765269,"false"
"image-keyboard-response",426,405617,"0.0-3.138-1.138","exjjq2cu8v6fq9s",443,"56.csv","","null","resources/maskTrios/BT4B.jpg","null","",NA,NA,NA,NA,""
"image-keyboard-response",427,406820,"0.0-3.138-2.138","exjjq2cu8v6fq9s",443,"56.csv","","null","resources/images/fishbone.png","null","",NA,NA,NA,NA,""
"image-keyboard-response",428,408312,"0.0-3.139-0.139","exjjq2cu8v6fq9s",443,"56.csv","","1490","resources/trios/L4T1A1.jpg","37","restless",0.5,0.3,0.7,0.18885345761643,"true"
"image-keyboard-response",429,408717,"0.0-3.139-1.139","exjjq2cu8v6fq9s",443,"56.csv","","null","resources/maskTrios/L4BB.jpg","null","",NA,NA,NA,NA,""
"image-keyboard-response",430,409920,"0.0-3.139-2.139","exjjq2cu8v6fq9s",443,"56.csv","","null","resources/images/coin2.png","null","",NA,NA,NA,NA,""
"image-keyboard-response",431,412227,"0.0-3.140-0.140","exjjq2cu8v6fq9s",443,"56.csv","","2302","resources/trios/L2T4A1.jpg","37","restless",0.5,0.3,0.7,0.639255114245406,"false"
"image-keyboard-response",432,412630,"0.0-3.140-1.140","exjjq2cu8v6fq9s",443,"56.csv","","null","resources/maskTrios/L2BB.jpg","null","",NA,NA,NA,NA,""
"image-keyboard-response",433,413834,"0.0-3.140-2.140","exjjq2cu8v6fq9s",443,"56.csv","","null","resources/images/fishbone.png","null","",NA,NA,NA,NA,""
"image-keyboard-response",434,415061,"0.0-3.141-0.141","exjjq2cu8v6fq9s",443,"56.csv","","1225","resources/trios/L4T1A1.jpg","37","restless",0.5,0.3,0.6,0.327245797344113,"true"
"image-keyboard-response",435,415465,"0.0-3.141-1.141","exjjq2cu8v6fq9s",443,"56.csv","","null","resources/maskTrios/L4BB.jpg","null","",NA,NA,NA,NA,""
"image-keyboard-response",436,416668,"0.0-3.141-2.141","exjjq2cu8v6fq9s",443,"56.csv","","null","resources/images/coin2.png","null","",NA,NA,NA,NA,""
"image-keyboard-response",437,417985,"0.0-3.142-0.142","exjjq2cu8v6fq9s",443,"56.csv","","1314","resources/trios/L2T4A1.jpg","38","restless",0.5,0.2,0.6,0.551343256968851,"false"
"image-keyboard-response",438,418388,"0.0-3.142-1.142","exjjq2cu8v6fq9s",443,"56.csv","","null","resources/maskTrios/BT4B.jpg","null","",NA,NA,NA,NA,""
"image-keyboard-response",439,419591,"0.0-3.142-2.142","exjjq2cu8v6fq9s",443,"56.csv","","null","resources/images/fishbone.png","null","",NA,NA,NA,NA,""
"image-keyboard-response",440,420667,"0.0-3.143-0.143","exjjq2cu8v6fq9s",443,"56.csv","","1073","resources/trios/L4T4A3.jpg","39","restless",0.5,0.2,0.6,0.246654132629128,"true"
"image-keyboard-response",441,421070,"0.0-3.143-1.143","exjjq2cu8v6fq9s",443,"56.csv","","null","resources/maskTrios/BBA3.jpg","null","",NA,NA,NA,NA,""
"image-keyboard-response",442,422273,"0.0-3.143-2.143","exjjq2cu8v6fq9s",443,"56.csv","","null","resources/images/coin2.png","null","",NA,NA,NA,NA,""
"image-keyboard-response",443,423989,"0.0-3.144-0.144","exjjq2cu8v6fq9s",443,"56.csv","","1713","resources/trios/L4T1A1.jpg","37","restless",0.5,0.2,0.6,0.518031618940357,"false"
"image-keyboard-response",444,424392,"0.0-3.144-1.144","exjjq2cu8v6fq9s",443,"56.csv","","null","resources/maskTrios/L4BB.jpg","null","",NA,NA,NA,NA,""
"image-keyboard-response",445,425595,"0.0-3.144-2.144","exjjq2cu8v6fq9s",443,"56.csv","","null","resources/images/fishbone.png","null","",NA,NA,NA,NA,""
"image-keyboard-response",446,426891,"0.0-3.145-0.145","exjjq2cu8v6fq9s",443,"56.csv","","1293.0000000000582","resources/trios/L2T4A3.jpg","39","restless",0.5,0.2,0.6,0.322807246858218,"true"
"image-keyboard-response",447,427295,"0.0-3.145-1.145","exjjq2cu8v6fq9s",443,"56.csv","","null","resources/maskTrios/BBA3.jpg","null","",NA,NA,NA,NA,""
"image-keyboard-response",448,428498,"0.0-3.145-2.145","exjjq2cu8v6fq9s",443,"56.csv","","null","resources/images/coin2.png","null","",NA,NA,NA,NA,""
"image-keyboard-response",449,430489,"0.0-3.146-0.146","exjjq2cu8v6fq9s",443,"56.csv","","1988","resources/trios/L4T1A1.jpg","37","restless",0.5,0.2,0.6,0.618809553333288,"false"
"image-keyboard-response",450,430892,"0.0-3.146-1.146","exjjq2cu8v6fq9s",443,"56.csv","","null","resources/maskTrios/L4BB.jpg","null","",NA,NA,NA,NA,""
"image-keyboard-response",451,432095,"0.0-3.146-2.146","exjjq2cu8v6fq9s",443,"56.csv","","null","resources/images/fishbone.png","null","",NA,NA,NA,NA,""
"image-keyboard-response",452,432956,"0.0-3.147-0.147","exjjq2cu8v6fq9s",443,"56.csv","","859","resources/trios/L4T1A1.jpg","38","restless",0.5,0.2,0.6,0.105293434399367,"true"
"image-keyboard-response",453,433361,"0.0-3.147-1.147","exjjq2cu8v6fq9s",443,"56.csv","","null","resources/maskTrios/BT1B.jpg","null","",NA,NA,NA,NA,""
"image-keyboard-response",454,434565,"0.0-3.147-2.147","exjjq2cu8v6fq9s",443,"56.csv","","null","resources/images/coin2.png","null","",NA,NA,NA,NA,""
"image-keyboard-response",455,435463,"0.0-3.148-0.148","exjjq2cu8v6fq9s",443,"56.csv","","893","resources/trios/L4T4A3.jpg","39","restless",0.5,0.2,0.6,0.642088165869115,"false"
"image-keyboard-response",456,435866,"0.0-3.148-1.148","exjjq2cu8v6fq9s",443,"56.csv","","null","resources/maskTrios/BBA3.jpg","null","",NA,NA,NA,NA,""
"image-keyboard-response",457,437069,"0.0-3.148-2.148","exjjq2cu8v6fq9s",443,"56.csv","","null","resources/images/fishbone.png","null","",NA,NA,NA,NA,""
"image-keyboard-response",458,441039,"0.0-3.149-0.149","exjjq2cu8v6fq9s",443,"56.csv","","3967","resources/trios/L4T4A1.jpg","37","restless",0.5,0.2,0.6,0.504365217361078,"false"
"image-keyboard-response",459,441442,"0.0-3.149-1.149","exjjq2cu8v6fq9s",443,"56.csv","","null","resources/maskTrios/L4BB.jpg","null","",NA,NA,NA,NA,""
"image-keyboard-response",460,442645,"0.0-3.149-2.149","exjjq2cu8v6fq9s",443,"56.csv","","null","resources/images/fishbone.png","null","",NA,NA,NA,NA,""
"image-keyboard-response",461,443984,"0.0-3.150-0.150","exjjq2cu8v6fq9s",443,"56.csv","","1337","resources/trios/L2T1A3.jpg","39","restless",0.5,0.2,0.6,0.641419558722662,"false"
"image-keyboard-response",462,444388,"0.0-3.150-1.150","exjjq2cu8v6fq9s",443,"56.csv","","null","resources/maskTrios/BBA3.jpg","null","",NA,NA,NA,NA,""
"image-keyboard-response",463,445593,"0.0-3.150-2.150","exjjq2cu8v6fq9s",443,"56.csv","","null","resources/images/fishbone.png","null","",NA,NA,NA,NA,""
"image-keyboard-response",464,446826,"0.0-3.151-0.151","exjjq2cu8v6fq9s",443,"56.csv","","1230.0000000000582","resources/trios/L2T4A3.jpg","39","restless",0.5,0.2,0.6,0.816902715225001,"false"
"image-keyboard-response",465,447228,"0.0-3.151-1.151","exjjq2cu8v6fq9s",443,"56.csv","","null","resources/maskTrios/BBA3.jpg","null","",NA,NA,NA,NA,""
"image-keyboard-response",466,448431,"0.0-3.151-2.151","exjjq2cu8v6fq9s",443,"56.csv","","null","resources/images/fishbone.png","null","",NA,NA,NA,NA,""
"image-keyboard-response",467,450078,"0.0-3.152-0.152","exjjq2cu8v6fq9s",443,"56.csv","","1643.9999999999418","resources/trios/L4T1A3.jpg","37","restless",0.5,0.2,0.6,0.400250550707691,"true"
"image-keyboard-response",468,450481,"0.0-3.152-1.152","exjjq2cu8v6fq9s",443,"56.csv","","null","resources/maskTrios/L4BB.jpg","null","",NA,NA,NA,NA,""
"image-keyboard-response",469,451684,"0.0-3.152-2.152","exjjq2cu8v6fq9s",443,"56.csv","","null","resources/images/coin2.png","null","",NA,NA,NA,NA,""
"image-keyboard-response",470,452458,"0.0-3.153-0.153","exjjq2cu8v6fq9s",443,"56.csv","","770","resources/trios/L2T1A3.jpg","37","restless",0.5,0.2,0.6,0.471145586578696,"true"
"image-keyboard-response",471,452861,"0.0-3.153-1.153","exjjq2cu8v6fq9s",443,"56.csv","","null","resources/maskTrios/L2BB.jpg","null","",NA,NA,NA,NA,""
"image-keyboard-response",472,454064,"0.0-3.153-2.153","exjjq2cu8v6fq9s",443,"56.csv","","null","resources/images/coin2.png","null","",NA,NA,NA,NA,""
"image-keyboard-response",473,455067,"0.0-3.154-0.154","exjjq2cu8v6fq9s",443,"56.csv","","997","resources/trios/L2T4A3.jpg","37","restless",0.5,0.2,0.6,0.391208819881566,"true"
"image-keyboard-response",474,455471,"0.0-3.154-1.154","exjjq2cu8v6fq9s",443,"56.csv","","null","resources/maskTrios/L2BB.jpg","null","",NA,NA,NA,NA,""
"image-keyboard-response",475,456675,"0.0-3.154-2.154","exjjq2cu8v6fq9s",443,"56.csv","","null","resources/images/coin2.png","null","",NA,NA,NA,NA,""
"image-keyboard-response",476,457820,"0.0-3.155-0.155","exjjq2cu8v6fq9s",443,"56.csv","","1141","resources/trios/L4T4A3.jpg","39","restless",0.5,0.2,0.6,0.239238729005496,"true"
"image-keyboard-response",477,458224,"0.0-3.155-1.155","exjjq2cu8v6fq9s",443,"56.csv","","null","resources/maskTrios/BBA3.jpg","null","",NA,NA,NA,NA,""
"image-keyboard-response",478,459427,"0.0-3.155-2.155","exjjq2cu8v6fq9s",443,"56.csv","","null","resources/images/coin2.png","null","",NA,NA,NA,NA,""
"image-keyboard-response",479,461061,"0.0-3.156-0.156","exjjq2cu8v6fq9s",443,"56.csv","","1630","resources/trios/L2T1A1.jpg","38","restless",0.5,0.2,0.6,0.928441925872134,"false"
"image-keyboard-response",480,461463,"0.0-3.156-1.156","exjjq2cu8v6fq9s",443,"56.csv","","null","resources/maskTrios/BT1B.jpg","null","",NA,NA,NA,NA,""
"image-keyboard-response",481,462667,"0.0-3.156-2.156","exjjq2cu8v6fq9s",443,"56.csv","","null","resources/images/fishbone.png","null","",NA,NA,NA,NA,""
"image-keyboard-response",482,464581,"0.0-3.157-0.157","exjjq2cu8v6fq9s",443,"56.csv","","1911","resources/trios/L4T1A1.jpg","37","restless",0.4,0.2,0.6,0.0237841237198649,"true"
"image-keyboard-response",483,464983,"0.0-3.157-1.157","exjjq2cu8v6fq9s",443,"56.csv","","null","resources/maskTrios/L4BB.jpg","null","",NA,NA,NA,NA,""
"image-keyboard-response",484,466187,"0.0-3.157-2.157","exjjq2cu8v6fq9s",443,"56.csv","","null","resources/images/coin2.png","null","",NA,NA,NA,NA,""
"image-keyboard-response",485,466677,"0.0-3.158-0.158","exjjq2cu8v6fq9s",443,"56.csv","","487.0000000000582","resources/trios/L4T1A3.jpg","37","restless",0.4,0.2,0.6,0.642152236441613,"false"
"image-keyboard-response",486,467080,"0.0-3.158-1.158","exjjq2cu8v6fq9s",443,"56.csv","","null","resources/maskTrios/L4BB.jpg","null","",NA,NA,NA,NA,""
"image-keyboard-response",487,468283,"0.0-3.158-2.158","exjjq2cu8v6fq9s",443,"56.csv","","null","resources/images/fishbone.png","null","",NA,NA,NA,NA,""
"image-keyboard-response",488,469003,"0.0-3.159-0.159","exjjq2cu8v6fq9s",443,"56.csv","","717","resources/trios/L4T1A1.jpg","37","restless",0.4,0.2,0.7,0.235137134247215,"true"
"image-keyboard-response",489,469406,"0.0-3.159-1.159","exjjq2cu8v6fq9s",443,"56.csv","","null","resources/maskTrios/L4BB.jpg","null","",NA,NA,NA,NA,""
"image-keyboard-response",490,470610,"0.0-3.159-2.159","exjjq2cu8v6fq9s",443,"56.csv","","null","resources/images/coin2.png","null","",NA,NA,NA,NA,""
"image-keyboard-response",491,471320,"0.0-3.160-0.160","exjjq2cu8v6fq9s",443,"56.csv","","707","resources/trios/L2T4A3.jpg","39","restless",0.4,0.2,0.6,0.548311141606807,"true"
"image-keyboard-response",492,471723,"0.0-3.160-1.160","exjjq2cu8v6fq9s",443,"56.csv","","null","resources/maskTrios/BBA3.jpg","null","",NA,NA,NA,NA,""
"image-keyboard-response",493,472927,"0.0-3.160-2.160","exjjq2cu8v6fq9s",443,"56.csv","","null","resources/images/coin2.png","null","",NA,NA,NA,NA,""
"image-keyboard-response",494,474543,"0.0-3.161-0.161","exjjq2cu8v6fq9s",443,"56.csv","","1614","resources/trios/L2T4A1.jpg","37","restless",0.4,0.2,0.5,0.900347460999279,"false"
"image-keyboard-response",495,474947,"0.0-3.161-1.161","exjjq2cu8v6fq9s",443,"56.csv","","null","resources/maskTrios/L2BB.jpg","null","",NA,NA,NA,NA,""
"image-keyboard-response",496,476150,"0.0-3.161-2.161","exjjq2cu8v6fq9s",443,"56.csv","","null","resources/images/fishbone.png","null","",NA,NA,NA,NA,""
"image-keyboard-response",497,477091,"0.0-3.162-0.162","exjjq2cu8v6fq9s",443,"56.csv","","936","resources/trios/L4T4A3.jpg","39","restless",0.4,0.2,0.4,0.256619147151148,"true"
"image-keyboard-response",498,477494,"0.0-3.162-1.162","exjjq2cu8v6fq9s",443,"56.csv","","null","resources/maskTrios/BBA3.jpg","null","",NA,NA,NA,NA,""
"image-keyboard-response",499,478697,"0.0-3.162-2.162","exjjq2cu8v6fq9s",443,"56.csv","","null","resources/images/coin2.png","null","",NA,NA,NA,NA,""
"image-keyboard-response",500,479592,"0.0-3.163-0.163","exjjq2cu8v6fq9s",443,"56.csv","","891.9999999999418","resources/trios/L2T1A1.jpg","39","restless",0.4,0.2,0.4,0.445394128181339,"false"
"image-keyboard-response",501,479995,"0.0-3.163-1.163","exjjq2cu8v6fq9s",443,"56.csv","","null","resources/maskTrios/BBA1.jpg","null","",NA,NA,NA,NA,""
"image-keyboard-response",502,481199,"0.0-3.163-2.163","exjjq2cu8v6fq9s",443,"56.csv","","null","resources/images/fishbone.png","null","",NA,NA,NA,NA,""
"image-keyboard-response",503,481965,"0.0-3.164-0.164","exjjq2cu8v6fq9s",443,"56.csv","","762","resources/trios/L4T4A1.jpg","37","restless",0.5,0.2,0.4,0.448595761491747,"true"
"image-keyboard-response",504,482368,"0.0-3.164-1.164","exjjq2cu8v6fq9s",443,"56.csv","","null","resources/maskTrios/L4BB.jpg","null","",NA,NA,NA,NA,""
"image-keyboard-response",505,483571,"0.0-3.164-2.164","exjjq2cu8v6fq9s",443,"56.csv","","null","resources/images/coin2.png","null","",NA,NA,NA,NA,""
"image-keyboard-response",506,484647,"0.0-3.165-0.165","exjjq2cu8v6fq9s",443,"56.csv","","1072","resources/trios/L4T1A3.jpg","39","restless",0.5,0.2,0.4,0.933366962371417,"false"
"image-keyboard-response",507,485051,"0.0-3.165-1.165","exjjq2cu8v6fq9s",443,"56.csv","","null","resources/maskTrios/BBA3.jpg","null","",NA,NA,NA,NA,""
"image-keyboard-response",508,486256,"0.0-3.165-2.165","exjjq2cu8v6fq9s",443,"56.csv","","null","resources/images/fishbone.png","null","",NA,NA,NA,NA,""
"image-keyboard-response",509,486654,"0.0-3.166-0.166","exjjq2cu8v6fq9s",443,"56.csv","","396","resources/trios/L2T4A1.jpg","37","restless",0.5,0.2,0.4,0.13100371674811,"true"
"image-keyboard-response",510,487058,"0.0-3.166-1.166","exjjq2cu8v6fq9s",443,"56.csv","","null","resources/maskTrios/L2BB.jpg","null","",NA,NA,NA,NA,""
"image-keyboard-response",511,488261,"0.0-3.166-2.166","exjjq2cu8v6fq9s",443,"56.csv","","null","resources/images/coin2.png","null","",NA,NA,NA,NA,""
"image-keyboard-response",512,488874,"0.0-3.167-0.167","exjjq2cu8v6fq9s",443,"56.csv","","611","resources/trios/L2T4A3.jpg","37","restless",0.5,0.2,0.4,0.784652345698002,"false"
"image-keyboard-response",513,489277,"0.0-3.167-1.167","exjjq2cu8v6fq9s",443,"56.csv","","null","resources/maskTrios/L2BB.jpg","null","",NA,NA,NA,NA,""
"image-keyboard-response",514,490480,"0.0-3.167-2.167","exjjq2cu8v6fq9s",443,"56.csv","","null","resources/images/fishbone.png","null","",NA,NA,NA,NA,""
"image-keyboard-response",515,491850,"0.0-3.168-0.168","exjjq2cu8v6fq9s",443,"56.csv","","1367","resources/trios/L4T1A1.jpg","37","restless",0.5,0.3,0.4,0.604795235631974,"false"
"image-keyboard-response",516,492253,"0.0-3.168-1.168","exjjq2cu8v6fq9s",443,"56.csv","","null","resources/maskTrios/L4BB.jpg","null","",NA,NA,NA,NA,""
"image-keyboard-response",517,493456,"0.0-3.168-2.168","exjjq2cu8v6fq9s",443,"56.csv","","null","resources/images/fishbone.png","null","",NA,NA,NA,NA,""
"image-keyboard-response",518,494502,"0.0-3.169-0.169","exjjq2cu8v6fq9s",443,"56.csv","","1042","resources/trios/L2T4A1.jpg","37","restless",0.5,0.3,0.4,0.763530110578018,"false"
"image-keyboard-response",519,494904,"0.0-3.169-1.169","exjjq2cu8v6fq9s",443,"56.csv","","null","resources/maskTrios/L2BB.jpg","null","",NA,NA,NA,NA,""
"image-keyboard-response",520,496107,"0.0-3.169-2.169","exjjq2cu8v6fq9s",443,"56.csv","","null","resources/images/fishbone.png","null","",NA,NA,NA,NA,""
"image-keyboard-response",521,497493,"0.0-3.170-0.170","exjjq2cu8v6fq9s",443,"56.csv","","1383.0000000000582","resources/trios/L2T1A1.jpg","38","restless",0.5,0.3,0.4,0.0717383264877329,"true"
"image-keyboard-response",522,497897,"0.0-3.170-1.170","exjjq2cu8v6fq9s",443,"56.csv","","null","resources/maskTrios/BT1B.jpg","null","",NA,NA,NA,NA,""
"image-keyboard-response",523,499101,"0.0-3.170-2.170","exjjq2cu8v6fq9s",443,"56.csv","","null","resources/images/coin2.png","null","",NA,NA,NA,NA,""
"image-keyboard-response",524,499818,"0.0-3.171-0.171","exjjq2cu8v6fq9s",443,"56.csv","","714","resources/trios/L4T1A3.jpg","39","restless",0.5,0.3,0.4,0.257953393075506,"true"
"image-keyboard-response",525,500222,"0.0-3.171-1.171","exjjq2cu8v6fq9s",443,"56.csv","","null","resources/maskTrios/BBA3.jpg","null","",NA,NA,NA,NA,""
"image-keyboard-response",526,501425,"0.0-3.171-2.171","exjjq2cu8v6fq9s",443,"56.csv","","null","resources/images/coin2.png","null","",NA,NA,NA,NA,""
"image-keyboard-response",527,503020,"0.0-3.172-0.172","exjjq2cu8v6fq9s",443,"56.csv","","1592","resources/trios/L4T4A1.jpg","37","restless",0.4,0.3,0.4,0.0177571457549776,"true"
"image-keyboard-response",528,503425,"0.0-3.172-1.172","exjjq2cu8v6fq9s",443,"56.csv","","null","resources/maskTrios/L4BB.jpg","null","",NA,NA,NA,NA,""
"image-keyboard-response",529,504629,"0.0-3.172-2.172","exjjq2cu8v6fq9s",443,"56.csv","","null","resources/images/coin2.png","null","",NA,NA,NA,NA,""
"image-keyboard-response",530,505890,"0.0-3.173-0.173","exjjq2cu8v6fq9s",443,"56.csv","","1259.0000000000582","resources/trios/L4T1A1.jpg","38","restless",0.4,0.3,0.4,0.61753756227874,"false"
"image-keyboard-response",531,506293,"0.0-3.173-1.173","exjjq2cu8v6fq9s",443,"56.csv","","null","resources/maskTrios/BT1B.jpg","null","",NA,NA,NA,NA,""
"image-keyboard-response",532,507495,"0.0-3.173-2.173","exjjq2cu8v6fq9s",443,"56.csv","","null","resources/images/fishbone.png","null","",NA,NA,NA,NA,""
"image-keyboard-response",533,508390,"0.0-3.174-0.174","exjjq2cu8v6fq9s",443,"56.csv","","892","resources/trios/L4T1A1.jpg","37","restless",0.4,0.3,0.4,0.257048965337142,"true"
"image-keyboard-response",534,508793,"0.0-3.174-1.174","exjjq2cu8v6fq9s",443,"56.csv","","null","resources/maskTrios/L4BB.jpg","null","",NA,NA,NA,NA,""
"image-keyboard-response",535,509998,"0.0-3.174-2.174","exjjq2cu8v6fq9s",443,"56.csv","","null","resources/images/coin2.png","null","",NA,NA,NA,NA,""
"image-keyboard-response",536,515628,"0.0-3.175-0.175","exjjq2cu8v6fq9s",443,"56.csv","","5626","resources/trios/L2T4A1.jpg","39","restless",0.3,0.3,0.4,0.495887045408494,"false"
"image-keyboard-response",537,516031,"0.0-3.175-1.175","exjjq2cu8v6fq9s",443,"56.csv","","null","resources/maskTrios/BBA1.jpg","null","",NA,NA,NA,NA,""
"image-keyboard-response",538,517235,"0.0-3.175-2.175","exjjq2cu8v6fq9s",443,"56.csv","","null","resources/images/fishbone.png","null","",NA,NA,NA,NA,""
"image-keyboard-response",539,518542,"0.0-3.176-0.176","exjjq2cu8v6fq9s",443,"56.csv","","1303.9999999999418","resources/trios/L2T1A3.jpg","39","restless",0.3,0.3,0.5,0.0840100977615799,"true"
"image-keyboard-response",540,518946,"0.0-3.176-1.176","exjjq2cu8v6fq9s",443,"56.csv","","null","resources/maskTrios/BBA3.jpg","null","",NA,NA,NA,NA,""
"image-keyboard-response",541,520150,"0.0-3.176-2.176","exjjq2cu8v6fq9s",443,"56.csv","","null","resources/images/coin2.png","null","",NA,NA,NA,NA,""
"image-keyboard-response",542,523398,"0.0-3.177-0.177","exjjq2cu8v6fq9s",443,"56.csv","","3244.999999999942","resources/trios/L4T1A1.jpg","38","restless",0.4,0.3,0.5,0.27001456284539,"true"
"image-keyboard-response",543,523801,"0.0-3.177-1.177","exjjq2cu8v6fq9s",443,"56.csv","","null","resources/maskTrios/BT1B.jpg","null","",NA,NA,NA,NA,""
"image-keyboard-response",544,525004,"0.0-3.177-2.177","exjjq2cu8v6fq9s",443,"56.csv","","null","resources/images/coin2.png","null","",NA,NA,NA,NA,""
"image-keyboard-response",545,526885,"0.0-3.178-0.178","exjjq2cu8v6fq9s",443,"56.csv","","1878","resources/trios/L2T4A3.jpg","39","restless",0.4,0.3,0.5,0.38114051583779,"true"
"image-keyboard-response",546,527288,"0.0-3.178-1.178","exjjq2cu8v6fq9s",443,"56.csv","","null","resources/maskTrios/BBA3.jpg","null","",NA,NA,NA,NA,""
"image-keyboard-response",547,528494,"0.0-3.178-2.178","exjjq2cu8v6fq9s",443,"56.csv","","null","resources/images/coin2.png","null","",NA,NA,NA,NA,""
"image-keyboard-response",548,532165,"0.0-3.179-0.179","exjjq2cu8v6fq9s",443,"56.csv","","3666","resources/trios/L4T4A1.jpg","37","restless",0.4,0.3,0.5,0.556576033150089,"false"
"image-keyboard-response",549,532569,"0.0-3.179-1.179","exjjq2cu8v6fq9s",443,"56.csv","","null","resources/maskTrios/L4BB.jpg","null","",NA,NA,NA,NA,""
"image-keyboard-response",550,533772,"0.0-3.179-2.179","exjjq2cu8v6fq9s",443,"56.csv","","null","resources/images/fishbone.png","null","",NA,NA,NA,NA,""
"image-keyboard-response",551,535597,"0.0-3.180-0.180","exjjq2cu8v6fq9s",443,"56.csv","","1822","resources/trios/L4T4A3.jpg","39","restless",0.4,0.3,0.5,0.37791419071398,"true"
"image-keyboard-response",552,536000,"0.0-3.180-1.180","exjjq2cu8v6fq9s",443,"56.csv","","null","resources/maskTrios/BBA3.jpg","null","",NA,NA,NA,NA,""
"image-keyboard-response",553,537203,"0.0-3.180-2.180","exjjq2cu8v6fq9s",443,"56.csv","","null","resources/images/coin2.png","null","",NA,NA,NA,NA,""
"image-keyboard-response",554,538204,"0.0-3.181-0.181","exjjq2cu8v6fq9s",443,"56.csv","","997","resources/trios/L4T4A3.jpg","39","restless",0.4,0.3,0.6,0.791141642324389,"false"
"image-keyboard-response",555,538607,"0.0-3.181-1.181","exjjq2cu8v6fq9s",443,"56.csv","","null","resources/maskTrios/BBA3.jpg","null","",NA,NA,NA,NA,""
"image-keyboard-response",556,539810,"0.0-3.181-2.181","exjjq2cu8v6fq9s",443,"56.csv","","null","resources/images/fishbone.png","null","",NA,NA,NA,NA,""
"image-keyboard-response",557,540669,"0.0-3.182-0.182","exjjq2cu8v6fq9s",443,"56.csv","","855","resources/trios/L2T4A1.jpg","38","restless",0.4,0.3,0.6,0.52932809707098,"false"
"image-keyboard-response",558,541073,"0.0-3.182-1.182","exjjq2cu8v6fq9s",443,"56.csv","","null","resources/maskTrios/BT4B.jpg","null","",NA,NA,NA,NA,""
"image-keyboard-response",559,542277,"0.0-3.182-2.182","exjjq2cu8v6fq9s",443,"56.csv","","null","resources/images/fishbone.png","null","",NA,NA,NA,NA,""
"image-keyboard-response",560,543314,"0.0-3.183-0.183","exjjq2cu8v6fq9s",443,"56.csv","","1034","resources/trios/L2T4A1.jpg","37","restless",0.3,0.3,0.6,0.633798996331183,"false"
"image-keyboard-response",561,543717,"0.0-3.183-1.183","exjjq2cu8v6fq9s",443,"56.csv","","null","resources/maskTrios/L2BB.jpg","null","",NA,NA,NA,NA,""
"image-keyboard-response",562,544920,"0.0-3.183-2.183","exjjq2cu8v6fq9s",443,"56.csv","","null","resources/images/fishbone.png","null","",NA,NA,NA,NA,""
"image-keyboard-response",563,545643,"0.0-3.184-0.184","exjjq2cu8v6fq9s",443,"56.csv","","720","resources/trios/L2T1A1.jpg","38","restless",0.3,0.3,0.6,0.556932593132362,"false"
"image-keyboard-response",564,546047,"0.0-3.184-1.184","exjjq2cu8v6fq9s",443,"56.csv","","null","resources/maskTrios/BT1B.jpg","null","",NA,NA,NA,NA,""
"image-keyboard-response",565,547250,"0.0-3.184-2.184","exjjq2cu8v6fq9s",443,"56.csv","","null","resources/images/fishbone.png","null","",NA,NA,NA,NA,""
"image-keyboard-response",566,547952,"0.0-3.185-0.185","exjjq2cu8v6fq9s",443,"56.csv","","700","resources/trios/L4T1A3.jpg","39","restless",0.4,0.3,0.6,0.131834143728766,"true"
"image-keyboard-response",567,548355,"0.0-3.185-1.185","exjjq2cu8v6fq9s",443,"56.csv","","null","resources/maskTrios/BBA3.jpg","null","",NA,NA,NA,NA,""
"image-keyboard-response",568,549558,"0.0-3.185-2.185","exjjq2cu8v6fq9s",443,"56.csv","","null","resources/images/coin2.png","null","",NA,NA,NA,NA,""
"image-keyboard-response",569,550854,"0.0-3.186-0.186","exjjq2cu8v6fq9s",443,"56.csv","","1292","resources/trios/L4T1A1.jpg","39","restless",0.4,0.3,0.6,0.798585740841292,"false"
"image-keyboard-response",570,551260,"0.0-3.186-1.186","exjjq2cu8v6fq9s",443,"56.csv","","null","resources/maskTrios/BBA1.jpg","null","",NA,NA,NA,NA,""
"image-keyboard-response",571,552464,"0.0-3.186-2.186","exjjq2cu8v6fq9s",443,"56.csv","","null","resources/images/fishbone.png","null","",NA,NA,NA,NA,""
"image-keyboard-response",572,553291,"0.0-3.187-0.187","exjjq2cu8v6fq9s",443,"56.csv","","823","resources/trios/L4T1A1.jpg","37","restless",0.4,0.4,0.6,0.69563892701805,"false"
"image-keyboard-response",573,553693,"0.0-3.187-1.187","exjjq2cu8v6fq9s",443,"56.csv","","null","resources/maskTrios/L4BB.jpg","null","",NA,NA,NA,NA,""
"image-keyboard-response",574,554896,"0.0-3.187-2.187","exjjq2cu8v6fq9s",443,"56.csv","","null","resources/images/fishbone.png","null","",NA,NA,NA,NA,""
"image-keyboard-response",575,555382,"0.0-3.188-0.188","exjjq2cu8v6fq9s",443,"56.csv","","483","resources/trios/L4T1A1.jpg","38","restless",0.4,0.4,0.6,0.130062163164524,"true"
"image-keyboard-response",576,555785,"0.0-3.188-1.188","exjjq2cu8v6fq9s",443,"56.csv","","null","resources/maskTrios/BT1B.jpg","null","",NA,NA,NA,NA,""
"image-keyboard-response",577,556989,"0.0-3.188-2.188","exjjq2cu8v6fq9s",443,"56.csv","","null","resources/images/coin2.png","null","",NA,NA,NA,NA,""
"image-keyboard-response",578,558366,"0.0-3.189-0.189","exjjq2cu8v6fq9s",443,"56.csv","","1373","resources/trios/L4T4A1.jpg","37","restless",0.4,0.4,0.6,0.554810720075785,"false"
"image-keyboard-response",579,558770,"0.0-3.189-1.189","exjjq2cu8v6fq9s",443,"56.csv","","null","resources/maskTrios/L4BB.jpg","null","",NA,NA,NA,NA,""
"image-keyboard-response",580,559973,"0.0-3.189-2.189","exjjq2cu8v6fq9s",443,"56.csv","","null","resources/images/fishbone.png","null","",NA,NA,NA,NA,""
"image-keyboard-response",581,562498,"0.0-3.190-0.190","exjjq2cu8v6fq9s",443,"56.csv","","2521","resources/trios/L2T1A1.jpg","38","restless",0.4,0.4,0.6,0.684765623226796,"false"
"image-keyboard-response",582,562901,"0.0-3.190-1.190","exjjq2cu8v6fq9s",443,"56.csv","","null","resources/maskTrios/BT1B.jpg","null","",NA,NA,NA,NA,""
"image-keyboard-response",583,564104,"0.0-3.190-2.190","exjjq2cu8v6fq9s",443,"56.csv","","null","resources/images/fishbone.png","null","",NA,NA,NA,NA,""
"image-keyboard-response",584,565363,"0.0-3.191-0.191","exjjq2cu8v6fq9s",443,"56.csv","","1255","resources/trios/L4T1A3.jpg","39","restless",0.4,0.4,0.6,0.343162751608886,"true"
"image-keyboard-response",585,565767,"0.0-3.191-1.191","exjjq2cu8v6fq9s",443,"56.csv","","null","resources/maskTrios/BBA3.jpg","null","",NA,NA,NA,NA,""
"image-keyboard-response",586,566970,"0.0-3.191-2.191","exjjq2cu8v6fq9s",443,"56.csv","","null","resources/images/coin2.png","null","",NA,NA,NA,NA,""
"image-keyboard-response",587,568086,"0.0-3.192-0.192","exjjq2cu8v6fq9s",443,"56.csv","","1114","resources/trios/L2T1A3.jpg","39","restless",0.4,0.5,0.6,0.642400654178963,"false"
"image-keyboard-response",588,568489,"0.0-3.192-1.192","exjjq2cu8v6fq9s",443,"56.csv","","null","resources/maskTrios/BBA3.jpg","null","",NA,NA,NA,NA,""
"image-keyboard-response",589,569691,"0.0-3.192-2.192","exjjq2cu8v6fq9s",443,"56.csv","","null","resources/images/fishbone.png","null","",NA,NA,NA,NA,""
"image-keyboard-response",590,570557,"0.0-3.193-0.193","exjjq2cu8v6fq9s",443,"56.csv","","863","resources/trios/L4T1A3.jpg","39","restless",0.4,0.5,0.6,0.371442634201893,"true"
"image-keyboard-response",591,570960,"0.0-3.193-1.193","exjjq2cu8v6fq9s",443,"56.csv","","null","resources/maskTrios/BBA3.jpg","null","",NA,NA,NA,NA,""
"image-keyboard-response",592,572164,"0.0-3.193-2.193","exjjq2cu8v6fq9s",443,"56.csv","","null","resources/images/coin2.png","null","",NA,NA,NA,NA,""
"image-keyboard-response",593,573794,"0.0-3.194-0.194","exjjq2cu8v6fq9s",443,"56.csv","","1624","resources/trios/L2T4A1.jpg","37","restless",0.3,0.5,0.6,0.399651870817392,"false"
"image-keyboard-response",594,574197,"0.0-3.194-1.194","exjjq2cu8v6fq9s",443,"56.csv","","null","resources/maskTrios/L2BB.jpg","null","",NA,NA,NA,NA,""
"image-keyboard-response",595,575401,"0.0-3.194-2.194","exjjq2cu8v6fq9s",443,"56.csv","","null","resources/images/fishbone.png","null","",NA,NA,NA,NA,""
"image-keyboard-response",596,576913,"0.0-3.195-0.195","exjjq2cu8v6fq9s",443,"56.csv","","1508","resources/trios/L4T1A1.jpg","38","restless",0.3,0.5,0.6,0.22707465375048,"true"
"image-keyboard-response",597,577315,"0.0-3.195-1.195","exjjq2cu8v6fq9s",443,"56.csv","","null","resources/maskTrios/BT1B.jpg","null","",NA,NA,NA,NA,""
"image-keyboard-response",598,578518,"0.0-3.195-2.195","exjjq2cu8v6fq9s",443,"56.csv","","null","resources/images/coin2.png","null","",NA,NA,NA,NA,""
"image-keyboard-response",599,580340,"0.0-3.196-0.196","exjjq2cu8v6fq9s",443,"56.csv","","1817.9999999998836","resources/trios/L2T4A1.jpg","37","restless",0.3,0.5,0.5,0.960958755532972,"false"
"image-keyboard-response",600,580743,"0.0-3.196-1.196","exjjq2cu8v6fq9s",443,"56.csv","","null","resources/maskTrios/L2BB.jpg","null","",NA,NA,NA,NA,""
"image-keyboard-response",601,581946,"0.0-3.196-2.196","exjjq2cu8v6fq9s",443,"56.csv","","null","resources/images/fishbone.png","null","",NA,NA,NA,NA,""
"image-keyboard-response",602,584551,"0.0-3.197-0.197","exjjq2cu8v6fq9s",443,"56.csv","","2601","resources/trios/L4T4A1.jpg","38","restless",0.3,0.5,0.5,0.130180957853869,"true"
"image-keyboard-response",603,584956,"0.0-3.197-1.197","exjjq2cu8v6fq9s",443,"56.csv","","null","resources/maskTrios/BT4B.jpg","null","",NA,NA,NA,NA,""
"image-keyboard-response",604,586160,"0.0-3.197-2.197","exjjq2cu8v6fq9s",443,"56.csv","","null","resources/images/coin2.png","null","",NA,NA,NA,NA,""
"image-keyboard-response",605,587068,"0.0-3.198-0.198","exjjq2cu8v6fq9s",443,"56.csv","","905","resources/trios/L4T4A3.jpg","39","restless",0.3,0.4,0.5,0.891389527782929,"false"
"image-keyboard-response",606,587472,"0.0-3.198-1.198","exjjq2cu8v6fq9s",443,"56.csv","","null","resources/maskTrios/BBA3.jpg","null","",NA,NA,NA,NA,""
"image-keyboard-response",607,588675,"0.0-3.198-2.198","exjjq2cu8v6fq9s",443,"56.csv","","null","resources/images/fishbone.png","null","",NA,NA,NA,NA,""
"image-keyboard-response",608,589723,"0.0-3.199-0.199","exjjq2cu8v6fq9s",443,"56.csv","","1043","resources/trios/L4T4A1.jpg","38","restless",0.3,0.3,0.5,0.360719070358205,"false"
"image-keyboard-response",609,590126,"0.0-3.199-1.199","exjjq2cu8v6fq9s",443,"56.csv","","null","resources/maskTrios/BT4B.jpg","null","",NA,NA,NA,NA,""
"image-keyboard-response",610,591329,"0.0-3.199-2.199","exjjq2cu8v6fq9s",443,"56.csv","","null","resources/images/fishbone.png","null","",NA,NA,NA,NA,""
"image-keyboard-response",611,593782,"0.0-3.200-0.200","exjjq2cu8v6fq9s",443,"56.csv","","2450.0000000001164","resources/trios/L2T4A3.jpg","39","restless",0.3,0.3,0.5,0.277644269598167,"true"
"image-keyboard-response",612,594186,"0.0-3.200-1.200","exjjq2cu8v6fq9s",443,"56.csv","","null","resources/maskTrios/BBA3.jpg","null","",NA,NA,NA,NA,""
"image-keyboard-response",613,595390,"0.0-3.200-2.200","exjjq2cu8v6fq9s",443,"56.csv","","null","resources/images/coin2.png","null","",NA,NA,NA,NA,""
"image-keyboard-response",614,596494,"0.0-3.201-0.201","exjjq2cu8v6fq9s",443,"56.csv","","1100","resources/trios/L2T1A1.jpg","38","restless",0.3,0.3,0.5,0.560388971913088,"false"
"image-keyboard-response",615,596898,"0.0-3.201-1.201","exjjq2cu8v6fq9s",443,"56.csv","","null","resources/maskTrios/BT1B.jpg","null","",NA,NA,NA,NA,""
"image-keyboard-response",616,598101,"0.0-3.201-2.201","exjjq2cu8v6fq9s",443,"56.csv","","null","resources/images/fishbone.png","null","",NA,NA,NA,NA,""
"image-keyboard-response",617,599404,"0.0-3.202-0.202","exjjq2cu8v6fq9s",443,"56.csv","","1299.9999999998836","resources/trios/L4T1A3.jpg","39","restless",0.3,0.3,0.5,0.0858289376205487,"true"
"image-keyboard-response",618,599806,"0.0-3.202-1.202","exjjq2cu8v6fq9s",443,"56.csv","","null","resources/maskTrios/BBA3.jpg","null","",NA,NA,NA,NA,""
"image-keyboard-response",619,601009,"0.0-3.202-2.202","exjjq2cu8v6fq9s",443,"56.csv","","null","resources/images/coin2.png","null","",NA,NA,NA,NA,""
"image-keyboard-response",620,602032,"0.0-3.203-0.203","exjjq2cu8v6fq9s",443,"56.csv","","1019.0000000001164","resources/trios/L2T4A1.jpg","37","restless",0.3,0.3,0.5,0.936907050034458,"false"
