"trial_type","trial_index","time_elapsed","internal_node_id","subject","walkNumber","success","rt","stimulus","key_press","test_part","leftProb","midProb","rightProb","generatedNum","correct"
"pavlovia",0,975,"0.0-0.0","shn6q0q5u0r3nbn","43.csv","","","","","",NA,NA,NA,NA,""
"fullscreen",1,2487,"0.0-1.0","shn6q0q5u0r3nbn","43.csv","true","","","","",NA,NA,NA,NA,""
"html-keyboard-response",2,3307,"0.0-2.0-0.0","shn6q0q5u0r3nbn","43.csv","","818.8999999761581","<p><font size='6'>Arrrgh!</p></font><p>Can you be the best pirate? Try to find lots of gold! But beware, some islands have more gold than others, and over time, the island with the most gold may change. Can YOU figure it out? </p><font size='6'>GOOD LUCK, CAPTAIN!!!</font><p>Press any key to begin</p>","13","",NA,NA,NA,NA,""
"image-keyboard-response",3,6312,"0.0-2.0-1.0","shn6q0q5u0r3nbn","43.csv","","null","resources/image_sets/111.png","null","",NA,NA,NA,NA,""
"image-keyboard-response",4,6380,"0.0-2.0-2.0","shn6q0q5u0r3nbn","43.csv","","66.5","resources/image_sets/left_highlight.png","37","",NA,NA,NA,NA,""
"image-keyboard-response",5,8009,"0.0-2.0-3.0","shn6q0q5u0r3nbn","43.csv","","1628","resources/image_sets/mid_highlight.png","38","",NA,NA,NA,NA,""
"image-keyboard-response",6,8160,"0.0-2.0-4.0","shn6q0q5u0r3nbn","43.csv","","149.89999997615814","resources/image_sets/right_highlight.png","39","",NA,NA,NA,NA,""
"image-keyboard-response",7,8519,"0.0-2.0-5.0","shn6q0q5u0r3nbn","43.csv","","358","resources/image_sets/111.png","13","",NA,NA,NA,NA,""
"image-keyboard-response",8,8665,"0.0-2.0-6.0","shn6q0q5u0r3nbn","43.csv","","144.89999997615814","resources/images/coin2.png","13","",NA,NA,NA,NA,""
"image-keyboard-response",9,8803,"0.0-2.0-7.0","shn6q0q5u0r3nbn","43.csv","","137.39999997615814","resources/images/fishbone.png","13","",NA,NA,NA,NA,""
"html-keyboard-response",10,8991,"0.0-2.0-8.0","shn6q0q5u0r3nbn","43.csv","","186.70000004768372","<p>Your first journey will be a long one, but you will get a well deserved break at the end</p><p>After the break you will have four more journeys, but each will be much shorter than the first, and you will have breaks in between each</p><p>Press Enter to begin</p>","13","",NA,NA,NA,NA,""
"image-keyboard-response",11,9281,"0.0-3.0-0.0","shn6q0q5u0r3nbn","43.csv","","288.59999990463257","resources/trios/L1T1A1.jpg","39","restless",0.9,0.3,0.7,0.913050497302789,"false"
"image-keyboard-response",12,9687,"0.0-3.0-1.0","shn6q0q5u0r3nbn","43.csv","","null","resources/maskTrios/BBA1.jpg","null","",NA,NA,NA,NA,""
"image-keyboard-response",13,10891,"0.0-3.0-2.0","shn6q0q5u0r3nbn","43.csv","","null","resources/images/fishbone.png","null","",NA,NA,NA,NA,""
"image-keyboard-response",14,10901,"0.0-3.1-0.1","shn6q0q5u0r3nbn","43.csv","","8.400000095367432","resources/trios/L4T2A1.jpg","39","restless",0.9,0.3,0.7,0.86981744518476,"false"
"image-keyboard-response",15,11304,"0.0-3.1-1.1","shn6q0q5u0r3nbn","43.csv","","null","resources/maskTrios/BBA1.jpg","null","",NA,NA,NA,NA,""
"image-keyboard-response",16,12508,"0.0-3.1-2.1","shn6q0q5u0r3nbn","43.csv","","null","resources/images/fishbone.png","null","",NA,NA,NA,NA,""
"image-keyboard-response",17,12523,"0.0-3.2-0.2","shn6q0q5u0r3nbn","43.csv","","13.800000071525574","resources/trios/L1T1A2.jpg","39","restless",0.9,0.3,0.7,0.62126923462587,"true"
"image-keyboard-response",18,12929,"0.0-3.2-1.2","shn6q0q5u0r3nbn","43.csv","","null","resources/maskTrios/BBA2.jpg","null","",NA,NA,NA,NA,""
"image-keyboard-response",19,14133,"0.0-3.2-2.2","shn6q0q5u0r3nbn","43.csv","","null","resources/images/coin2.png","null","",NA,NA,NA,NA,""
"image-keyboard-response",20,14855,"0.0-3.3-0.3","shn6q0q5u0r3nbn","43.csv","","720.9000000953674","resources/trios/L1T2A1.jpg","39","restless",0.8,0.2,0.7,0.151585050054361,"true"
"image-keyboard-response",21,15260,"0.0-3.3-1.3","shn6q0q5u0r3nbn","43.csv","","null","resources/maskTrios/BBA1.jpg","null","",NA,NA,NA,NA,""
"image-keyboard-response",22,16463,"0.0-3.3-2.3","shn6q0q5u0r3nbn","43.csv","","null","resources/images/coin2.png","null","",NA,NA,NA,NA,""
"image-keyboard-response",23,17588,"0.0-3.4-0.4","shn6q0q5u0r3nbn","43.csv","","1124","resources/trios/L1T1A1.jpg","39","restless",0.7,0.2,0.7,0.247607041189103,"true"
"image-keyboard-response",24,17991,"0.0-3.4-1.4","shn6q0q5u0r3nbn","43.csv","","null","resources/maskTrios/BBA1.jpg","null","",NA,NA,NA,NA,""
"image-keyboard-response",25,19197,"0.0-3.4-2.4","shn6q0q5u0r3nbn","43.csv","","null","resources/images/coin2.png","null","",NA,NA,NA,NA,""
"image-keyboard-response",26,19313,"0.0-3.5-0.5","shn6q0q5u0r3nbn","43.csv","","115.59999990463257","resources/trios/L1T1A2.jpg","39","restless",0.7,0.2,0.7,0.968471478421076,"false"
"image-keyboard-response",27,19717,"0.0-3.5-1.5","shn6q0q5u0r3nbn","43.csv","","null","resources/maskTrios/BBA2.jpg","null","",NA,NA,NA,NA,""
"image-keyboard-response",28,20922,"0.0-3.5-2.5","shn6q0q5u0r3nbn","43.csv","","null","resources/images/fishbone.png","null","",NA,NA,NA,NA,""
"image-keyboard-response",29,27481,"0.0-3.6-0.6","shn6q0q5u0r3nbn","43.csv","","6558.600000023842","resources/trios/L4T1A2.jpg","39","restless",0.7,0.2,0.7,0.0899076646932138,"true"
"image-keyboard-response",30,27883,"0.0-3.6-1.6","shn6q0q5u0r3nbn","43.csv","","null","resources/maskTrios/BBA2.jpg","null","",NA,NA,NA,NA,""
"image-keyboard-response",31,29089,"0.0-3.6-2.6","shn6q0q5u0r3nbn","43.csv","","null","resources/images/coin2.png","null","",NA,NA,NA,NA,""
"image-keyboard-response",32,29114,"0.0-3.7-0.7","shn6q0q5u0r3nbn","43.csv","","23.799999952316284","resources/trios/L4T1A1.jpg","39","restless",0.7,0.2,0.7,0.851059216471894,"false"
"image-keyboard-response",33,29519,"0.0-3.7-1.7","shn6q0q5u0r3nbn","43.csv","","null","resources/maskTrios/BBA1.jpg","null","",NA,NA,NA,NA,""
"image-keyboard-response",34,30724,"0.0-3.7-2.7","shn6q0q5u0r3nbn","43.csv","","null","resources/images/fishbone.png","null","",NA,NA,NA,NA,""
"image-keyboard-response",35,30778,"0.0-3.8-0.8","shn6q0q5u0r3nbn","43.csv","","52","resources/trios/L1T2A2.jpg","38","restless",0.7,0.2,0.7,0.948779597999555,"false"
"image-keyboard-response",36,31183,"0.0-3.8-1.8","shn6q0q5u0r3nbn","43.csv","","null","resources/maskTrios/BT2B.jpg","null","",NA,NA,NA,NA,""
"image-keyboard-response",37,32384,"0.0-3.8-2.8","shn6q0q5u0r3nbn","43.csv","","null","resources/images/fishbone.png","null","",NA,NA,NA,NA,""
"image-keyboard-response",38,32607,"0.0-3.9-0.9","shn6q0q5u0r3nbn","43.csv","","221.5","resources/trios/L1T2A1.jpg","39","restless",0.8,0.2,0.7,0.529178769157029,"true"
"image-keyboard-response",39,33011,"0.0-3.9-1.9","shn6q0q5u0r3nbn","43.csv","","null","resources/maskTrios/BBA1.jpg","null","",NA,NA,NA,NA,""
"image-keyboard-response",40,34217,"0.0-3.9-2.9","shn6q0q5u0r3nbn","43.csv","","null","resources/images/coin2.png","null","",NA,NA,NA,NA,""
"image-keyboard-response",41,34334,"0.0-3.10-0.10","shn6q0q5u0r3nbn","43.csv","","115.90000009536743","resources/trios/L1T1A2.jpg","39","restless",0.8,0.3,0.7,0.421805218785843,"true"
"image-keyboard-response",42,34740,"0.0-3.10-1.10","shn6q0q5u0r3nbn","43.csv","","null","resources/maskTrios/BBA2.jpg","null","",NA,NA,NA,NA,""
"image-keyboard-response",43,35946,"0.0-3.10-2.10","shn6q0q5u0r3nbn","43.csv","","null","resources/images/coin2.png","null","",NA,NA,NA,NA,""
"image-keyboard-response",44,36220,"0.0-3.11-0.11","shn6q0q5u0r3nbn","43.csv","","272.39999997615814","resources/trios/L4T2A1.jpg","39","restless",0.8,0.3,0.7,0.604021700923549,"true"
"image-keyboard-response",45,36623,"0.0-3.11-1.11","shn6q0q5u0r3nbn","43.csv","","null","resources/maskTrios/BBA1.jpg","null","",NA,NA,NA,NA,""
"image-keyboard-response",46,37824,"0.0-3.11-2.11","shn6q0q5u0r3nbn","43.csv","","null","resources/images/coin2.png","null","",NA,NA,NA,NA,""
"image-keyboard-response",47,37975,"0.0-3.12-0.12","shn6q0q5u0r3nbn","43.csv","","149.20000004768372","resources/trios/L4T1A2.jpg","38","restless",0.8,0.3,0.7,0.740005129161213,"false"
"image-keyboard-response",48,38380,"0.0-3.12-1.12","shn6q0q5u0r3nbn","43.csv","","null","resources/maskTrios/BT1B.jpg","null","",NA,NA,NA,NA,""
"image-keyboard-response",49,39585,"0.0-3.12-2.12","shn6q0q5u0r3nbn","43.csv","","null","resources/images/fishbone.png","null","",NA,NA,NA,NA,""
"image-keyboard-response",50,39687,"0.0-3.13-0.13","shn6q0q5u0r3nbn","43.csv","","100.60000002384186","resources/trios/L4T2A2.jpg","37","restless",0.8,0.3,0.7,0.67887408886993,"true"
"image-keyboard-response",51,40091,"0.0-3.13-1.13","shn6q0q5u0r3nbn","43.csv","","null","resources/maskTrios/L4BB.jpg","null","",NA,NA,NA,NA,""
"image-keyboard-response",52,41298,"0.0-3.13-2.13","shn6q0q5u0r3nbn","43.csv","","null","resources/images/coin2.png","null","",NA,NA,NA,NA,""
"image-keyboard-response",53,41421,"0.0-3.14-0.14","shn6q0q5u0r3nbn","43.csv","","121.69999992847443","resources/trios/L1T2A1.jpg","37","restless",0.8,0.3,0.7,0.82896080830106,"false"
"image-keyboard-response",54,41823,"0.0-3.14-1.14","shn6q0q5u0r3nbn","43.csv","","null","resources/maskTrios/L1BB.jpg","null","",NA,NA,NA,NA,""
"image-keyboard-response",55,43024,"0.0-3.14-2.14","shn6q0q5u0r3nbn","43.csv","","null","resources/images/fishbone.png","null","",NA,NA,NA,NA,""
"image-keyboard-response",56,43756,"0.0-3.15-0.15","shn6q0q5u0r3nbn","43.csv","","730","resources/trios/L4T1A1.jpg","39","restless",0.8,0.3,0.7,0.700610110463088,"false"
"image-keyboard-response",57,44159,"0.0-3.15-1.15","shn6q0q5u0r3nbn","43.csv","","null","resources/maskTrios/BBA1.jpg","null","",NA,NA,NA,NA,""
"image-keyboard-response",58,45364,"0.0-3.15-2.15","shn6q0q5u0r3nbn","43.csv","","null","resources/images/fishbone.png","null","",NA,NA,NA,NA,""
"image-keyboard-response",59,45434,"0.0-3.16-0.16","shn6q0q5u0r3nbn","43.csv","","68.29999995231628","resources/trios/L1T2A1.jpg","37","restless",0.8,0.3,0.7,0.808542409156992,"false"
"image-keyboard-response",60,45837,"0.0-3.16-1.16","shn6q0q5u0r3nbn","43.csv","","null","resources/maskTrios/L1BB.jpg","null","",NA,NA,NA,NA,""
"image-keyboard-response",61,47038,"0.0-3.16-2.16","shn6q0q5u0r3nbn","43.csv","","null","resources/images/fishbone.png","null","",NA,NA,NA,NA,""
"image-keyboard-response",62,47226,"0.0-3.17-0.17","shn6q0q5u0r3nbn","43.csv","","186","resources/trios/L1T1A1.jpg","39","restless",0.8,0.3,0.7,0.294243919951402,"true"
"image-keyboard-response",63,47630,"0.0-3.17-1.17","shn6q0q5u0r3nbn","43.csv","","null","resources/maskTrios/BBA1.jpg","null","",NA,NA,NA,NA,""
"image-keyboard-response",64,48836,"0.0-3.17-2.17","shn6q0q5u0r3nbn","43.csv","","null","resources/images/coin2.png","null","",NA,NA,NA,NA,""
"image-keyboard-response",65,51698,"0.0-3.18-0.18","shn6q0q5u0r3nbn","43.csv","","2860.100000023842","resources/trios/L4T2A1.jpg","39","restless",0.8,0.3,0.7,0.0497639135424504,"true"
"image-keyboard-response",66,52102,"0.0-3.18-1.18","shn6q0q5u0r3nbn","43.csv","","null","resources/maskTrios/BBA1.jpg","null","",NA,NA,NA,NA,""
"image-keyboard-response",67,53307,"0.0-3.18-2.18","shn6q0q5u0r3nbn","43.csv","","null","resources/images/coin2.png","null","",NA,NA,NA,NA,""
"image-keyboard-response",68,53966,"0.0-3.19-0.19","shn6q0q5u0r3nbn","43.csv","","657.8999999761581","resources/trios/L4T2A1.jpg","38","restless",0.8,0.3,0.7,0.295513259046374,"true"
"image-keyboard-response",69,54370,"0.0-3.19-1.19","shn6q0q5u0r3nbn","43.csv","","null","resources/maskTrios/BT2B.jpg","null","",NA,NA,NA,NA,""
"image-keyboard-response",70,55577,"0.0-3.19-2.19","shn6q0q5u0r3nbn","43.csv","","null","resources/images/coin2.png","null","",NA,NA,NA,NA,""
"image-keyboard-response",71,55690,"0.0-3.20-0.20","shn6q0q5u0r3nbn","43.csv","","112.69999992847443","resources/trios/L4T1A1.jpg","38","restless",0.7,0.3,0.7,0.635078670359684,"false"
"image-keyboard-response",72,56096,"0.0-3.20-1.20","shn6q0q5u0r3nbn","43.csv","","null","resources/maskTrios/BT1B.jpg","null","",NA,NA,NA,NA,""
"image-keyboard-response",73,57301,"0.0-3.20-2.20","shn6q0q5u0r3nbn","43.csv","","null","resources/images/fishbone.png","null","",NA,NA,NA,NA,""
"image-keyboard-response",74,57790,"0.0-3.21-0.21","shn6q0q5u0r3nbn","43.csv","","487.59999990463257","resources/trios/L4T2A2.jpg","38","restless",0.7,0.3,0.7,0.909731359371403,"false"
"image-keyboard-response",75,58195,"0.0-3.21-1.21","shn6q0q5u0r3nbn","43.csv","","null","resources/maskTrios/BT2B.jpg","null","",NA,NA,NA,NA,""
"image-keyboard-response",76,59396,"0.0-3.21-2.21","shn6q0q5u0r3nbn","43.csv","","null","resources/images/fishbone.png","null","",NA,NA,NA,NA,""
"image-keyboard-response",77,59545,"0.0-3.22-0.22","shn6q0q5u0r3nbn","43.csv","","147.19999992847443","resources/trios/L1T1A2.jpg","39","restless",0.7,0.4,0.7,0.665246252109645,"true"
"image-keyboard-response",78,59950,"0.0-3.22-1.22","shn6q0q5u0r3nbn","43.csv","","null","resources/maskTrios/BBA2.jpg","null","",NA,NA,NA,NA,""
"image-keyboard-response",79,61157,"0.0-3.22-2.22","shn6q0q5u0r3nbn","43.csv","","null","resources/images/coin2.png","null","",NA,NA,NA,NA,""
"image-keyboard-response",80,61606,"0.0-3.23-0.23","shn6q0q5u0r3nbn","43.csv","","447.7999999523163","resources/trios/L4T1A1.jpg","39","restless",0.7,0.4,0.7,0.183177158918477,"true"
"image-keyboard-response",81,62010,"0.0-3.23-1.23","shn6q0q5u0r3nbn","43.csv","","null","resources/maskTrios/BBA1.jpg","null","",NA,NA,NA,NA,""
"image-keyboard-response",82,63215,"0.0-3.23-2.23","shn6q0q5u0r3nbn","43.csv","","null","resources/images/coin2.png","null","",NA,NA,NA,NA,""
"image-keyboard-response",83,63321,"0.0-3.24-0.24","shn6q0q5u0r3nbn","43.csv","","104.89999997615814","resources/trios/L1T2A2.jpg","39","restless",0.7,0.4,0.7,0.410822543914143,"true"
"image-keyboard-response",84,63723,"0.0-3.24-1.24","shn6q0q5u0r3nbn","43.csv","","null","resources/maskTrios/BBA2.jpg","null","",NA,NA,NA,NA,""
"image-keyboard-response",85,64925,"0.0-3.24-2.24","shn6q0q5u0r3nbn","43.csv","","null","resources/images/coin2.png","null","",NA,NA,NA,NA,""
"image-keyboard-response",86,64971,"0.0-3.25-0.25","shn6q0q5u0r3nbn","43.csv","","44.200000047683716","resources/trios/L4T2A2.jpg","39","restless",0.7,0.5,0.7,0.722942862636392,"false"
"image-keyboard-response",87,65375,"0.0-3.25-1.25","shn6q0q5u0r3nbn","43.csv","","null","resources/maskTrios/BBA2.jpg","null","",NA,NA,NA,NA,""
"image-keyboard-response",88,66578,"0.0-3.25-2.25","shn6q0q5u0r3nbn","43.csv","","null","resources/images/fishbone.png","null","",NA,NA,NA,NA,""
"image-keyboard-response",89,66648,"0.0-3.26-0.26","shn6q0q5u0r3nbn","43.csv","","68.89999997615814","resources/trios/L4T1A2.jpg","39","restless",0.7,0.5,0.7,0.755756812565499,"false"
"image-keyboard-response",90,67051,"0.0-3.26-1.26","shn6q0q5u0r3nbn","43.csv","","null","resources/maskTrios/BBA2.jpg","null","",NA,NA,NA,NA,""
"image-keyboard-response",91,68256,"0.0-3.26-2.26","shn6q0q5u0r3nbn","43.csv","","null","resources/images/fishbone.png","null","",NA,NA,NA,NA,""
"image-keyboard-response",92,68786,"0.0-3.27-0.27","shn6q0q5u0r3nbn","43.csv","","528.7999999523163","resources/trios/L4T1A2.jpg","37","restless",0.7,0.5,0.7,0.695224248009975,"true"
"image-keyboard-response",93,69191,"0.0-3.27-1.27","shn6q0q5u0r3nbn","43.csv","","null","resources/maskTrios/L4BB.jpg","null","",NA,NA,NA,NA,""
"image-keyboard-response",94,70394,"0.0-3.27-2.27","shn6q0q5u0r3nbn","43.csv","","null","resources/images/coin2.png","null","",NA,NA,NA,NA,""
"image-keyboard-response",95,72302,"0.0-3.28-0.28","shn6q0q5u0r3nbn","43.csv","","1906.8000000715256","resources/trios/L4T2A2.jpg","37","restless",0.7,0.5,0.7,0.607888785318928,"true"
"image-keyboard-response",96,72705,"0.0-3.28-1.28","shn6q0q5u0r3nbn","43.csv","","null","resources/maskTrios/L4BB.jpg","null","",NA,NA,NA,NA,""
"image-keyboard-response",97,73909,"0.0-3.28-2.28","shn6q0q5u0r3nbn","43.csv","","null","resources/images/coin2.png","null","",NA,NA,NA,NA,""
"image-keyboard-response",98,75665,"0.0-3.29-0.29","shn6q0q5u0r3nbn","43.csv","","1754.7000000476837","resources/trios/L4T2A1.jpg","37","restless",0.7,0.5,0.7,0.413280411383986,"true"
"image-keyboard-response",99,76070,"0.0-3.29-1.29","shn6q0q5u0r3nbn","43.csv","","null","resources/maskTrios/L4BB.jpg","null","",NA,NA,NA,NA,""
"image-keyboard-response",100,77272,"0.0-3.29-2.29","shn6q0q5u0r3nbn","43.csv","","null","resources/images/coin2.png","null","",NA,NA,NA,NA,""
"image-keyboard-response",101,77406,"0.0-3.30-0.30","shn6q0q5u0r3nbn","43.csv","","132.10000002384186","resources/trios/L1T2A2.jpg","37","restless",0.7,0.5,0.7,0.470250975038898,"true"
"image-keyboard-response",102,77809,"0.0-3.30-1.30","shn6q0q5u0r3nbn","43.csv","","null","resources/maskTrios/L1BB.jpg","null","",NA,NA,NA,NA,""
"image-keyboard-response",103,79014,"0.0-3.30-2.30","shn6q0q5u0r3nbn","43.csv","","null","resources/images/coin2.png","null","",NA,NA,NA,NA,""
"image-keyboard-response",104,79414,"0.0-3.31-0.31","shn6q0q5u0r3nbn","43.csv","","398.7999999523163","resources/trios/L1T1A2.jpg","37","restless",0.6,0.5,0.8,0.250555563729752,"true"
"image-keyboard-response",105,79820,"0.0-3.31-1.31","shn6q0q5u0r3nbn","43.csv","","null","resources/maskTrios/L1BB.jpg","null","",NA,NA,NA,NA,""
"image-keyboard-response",106,81024,"0.0-3.31-2.31","shn6q0q5u0r3nbn","43.csv","","null","resources/images/coin2.png","null","",NA,NA,NA,NA,""
"image-keyboard-response",107,81092,"0.0-3.32-0.32","shn6q0q5u0r3nbn","43.csv","","67.20000004768372","resources/trios/L1T2A1.jpg","37","restless",0.6,0.5,0.8,0.862800077438985,"false"
"image-keyboard-response",108,81493,"0.0-3.32-1.32","shn6q0q5u0r3nbn","43.csv","","null","resources/maskTrios/L1BB.jpg","null","",NA,NA,NA,NA,""
"image-keyboard-response",109,82696,"0.0-3.32-2.32","shn6q0q5u0r3nbn","43.csv","","null","resources/images/fishbone.png","null","",NA,NA,NA,NA,""
"image-keyboard-response",110,82801,"0.0-3.33-0.33","shn6q0q5u0r3nbn","43.csv","","104.29999995231628","resources/trios/L4T2A2.jpg","37","restless",0.6,0.5,0.8,0.874401400579427,"false"
"image-keyboard-response",111,83206,"0.0-3.33-1.33","shn6q0q5u0r3nbn","43.csv","","null","resources/maskTrios/L4BB.jpg","null","",NA,NA,NA,NA,""
"image-keyboard-response",112,84410,"0.0-3.33-2.33","shn6q0q5u0r3nbn","43.csv","","null","resources/images/fishbone.png","null","",NA,NA,NA,NA,""
"image-keyboard-response",113,84574,"0.0-3.34-0.34","shn6q0q5u0r3nbn","43.csv","","163.79999995231628","resources/trios/L1T2A1.jpg","37","restless",0.6,0.4,0.8,0.675370617002308,"false"
"image-keyboard-response",114,84980,"0.0-3.34-1.34","shn6q0q5u0r3nbn","43.csv","","null","resources/maskTrios/L1BB.jpg","null","",NA,NA,NA,NA,""
"image-keyboard-response",115,86185,"0.0-3.34-2.34","shn6q0q5u0r3nbn","43.csv","","null","resources/images/fishbone.png","null","",NA,NA,NA,NA,""
"image-keyboard-response",116,86294,"0.0-3.35-0.35","shn6q0q5u0r3nbn","43.csv","","107.69999992847443","resources/trios/L4T2A1.jpg","37","restless",0.6,0.4,0.8,0.963138208736818,"false"
"image-keyboard-response",117,86700,"0.0-3.35-1.35","shn6q0q5u0r3nbn","43.csv","","null","resources/maskTrios/L4BB.jpg","null","",NA,NA,NA,NA,""
"image-keyboard-response",118,87905,"0.0-3.35-2.35","shn6q0q5u0r3nbn","43.csv","","null","resources/images/fishbone.png","null","",NA,NA,NA,NA,""
"image-keyboard-response",119,88150,"0.0-3.36-0.36","shn6q0q5u0r3nbn","43.csv","","244.20000004768372","resources/trios/L1T2A2.jpg","37","restless",0.6,0.4,0.8,0.140656686113035,"true"
"image-keyboard-response",120,88554,"0.0-3.36-1.36","shn6q0q5u0r3nbn","43.csv","","null","resources/maskTrios/L1BB.jpg","null","",NA,NA,NA,NA,""
"image-keyboard-response",121,89759,"0.0-3.36-2.36","shn6q0q5u0r3nbn","43.csv","","null","resources/images/coin2.png","null","",NA,NA,NA,NA,""
"image-keyboard-response",122,89984,"0.0-3.37-0.37","shn6q0q5u0r3nbn","43.csv","","223.20000004768372","resources/trios/L4T1A2.jpg","37","restless",0.6,0.4,0.8,0.767328408383342,"false"
"image-keyboard-response",123,90389,"0.0-3.37-1.37","shn6q0q5u0r3nbn","43.csv","","null","resources/maskTrios/L4BB.jpg","null","",NA,NA,NA,NA,""
"image-keyboard-response",124,91594,"0.0-3.37-2.37","shn6q0q5u0r3nbn","43.csv","","null","resources/images/fishbone.png","null","",NA,NA,NA,NA,""
"image-keyboard-response",125,92356,"0.0-3.38-0.38","shn6q0q5u0r3nbn","43.csv","","759.8999999761581","resources/trios/L4T1A1.jpg","37","restless",0.7,0.4,0.8,0.590273109305573,"true"
"image-keyboard-response",126,92760,"0.0-3.38-1.38","shn6q0q5u0r3nbn","43.csv","","null","resources/maskTrios/L4BB.jpg","null","",NA,NA,NA,NA,""
"image-keyboard-response",127,93966,"0.0-3.38-2.38","shn6q0q5u0r3nbn","43.csv","","null","resources/images/coin2.png","null","",NA,NA,NA,NA,""
"image-keyboard-response",128,94607,"0.0-3.39-0.39","shn6q0q5u0r3nbn","43.csv","","639.5","resources/trios/L1T1A1.jpg","37","restless",0.7,0.3,0.8,0.868991273673409,"false"
"image-keyboard-response",129,95013,"0.0-3.39-1.39","shn6q0q5u0r3nbn","43.csv","","null","resources/maskTrios/L1BB.jpg","null","",NA,NA,NA,NA,""
"image-keyboard-response",130,96218,"0.0-3.39-2.39","shn6q0q5u0r3nbn","43.csv","","null","resources/images/fishbone.png","null","",NA,NA,NA,NA,""
"image-keyboard-response",131,96236,"0.0-3.40-0.40","shn6q0q5u0r3nbn","43.csv","","16.799999952316284","resources/trios/L1T1A1.jpg","38","restless",0.7,0.3,0.8,0.887632163261463,"false"
"image-keyboard-response",132,96640,"0.0-3.40-1.40","shn6q0q5u0r3nbn","43.csv","","null","resources/maskTrios/BT1B.jpg","null","",NA,NA,NA,NA,""
"image-keyboard-response",133,97845,"0.0-3.40-2.40","shn6q0q5u0r3nbn","43.csv","","null","resources/images/fishbone.png","null","",NA,NA,NA,NA,""
"image-keyboard-response",134,97849,"0.0-3.41-0.41","shn6q0q5u0r3nbn","43.csv","","2.5","resources/trios/L1T1A2.jpg","37","restless",0.7,0.3,0.7,0.212855876769541,"true"
"image-keyboard-response",135,98253,"0.0-3.41-1.41","shn6q0q5u0r3nbn","43.csv","","null","resources/maskTrios/L1BB.jpg","null","",NA,NA,NA,NA,""
"image-keyboard-response",136,99458,"0.0-3.41-2.41","shn6q0q5u0r3nbn","43.csv","","null","resources/images/coin2.png","null","",NA,NA,NA,NA,""
"image-keyboard-response",137,99597,"0.0-3.42-0.42","shn6q0q5u0r3nbn","43.csv","","136.69999992847443","resources/trios/L1T2A2.jpg","37","restless",0.7,0.3,0.7,0.815941444927582,"false"
"image-keyboard-response",138,99999,"0.0-3.42-1.42","shn6q0q5u0r3nbn","43.csv","","null","resources/maskTrios/L1BB.jpg","null","",NA,NA,NA,NA,""
"image-keyboard-response",139,101205,"0.0-3.42-2.42","shn6q0q5u0r3nbn","43.csv","","null","resources/images/fishbone.png","null","",NA,NA,NA,NA,""
"image-keyboard-response",140,101302,"0.0-3.43-0.43","shn6q0q5u0r3nbn","43.csv","","95.79999995231628","resources/trios/L4T1A1.jpg","37","restless",0.7,0.3,0.7,0.772796140849645,"false"
"image-keyboard-response",141,101706,"0.0-3.43-1.43","shn6q0q5u0r3nbn","43.csv","","null","resources/maskTrios/L4BB.jpg","null","",NA,NA,NA,NA,""
"image-keyboard-response",142,102912,"0.0-3.43-2.43","shn6q0q5u0r3nbn","43.csv","","null","resources/images/fishbone.png","null","",NA,NA,NA,NA,""
"image-keyboard-response",143,103096,"0.0-3.44-0.44","shn6q0q5u0r3nbn","43.csv","","182.79999995231628","resources/trios/L1T1A2.jpg","37","restless",0.7,0.3,0.7,0.758611590182924,"false"
"image-keyboard-response",144,103501,"0.0-3.44-1.44","shn6q0q5u0r3nbn","43.csv","","null","resources/maskTrios/L1BB.jpg","null","",NA,NA,NA,NA,""
"image-keyboard-response",145,104707,"0.0-3.44-2.44","shn6q0q5u0r3nbn","43.csv","","null","resources/images/fishbone.png","null","",NA,NA,NA,NA,""
"image-keyboard-response",146,111464,"0.0-3.45-0.45","shn6q0q5u0r3nbn","43.csv","","6755.800000071526","resources/trios/L4T1A1.jpg","38","restless",0.7,0.3,0.7,0.49773839984701,"false"
"image-keyboard-response",147,111866,"0.0-3.45-1.45","shn6q0q5u0r3nbn","43.csv","","null","resources/maskTrios/BT1B.jpg","null","",NA,NA,NA,NA,""
"image-keyboard-response",148,113072,"0.0-3.45-2.45","shn6q0q5u0r3nbn","43.csv","","null","resources/images/fishbone.png","null","",NA,NA,NA,NA,""
"image-keyboard-response",149,113335,"0.0-3.46-0.46","shn6q0q5u0r3nbn","43.csv","","261.40000009536743","resources/trios/L4T1A2.jpg","38","restless",0.7,0.3,0.7,0.400855883933639,"false"
"image-keyboard-response",150,113741,"0.0-3.46-1.46","shn6q0q5u0r3nbn","43.csv","","null","resources/maskTrios/BT1B.jpg","null","",NA,NA,NA,NA,""
"image-keyboard-response",151,114946,"0.0-3.46-2.46","shn6q0q5u0r3nbn","43.csv","","null","resources/images/fishbone.png","null","",NA,NA,NA,NA,""
"image-keyboard-response",152,115009,"0.0-3.47-0.47","shn6q0q5u0r3nbn","43.csv","","61.89999997615814","resources/trios/L4T1A1.jpg","38","restless",0.7,0.3,0.7,0.956854520482805,"false"
"image-keyboard-response",153,115414,"0.0-3.47-1.47","shn6q0q5u0r3nbn","43.csv","","null","resources/maskTrios/BT1B.jpg","null","",NA,NA,NA,NA,""
"image-keyboard-response",154,116616,"0.0-3.47-2.47","shn6q0q5u0r3nbn","43.csv","","null","resources/images/fishbone.png","null","",NA,NA,NA,NA,""
"image-keyboard-response",155,116704,"0.0-3.48-0.48","shn6q0q5u0r3nbn","43.csv","","87.20000004768372","resources/trios/L4T1A1.jpg","38","restless",0.7,0.3,0.7,0.209184423822616,"true"
"image-keyboard-response",156,117109,"0.0-3.48-1.48","shn6q0q5u0r3nbn","43.csv","","null","resources/maskTrios/BT1B.jpg","null","",NA,NA,NA,NA,""
"image-keyboard-response",157,118314,"0.0-3.48-2.48","shn6q0q5u0r3nbn","43.csv","","null","resources/images/coin2.png","null","",NA,NA,NA,NA,""
"image-keyboard-response",158,118437,"0.0-3.49-0.49","shn6q0q5u0r3nbn","43.csv","","122","resources/trios/L1T1A1.jpg","38","restless",0.7,0.3,0.7,0.336303723086055,"false"
"image-keyboard-response",159,118839,"0.0-3.49-1.49","shn6q0q5u0r3nbn","43.csv","","null","resources/maskTrios/BT1B.jpg","null","",NA,NA,NA,NA,""
"image-keyboard-response",160,120045,"0.0-3.49-2.49","shn6q0q5u0r3nbn","43.csv","","null","resources/images/fishbone.png","null","",NA,NA,NA,NA,""
"image-keyboard-response",161,120098,"0.0-3.50-0.50","shn6q0q5u0r3nbn","43.csv","","51.89999997615814","resources/trios/L1T1A1.jpg","38","restless",0.7,0.3,0.7,0.12666654909968,"true"
"image-keyboard-response",162,120502,"0.0-3.50-1.50","shn6q0q5u0r3nbn","43.csv","","null","resources/maskTrios/BT1B.jpg","null","",NA,NA,NA,NA,""
"image-keyboard-response",163,121706,"0.0-3.50-2.50","shn6q0q5u0r3nbn","43.csv","","null","resources/images/coin2.png","null","",NA,NA,NA,NA,""
"image-keyboard-response",164,121777,"0.0-3.51-0.51","shn6q0q5u0r3nbn","43.csv","","69.20000004768372","resources/trios/L4T2A1.jpg","38","restless",0.7,0.3,0.7,0.364169338853051,"false"
"image-keyboard-response",165,122184,"0.0-3.51-1.51","shn6q0q5u0r3nbn","43.csv","","null","resources/maskTrios/BT2B.jpg","null","",NA,NA,NA,NA,""
"image-keyboard-response",166,123386,"0.0-3.51-2.51","shn6q0q5u0r3nbn","43.csv","","null","resources/images/fishbone.png","null","",NA,NA,NA,NA,""
"image-keyboard-response",167,123575,"0.0-3.52-0.52","shn6q0q5u0r3nbn","43.csv","","188.29999995231628","resources/trios/L4T1A1.jpg","38","restless",0.7,0.3,0.7,0.676928270257354,"false"
"image-keyboard-response",168,123981,"0.0-3.52-1.52","shn6q0q5u0r3nbn","43.csv","","null","resources/maskTrios/BT1B.jpg","null","",NA,NA,NA,NA,""
"image-keyboard-response",169,125184,"0.0-3.52-2.52","shn6q0q5u0r3nbn","43.csv","","null","resources/images/fishbone.png","null","",NA,NA,NA,NA,""
"image-keyboard-response",170,125351,"0.0-3.53-0.53","shn6q0q5u0r3nbn","43.csv","","166.19999992847443","resources/trios/L4T1A2.jpg","38","restless",0.7,0.3,0.7,0.247663052174252,"true"
"image-keyboard-response",171,125754,"0.0-3.53-1.53","shn6q0q5u0r3nbn","43.csv","","null","resources/maskTrios/BT1B.jpg","null","",NA,NA,NA,NA,""
"image-keyboard-response",172,126957,"0.0-3.53-2.53","shn6q0q5u0r3nbn","43.csv","","null","resources/images/coin2.png","null","",NA,NA,NA,NA,""
"image-keyboard-response",173,127156,"0.0-3.54-0.54","shn6q0q5u0r3nbn","43.csv","","198.69999992847443","resources/trios/L4T2A1.jpg","38","restless",0.7,0.2,0.7,0.705894851333476,"false"
"image-keyboard-response",174,127563,"0.0-3.54-1.54","shn6q0q5u0r3nbn","43.csv","","null","resources/maskTrios/BT2B.jpg","null","",NA,NA,NA,NA,""
"image-keyboard-response",175,128767,"0.0-3.54-2.54","shn6q0q5u0r3nbn","43.csv","","null","resources/images/fishbone.png","null","",NA,NA,NA,NA,""
"image-keyboard-response",176,128941,"0.0-3.55-0.55","shn6q0q5u0r3nbn","43.csv","","172.20000004768372","resources/trios/L1T1A2.jpg","38","restless",0.7,0.2,0.7,0.958085907974693,"false"
"image-keyboard-response",177,129347,"0.0-3.55-1.55","shn6q0q5u0r3nbn","43.csv","","null","resources/maskTrios/BT1B.jpg","null","",NA,NA,NA,NA,""
"image-keyboard-response",178,130552,"0.0-3.55-2.55","shn6q0q5u0r3nbn","43.csv","","null","resources/images/fishbone.png","null","",NA,NA,NA,NA,""
"image-keyboard-response",179,130745,"0.0-3.56-0.56","shn6q0q5u0r3nbn","43.csv","","192.60000002384186","resources/trios/L4T2A1.jpg","37","restless",0.6,0.2,0.7,0.407833601841544,"true"
"image-keyboard-response",180,131148,"0.0-3.56-1.56","shn6q0q5u0r3nbn","43.csv","","null","resources/maskTrios/L4BB.jpg","null","",NA,NA,NA,NA,""
"image-keyboard-response",181,132352,"0.0-3.56-2.56","shn6q0q5u0r3nbn","43.csv","","null","resources/images/coin2.png","null","",NA,NA,NA,NA,""
"image-keyboard-response",182,132484,"0.0-3.57-0.57","shn6q0q5u0r3nbn","43.csv","","130","resources/trios/L4T1A1.jpg","38","restless",0.6,0.3,0.7,0.413650149374652,"false"
"image-keyboard-response",183,132890,"0.0-3.57-1.57","shn6q0q5u0r3nbn","43.csv","","null","resources/maskTrios/BT1B.jpg","null","",NA,NA,NA,NA,""
"image-keyboard-response",184,134095,"0.0-3.57-2.57","shn6q0q5u0r3nbn","43.csv","","null","resources/images/fishbone.png","null","",NA,NA,NA,NA,""
"image-keyboard-response",185,134113,"0.0-3.58-0.58","shn6q0q5u0r3nbn","43.csv","","15.799999952316284","resources/trios/L1T1A1.jpg","37","restless",0.6,0.4,0.7,0.475189260973408,"true"
"image-keyboard-response",186,134518,"0.0-3.58-1.58","shn6q0q5u0r3nbn","43.csv","","null","resources/maskTrios/L1BB.jpg","null","",NA,NA,NA,NA,""
"image-keyboard-response",187,135722,"0.0-3.58-2.58","shn6q0q5u0r3nbn","43.csv","","null","resources/images/coin2.png","null","",NA,NA,NA,NA,""
"image-keyboard-response",188,135838,"0.0-3.59-0.59","shn6q0q5u0r3nbn","43.csv","","115.60000002384186","resources/trios/L1T2A2.jpg","37","restless",0.6,0.4,0.7,0.923429080156389,"false"
"image-keyboard-response",189,136240,"0.0-3.59-1.59","shn6q0q5u0r3nbn","43.csv","","null","resources/maskTrios/L1BB.jpg","null","",NA,NA,NA,NA,""
"image-keyboard-response",190,137445,"0.0-3.59-2.59","shn6q0q5u0r3nbn","43.csv","","null","resources/images/fishbone.png","null","",NA,NA,NA,NA,""
"image-keyboard-response",191,139140,"0.0-3.60-0.60","shn6q0q5u0r3nbn","43.csv","","1693.6000000238419","resources/trios/L1T2A2.jpg","37","restless",0.6,0.5,0.6,0.425247383697744,"true"
"image-keyboard-response",192,139541,"0.0-3.60-1.60","shn6q0q5u0r3nbn","43.csv","","null","resources/maskTrios/L1BB.jpg","null","",NA,NA,NA,NA,""
"image-keyboard-response",193,140746,"0.0-3.60-2.60","shn6q0q5u0r3nbn","43.csv","","null","resources/images/coin2.png","null","",NA,NA,NA,NA,""
"image-keyboard-response",194,141394,"0.0-3.61-0.61","shn6q0q5u0r3nbn","43.csv","","646.6000000238419","resources/trios/L1T2A2.jpg","37","restless",0.6,0.5,0.6,0.196454674444455,"true"
"image-keyboard-response",195,141801,"0.0-3.61-1.61","shn6q0q5u0r3nbn","43.csv","","null","resources/maskTrios/L1BB.jpg","null","",NA,NA,NA,NA,""
"image-keyboard-response",196,143004,"0.0-3.61-2.61","shn6q0q5u0r3nbn","43.csv","","null","resources/images/coin2.png","null","",NA,NA,NA,NA,""
"image-keyboard-response",197,143102,"0.0-3.62-0.62","shn6q0q5u0r3nbn","43.csv","","96.39999997615814","resources/trios/L1T1A2.jpg","38","restless",0.6,0.5,0.7,0.791127769194258,"false"
"image-keyboard-response",198,143504,"0.0-3.62-1.62","shn6q0q5u0r3nbn","43.csv","","null","resources/maskTrios/BT1B.jpg","null","",NA,NA,NA,NA,""
"image-keyboard-response",199,144709,"0.0-3.62-2.62","shn6q0q5u0r3nbn","43.csv","","null","resources/images/fishbone.png","null","",NA,NA,NA,NA,""
"image-keyboard-response",200,144841,"0.0-3.63-0.63","shn6q0q5u0r3nbn","43.csv","","132","resources/trios/L4T1A2.jpg","37","restless",0.6,0.5,0.7,0.953916178132411,"false"
"image-keyboard-response",201,145247,"0.0-3.63-1.63","shn6q0q5u0r3nbn","43.csv","","null","resources/maskTrios/L4BB.jpg","null","",NA,NA,NA,NA,""
"image-keyboard-response",202,146452,"0.0-3.63-2.63","shn6q0q5u0r3nbn","43.csv","","null","resources/images/fishbone.png","null","",NA,NA,NA,NA,""
"image-keyboard-response",203,146622,"0.0-3.64-0.64","shn6q0q5u0r3nbn","43.csv","","168.60000002384186","resources/trios/L4T1A1.jpg","37","restless",0.6,0.5,0.8,0.296597403206061,"true"
"image-keyboard-response",204,147025,"0.0-3.64-1.64","shn6q0q5u0r3nbn","43.csv","","null","resources/maskTrios/L4BB.jpg","null","",NA,NA,NA,NA,""
"image-keyboard-response",205,148230,"0.0-3.64-2.64","shn6q0q5u0r3nbn","43.csv","","null","resources/images/coin2.png","null","",NA,NA,NA,NA,""
"image-keyboard-response",206,148282,"0.0-3.65-0.65","shn6q0q5u0r3nbn","43.csv","","50.5","resources/trios/L1T1A1.jpg","37","restless",0.6,0.4,0.8,0.990064955370948,"false"
"image-keyboard-response",207,148683,"0.0-3.65-1.65","shn6q0q5u0r3nbn","43.csv","","null","resources/maskTrios/L1BB.jpg","null","",NA,NA,NA,NA,""
"image-keyboard-response",208,149888,"0.0-3.65-2.65","shn6q0q5u0r3nbn","43.csv","","null","resources/images/fishbone.png","null","",NA,NA,NA,NA,""
"image-keyboard-response",209,150272,"0.0-3.66-0.66","shn6q0q5u0r3nbn","43.csv","","383.10000002384186","resources/trios/L1T2A1.jpg","38","restless",0.6,0.5,0.8,0.503847397144079,"false"
"image-keyboard-response",210,150677,"0.0-3.66-1.66","shn6q0q5u0r3nbn","43.csv","","null","resources/maskTrios/BT2B.jpg","null","",NA,NA,NA,NA,""
"image-keyboard-response",211,151882,"0.0-3.66-2.66","shn6q0q5u0r3nbn","43.csv","","null","resources/images/fishbone.png","null","",NA,NA,NA,NA,""
"image-keyboard-response",212,155979,"0.0-3.67-0.67","shn6q0q5u0r3nbn","43.csv","","4095.7999999523163","resources/trios/L4T2A2.jpg","37","restless",0.5,0.5,0.8,0.832140183015398,"false"
"image-keyboard-response",213,156384,"0.0-3.67-1.67","shn6q0q5u0r3nbn","43.csv","","null","resources/maskTrios/L4BB.jpg","null","",NA,NA,NA,NA,""
"image-keyboard-response",214,157589,"0.0-3.67-2.67","shn6q0q5u0r3nbn","43.csv","","null","resources/images/fishbone.png","null","",NA,NA,NA,NA,""
"image-keyboard-response",215,157738,"0.0-3.68-0.68","shn6q0q5u0r3nbn","43.csv","","147.60000002384186","resources/trios/L1T1A1.jpg","37","restless",0.6,0.5,0.7,0.16454810621008,"true"
"image-keyboard-response",216,158144,"0.0-3.68-1.68","shn6q0q5u0r3nbn","43.csv","","null","resources/maskTrios/L1BB.jpg","null","",NA,NA,NA,NA,""
"image-keyboard-response",217,159349,"0.0-3.68-2.68","shn6q0q5u0r3nbn","43.csv","","null","resources/images/coin2.png","null","",NA,NA,NA,NA,""
"image-keyboard-response",218,159460,"0.0-3.69-0.69","shn6q0q5u0r3nbn","43.csv","","109.89999997615814","resources/trios/L1T2A2.jpg","37","restless",0.6,0.5,0.7,0.683807682350286,"false"
"image-keyboard-response",219,159865,"0.0-3.69-1.69","shn6q0q5u0r3nbn","43.csv","","null","resources/maskTrios/L1BB.jpg","null","",NA,NA,NA,NA,""
"image-keyboard-response",220,161070,"0.0-3.69-2.69","shn6q0q5u0r3nbn","43.csv","","null","resources/images/fishbone.png","null","",NA,NA,NA,NA,""
"image-keyboard-response",221,161101,"0.0-3.70-0.70","shn6q0q5u0r3nbn","43.csv","","30.100000023841858","resources/trios/L4T2A2.jpg","38","restless",0.6,0.5,0.7,0.273842031037285,"true"
"image-keyboard-response",222,161503,"0.0-3.70-1.70","shn6q0q5u0r3nbn","43.csv","","null","resources/maskTrios/BT2B.jpg","null","",NA,NA,NA,NA,""
"image-keyboard-response",223,162705,"0.0-3.70-2.70","shn6q0q5u0r3nbn","43.csv","","null","resources/images/coin2.png","null","",NA,NA,NA,NA,""
"image-keyboard-response",224,162812,"0.0-3.71-0.71","shn6q0q5u0r3nbn","43.csv","","105.80000007152557","resources/trios/L4T1A2.jpg","38","restless",0.6,0.5,0.7,0.493369805922764,"true"
"image-keyboard-response",225,163215,"0.0-3.71-1.71","shn6q0q5u0r3nbn","43.csv","","null","resources/maskTrios/BT1B.jpg","null","",NA,NA,NA,NA,""
"image-keyboard-response",226,164421,"0.0-3.71-2.71","shn6q0q5u0r3nbn","43.csv","","null","resources/images/coin2.png","null","",NA,NA,NA,NA,""
"image-keyboard-response",227,164558,"0.0-3.72-0.72","shn6q0q5u0r3nbn","43.csv","","135.79999995231628","resources/trios/L1T1A2.jpg","38","restless",0.6,0.5,0.7,0.511519387382365,"false"
"image-keyboard-response",228,164961,"0.0-3.72-1.72","shn6q0q5u0r3nbn","43.csv","","null","resources/maskTrios/BT1B.jpg","null","",NA,NA,NA,NA,""
"image-keyboard-response",229,166168,"0.0-3.72-2.72","shn6q0q5u0r3nbn","43.csv","","null","resources/images/fishbone.png","null","",NA,NA,NA,NA,""
"image-keyboard-response",230,166280,"0.0-3.73-0.73","shn6q0q5u0r3nbn","43.csv","","110.70000004768372","resources/trios/L4T2A2.jpg","38","restless",0.6,0.5,0.7,0.914708726733591,"false"
"image-keyboard-response",231,166684,"0.0-3.73-1.73","shn6q0q5u0r3nbn","43.csv","","null","resources/maskTrios/BT2B.jpg","null","",NA,NA,NA,NA,""
"image-keyboard-response",232,167885,"0.0-3.73-2.73","shn6q0q5u0r3nbn","43.csv","","null","resources/images/fishbone.png","null","",NA,NA,NA,NA,""
"image-keyboard-response",233,167998,"0.0-3.74-0.74","shn6q0q5u0r3nbn","43.csv","","111.29999995231628","resources/trios/L1T1A2.jpg","38","restless",0.6,0.5,0.7,0.504088179073119,"false"
"image-keyboard-response",234,168400,"0.0-3.74-1.74","shn6q0q5u0r3nbn","43.csv","","null","resources/maskTrios/BT1B.jpg","null","",NA,NA,NA,NA,""
"image-keyboard-response",235,169605,"0.0-3.74-2.74","shn6q0q5u0r3nbn","43.csv","","null","resources/images/fishbone.png","null","",NA,NA,NA,NA,""
"image-keyboard-response",236,169611,"0.0-3.75-0.75","shn6q0q5u0r3nbn","43.csv","","4.5","resources/trios/L4T2A2.jpg","37","restless",0.6,0.5,0.7,0.533892218416596,"true"
"image-keyboard-response",237,170016,"0.0-3.75-1.75","shn6q0q5u0r3nbn","43.csv","","null","resources/maskTrios/L4BB.jpg","null","",NA,NA,NA,NA,""
"image-keyboard-response",238,171220,"0.0-3.75-2.75","shn6q0q5u0r3nbn","43.csv","","null","resources/images/coin2.png","null","",NA,NA,NA,NA,""
"image-keyboard-response",239,171701,"0.0-3.76-0.76","shn6q0q5u0r3nbn","43.csv","","479.89999997615814","resources/trios/L4T2A2.jpg","37","restless",0.6,0.5,0.7,0.151923082285581,"true"
"image-keyboard-response",240,172106,"0.0-3.76-1.76","shn6q0q5u0r3nbn","43.csv","","null","resources/maskTrios/L4BB.jpg","null","",NA,NA,NA,NA,""
"image-keyboard-response",241,173313,"0.0-3.76-2.76","shn6q0q5u0r3nbn","43.csv","","null","resources/images/coin2.png","null","",NA,NA,NA,NA,""
"image-keyboard-response",242,174012,"0.0-3.77-0.77","shn6q0q5u0r3nbn","43.csv","","697.1000000238419","resources/trios/L1T2A2.jpg","37","restless",0.7,0.5,0.6,0.341275267416579,"true"
"image-keyboard-response",243,174417,"0.0-3.77-1.77","shn6q0q5u0r3nbn","43.csv","","null","resources/maskTrios/L1BB.jpg","null","",NA,NA,NA,NA,""
"image-keyboard-response",244,175624,"0.0-3.77-2.77","shn6q0q5u0r3nbn","43.csv","","null","resources/images/coin2.png","null","",NA,NA,NA,NA,""
"image-keyboard-response",245,175625,"0.0-3.78-0.78","shn6q0q5u0r3nbn","43.csv","","0.20000004768371582","resources/trios/L1T1A1.jpg","37","restless",0.7,0.5,0.6,0.503847922843919,"true"
"image-keyboard-response",246,176029,"0.0-3.78-1.78","shn6q0q5u0r3nbn","43.csv","","null","resources/maskTrios/L1BB.jpg","null","",NA,NA,NA,NA,""
"image-keyboard-response",247,177232,"0.0-3.78-2.78","shn6q0q5u0r3nbn","43.csv","","null","resources/images/coin2.png","null","",NA,NA,NA,NA,""
"image-keyboard-response",248,177270,"0.0-3.79-0.79","shn6q0q5u0r3nbn","43.csv","","37.799999952316284","resources/trios/L1T1A2.jpg","37","restless",0.7,0.5,0.6,0.77855635034041,"false"
"image-keyboard-response",249,177676,"0.0-3.79-1.79","shn6q0q5u0r3nbn","43.csv","","null","resources/maskTrios/L1BB.jpg","null","",NA,NA,NA,NA,""
"image-keyboard-response",250,178881,"0.0-3.79-2.79","shn6q0q5u0r3nbn","43.csv","","null","resources/images/fishbone.png","null","",NA,NA,NA,NA,""
"image-keyboard-response",251,179104,"0.0-3.80-0.80","shn6q0q5u0r3nbn","43.csv","","221.10000002384186","resources/trios/L1T2A2.jpg","37","restless",0.7,0.5,0.6,0.624207050733015,"true"
"image-keyboard-response",252,179509,"0.0-3.80-1.80","shn6q0q5u0r3nbn","43.csv","","null","resources/maskTrios/L1BB.jpg","null","",NA,NA,NA,NA,""
"image-keyboard-response",253,180714,"0.0-3.80-2.80","shn6q0q5u0r3nbn","43.csv","","null","resources/images/coin2.png","null","",NA,NA,NA,NA,""
"image-keyboard-response",254,180761,"0.0-3.81-0.81","shn6q0q5u0r3nbn","43.csv","","45.39999997615814","resources/trios/L4T2A2.jpg","39","restless",0.7,0.5,0.6,0.223046206363151,"true"
"image-keyboard-response",255,181165,"0.0-3.81-1.81","shn6q0q5u0r3nbn","43.csv","","null","resources/maskTrios/BBA2.jpg","null","",NA,NA,NA,NA,""
"image-keyboard-response",256,182369,"0.0-3.81-2.81","shn6q0q5u0r3nbn","43.csv","","null","resources/images/coin2.png","null","",NA,NA,NA,NA,""
"image-keyboard-response",257,183200,"0.0-3.82-0.82","shn6q0q5u0r3nbn","43.csv","","829.4000000953674","resources/trios/L1T1A2.jpg","39","restless",0.7,0.5,0.6,0.310049671003634,"true"
"image-keyboard-response",258,183602,"0.0-3.82-1.82","shn6q0q5u0r3nbn","43.csv","","null","resources/maskTrios/BBA2.jpg","null","",NA,NA,NA,NA,""
"image-keyboard-response",259,184804,"0.0-3.82-2.82","shn6q0q5u0r3nbn","43.csv","","null","resources/images/coin2.png","null","",NA,NA,NA,NA,""
"image-keyboard-response",260,185637,"0.0-3.83-0.83","shn6q0q5u0r3nbn","43.csv","","832.7000000476837","resources/trios/L1T1A1.jpg","39","restless",0.7,0.5,0.6,0.191638831248839,"true"
"image-keyboard-response",261,186042,"0.0-3.83-1.83","shn6q0q5u0r3nbn","43.csv","","null","resources/maskTrios/BBA1.jpg","null","",NA,NA,NA,NA,""
"image-keyboard-response",262,187248,"0.0-3.83-2.83","shn6q0q5u0r3nbn","43.csv","","null","resources/images/coin2.png","null","",NA,NA,NA,NA,""
"image-keyboard-response",263,187310,"0.0-3.84-0.84","shn6q0q5u0r3nbn","43.csv","","60.39999997615814","resources/trios/L4T2A2.jpg","39","restless",0.7,0.5,0.6,0.427981783712048,"true"
"image-keyboard-response",264,187711,"0.0-3.84-1.84","shn6q0q5u0r3nbn","43.csv","","null","resources/maskTrios/BBA2.jpg","null","",NA,NA,NA,NA,""
"image-keyboard-response",265,188917,"0.0-3.84-2.84","shn6q0q5u0r3nbn","43.csv","","null","resources/images/coin2.png","null","",NA,NA,NA,NA,""
"image-keyboard-response",266,188923,"0.0-3.85-0.85","shn6q0q5u0r3nbn","43.csv","","4.900000095367432","resources/trios/L1T1A2.jpg","39","restless",0.7,0.6,0.6,0.987410761921149,"false"
"image-keyboard-response",267,189328,"0.0-3.85-1.85","shn6q0q5u0r3nbn","43.csv","","null","resources/maskTrios/BBA2.jpg","null","",NA,NA,NA,NA,""
"image-keyboard-response",268,190533,"0.0-3.85-2.85","shn6q0q5u0r3nbn","43.csv","","null","resources/images/fishbone.png","null","",NA,NA,NA,NA,""
"image-keyboard-response",269,190686,"0.0-3.86-0.86","shn6q0q5u0r3nbn","43.csv","","151","resources/trios/L4T2A1.jpg","38","restless",0.7,0.6,0.6,0.943146913566743,"false"
"image-keyboard-response",270,191089,"0.0-3.86-1.86","shn6q0q5u0r3nbn","43.csv","","null","resources/maskTrios/BT2B.jpg","null","",NA,NA,NA,NA,""
"image-keyboard-response",271,192293,"0.0-3.86-2.86","shn6q0q5u0r3nbn","43.csv","","null","resources/images/fishbone.png","null","",NA,NA,NA,NA,""
"image-keyboard-response",272,192298,"0.0-3.87-0.87","shn6q0q5u0r3nbn","43.csv","","3","resources/trios/L1T1A2.jpg","39","restless",0.7,0.6,0.7,0.742035282234574,"false"
"image-keyboard-response",273,192704,"0.0-3.87-1.87","shn6q0q5u0r3nbn","43.csv","","null","resources/maskTrios/BBA2.jpg","null","",NA,NA,NA,NA,""
"image-keyboard-response",274,193906,"0.0-3.87-2.87","shn6q0q5u0r3nbn","43.csv","","null","resources/images/fishbone.png","null","",NA,NA,NA,NA,""
"image-keyboard-response",275,193969,"0.0-3.88-0.88","shn6q0q5u0r3nbn","43.csv","","61.10000002384186","resources/trios/L1T2A1.jpg","38","restless",0.6,0.6,0.7,0.566709052639104,"true"
"image-keyboard-response",276,194373,"0.0-3.88-1.88","shn6q0q5u0r3nbn","43.csv","","null","resources/maskTrios/BT2B.jpg","null","",NA,NA,NA,NA,""
"image-keyboard-response",277,195578,"0.0-3.88-2.88","shn6q0q5u0r3nbn","43.csv","","null","resources/images/coin2.png","null","",NA,NA,NA,NA,""
"image-keyboard-response",278,195901,"0.0-3.89-0.89","shn6q0q5u0r3nbn","43.csv","","320.8000000715256","resources/trios/L1T1A1.jpg","37","restless",0.6,0.6,0.7,0.711753407924364,"false"
"image-keyboard-response",279,196305,"0.0-3.89-1.89","shn6q0q5u0r3nbn","43.csv","","null","resources/maskTrios/L1BB.jpg","null","",NA,NA,NA,NA,""
"image-keyboard-response",280,197509,"0.0-3.89-2.89","shn6q0q5u0r3nbn","43.csv","","null","resources/images/fishbone.png","null","",NA,NA,NA,NA,""
"image-keyboard-response",281,197634,"0.0-3.90-0.90","shn6q0q5u0r3nbn","43.csv","","123","resources/trios/L1T2A2.jpg","39","restless",0.6,0.6,0.7,0.162872142292684,"true"
"image-keyboard-response",282,198039,"0.0-3.90-1.90","shn6q0q5u0r3nbn","43.csv","","null","resources/maskTrios/BBA2.jpg","null","",NA,NA,NA,NA,""
"image-keyboard-response",283,199245,"0.0-3.90-2.90","shn6q0q5u0r3nbn","43.csv","","null","resources/images/coin2.png","null","",NA,NA,NA,NA,""
"image-keyboard-response",284,199350,"0.0-3.91-0.91","shn6q0q5u0r3nbn","43.csv","","103.29999995231628","resources/trios/L1T1A1.jpg","39","restless",0.6,0.6,0.7,0.821169560797924,"false"
"image-keyboard-response",285,199756,"0.0-3.91-1.91","shn6q0q5u0r3nbn","43.csv","","null","resources/maskTrios/BBA1.jpg","null","",NA,NA,NA,NA,""
"image-keyboard-response",286,200960,"0.0-3.91-2.91","shn6q0q5u0r3nbn","43.csv","","null","resources/images/fishbone.png","null","",NA,NA,NA,NA,""
"image-keyboard-response",287,201022,"0.0-3.92-0.92","shn6q0q5u0r3nbn","43.csv","","60.300000071525574","resources/trios/L4T1A2.jpg","39","restless",0.6,0.6,0.7,0.703531590157244,"false"
"image-keyboard-response",288,201425,"0.0-3.92-1.92","shn6q0q5u0r3nbn","43.csv","","null","resources/maskTrios/BBA2.jpg","null","",NA,NA,NA,NA,""
"image-keyboard-response",289,202631,"0.0-3.92-2.92","shn6q0q5u0r3nbn","43.csv","","null","resources/images/fishbone.png","null","",NA,NA,NA,NA,""
"image-keyboard-response",290,202660,"0.0-3.93-0.93","shn6q0q5u0r3nbn","43.csv","","28","resources/trios/L1T1A2.jpg","39","restless",0.6,0.6,0.7,0.148820489650942,"true"
"image-keyboard-response",291,203066,"0.0-3.93-1.93","shn6q0q5u0r3nbn","43.csv","","null","resources/maskTrios/BBA2.jpg","null","",NA,NA,NA,NA,""
"image-keyboard-response",292,204269,"0.0-3.93-2.93","shn6q0q5u0r3nbn","43.csv","","null","resources/images/coin2.png","null","",NA,NA,NA,NA,""
"image-keyboard-response",293,204281,"0.0-3.94-0.94","shn6q0q5u0r3nbn","43.csv","","10.200000047683716","resources/trios/L1T2A2.jpg","38","restless",0.6,0.6,0.7,0.145392909018104,"true"
"image-keyboard-response",294,204684,"0.0-3.94-1.94","shn6q0q5u0r3nbn","43.csv","","null","resources/maskTrios/BT2B.jpg","null","",NA,NA,NA,NA,""
"image-keyboard-response",295,205888,"0.0-3.94-2.94","shn6q0q5u0r3nbn","43.csv","","null","resources/images/coin2.png","null","",NA,NA,NA,NA,""
"image-keyboard-response",296,206256,"0.0-3.95-0.95","shn6q0q5u0r3nbn","43.csv","","367.10000002384186","resources/trios/L1T2A1.jpg","37","restless",0.6,0.6,0.7,0.674092377495568,"false"
"image-keyboard-response",297,206660,"0.0-3.95-1.95","shn6q0q5u0r3nbn","43.csv","","null","resources/maskTrios/L1BB.jpg","null","",NA,NA,NA,NA,""
"image-keyboard-response",298,207865,"0.0-3.95-2.95","shn6q0q5u0r3nbn","43.csv","","null","resources/images/fishbone.png","null","",NA,NA,NA,NA,""
"image-keyboard-response",299,208329,"0.0-3.96-0.96","shn6q0q5u0r3nbn","43.csv","","463.60000002384186","resources/trios/L4T2A2.jpg","38","restless",0.6,0.6,0.7,0.774248709956749,"false"
"image-keyboard-response",300,208730,"0.0-3.96-1.96","shn6q0q5u0r3nbn","43.csv","","null","resources/maskTrios/BT2B.jpg","null","",NA,NA,NA,NA,""
"image-keyboard-response",301,209937,"0.0-3.96-2.96","shn6q0q5u0r3nbn","43.csv","","null","resources/images/fishbone.png","null","",NA,NA,NA,NA,""
"image-keyboard-response",302,210146,"0.0-3.97-0.97","shn6q0q5u0r3nbn","43.csv","","207.89999997615814","resources/trios/L1T2A2.jpg","38","restless",0.6,0.6,0.7,0.103120182498749,"true"
"image-keyboard-response",303,210550,"0.0-3.97-1.97","shn6q0q5u0r3nbn","43.csv","","null","resources/maskTrios/BT2B.jpg","null","",NA,NA,NA,NA,""
"image-keyboard-response",304,211753,"0.0-3.97-2.97","shn6q0q5u0r3nbn","43.csv","","null","resources/images/coin2.png","null","",NA,NA,NA,NA,""
"image-keyboard-response",305,211861,"0.0-3.98-0.98","shn6q0q5u0r3nbn","43.csv","","106.19999992847443","resources/trios/L4T2A2.jpg","37","restless",0.5,0.6,0.7,0.0290917795077112,"true"
"image-keyboard-response",306,212267,"0.0-3.98-1.98","shn6q0q5u0r3nbn","43.csv","","null","resources/maskTrios/L4BB.jpg","null","",NA,NA,NA,NA,""
"image-keyboard-response",307,213472,"0.0-3.98-2.98","shn6q0q5u0r3nbn","43.csv","","null","resources/images/coin2.png","null","",NA,NA,NA,NA,""
"image-keyboard-response",308,213481,"0.0-3.99-0.99","shn6q0q5u0r3nbn","43.csv","","7.699999928474426","resources/trios/L1T1A1.jpg","37","restless",0.5,0.6,0.8,0.431800367867887,"true"
"image-keyboard-response",309,213885,"0.0-3.99-1.99","shn6q0q5u0r3nbn","43.csv","","null","resources/maskTrios/L1BB.jpg","null","",NA,NA,NA,NA,""
"image-keyboard-response",310,215087,"0.0-3.99-2.99","shn6q0q5u0r3nbn","43.csv","","null","resources/images/coin2.png","null","",NA,NA,NA,NA,""
"image-keyboard-response",311,215214,"0.0-3.100-0.100","shn6q0q5u0r3nbn","43.csv","","125.5","resources/trios/L4T2A2.jpg","37","restless",0.5,0.6,0.8,0.033004877613064,"true"
"image-keyboard-response",312,215619,"0.0-3.100-1.100","shn6q0q5u0r3nbn","43.csv","","null","resources/maskTrios/L4BB.jpg","null","",NA,NA,NA,NA,""
"image-keyboard-response",313,216825,"0.0-3.100-2.100","shn6q0q5u0r3nbn","43.csv","","null","resources/images/coin2.png","null","",NA,NA,NA,NA,""
"image-keyboard-response",314,216949,"0.0-3.101-0.101","shn6q0q5u0r3nbn","43.csv","","122.10000002384186","resources/trios/L4T2A1.jpg","37","restless",0.5,0.6,0.8,0.71080697046666,"false"
"image-keyboard-response",315,217354,"0.0-3.101-1.101","shn6q0q5u0r3nbn","43.csv","","null","resources/maskTrios/L4BB.jpg","null","",NA,NA,NA,NA,""
"image-keyboard-response",316,218560,"0.0-3.101-2.101","shn6q0q5u0r3nbn","43.csv","","null","resources/images/fishbone.png","null","",NA,NA,NA,NA,""
"image-keyboard-response",317,218734,"0.0-3.102-0.102","shn6q0q5u0r3nbn","43.csv","","172.90000009536743","resources/trios/L1T1A1.jpg","38","restless",0.5,0.6,0.8,0.136413447573931,"true"
"image-keyboard-response",318,219140,"0.0-3.102-1.102","shn6q0q5u0r3nbn","43.csv","","null","resources/maskTrios/BT1B.jpg","null","",NA,NA,NA,NA,""
"image-keyboard-response",319,220345,"0.0-3.102-2.102","shn6q0q5u0r3nbn","43.csv","","null","resources/images/coin2.png","null","",NA,NA,NA,NA,""
"image-keyboard-response",320,220565,"0.0-3.103-0.103","shn6q0q5u0r3nbn","43.csv","","218.70000004768372","resources/trios/L1T2A1.jpg","38","restless",0.5,0.6,0.8,0.372495933651401,"true"
"image-keyboard-response",321,220971,"0.0-3.103-1.103","shn6q0q5u0r3nbn","43.csv","","null","resources/maskTrios/BT2B.jpg","null","",NA,NA,NA,NA,""
"image-keyboard-response",322,222176,"0.0-3.103-2.103","shn6q0q5u0r3nbn","43.csv","","null","resources/images/coin2.png","null","",NA,NA,NA,NA,""
"image-keyboard-response",323,223395,"0.0-3.104-0.104","shn6q0q5u0r3nbn","43.csv","","1217.8000000715256","resources/trios/L1T2A2.jpg","38","restless",0.5,0.5,0.8,0.0611263876077419,"true"
"image-keyboard-response",324,223801,"0.0-3.104-1.104","shn6q0q5u0r3nbn","43.csv","","null","resources/maskTrios/BT2B.jpg","null","",NA,NA,NA,NA,""
"image-keyboard-response",325,225007,"0.0-3.104-2.104","shn6q0q5u0r3nbn","43.csv","","null","resources/images/coin2.png","null","",NA,NA,NA,NA,""
"image-keyboard-response",326,225067,"0.0-3.105-0.105","shn6q0q5u0r3nbn","43.csv","","59.200000047683716","resources/trios/L4T1A1.jpg","38","restless",0.5,0.5,0.7,0.240824917270145,"true"
"image-keyboard-response",327,225472,"0.0-3.105-1.105","shn6q0q5u0r3nbn","43.csv","","null","resources/maskTrios/BT1B.jpg","null","",NA,NA,NA,NA,""
"image-keyboard-response",328,226677,"0.0-3.105-2.105","shn6q0q5u0r3nbn","43.csv","","null","resources/images/coin2.png","null","",NA,NA,NA,NA,""
"image-keyboard-response",329,226824,"0.0-3.106-0.106","shn6q0q5u0r3nbn","43.csv","","146.5","resources/trios/L1T2A1.jpg","38","restless",0.5,0.6,0.7,0.40625827646301,"true"
"image-keyboard-response",330,227228,"0.0-3.106-1.106","shn6q0q5u0r3nbn","43.csv","","null","resources/maskTrios/BT2B.jpg","null","",NA,NA,NA,NA,""
"image-keyboard-response",331,228431,"0.0-3.106-2.106","shn6q0q5u0r3nbn","43.csv","","null","resources/images/coin2.png","null","",NA,NA,NA,NA,""
"image-keyboard-response",332,228520,"0.0-3.107-0.107","shn6q0q5u0r3nbn","43.csv","","88.29999995231628","resources/trios/L4T1A2.jpg","38","restless",0.5,0.6,0.8,0.455101464283789,"true"
"image-keyboard-response",333,228926,"0.0-3.107-1.107","shn6q0q5u0r3nbn","43.csv","","null","resources/maskTrios/BT1B.jpg","null","",NA,NA,NA,NA,""
"image-keyboard-response",334,230132,"0.0-3.107-2.107","shn6q0q5u0r3nbn","43.csv","","null","resources/images/coin2.png","null","",NA,NA,NA,NA,""
"image-keyboard-response",335,230183,"0.0-3.108-0.108","shn6q0q5u0r3nbn","43.csv","","48.800000071525574","resources/trios/L4T2A1.jpg","38","restless",0.5,0.6,0.9,0.775955208482118,"false"
"image-keyboard-response",336,230589,"0.0-3.108-1.108","shn6q0q5u0r3nbn","43.csv","","null","resources/maskTrios/BT2B.jpg","null","",NA,NA,NA,NA,""
"image-keyboard-response",337,231795,"0.0-3.108-2.108","shn6q0q5u0r3nbn","43.csv","","null","resources/images/fishbone.png","null","",NA,NA,NA,NA,""
"image-keyboard-response",338,232009,"0.0-3.109-0.109","shn6q0q5u0r3nbn","43.csv","","212.89999997615814","resources/trios/L1T1A1.jpg","38","restless",0.5,0.6,0.9,0.0884352481709574,"true"
"image-keyboard-response",339,232414,"0.0-3.109-1.109","shn6q0q5u0r3nbn","43.csv","","null","resources/maskTrios/BT1B.jpg","null","",NA,NA,NA,NA,""
"image-keyboard-response",340,233620,"0.0-3.109-2.109","shn6q0q5u0r3nbn","43.csv","","null","resources/images/coin2.png","null","",NA,NA,NA,NA,""
"image-keyboard-response",341,233873,"0.0-3.110-0.110","shn6q0q5u0r3nbn","43.csv","","251.69999992847443","resources/trios/L1T2A1.jpg","38","restless",0.5,0.6,0.9,0.606135334551501,"false"
"image-keyboard-response",342,234277,"0.0-3.110-1.110","shn6q0q5u0r3nbn","43.csv","","null","resources/maskTrios/BT2B.jpg","null","",NA,NA,NA,NA,""
"image-keyboard-response",343,235483,"0.0-3.110-2.110","shn6q0q5u0r3nbn","43.csv","","null","resources/images/fishbone.png","null","",NA,NA,NA,NA,""
"image-keyboard-response",344,235660,"0.0-3.111-0.111","shn6q0q5u0r3nbn","43.csv","","175.70000004768372","resources/trios/L1T2A1.jpg","39","restless",0.5,0.6,0.9,0.0687504626844826,"true"
"image-keyboard-response",345,236063,"0.0-3.111-1.111","shn6q0q5u0r3nbn","43.csv","","null","resources/maskTrios/BBA1.jpg","null","",NA,NA,NA,NA,""
"image-keyboard-response",346,237267,"0.0-3.111-2.111","shn6q0q5u0r3nbn","43.csv","","null","resources/images/coin2.png","null","",NA,NA,NA,NA,""
"image-keyboard-response",347,237393,"0.0-3.112-0.112","shn6q0q5u0r3nbn","43.csv","","124.5","resources/trios/L1T1A2.jpg","39","restless",0.5,0.6,0.9,0.393991969023793,"true"
"image-keyboard-response",348,237799,"0.0-3.112-1.112","shn6q0q5u0r3nbn","43.csv","","null","resources/maskTrios/BBA2.jpg","null","",NA,NA,NA,NA,""
"image-keyboard-response",349,239003,"0.0-3.112-2.112","shn6q0q5u0r3nbn","43.csv","","null","resources/images/coin2.png","null","",NA,NA,NA,NA,""
"image-keyboard-response",350,239094,"0.0-3.113-0.113","shn6q0q5u0r3nbn","43.csv","","89.60000002384186","resources/trios/L1T2A1.jpg","39","restless",0.5,0.6,0.9,0.328666103547589,"true"
"image-keyboard-response",351,239500,"0.0-3.113-1.113","shn6q0q5u0r3nbn","43.csv","","null","resources/maskTrios/BBA1.jpg","null","",NA,NA,NA,NA,""
"image-keyboard-response",352,240705,"0.0-3.113-2.113","shn6q0q5u0r3nbn","43.csv","","null","resources/images/coin2.png","null","",NA,NA,NA,NA,""
"image-keyboard-response",353,241940,"0.0-3.114-0.114","shn6q0q5u0r3nbn","43.csv","","1233.1000000238419","resources/trios/L1T1A2.jpg","39","restless",0.5,0.6,0.9,0.787311763139355,"true"
"image-keyboard-response",354,242342,"0.0-3.114-1.114","shn6q0q5u0r3nbn","43.csv","","null","resources/maskTrios/BBA2.jpg","null","",NA,NA,NA,NA,""
"image-keyboard-response",355,243547,"0.0-3.114-2.114","shn6q0q5u0r3nbn","43.csv","","null","resources/images/coin2.png","null","",NA,NA,NA,NA,""
"image-keyboard-response",356,246593,"0.0-3.115-0.115","shn6q0q5u0r3nbn","43.csv","","3044","resources/trios/L1T1A1.jpg","39","restless",0.6,0.6,0.9,0.747420437486768,"true"
"image-keyboard-response",357,246998,"0.0-3.115-1.115","shn6q0q5u0r3nbn","43.csv","","null","resources/maskTrios/BBA1.jpg","null","",NA,NA,NA,NA,""
"image-keyboard-response",358,248203,"0.0-3.115-2.115","shn6q0q5u0r3nbn","43.csv","","null","resources/images/coin2.png","null","",NA,NA,NA,NA,""
"image-keyboard-response",359,248273,"0.0-3.116-0.116","shn6q0q5u0r3nbn","43.csv","","68.79999995231628","resources/trios/L4T1A1.jpg","39","restless",0.6,0.6,0.9,0.52100431130427,"true"
"image-keyboard-response",360,248678,"0.0-3.116-1.116","shn6q0q5u0r3nbn","43.csv","","null","resources/maskTrios/BBA1.jpg","null","",NA,NA,NA,NA,""
"image-keyboard-response",361,249883,"0.0-3.116-2.116","shn6q0q5u0r3nbn","43.csv","","null","resources/images/coin2.png","null","",NA,NA,NA,NA,""
"image-keyboard-response",362,249953,"0.0-3.117-0.117","shn6q0q5u0r3nbn","43.csv","","68.5","resources/trios/L1T2A2.jpg","39","restless",0.6,0.6,0.9,0.500314843356378,"true"
"image-keyboard-response",363,250359,"0.0-3.117-1.117","shn6q0q5u0r3nbn","43.csv","","null","resources/maskTrios/BBA2.jpg","null","",NA,NA,NA,NA,""
"image-keyboard-response",364,251563,"0.0-3.117-2.117","shn6q0q5u0r3nbn","43.csv","","null","resources/images/coin2.png","null","",NA,NA,NA,NA,""
"image-keyboard-response",365,251676,"0.0-3.118-0.118","shn6q0q5u0r3nbn","43.csv","","110.39999997615814","resources/trios/L1T2A1.jpg","39","restless",0.6,0.6,0.9,0.0144693503664219,"true"
"image-keyboard-response",366,252080,"0.0-3.118-1.118","shn6q0q5u0r3nbn","43.csv","","null","resources/maskTrios/BBA1.jpg","null","",NA,NA,NA,NA,""
"image-keyboard-response",367,253286,"0.0-3.118-2.118","shn6q0q5u0r3nbn","43.csv","","null","resources/images/coin2.png","null","",NA,NA,NA,NA,""
"image-keyboard-response",368,253425,"0.0-3.119-0.119","shn6q0q5u0r3nbn","43.csv","","136.29999995231628","resources/trios/L4T1A2.jpg","39","restless",0.6,0.6,0.9,0.972407118842069,"false"
"image-keyboard-response",369,253827,"0.0-3.119-1.119","shn6q0q5u0r3nbn","43.csv","","null","resources/maskTrios/BBA2.jpg","null","",NA,NA,NA,NA,""
"image-keyboard-response",370,255030,"0.0-3.119-2.119","shn6q0q5u0r3nbn","43.csv","","null","resources/images/fishbone.png","null","",NA,NA,NA,NA,""
"image-keyboard-response",371,255437,"0.0-3.120-0.120","shn6q0q5u0r3nbn","43.csv","","405.89999997615814","resources/trios/L4T2A1.jpg","39","restless",0.6,0.6,0.9,0.908647497282611,"false"
"image-keyboard-response",372,255841,"0.0-3.120-1.120","shn6q0q5u0r3nbn","43.csv","","null","resources/maskTrios/BBA1.jpg","null","",NA,NA,NA,NA,""
"image-keyboard-response",373,257047,"0.0-3.120-2.120","shn6q0q5u0r3nbn","43.csv","","null","resources/images/fishbone.png","null","",NA,NA,NA,NA,""
"image-keyboard-response",374,257083,"0.0-3.121-0.121","shn6q0q5u0r3nbn","43.csv","","34.799999952316284","resources/trios/L1T2A1.jpg","39","restless",0.6,0.6,0.9,0.0818639815278361,"true"
"image-keyboard-response",375,257487,"0.0-3.121-1.121","shn6q0q5u0r3nbn","43.csv","","null","resources/maskTrios/BBA1.jpg","null","",NA,NA,NA,NA,""
"image-keyboard-response",376,258689,"0.0-3.121-2.121","shn6q0q5u0r3nbn","43.csv","","null","resources/images/coin2.png","null","",NA,NA,NA,NA,""
"image-keyboard-response",377,258806,"0.0-3.122-0.122","shn6q0q5u0r3nbn","43.csv","","115.5","resources/trios/L1T2A1.jpg","39","restless",0.6,0.6,0.9,0.483567750360142,"true"
"image-keyboard-response",378,259211,"0.0-3.122-1.122","shn6q0q5u0r3nbn","43.csv","","null","resources/maskTrios/BBA1.jpg","null","",NA,NA,NA,NA,""
"image-keyboard-response",379,260416,"0.0-3.122-2.122","shn6q0q5u0r3nbn","43.csv","","null","resources/images/coin2.png","null","",NA,NA,NA,NA,""
"image-keyboard-response",380,260589,"0.0-3.123-0.123","shn6q0q5u0r3nbn","43.csv","","172.10000002384186","resources/trios/L4T2A1.jpg","39","restless",0.6,0.6,0.9,0.65631525972624,"true"
"image-keyboard-response",381,260992,"0.0-3.123-1.123","shn6q0q5u0r3nbn","43.csv","","null","resources/maskTrios/BBA1.jpg","null","",NA,NA,NA,NA,""
"image-keyboard-response",382,262194,"0.0-3.123-2.123","shn6q0q5u0r3nbn","43.csv","","null","resources/images/coin2.png","null","",NA,NA,NA,NA,""
"image-keyboard-response",383,262300,"0.0-3.124-0.124","shn6q0q5u0r3nbn","43.csv","","105.19999992847443","resources/trios/L1T1A1.jpg","39","restless",0.6,0.6,0.9,0.369327737844192,"true"
"image-keyboard-response",384,262704,"0.0-3.124-1.124","shn6q0q5u0r3nbn","43.csv","","null","resources/maskTrios/BBA1.jpg","null","",NA,NA,NA,NA,""
"image-keyboard-response",385,263911,"0.0-3.124-2.124","shn6q0q5u0r3nbn","43.csv","","null","resources/images/coin2.png","null","",NA,NA,NA,NA,""
"image-keyboard-response",386,263958,"0.0-3.125-0.125","shn6q0q5u0r3nbn","43.csv","","45.200000047683716","resources/trios/L1T1A1.jpg","39","restless",0.6,0.6,0.9,0.644337845994334,"true"
"image-keyboard-response",387,264363,"0.0-3.125-1.125","shn6q0q5u0r3nbn","43.csv","","null","resources/maskTrios/BBA1.jpg","null","",NA,NA,NA,NA,""
"image-keyboard-response",388,265567,"0.0-3.125-2.125","shn6q0q5u0r3nbn","43.csv","","null","resources/images/coin2.png","null","",NA,NA,NA,NA,""
"image-keyboard-response",389,265568,"0.0-3.126-0.126","shn6q0q5u0r3nbn","43.csv","","0.10000002384185791","resources/trios/L4T1A2.jpg","39","restless",0.6,0.6,0.9,0.129850182403762,"true"
"image-keyboard-response",390,265973,"0.0-3.126-1.126","shn6q0q5u0r3nbn","43.csv","","null","resources/maskTrios/BBA2.jpg","null","",NA,NA,NA,NA,""
"image-keyboard-response",391,267179,"0.0-3.126-2.126","shn6q0q5u0r3nbn","43.csv","","null","resources/images/coin2.png","null","",NA,NA,NA,NA,""
"image-keyboard-response",392,267319,"0.0-3.127-0.127","shn6q0q5u0r3nbn","43.csv","","139.70000004768372","resources/trios/L1T2A1.jpg","37","restless",0.6,0.6,0.9,0.398370192414207,"true"
"image-keyboard-response",393,267724,"0.0-3.127-1.127","shn6q0q5u0r3nbn","43.csv","","null","resources/maskTrios/L1BB.jpg","null","",NA,NA,NA,NA,""
"image-keyboard-response",394,268930,"0.0-3.127-2.127","shn6q0q5u0r3nbn","43.csv","","null","resources/images/coin2.png","null","",NA,NA,NA,NA,""
"image-keyboard-response",395,269038,"0.0-3.128-0.128","shn6q0q5u0r3nbn","43.csv","","107.60000002384186","resources/trios/L4T1A1.jpg","37","restless",0.6,0.6,0.9,0.789078749613777,"false"
"image-keyboard-response",396,269444,"0.0-3.128-1.128","shn6q0q5u0r3nbn","43.csv","","null","resources/maskTrios/L4BB.jpg","null","",NA,NA,NA,NA,""
"image-keyboard-response",397,270647,"0.0-3.128-2.128","shn6q0q5u0r3nbn","43.csv","","null","resources/images/fishbone.png","null","",NA,NA,NA,NA,""
"image-keyboard-response",398,270761,"0.0-3.129-0.129","shn6q0q5u0r3nbn","43.csv","","112.40000009536743","resources/trios/L4T1A2.jpg","37","restless",0.6,0.6,0.9,0.388137036672672,"true"
"image-keyboard-response",399,271163,"0.0-3.129-1.129","shn6q0q5u0r3nbn","43.csv","","null","resources/maskTrios/L4BB.jpg","null","",NA,NA,NA,NA,""
"image-keyboard-response",400,272364,"0.0-3.129-2.129","shn6q0q5u0r3nbn","43.csv","","null","resources/images/coin2.png","null","",NA,NA,NA,NA,""
"image-keyboard-response",401,272383,"0.0-3.130-0.130","shn6q0q5u0r3nbn","43.csv","","16.700000047683716","resources/trios/L4T1A2.jpg","37","restless",0.6,0.6,0.9,0.0617179464132729,"true"
"image-keyboard-response",402,272785,"0.0-3.130-1.130","shn6q0q5u0r3nbn","43.csv","","null","resources/maskTrios/L4BB.jpg","null","",NA,NA,NA,NA,""
"image-keyboard-response",403,273990,"0.0-3.130-2.130","shn6q0q5u0r3nbn","43.csv","","null","resources/images/coin2.png","null","",NA,NA,NA,NA,""
"image-keyboard-response",404,274084,"0.0-3.131-0.131","shn6q0q5u0r3nbn","43.csv","","92.70000004768372","resources/trios/L1T1A2.jpg","37","restless",0.5,0.6,0.9,0.574090342703962,"false"
"image-keyboard-response",405,274490,"0.0-3.131-1.131","shn6q0q5u0r3nbn","43.csv","","null","resources/maskTrios/L1BB.jpg","null","",NA,NA,NA,NA,""
"image-keyboard-response",406,275692,"0.0-3.131-2.131","shn6q0q5u0r3nbn","43.csv","","null","resources/images/fishbone.png","null","",NA,NA,NA,NA,""
"image-keyboard-response",407,275739,"0.0-3.132-0.132","shn6q0q5u0r3nbn","43.csv","","45.60000002384186","resources/trios/L4T1A2.jpg","38","restless",0.4,0.6,0.9,0.588211163767145,"true"
"image-keyboard-response",408,276144,"0.0-3.132-1.132","shn6q0q5u0r3nbn","43.csv","","null","resources/maskTrios/BT1B.jpg","null","",NA,NA,NA,NA,""
"image-keyboard-response",409,277346,"0.0-3.132-2.132","shn6q0q5u0r3nbn","43.csv","","null","resources/images/coin2.png","null","",NA,NA,NA,NA,""
"image-keyboard-response",410,277415,"0.0-3.133-0.133","shn6q0q5u0r3nbn","43.csv","","67.20000004768372","resources/trios/L1T2A1.jpg","38","restless",0.4,0.6,0.9,0.122515517553231,"true"
"image-keyboard-response",411,277820,"0.0-3.133-1.133","shn6q0q5u0r3nbn","43.csv","","null","resources/maskTrios/BT2B.jpg","null","",NA,NA,NA,NA,""
"image-keyboard-response",412,279021,"0.0-3.133-2.133","shn6q0q5u0r3nbn","43.csv","","null","resources/images/coin2.png","null","",NA,NA,NA,NA,""
"image-keyboard-response",413,279163,"0.0-3.134-0.134","shn6q0q5u0r3nbn","43.csv","","141.29999995231628","resources/trios/L1T2A2.jpg","38","restless",0.4,0.6,0.8,0.826604584807483,"false"
"image-keyboard-response",414,279565,"0.0-3.134-1.134","shn6q0q5u0r3nbn","43.csv","","null","resources/maskTrios/BT2B.jpg","null","",NA,NA,NA,NA,""
"image-keyboard-response",415,280771,"0.0-3.134-2.134","shn6q0q5u0r3nbn","43.csv","","null","resources/images/fishbone.png","null","",NA,NA,NA,NA,""
"image-keyboard-response",416,280818,"0.0-3.135-0.135","shn6q0q5u0r3nbn","43.csv","","45.39999997615814","resources/trios/L4T2A1.jpg","38","restless",0.4,0.6,0.8,0.332183737812706,"true"
"image-keyboard-response",417,281222,"0.0-3.135-1.135","shn6q0q5u0r3nbn","43.csv","","null","resources/maskTrios/BT2B.jpg","null","",NA,NA,NA,NA,""
"image-keyboard-response",418,282428,"0.0-3.135-2.135","shn6q0q5u0r3nbn","43.csv","","null","resources/images/coin2.png","null","",NA,NA,NA,NA,""
"image-keyboard-response",419,282484,"0.0-3.136-0.136","shn6q0q5u0r3nbn","43.csv","","55.799999952316284","resources/trios/L1T1A1.jpg","38","restless",0.4,0.6,0.8,0.66605896949025,"false"
"image-keyboard-response",420,282888,"0.0-3.136-1.136","shn6q0q5u0r3nbn","43.csv","","null","resources/maskTrios/BT1B.jpg","null","",NA,NA,NA,NA,""
"image-keyboard-response",421,284094,"0.0-3.136-2.136","shn6q0q5u0r3nbn","43.csv","","null","resources/images/fishbone.png","null","",NA,NA,NA,NA,""
"image-keyboard-response",422,285369,"0.0-3.137-0.137","shn6q0q5u0r3nbn","43.csv","","1274.1999999284744","resources/trios/L4T1A2.jpg","39","restless",0.4,0.5,0.8,0.140994228119198,"true"
"image-keyboard-response",423,285776,"0.0-3.137-1.137","shn6q0q5u0r3nbn","43.csv","","null","resources/maskTrios/BBA2.jpg","null","",NA,NA,NA,NA,""
"image-keyboard-response",424,286979,"0.0-3.137-2.137","shn6q0q5u0r3nbn","43.csv","","null","resources/images/coin2.png","null","",NA,NA,NA,NA,""
"image-keyboard-response",425,287095,"0.0-3.138-0.138","shn6q0q5u0r3nbn","43.csv","","115","resources/trios/L4T1A2.jpg","39","restless",0.4,0.5,0.7,0.406070774778445,"true"
"image-keyboard-response",426,287499,"0.0-3.138-1.138","shn6q0q5u0r3nbn","43.csv","","null","resources/maskTrios/BBA2.jpg","null","",NA,NA,NA,NA,""
"image-keyboard-response",427,288704,"0.0-3.138-2.138","shn6q0q5u0r3nbn","43.csv","","null","resources/images/coin2.png","null","",NA,NA,NA,NA,""
"image-keyboard-response",428,288767,"0.0-3.139-0.139","shn6q0q5u0r3nbn","43.csv","","61","resources/trios/L1T1A1.jpg","39","restless",0.4,0.5,0.7,0.931526660555561,"false"
"image-keyboard-response",429,289171,"0.0-3.139-1.139","shn6q0q5u0r3nbn","43.csv","","null","resources/maskTrios/BBA1.jpg","null","",NA,NA,NA,NA,""
"image-keyboard-response",430,290373,"0.0-3.139-2.139","shn6q0q5u0r3nbn","43.csv","","null","resources/images/fishbone.png","null","",NA,NA,NA,NA,""
"image-keyboard-response",431,290453,"0.0-3.140-0.140","shn6q0q5u0r3nbn","43.csv","","78.59999990463257","resources/trios/L4T2A1.jpg","38","restless",0.4,0.6,0.7,0.523882131449002,"true"
"image-keyboard-response",432,290859,"0.0-3.140-1.140","shn6q0q5u0r3nbn","43.csv","","null","resources/maskTrios/BT2B.jpg","null","",NA,NA,NA,NA,""
"image-keyboard-response",433,292064,"0.0-3.140-2.140","shn6q0q5u0r3nbn","43.csv","","null","resources/images/coin2.png","null","",NA,NA,NA,NA,""
"image-keyboard-response",434,293013,"0.0-3.141-0.141","shn6q0q5u0r3nbn","43.csv","","946.6000000238419","resources/trios/L1T2A2.jpg","38","restless",0.4,0.5,0.7,0.686699055471082,"false"
"image-keyboard-response",435,293416,"0.0-3.141-1.141","shn6q0q5u0r3nbn","43.csv","","null","resources/maskTrios/BT2B.jpg","null","",NA,NA,NA,NA,""
"image-keyboard-response",436,294621,"0.0-3.141-2.141","shn6q0q5u0r3nbn","43.csv","","null","resources/images/fishbone.png","null","",NA,NA,NA,NA,""
"image-keyboard-response",437,294803,"0.0-3.142-0.142","shn6q0q5u0r3nbn","43.csv","","180.5","resources/trios/L4T2A1.jpg","38","restless",0.4,0.5,0.7,0.431982453665827,"true"
"image-keyboard-response",438,295208,"0.0-3.142-1.142","shn6q0q5u0r3nbn","43.csv","","null","resources/maskTrios/BT2B.jpg","null","",NA,NA,NA,NA,""
"image-keyboard-response",439,296413,"0.0-3.142-2.142","shn6q0q5u0r3nbn","43.csv","","null","resources/images/coin2.png","null","",NA,NA,NA,NA,""
"image-keyboard-response",440,296487,"0.0-3.143-0.143","shn6q0q5u0r3nbn","43.csv","","72.19999992847443","resources/trios/L4T1A2.jpg","38","restless",0.3,0.5,0.7,0.934317389784679,"false"
"image-keyboard-response",441,296892,"0.0-3.143-1.143","shn6q0q5u0r3nbn","43.csv","","null","resources/maskTrios/BT1B.jpg","null","",NA,NA,NA,NA,""
"image-keyboard-response",442,298095,"0.0-3.143-2.143","shn6q0q5u0r3nbn","43.csv","","null","resources/images/fishbone.png","null","",NA,NA,NA,NA,""
"image-keyboard-response",443,298227,"0.0-3.144-0.144","shn6q0q5u0r3nbn","43.csv","","130.20000004768372","resources/trios/L1T1A2.jpg","38","restless",0.3,0.5,0.7,0.969615857843942,"false"
"image-keyboard-response",444,298631,"0.0-3.144-1.144","shn6q0q5u0r3nbn","43.csv","","null","resources/maskTrios/BT1B.jpg","null","",NA,NA,NA,NA,""
"image-keyboard-response",445,299835,"0.0-3.144-2.144","shn6q0q5u0r3nbn","43.csv","","null","resources/images/fishbone.png","null","",NA,NA,NA,NA,""
"image-keyboard-response",446,300385,"0.0-3.145-0.145","shn6q0q5u0r3nbn","43.csv","","548.1000000238419","resources/trios/L4T1A1.jpg","37","restless",0.3,0.5,0.7,0.952381480780476,"false"
"image-keyboard-response",447,300789,"0.0-3.145-1.145","shn6q0q5u0r3nbn","43.csv","","null","resources/maskTrios/L4BB.jpg","null","",NA,NA,NA,NA,""
"image-keyboard-response",448,301995,"0.0-3.145-2.145","shn6q0q5u0r3nbn","43.csv","","null","resources/images/fishbone.png","null","",NA,NA,NA,NA,""
"image-keyboard-response",449,313080,"0.0-3.146-0.146","shn6q0q5u0r3nbn","43.csv","","11083.299999952316","resources/trios/L1T1A2.jpg","37","restless",0.2,0.5,0.7,0.709784272609498,"false"
"image-keyboard-response",450,313484,"0.0-3.146-1.146","shn6q0q5u0r3nbn","43.csv","","null","resources/maskTrios/L1BB.jpg","null","",NA,NA,NA,NA,""
"image-keyboard-response",451,314688,"0.0-3.146-2.146","shn6q0q5u0r3nbn","43.csv","","null","resources/images/fishbone.png","null","",NA,NA,NA,NA,""
"image-keyboard-response",452,317228,"0.0-3.147-0.147","shn6q0q5u0r3nbn","43.csv","","2538.3000000715256","resources/trios/L4T1A1.jpg","38","restless",0.2,0.5,0.7,0.282960302043668,"true"
"image-keyboard-response",453,317632,"0.0-3.147-1.147","shn6q0q5u0r3nbn","43.csv","","null","resources/maskTrios/BT1B.jpg","null","",NA,NA,NA,NA,""
"image-keyboard-response",454,318836,"0.0-3.147-2.147","shn6q0q5u0r3nbn","43.csv","","null","resources/images/coin2.png","null","",NA,NA,NA,NA,""
"image-keyboard-response",455,319098,"0.0-3.148-0.148","shn6q0q5u0r3nbn","43.csv","","260.2999999523163","resources/trios/L1T1A2.jpg","38","restless",0.2,0.5,0.7,0.351605087154707,"true"
"image-keyboard-response",456,319504,"0.0-3.148-1.148","shn6q0q5u0r3nbn","43.csv","","null","resources/maskTrios/BT1B.jpg","null","",NA,NA,NA,NA,""
"image-keyboard-response",457,320710,"0.0-3.148-2.148","shn6q0q5u0r3nbn","43.csv","","null","resources/images/coin2.png","null","",NA,NA,NA,NA,""
"image-keyboard-response",458,320862,"0.0-3.149-0.149","shn6q0q5u0r3nbn","43.csv","","150.79999995231628","resources/trios/L4T2A2.jpg","38","restless",0.2,0.5,0.7,0.100338795565588,"true"
"image-keyboard-response",459,321268,"0.0-3.149-1.149","shn6q0q5u0r3nbn","43.csv","","null","resources/maskTrios/BT2B.jpg","null","",NA,NA,NA,NA,""
"image-keyboard-response",460,322471,"0.0-3.149-2.149","shn6q0q5u0r3nbn","43.csv","","null","resources/images/coin2.png","null","",NA,NA,NA,NA,""
"image-keyboard-response",461,322605,"0.0-3.150-0.150","shn6q0q5u0r3nbn","43.csv","","132.60000002384186","resources/trios/L1T1A1.jpg","38","restless",0.2,0.5,0.7,0.359330314135755,"true"
"image-keyboard-response",462,323012,"0.0-3.150-1.150","shn6q0q5u0r3nbn","43.csv","","null","resources/maskTrios/BT1B.jpg","null","",NA,NA,NA,NA,""
"image-keyboard-response",463,324213,"0.0-3.150-2.150","shn6q0q5u0r3nbn","43.csv","","null","resources/images/coin2.png","null","",NA,NA,NA,NA,""
"image-keyboard-response",464,324476,"0.0-3.151-0.151","shn6q0q5u0r3nbn","43.csv","","261.59999990463257","resources/trios/L1T1A2.jpg","38","restless",0.2,0.5,0.7,0.0191323851800771,"true"
"image-keyboard-response",465,324882,"0.0-3.151-1.151","shn6q0q5u0r3nbn","43.csv","","null","resources/maskTrios/BT1B.jpg","null","",NA,NA,NA,NA,""
"image-keyboard-response",466,326087,"0.0-3.151-2.151","shn6q0q5u0r3nbn","43.csv","","null","resources/images/coin2.png","null","",NA,NA,NA,NA,""
"image-keyboard-response",467,326189,"0.0-3.152-0.152","shn6q0q5u0r3nbn","43.csv","","100.60000002384186","resources/trios/L4T1A2.jpg","38","restless",0.2,0.4,0.7,0.990798383343623,"false"
"image-keyboard-response",468,326593,"0.0-3.152-1.152","shn6q0q5u0r3nbn","43.csv","","null","resources/maskTrios/BT1B.jpg","null","",NA,NA,NA,NA,""
"image-keyboard-response",469,327798,"0.0-3.152-2.152","shn6q0q5u0r3nbn","43.csv","","null","resources/images/fishbone.png","null","",NA,NA,NA,NA,""
"image-keyboard-response",470,328415,"0.0-3.153-0.153","shn6q0q5u0r3nbn","43.csv","","614.8999999761581","resources/trios/L1T2A2.jpg","38","restless",0.2,0.4,0.7,0.0101791559144984,"true"
"image-keyboard-response",471,328818,"0.0-3.153-1.153","shn6q0q5u0r3nbn","43.csv","","null","resources/maskTrios/BT2B.jpg","null","",NA,NA,NA,NA,""
"image-keyboard-response",472,330022,"0.0-3.153-2.153","shn6q0q5u0r3nbn","43.csv","","null","resources/images/coin2.png","null","",NA,NA,NA,NA,""
"image-keyboard-response",473,330124,"0.0-3.154-0.154","shn6q0q5u0r3nbn","43.csv","","100.39999997615814","resources/trios/L1T1A1.jpg","38","restless",0.1,0.4,0.7,0.231180944535687,"true"
"image-keyboard-response",474,330530,"0.0-3.154-1.154","shn6q0q5u0r3nbn","43.csv","","null","resources/maskTrios/BT1B.jpg","null","",NA,NA,NA,NA,""
"image-keyboard-response",475,331734,"0.0-3.154-2.154","shn6q0q5u0r3nbn","43.csv","","null","resources/images/coin2.png","null","",NA,NA,NA,NA,""
"image-keyboard-response",476,331897,"0.0-3.155-0.155","shn6q0q5u0r3nbn","43.csv","","161.29999995231628","resources/trios/L1T1A2.jpg","38","restless",0.1,0.4,0.7,0.259988812141351,"true"
"image-keyboard-response",477,332303,"0.0-3.155-1.155","shn6q0q5u0r3nbn","43.csv","","null","resources/maskTrios/BT1B.jpg","null","",NA,NA,NA,NA,""
"image-keyboard-response",478,333506,"0.0-3.155-2.155","shn6q0q5u0r3nbn","43.csv","","null","resources/images/coin2.png","null","",NA,NA,NA,NA,""
"image-keyboard-response",479,333690,"0.0-3.156-0.156","shn6q0q5u0r3nbn","43.csv","","182.30000007152557","resources/trios/L1T1A2.jpg","38","restless",0.2,0.5,0.7,0.307073033959928,"true"
"image-keyboard-response",480,334097,"0.0-3.156-1.156","shn6q0q5u0r3nbn","43.csv","","null","resources/maskTrios/BT1B.jpg","null","",NA,NA,NA,NA,""
"image-keyboard-response",481,335302,"0.0-3.156-2.156","shn6q0q5u0r3nbn","43.csv","","null","resources/images/coin2.png","null","",NA,NA,NA,NA,""
"image-keyboard-response",482,335337,"0.0-3.157-0.157","shn6q0q5u0r3nbn","43.csv","","33.5","resources/trios/L1T2A2.jpg","38","restless",0.1,0.5,0.7,0.938972193641818,"false"
"image-keyboard-response",483,335743,"0.0-3.157-1.157","shn6q0q5u0r3nbn","43.csv","","null","resources/maskTrios/BT2B.jpg","null","",NA,NA,NA,NA,""
"image-keyboard-response",484,336945,"0.0-3.157-2.157","shn6q0q5u0r3nbn","43.csv","","null","resources/images/fishbone.png","null","",NA,NA,NA,NA,""
"image-keyboard-response",485,336980,"0.0-3.158-0.158","shn6q0q5u0r3nbn","43.csv","","33","resources/trios/L1T2A2.jpg","38","restless",0.1,0.5,0.7,0.252628646797672,"true"
"image-keyboard-response",486,337384,"0.0-3.158-1.158","shn6q0q5u0r3nbn","43.csv","","null","resources/maskTrios/BT2B.jpg","null","",NA,NA,NA,NA,""
"image-keyboard-response",487,338589,"0.0-3.158-2.158","shn6q0q5u0r3nbn","43.csv","","null","resources/images/coin2.png","null","",NA,NA,NA,NA,""
"image-keyboard-response",488,338904,"0.0-3.159-0.159","shn6q0q5u0r3nbn","43.csv","","313.59999990463257","resources/trios/L4T1A2.jpg","38","restless",0.1,0.5,0.7,0.0874704821655807,"true"
"image-keyboard-response",489,339309,"0.0-3.159-1.159","shn6q0q5u0r3nbn","43.csv","","null","resources/maskTrios/BT1B.jpg","null","",NA,NA,NA,NA,""
"image-keyboard-response",490,340513,"0.0-3.159-2.159","shn6q0q5u0r3nbn","43.csv","","null","resources/images/coin2.png","null","",NA,NA,NA,NA,""
"image-keyboard-response",491,340678,"0.0-3.160-0.160","shn6q0q5u0r3nbn","43.csv","","164.10000002384186","resources/trios/L4T2A2.jpg","38","restless",0.1,0.5,0.7,0.894718584121433,"false"
"image-keyboard-response",492,341080,"0.0-3.160-1.160","shn6q0q5u0r3nbn","43.csv","","null","resources/maskTrios/BT2B.jpg","null","",NA,NA,NA,NA,""
"image-keyboard-response",493,342283,"0.0-3.160-2.160","shn6q0q5u0r3nbn","43.csv","","null","resources/images/fishbone.png","null","",NA,NA,NA,NA,""
"image-keyboard-response",494,342515,"0.0-3.161-0.161","shn6q0q5u0r3nbn","43.csv","","230.29999995231628","resources/trios/L4T1A2.jpg","38","restless",0.1,0.5,0.7,0.527486056006926,"false"
"image-keyboard-response",495,342921,"0.0-3.161-1.161","shn6q0q5u0r3nbn","43.csv","","null","resources/maskTrios/BT1B.jpg","null","",NA,NA,NA,NA,""
"image-keyboard-response",496,344127,"0.0-3.161-2.161","shn6q0q5u0r3nbn","43.csv","","null","resources/images/fishbone.png","null","",NA,NA,NA,NA,""
"image-keyboard-response",497,344354,"0.0-3.162-0.162","shn6q0q5u0r3nbn","43.csv","","226.5","resources/trios/L1T1A2.jpg","38","restless",0.1,0.5,0.7,0.280531824519338,"true"
"image-keyboard-response",498,344758,"0.0-3.162-1.162","shn6q0q5u0r3nbn","43.csv","","null","resources/maskTrios/BT1B.jpg","null","",NA,NA,NA,NA,""
"image-keyboard-response",499,345963,"0.0-3.162-2.162","shn6q0q5u0r3nbn","43.csv","","null","resources/images/coin2.png","null","",NA,NA,NA,NA,""
"image-keyboard-response",500,346124,"0.0-3.163-0.163","shn6q0q5u0r3nbn","43.csv","","160.10000002384186","resources/trios/L4T2A2.jpg","38","restless",0.1,0.5,0.7,0.0789131903044153,"true"
"image-keyboard-response",501,346531,"0.0-3.163-1.163","shn6q0q5u0r3nbn","43.csv","","null","resources/maskTrios/BT2B.jpg","null","",NA,NA,NA,NA,""
"image-keyboard-response",502,347737,"0.0-3.163-2.163","shn6q0q5u0r3nbn","43.csv","","null","resources/images/coin2.png","null","",NA,NA,NA,NA,""
"image-keyboard-response",503,347908,"0.0-3.164-0.164","shn6q0q5u0r3nbn","43.csv","","169.5","resources/trios/L1T1A1.jpg","38","restless",0.1,0.5,0.7,0.737263415253934,"false"
"image-keyboard-response",504,348311,"0.0-3.164-1.164","shn6q0q5u0r3nbn","43.csv","","null","resources/maskTrios/BT1B.jpg","null","",NA,NA,NA,NA,""
"image-keyboard-response",505,349515,"0.0-3.164-2.164","shn6q0q5u0r3nbn","43.csv","","null","resources/images/fishbone.png","null","",NA,NA,NA,NA,""
"image-keyboard-response",506,349657,"0.0-3.165-0.165","shn6q0q5u0r3nbn","43.csv","","140.39999997615814","resources/trios/L4T2A1.jpg","37","restless",0.1,0.5,0.7,0.0236967813056546,"true"
"image-keyboard-response",507,350062,"0.0-3.165-1.165","shn6q0q5u0r3nbn","43.csv","","null","resources/maskTrios/L4BB.jpg","null","",NA,NA,NA,NA,""
"image-keyboard-response",508,351265,"0.0-3.165-2.165","shn6q0q5u0r3nbn","43.csv","","null","resources/images/coin2.png","null","",NA,NA,NA,NA,""
"image-keyboard-response",509,351393,"0.0-3.166-0.166","shn6q0q5u0r3nbn","43.csv","","126.79999995231628","resources/trios/L4T1A1.jpg","37","restless",0.1,0.6,0.7,0.0240005245590802,"true"
"image-keyboard-response",510,351800,"0.0-3.166-1.166","shn6q0q5u0r3nbn","43.csv","","null","resources/maskTrios/L4BB.jpg","null","",NA,NA,NA,NA,""
"image-keyboard-response",511,353004,"0.0-3.166-2.166","shn6q0q5u0r3nbn","43.csv","","null","resources/images/coin2.png","null","",NA,NA,NA,NA,""
"image-keyboard-response",512,353126,"0.0-3.167-0.167","shn6q0q5u0r3nbn","43.csv","","120.29999995231628","resources/trios/L1T2A1.jpg","37","restless",0.1,0.6,0.7,0.835815069725897,"false"
"image-keyboard-response",513,353532,"0.0-3.167-1.167","shn6q0q5u0r3nbn","43.csv","","null","resources/maskTrios/L1BB.jpg","null","",NA,NA,NA,NA,""
"image-keyboard-response",514,354737,"0.0-3.167-2.167","shn6q0q5u0r3nbn","43.csv","","null","resources/images/fishbone.png","null","",NA,NA,NA,NA,""
"image-keyboard-response",515,354938,"0.0-3.168-0.168","shn6q0q5u0r3nbn","43.csv","","200.70000004768372","resources/trios/L4T1A2.jpg","37","restless",0.1,0.6,0.7,0.996251814500422,"false"
"image-keyboard-response",516,355344,"0.0-3.168-1.168","shn6q0q5u0r3nbn","43.csv","","null","resources/maskTrios/L4BB.jpg","null","",NA,NA,NA,NA,""
"image-keyboard-response",517,356546,"0.0-3.168-2.168","shn6q0q5u0r3nbn","43.csv","","null","resources/images/fishbone.png","null","",NA,NA,NA,NA,""
"image-keyboard-response",518,356830,"0.0-3.169-0.169","shn6q0q5u0r3nbn","43.csv","","283","resources/trios/L1T2A2.jpg","39","restless",0.1,0.7,0.6,0.161570163015491,"true"
"image-keyboard-response",519,357236,"0.0-3.169-1.169","shn6q0q5u0r3nbn","43.csv","","null","resources/maskTrios/BBA2.jpg","null","",NA,NA,NA,NA,""
"image-keyboard-response",520,358440,"0.0-3.169-2.169","shn6q0q5u0r3nbn","43.csv","","null","resources/images/coin2.png","null","",NA,NA,NA,NA,""
"image-keyboard-response",521,358518,"0.0-3.170-0.170","shn6q0q5u0r3nbn","43.csv","","76.90000009536743","resources/trios/L1T2A2.jpg","39","restless",0.1,0.7,0.6,0.467040101126177,"true"
"image-keyboard-response",522,358924,"0.0-3.170-1.170","shn6q0q5u0r3nbn","43.csv","","null","resources/maskTrios/BBA2.jpg","null","",NA,NA,NA,NA,""
"image-keyboard-response",523,360129,"0.0-3.170-2.170","shn6q0q5u0r3nbn","43.csv","","null","resources/images/coin2.png","null","",NA,NA,NA,NA,""
"image-keyboard-response",524,360224,"0.0-3.171-0.171","shn6q0q5u0r3nbn","43.csv","","94","resources/trios/L1T2A2.jpg","39","restless",0.1,0.7,0.5,0.590631827771362,"false"
"image-keyboard-response",525,360630,"0.0-3.171-1.171","shn6q0q5u0r3nbn","43.csv","","null","resources/maskTrios/BBA2.jpg","null","",NA,NA,NA,NA,""
"image-keyboard-response",526,361835,"0.0-3.171-2.171","shn6q0q5u0r3nbn","43.csv","","null","resources/images/fishbone.png","null","",NA,NA,NA,NA,""
"image-keyboard-response",527,361974,"0.0-3.172-0.172","shn6q0q5u0r3nbn","43.csv","","137.89999997615814","resources/trios/L4T1A2.jpg","39","restless",0.1,0.7,0.5,0.46873226216953,"true"
"image-keyboard-response",528,362381,"0.0-3.172-1.172","shn6q0q5u0r3nbn","43.csv","","null","resources/maskTrios/BBA2.jpg","null","",NA,NA,NA,NA,""
"image-keyboard-response",529,363585,"0.0-3.172-2.172","shn6q0q5u0r3nbn","43.csv","","null","resources/images/coin2.png","null","",NA,NA,NA,NA,""
"image-keyboard-response",530,363685,"0.0-3.173-0.173","shn6q0q5u0r3nbn","43.csv","","98.79999995231628","resources/trios/L4T2A1.jpg","39","restless",0.1,0.8,0.5,0.373499109533581,"true"
"image-keyboard-response",531,364090,"0.0-3.173-1.173","shn6q0q5u0r3nbn","43.csv","","null","resources/maskTrios/BBA1.jpg","null","",NA,NA,NA,NA,""
"image-keyboard-response",532,365297,"0.0-3.173-2.173","shn6q0q5u0r3nbn","43.csv","","null","resources/images/coin2.png","null","",NA,NA,NA,NA,""
"image-keyboard-response",533,365362,"0.0-3.174-0.174","shn6q0q5u0r3nbn","43.csv","","63.799999952316284","resources/trios/L4T1A2.jpg","39","restless",0.2,0.8,0.5,0.547168626303272,"false"
"image-keyboard-response",534,365768,"0.0-3.174-1.174","shn6q0q5u0r3nbn","43.csv","","null","resources/maskTrios/BBA2.jpg","null","",NA,NA,NA,NA,""
"image-keyboard-response",535,366971,"0.0-3.174-2.174","shn6q0q5u0r3nbn","43.csv","","null","resources/images/fishbone.png","null","",NA,NA,NA,NA,""
"image-keyboard-response",536,367114,"0.0-3.175-0.175","shn6q0q5u0r3nbn","43.csv","","142.29999995231628","resources/trios/L4T1A2.jpg","39","restless",0.2,0.8,0.5,0.52146897510288,"false"
"image-keyboard-response",537,367520,"0.0-3.175-1.175","shn6q0q5u0r3nbn","43.csv","","null","resources/maskTrios/BBA2.jpg","null","",NA,NA,NA,NA,""
"image-keyboard-response",538,368726,"0.0-3.175-2.175","shn6q0q5u0r3nbn","43.csv","","null","resources/images/fishbone.png","null","",NA,NA,NA,NA,""
"image-keyboard-response",539,368835,"0.0-3.176-0.176","shn6q0q5u0r3nbn","43.csv","","108.30000007152557","resources/trios/L4T2A1.jpg","38","restless",0.2,0.7,0.5,0.496514716422269,"true"
"image-keyboard-response",540,369238,"0.0-3.176-1.176","shn6q0q5u0r3nbn","43.csv","","null","resources/maskTrios/BT2B.jpg","null","",NA,NA,NA,NA,""
"image-keyboard-response",541,370440,"0.0-3.176-2.176","shn6q0q5u0r3nbn","43.csv","","null","resources/images/coin2.png","null","",NA,NA,NA,NA,""
"image-keyboard-response",542,370556,"0.0-3.177-0.177","shn6q0q5u0r3nbn","43.csv","","115.39999997615814","resources/trios/L4T1A1.jpg","38","restless",0.2,0.7,0.5,0.318100306874558,"true"
"image-keyboard-response",543,370963,"0.0-3.177-1.177","shn6q0q5u0r3nbn","43.csv","","null","resources/maskTrios/BT1B.jpg","null","",NA,NA,NA,NA,""
"image-keyboard-response",544,372166,"0.0-3.177-2.177","shn6q0q5u0r3nbn","43.csv","","null","resources/images/coin2.png","null","",NA,NA,NA,NA,""
"image-keyboard-response",545,372356,"0.0-3.178-0.178","shn6q0q5u0r3nbn","43.csv","","188.20000004768372","resources/trios/L4T1A1.jpg","38","restless",0.2,0.7,0.5,0.0400803867990542,"true"
"image-keyboard-response",546,372760,"0.0-3.178-1.178","shn6q0q5u0r3nbn","43.csv","","null","resources/maskTrios/BT1B.jpg","null","",NA,NA,NA,NA,""
"image-keyboard-response",547,373967,"0.0-3.178-2.178","shn6q0q5u0r3nbn","43.csv","","null","resources/images/coin2.png","null","",NA,NA,NA,NA,""
"image-keyboard-response",548,374191,"0.0-3.179-0.179","shn6q0q5u0r3nbn","43.csv","","222.5","resources/trios/L1T1A1.jpg","38","restless",0.2,0.7,0.5,0.216542160128658,"true"
"image-keyboard-response",549,374595,"0.0-3.179-1.179","shn6q0q5u0r3nbn","43.csv","","null","resources/maskTrios/BT1B.jpg","null","",NA,NA,NA,NA,""
"image-keyboard-response",550,375797,"0.0-3.179-2.179","shn6q0q5u0r3nbn","43.csv","","null","resources/images/coin2.png","null","",NA,NA,NA,NA,""
"image-keyboard-response",551,375980,"0.0-3.180-0.180","shn6q0q5u0r3nbn","43.csv","","182.10000002384186","resources/trios/L1T1A2.jpg","38","restless",0.2,0.7,0.5,0.808970258147607,"false"
"image-keyboard-response",552,376386,"0.0-3.180-1.180","shn6q0q5u0r3nbn","43.csv","","null","resources/maskTrios/BT1B.jpg","null","",NA,NA,NA,NA,""
"image-keyboard-response",553,377590,"0.0-3.180-2.180","shn6q0q5u0r3nbn","43.csv","","null","resources/images/fishbone.png","null","",NA,NA,NA,NA,""
"image-keyboard-response",554,377650,"0.0-3.181-0.181","shn6q0q5u0r3nbn","43.csv","","59.5","resources/trios/L4T2A1.jpg","38","restless",0.2,0.7,0.5,0.162475269632043,"true"
"image-keyboard-response",555,378056,"0.0-3.181-1.181","shn6q0q5u0r3nbn","43.csv","","null","resources/maskTrios/BT2B.jpg","null","",NA,NA,NA,NA,""
"image-keyboard-response",556,379261,"0.0-3.181-2.181","shn6q0q5u0r3nbn","43.csv","","null","resources/images/coin2.png","null","",NA,NA,NA,NA,""
"image-keyboard-response",557,379382,"0.0-3.182-0.182","shn6q0q5u0r3nbn","43.csv","","120","resources/trios/L1T2A2.jpg","38","restless",0.2,0.7,0.5,0.259594975052952,"true"
"image-keyboard-response",558,379787,"0.0-3.182-1.182","shn6q0q5u0r3nbn","43.csv","","null","resources/maskTrios/BT2B.jpg","null","",NA,NA,NA,NA,""
"image-keyboard-response",559,380991,"0.0-3.182-2.182","shn6q0q5u0r3nbn","43.csv","","null","resources/images/coin2.png","null","",NA,NA,NA,NA,""
"image-keyboard-response",560,381101,"0.0-3.183-0.183","shn6q0q5u0r3nbn","43.csv","","109.39999997615814","resources/trios/L4T2A2.jpg","38","restless",0.2,0.6,0.5,0.189543831456785,"true"
"image-keyboard-response",561,381506,"0.0-3.183-1.183","shn6q0q5u0r3nbn","43.csv","","null","resources/maskTrios/BT2B.jpg","null","",NA,NA,NA,NA,""
"image-keyboard-response",562,382710,"0.0-3.183-2.183","shn6q0q5u0r3nbn","43.csv","","null","resources/images/coin2.png","null","",NA,NA,NA,NA,""
"image-keyboard-response",563,382817,"0.0-3.184-0.184","shn6q0q5u0r3nbn","43.csv","","106","resources/trios/L1T2A1.jpg","38","restless",0.2,0.6,0.5,0.0925195325538986,"true"
"image-keyboard-response",564,383221,"0.0-3.184-1.184","shn6q0q5u0r3nbn","43.csv","","null","resources/maskTrios/BT2B.jpg","null","",NA,NA,NA,NA,""
"image-keyboard-response",565,384427,"0.0-3.184-2.184","shn6q0q5u0r3nbn","43.csv","","null","resources/images/coin2.png","null","",NA,NA,NA,NA,""
"image-keyboard-response",566,384481,"0.0-3.185-0.185","shn6q0q5u0r3nbn","43.csv","","53.60000002384186","resources/trios/L1T2A1.jpg","38","restless",0.2,0.6,0.5,0.289501245646493,"true"
"image-keyboard-response",567,384886,"0.0-3.185-1.185","shn6q0q5u0r3nbn","43.csv","","null","resources/maskTrios/BT2B.jpg","null","",NA,NA,NA,NA,""
"image-keyboard-response",568,386091,"0.0-3.185-2.185","shn6q0q5u0r3nbn","43.csv","","null","resources/images/coin2.png","null","",NA,NA,NA,NA,""
"image-keyboard-response",569,386131,"0.0-3.186-0.186","shn6q0q5u0r3nbn","43.csv","","38.89999997615814","resources/trios/L4T1A2.jpg","38","restless",0.2,0.6,0.5,0.990457470800614,"false"
"image-keyboard-response",570,386536,"0.0-3.186-1.186","shn6q0q5u0r3nbn","43.csv","","null","resources/maskTrios/BT1B.jpg","null","",NA,NA,NA,NA,""
"image-keyboard-response",571,387740,"0.0-3.186-2.186","shn6q0q5u0r3nbn","43.csv","","null","resources/images/fishbone.png","null","",NA,NA,NA,NA,""
"image-keyboard-response",572,387815,"0.0-3.187-0.187","shn6q0q5u0r3nbn","43.csv","","73.20000004768372","resources/trios/L1T2A2.jpg","38","restless",0.3,0.6,0.5,0.0215301488387987,"true"
"image-keyboard-response",573,388220,"0.0-3.187-1.187","shn6q0q5u0r3nbn","43.csv","","null","resources/maskTrios/BT2B.jpg","null","",NA,NA,NA,NA,""
"image-keyboard-response",574,389427,"0.0-3.187-2.187","shn6q0q5u0r3nbn","43.csv","","null","resources/images/coin2.png","null","",NA,NA,NA,NA,""
"image-keyboard-response",575,389538,"0.0-3.188-0.188","shn6q0q5u0r3nbn","43.csv","","110","resources/trios/L4T2A2.jpg","38","restless",0.3,0.6,0.5,0.706561585855533,"false"
"image-keyboard-response",576,389942,"0.0-3.188-1.188","shn6q0q5u0r3nbn","43.csv","","null","resources/maskTrios/BT2B.jpg","null","",NA,NA,NA,NA,""
"image-keyboard-response",577,391147,"0.0-3.188-2.188","shn6q0q5u0r3nbn","43.csv","","null","resources/images/fishbone.png","null","",NA,NA,NA,NA,""
"image-keyboard-response",578,391327,"0.0-3.189-0.189","shn6q0q5u0r3nbn","43.csv","","178.60000002384186","resources/trios/L1T1A1.jpg","38","restless",0.3,0.6,0.5,0.387743200704844,"true"
"image-keyboard-response",579,391731,"0.0-3.189-1.189","shn6q0q5u0r3nbn","43.csv","","null","resources/maskTrios/BT1B.jpg","null","",NA,NA,NA,NA,""
"image-keyboard-response",580,392935,"0.0-3.189-2.189","shn6q0q5u0r3nbn","43.csv","","null","resources/images/coin2.png","null","",NA,NA,NA,NA,""
"image-keyboard-response",581,393138,"0.0-3.190-0.190","shn6q0q5u0r3nbn","43.csv","","200.69999992847443","resources/trios/L4T1A2.jpg","38","restless",0.4,0.6,0.5,0.290232169865642,"true"
"image-keyboard-response",582,393543,"0.0-3.190-1.190","shn6q0q5u0r3nbn","43.csv","","null","resources/maskTrios/BT1B.jpg","null","",NA,NA,NA,NA,""
"image-keyboard-response",583,394748,"0.0-3.190-2.190","shn6q0q5u0r3nbn","43.csv","","null","resources/images/coin2.png","null","",NA,NA,NA,NA,""
"image-keyboard-response",584,394925,"0.0-3.191-0.191","shn6q0q5u0r3nbn","43.csv","","176.10000002384186","resources/trios/L4T2A2.jpg","38","restless",0.4,0.6,0.5,0.537030731404064,"true"
"image-keyboard-response",585,395332,"0.0-3.191-1.191","shn6q0q5u0r3nbn","43.csv","","null","resources/maskTrios/BT2B.jpg","null","",NA,NA,NA,NA,""
"image-keyboard-response",586,396536,"0.0-3.191-2.191","shn6q0q5u0r3nbn","43.csv","","null","resources/images/coin2.png","null","",NA,NA,NA,NA,""
"image-keyboard-response",587,396556,"0.0-3.192-0.192","shn6q0q5u0r3nbn","43.csv","","18.90000009536743","resources/trios/L1T1A2.jpg","38","restless",0.4,0.6,0.4,0.429535238668855,"true"
"image-keyboard-response",588,396960,"0.0-3.192-1.192","shn6q0q5u0r3nbn","43.csv","","null","resources/maskTrios/BT1B.jpg","null","",NA,NA,NA,NA,""
"image-keyboard-response",589,398166,"0.0-3.192-2.192","shn6q0q5u0r3nbn","43.csv","","null","resources/images/coin2.png","null","",NA,NA,NA,NA,""
"image-keyboard-response",590,398296,"0.0-3.193-0.193","shn6q0q5u0r3nbn","43.csv","","128.70000004768372","resources/trios/L4T2A2.jpg","38","restless",0.4,0.6,0.4,0.797163990460755,"false"
"image-keyboard-response",591,398699,"0.0-3.193-1.193","shn6q0q5u0r3nbn","43.csv","","null","resources/maskTrios/BT2B.jpg","null","",NA,NA,NA,NA,""
"image-keyboard-response",592,399902,"0.0-3.193-2.193","shn6q0q5u0r3nbn","43.csv","","null","resources/images/fishbone.png","null","",NA,NA,NA,NA,""
"image-keyboard-response",593,399982,"0.0-3.194-0.194","shn6q0q5u0r3nbn","43.csv","","79","resources/trios/L1T2A1.jpg","39","restless",0.4,0.5,0.4,0.675873559907512,"false"
"image-keyboard-response",594,400388,"0.0-3.194-1.194","shn6q0q5u0r3nbn","43.csv","","null","resources/maskTrios/BBA1.jpg","null","",NA,NA,NA,NA,""
"image-keyboard-response",595,401592,"0.0-3.194-2.194","shn6q0q5u0r3nbn","43.csv","","null","resources/images/fishbone.png","null","",NA,NA,NA,NA,""
"image-keyboard-response",596,401783,"0.0-3.195-0.195","shn6q0q5u0r3nbn","43.csv","","188.89999997615814","resources/trios/L4T2A2.jpg","39","restless",0.4,0.5,0.4,0.378626507568885,"true"
"image-keyboard-response",597,402185,"0.0-3.195-1.195","shn6q0q5u0r3nbn","43.csv","","null","resources/maskTrios/BBA2.jpg","null","",NA,NA,NA,NA,""
"image-keyboard-response",598,403392,"0.0-3.195-2.195","shn6q0q5u0r3nbn","43.csv","","null","resources/images/coin2.png","null","",NA,NA,NA,NA,""
"image-keyboard-response",599,403448,"0.0-3.196-0.196","shn6q0q5u0r3nbn","43.csv","","54.299999952316284","resources/trios/L1T2A2.jpg","39","restless",0.4,0.5,0.4,0.594698773222588,"false"
"image-keyboard-response",600,403855,"0.0-3.196-1.196","shn6q0q5u0r3nbn","43.csv","","null","resources/maskTrios/BBA2.jpg","null","",NA,NA,NA,NA,""
"image-keyboard-response",601,405060,"0.0-3.196-2.196","shn6q0q5u0r3nbn","43.csv","","null","resources/images/fishbone.png","null","",NA,NA,NA,NA,""
"image-keyboard-response",602,405293,"0.0-3.197-0.197","shn6q0q5u0r3nbn","43.csv","","231.10000002384186","resources/trios/L1T2A2.jpg","39","restless",0.5,0.5,0.4,0.213985285922986,"true"
"image-keyboard-response",603,405699,"0.0-3.197-1.197","shn6q0q5u0r3nbn","43.csv","","null","resources/maskTrios/BBA2.jpg","null","",NA,NA,NA,NA,""
"image-keyboard-response",604,406904,"0.0-3.197-2.197","shn6q0q5u0r3nbn","43.csv","","null","resources/images/coin2.png","null","",NA,NA,NA,NA,""
"image-keyboard-response",605,406970,"0.0-3.198-0.198","shn6q0q5u0r3nbn","43.csv","","64.69999992847443","resources/trios/L1T2A1.jpg","39","restless",0.5,0.5,0.4,0.349617994740514,"true"
"image-keyboard-response",606,407376,"0.0-3.198-1.198","shn6q0q5u0r3nbn","43.csv","","null","resources/maskTrios/BBA1.jpg","null","",NA,NA,NA,NA,""
"image-keyboard-response",607,408582,"0.0-3.198-2.198","shn6q0q5u0r3nbn","43.csv","","null","resources/images/coin2.png","null","",NA,NA,NA,NA,""
"image-keyboard-response",608,408627,"0.0-3.199-0.199","shn6q0q5u0r3nbn","43.csv","","43.10000002384186","resources/trios/L1T1A2.jpg","39","restless",0.5,0.4,0.4,0.976250528814722,"false"
"image-keyboard-response",609,409031,"0.0-3.199-1.199","shn6q0q5u0r3nbn","43.csv","","null","resources/maskTrios/BBA2.jpg","null","",NA,NA,NA,NA,""
"image-keyboard-response",610,410235,"0.0-3.199-2.199","shn6q0q5u0r3nbn","43.csv","","null","resources/images/fishbone.png","null","",NA,NA,NA,NA,""
"image-keyboard-response",611,410399,"0.0-3.200-0.200","shn6q0q5u0r3nbn","43.csv","","161.10000002384186","resources/trios/L1T2A1.jpg","39","restless",0.5,0.4,0.4,0.0346839234604635,"true"
"image-keyboard-response",612,410804,"0.0-3.200-1.200","shn6q0q5u0r3nbn","43.csv","","null","resources/maskTrios/BBA1.jpg","null","",NA,NA,NA,NA,""
"image-keyboard-response",613,412007,"0.0-3.200-2.200","shn6q0q5u0r3nbn","43.csv","","null","resources/images/coin2.png","null","",NA,NA,NA,NA,""
"image-keyboard-response",614,412158,"0.0-3.201-0.201","shn6q0q5u0r3nbn","43.csv","","149.60000002384186","resources/trios/L1T1A1.jpg","39","restless",0.5,0.4,0.4,0.890041421658923,"false"
"image-keyboard-response",615,412562,"0.0-3.201-1.201","shn6q0q5u0r3nbn","43.csv","","null","resources/maskTrios/BBA1.jpg","null","",NA,NA,NA,NA,""
"image-keyboard-response",616,413766,"0.0-3.201-2.201","shn6q0q5u0r3nbn","43.csv","","null","resources/images/fishbone.png","null","",NA,NA,NA,NA,""
"image-keyboard-response",617,413876,"0.0-3.202-0.202","shn6q0q5u0r3nbn","43.csv","","107.5","resources/trios/L4T2A1.jpg","39","restless",0.5,0.4,0.4,0.435471316785036,"false"
"image-keyboard-response",618,414280,"0.0-3.202-1.202","shn6q0q5u0r3nbn","43.csv","","null","resources/maskTrios/BBA1.jpg","null","",NA,NA,NA,NA,""
"image-keyboard-response",619,415486,"0.0-3.202-2.202","shn6q0q5u0r3nbn","43.csv","","null","resources/images/fishbone.png","null","",NA,NA,NA,NA,""
"image-keyboard-response",620,415640,"0.0-3.203-0.203","shn6q0q5u0r3nbn","43.csv","","152.39999997615814","resources/trios/L1T2A2.jpg","38","restless",0.5,0.4,0.3,0.0227839251715993,"true"
"image-keyboard-response",621,416046,"0.0-3.203-1.203","shn6q0q5u0r3nbn","43.csv","","null","resources/maskTrios/BT2B.jpg","null","",NA,NA,NA,NA,""
"image-keyboard-response",622,417250,"0.0-3.203-2.203","shn6q0q5u0r3nbn","43.csv","","null","resources/images/coin2.png","null","",NA,NA,NA,NA,""
"image-keyboard-response",623,417391,"0.0-3.204-0.204","shn6q0q5u0r3nbn","43.csv","","139.60000002384186","resources/trios/L1T2A1.jpg","38","restless",0.5,0.4,0.3,0.692249846151493,"false"
"image-keyboard-response",624,417795,"0.0-3.204-1.204","shn6q0q5u0r3nbn","43.csv","","null","resources/maskTrios/BT2B.jpg","null","",NA,NA,NA,NA,""
"image-keyboard-response",625,419001,"0.0-3.204-2.204","shn6q0q5u0r3nbn","43.csv","","null","resources/images/fishbone.png","null","",NA,NA,NA,NA,""
