"trial_type","trial_index","time_elapsed","internal_node_id","subject","participantCode","walkNumber","success","rt","stimulus","key_press","test_part","leftProb","midProb","rightProb","generatedNum","correct"
"pavlovia",0,1071,"0.0-0.0","hndz1u5lzhjafsq",350,"111.csv","","","","","",NA,NA,NA,NA,""
"fullscreen",1,15297,"0.0-1.0","hndz1u5lzhjafsq",350,"111.csv","true","","","","",NA,NA,NA,NA,""
"html-keyboard-response",2,40878,"0.0-2.0-0.0","hndz1u5lzhjafsq",350,"111.csv","","25574.30000001192","<p><font size='6'>Arrrgh!</p></font><p>Can you be the best pirate? Try to find lots of gold! But beware, some islands have more gold than others, and over time, the island with the most gold may change. Can YOU figure it out? </p><font size='6'>GOOD LUCK, CAPTAIN!!!</font><p>Press any key to begin</p>","32","",NA,NA,NA,NA,""
"image-keyboard-response",3,43883,"0.0-2.0-1.0","hndz1u5lzhjafsq",350,"111.csv","","null","resources/image_sets/111.png","null","",NA,NA,NA,NA,""
"image-keyboard-response",4,51629,"0.0-2.0-2.0","hndz1u5lzhjafsq",350,"111.csv","","7741.5","resources/image_sets/left_highlight.png","37","",NA,NA,NA,NA,""
"image-keyboard-response",5,54676,"0.0-2.0-3.0","hndz1u5lzhjafsq",350,"111.csv","","3044.100000023842","resources/image_sets/mid_highlight.png","38","",NA,NA,NA,NA,""
"image-keyboard-response",6,55475,"0.0-2.0-4.0","hndz1u5lzhjafsq",350,"111.csv","","797.8000000119209","resources/image_sets/right_highlight.png","39","",NA,NA,NA,NA,""
"image-keyboard-response",7,60344,"0.0-2.0-5.0","hndz1u5lzhjafsq",350,"111.csv","","4867.199999988079","resources/image_sets/111.png","13","",NA,NA,NA,NA,""
"image-keyboard-response",8,63717,"0.0-2.0-6.0","hndz1u5lzhjafsq",350,"111.csv","","3371.099999964237","resources/images/coin2.png","13","",NA,NA,NA,NA,""
"image-keyboard-response",9,66333,"0.0-2.0-7.0","hndz1u5lzhjafsq",350,"111.csv","","2614.100000023842","resources/images/fishbone.png","13","",NA,NA,NA,NA,""
"html-keyboard-response",10,72579,"0.0-2.0-8.0","hndz1u5lzhjafsq",350,"111.csv","","6244","<p>Your first journey will be a long one, but you will get a well deserved break at the end</p><p>After the break you will have four more journeys, but each will be much shorter than the first, and you will have breaks in between each</p><p>Press Enter to begin</p>","13","",NA,NA,NA,NA,""
"image-keyboard-response",11,75538,"0.0-3.0-0.0","hndz1u5lzhjafsq",350,"111.csv","","2955.699999988079","resources/trios/L1T4A1.jpg","39","restless",0.9,0.3,0.7,0.659547211594391,"true"
"image-keyboard-response",12,75942,"0.0-3.0-1.0","hndz1u5lzhjafsq",350,"111.csv","","null","resources/maskTrios/BBA1.jpg","null","",NA,NA,NA,NA,""
"image-keyboard-response",13,77146,"0.0-3.0-2.0","hndz1u5lzhjafsq",350,"111.csv","","null","resources/images/coin2.png","null","",NA,NA,NA,NA,""
"image-keyboard-response",14,79693,"0.0-3.1-0.1","hndz1u5lzhjafsq",350,"111.csv","","2544.199999988079","resources/trios/L1T4A1.jpg","38","restless",0.9,0.4,0.7,0.255349252456941,"true"
"image-keyboard-response",15,80098,"0.0-3.1-1.1","hndz1u5lzhjafsq",350,"111.csv","","null","resources/maskTrios/BT4B.jpg","null","",NA,NA,NA,NA,""
"image-keyboard-response",16,81302,"0.0-3.1-2.1","hndz1u5lzhjafsq",350,"111.csv","","null","resources/images/coin2.png","null","",NA,NA,NA,NA,""
"image-keyboard-response",17,82746,"0.0-3.2-0.2","hndz1u5lzhjafsq",350,"111.csv","","1442.9000000357628","resources/trios/L1T1A2.jpg","37","restless",0.9,0.4,0.7,0.562023474675087,"true"
"image-keyboard-response",18,83152,"0.0-3.2-1.2","hndz1u5lzhjafsq",350,"111.csv","","null","resources/maskTrios/L1BB.jpg","null","",NA,NA,NA,NA,""
"image-keyboard-response",19,84356,"0.0-3.2-2.2","hndz1u5lzhjafsq",350,"111.csv","","null","resources/images/coin2.png","null","",NA,NA,NA,NA,""
"image-keyboard-response",20,85235,"0.0-3.3-0.3","hndz1u5lzhjafsq",350,"111.csv","","877.2000000476837","resources/trios/L1T4A2.jpg","38","restless",0.9,0.4,0.7,0.226675945801996,"true"
"image-keyboard-response",21,85640,"0.0-3.3-1.3","hndz1u5lzhjafsq",350,"111.csv","","null","resources/maskTrios/BT4B.jpg","null","",NA,NA,NA,NA,""
"image-keyboard-response",22,86843,"0.0-3.3-2.3","hndz1u5lzhjafsq",350,"111.csv","","null","resources/images/coin2.png","null","",NA,NA,NA,NA,""
"image-keyboard-response",23,87246,"0.0-3.4-0.4","hndz1u5lzhjafsq",350,"111.csv","","401.5","resources/trios/L2T1A1.jpg","38","restless",0.9,0.4,0.7,0.260665360476061,"true"
"image-keyboard-response",24,87652,"0.0-3.4-1.4","hndz1u5lzhjafsq",350,"111.csv","","null","resources/maskTrios/BT1B.jpg","null","",NA,NA,NA,NA,""
"image-keyboard-response",25,88853,"0.0-3.4-2.4","hndz1u5lzhjafsq",350,"111.csv","","null","resources/images/coin2.png","null","",NA,NA,NA,NA,""
"image-keyboard-response",26,89396,"0.0-3.5-0.5","hndz1u5lzhjafsq",350,"111.csv","","541.2000000476837","resources/trios/L1T4A1.jpg","37","restless",0.9,0.4,0.7,0.53192518697875,"true"
"image-keyboard-response",27,89797,"0.0-3.5-1.5","hndz1u5lzhjafsq",350,"111.csv","","null","resources/maskTrios/L1BB.jpg","null","",NA,NA,NA,NA,""
"image-keyboard-response",28,91004,"0.0-3.5-2.5","hndz1u5lzhjafsq",350,"111.csv","","null","resources/images/coin2.png","null","",NA,NA,NA,NA,""
"image-keyboard-response",29,91676,"0.0-3.6-0.6","hndz1u5lzhjafsq",350,"111.csv","","670.5","resources/trios/L1T4A2.jpg","39","restless",0.9,0.4,0.7,0.510196812880392,"true"
"image-keyboard-response",30,92079,"0.0-3.6-1.6","hndz1u5lzhjafsq",350,"111.csv","","null","resources/maskTrios/BBA2.jpg","null","",NA,NA,NA,NA,""
"image-keyboard-response",31,93286,"0.0-3.6-2.6","hndz1u5lzhjafsq",350,"111.csv","","null","resources/images/coin2.png","null","",NA,NA,NA,NA,""
"image-keyboard-response",32,93619,"0.0-3.7-0.7","hndz1u5lzhjafsq",350,"111.csv","","331.5","resources/trios/L2T4A2.jpg","38","restless",0.8,0.4,0.7,0.259280831472448,"true"
"image-keyboard-response",33,94021,"0.0-3.7-1.7","hndz1u5lzhjafsq",350,"111.csv","","null","resources/maskTrios/BT4B.jpg","null","",NA,NA,NA,NA,""
"image-keyboard-response",34,95225,"0.0-3.7-2.7","hndz1u5lzhjafsq",350,"111.csv","","null","resources/images/coin2.png","null","",NA,NA,NA,NA,""
"image-keyboard-response",35,95501,"0.0-3.8-0.8","hndz1u5lzhjafsq",350,"111.csv","","274.80000001192093","resources/trios/L1T4A1.jpg","37","restless",0.8,0.4,0.7,0.996595690872504,"false"
"image-keyboard-response",36,95907,"0.0-3.8-1.8","hndz1u5lzhjafsq",350,"111.csv","","null","resources/maskTrios/L1BB.jpg","null","",NA,NA,NA,NA,""
"image-keyboard-response",37,97113,"0.0-3.8-2.8","hndz1u5lzhjafsq",350,"111.csv","","null","resources/images/fishbone.png","null","",NA,NA,NA,NA,""
"image-keyboard-response",38,98633,"0.0-3.9-0.9","hndz1u5lzhjafsq",350,"111.csv","","1518.5","resources/trios/L2T4A2.jpg","38","restless",0.8,0.4,0.7,0.624538177707674,"false"
"image-keyboard-response",39,99039,"0.0-3.9-1.9","hndz1u5lzhjafsq",350,"111.csv","","null","resources/maskTrios/BT4B.jpg","null","",NA,NA,NA,NA,""
"image-keyboard-response",40,100244,"0.0-3.9-2.9","hndz1u5lzhjafsq",350,"111.csv","","null","resources/images/fishbone.png","null","",NA,NA,NA,NA,""
"image-keyboard-response",41,103253,"0.0-3.10-0.10","hndz1u5lzhjafsq",350,"111.csv","","3007.5","resources/trios/L1T4A1.jpg","37","restless",0.8,0.4,0.7,0.419423800689937,"true"
"image-keyboard-response",42,103659,"0.0-3.10-1.10","hndz1u5lzhjafsq",350,"111.csv","","null","resources/maskTrios/L1BB.jpg","null","",NA,NA,NA,NA,""
"image-keyboard-response",43,104863,"0.0-3.10-2.10","hndz1u5lzhjafsq",350,"111.csv","","null","resources/images/coin2.png","null","",NA,NA,NA,NA,""
"image-keyboard-response",44,106281,"0.0-3.11-0.11","hndz1u5lzhjafsq",350,"111.csv","","1417","resources/trios/L2T1A2.jpg","38","restless",0.8,0.4,0.7,0.150685971889974,"true"
"image-keyboard-response",45,106684,"0.0-3.11-1.11","hndz1u5lzhjafsq",350,"111.csv","","null","resources/maskTrios/BT1B.jpg","null","",NA,NA,NA,NA,""
"image-keyboard-response",46,107887,"0.0-3.11-2.11","hndz1u5lzhjafsq",350,"111.csv","","null","resources/images/coin2.png","null","",NA,NA,NA,NA,""
"image-keyboard-response",47,110381,"0.0-3.12-0.12","hndz1u5lzhjafsq",350,"111.csv","","2491.899999976158","resources/trios/L2T1A1.jpg","39","restless",0.7,0.4,0.7,0.558116713500789,"true"
"image-keyboard-response",48,110787,"0.0-3.12-1.12","hndz1u5lzhjafsq",350,"111.csv","","null","resources/maskTrios/BBA1.jpg","null","",NA,NA,NA,NA,""
"image-keyboard-response",49,111990,"0.0-3.12-2.12","hndz1u5lzhjafsq",350,"111.csv","","null","resources/images/coin2.png","null","",NA,NA,NA,NA,""
"image-keyboard-response",50,113137,"0.0-3.13-0.13","hndz1u5lzhjafsq",350,"111.csv","","1144.8999999761581","resources/trios/L2T1A2.jpg","39","restless",0.7,0.4,0.7,0.959298925236638,"false"
"image-keyboard-response",51,113541,"0.0-3.13-1.13","hndz1u5lzhjafsq",350,"111.csv","","null","resources/maskTrios/BBA2.jpg","null","",NA,NA,NA,NA,""
"image-keyboard-response",52,114743,"0.0-3.13-2.13","hndz1u5lzhjafsq",350,"111.csv","","null","resources/images/fishbone.png","null","",NA,NA,NA,NA,""
"image-keyboard-response",53,115873,"0.0-3.14-0.14","hndz1u5lzhjafsq",350,"111.csv","","1128.6000000238419","resources/trios/L1T4A1.jpg","37","restless",0.7,0.4,0.7,0.226521001169406,"true"
"image-keyboard-response",54,116279,"0.0-3.14-1.14","hndz1u5lzhjafsq",350,"111.csv","","null","resources/maskTrios/L1BB.jpg","null","",NA,NA,NA,NA,""
"image-keyboard-response",55,117486,"0.0-3.14-2.14","hndz1u5lzhjafsq",350,"111.csv","","null","resources/images/coin2.png","null","",NA,NA,NA,NA,""
"image-keyboard-response",56,118123,"0.0-3.15-0.15","hndz1u5lzhjafsq",350,"111.csv","","635.7000000476837","resources/trios/L1T1A2.jpg","38","restless",0.7,0.4,0.7,0.941679191037216,"false"
"image-keyboard-response",57,118525,"0.0-3.15-1.15","hndz1u5lzhjafsq",350,"111.csv","","null","resources/maskTrios/BT1B.jpg","null","",NA,NA,NA,NA,""
"image-keyboard-response",58,119731,"0.0-3.15-2.15","hndz1u5lzhjafsq",350,"111.csv","","null","resources/images/fishbone.png","null","",NA,NA,NA,NA,""
"image-keyboard-response",59,121347,"0.0-3.16-0.16","hndz1u5lzhjafsq",350,"111.csv","","1614.0999999642372","resources/trios/L1T4A1.jpg","38","restless",0.7,0.4,0.7,0.973800446557202,"false"
"image-keyboard-response",60,121753,"0.0-3.16-1.16","hndz1u5lzhjafsq",350,"111.csv","","null","resources/maskTrios/BT4B.jpg","null","",NA,NA,NA,NA,""
"image-keyboard-response",61,122957,"0.0-3.16-2.16","hndz1u5lzhjafsq",350,"111.csv","","null","resources/images/fishbone.png","null","",NA,NA,NA,NA,""
"image-keyboard-response",62,123770,"0.0-3.17-0.17","hndz1u5lzhjafsq",350,"111.csv","","811.6999999880791","resources/trios/L1T1A2.jpg","39","restless",0.7,0.4,0.7,0.22639555503442,"true"
"image-keyboard-response",63,124175,"0.0-3.17-1.17","hndz1u5lzhjafsq",350,"111.csv","","null","resources/maskTrios/BBA2.jpg","null","",NA,NA,NA,NA,""
"image-keyboard-response",64,125380,"0.0-3.17-2.17","hndz1u5lzhjafsq",350,"111.csv","","null","resources/images/coin2.png","null","",NA,NA,NA,NA,""
"image-keyboard-response",65,125889,"0.0-3.18-0.18","hndz1u5lzhjafsq",350,"111.csv","","507.5","resources/trios/L1T1A2.jpg","37","restless",0.7,0.4,0.7,0.86177619316129,"false"
"image-keyboard-response",66,126293,"0.0-3.18-1.18","hndz1u5lzhjafsq",350,"111.csv","","null","resources/maskTrios/L1BB.jpg","null","",NA,NA,NA,NA,""
"image-keyboard-response",67,127499,"0.0-3.18-2.18","hndz1u5lzhjafsq",350,"111.csv","","null","resources/images/fishbone.png","null","",NA,NA,NA,NA,""
"image-keyboard-response",68,127855,"0.0-3.19-0.19","hndz1u5lzhjafsq",350,"111.csv","","354","resources/trios/L2T4A2.jpg","38","restless",0.7,0.4,0.7,0.751844945429847,"false"
"image-keyboard-response",69,128257,"0.0-3.19-1.19","hndz1u5lzhjafsq",350,"111.csv","","null","resources/maskTrios/BT4B.jpg","null","",NA,NA,NA,NA,""
"image-keyboard-response",70,129464,"0.0-3.19-2.19","hndz1u5lzhjafsq",350,"111.csv","","null","resources/images/fishbone.png","null","",NA,NA,NA,NA,""
"image-keyboard-response",71,130597,"0.0-3.20-0.20","hndz1u5lzhjafsq",350,"111.csv","","1132.199999988079","resources/trios/L1T4A1.jpg","37","restless",0.8,0.4,0.7,0.883875210815078,"false"
"image-keyboard-response",72,131004,"0.0-3.20-1.20","hndz1u5lzhjafsq",350,"111.csv","","null","resources/maskTrios/L1BB.jpg","null","",NA,NA,NA,NA,""
"image-keyboard-response",73,132207,"0.0-3.20-2.20","hndz1u5lzhjafsq",350,"111.csv","","null","resources/images/fishbone.png","null","",NA,NA,NA,NA,""
"image-keyboard-response",74,133915,"0.0-3.21-0.21","hndz1u5lzhjafsq",350,"111.csv","","1706.699999988079","resources/trios/L1T1A2.jpg","37","restless",0.8,0.4,0.6,0.169652283926313,"true"
"image-keyboard-response",75,134321,"0.0-3.21-1.21","hndz1u5lzhjafsq",350,"111.csv","","null","resources/maskTrios/L1BB.jpg","null","",NA,NA,NA,NA,""
"image-keyboard-response",76,135527,"0.0-3.21-2.21","hndz1u5lzhjafsq",350,"111.csv","","null","resources/images/coin2.png","null","",NA,NA,NA,NA,""
"image-keyboard-response",77,138847,"0.0-3.22-0.22","hndz1u5lzhjafsq",350,"111.csv","","3319.5","resources/trios/L1T4A1.jpg","37","restless",0.8,0.4,0.6,0.104913120293459,"true"
"image-keyboard-response",78,139250,"0.0-3.22-1.22","hndz1u5lzhjafsq",350,"111.csv","","null","resources/maskTrios/L1BB.jpg","null","",NA,NA,NA,NA,""
"image-keyboard-response",79,140453,"0.0-3.22-2.22","hndz1u5lzhjafsq",350,"111.csv","","null","resources/images/coin2.png","null","",NA,NA,NA,NA,""
"image-keyboard-response",80,141753,"0.0-3.23-0.23","hndz1u5lzhjafsq",350,"111.csv","","1299","resources/trios/L1T4A2.jpg","38","restless",0.8,0.4,0.6,0.251924555616704,"true"
"image-keyboard-response",81,142157,"0.0-3.23-1.23","hndz1u5lzhjafsq",350,"111.csv","","null","resources/maskTrios/BT4B.jpg","null","",NA,NA,NA,NA,""
"image-keyboard-response",82,143364,"0.0-3.23-2.23","hndz1u5lzhjafsq",350,"111.csv","","null","resources/images/coin2.png","null","",NA,NA,NA,NA,""
"image-keyboard-response",83,145050,"0.0-3.24-0.24","hndz1u5lzhjafsq",350,"111.csv","","1684.7000000476837","resources/trios/L2T1A1.jpg","38","restless",0.7,0.4,0.6,0.326298700747813,"true"
"image-keyboard-response",84,145454,"0.0-3.24-1.24","hndz1u5lzhjafsq",350,"111.csv","","null","resources/maskTrios/BT1B.jpg","null","",NA,NA,NA,NA,""
"image-keyboard-response",85,146660,"0.0-3.24-2.24","hndz1u5lzhjafsq",350,"111.csv","","null","resources/images/coin2.png","null","",NA,NA,NA,NA,""
"image-keyboard-response",86,148471,"0.0-3.25-0.25","hndz1u5lzhjafsq",350,"111.csv","","1809.3999999761581","resources/trios/L1T4A1.jpg","39","restless",0.7,0.4,0.6,0.591022481925573,"true"
"image-keyboard-response",87,148873,"0.0-3.25-1.25","hndz1u5lzhjafsq",350,"111.csv","","null","resources/maskTrios/BBA1.jpg","null","",NA,NA,NA,NA,""
"image-keyboard-response",88,150078,"0.0-3.25-2.25","hndz1u5lzhjafsq",350,"111.csv","","null","resources/images/coin2.png","null","",NA,NA,NA,NA,""
"image-keyboard-response",89,151491,"0.0-3.26-0.26","hndz1u5lzhjafsq",350,"111.csv","","1411.8999999761581","resources/trios/L2T1A2.jpg","38","restless",0.7,0.4,0.6,0.618803118235159,"false"
"image-keyboard-response",90,151895,"0.0-3.26-1.26","hndz1u5lzhjafsq",350,"111.csv","","null","resources/maskTrios/BT1B.jpg","null","",NA,NA,NA,NA,""
"image-keyboard-response",91,153099,"0.0-3.26-2.26","hndz1u5lzhjafsq",350,"111.csv","","null","resources/images/fishbone.png","null","",NA,NA,NA,NA,""
"image-keyboard-response",92,153630,"0.0-3.27-0.27","hndz1u5lzhjafsq",350,"111.csv","","529.4000000357628","resources/trios/L1T1A2.jpg","37","restless",0.7,0.4,0.6,0.902554411502566,"false"
"image-keyboard-response",93,154036,"0.0-3.27-1.27","hndz1u5lzhjafsq",350,"111.csv","","null","resources/maskTrios/L1BB.jpg","null","",NA,NA,NA,NA,""
"image-keyboard-response",94,155240,"0.0-3.27-2.27","hndz1u5lzhjafsq",350,"111.csv","","null","resources/images/fishbone.png","null","",NA,NA,NA,NA,""
"image-keyboard-response",95,155674,"0.0-3.28-0.28","hndz1u5lzhjafsq",350,"111.csv","","432.69999998807907","resources/trios/L2T4A2.jpg","39","restless",0.7,0.4,0.6,0.179357448096973,"true"
"image-keyboard-response",96,156077,"0.0-3.28-1.28","hndz1u5lzhjafsq",350,"111.csv","","null","resources/maskTrios/BBA2.jpg","null","",NA,NA,NA,NA,""
"image-keyboard-response",97,157281,"0.0-3.28-2.28","hndz1u5lzhjafsq",350,"111.csv","","null","resources/images/coin2.png","null","",NA,NA,NA,NA,""
"image-keyboard-response",98,157780,"0.0-3.29-0.29","hndz1u5lzhjafsq",350,"111.csv","","497.5999999642372","resources/trios/L1T4A1.jpg","37","restless",0.6,0.4,0.6,0.435564930245719,"true"
"image-keyboard-response",99,158186,"0.0-3.29-1.29","hndz1u5lzhjafsq",350,"111.csv","","null","resources/maskTrios/L1BB.jpg","null","",NA,NA,NA,NA,""
"image-keyboard-response",100,159390,"0.0-3.29-2.29","hndz1u5lzhjafsq",350,"111.csv","","null","resources/images/coin2.png","null","",NA,NA,NA,NA,""
"image-keyboard-response",101,160003,"0.0-3.30-0.30","hndz1u5lzhjafsq",350,"111.csv","","611.3000000119209","resources/trios/L1T1A2.jpg","37","restless",0.6,0.3,0.6,0.692826460071357,"false"
"image-keyboard-response",102,160408,"0.0-3.30-1.30","hndz1u5lzhjafsq",350,"111.csv","","null","resources/maskTrios/L1BB.jpg","null","",NA,NA,NA,NA,""
"image-keyboard-response",103,161614,"0.0-3.30-2.30","hndz1u5lzhjafsq",350,"111.csv","","null","resources/images/fishbone.png","null","",NA,NA,NA,NA,""
"image-keyboard-response",104,162372,"0.0-3.31-0.31","hndz1u5lzhjafsq",350,"111.csv","","756.1999999880791","resources/trios/L2T4A1.jpg","37","restless",0.6,0.3,0.6,0.941909543743729,"false"
"image-keyboard-response",105,162778,"0.0-3.31-1.31","hndz1u5lzhjafsq",350,"111.csv","","null","resources/maskTrios/L2BB.jpg","null","",NA,NA,NA,NA,""
"image-keyboard-response",106,163982,"0.0-3.31-2.31","hndz1u5lzhjafsq",350,"111.csv","","null","resources/images/fishbone.png","null","",NA,NA,NA,NA,""
"image-keyboard-response",107,164348,"0.0-3.32-0.32","hndz1u5lzhjafsq",350,"111.csv","","364.9000000357628","resources/trios/L2T4A1.jpg","38","restless",0.6,0.3,0.6,0.274705536122457,"true"
"image-keyboard-response",108,164752,"0.0-3.32-1.32","hndz1u5lzhjafsq",350,"111.csv","","null","resources/maskTrios/BT4B.jpg","null","",NA,NA,NA,NA,""
"image-keyboard-response",109,165956,"0.0-3.32-2.32","hndz1u5lzhjafsq",350,"111.csv","","null","resources/images/coin2.png","null","",NA,NA,NA,NA,""
"image-keyboard-response",110,166439,"0.0-3.33-0.33","hndz1u5lzhjafsq",350,"111.csv","","482.5","resources/trios/L2T4A1.jpg","39","restless",0.6,0.3,0.6,0.597667620695786,"true"
"image-keyboard-response",111,166841,"0.0-3.33-1.33","hndz1u5lzhjafsq",350,"111.csv","","null","resources/maskTrios/BBA1.jpg","null","",NA,NA,NA,NA,""
"image-keyboard-response",112,168048,"0.0-3.33-2.33","hndz1u5lzhjafsq",350,"111.csv","","null","resources/images/coin2.png","null","",NA,NA,NA,NA,""
"image-keyboard-response",113,168777,"0.0-3.34-0.34","hndz1u5lzhjafsq",350,"111.csv","","727.8999999761581","resources/trios/L2T4A1.jpg","37","restless",0.6,0.4,0.6,0.254555154460777,"true"
"image-keyboard-response",114,169183,"0.0-3.34-1.34","hndz1u5lzhjafsq",350,"111.csv","","null","resources/maskTrios/L2BB.jpg","null","",NA,NA,NA,NA,""
"image-keyboard-response",115,170386,"0.0-3.34-2.34","hndz1u5lzhjafsq",350,"111.csv","","null","resources/images/coin2.png","null","",NA,NA,NA,NA,""
"image-keyboard-response",116,170715,"0.0-3.35-0.35","hndz1u5lzhjafsq",350,"111.csv","","327.5","resources/trios/L1T4A1.jpg","38","restless",0.6,0.4,0.6,0.734192583189996,"false"
"image-keyboard-response",117,171117,"0.0-3.35-1.35","hndz1u5lzhjafsq",350,"111.csv","","null","resources/maskTrios/BT4B.jpg","null","",NA,NA,NA,NA,""
"image-keyboard-response",118,172320,"0.0-3.35-2.35","hndz1u5lzhjafsq",350,"111.csv","","null","resources/images/fishbone.png","null","",NA,NA,NA,NA,""
"image-keyboard-response",119,172973,"0.0-3.36-0.36","hndz1u5lzhjafsq",350,"111.csv","","651.6999999880791","resources/trios/L1T4A1.jpg","37","restless",0.6,0.4,0.6,0.380814547669122,"true"
"image-keyboard-response",120,173380,"0.0-3.36-1.36","hndz1u5lzhjafsq",350,"111.csv","","null","resources/maskTrios/L1BB.jpg","null","",NA,NA,NA,NA,""
"image-keyboard-response",121,174586,"0.0-3.36-2.36","hndz1u5lzhjafsq",350,"111.csv","","null","resources/images/coin2.png","null","",NA,NA,NA,NA,""
"image-keyboard-response",122,174997,"0.0-3.37-0.37","hndz1u5lzhjafsq",350,"111.csv","","408.80000001192093","resources/trios/L1T4A1.jpg","39","restless",0.6,0.4,0.6,0.869085619741268,"false"
"image-keyboard-response",123,175400,"0.0-3.37-1.37","hndz1u5lzhjafsq",350,"111.csv","","null","resources/maskTrios/BBA1.jpg","null","",NA,NA,NA,NA,""
"image-keyboard-response",124,176606,"0.0-3.37-2.37","hndz1u5lzhjafsq",350,"111.csv","","null","resources/images/fishbone.png","null","",NA,NA,NA,NA,""
"image-keyboard-response",125,176952,"0.0-3.38-0.38","hndz1u5lzhjafsq",350,"111.csv","","343.89999997615814","resources/trios/L2T1A1.jpg","37","restless",0.6,0.4,0.6,0.350475956945888,"true"
"image-keyboard-response",126,177356,"0.0-3.38-1.38","hndz1u5lzhjafsq",350,"111.csv","","null","resources/maskTrios/L2BB.jpg","null","",NA,NA,NA,NA,""
"image-keyboard-response",127,178558,"0.0-3.38-2.38","hndz1u5lzhjafsq",350,"111.csv","","null","resources/images/coin2.png","null","",NA,NA,NA,NA,""
"image-keyboard-response",128,179411,"0.0-3.39-0.39","hndz1u5lzhjafsq",350,"111.csv","","852","resources/trios/L2T4A2.jpg","38","restless",0.6,0.4,0.6,0.477815349135216,"false"
"image-keyboard-response",129,179818,"0.0-3.39-1.39","hndz1u5lzhjafsq",350,"111.csv","","null","resources/maskTrios/BT4B.jpg","null","",NA,NA,NA,NA,""
"image-keyboard-response",130,181023,"0.0-3.39-2.39","hndz1u5lzhjafsq",350,"111.csv","","null","resources/images/fishbone.png","null","",NA,NA,NA,NA,""
"image-keyboard-response",131,181422,"0.0-3.40-0.40","hndz1u5lzhjafsq",350,"111.csv","","398.2000000476837","resources/trios/L2T4A1.jpg","39","restless",0.6,0.4,0.6,0.735715798366559,"false"
"image-keyboard-response",132,181829,"0.0-3.40-1.40","hndz1u5lzhjafsq",350,"111.csv","","null","resources/maskTrios/BBA1.jpg","null","",NA,NA,NA,NA,""
"image-keyboard-response",133,183032,"0.0-3.40-2.40","hndz1u5lzhjafsq",350,"111.csv","","null","resources/images/fishbone.png","null","",NA,NA,NA,NA,""
"image-keyboard-response",134,183544,"0.0-3.41-0.41","hndz1u5lzhjafsq",350,"111.csv","","510.30000001192093","resources/trios/L1T1A2.jpg","37","restless",0.6,0.4,0.6,0.428361722485581,"true"
"image-keyboard-response",135,183951,"0.0-3.41-1.41","hndz1u5lzhjafsq",350,"111.csv","","null","resources/maskTrios/L1BB.jpg","null","",NA,NA,NA,NA,""
"image-keyboard-response",136,185156,"0.0-3.41-2.41","hndz1u5lzhjafsq",350,"111.csv","","null","resources/images/coin2.png","null","",NA,NA,NA,NA,""
"image-keyboard-response",137,185600,"0.0-3.42-0.42","hndz1u5lzhjafsq",350,"111.csv","","443","resources/trios/L2T4A2.jpg","38","restless",0.6,0.4,0.6,0.390384257455296,"true"
"image-keyboard-response",138,186007,"0.0-3.42-1.42","hndz1u5lzhjafsq",350,"111.csv","","null","resources/maskTrios/BT4B.jpg","null","",NA,NA,NA,NA,""
"image-keyboard-response",139,187213,"0.0-3.42-2.42","hndz1u5lzhjafsq",350,"111.csv","","null","resources/images/coin2.png","null","",NA,NA,NA,NA,""
"image-keyboard-response",140,187608,"0.0-3.43-0.43","hndz1u5lzhjafsq",350,"111.csv","","393.5","resources/trios/L1T4A1.jpg","39","restless",0.6,0.4,0.6,0.938896850420501,"false"
"image-keyboard-response",141,188010,"0.0-3.43-1.43","hndz1u5lzhjafsq",350,"111.csv","","null","resources/maskTrios/BBA1.jpg","null","",NA,NA,NA,NA,""
"image-keyboard-response",142,189216,"0.0-3.43-2.43","hndz1u5lzhjafsq",350,"111.csv","","null","resources/images/fishbone.png","null","",NA,NA,NA,NA,""
"image-keyboard-response",143,189470,"0.0-3.44-0.44","hndz1u5lzhjafsq",350,"111.csv","","252.5","resources/trios/L1T1A1.jpg","37","restless",0.6,0.5,0.6,0.847149169105797,"false"
"image-keyboard-response",144,189873,"0.0-3.44-1.44","hndz1u5lzhjafsq",350,"111.csv","","null","resources/maskTrios/L1BB.jpg","null","",NA,NA,NA,NA,""
"image-keyboard-response",145,191075,"0.0-3.44-2.44","hndz1u5lzhjafsq",350,"111.csv","","null","resources/images/fishbone.png","null","",NA,NA,NA,NA,""
"image-keyboard-response",146,191329,"0.0-3.45-0.45","hndz1u5lzhjafsq",350,"111.csv","","252.30000001192093","resources/trios/L2T1A2.jpg","38","restless",0.6,0.5,0.6,0.903367385381103,"false"
"image-keyboard-response",147,191736,"0.0-3.45-1.45","hndz1u5lzhjafsq",350,"111.csv","","null","resources/maskTrios/BT1B.jpg","null","",NA,NA,NA,NA,""
"image-keyboard-response",148,192941,"0.0-3.45-2.45","hndz1u5lzhjafsq",350,"111.csv","","null","resources/images/fishbone.png","null","",NA,NA,NA,NA,""
"image-keyboard-response",149,193312,"0.0-3.46-0.46","hndz1u5lzhjafsq",350,"111.csv","","369.5","resources/trios/L2T4A2.jpg","37","restless",0.6,0.5,0.6,0.593985313966549,"true"
"image-keyboard-response",150,193716,"0.0-3.46-1.46","hndz1u5lzhjafsq",350,"111.csv","","null","resources/maskTrios/L2BB.jpg","null","",NA,NA,NA,NA,""
"image-keyboard-response",151,194917,"0.0-3.46-2.46","hndz1u5lzhjafsq",350,"111.csv","","null","resources/images/coin2.png","null","",NA,NA,NA,NA,""
"image-keyboard-response",152,195340,"0.0-3.47-0.47","hndz1u5lzhjafsq",350,"111.csv","","421","resources/trios/L2T1A2.jpg","38","restless",0.6,0.5,0.7,0.623501511977597,"false"
"image-keyboard-response",153,195745,"0.0-3.47-1.47","hndz1u5lzhjafsq",350,"111.csv","","null","resources/maskTrios/BT1B.jpg","null","",NA,NA,NA,NA,""
"image-keyboard-response",154,196951,"0.0-3.47-2.47","hndz1u5lzhjafsq",350,"111.csv","","null","resources/images/fishbone.png","null","",NA,NA,NA,NA,""
"image-keyboard-response",155,197223,"0.0-3.48-0.48","hndz1u5lzhjafsq",350,"111.csv","","270.30000001192093","resources/trios/L1T4A2.jpg","37","restless",0.5,0.5,0.7,0.0600186137529479,"true"
"image-keyboard-response",156,197625,"0.0-3.48-1.48","hndz1u5lzhjafsq",350,"111.csv","","null","resources/maskTrios/L1BB.jpg","null","",NA,NA,NA,NA,""
"image-keyboard-response",157,198828,"0.0-3.48-2.48","hndz1u5lzhjafsq",350,"111.csv","","null","resources/images/coin2.png","null","",NA,NA,NA,NA,""
"image-keyboard-response",158,200524,"0.0-3.49-0.49","hndz1u5lzhjafsq",350,"111.csv","","1693.8999999761581","resources/trios/L2T1A1.jpg","38","restless",0.5,0.4,0.7,0.741167344946422,"false"
"image-keyboard-response",159,200925,"0.0-3.49-1.49","hndz1u5lzhjafsq",350,"111.csv","","null","resources/maskTrios/BT1B.jpg","null","",NA,NA,NA,NA,""
"image-keyboard-response",160,202128,"0.0-3.49-2.49","hndz1u5lzhjafsq",350,"111.csv","","null","resources/images/fishbone.png","null","",NA,NA,NA,NA,""
"image-keyboard-response",161,202986,"0.0-3.50-0.50","hndz1u5lzhjafsq",350,"111.csv","","856.6000000238419","resources/trios/L2T1A2.jpg","39","restless",0.5,0.4,0.7,0.973468969983339,"false"
"image-keyboard-response",162,203389,"0.0-3.50-1.50","hndz1u5lzhjafsq",350,"111.csv","","null","resources/maskTrios/BBA2.jpg","null","",NA,NA,NA,NA,""
"image-keyboard-response",163,204590,"0.0-3.50-2.50","hndz1u5lzhjafsq",350,"111.csv","","null","resources/images/fishbone.png","null","",NA,NA,NA,NA,""
"image-keyboard-response",164,204909,"0.0-3.51-0.51","hndz1u5lzhjafsq",350,"111.csv","","318.30000001192093","resources/trios/L2T4A2.jpg","37","restless",0.5,0.4,0.8,0.375744355013946,"true"
"image-keyboard-response",165,205316,"0.0-3.51-1.51","hndz1u5lzhjafsq",350,"111.csv","","null","resources/maskTrios/L2BB.jpg","null","",NA,NA,NA,NA,""
"image-keyboard-response",166,206522,"0.0-3.51-2.51","hndz1u5lzhjafsq",350,"111.csv","","null","resources/images/coin2.png","null","",NA,NA,NA,NA,""
"image-keyboard-response",167,206826,"0.0-3.52-0.52","hndz1u5lzhjafsq",350,"111.csv","","302.60000002384186","resources/trios/L2T4A2.jpg","38","restless",0.5,0.4,0.8,0.507842630844902,"false"
"image-keyboard-response",168,207231,"0.0-3.52-1.52","hndz1u5lzhjafsq",350,"111.csv","","null","resources/maskTrios/BT4B.jpg","null","",NA,NA,NA,NA,""
"image-keyboard-response",169,208436,"0.0-3.52-2.52","hndz1u5lzhjafsq",350,"111.csv","","null","resources/images/fishbone.png","null","",NA,NA,NA,NA,""
"image-keyboard-response",170,208699,"0.0-3.53-0.53","hndz1u5lzhjafsq",350,"111.csv","","261.4000000357628","resources/trios/L2T4A2.jpg","37","restless",0.4,0.4,0.8,0.614580579546564,"false"
"image-keyboard-response",171,209105,"0.0-3.53-1.53","hndz1u5lzhjafsq",350,"111.csv","","null","resources/maskTrios/L2BB.jpg","null","",NA,NA,NA,NA,""
"image-keyboard-response",172,210311,"0.0-3.53-2.53","hndz1u5lzhjafsq",350,"111.csv","","null","resources/images/fishbone.png","null","",NA,NA,NA,NA,""
"image-keyboard-response",173,210615,"0.0-3.54-0.54","hndz1u5lzhjafsq",350,"111.csv","","303.10000002384186","resources/trios/L1T1A2.jpg","38","restless",0.4,0.4,0.8,0.311253978890522,"true"
"image-keyboard-response",174,211020,"0.0-3.54-1.54","hndz1u5lzhjafsq",350,"111.csv","","null","resources/maskTrios/BT1B.jpg","null","",NA,NA,NA,NA,""
"image-keyboard-response",175,212223,"0.0-3.54-2.54","hndz1u5lzhjafsq",350,"111.csv","","null","resources/images/coin2.png","null","",NA,NA,NA,NA,""
"image-keyboard-response",176,212298,"0.0-3.55-0.55","hndz1u5lzhjafsq",350,"111.csv","","73.39999997615814","resources/trios/L1T4A1.jpg","39","restless",0.4,0.4,0.8,0.679553850247435,"true"
"image-keyboard-response",177,212704,"0.0-3.55-1.55","hndz1u5lzhjafsq",350,"111.csv","","null","resources/maskTrios/BBA1.jpg","null","",NA,NA,NA,NA,""
"image-keyboard-response",178,213906,"0.0-3.55-2.55","hndz1u5lzhjafsq",350,"111.csv","","null","resources/images/coin2.png","null","",NA,NA,NA,NA,""
"image-keyboard-response",179,214676,"0.0-3.56-0.56","hndz1u5lzhjafsq",350,"111.csv","","768.3000000119209","resources/trios/L2T1A2.jpg","38","restless",0.4,0.4,0.8,0.464065089046239,"false"
"image-keyboard-response",180,215079,"0.0-3.56-1.56","hndz1u5lzhjafsq",350,"111.csv","","null","resources/maskTrios/BT1B.jpg","null","",NA,NA,NA,NA,""
"image-keyboard-response",181,216285,"0.0-3.56-2.56","hndz1u5lzhjafsq",350,"111.csv","","null","resources/images/fishbone.png","null","",NA,NA,NA,NA,""
"image-keyboard-response",182,216778,"0.0-3.57-0.57","hndz1u5lzhjafsq",350,"111.csv","","491.60000002384186","resources/trios/L2T1A2.jpg","37","restless",0.4,0.4,0.8,0.668320551157626,"false"
"image-keyboard-response",183,217180,"0.0-3.57-1.57","hndz1u5lzhjafsq",350,"111.csv","","null","resources/maskTrios/L2BB.jpg","null","",NA,NA,NA,NA,""
"image-keyboard-response",184,218382,"0.0-3.57-2.57","hndz1u5lzhjafsq",350,"111.csv","","null","resources/images/fishbone.png","null","",NA,NA,NA,NA,""
"image-keyboard-response",185,219004,"0.0-3.58-0.58","hndz1u5lzhjafsq",350,"111.csv","","620.6999999880791","resources/trios/L2T4A2.jpg","38","restless",0.5,0.4,0.8,0.679127635426978,"false"
"image-keyboard-response",186,219406,"0.0-3.58-1.58","hndz1u5lzhjafsq",350,"111.csv","","null","resources/maskTrios/BT4B.jpg","null","",NA,NA,NA,NA,""
"image-keyboard-response",187,220608,"0.0-3.58-2.58","hndz1u5lzhjafsq",350,"111.csv","","null","resources/images/fishbone.png","null","",NA,NA,NA,NA,""
"image-keyboard-response",188,220953,"0.0-3.59-0.59","hndz1u5lzhjafsq",350,"111.csv","","344.2000000476837","resources/trios/L2T1A1.jpg","38","restless",0.5,0.4,0.8,0.0391365678051199,"true"
"image-keyboard-response",189,221356,"0.0-3.59-1.59","hndz1u5lzhjafsq",350,"111.csv","","null","resources/maskTrios/BT1B.jpg","null","",NA,NA,NA,NA,""
"image-keyboard-response",190,222562,"0.0-3.59-2.59","hndz1u5lzhjafsq",350,"111.csv","","null","resources/images/coin2.png","null","",NA,NA,NA,NA,""
"image-keyboard-response",191,222931,"0.0-3.60-0.60","hndz1u5lzhjafsq",350,"111.csv","","367.2999999523163","resources/trios/L2T1A1.jpg","38","restless",0.5,0.4,0.8,0.275942163871924,"true"
"image-keyboard-response",192,223338,"0.0-3.60-1.60","hndz1u5lzhjafsq",350,"111.csv","","null","resources/maskTrios/BT1B.jpg","null","",NA,NA,NA,NA,""
"image-keyboard-response",193,224545,"0.0-3.60-2.60","hndz1u5lzhjafsq",350,"111.csv","","null","resources/images/coin2.png","null","",NA,NA,NA,NA,""
"image-keyboard-response",194,224943,"0.0-3.61-0.61","hndz1u5lzhjafsq",350,"111.csv","","397","resources/trios/L1T4A2.jpg","37","restless",0.5,0.4,0.8,0.101133506391887,"true"
"image-keyboard-response",195,225347,"0.0-3.61-1.61","hndz1u5lzhjafsq",350,"111.csv","","null","resources/maskTrios/L1BB.jpg","null","",NA,NA,NA,NA,""
"image-keyboard-response",196,226552,"0.0-3.61-2.61","hndz1u5lzhjafsq",350,"111.csv","","null","resources/images/coin2.png","null","",NA,NA,NA,NA,""
"image-keyboard-response",197,226818,"0.0-3.62-0.62","hndz1u5lzhjafsq",350,"111.csv","","265.19999998807907","resources/trios/L2T1A2.jpg","37","restless",0.5,0.4,0.7,0.0553240499565233,"true"
"image-keyboard-response",198,227222,"0.0-3.62-1.62","hndz1u5lzhjafsq",350,"111.csv","","null","resources/maskTrios/L2BB.jpg","null","",NA,NA,NA,NA,""
"image-keyboard-response",199,228426,"0.0-3.62-2.62","hndz1u5lzhjafsq",350,"111.csv","","null","resources/images/coin2.png","null","",NA,NA,NA,NA,""
"image-keyboard-response",200,228965,"0.0-3.63-0.63","hndz1u5lzhjafsq",350,"111.csv","","537.0999999642372","resources/trios/L1T1A1.jpg","37","restless",0.5,0.4,0.7,0.302872436016014,"true"
"image-keyboard-response",201,229367,"0.0-3.63-1.63","hndz1u5lzhjafsq",350,"111.csv","","null","resources/maskTrios/L1BB.jpg","null","",NA,NA,NA,NA,""
"image-keyboard-response",202,230572,"0.0-3.63-2.63","hndz1u5lzhjafsq",350,"111.csv","","null","resources/images/coin2.png","null","",NA,NA,NA,NA,""
"image-keyboard-response",203,231130,"0.0-3.64-0.64","hndz1u5lzhjafsq",350,"111.csv","","556.2999999523163","resources/trios/L1T4A2.jpg","37","restless",0.5,0.4,0.7,0.560836169204187,"false"
"image-keyboard-response",204,231536,"0.0-3.64-1.64","hndz1u5lzhjafsq",350,"111.csv","","null","resources/maskTrios/L1BB.jpg","null","",NA,NA,NA,NA,""
"image-keyboard-response",205,232740,"0.0-3.64-2.64","hndz1u5lzhjafsq",350,"111.csv","","null","resources/images/fishbone.png","null","",NA,NA,NA,NA,""
"image-keyboard-response",206,233130,"0.0-3.65-0.65","hndz1u5lzhjafsq",350,"111.csv","","388.5999999642372","resources/trios/L2T4A2.jpg","38","restless",0.5,0.4,0.7,0.292215389539116,"true"
"image-keyboard-response",207,233536,"0.0-3.65-1.65","hndz1u5lzhjafsq",350,"111.csv","","null","resources/maskTrios/BT4B.jpg","null","",NA,NA,NA,NA,""
"image-keyboard-response",208,234739,"0.0-3.65-2.65","hndz1u5lzhjafsq",350,"111.csv","","null","resources/images/coin2.png","null","",NA,NA,NA,NA,""
"image-keyboard-response",209,234967,"0.0-3.66-0.66","hndz1u5lzhjafsq",350,"111.csv","","226.19999998807907","resources/trios/L1T4A1.jpg","38","restless",0.4,0.4,0.7,0.463151813081713,"false"
"image-keyboard-response",210,235372,"0.0-3.66-1.66","hndz1u5lzhjafsq",350,"111.csv","","null","resources/maskTrios/BT4B.jpg","null","",NA,NA,NA,NA,""
"image-keyboard-response",211,236574,"0.0-3.66-2.66","hndz1u5lzhjafsq",350,"111.csv","","null","resources/images/fishbone.png","null","",NA,NA,NA,NA,""
"image-keyboard-response",212,236874,"0.0-3.67-0.67","hndz1u5lzhjafsq",350,"111.csv","","299.2000000476837","resources/trios/L1T4A1.jpg","38","restless",0.4,0.4,0.6,0.788902826728469,"false"
"image-keyboard-response",213,237276,"0.0-3.67-1.67","hndz1u5lzhjafsq",350,"111.csv","","null","resources/maskTrios/BT4B.jpg","null","",NA,NA,NA,NA,""
"image-keyboard-response",214,238482,"0.0-3.67-2.67","hndz1u5lzhjafsq",350,"111.csv","","null","resources/images/fishbone.png","null","",NA,NA,NA,NA,""
"image-keyboard-response",215,238775,"0.0-3.68-0.68","hndz1u5lzhjafsq",350,"111.csv","","291.80000001192093","resources/trios/L2T4A2.jpg","39","restless",0.4,0.4,0.6,0.817855538443992,"false"
"image-keyboard-response",216,239182,"0.0-3.68-1.68","hndz1u5lzhjafsq",350,"111.csv","","null","resources/maskTrios/BBA2.jpg","null","",NA,NA,NA,NA,""
"image-keyboard-response",217,240384,"0.0-3.68-2.68","hndz1u5lzhjafsq",350,"111.csv","","null","resources/images/fishbone.png","null","",NA,NA,NA,NA,""
"image-keyboard-response",218,240612,"0.0-3.69-0.69","hndz1u5lzhjafsq",350,"111.csv","","226.60000002384186","resources/trios/L2T1A1.jpg","38","restless",0.4,0.4,0.6,0.439955860983049,"false"
"image-keyboard-response",219,241013,"0.0-3.69-1.69","hndz1u5lzhjafsq",350,"111.csv","","null","resources/maskTrios/BT1B.jpg","null","",NA,NA,NA,NA,""
"image-keyboard-response",220,242216,"0.0-3.69-2.69","hndz1u5lzhjafsq",350,"111.csv","","null","resources/images/fishbone.png","null","",NA,NA,NA,NA,""
"image-keyboard-response",221,242463,"0.0-3.70-0.70","hndz1u5lzhjafsq",350,"111.csv","","245.39999997615814","resources/trios/L2T1A2.jpg","37","restless",0.4,0.4,0.6,0.40635785862787,"false"
"image-keyboard-response",222,242865,"0.0-3.70-1.70","hndz1u5lzhjafsq",350,"111.csv","","null","resources/maskTrios/L2BB.jpg","null","",NA,NA,NA,NA,""
"image-keyboard-response",223,244072,"0.0-3.70-2.70","hndz1u5lzhjafsq",350,"111.csv","","null","resources/images/fishbone.png","null","",NA,NA,NA,NA,""
"image-keyboard-response",224,244324,"0.0-3.71-0.71","hndz1u5lzhjafsq",350,"111.csv","","250.89999997615814","resources/trios/L1T4A1.jpg","38","restless",0.4,0.4,0.6,0.567425116468273,"false"
"image-keyboard-response",225,244731,"0.0-3.71-1.71","hndz1u5lzhjafsq",350,"111.csv","","null","resources/maskTrios/BT4B.jpg","null","",NA,NA,NA,NA,""
"image-keyboard-response",226,245934,"0.0-3.71-2.71","hndz1u5lzhjafsq",350,"111.csv","","null","resources/images/fishbone.png","null","",NA,NA,NA,NA,""
"image-keyboard-response",227,246361,"0.0-3.72-0.72","hndz1u5lzhjafsq",350,"111.csv","","426.2000000476837","resources/trios/L2T4A2.jpg","39","restless",0.4,0.4,0.6,0.46357875796654,"true"
"image-keyboard-response",228,246765,"0.0-3.72-1.72","hndz1u5lzhjafsq",350,"111.csv","","null","resources/maskTrios/BBA2.jpg","null","",NA,NA,NA,NA,""
"image-keyboard-response",229,247967,"0.0-3.72-2.72","hndz1u5lzhjafsq",350,"111.csv","","null","resources/images/coin2.png","null","",NA,NA,NA,NA,""
"image-keyboard-response",230,248233,"0.0-3.73-0.73","hndz1u5lzhjafsq",350,"111.csv","","264.5","resources/trios/L2T1A1.jpg","39","restless",0.3,0.4,0.6,0.468788503679008,"true"
"image-keyboard-response",231,248639,"0.0-3.73-1.73","hndz1u5lzhjafsq",350,"111.csv","","null","resources/maskTrios/BBA1.jpg","null","",NA,NA,NA,NA,""
"image-keyboard-response",232,249845,"0.0-3.73-2.73","hndz1u5lzhjafsq",350,"111.csv","","null","resources/images/coin2.png","null","",NA,NA,NA,NA,""
"image-keyboard-response",233,250530,"0.0-3.74-0.74","hndz1u5lzhjafsq",350,"111.csv","","683.5","resources/trios/L2T4A1.jpg","39","restless",0.3,0.4,0.6,0.919272920740531,"false"
"image-keyboard-response",234,250932,"0.0-3.74-1.74","hndz1u5lzhjafsq",350,"111.csv","","null","resources/maskTrios/BBA1.jpg","null","",NA,NA,NA,NA,""
"image-keyboard-response",235,252136,"0.0-3.74-2.74","hndz1u5lzhjafsq",350,"111.csv","","null","resources/images/fishbone.png","null","",NA,NA,NA,NA,""
"image-keyboard-response",236,252662,"0.0-3.75-0.75","hndz1u5lzhjafsq",350,"111.csv","","524.6000000238419","resources/trios/L2T1A1.jpg","38","restless",0.3,0.4,0.6,0.729327165211242,"false"
"image-keyboard-response",237,253069,"0.0-3.75-1.75","hndz1u5lzhjafsq",350,"111.csv","","null","resources/maskTrios/BT1B.jpg","null","",NA,NA,NA,NA,""
"image-keyboard-response",238,254274,"0.0-3.75-2.75","hndz1u5lzhjafsq",350,"111.csv","","null","resources/images/fishbone.png","null","",NA,NA,NA,NA,""
"image-keyboard-response",239,254578,"0.0-3.76-0.76","hndz1u5lzhjafsq",350,"111.csv","","302.10000002384186","resources/trios/L2T1A1.jpg","37","restless",0.3,0.4,0.6,0.603360390509868,"false"
"image-keyboard-response",240,254984,"0.0-3.76-1.76","hndz1u5lzhjafsq",350,"111.csv","","null","resources/maskTrios/L2BB.jpg","null","",NA,NA,NA,NA,""
"image-keyboard-response",241,256189,"0.0-3.76-2.76","hndz1u5lzhjafsq",350,"111.csv","","null","resources/images/fishbone.png","null","",NA,NA,NA,NA,""
"image-keyboard-response",242,256240,"0.0-3.77-0.77","hndz1u5lzhjafsq",350,"111.csv","","49.5","resources/trios/L1T1A2.jpg","38","restless",0.3,0.4,0.6,0.829416284073676,"false"
"image-keyboard-response",243,256642,"0.0-3.77-1.77","hndz1u5lzhjafsq",350,"111.csv","","null","resources/maskTrios/BT1B.jpg","null","",NA,NA,NA,NA,""
"image-keyboard-response",244,257848,"0.0-3.77-2.77","hndz1u5lzhjafsq",350,"111.csv","","null","resources/images/fishbone.png","null","",NA,NA,NA,NA,""
"image-keyboard-response",245,258757,"0.0-3.78-0.78","hndz1u5lzhjafsq",350,"111.csv","","907","resources/trios/L1T4A2.jpg","38","restless",0.3,0.4,0.6,0.525439540474354,"false"
"image-keyboard-response",246,259163,"0.0-3.78-1.78","hndz1u5lzhjafsq",350,"111.csv","","null","resources/maskTrios/BT4B.jpg","null","",NA,NA,NA,NA,""
"image-keyboard-response",247,260368,"0.0-3.78-2.78","hndz1u5lzhjafsq",350,"111.csv","","null","resources/images/fishbone.png","null","",NA,NA,NA,NA,""
"image-keyboard-response",248,260882,"0.0-3.79-0.79","hndz1u5lzhjafsq",350,"111.csv","","512.2999999523163","resources/trios/L2T1A1.jpg","37","restless",0.4,0.4,0.5,0.676378945596352,"false"
"image-keyboard-response",249,261284,"0.0-3.79-1.79","hndz1u5lzhjafsq",350,"111.csv","","null","resources/maskTrios/L2BB.jpg","null","",NA,NA,NA,NA,""
"image-keyboard-response",250,262489,"0.0-3.79-2.79","hndz1u5lzhjafsq",350,"111.csv","","null","resources/images/fishbone.png","null","",NA,NA,NA,NA,""
"image-keyboard-response",251,263001,"0.0-3.80-0.80","hndz1u5lzhjafsq",350,"111.csv","","510.5999999642372","resources/trios/L1T4A2.jpg","39","restless",0.4,0.4,0.5,0.903094323333718,"false"
"image-keyboard-response",252,263406,"0.0-3.80-1.80","hndz1u5lzhjafsq",350,"111.csv","","null","resources/maskTrios/BBA2.jpg","null","",NA,NA,NA,NA,""
"image-keyboard-response",253,264609,"0.0-3.80-2.80","hndz1u5lzhjafsq",350,"111.csv","","null","resources/images/fishbone.png","null","",NA,NA,NA,NA,""
"image-keyboard-response",254,266847,"0.0-3.81-0.81","hndz1u5lzhjafsq",350,"111.csv","","2236.399999976158","resources/trios/L2T1A2.jpg","38","restless",0.4,0.5,0.5,0.101585641733007,"true"
"image-keyboard-response",255,267252,"0.0-3.81-1.81","hndz1u5lzhjafsq",350,"111.csv","","null","resources/maskTrios/BT1B.jpg","null","",NA,NA,NA,NA,""
"image-keyboard-response",256,268458,"0.0-3.81-2.81","hndz1u5lzhjafsq",350,"111.csv","","null","resources/images/coin2.png","null","",NA,NA,NA,NA,""
"image-keyboard-response",257,273618,"0.0-3.82-0.82","hndz1u5lzhjafsq",350,"111.csv","","5158.199999988079","resources/trios/L2T1A2.jpg","37","restless",0.4,0.5,0.5,0.620047007804761,"false"
"image-keyboard-response",258,274024,"0.0-3.82-1.82","hndz1u5lzhjafsq",350,"111.csv","","null","resources/maskTrios/L2BB.jpg","null","",NA,NA,NA,NA,""
"image-keyboard-response",259,275231,"0.0-3.82-2.82","hndz1u5lzhjafsq",350,"111.csv","","null","resources/images/fishbone.png","null","",NA,NA,NA,NA,""
"image-keyboard-response",260,276081,"0.0-3.83-0.83","hndz1u5lzhjafsq",350,"111.csv","","848.6000000238419","resources/trios/L2T1A1.jpg","38","restless",0.3,0.5,0.5,0.390226613235324,"true"
"image-keyboard-response",261,276483,"0.0-3.83-1.83","hndz1u5lzhjafsq",350,"111.csv","","null","resources/maskTrios/BT1B.jpg","null","",NA,NA,NA,NA,""
"image-keyboard-response",262,277689,"0.0-3.83-2.83","hndz1u5lzhjafsq",350,"111.csv","","null","resources/images/coin2.png","null","",NA,NA,NA,NA,""
"image-keyboard-response",263,282867,"0.0-3.84-0.84","hndz1u5lzhjafsq",350,"111.csv","","5176.599999964237","resources/trios/L1T4A2.jpg","38","restless",0.3,0.6,0.4,0.524730519567736,"true"
"image-keyboard-response",264,283272,"0.0-3.84-1.84","hndz1u5lzhjafsq",350,"111.csv","","null","resources/maskTrios/BT4B.jpg","null","",NA,NA,NA,NA,""
"image-keyboard-response",265,284478,"0.0-3.84-2.84","hndz1u5lzhjafsq",350,"111.csv","","null","resources/images/coin2.png","null","",NA,NA,NA,NA,""
"image-keyboard-response",266,284978,"0.0-3.85-0.85","hndz1u5lzhjafsq",350,"111.csv","","498.5","resources/trios/L2T4A2.jpg","39","restless",0.3,0.6,0.4,0.711480344797935,"false"
"image-keyboard-response",267,285380,"0.0-3.85-1.85","hndz1u5lzhjafsq",350,"111.csv","","null","resources/maskTrios/BBA2.jpg","null","",NA,NA,NA,NA,""
"image-keyboard-response",268,286587,"0.0-3.85-2.85","hndz1u5lzhjafsq",350,"111.csv","","null","resources/images/fishbone.png","null","",NA,NA,NA,NA,""
"image-keyboard-response",269,288908,"0.0-3.86-0.86","hndz1u5lzhjafsq",350,"111.csv","","2319.399999976158","resources/trios/L1T1A2.jpg","37","restless",0.3,0.6,0.4,0.184610938050659,"true"
"image-keyboard-response",270,289315,"0.0-3.86-1.86","hndz1u5lzhjafsq",350,"111.csv","","null","resources/maskTrios/L1BB.jpg","null","",NA,NA,NA,NA,""
"image-keyboard-response",271,290521,"0.0-3.86-2.86","hndz1u5lzhjafsq",350,"111.csv","","null","resources/images/coin2.png","null","",NA,NA,NA,NA,""
"image-keyboard-response",272,294288,"0.0-3.87-0.87","hndz1u5lzhjafsq",350,"111.csv","","3765.399999976158","resources/trios/L2T4A2.jpg","39","restless",0.3,0.6,0.3,0.932792217304691,"false"
"image-keyboard-response",273,294695,"0.0-3.87-1.87","hndz1u5lzhjafsq",350,"111.csv","","null","resources/maskTrios/BBA2.jpg","null","",NA,NA,NA,NA,""
"image-keyboard-response",274,295901,"0.0-3.87-2.87","hndz1u5lzhjafsq",350,"111.csv","","null","resources/images/fishbone.png","null","",NA,NA,NA,NA,""
"image-keyboard-response",275,318656,"0.0-3.88-0.88","hndz1u5lzhjafsq",350,"111.csv","","22752.599999964237","resources/trios/L1T1A1.jpg","37","restless",0.3,0.7,0.3,0.184447125079152,"true"
"image-keyboard-response",276,319060,"0.0-3.88-1.88","hndz1u5lzhjafsq",350,"111.csv","","null","resources/maskTrios/L1BB.jpg","null","",NA,NA,NA,NA,""
"image-keyboard-response",277,320267,"0.0-3.88-2.88","hndz1u5lzhjafsq",350,"111.csv","","null","resources/images/coin2.png","null","",NA,NA,NA,NA,""
"image-keyboard-response",278,321238,"0.0-3.89-0.89","hndz1u5lzhjafsq",350,"111.csv","","969.3999999761581","resources/trios/L2T1A2.jpg","38","restless",0.3,0.7,0.3,0.653819954956804,"true"
"image-keyboard-response",279,321640,"0.0-3.89-1.89","hndz1u5lzhjafsq",350,"111.csv","","null","resources/maskTrios/BT1B.jpg","null","",NA,NA,NA,NA,""
"image-keyboard-response",280,322846,"0.0-3.89-2.89","hndz1u5lzhjafsq",350,"111.csv","","null","resources/images/coin2.png","null","",NA,NA,NA,NA,""
"image-keyboard-response",281,331238,"0.0-3.90-0.90","hndz1u5lzhjafsq",350,"111.csv","","8389.600000023842","resources/trios/L1T1A2.jpg","37","restless",0.3,0.7,0.3,0.135627965012237,"true"
"image-keyboard-response",282,331643,"0.0-3.90-1.90","hndz1u5lzhjafsq",350,"111.csv","","null","resources/maskTrios/L1BB.jpg","null","",NA,NA,NA,NA,""
"image-keyboard-response",283,332845,"0.0-3.90-2.90","hndz1u5lzhjafsq",350,"111.csv","","null","resources/images/coin2.png","null","",NA,NA,NA,NA,""
"image-keyboard-response",284,336129,"0.0-3.91-0.91","hndz1u5lzhjafsq",350,"111.csv","","3282.399999976158","resources/trios/L2T1A2.jpg","37","restless",0.3,0.7,0.4,0.551037838613221,"false"
"image-keyboard-response",285,336531,"0.0-3.91-1.91","hndz1u5lzhjafsq",350,"111.csv","","null","resources/maskTrios/L2BB.jpg","null","",NA,NA,NA,NA,""
"image-keyboard-response",286,337738,"0.0-3.91-2.91","hndz1u5lzhjafsq",350,"111.csv","","null","resources/images/fishbone.png","null","",NA,NA,NA,NA,""
"image-keyboard-response",287,338179,"0.0-3.92-0.92","hndz1u5lzhjafsq",350,"111.csv","","440.0999999642372","resources/trios/L2T4A1.jpg","39","restless",0.4,0.7,0.4,0.725397885603982,"false"
"image-keyboard-response",288,338586,"0.0-3.92-1.92","hndz1u5lzhjafsq",350,"111.csv","","null","resources/maskTrios/BBA1.jpg","null","",NA,NA,NA,NA,""
"image-keyboard-response",289,339788,"0.0-3.92-2.92","hndz1u5lzhjafsq",350,"111.csv","","null","resources/images/fishbone.png","null","",NA,NA,NA,NA,""
"image-keyboard-response",290,340156,"0.0-3.93-0.93","hndz1u5lzhjafsq",350,"111.csv","","366.5","resources/trios/L1T1A2.jpg","38","restless",0.4,0.7,0.3,0.357675392369168,"true"
"image-keyboard-response",291,340561,"0.0-3.93-1.93","hndz1u5lzhjafsq",350,"111.csv","","null","resources/maskTrios/BT1B.jpg","null","",NA,NA,NA,NA,""
"image-keyboard-response",292,341764,"0.0-3.93-2.93","hndz1u5lzhjafsq",350,"111.csv","","null","resources/images/coin2.png","null","",NA,NA,NA,NA,""
"image-keyboard-response",293,342507,"0.0-3.94-0.94","hndz1u5lzhjafsq",350,"111.csv","","741.1000000238419","resources/trios/L2T1A1.jpg","37","restless",0.4,0.7,0.3,0.494322519250795,"false"
"image-keyboard-response",294,342912,"0.0-3.94-1.94","hndz1u5lzhjafsq",350,"111.csv","","null","resources/maskTrios/L2BB.jpg","null","",NA,NA,NA,NA,""
"image-keyboard-response",295,344117,"0.0-3.94-2.94","hndz1u5lzhjafsq",350,"111.csv","","null","resources/images/fishbone.png","null","",NA,NA,NA,NA,""
"image-keyboard-response",296,344582,"0.0-3.95-0.95","hndz1u5lzhjafsq",350,"111.csv","","463.80000001192093","resources/trios/L2T4A1.jpg","38","restless",0.4,0.7,0.3,0.99331094879633,"false"
"image-keyboard-response",297,344986,"0.0-3.95-1.95","hndz1u5lzhjafsq",350,"111.csv","","null","resources/maskTrios/BT4B.jpg","null","",NA,NA,NA,NA,""
"image-keyboard-response",298,346188,"0.0-3.95-2.95","hndz1u5lzhjafsq",350,"111.csv","","null","resources/images/fishbone.png","null","",NA,NA,NA,NA,""
"image-keyboard-response",299,346699,"0.0-3.96-0.96","hndz1u5lzhjafsq",350,"111.csv","","509.80000001192093","resources/trios/L1T1A1.jpg","37","restless",0.4,0.7,0.2,0.271704534125216,"true"
"image-keyboard-response",300,347105,"0.0-3.96-1.96","hndz1u5lzhjafsq",350,"111.csv","","null","resources/maskTrios/L1BB.jpg","null","",NA,NA,NA,NA,""
"image-keyboard-response",301,348312,"0.0-3.96-2.96","hndz1u5lzhjafsq",350,"111.csv","","null","resources/images/coin2.png","null","",NA,NA,NA,NA,""
"image-keyboard-response",302,349669,"0.0-3.97-0.97","hndz1u5lzhjafsq",350,"111.csv","","1355.6000000238419","resources/trios/L2T4A1.jpg","38","restless",0.3,0.7,0.2,0.134642461306028,"true"
"image-keyboard-response",303,350071,"0.0-3.97-1.97","hndz1u5lzhjafsq",350,"111.csv","","null","resources/maskTrios/BT4B.jpg","null","",NA,NA,NA,NA,""
"image-keyboard-response",304,351278,"0.0-3.97-2.97","hndz1u5lzhjafsq",350,"111.csv","","null","resources/images/coin2.png","null","",NA,NA,NA,NA,""
"image-keyboard-response",305,355971,"0.0-3.98-0.98","hndz1u5lzhjafsq",350,"111.csv","","4691.600000023842","resources/trios/L2T4A1.jpg","37","restless",0.3,0.7,0.2,0.728542468962286,"false"
"image-keyboard-response",306,356378,"0.0-3.98-1.98","hndz1u5lzhjafsq",350,"111.csv","","null","resources/maskTrios/L2BB.jpg","null","",NA,NA,NA,NA,""
"image-keyboard-response",307,357581,"0.0-3.98-2.98","hndz1u5lzhjafsq",350,"111.csv","","null","resources/images/fishbone.png","null","",NA,NA,NA,NA,""
"image-keyboard-response",308,360521,"0.0-3.99-0.99","hndz1u5lzhjafsq",350,"111.csv","","2939.400000035763","resources/trios/L2T4A1.jpg","38","restless",0.3,0.7,0.2,0.786655520110381,"false"
"image-keyboard-response",309,360923,"0.0-3.99-1.99","hndz1u5lzhjafsq",350,"111.csv","","null","resources/maskTrios/BT4B.jpg","null","",NA,NA,NA,NA,""
"image-keyboard-response",310,362130,"0.0-3.99-2.99","hndz1u5lzhjafsq",350,"111.csv","","null","resources/images/fishbone.png","null","",NA,NA,NA,NA,""
"image-keyboard-response",311,362827,"0.0-3.100-0.100","hndz1u5lzhjafsq",350,"111.csv","","695.6999999880791","resources/trios/L1T4A2.jpg","38","restless",0.3,0.7,0.2,0.437233885718898,"true"
"image-keyboard-response",312,363234,"0.0-3.100-1.100","hndz1u5lzhjafsq",350,"111.csv","","null","resources/maskTrios/BT4B.jpg","null","",NA,NA,NA,NA,""
"image-keyboard-response",313,364437,"0.0-3.100-2.100","hndz1u5lzhjafsq",350,"111.csv","","null","resources/images/coin2.png","null","",NA,NA,NA,NA,""
"image-keyboard-response",314,366463,"0.0-3.101-0.101","hndz1u5lzhjafsq",350,"111.csv","","2023.7999999523163","resources/trios/L2T1A1.jpg","37","restless",0.3,0.7,0.2,0.740038772189632,"false"
"image-keyboard-response",315,366869,"0.0-3.101-1.101","hndz1u5lzhjafsq",350,"111.csv","","null","resources/maskTrios/L2BB.jpg","null","",NA,NA,NA,NA,""
"image-keyboard-response",316,368073,"0.0-3.101-2.101","hndz1u5lzhjafsq",350,"111.csv","","null","resources/images/fishbone.png","null","",NA,NA,NA,NA,""
"image-keyboard-response",317,368493,"0.0-3.102-0.102","hndz1u5lzhjafsq",350,"111.csv","","417.89999997615814","resources/trios/L2T1A2.jpg","38","restless",0.3,0.7,0.2,0.642662019721611,"true"
"image-keyboard-response",318,368894,"0.0-3.102-1.102","hndz1u5lzhjafsq",350,"111.csv","","null","resources/maskTrios/BT1B.jpg","null","",NA,NA,NA,NA,""
"image-keyboard-response",319,370101,"0.0-3.102-2.102","hndz1u5lzhjafsq",350,"111.csv","","null","resources/images/coin2.png","null","",NA,NA,NA,NA,""
"image-keyboard-response",320,370822,"0.0-3.103-0.103","hndz1u5lzhjafsq",350,"111.csv","","719.2999999523163","resources/trios/L1T4A1.jpg","39","restless",0.3,0.7,0.2,0.290951466578192,"false"
"image-keyboard-response",321,371226,"0.0-3.103-1.103","hndz1u5lzhjafsq",350,"111.csv","","null","resources/maskTrios/BBA1.jpg","null","",NA,NA,NA,NA,""
"image-keyboard-response",322,372429,"0.0-3.103-2.103","hndz1u5lzhjafsq",350,"111.csv","","null","resources/images/fishbone.png","null","",NA,NA,NA,NA,""
"image-keyboard-response",323,376984,"0.0-3.104-0.104","hndz1u5lzhjafsq",350,"111.csv","","4553.400000035763","resources/trios/L1T1A1.jpg","37","restless",0.3,0.7,0.2,0.761824358499293,"false"
"image-keyboard-response",324,377388,"0.0-3.104-1.104","hndz1u5lzhjafsq",350,"111.csv","","null","resources/maskTrios/L1BB.jpg","null","",NA,NA,NA,NA,""
"image-keyboard-response",325,378591,"0.0-3.104-2.104","hndz1u5lzhjafsq",350,"111.csv","","null","resources/images/fishbone.png","null","",NA,NA,NA,NA,""
"image-keyboard-response",326,379024,"0.0-3.105-0.105","hndz1u5lzhjafsq",350,"111.csv","","431","resources/trios/L2T4A2.jpg","38","restless",0.3,0.7,0.2,0.511811831005085,"true"
"image-keyboard-response",327,379427,"0.0-3.105-1.105","hndz1u5lzhjafsq",350,"111.csv","","null","resources/maskTrios/BT4B.jpg","null","",NA,NA,NA,NA,""
"image-keyboard-response",328,380630,"0.0-3.105-2.105","hndz1u5lzhjafsq",350,"111.csv","","null","resources/images/coin2.png","null","",NA,NA,NA,NA,""
"image-keyboard-response",329,381113,"0.0-3.106-0.106","hndz1u5lzhjafsq",350,"111.csv","","481.10000002384186","resources/trios/L1T4A1.jpg","39","restless",0.3,0.7,0.2,0.181373064814654,"true"
"image-keyboard-response",330,381519,"0.0-3.106-1.106","hndz1u5lzhjafsq",350,"111.csv","","null","resources/maskTrios/BBA1.jpg","null","",NA,NA,NA,NA,""
"image-keyboard-response",331,382721,"0.0-3.106-2.106","hndz1u5lzhjafsq",350,"111.csv","","null","resources/images/coin2.png","null","",NA,NA,NA,NA,""
"image-keyboard-response",332,383300,"0.0-3.107-0.107","hndz1u5lzhjafsq",350,"111.csv","","577.1000000238419","resources/trios/L1T1A1.jpg","38","restless",0.3,0.7,0.2,0.0748232966119391,"true"
"image-keyboard-response",333,383702,"0.0-3.107-1.107","hndz1u5lzhjafsq",350,"111.csv","","null","resources/maskTrios/BT1B.jpg","null","",NA,NA,NA,NA,""
"image-keyboard-response",334,384906,"0.0-3.107-2.107","hndz1u5lzhjafsq",350,"111.csv","","null","resources/images/coin2.png","null","",NA,NA,NA,NA,""
"image-keyboard-response",335,386413,"0.0-3.108-0.108","hndz1u5lzhjafsq",350,"111.csv","","1505.199999988079","resources/trios/L2T1A2.jpg","38","restless",0.3,0.7,0.2,0.905298135266061,"false"
"image-keyboard-response",336,386818,"0.0-3.108-1.108","hndz1u5lzhjafsq",350,"111.csv","","null","resources/maskTrios/BT1B.jpg","null","",NA,NA,NA,NA,""
"image-keyboard-response",337,388021,"0.0-3.108-2.108","hndz1u5lzhjafsq",350,"111.csv","","null","resources/images/fishbone.png","null","",NA,NA,NA,NA,""
"image-keyboard-response",338,388563,"0.0-3.109-0.109","hndz1u5lzhjafsq",350,"111.csv","","540.7000000476837","resources/trios/L2T4A2.jpg","39","restless",0.3,0.7,0.2,0.037610704346358,"true"
"image-keyboard-response",339,388966,"0.0-3.109-1.109","hndz1u5lzhjafsq",350,"111.csv","","null","resources/maskTrios/BBA2.jpg","null","",NA,NA,NA,NA,""
"image-keyboard-response",340,390173,"0.0-3.109-2.109","hndz1u5lzhjafsq",350,"111.csv","","null","resources/images/coin2.png","null","",NA,NA,NA,NA,""
"image-keyboard-response",341,390821,"0.0-3.110-0.110","hndz1u5lzhjafsq",350,"111.csv","","647.3000000119209","resources/trios/L1T1A2.jpg","39","restless",0.3,0.7,0.2,0.305040369091032,"false"
"image-keyboard-response",342,391228,"0.0-3.110-1.110","hndz1u5lzhjafsq",350,"111.csv","","null","resources/maskTrios/BBA2.jpg","null","",NA,NA,NA,NA,""
"image-keyboard-response",343,392434,"0.0-3.110-2.110","hndz1u5lzhjafsq",350,"111.csv","","null","resources/images/fishbone.png","null","",NA,NA,NA,NA,""
"image-keyboard-response",344,393025,"0.0-3.111-0.111","hndz1u5lzhjafsq",350,"111.csv","","589.5","resources/trios/L2T4A1.jpg","37","restless",0.3,0.7,0.2,0.201419218129641,"true"
"image-keyboard-response",345,393427,"0.0-3.111-1.111","hndz1u5lzhjafsq",350,"111.csv","","null","resources/maskTrios/L2BB.jpg","null","",NA,NA,NA,NA,""
"image-keyboard-response",346,394631,"0.0-3.111-2.111","hndz1u5lzhjafsq",350,"111.csv","","null","resources/images/coin2.png","null","",NA,NA,NA,NA,""
"image-keyboard-response",347,397302,"0.0-3.112-0.112","hndz1u5lzhjafsq",350,"111.csv","","2669.699999988079","resources/trios/L1T1A1.jpg","37","restless",0.4,0.7,0.2,0.048964174482071,"true"
"image-keyboard-response",348,397704,"0.0-3.112-1.112","hndz1u5lzhjafsq",350,"111.csv","","null","resources/maskTrios/L1BB.jpg","null","",NA,NA,NA,NA,""
"image-keyboard-response",349,398907,"0.0-3.112-2.112","hndz1u5lzhjafsq",350,"111.csv","","null","resources/images/coin2.png","null","",NA,NA,NA,NA,""
"image-keyboard-response",350,400704,"0.0-3.113-0.113","hndz1u5lzhjafsq",350,"111.csv","","1796.300000011921","resources/trios/L1T1A1.jpg","39","restless",0.4,0.7,0.2,0.574179992704363,"false"
"image-keyboard-response",351,401111,"0.0-3.113-1.113","hndz1u5lzhjafsq",350,"111.csv","","null","resources/maskTrios/BBA1.jpg","null","",NA,NA,NA,NA,""
"image-keyboard-response",352,402317,"0.0-3.113-2.113","hndz1u5lzhjafsq",350,"111.csv","","null","resources/images/fishbone.png","null","",NA,NA,NA,NA,""
"image-keyboard-response",353,406108,"0.0-3.114-0.114","hndz1u5lzhjafsq",350,"111.csv","","3788.5","resources/trios/L1T4A1.jpg","37","restless",0.4,0.7,0.2,0.220974153246454,"true"
"image-keyboard-response",354,406511,"0.0-3.114-1.114","hndz1u5lzhjafsq",350,"111.csv","","null","resources/maskTrios/L1BB.jpg","null","",NA,NA,NA,NA,""
"image-keyboard-response",355,407717,"0.0-3.114-2.114","hndz1u5lzhjafsq",350,"111.csv","","null","resources/images/coin2.png","null","",NA,NA,NA,NA,""
"image-keyboard-response",356,410768,"0.0-3.115-0.115","hndz1u5lzhjafsq",350,"111.csv","","3049","resources/trios/L1T1A2.jpg","38","restless",0.4,0.7,0.2,0.783137645996054,"false"
"image-keyboard-response",357,411174,"0.0-3.115-1.115","hndz1u5lzhjafsq",350,"111.csv","","null","resources/maskTrios/BT1B.jpg","null","",NA,NA,NA,NA,""
"image-keyboard-response",358,412380,"0.0-3.115-2.115","hndz1u5lzhjafsq",350,"111.csv","","null","resources/images/fishbone.png","null","",NA,NA,NA,NA,""
"image-keyboard-response",359,412754,"0.0-3.116-0.116","hndz1u5lzhjafsq",350,"111.csv","","372.39999997615814","resources/trios/L2T1A1.jpg","39","restless",0.4,0.7,0.2,0.263932931660084,"false"
"image-keyboard-response",360,413159,"0.0-3.116-1.116","hndz1u5lzhjafsq",350,"111.csv","","null","resources/maskTrios/BBA1.jpg","null","",NA,NA,NA,NA,""
"image-keyboard-response",361,414362,"0.0-3.116-2.116","hndz1u5lzhjafsq",350,"111.csv","","null","resources/images/fishbone.png","null","",NA,NA,NA,NA,""
"image-keyboard-response",362,414840,"0.0-3.117-0.117","hndz1u5lzhjafsq",350,"111.csv","","476.39999997615814","resources/trios/L2T4A2.jpg","37","restless",0.4,0.7,0.2,0.342883532907745,"true"
"image-keyboard-response",363,415247,"0.0-3.117-1.117","hndz1u5lzhjafsq",350,"111.csv","","null","resources/maskTrios/L2BB.jpg","null","",NA,NA,NA,NA,""
"image-keyboard-response",364,416454,"0.0-3.117-2.117","hndz1u5lzhjafsq",350,"111.csv","","null","resources/images/coin2.png","null","",NA,NA,NA,NA,""
"image-keyboard-response",365,417020,"0.0-3.118-0.118","hndz1u5lzhjafsq",350,"111.csv","","565","resources/trios/L2T1A2.jpg","38","restless",0.4,0.7,0.2,0.326082214394224,"true"
"image-keyboard-response",366,417425,"0.0-3.118-1.118","hndz1u5lzhjafsq",350,"111.csv","","null","resources/maskTrios/BT1B.jpg","null","",NA,NA,NA,NA,""
"image-keyboard-response",367,418629,"0.0-3.118-2.118","hndz1u5lzhjafsq",350,"111.csv","","null","resources/images/coin2.png","null","",NA,NA,NA,NA,""
"image-keyboard-response",368,419183,"0.0-3.119-0.119","hndz1u5lzhjafsq",350,"111.csv","","552.2999999523163","resources/trios/L2T4A1.jpg","39","restless",0.4,0.7,0.2,0.182428340041111,"true"
"image-keyboard-response",369,419586,"0.0-3.119-1.119","hndz1u5lzhjafsq",350,"111.csv","","null","resources/maskTrios/BBA1.jpg","null","",NA,NA,NA,NA,""
"image-keyboard-response",370,420788,"0.0-3.119-2.119","hndz1u5lzhjafsq",350,"111.csv","","null","resources/images/coin2.png","null","",NA,NA,NA,NA,""
"image-keyboard-response",371,422682,"0.0-3.120-0.120","hndz1u5lzhjafsq",350,"111.csv","","1893","resources/trios/L1T4A1.jpg","38","restless",0.4,0.7,0.2,0.0611108673496337,"true"
"image-keyboard-response",372,423087,"0.0-3.120-1.120","hndz1u5lzhjafsq",350,"111.csv","","null","resources/maskTrios/BT4B.jpg","null","",NA,NA,NA,NA,""
"image-keyboard-response",373,424294,"0.0-3.120-2.120","hndz1u5lzhjafsq",350,"111.csv","","null","resources/images/coin2.png","null","",NA,NA,NA,NA,""
"image-keyboard-response",374,424841,"0.0-3.121-0.121","hndz1u5lzhjafsq",350,"111.csv","","545.5999999642372","resources/trios/L1T4A2.jpg","37","restless",0.5,0.7,0.2,0.0117480846965217,"true"
"image-keyboard-response",375,425247,"0.0-3.121-1.121","hndz1u5lzhjafsq",350,"111.csv","","null","resources/maskTrios/L1BB.jpg","null","",NA,NA,NA,NA,""
"image-keyboard-response",376,426454,"0.0-3.121-2.121","hndz1u5lzhjafsq",350,"111.csv","","null","resources/images/coin2.png","null","",NA,NA,NA,NA,""
"image-keyboard-response",377,427939,"0.0-3.122-0.122","hndz1u5lzhjafsq",350,"111.csv","","1483.300000011921","resources/trios/L1T1A1.jpg","38","restless",0.5,0.7,0.2,0.809745750779522,"false"
"image-keyboard-response",378,428342,"0.0-3.122-1.122","hndz1u5lzhjafsq",350,"111.csv","","null","resources/maskTrios/BT1B.jpg","null","",NA,NA,NA,NA,""
"image-keyboard-response",379,429544,"0.0-3.122-2.122","hndz1u5lzhjafsq",350,"111.csv","","null","resources/images/fishbone.png","null","",NA,NA,NA,NA,""
"image-keyboard-response",380,430850,"0.0-3.123-0.123","hndz1u5lzhjafsq",350,"111.csv","","1304.4000000357628","resources/trios/L1T4A2.jpg","38","restless",0.5,0.7,0.2,0.0873689386342213,"true"
"image-keyboard-response",381,431254,"0.0-3.123-1.123","hndz1u5lzhjafsq",350,"111.csv","","null","resources/maskTrios/BT4B.jpg","null","",NA,NA,NA,NA,""
"image-keyboard-response",382,432460,"0.0-3.123-2.123","hndz1u5lzhjafsq",350,"111.csv","","null","resources/images/coin2.png","null","",NA,NA,NA,NA,""
"image-keyboard-response",383,433106,"0.0-3.124-0.124","hndz1u5lzhjafsq",350,"111.csv","","644.1999999880791","resources/trios/L2T1A2.jpg","39","restless",0.5,0.7,0.2,0.334700414629056,"false"
"image-keyboard-response",384,433508,"0.0-3.124-1.124","hndz1u5lzhjafsq",350,"111.csv","","null","resources/maskTrios/BBA2.jpg","null","",NA,NA,NA,NA,""
"image-keyboard-response",385,434714,"0.0-3.124-2.124","hndz1u5lzhjafsq",350,"111.csv","","null","resources/images/fishbone.png","null","",NA,NA,NA,NA,""
"image-keyboard-response",386,435980,"0.0-3.125-0.125","hndz1u5lzhjafsq",350,"111.csv","","1264.6000000238419","resources/trios/L1T4A2.jpg","39","restless",0.5,0.7,0.2,0.153291881059279,"true"
"image-keyboard-response",387,436385,"0.0-3.125-1.125","hndz1u5lzhjafsq",350,"111.csv","","null","resources/maskTrios/BBA2.jpg","null","",NA,NA,NA,NA,""
"image-keyboard-response",388,437587,"0.0-3.125-2.125","hndz1u5lzhjafsq",350,"111.csv","","null","resources/images/coin2.png","null","",NA,NA,NA,NA,""
"image-keyboard-response",389,438356,"0.0-3.126-0.126","hndz1u5lzhjafsq",350,"111.csv","","767.8999999761581","resources/trios/L2T4A1.jpg","37","restless",0.5,0.7,0.2,0.656104704372556,"false"
"image-keyboard-response",390,438761,"0.0-3.126-1.126","hndz1u5lzhjafsq",350,"111.csv","","null","resources/maskTrios/L2BB.jpg","null","",NA,NA,NA,NA,""
"image-keyboard-response",391,439963,"0.0-3.126-2.126","hndz1u5lzhjafsq",350,"111.csv","","null","resources/images/fishbone.png","null","",NA,NA,NA,NA,""
"image-keyboard-response",392,440330,"0.0-3.127-0.127","hndz1u5lzhjafsq",350,"111.csv","","365.39999997615814","resources/trios/L1T4A1.jpg","38","restless",0.5,0.7,0.2,0.629074362952573,"true"
"image-keyboard-response",393,440737,"0.0-3.127-1.127","hndz1u5lzhjafsq",350,"111.csv","","null","resources/maskTrios/BT4B.jpg","null","",NA,NA,NA,NA,""
"image-keyboard-response",394,441940,"0.0-3.127-2.127","hndz1u5lzhjafsq",350,"111.csv","","null","resources/images/coin2.png","null","",NA,NA,NA,NA,""
"image-keyboard-response",395,442238,"0.0-3.128-0.128","hndz1u5lzhjafsq",350,"111.csv","","297.30000001192093","resources/trios/L1T4A2.jpg","39","restless",0.5,0.7,0.2,0.275140518811008,"false"
"image-keyboard-response",396,442640,"0.0-3.128-1.128","hndz1u5lzhjafsq",350,"111.csv","","null","resources/maskTrios/BBA2.jpg","null","",NA,NA,NA,NA,""
"image-keyboard-response",397,443846,"0.0-3.128-2.128","hndz1u5lzhjafsq",350,"111.csv","","null","resources/images/fishbone.png","null","",NA,NA,NA,NA,""
"image-keyboard-response",398,444212,"0.0-3.129-0.129","hndz1u5lzhjafsq",350,"111.csv","","365","resources/trios/L1T4A2.jpg","37","restless",0.5,0.7,0.2,0.099312588291731,"true"
"image-keyboard-response",399,444619,"0.0-3.129-1.129","hndz1u5lzhjafsq",350,"111.csv","","null","resources/maskTrios/L1BB.jpg","null","",NA,NA,NA,NA,""
"image-keyboard-response",400,445825,"0.0-3.129-2.129","hndz1u5lzhjafsq",350,"111.csv","","null","resources/images/coin2.png","null","",NA,NA,NA,NA,""
"image-keyboard-response",401,446525,"0.0-3.130-0.130","hndz1u5lzhjafsq",350,"111.csv","","698.1999999880791","resources/trios/L1T1A1.jpg","38","restless",0.5,0.8,0.2,0.738641357604662,"true"
"image-keyboard-response",402,446927,"0.0-3.130-1.130","hndz1u5lzhjafsq",350,"111.csv","","null","resources/maskTrios/BT1B.jpg","null","",NA,NA,NA,NA,""
"image-keyboard-response",403,448133,"0.0-3.130-2.130","hndz1u5lzhjafsq",350,"111.csv","","null","resources/images/coin2.png","null","",NA,NA,NA,NA,""
"image-keyboard-response",404,448594,"0.0-3.131-0.131","hndz1u5lzhjafsq",350,"111.csv","","459.5","resources/trios/L1T1A2.jpg","39","restless",0.5,0.8,0.2,0.662417332260804,"false"
"image-keyboard-response",405,448995,"0.0-3.131-1.131","hndz1u5lzhjafsq",350,"111.csv","","null","resources/maskTrios/BBA2.jpg","null","",NA,NA,NA,NA,""
"image-keyboard-response",406,450202,"0.0-3.131-2.131","hndz1u5lzhjafsq",350,"111.csv","","null","resources/images/fishbone.png","null","",NA,NA,NA,NA,""
"image-keyboard-response",407,450647,"0.0-3.132-0.132","hndz1u5lzhjafsq",350,"111.csv","","443.9000000357628","resources/trios/L1T4A1.jpg","38","restless",0.5,0.8,0.2,0.541409382543915,"true"
"image-keyboard-response",408,451053,"0.0-3.132-1.132","hndz1u5lzhjafsq",350,"111.csv","","null","resources/maskTrios/BT4B.jpg","null","",NA,NA,NA,NA,""
"image-keyboard-response",409,452259,"0.0-3.132-2.132","hndz1u5lzhjafsq",350,"111.csv","","null","resources/images/coin2.png","null","",NA,NA,NA,NA,""
"image-keyboard-response",410,453100,"0.0-3.133-0.133","hndz1u5lzhjafsq",350,"111.csv","","839.5999999642372","resources/trios/L1T4A1.jpg","37","restless",0.5,0.8,0.2,0.860492873386212,"false"
"image-keyboard-response",411,453505,"0.0-3.133-1.133","hndz1u5lzhjafsq",350,"111.csv","","null","resources/maskTrios/L1BB.jpg","null","",NA,NA,NA,NA,""
"image-keyboard-response",412,454708,"0.0-3.133-2.133","hndz1u5lzhjafsq",350,"111.csv","","null","resources/images/fishbone.png","null","",NA,NA,NA,NA,""
"image-keyboard-response",413,455533,"0.0-3.134-0.134","hndz1u5lzhjafsq",350,"111.csv","","824.1999999880791","resources/trios/L2T1A1.jpg","38","restless",0.5,0.8,0.2,0.0842323597089771,"true"
"image-keyboard-response",414,455937,"0.0-3.134-1.134","hndz1u5lzhjafsq",350,"111.csv","","null","resources/maskTrios/BT1B.jpg","null","",NA,NA,NA,NA,""
"image-keyboard-response",415,457141,"0.0-3.134-2.134","hndz1u5lzhjafsq",350,"111.csv","","null","resources/images/coin2.png","null","",NA,NA,NA,NA,""
"image-keyboard-response",416,458416,"0.0-3.135-0.135","hndz1u5lzhjafsq",350,"111.csv","","1274.4000000357628","resources/trios/L2T1A1.jpg","39","restless",0.6,0.8,0.2,0.69959775540112,"false"
"image-keyboard-response",417,458820,"0.0-3.135-1.135","hndz1u5lzhjafsq",350,"111.csv","","null","resources/maskTrios/BBA1.jpg","null","",NA,NA,NA,NA,""
"image-keyboard-response",418,460022,"0.0-3.135-2.135","hndz1u5lzhjafsq",350,"111.csv","","null","resources/images/fishbone.png","null","",NA,NA,NA,NA,""
"image-keyboard-response",419,461656,"0.0-3.136-0.136","hndz1u5lzhjafsq",350,"111.csv","","1632.3999999761581","resources/trios/L2T1A2.jpg","38","restless",0.6,0.8,0.2,0.909101905632103,"false"
"image-keyboard-response",420,462062,"0.0-3.136-1.136","hndz1u5lzhjafsq",350,"111.csv","","null","resources/maskTrios/BT1B.jpg","null","",NA,NA,NA,NA,""
"image-keyboard-response",421,463268,"0.0-3.136-2.136","hndz1u5lzhjafsq",350,"111.csv","","null","resources/images/fishbone.png","null","",NA,NA,NA,NA,""
"image-keyboard-response",422,464194,"0.0-3.137-0.137","hndz1u5lzhjafsq",350,"111.csv","","924.6999999880791","resources/trios/L1T1A2.jpg","37","restless",0.6,0.8,0.2,0.728937401547665,"false"
"image-keyboard-response",423,464601,"0.0-3.137-1.137","hndz1u5lzhjafsq",350,"111.csv","","null","resources/maskTrios/L1BB.jpg","null","",NA,NA,NA,NA,""
"image-keyboard-response",424,465803,"0.0-3.137-2.137","hndz1u5lzhjafsq",350,"111.csv","","null","resources/images/fishbone.png","null","",NA,NA,NA,NA,""
"image-keyboard-response",425,467755,"0.0-3.138-0.138","hndz1u5lzhjafsq",350,"111.csv","","1950.8999999761581","resources/trios/L2T1A1.jpg","39","restless",0.6,0.8,0.2,0.736059662586836,"false"
"image-keyboard-response",426,468161,"0.0-3.138-1.138","hndz1u5lzhjafsq",350,"111.csv","","null","resources/maskTrios/BBA1.jpg","null","",NA,NA,NA,NA,""
"image-keyboard-response",427,469367,"0.0-3.138-2.138","hndz1u5lzhjafsq",350,"111.csv","","null","resources/images/fishbone.png","null","",NA,NA,NA,NA,""
"image-keyboard-response",428,470258,"0.0-3.139-0.139","hndz1u5lzhjafsq",350,"111.csv","","889.6999999880791","resources/trios/L2T4A1.jpg","38","restless",0.6,0.8,0.2,0.478110487824186,"true"
"image-keyboard-response",429,470665,"0.0-3.139-1.139","hndz1u5lzhjafsq",350,"111.csv","","null","resources/maskTrios/BT4B.jpg","null","",NA,NA,NA,NA,""
"image-keyboard-response",430,471867,"0.0-3.139-2.139","hndz1u5lzhjafsq",350,"111.csv","","null","resources/images/coin2.png","null","",NA,NA,NA,NA,""
"image-keyboard-response",431,472785,"0.0-3.140-0.140","hndz1u5lzhjafsq",350,"111.csv","","916.8000000119209","resources/trios/L2T4A2.jpg","38","restless",0.6,0.8,0.2,0.811732435862009,"false"
"image-keyboard-response",432,473187,"0.0-3.140-1.140","hndz1u5lzhjafsq",350,"111.csv","","null","resources/maskTrios/BT4B.jpg","null","",NA,NA,NA,NA,""
"image-keyboard-response",433,474394,"0.0-3.140-2.140","hndz1u5lzhjafsq",350,"111.csv","","null","resources/images/fishbone.png","null","",NA,NA,NA,NA,""
"image-keyboard-response",434,474639,"0.0-3.141-0.141","hndz1u5lzhjafsq",350,"111.csv","","243.5","resources/trios/L2T1A1.jpg","38","restless",0.6,0.8,0.2,0.524656740348221,"true"
"image-keyboard-response",435,475045,"0.0-3.141-1.141","hndz1u5lzhjafsq",350,"111.csv","","null","resources/maskTrios/BT1B.jpg","null","",NA,NA,NA,NA,""
"image-keyboard-response",436,476248,"0.0-3.141-2.141","hndz1u5lzhjafsq",350,"111.csv","","null","resources/images/coin2.png","null","",NA,NA,NA,NA,""
"image-keyboard-response",437,476837,"0.0-3.142-0.142","hndz1u5lzhjafsq",350,"111.csv","","587.8999999761581","resources/trios/L1T1A2.jpg","38","restless",0.6,0.8,0.2,0.950697080322568,"false"
"image-keyboard-response",438,477244,"0.0-3.142-1.142","hndz1u5lzhjafsq",350,"111.csv","","null","resources/maskTrios/BT1B.jpg","null","",NA,NA,NA,NA,""
"image-keyboard-response",439,478450,"0.0-3.142-2.142","hndz1u5lzhjafsq",350,"111.csv","","null","resources/images/fishbone.png","null","",NA,NA,NA,NA,""
"image-keyboard-response",440,480822,"0.0-3.143-0.143","hndz1u5lzhjafsq",350,"111.csv","","2370.800000011921","resources/trios/L1T1A1.jpg","37","restless",0.6,0.8,0.2,0.683303502514178,"false"
"image-keyboard-response",441,481227,"0.0-3.143-1.143","hndz1u5lzhjafsq",350,"111.csv","","null","resources/maskTrios/L1BB.jpg","null","",NA,NA,NA,NA,""
"image-keyboard-response",442,482430,"0.0-3.143-2.143","hndz1u5lzhjafsq",350,"111.csv","","null","resources/images/fishbone.png","null","",NA,NA,NA,NA,""
"image-keyboard-response",443,483797,"0.0-3.144-0.144","hndz1u5lzhjafsq",350,"111.csv","","1365.6000000238419","resources/trios/L2T4A1.jpg","38","restless",0.6,0.8,0.3,0.233570242929429,"true"
"image-keyboard-response",444,484203,"0.0-3.144-1.144","hndz1u5lzhjafsq",350,"111.csv","","null","resources/maskTrios/BT4B.jpg","null","",NA,NA,NA,NA,""
"image-keyboard-response",445,485405,"0.0-3.144-2.144","hndz1u5lzhjafsq",350,"111.csv","","null","resources/images/coin2.png","null","",NA,NA,NA,NA,""
"image-keyboard-response",446,486383,"0.0-3.145-0.145","hndz1u5lzhjafsq",350,"111.csv","","976.6999999880791","resources/trios/L2T4A2.jpg","38","restless",0.6,0.8,0.3,0.292405717057399,"true"
"image-keyboard-response",447,486787,"0.0-3.145-1.145","hndz1u5lzhjafsq",350,"111.csv","","null","resources/maskTrios/BT4B.jpg","null","",NA,NA,NA,NA,""
"image-keyboard-response",448,487989,"0.0-3.145-2.145","hndz1u5lzhjafsq",350,"111.csv","","null","resources/images/coin2.png","null","",NA,NA,NA,NA,""
"image-keyboard-response",449,490753,"0.0-3.146-0.146","hndz1u5lzhjafsq",350,"111.csv","","2762.5","resources/trios/L2T4A1.jpg","38","restless",0.5,0.8,0.3,0.0187741448742014,"true"
"image-keyboard-response",450,491160,"0.0-3.146-1.146","hndz1u5lzhjafsq",350,"111.csv","","null","resources/maskTrios/BT4B.jpg","null","",NA,NA,NA,NA,""
"image-keyboard-response",451,492365,"0.0-3.146-2.146","hndz1u5lzhjafsq",350,"111.csv","","null","resources/images/coin2.png","null","",NA,NA,NA,NA,""
"image-keyboard-response",452,493101,"0.0-3.147-0.147","hndz1u5lzhjafsq",350,"111.csv","","735.1000000238419","resources/trios/L2T4A1.jpg","39","restless",0.5,0.8,0.3,0.212516490079042,"true"
"image-keyboard-response",453,493503,"0.0-3.147-1.147","hndz1u5lzhjafsq",350,"111.csv","","null","resources/maskTrios/BBA1.jpg","null","",NA,NA,NA,NA,""
"image-keyboard-response",454,494710,"0.0-3.147-2.147","hndz1u5lzhjafsq",350,"111.csv","","null","resources/images/coin2.png","null","",NA,NA,NA,NA,""
"image-keyboard-response",455,498574,"0.0-3.148-0.148","hndz1u5lzhjafsq",350,"111.csv","","3863.5","resources/trios/L1T1A2.jpg","37","restless",0.5,0.8,0.3,0.426219906140117,"true"
"image-keyboard-response",456,498980,"0.0-3.148-1.148","hndz1u5lzhjafsq",350,"111.csv","","null","resources/maskTrios/L1BB.jpg","null","",NA,NA,NA,NA,""
"image-keyboard-response",457,500186,"0.0-3.148-2.148","hndz1u5lzhjafsq",350,"111.csv","","null","resources/images/coin2.png","null","",NA,NA,NA,NA,""
"image-keyboard-response",458,502015,"0.0-3.149-0.149","hndz1u5lzhjafsq",350,"111.csv","","1827.699999988079","resources/trios/L2T1A2.jpg","37","restless",0.5,0.8,0.3,0.807126924499693,"false"
"image-keyboard-response",459,502420,"0.0-3.149-1.149","hndz1u5lzhjafsq",350,"111.csv","","null","resources/maskTrios/L2BB.jpg","null","",NA,NA,NA,NA,""
"image-keyboard-response",460,503626,"0.0-3.149-2.149","hndz1u5lzhjafsq",350,"111.csv","","null","resources/images/fishbone.png","null","",NA,NA,NA,NA,""
"image-keyboard-response",461,503674,"0.0-3.150-0.150","hndz1u5lzhjafsq",350,"111.csv","","47","resources/trios/L2T4A2.jpg","39","restless",0.5,0.8,0.3,0.786504926244961,"false"
"image-keyboard-response",462,504081,"0.0-3.150-1.150","hndz1u5lzhjafsq",350,"111.csv","","null","resources/maskTrios/BBA2.jpg","null","",NA,NA,NA,NA,""
"image-keyboard-response",463,505285,"0.0-3.150-2.150","hndz1u5lzhjafsq",350,"111.csv","","null","resources/images/fishbone.png","null","",NA,NA,NA,NA,""
"image-keyboard-response",464,505789,"0.0-3.151-0.151","hndz1u5lzhjafsq",350,"111.csv","","502.69999998807907","resources/trios/L1T1A2.jpg","38","restless",0.5,0.7,0.3,0.0924320940693566,"true"
"image-keyboard-response",465,506195,"0.0-3.151-1.151","hndz1u5lzhjafsq",350,"111.csv","","null","resources/maskTrios/BT1B.jpg","null","",NA,NA,NA,NA,""
"image-keyboard-response",466,507397,"0.0-3.151-2.151","hndz1u5lzhjafsq",350,"111.csv","","null","resources/images/coin2.png","null","",NA,NA,NA,NA,""
"image-keyboard-response",467,507997,"0.0-3.152-0.152","hndz1u5lzhjafsq",350,"111.csv","","598.6999999880791","resources/trios/L2T1A1.jpg","37","restless",0.4,0.7,0.3,0.93355894859216,"false"
"image-keyboard-response",468,508403,"0.0-3.152-1.152","hndz1u5lzhjafsq",350,"111.csv","","null","resources/maskTrios/L2BB.jpg","null","",NA,NA,NA,NA,""
"image-keyboard-response",469,509605,"0.0-3.152-2.152","hndz1u5lzhjafsq",350,"111.csv","","null","resources/images/fishbone.png","null","",NA,NA,NA,NA,""
"image-keyboard-response",470,510038,"0.0-3.153-0.153","hndz1u5lzhjafsq",350,"111.csv","","431.30000001192093","resources/trios/L1T1A1.jpg","39","restless",0.4,0.7,0.3,0.587911976026895,"false"
"image-keyboard-response",471,510440,"0.0-3.153-1.153","hndz1u5lzhjafsq",350,"111.csv","","null","resources/maskTrios/BBA1.jpg","null","",NA,NA,NA,NA,""
"image-keyboard-response",472,511642,"0.0-3.153-2.153","hndz1u5lzhjafsq",350,"111.csv","","null","resources/images/fishbone.png","null","",NA,NA,NA,NA,""
"image-keyboard-response",473,512138,"0.0-3.154-0.154","hndz1u5lzhjafsq",350,"111.csv","","494.30000001192093","resources/trios/L2T4A2.jpg","37","restless",0.4,0.7,0.3,0.226199534790036,"true"
"image-keyboard-response",474,512544,"0.0-3.154-1.154","hndz1u5lzhjafsq",350,"111.csv","","null","resources/maskTrios/L2BB.jpg","null","",NA,NA,NA,NA,""
"image-keyboard-response",475,513751,"0.0-3.154-2.154","hndz1u5lzhjafsq",350,"111.csv","","null","resources/images/coin2.png","null","",NA,NA,NA,NA,""
"image-keyboard-response",476,513818,"0.0-3.155-0.155","hndz1u5lzhjafsq",350,"111.csv","","65.5","resources/trios/L1T1A2.jpg","38","restless",0.4,0.7,0.3,0.767016850824096,"false"
"image-keyboard-response",477,514223,"0.0-3.155-1.155","hndz1u5lzhjafsq",350,"111.csv","","null","resources/maskTrios/BT1B.jpg","null","",NA,NA,NA,NA,""
"image-keyboard-response",478,515427,"0.0-3.155-2.155","hndz1u5lzhjafsq",350,"111.csv","","null","resources/images/fishbone.png","null","",NA,NA,NA,NA,""
"image-keyboard-response",479,515853,"0.0-3.156-0.156","hndz1u5lzhjafsq",350,"111.csv","","423.89999997615814","resources/trios/L2T1A1.jpg","39","restless",0.4,0.6,0.3,0.428406633340729,"false"
"image-keyboard-response",480,516259,"0.0-3.156-1.156","hndz1u5lzhjafsq",350,"111.csv","","null","resources/maskTrios/BBA1.jpg","null","",NA,NA,NA,NA,""
"image-keyboard-response",481,517465,"0.0-3.156-2.156","hndz1u5lzhjafsq",350,"111.csv","","null","resources/images/fishbone.png","null","",NA,NA,NA,NA,""
"image-keyboard-response",482,517934,"0.0-3.157-0.157","hndz1u5lzhjafsq",350,"111.csv","","467.10000002384186","resources/trios/L2T4A2.jpg","37","restless",0.4,0.6,0.3,0.57875733991153,"false"
"image-keyboard-response",483,518336,"0.0-3.157-1.157","hndz1u5lzhjafsq",350,"111.csv","","null","resources/maskTrios/L2BB.jpg","null","",NA,NA,NA,NA,""
"image-keyboard-response",484,519543,"0.0-3.157-2.157","hndz1u5lzhjafsq",350,"111.csv","","null","resources/images/fishbone.png","null","",NA,NA,NA,NA,""
"image-keyboard-response",485,520113,"0.0-3.158-0.158","hndz1u5lzhjafsq",350,"111.csv","","569","resources/trios/L2T1A1.jpg","38","restless",0.3,0.6,0.3,0.680759523044275,"false"
"image-keyboard-response",486,520519,"0.0-3.158-1.158","hndz1u5lzhjafsq",350,"111.csv","","null","resources/maskTrios/BT1B.jpg","null","",NA,NA,NA,NA,""
"image-keyboard-response",487,521725,"0.0-3.158-2.158","hndz1u5lzhjafsq",350,"111.csv","","null","resources/images/fishbone.png","null","",NA,NA,NA,NA,""
"image-keyboard-response",488,530956,"0.0-3.159-0.159","hndz1u5lzhjafsq",350,"111.csv","","9229.099999964237","resources/trios/L1T4A2.jpg","37","restless",0.3,0.6,0.3,0.710586561735262,"false"
"image-keyboard-response",489,531364,"0.0-3.159-1.159","hndz1u5lzhjafsq",350,"111.csv","","null","resources/maskTrios/L1BB.jpg","null","",NA,NA,NA,NA,""
"image-keyboard-response",490,532569,"0.0-3.159-2.159","hndz1u5lzhjafsq",350,"111.csv","","null","resources/images/fishbone.png","null","",NA,NA,NA,NA,""
"image-keyboard-response",491,533192,"0.0-3.160-0.160","hndz1u5lzhjafsq",350,"111.csv","","621.6999999880791","resources/trios/L2T1A2.jpg","39","restless",0.3,0.6,0.3,0.965135637057324,"false"
"image-keyboard-response",492,533595,"0.0-3.160-1.160","hndz1u5lzhjafsq",350,"111.csv","","null","resources/maskTrios/BBA2.jpg","null","",NA,NA,NA,NA,""
"image-keyboard-response",493,534796,"0.0-3.160-2.160","hndz1u5lzhjafsq",350,"111.csv","","null","resources/images/fishbone.png","null","",NA,NA,NA,NA,""
"image-keyboard-response",494,539720,"0.0-3.161-0.161","hndz1u5lzhjafsq",350,"111.csv","","4922.5","resources/trios/L2T1A2.jpg","37","restless",0.3,0.6,0.3,0.369291841060546,"false"
"image-keyboard-response",495,540127,"0.0-3.161-1.161","hndz1u5lzhjafsq",350,"111.csv","","null","resources/maskTrios/L2BB.jpg","null","",NA,NA,NA,NA,""
"image-keyboard-response",496,541328,"0.0-3.161-2.161","hndz1u5lzhjafsq",350,"111.csv","","null","resources/images/fishbone.png","null","",NA,NA,NA,NA,""
"image-keyboard-response",497,545358,"0.0-3.162-0.162","hndz1u5lzhjafsq",350,"111.csv","","4028.199999988079","resources/trios/L1T4A2.jpg","37","restless",0.3,0.6,0.3,0.869137599596205,"false"
"image-keyboard-response",498,545763,"0.0-3.162-1.162","hndz1u5lzhjafsq",350,"111.csv","","null","resources/maskTrios/L1BB.jpg","null","",NA,NA,NA,NA,""
"image-keyboard-response",499,546969,"0.0-3.162-2.162","hndz1u5lzhjafsq",350,"111.csv","","null","resources/images/fishbone.png","null","",NA,NA,NA,NA,""
"image-keyboard-response",500,549350,"0.0-3.163-0.163","hndz1u5lzhjafsq",350,"111.csv","","2379.399999976158","resources/trios/L2T1A1.jpg","39","restless",0.3,0.6,0.3,0.453615707479066,"false"
"image-keyboard-response",501,549753,"0.0-3.163-1.163","hndz1u5lzhjafsq",350,"111.csv","","null","resources/maskTrios/BBA1.jpg","null","",NA,NA,NA,NA,""
"image-keyboard-response",502,550958,"0.0-3.163-2.163","hndz1u5lzhjafsq",350,"111.csv","","null","resources/images/fishbone.png","null","",NA,NA,NA,NA,""
"image-keyboard-response",503,551280,"0.0-3.164-0.164","hndz1u5lzhjafsq",350,"111.csv","","320.69999998807907","resources/trios/L1T1A1.jpg","39","restless",0.3,0.6,0.3,0.914746283249735,"false"
"image-keyboard-response",504,551686,"0.0-3.164-1.164","hndz1u5lzhjafsq",350,"111.csv","","null","resources/maskTrios/BBA1.jpg","null","",NA,NA,NA,NA,""
"image-keyboard-response",505,552888,"0.0-3.164-2.164","hndz1u5lzhjafsq",350,"111.csv","","null","resources/images/fishbone.png","null","",NA,NA,NA,NA,""
"image-keyboard-response",506,553437,"0.0-3.165-0.165","hndz1u5lzhjafsq",350,"111.csv","","547.5","resources/trios/L1T1A1.jpg","38","restless",0.3,0.6,0.3,0.9221772407051,"false"
"image-keyboard-response",507,553843,"0.0-3.165-1.165","hndz1u5lzhjafsq",350,"111.csv","","null","resources/maskTrios/BT1B.jpg","null","",NA,NA,NA,NA,""
"image-keyboard-response",508,555048,"0.0-3.165-2.165","hndz1u5lzhjafsq",350,"111.csv","","null","resources/images/fishbone.png","null","",NA,NA,NA,NA,""
"image-keyboard-response",509,555800,"0.0-3.166-0.166","hndz1u5lzhjafsq",350,"111.csv","","750","resources/trios/L1T1A2.jpg","37","restless",0.3,0.6,0.3,0.870063238684452,"false"
"image-keyboard-response",510,556203,"0.0-3.166-1.166","hndz1u5lzhjafsq",350,"111.csv","","null","resources/maskTrios/L1BB.jpg","null","",NA,NA,NA,NA,""
"image-keyboard-response",511,557407,"0.0-3.166-2.166","hndz1u5lzhjafsq",350,"111.csv","","null","resources/images/fishbone.png","null","",NA,NA,NA,NA,""
"image-keyboard-response",512,559894,"0.0-3.167-0.167","hndz1u5lzhjafsq",350,"111.csv","","2486","resources/trios/L2T1A2.jpg","37","restless",0.3,0.5,0.3,0.162391210184999,"true"
"image-keyboard-response",513,560301,"0.0-3.167-1.167","hndz1u5lzhjafsq",350,"111.csv","","null","resources/maskTrios/L2BB.jpg","null","",NA,NA,NA,NA,""
"image-keyboard-response",514,561507,"0.0-3.167-2.167","hndz1u5lzhjafsq",350,"111.csv","","null","resources/images/coin2.png","null","",NA,NA,NA,NA,""
"image-keyboard-response",515,564004,"0.0-3.168-0.168","hndz1u5lzhjafsq",350,"111.csv","","2495.400000035763","resources/trios/L1T1A2.jpg","39","restless",0.3,0.4,0.3,0.245196267424714,"true"
"image-keyboard-response",516,564409,"0.0-3.168-1.168","hndz1u5lzhjafsq",350,"111.csv","","null","resources/maskTrios/BBA2.jpg","null","",NA,NA,NA,NA,""
"image-keyboard-response",517,565616,"0.0-3.168-2.168","hndz1u5lzhjafsq",350,"111.csv","","null","resources/images/coin2.png","null","",NA,NA,NA,NA,""
"image-keyboard-response",518,566469,"0.0-3.169-0.169","hndz1u5lzhjafsq",350,"111.csv","","851.5999999642372","resources/trios/L1T4A1.jpg","39","restless",0.3,0.4,0.3,0.238181023085787,"true"
"image-keyboard-response",519,566876,"0.0-3.169-1.169","hndz1u5lzhjafsq",350,"111.csv","","null","resources/maskTrios/BBA1.jpg","null","",NA,NA,NA,NA,""
"image-keyboard-response",520,568078,"0.0-3.169-2.169","hndz1u5lzhjafsq",350,"111.csv","","null","resources/images/coin2.png","null","",NA,NA,NA,NA,""
"image-keyboard-response",521,569183,"0.0-3.170-0.170","hndz1u5lzhjafsq",350,"111.csv","","1104.300000011921","resources/trios/L2T1A2.jpg","39","restless",0.3,0.4,0.3,0.338215189488236,"false"
"image-keyboard-response",522,569586,"0.0-3.170-1.170","hndz1u5lzhjafsq",350,"111.csv","","null","resources/maskTrios/BBA2.jpg","null","",NA,NA,NA,NA,""
"image-keyboard-response",523,570789,"0.0-3.170-2.170","hndz1u5lzhjafsq",350,"111.csv","","null","resources/images/fishbone.png","null","",NA,NA,NA,NA,""
"image-keyboard-response",524,571979,"0.0-3.171-0.171","hndz1u5lzhjafsq",350,"111.csv","","1188.699999988079","resources/trios/L2T4A2.jpg","39","restless",0.3,0.4,0.3,0.297508657297031,"true"
"image-keyboard-response",525,572383,"0.0-3.171-1.171","hndz1u5lzhjafsq",350,"111.csv","","null","resources/maskTrios/BBA2.jpg","null","",NA,NA,NA,NA,""
"image-keyboard-response",526,573587,"0.0-3.171-2.171","hndz1u5lzhjafsq",350,"111.csv","","null","resources/images/coin2.png","null","",NA,NA,NA,NA,""
"image-keyboard-response",527,575136,"0.0-3.172-0.172","hndz1u5lzhjafsq",350,"111.csv","","1547.5","resources/trios/L2T4A1.jpg","39","restless",0.3,0.4,0.3,0.659629506022937,"false"
"image-keyboard-response",528,575542,"0.0-3.172-1.172","hndz1u5lzhjafsq",350,"111.csv","","null","resources/maskTrios/BBA1.jpg","null","",NA,NA,NA,NA,""
"image-keyboard-response",529,576748,"0.0-3.172-2.172","hndz1u5lzhjafsq",350,"111.csv","","null","resources/images/fishbone.png","null","",NA,NA,NA,NA,""
"image-keyboard-response",530,577472,"0.0-3.173-0.173","hndz1u5lzhjafsq",350,"111.csv","","722.3999999761581","resources/trios/L2T1A2.jpg","38","restless",0.4,0.4,0.3,0.747006990202032,"false"
"image-keyboard-response",531,577878,"0.0-3.173-1.173","hndz1u5lzhjafsq",350,"111.csv","","null","resources/maskTrios/BT1B.jpg","null","",NA,NA,NA,NA,""
"image-keyboard-response",532,579084,"0.0-3.173-2.173","hndz1u5lzhjafsq",350,"111.csv","","null","resources/images/fishbone.png","null","",NA,NA,NA,NA,""
"image-keyboard-response",533,581303,"0.0-3.174-0.174","hndz1u5lzhjafsq",350,"111.csv","","2217.7999999523163","resources/trios/L1T4A2.jpg","37","restless",0.5,0.4,0.3,0.066646297284807,"true"
"image-keyboard-response",534,581707,"0.0-3.174-1.174","hndz1u5lzhjafsq",350,"111.csv","","null","resources/maskTrios/L1BB.jpg","null","",NA,NA,NA,NA,""
"image-keyboard-response",535,582913,"0.0-3.174-2.174","hndz1u5lzhjafsq",350,"111.csv","","null","resources/images/coin2.png","null","",NA,NA,NA,NA,""
"image-keyboard-response",536,586871,"0.0-3.175-0.175","hndz1u5lzhjafsq",350,"111.csv","","3957.5","resources/trios/L2T1A2.jpg","37","restless",0.5,0.4,0.3,0.902066854009056,"false"
"image-keyboard-response",537,587278,"0.0-3.175-1.175","hndz1u5lzhjafsq",350,"111.csv","","null","resources/maskTrios/L2BB.jpg","null","",NA,NA,NA,NA,""
"image-keyboard-response",538,588484,"0.0-3.175-2.175","hndz1u5lzhjafsq",350,"111.csv","","null","resources/images/fishbone.png","null","",NA,NA,NA,NA,""
"image-keyboard-response",539,588693,"0.0-3.176-0.176","hndz1u5lzhjafsq",350,"111.csv","","207.39999997615814","resources/trios/L2T1A2.jpg","37","restless",0.5,0.4,0.3,0.882006623403927,"false"
"image-keyboard-response",540,589098,"0.0-3.176-1.176","hndz1u5lzhjafsq",350,"111.csv","","null","resources/maskTrios/L2BB.jpg","null","",NA,NA,NA,NA,""
"image-keyboard-response",541,590304,"0.0-3.176-2.176","hndz1u5lzhjafsq",350,"111.csv","","null","resources/images/fishbone.png","null","",NA,NA,NA,NA,""
"image-keyboard-response",542,590647,"0.0-3.177-0.177","hndz1u5lzhjafsq",350,"111.csv","","342","resources/trios/L1T4A1.jpg","39","restless",0.6,0.4,0.3,0.30869848096662,"false"
"image-keyboard-response",543,591053,"0.0-3.177-1.177","hndz1u5lzhjafsq",350,"111.csv","","null","resources/maskTrios/BBA1.jpg","null","",NA,NA,NA,NA,""
"image-keyboard-response",544,592260,"0.0-3.177-2.177","hndz1u5lzhjafsq",350,"111.csv","","null","resources/images/fishbone.png","null","",NA,NA,NA,NA,""
"image-keyboard-response",545,596166,"0.0-3.178-0.178","hndz1u5lzhjafsq",350,"111.csv","","3904.599999964237","resources/trios/L1T4A2.jpg","37","restless",0.6,0.4,0.4,0.105759413308361,"true"
"image-keyboard-response",546,596569,"0.0-3.178-1.178","hndz1u5lzhjafsq",350,"111.csv","","null","resources/maskTrios/L1BB.jpg","null","",NA,NA,NA,NA,""
"image-keyboard-response",547,597776,"0.0-3.178-2.178","hndz1u5lzhjafsq",350,"111.csv","","null","resources/images/coin2.png","null","",NA,NA,NA,NA,""
"image-keyboard-response",548,598333,"0.0-3.179-0.179","hndz1u5lzhjafsq",350,"111.csv","","556.1999999880791","resources/trios/L1T4A1.jpg","39","restless",0.6,0.4,0.4,0.285317955659782,"true"
"image-keyboard-response",549,598735,"0.0-3.179-1.179","hndz1u5lzhjafsq",350,"111.csv","","null","resources/maskTrios/BBA1.jpg","null","",NA,NA,NA,NA,""
"image-keyboard-response",550,599939,"0.0-3.179-2.179","hndz1u5lzhjafsq",350,"111.csv","","null","resources/images/coin2.png","null","",NA,NA,NA,NA,""
"image-keyboard-response",551,600444,"0.0-3.180-0.180","hndz1u5lzhjafsq",350,"111.csv","","503.5","resources/trios/L1T4A2.jpg","38","restless",0.6,0.4,0.4,0.676342694990805,"false"
"image-keyboard-response",552,600850,"0.0-3.180-1.180","hndz1u5lzhjafsq",350,"111.csv","","null","resources/maskTrios/BT4B.jpg","null","",NA,NA,NA,NA,""
"image-keyboard-response",553,602052,"0.0-3.180-2.180","hndz1u5lzhjafsq",350,"111.csv","","null","resources/images/fishbone.png","null","",NA,NA,NA,NA,""
"image-keyboard-response",554,603157,"0.0-3.181-0.181","hndz1u5lzhjafsq",350,"111.csv","","1103.2999999523163","resources/trios/L1T4A1.jpg","39","restless",0.6,0.4,0.4,0.568270688128349,"false"
"image-keyboard-response",555,603559,"0.0-3.181-1.181","hndz1u5lzhjafsq",350,"111.csv","","null","resources/maskTrios/BBA1.jpg","null","",NA,NA,NA,NA,""
"image-keyboard-response",556,604766,"0.0-3.181-2.181","hndz1u5lzhjafsq",350,"111.csv","","null","resources/images/fishbone.png","null","",NA,NA,NA,NA,""
"image-keyboard-response",557,605825,"0.0-3.182-0.182","hndz1u5lzhjafsq",350,"111.csv","","1058","resources/trios/L1T1A1.jpg","39","restless",0.6,0.4,0.4,0.0437006946301211,"true"
"image-keyboard-response",558,606232,"0.0-3.182-1.182","hndz1u5lzhjafsq",350,"111.csv","","null","resources/maskTrios/BBA1.jpg","null","",NA,NA,NA,NA,""
"image-keyboard-response",559,607433,"0.0-3.182-2.182","hndz1u5lzhjafsq",350,"111.csv","","null","resources/images/coin2.png","null","",NA,NA,NA,NA,""
"image-keyboard-response",560,611172,"0.0-3.183-0.183","hndz1u5lzhjafsq",350,"111.csv","","3737.199999988079","resources/trios/L1T1A2.jpg","38","restless",0.6,0.5,0.4,0.142774163075625,"true"
"image-keyboard-response",561,611579,"0.0-3.183-1.183","hndz1u5lzhjafsq",350,"111.csv","","null","resources/maskTrios/BT1B.jpg","null","",NA,NA,NA,NA,""
"image-keyboard-response",562,612785,"0.0-3.183-2.183","hndz1u5lzhjafsq",350,"111.csv","","null","resources/images/coin2.png","null","",NA,NA,NA,NA,""
"image-keyboard-response",563,614625,"0.0-3.184-0.184","hndz1u5lzhjafsq",350,"111.csv","","1839.300000011921","resources/trios/L1T4A1.jpg","37","restless",0.6,0.5,0.4,0.328751846789725,"true"
"image-keyboard-response",564,615032,"0.0-3.184-1.184","hndz1u5lzhjafsq",350,"111.csv","","null","resources/maskTrios/L1BB.jpg","null","",NA,NA,NA,NA,""
"image-keyboard-response",565,616235,"0.0-3.184-2.184","hndz1u5lzhjafsq",350,"111.csv","","null","resources/images/coin2.png","null","",NA,NA,NA,NA,""
"image-keyboard-response",566,618281,"0.0-3.185-0.185","hndz1u5lzhjafsq",350,"111.csv","","2043.699999988079","resources/trios/L2T4A2.jpg","38","restless",0.6,0.5,0.4,0.490530092795811,"true"
"image-keyboard-response",567,618685,"0.0-3.185-1.185","hndz1u5lzhjafsq",350,"111.csv","","null","resources/maskTrios/BT4B.jpg","null","",NA,NA,NA,NA,""
"image-keyboard-response",568,619892,"0.0-3.185-2.185","hndz1u5lzhjafsq",350,"111.csv","","null","resources/images/coin2.png","null","",NA,NA,NA,NA,""
"image-keyboard-response",569,619900,"0.0-3.186-0.186","hndz1u5lzhjafsq",350,"111.csv","","6.100000023841858","resources/trios/L1T4A1.jpg","39","restless",0.7,0.5,0.4,0.0273660720840634,"true"
"image-keyboard-response",570,620302,"0.0-3.186-1.186","hndz1u5lzhjafsq",350,"111.csv","","null","resources/maskTrios/BBA1.jpg","null","",NA,NA,NA,NA,""
"image-keyboard-response",571,621508,"0.0-3.186-2.186","hndz1u5lzhjafsq",350,"111.csv","","null","resources/images/coin2.png","null","",NA,NA,NA,NA,""
"image-keyboard-response",572,621868,"0.0-3.187-0.187","hndz1u5lzhjafsq",350,"111.csv","","358.69999998807907","resources/trios/L2T4A2.jpg","38","restless",0.7,0.5,0.4,0.652479676177503,"false"
"image-keyboard-response",573,622275,"0.0-3.187-1.187","hndz1u5lzhjafsq",350,"111.csv","","null","resources/maskTrios/BT4B.jpg","null","",NA,NA,NA,NA,""
"image-keyboard-response",574,623479,"0.0-3.187-2.187","hndz1u5lzhjafsq",350,"111.csv","","null","resources/images/fishbone.png","null","",NA,NA,NA,NA,""
"image-keyboard-response",575,625846,"0.0-3.188-0.188","hndz1u5lzhjafsq",350,"111.csv","","2365","resources/trios/L1T4A2.jpg","39","restless",0.7,0.5,0.4,0.150372931339885,"true"
"image-keyboard-response",576,626250,"0.0-3.188-1.188","hndz1u5lzhjafsq",350,"111.csv","","null","resources/maskTrios/BBA2.jpg","null","",NA,NA,NA,NA,""
"image-keyboard-response",577,627452,"0.0-3.188-2.188","hndz1u5lzhjafsq",350,"111.csv","","null","resources/images/coin2.png","null","",NA,NA,NA,NA,""
"image-keyboard-response",578,628160,"0.0-3.189-0.189","hndz1u5lzhjafsq",350,"111.csv","","706.8000000119209","resources/trios/L1T4A2.jpg","38","restless",0.7,0.5,0.4,0.406150141694509,"true"
"image-keyboard-response",579,628566,"0.0-3.189-1.189","hndz1u5lzhjafsq",350,"111.csv","","null","resources/maskTrios/BT4B.jpg","null","",NA,NA,NA,NA,""
"image-keyboard-response",580,629772,"0.0-3.189-2.189","hndz1u5lzhjafsq",350,"111.csv","","null","resources/images/coin2.png","null","",NA,NA,NA,NA,""
"image-keyboard-response",581,632066,"0.0-3.190-0.190","hndz1u5lzhjafsq",350,"111.csv","","2292.100000023842","resources/trios/L1T1A2.jpg","39","restless",0.7,0.5,0.4,0.07021774578405,"true"
"image-keyboard-response",582,632472,"0.0-3.190-1.190","hndz1u5lzhjafsq",350,"111.csv","","null","resources/maskTrios/BBA2.jpg","null","",NA,NA,NA,NA,""
"image-keyboard-response",583,633679,"0.0-3.190-2.190","hndz1u5lzhjafsq",350,"111.csv","","null","resources/images/coin2.png","null","",NA,NA,NA,NA,""
"image-keyboard-response",584,634521,"0.0-3.191-0.191","hndz1u5lzhjafsq",350,"111.csv","","840.2999999523163","resources/trios/L1T4A2.jpg","38","restless",0.7,0.5,0.4,0.820398429721877,"false"
"image-keyboard-response",585,634927,"0.0-3.191-1.191","hndz1u5lzhjafsq",350,"111.csv","","null","resources/maskTrios/BT4B.jpg","null","",NA,NA,NA,NA,""
"image-keyboard-response",586,636131,"0.0-3.191-2.191","hndz1u5lzhjafsq",350,"111.csv","","null","resources/images/fishbone.png","null","",NA,NA,NA,NA,""
"image-keyboard-response",587,641834,"0.0-3.192-0.192","hndz1u5lzhjafsq",350,"111.csv","","5702","resources/trios/L1T1A1.jpg","38","restless",0.6,0.5,0.4,0.0368457606783001,"true"
"image-keyboard-response",588,642241,"0.0-3.192-1.192","hndz1u5lzhjafsq",350,"111.csv","","null","resources/maskTrios/BT1B.jpg","null","",NA,NA,NA,NA,""
"image-keyboard-response",589,643448,"0.0-3.192-2.192","hndz1u5lzhjafsq",350,"111.csv","","null","resources/images/coin2.png","null","",NA,NA,NA,NA,""
"image-keyboard-response",590,643871,"0.0-3.193-0.193","hndz1u5lzhjafsq",350,"111.csv","","422.0999999642372","resources/trios/L2T1A1.jpg","38","restless",0.6,0.5,0.4,0.257820444556461,"true"
"image-keyboard-response",591,644278,"0.0-3.193-1.193","hndz1u5lzhjafsq",350,"111.csv","","null","resources/maskTrios/BT1B.jpg","null","",NA,NA,NA,NA,""
"image-keyboard-response",592,645480,"0.0-3.193-2.193","hndz1u5lzhjafsq",350,"111.csv","","null","resources/images/coin2.png","null","",NA,NA,NA,NA,""
"image-keyboard-response",593,645897,"0.0-3.194-0.194","hndz1u5lzhjafsq",350,"111.csv","","415.69999998807907","resources/trios/L2T1A2.jpg","39","restless",0.6,0.5,0.4,0.832134634852929,"false"
"image-keyboard-response",594,646299,"0.0-3.194-1.194","hndz1u5lzhjafsq",350,"111.csv","","null","resources/maskTrios/BBA2.jpg","null","",NA,NA,NA,NA,""
"image-keyboard-response",595,647502,"0.0-3.194-2.194","hndz1u5lzhjafsq",350,"111.csv","","null","resources/images/fishbone.png","null","",NA,NA,NA,NA,""
"image-keyboard-response",596,649710,"0.0-3.195-0.195","hndz1u5lzhjafsq",350,"111.csv","","2206.399999976158","resources/trios/L1T1A2.jpg","37","restless",0.6,0.5,0.4,0.917676019394601,"false"
"image-keyboard-response",597,650114,"0.0-3.195-1.195","hndz1u5lzhjafsq",350,"111.csv","","null","resources/maskTrios/L1BB.jpg","null","",NA,NA,NA,NA,""
"image-keyboard-response",598,651316,"0.0-3.195-2.195","hndz1u5lzhjafsq",350,"111.csv","","null","resources/images/fishbone.png","null","",NA,NA,NA,NA,""
"image-keyboard-response",599,652820,"0.0-3.196-0.196","hndz1u5lzhjafsq",350,"111.csv","","1501.6000000238419","resources/trios/L1T1A2.jpg","39","restless",0.6,0.5,0.4,0.214028422251851,"true"
"image-keyboard-response",600,653226,"0.0-3.196-1.196","hndz1u5lzhjafsq",350,"111.csv","","null","resources/maskTrios/BBA2.jpg","null","",NA,NA,NA,NA,""
"image-keyboard-response",601,654430,"0.0-3.196-2.196","hndz1u5lzhjafsq",350,"111.csv","","null","resources/images/coin2.png","null","",NA,NA,NA,NA,""
"image-keyboard-response",602,659091,"0.0-3.197-0.197","hndz1u5lzhjafsq",350,"111.csv","","4659","resources/trios/L1T1A2.jpg","39","restless",0.6,0.5,0.4,0.473048455415199,"false"
"image-keyboard-response",603,659496,"0.0-3.197-1.197","hndz1u5lzhjafsq",350,"111.csv","","null","resources/maskTrios/BBA2.jpg","null","",NA,NA,NA,NA,""
"image-keyboard-response",604,660702,"0.0-3.197-2.197","hndz1u5lzhjafsq",350,"111.csv","","null","resources/images/fishbone.png","null","",NA,NA,NA,NA,""
"image-keyboard-response",605,662021,"0.0-3.198-0.198","hndz1u5lzhjafsq",350,"111.csv","","1318.0999999642372","resources/trios/L2T4A1.jpg","38","restless",0.6,0.5,0.4,0.394149863470185,"true"
"image-keyboard-response",606,662428,"0.0-3.198-1.198","hndz1u5lzhjafsq",350,"111.csv","","null","resources/maskTrios/BT4B.jpg","null","",NA,NA,NA,NA,""
