"trial_type","trial_index","time_elapsed","internal_node_id","subject","participantCode","walkNumber","success","rt","stimulus","key_press","test_part","leftProb","midProb","rightProb","generatedNum","correct"
"pavlovia",0,1089,"0.0-0.0","46rr4nzfvnap621",77,"132.csv","","","","","",NA,NA,NA,NA,""
"fullscreen",1,5944,"0.0-1.0","46rr4nzfvnap621",77,"132.csv","true","","","","",NA,NA,NA,NA,""
"html-keyboard-response",2,18703,"0.0-2.0-0.0","46rr4nzfvnap621",77,"132.csv","","12758.100000023842","<p><font size='6'>Arrrgh!</p></font><p>Can you be the best pirate? Try to find lots of gold! But beware, some islands have more gold than others, and over time, the island with the most gold may change. Can YOU figure it out? </p><font size='6'>GOOD LUCK, CAPTAIN!!!</font><p>Press any key to begin</p>","32","",NA,NA,NA,NA,""
"image-keyboard-response",3,21711,"0.0-2.0-1.0","46rr4nzfvnap621",77,"132.csv","","null","resources/image_sets/111.png","null","",NA,NA,NA,NA,""
"image-keyboard-response",4,27885,"0.0-2.0-2.0","46rr4nzfvnap621",77,"132.csv","","6171.5","resources/image_sets/left_highlight.png","37","",NA,NA,NA,NA,""
"image-keyboard-response",5,29850,"0.0-2.0-3.0","46rr4nzfvnap621",77,"132.csv","","1963","resources/image_sets/mid_highlight.png","38","",NA,NA,NA,NA,""
"image-keyboard-response",6,30377,"0.0-2.0-4.0","46rr4nzfvnap621",77,"132.csv","","525.3999999761581","resources/image_sets/right_highlight.png","39","",NA,NA,NA,NA,""
"image-keyboard-response",7,33049,"0.0-2.0-5.0","46rr4nzfvnap621",77,"132.csv","","2670.100000023842","resources/image_sets/111.png","13","",NA,NA,NA,NA,""
"image-keyboard-response",8,35931,"0.0-2.0-6.0","46rr4nzfvnap621",77,"132.csv","","2880.600000023842","resources/images/coin2.png","13","",NA,NA,NA,NA,""
"image-keyboard-response",9,37738,"0.0-2.0-7.0","46rr4nzfvnap621",77,"132.csv","","1804.7999999523163","resources/images/fishbone.png","13","",NA,NA,NA,NA,""
"html-keyboard-response",10,44082,"0.0-2.0-8.0","46rr4nzfvnap621",77,"132.csv","","6343.600000023842","<p>Your first journey will be a long one, but you will get a well deserved break at the end</p><p>After the break you will have four more journeys, but each will be much shorter than the first, and you will have breaks in between each</p><p>Press Enter to begin</p>","13","",NA,NA,NA,NA,""
"image-keyboard-response",11,47493,"0.0-3.0-0.0","46rr4nzfvnap621",77,"132.csv","","3408.5","resources/trios/L4T1A3.jpg","39","restless",0.9,0.3,0.7,0.213536599162275,"true"
"image-keyboard-response",12,47904,"0.0-3.0-1.0","46rr4nzfvnap621",77,"132.csv","","null","resources/maskTrios/BBA3.jpg","null","",NA,NA,NA,NA,""
"image-keyboard-response",13,49120,"0.0-3.0-2.0","46rr4nzfvnap621",77,"132.csv","","null","resources/images/coin2.png","null","",NA,NA,NA,NA,""
"image-keyboard-response",14,53788,"0.0-3.1-0.1","46rr4nzfvnap621",77,"132.csv","","4665.099999964237","resources/trios/L2T1A3.jpg","37","restless",0.9,0.3,0.7,0.993264917314291,"false"
"image-keyboard-response",15,54197,"0.0-3.1-1.1","46rr4nzfvnap621",77,"132.csv","","null","resources/maskTrios/L2BB.jpg","null","",NA,NA,NA,NA,""
"image-keyboard-response",16,55408,"0.0-3.1-2.1","46rr4nzfvnap621",77,"132.csv","","null","resources/images/fishbone.png","null","",NA,NA,NA,NA,""
"image-keyboard-response",17,55907,"0.0-3.2-0.2","46rr4nzfvnap621",77,"132.csv","","497.30000001192093","resources/trios/L2T1A1.jpg","39","restless",0.9,0.3,0.7,0.689827638085922,"true"
"image-keyboard-response",18,56316,"0.0-3.2-1.2","46rr4nzfvnap621",77,"132.csv","","null","resources/maskTrios/BBA1.jpg","null","",NA,NA,NA,NA,""
"image-keyboard-response",19,57528,"0.0-3.2-2.2","46rr4nzfvnap621",77,"132.csv","","null","resources/images/coin2.png","null","",NA,NA,NA,NA,""
"image-keyboard-response",20,59082,"0.0-3.3-0.3","46rr4nzfvnap621",77,"132.csv","","1551.800000011921","resources/trios/L2T1A3.jpg","38","restless",0.9,0.3,0.7,0.894388501881027,"false"
"image-keyboard-response",21,59495,"0.0-3.3-1.3","46rr4nzfvnap621",77,"132.csv","","null","resources/maskTrios/BT1B.jpg","null","",NA,NA,NA,NA,""
"image-keyboard-response",22,60704,"0.0-3.3-2.3","46rr4nzfvnap621",77,"132.csv","","null","resources/images/fishbone.png","null","",NA,NA,NA,NA,""
"image-keyboard-response",23,61158,"0.0-3.4-0.4","46rr4nzfvnap621",77,"132.csv","","452.10000002384186","resources/trios/L4T1A1.jpg","37","restless",0.9,0.3,0.7,0.807780544990177,"true"
"image-keyboard-response",24,61568,"0.0-3.4-1.4","46rr4nzfvnap621",77,"132.csv","","null","resources/maskTrios/L4BB.jpg","null","",NA,NA,NA,NA,""
"image-keyboard-response",25,62776,"0.0-3.4-2.4","46rr4nzfvnap621",77,"132.csv","","null","resources/images/coin2.png","null","",NA,NA,NA,NA,""
"image-keyboard-response",26,63525,"0.0-3.5-0.5","46rr4nzfvnap621",77,"132.csv","","747.0999999642372","resources/trios/L2T2A1.jpg","37","restless",0.8,0.3,0.7,0.643770795775773,"true"
"image-keyboard-response",27,63934,"0.0-3.5-1.5","46rr4nzfvnap621",77,"132.csv","","null","resources/maskTrios/L2BB.jpg","null","",NA,NA,NA,NA,""
"image-keyboard-response",28,65140,"0.0-3.5-2.5","46rr4nzfvnap621",77,"132.csv","","null","resources/images/coin2.png","null","",NA,NA,NA,NA,""
"image-keyboard-response",29,65684,"0.0-3.6-0.6","46rr4nzfvnap621",77,"132.csv","","542","resources/trios/L2T2A3.jpg","37","restless",0.8,0.3,0.7,0.207017793744708,"true"
"image-keyboard-response",30,66091,"0.0-3.6-1.6","46rr4nzfvnap621",77,"132.csv","","null","resources/maskTrios/L2BB.jpg","null","",NA,NA,NA,NA,""
"image-keyboard-response",31,67302,"0.0-3.6-2.6","46rr4nzfvnap621",77,"132.csv","","null","resources/images/coin2.png","null","",NA,NA,NA,NA,""
"image-keyboard-response",32,68324,"0.0-3.7-0.7","46rr4nzfvnap621",77,"132.csv","","1020.3000000119209","resources/trios/L4T2A3.jpg","37","restless",0.8,0.3,0.7,0.869056343344602,"false"
"image-keyboard-response",33,68736,"0.0-3.7-1.7","46rr4nzfvnap621",77,"132.csv","","null","resources/maskTrios/L4BB.jpg","null","",NA,NA,NA,NA,""
"image-keyboard-response",34,69943,"0.0-3.7-2.7","46rr4nzfvnap621",77,"132.csv","","null","resources/images/fishbone.png","null","",NA,NA,NA,NA,""
"image-keyboard-response",35,70731,"0.0-3.8-0.8","46rr4nzfvnap621",77,"132.csv","","785.1000000238419","resources/trios/L4T2A1.jpg","39","restless",0.8,0.3,0.7,0.510657009673512,"true"
"image-keyboard-response",36,71143,"0.0-3.8-1.8","46rr4nzfvnap621",77,"132.csv","","null","resources/maskTrios/BBA1.jpg","null","",NA,NA,NA,NA,""
"image-keyboard-response",37,72347,"0.0-3.8-2.8","46rr4nzfvnap621",77,"132.csv","","null","resources/images/coin2.png","null","",NA,NA,NA,NA,""
"image-keyboard-response",38,72912,"0.0-3.9-0.9","46rr4nzfvnap621",77,"132.csv","","562.6999999880791","resources/trios/L2T1A3.jpg","39","restless",0.8,0.4,0.7,0.275529992127595,"true"
"image-keyboard-response",39,73319,"0.0-3.9-1.9","46rr4nzfvnap621",77,"132.csv","","null","resources/maskTrios/BBA3.jpg","null","",NA,NA,NA,NA,""
"image-keyboard-response",40,74523,"0.0-3.9-2.9","46rr4nzfvnap621",77,"132.csv","","null","resources/images/coin2.png","null","",NA,NA,NA,NA,""
"image-keyboard-response",41,76612,"0.0-3.10-0.10","46rr4nzfvnap621",77,"132.csv","","2086.300000011921","resources/trios/L2T2A1.jpg","39","restless",0.8,0.4,0.7,0.528200083294293,"true"
"image-keyboard-response",42,77023,"0.0-3.10-1.10","46rr4nzfvnap621",77,"132.csv","","null","resources/maskTrios/BBA1.jpg","null","",NA,NA,NA,NA,""
"image-keyboard-response",43,78227,"0.0-3.10-2.10","46rr4nzfvnap621",77,"132.csv","","null","resources/images/coin2.png","null","",NA,NA,NA,NA,""
"image-keyboard-response",44,78962,"0.0-3.11-0.11","46rr4nzfvnap621",77,"132.csv","","732.4000000357628","resources/trios/L2T1A3.jpg","39","restless",0.8,0.4,0.7,0.338713174312189,"true"
"image-keyboard-response",45,79371,"0.0-3.11-1.11","46rr4nzfvnap621",77,"132.csv","","null","resources/maskTrios/BBA3.jpg","null","",NA,NA,NA,NA,""
"image-keyboard-response",46,80580,"0.0-3.11-2.11","46rr4nzfvnap621",77,"132.csv","","null","resources/images/coin2.png","null","",NA,NA,NA,NA,""
"image-keyboard-response",47,81105,"0.0-3.12-0.12","46rr4nzfvnap621",77,"132.csv","","522.8999999761581","resources/trios/L2T1A3.jpg","39","restless",0.8,0.4,0.7,0.77930715732712,"false"
"image-keyboard-response",48,81517,"0.0-3.12-1.12","46rr4nzfvnap621",77,"132.csv","","null","resources/maskTrios/BBA3.jpg","null","",NA,NA,NA,NA,""
"image-keyboard-response",49,82727,"0.0-3.12-2.12","46rr4nzfvnap621",77,"132.csv","","null","resources/images/fishbone.png","null","",NA,NA,NA,NA,""
"image-keyboard-response",50,83113,"0.0-3.13-0.13","46rr4nzfvnap621",77,"132.csv","","384.19999998807907","resources/trios/L4T2A3.jpg","38","restless",0.8,0.4,0.7,0.317090097561807,"true"
"image-keyboard-response",51,83527,"0.0-3.13-1.13","46rr4nzfvnap621",77,"132.csv","","null","resources/maskTrios/BT2B.jpg","null","",NA,NA,NA,NA,""
"image-keyboard-response",52,84731,"0.0-3.13-2.13","46rr4nzfvnap621",77,"132.csv","","null","resources/images/coin2.png","null","",NA,NA,NA,NA,""
"image-keyboard-response",53,87286,"0.0-3.14-0.14","46rr4nzfvnap621",77,"132.csv","","2552.900000035763","resources/trios/L2T1A3.jpg","38","restless",0.8,0.4,0.6,0.6091410041606,"false"
"image-keyboard-response",54,87695,"0.0-3.14-1.14","46rr4nzfvnap621",77,"132.csv","","null","resources/maskTrios/BT1B.jpg","null","",NA,NA,NA,NA,""
"image-keyboard-response",55,88898,"0.0-3.14-2.14","46rr4nzfvnap621",77,"132.csv","","null","resources/images/fishbone.png","null","",NA,NA,NA,NA,""
"image-keyboard-response",56,89586,"0.0-3.15-0.15","46rr4nzfvnap621",77,"132.csv","","685.2000000476837","resources/trios/L4T1A3.jpg","37","restless",0.8,0.4,0.6,0.759606375281804,"true"
"image-keyboard-response",57,89999,"0.0-3.15-1.15","46rr4nzfvnap621",77,"132.csv","","null","resources/maskTrios/L4BB.jpg","null","",NA,NA,NA,NA,""
"image-keyboard-response",58,91204,"0.0-3.15-2.15","46rr4nzfvnap621",77,"132.csv","","null","resources/images/coin2.png","null","",NA,NA,NA,NA,""
"image-keyboard-response",59,91620,"0.0-3.16-0.16","46rr4nzfvnap621",77,"132.csv","","413.80000001192093","resources/trios/L4T1A3.jpg","37","restless",0.8,0.4,0.6,0.638620046586325,"true"
"image-keyboard-response",60,92031,"0.0-3.16-1.16","46rr4nzfvnap621",77,"132.csv","","null","resources/maskTrios/L4BB.jpg","null","",NA,NA,NA,NA,""
"image-keyboard-response",61,93234,"0.0-3.16-2.16","46rr4nzfvnap621",77,"132.csv","","null","resources/images/coin2.png","null","",NA,NA,NA,NA,""
"image-keyboard-response",62,93929,"0.0-3.17-0.17","46rr4nzfvnap621",77,"132.csv","","692.3000000119209","resources/trios/L2T2A3.jpg","37","restless",0.8,0.5,0.6,0.122986815890708,"true"
"image-keyboard-response",63,94339,"0.0-3.17-1.17","46rr4nzfvnap621",77,"132.csv","","null","resources/maskTrios/L2BB.jpg","null","",NA,NA,NA,NA,""
"image-keyboard-response",64,95548,"0.0-3.17-2.17","46rr4nzfvnap621",77,"132.csv","","null","resources/images/coin2.png","null","",NA,NA,NA,NA,""
"image-keyboard-response",65,96174,"0.0-3.18-0.18","46rr4nzfvnap621",77,"132.csv","","624.0999999642372","resources/trios/L2T2A1.jpg","37","restless",0.7,0.6,0.6,0.347101687402638,"true"
"image-keyboard-response",66,96582,"0.0-3.18-1.18","46rr4nzfvnap621",77,"132.csv","","null","resources/maskTrios/L2BB.jpg","null","",NA,NA,NA,NA,""
"image-keyboard-response",67,97791,"0.0-3.18-2.18","46rr4nzfvnap621",77,"132.csv","","null","resources/images/coin2.png","null","",NA,NA,NA,NA,""
"image-keyboard-response",68,98496,"0.0-3.19-0.19","46rr4nzfvnap621",77,"132.csv","","702.9000000357628","resources/trios/L2T1A1.jpg","37","restless",0.7,0.6,0.6,0.890546008320853,"false"
"image-keyboard-response",69,98911,"0.0-3.19-1.19","46rr4nzfvnap621",77,"132.csv","","null","resources/maskTrios/L2BB.jpg","null","",NA,NA,NA,NA,""
"image-keyboard-response",70,100119,"0.0-3.19-2.19","46rr4nzfvnap621",77,"132.csv","","null","resources/images/fishbone.png","null","",NA,NA,NA,NA,""
"image-keyboard-response",71,100814,"0.0-3.20-0.20","46rr4nzfvnap621",77,"132.csv","","692.5","resources/trios/L2T2A3.jpg","39","restless",0.7,0.6,0.6,0.950821888645099,"false"
"image-keyboard-response",72,101219,"0.0-3.20-1.20","46rr4nzfvnap621",77,"132.csv","","null","resources/maskTrios/BBA3.jpg","null","",NA,NA,NA,NA,""
"image-keyboard-response",73,102431,"0.0-3.20-2.20","46rr4nzfvnap621",77,"132.csv","","null","resources/images/fishbone.png","null","",NA,NA,NA,NA,""
"image-keyboard-response",74,102711,"0.0-3.21-0.21","46rr4nzfvnap621",77,"132.csv","","277.7999999523163","resources/trios/L2T2A3.jpg","38","restless",0.7,0.6,0.7,0.231796177299322,"true"
"image-keyboard-response",75,103118,"0.0-3.21-1.21","46rr4nzfvnap621",77,"132.csv","","null","resources/maskTrios/BT2B.jpg","null","",NA,NA,NA,NA,""
"image-keyboard-response",76,104322,"0.0-3.21-2.21","46rr4nzfvnap621",77,"132.csv","","null","resources/images/coin2.png","null","",NA,NA,NA,NA,""
"image-keyboard-response",77,105140,"0.0-3.22-0.22","46rr4nzfvnap621",77,"132.csv","","816.1000000238419","resources/trios/L2T2A1.jpg","38","restless",0.7,0.6,0.7,0.163827263943305,"true"
"image-keyboard-response",78,105551,"0.0-3.22-1.22","46rr4nzfvnap621",77,"132.csv","","null","resources/maskTrios/BT2B.jpg","null","",NA,NA,NA,NA,""
"image-keyboard-response",79,106758,"0.0-3.22-2.22","46rr4nzfvnap621",77,"132.csv","","null","resources/images/coin2.png","null","",NA,NA,NA,NA,""
"image-keyboard-response",80,107664,"0.0-3.23-0.23","46rr4nzfvnap621",77,"132.csv","","903.9000000357628","resources/trios/L2T2A1.jpg","38","restless",0.7,0.6,0.7,0.00589544712902712,"true"
"image-keyboard-response",81,108074,"0.0-3.23-1.23","46rr4nzfvnap621",77,"132.csv","","null","resources/maskTrios/BT2B.jpg","null","",NA,NA,NA,NA,""
"image-keyboard-response",82,109284,"0.0-3.23-2.23","46rr4nzfvnap621",77,"132.csv","","null","resources/images/coin2.png","null","",NA,NA,NA,NA,""
"image-keyboard-response",83,110066,"0.0-3.24-0.24","46rr4nzfvnap621",77,"132.csv","","780.1000000238419","resources/trios/L2T2A1.jpg","38","restless",0.7,0.6,0.7,0.305277585360078,"true"
"image-keyboard-response",84,110478,"0.0-3.24-1.24","46rr4nzfvnap621",77,"132.csv","","null","resources/maskTrios/BT2B.jpg","null","",NA,NA,NA,NA,""
"image-keyboard-response",85,111686,"0.0-3.24-2.24","46rr4nzfvnap621",77,"132.csv","","null","resources/images/coin2.png","null","",NA,NA,NA,NA,""
"image-keyboard-response",86,112224,"0.0-3.25-0.25","46rr4nzfvnap621",77,"132.csv","","535.1000000238419","resources/trios/L2T2A1.jpg","37","restless",0.7,0.6,0.7,0.250306207875511,"true"
"image-keyboard-response",87,112638,"0.0-3.25-1.25","46rr4nzfvnap621",77,"132.csv","","null","resources/maskTrios/L2BB.jpg","null","",NA,NA,NA,NA,""
"image-keyboard-response",88,113846,"0.0-3.25-2.25","46rr4nzfvnap621",77,"132.csv","","null","resources/images/coin2.png","null","",NA,NA,NA,NA,""
"image-keyboard-response",89,114202,"0.0-3.26-0.26","46rr4nzfvnap621",77,"132.csv","","353.7999999523163","resources/trios/L2T2A1.jpg","37","restless",0.7,0.6,0.7,0.887402659233768,"false"
"image-keyboard-response",90,114614,"0.0-3.26-1.26","46rr4nzfvnap621",77,"132.csv","","null","resources/maskTrios/L2BB.jpg","null","",NA,NA,NA,NA,""
"image-keyboard-response",91,115822,"0.0-3.26-2.26","46rr4nzfvnap621",77,"132.csv","","null","resources/images/fishbone.png","null","",NA,NA,NA,NA,""
"image-keyboard-response",92,116164,"0.0-3.27-0.27","46rr4nzfvnap621",77,"132.csv","","339.5","resources/trios/L4T1A1.jpg","39","restless",0.7,0.6,0.7,0.17213520068159,"true"
"image-keyboard-response",93,116570,"0.0-3.27-1.27","46rr4nzfvnap621",77,"132.csv","","null","resources/maskTrios/BBA1.jpg","null","",NA,NA,NA,NA,""
"image-keyboard-response",94,117782,"0.0-3.27-2.27","46rr4nzfvnap621",77,"132.csv","","null","resources/images/coin2.png","null","",NA,NA,NA,NA,""
"image-keyboard-response",95,118171,"0.0-3.28-0.28","46rr4nzfvnap621",77,"132.csv","","386.5999999642372","resources/trios/L4T2A3.jpg","39","restless",0.7,0.5,0.7,0.397351427343251,"true"
"image-keyboard-response",96,118582,"0.0-3.28-1.28","46rr4nzfvnap621",77,"132.csv","","null","resources/maskTrios/BBA3.jpg","null","",NA,NA,NA,NA,""
"image-keyboard-response",97,119790,"0.0-3.28-2.28","46rr4nzfvnap621",77,"132.csv","","null","resources/images/coin2.png","null","",NA,NA,NA,NA,""
"image-keyboard-response",98,120331,"0.0-3.29-0.29","46rr4nzfvnap621",77,"132.csv","","538.1999999880791","resources/trios/L2T2A1.jpg","39","restless",0.7,0.5,0.7,0.421555605261198,"true"
"image-keyboard-response",99,120738,"0.0-3.29-1.29","46rr4nzfvnap621",77,"132.csv","","null","resources/maskTrios/BBA1.jpg","null","",NA,NA,NA,NA,""
"image-keyboard-response",100,121946,"0.0-3.29-2.29","46rr4nzfvnap621",77,"132.csv","","null","resources/images/coin2.png","null","",NA,NA,NA,NA,""
"image-keyboard-response",101,122487,"0.0-3.30-0.30","46rr4nzfvnap621",77,"132.csv","","538.5","resources/trios/L2T1A3.jpg","38","restless",0.7,0.5,0.7,0.0535586733596847,"true"
"image-keyboard-response",102,122890,"0.0-3.30-1.30","46rr4nzfvnap621",77,"132.csv","","null","resources/maskTrios/BT1B.jpg","null","",NA,NA,NA,NA,""
"image-keyboard-response",103,124102,"0.0-3.30-2.30","46rr4nzfvnap621",77,"132.csv","","null","resources/images/coin2.png","null","",NA,NA,NA,NA,""
"image-keyboard-response",104,124440,"0.0-3.31-0.31","46rr4nzfvnap621",77,"132.csv","","335.69999998807907","resources/trios/L4T1A1.jpg","38","restless",0.7,0.5,0.7,0.722712131263259,"false"
"image-keyboard-response",105,124854,"0.0-3.31-1.31","46rr4nzfvnap621",77,"132.csv","","null","resources/maskTrios/BT1B.jpg","null","",NA,NA,NA,NA,""
"image-keyboard-response",106,126062,"0.0-3.31-2.31","46rr4nzfvnap621",77,"132.csv","","null","resources/images/fishbone.png","null","",NA,NA,NA,NA,""
"image-keyboard-response",107,126321,"0.0-3.32-0.32","46rr4nzfvnap621",77,"132.csv","","256.4000000357628","resources/trios/L2T1A3.jpg","37","restless",0.7,0.5,0.7,0.311059850524226,"true"
"image-keyboard-response",108,126734,"0.0-3.32-1.32","46rr4nzfvnap621",77,"132.csv","","null","resources/maskTrios/L2BB.jpg","null","",NA,NA,NA,NA,""
"image-keyboard-response",109,127942,"0.0-3.32-2.32","46rr4nzfvnap621",77,"132.csv","","null","resources/images/coin2.png","null","",NA,NA,NA,NA,""
"image-keyboard-response",110,128801,"0.0-3.33-0.33","46rr4nzfvnap621",77,"132.csv","","857.1999999880791","resources/trios/L4T1A3.jpg","37","restless",0.7,0.5,0.7,0.476174049639734,"true"
"image-keyboard-response",111,129214,"0.0-3.33-1.33","46rr4nzfvnap621",77,"132.csv","","null","resources/maskTrios/L4BB.jpg","null","",NA,NA,NA,NA,""
"image-keyboard-response",112,130422,"0.0-3.33-2.33","46rr4nzfvnap621",77,"132.csv","","null","resources/images/coin2.png","null","",NA,NA,NA,NA,""
"image-keyboard-response",113,131843,"0.0-3.34-0.34","46rr4nzfvnap621",77,"132.csv","","1419.3999999761581","resources/trios/L2T1A3.jpg","39","restless",0.7,0.5,0.7,0.700986267326767,"false"
"image-keyboard-response",114,132254,"0.0-3.34-1.34","46rr4nzfvnap621",77,"132.csv","","null","resources/maskTrios/BBA3.jpg","null","",NA,NA,NA,NA,""
"image-keyboard-response",115,133462,"0.0-3.34-2.34","46rr4nzfvnap621",77,"132.csv","","null","resources/images/fishbone.png","null","",NA,NA,NA,NA,""
"image-keyboard-response",116,133758,"0.0-3.35-0.35","46rr4nzfvnap621",77,"132.csv","","293.7000000476837","resources/trios/L4T2A1.jpg","37","restless",0.7,0.5,0.7,0.868728431865633,"false"
"image-keyboard-response",117,134163,"0.0-3.35-1.35","46rr4nzfvnap621",77,"132.csv","","null","resources/maskTrios/L4BB.jpg","null","",NA,NA,NA,NA,""
"image-keyboard-response",118,135374,"0.0-3.35-2.35","46rr4nzfvnap621",77,"132.csv","","null","resources/images/fishbone.png","null","",NA,NA,NA,NA,""
"image-keyboard-response",119,135712,"0.0-3.36-0.36","46rr4nzfvnap621",77,"132.csv","","336.19999998807907","resources/trios/L2T1A1.jpg","38","restless",0.7,0.5,0.7,0.70875365070609,"false"
"image-keyboard-response",120,136126,"0.0-3.36-1.36","46rr4nzfvnap621",77,"132.csv","","null","resources/maskTrios/BT1B.jpg","null","",NA,NA,NA,NA,""
"image-keyboard-response",121,137334,"0.0-3.36-2.36","46rr4nzfvnap621",77,"132.csv","","null","resources/images/fishbone.png","null","",NA,NA,NA,NA,""
"image-keyboard-response",122,137791,"0.0-3.37-0.37","46rr4nzfvnap621",77,"132.csv","","455.0999999642372","resources/trios/L4T1A3.jpg","39","restless",0.6,0.5,0.7,0.934806114569896,"false"
"image-keyboard-response",123,138202,"0.0-3.37-1.37","46rr4nzfvnap621",77,"132.csv","","null","resources/maskTrios/BBA3.jpg","null","",NA,NA,NA,NA,""
"image-keyboard-response",124,139409,"0.0-3.37-2.37","46rr4nzfvnap621",77,"132.csv","","null","resources/images/fishbone.png","null","",NA,NA,NA,NA,""
"image-keyboard-response",125,139700,"0.0-3.38-0.38","46rr4nzfvnap621",77,"132.csv","","288.69999998807907","resources/trios/L2T1A1.jpg","37","restless",0.6,0.5,0.7,0.209564587718735,"true"
"image-keyboard-response",126,140110,"0.0-3.38-1.38","46rr4nzfvnap621",77,"132.csv","","null","resources/maskTrios/L2BB.jpg","null","",NA,NA,NA,NA,""
"image-keyboard-response",127,141316,"0.0-3.38-2.38","46rr4nzfvnap621",77,"132.csv","","null","resources/images/coin2.png","null","",NA,NA,NA,NA,""
"image-keyboard-response",128,141715,"0.0-3.39-0.39","46rr4nzfvnap621",77,"132.csv","","397.80000001192093","resources/trios/L2T2A3.jpg","37","restless",0.5,0.5,0.7,0.255481951409302,"true"
"image-keyboard-response",129,142126,"0.0-3.39-1.39","46rr4nzfvnap621",77,"132.csv","","null","resources/maskTrios/L2BB.jpg","null","",NA,NA,NA,NA,""
"image-keyboard-response",130,143334,"0.0-3.39-2.39","46rr4nzfvnap621",77,"132.csv","","null","resources/images/coin2.png","null","",NA,NA,NA,NA,""
"image-keyboard-response",131,143701,"0.0-3.40-0.40","46rr4nzfvnap621",77,"132.csv","","365","resources/trios/L2T2A1.jpg","37","restless",0.5,0.5,0.7,0.158315989580556,"true"
"image-keyboard-response",132,144110,"0.0-3.40-1.40","46rr4nzfvnap621",77,"132.csv","","null","resources/maskTrios/L2BB.jpg","null","",NA,NA,NA,NA,""
"image-keyboard-response",133,145314,"0.0-3.40-2.40","46rr4nzfvnap621",77,"132.csv","","null","resources/images/coin2.png","null","",NA,NA,NA,NA,""
"image-keyboard-response",134,145712,"0.0-3.41-0.41","46rr4nzfvnap621",77,"132.csv","","397","resources/trios/L2T2A1.jpg","37","restless",0.5,0.5,0.7,0.11451919005994,"true"
"image-keyboard-response",135,146126,"0.0-3.41-1.41","46rr4nzfvnap621",77,"132.csv","","null","resources/maskTrios/L2BB.jpg","null","",NA,NA,NA,NA,""
"image-keyboard-response",136,147332,"0.0-3.41-2.41","46rr4nzfvnap621",77,"132.csv","","null","resources/images/coin2.png","null","",NA,NA,NA,NA,""
"image-keyboard-response",137,147696,"0.0-3.42-0.42","46rr4nzfvnap621",77,"132.csv","","360.9000000357628","resources/trios/L2T1A1.jpg","37","restless",0.5,0.5,0.7,0.782145877522232,"false"
"image-keyboard-response",138,148110,"0.0-3.42-1.42","46rr4nzfvnap621",77,"132.csv","","null","resources/maskTrios/L2BB.jpg","null","",NA,NA,NA,NA,""
"image-keyboard-response",139,149318,"0.0-3.42-2.42","46rr4nzfvnap621",77,"132.csv","","null","resources/images/fishbone.png","null","",NA,NA,NA,NA,""
"image-keyboard-response",140,149582,"0.0-3.43-0.43","46rr4nzfvnap621",77,"132.csv","","262.5999999642372","resources/trios/L4T2A1.jpg","39","restless",0.5,0.5,0.6,0.541363047004882,"true"
"image-keyboard-response",141,149989,"0.0-3.43-1.43","46rr4nzfvnap621",77,"132.csv","","null","resources/maskTrios/BBA1.jpg","null","",NA,NA,NA,NA,""
"image-keyboard-response",142,151197,"0.0-3.43-2.43","46rr4nzfvnap621",77,"132.csv","","null","resources/images/coin2.png","null","",NA,NA,NA,NA,""
"image-keyboard-response",143,151623,"0.0-3.44-0.44","46rr4nzfvnap621",77,"132.csv","","423.80000001192093","resources/trios/L4T1A1.jpg","39","restless",0.5,0.5,0.6,0.750600482171875,"false"
"image-keyboard-response",144,152033,"0.0-3.44-1.44","46rr4nzfvnap621",77,"132.csv","","null","resources/maskTrios/BBA1.jpg","null","",NA,NA,NA,NA,""
"image-keyboard-response",145,153245,"0.0-3.44-2.44","46rr4nzfvnap621",77,"132.csv","","null","resources/images/fishbone.png","null","",NA,NA,NA,NA,""
"image-keyboard-response",146,153664,"0.0-3.45-0.45","46rr4nzfvnap621",77,"132.csv","","416.5999999642372","resources/trios/L2T1A1.jpg","38","restless",0.5,0.5,0.5,0.787229408916833,"false"
"image-keyboard-response",147,154077,"0.0-3.45-1.45","46rr4nzfvnap621",77,"132.csv","","null","resources/maskTrios/BT1B.jpg","null","",NA,NA,NA,NA,""
"image-keyboard-response",148,155285,"0.0-3.45-2.45","46rr4nzfvnap621",77,"132.csv","","null","resources/images/fishbone.png","null","",NA,NA,NA,NA,""
"image-keyboard-response",149,155652,"0.0-3.46-0.46","46rr4nzfvnap621",77,"132.csv","","364.60000002384186","resources/trios/L2T2A1.jpg","37","restless",0.5,0.5,0.5,0.812217909599979,"false"
"image-keyboard-response",150,156061,"0.0-3.46-1.46","46rr4nzfvnap621",77,"132.csv","","null","resources/maskTrios/L2BB.jpg","null","",NA,NA,NA,NA,""
"image-keyboard-response",151,157269,"0.0-3.46-2.46","46rr4nzfvnap621",77,"132.csv","","null","resources/images/fishbone.png","null","",NA,NA,NA,NA,""
"image-keyboard-response",152,157698,"0.0-3.47-0.47","46rr4nzfvnap621",77,"132.csv","","426.19999998807907","resources/trios/L4T2A1.jpg","38","restless",0.5,0.5,0.4,0.401068401596877,"true"
"image-keyboard-response",153,158107,"0.0-3.47-1.47","46rr4nzfvnap621",77,"132.csv","","null","resources/maskTrios/BT2B.jpg","null","",NA,NA,NA,NA,""
"image-keyboard-response",154,159317,"0.0-3.47-2.47","46rr4nzfvnap621",77,"132.csv","","null","resources/images/coin2.png","null","",NA,NA,NA,NA,""
"image-keyboard-response",155,160610,"0.0-3.48-0.48","46rr4nzfvnap621",77,"132.csv","","1290.5999999642372","resources/trios/L4T1A3.jpg","37","restless",0.5,0.5,0.4,0.537776313140852,"false"
"image-keyboard-response",156,161021,"0.0-3.48-1.48","46rr4nzfvnap621",77,"132.csv","","null","resources/maskTrios/L4BB.jpg","null","",NA,NA,NA,NA,""
"image-keyboard-response",157,162226,"0.0-3.48-2.48","46rr4nzfvnap621",77,"132.csv","","null","resources/images/fishbone.png","null","",NA,NA,NA,NA,""
"image-keyboard-response",158,162498,"0.0-3.49-0.49","46rr4nzfvnap621",77,"132.csv","","269.5999999642372","resources/trios/L4T1A3.jpg","38","restless",0.5,0.5,0.4,0.569420972791988,"false"
"image-keyboard-response",159,162909,"0.0-3.49-1.49","46rr4nzfvnap621",77,"132.csv","","null","resources/maskTrios/BT1B.jpg","null","",NA,NA,NA,NA,""
"image-keyboard-response",160,164117,"0.0-3.49-2.49","46rr4nzfvnap621",77,"132.csv","","null","resources/images/fishbone.png","null","",NA,NA,NA,NA,""
"image-keyboard-response",161,164398,"0.0-3.50-0.50","46rr4nzfvnap621",77,"132.csv","","278.5","resources/trios/L4T2A1.jpg","39","restless",0.5,0.5,0.4,0.696758520756152,"false"
"image-keyboard-response",162,164805,"0.0-3.50-1.50","46rr4nzfvnap621",77,"132.csv","","null","resources/maskTrios/BBA1.jpg","null","",NA,NA,NA,NA,""
"image-keyboard-response",163,166009,"0.0-3.50-2.50","46rr4nzfvnap621",77,"132.csv","","null","resources/images/fishbone.png","null","",NA,NA,NA,NA,""
"image-keyboard-response",164,166262,"0.0-3.51-0.51","46rr4nzfvnap621",77,"132.csv","","251.4000000357628","resources/trios/L2T2A1.jpg","37","restless",0.5,0.5,0.4,0.837307437343966,"false"
"image-keyboard-response",165,166673,"0.0-3.51-1.51","46rr4nzfvnap621",77,"132.csv","","null","resources/maskTrios/L2BB.jpg","null","",NA,NA,NA,NA,""
"image-keyboard-response",166,167885,"0.0-3.51-2.51","46rr4nzfvnap621",77,"132.csv","","null","resources/images/fishbone.png","null","",NA,NA,NA,NA,""
"image-keyboard-response",167,168407,"0.0-3.52-0.52","46rr4nzfvnap621",77,"132.csv","","520.5","resources/trios/L4T1A3.jpg","37","restless",0.5,0.5,0.4,0.809884165070959,"false"
"image-keyboard-response",168,168821,"0.0-3.52-1.52","46rr4nzfvnap621",77,"132.csv","","null","resources/maskTrios/L4BB.jpg","null","",NA,NA,NA,NA,""
"image-keyboard-response",169,170029,"0.0-3.52-2.52","46rr4nzfvnap621",77,"132.csv","","null","resources/images/fishbone.png","null","",NA,NA,NA,NA,""
"image-keyboard-response",170,170350,"0.0-3.53-0.53","46rr4nzfvnap621",77,"132.csv","","319.10000002384186","resources/trios/L2T1A3.jpg","38","restless",0.5,0.5,0.4,0.876098988267326,"false"
"image-keyboard-response",171,170761,"0.0-3.53-1.53","46rr4nzfvnap621",77,"132.csv","","null","resources/maskTrios/BT1B.jpg","null","",NA,NA,NA,NA,""
"image-keyboard-response",172,171973,"0.0-3.53-2.53","46rr4nzfvnap621",77,"132.csv","","null","resources/images/fishbone.png","null","",NA,NA,NA,NA,""
"image-keyboard-response",173,172249,"0.0-3.54-0.54","46rr4nzfvnap621",77,"132.csv","","273.9000000357628","resources/trios/L4T1A3.jpg","39","restless",0.5,0.5,0.4,0.18823594036972,"true"
"image-keyboard-response",174,172661,"0.0-3.54-1.54","46rr4nzfvnap621",77,"132.csv","","null","resources/maskTrios/BBA3.jpg","null","",NA,NA,NA,NA,""
"image-keyboard-response",175,173869,"0.0-3.54-2.54","46rr4nzfvnap621",77,"132.csv","","null","resources/images/coin2.png","null","",NA,NA,NA,NA,""
"image-keyboard-response",176,174298,"0.0-3.55-0.55","46rr4nzfvnap621",77,"132.csv","","427.39999997615814","resources/trios/L4T1A1.jpg","39","restless",0.5,0.5,0.4,0.432278529471052,"false"
"image-keyboard-response",177,174706,"0.0-3.55-1.55","46rr4nzfvnap621",77,"132.csv","","null","resources/maskTrios/BBA1.jpg","null","",NA,NA,NA,NA,""
"image-keyboard-response",178,175917,"0.0-3.55-2.55","46rr4nzfvnap621",77,"132.csv","","null","resources/images/fishbone.png","null","",NA,NA,NA,NA,""
"image-keyboard-response",179,176245,"0.0-3.56-0.56","46rr4nzfvnap621",77,"132.csv","","325.9000000357628","resources/trios/L4T1A3.jpg","37","restless",0.5,0.5,0.4,0.86733197634756,"false"
"image-keyboard-response",180,176653,"0.0-3.56-1.56","46rr4nzfvnap621",77,"132.csv","","null","resources/maskTrios/L4BB.jpg","null","",NA,NA,NA,NA,""
"image-keyboard-response",181,177861,"0.0-3.56-2.56","46rr4nzfvnap621",77,"132.csv","","null","resources/images/fishbone.png","null","",NA,NA,NA,NA,""
"image-keyboard-response",182,178166,"0.0-3.57-0.57","46rr4nzfvnap621",77,"132.csv","","303.30000001192093","resources/trios/L4T1A3.jpg","38","restless",0.5,0.5,0.4,0.317945579975796,"true"
"image-keyboard-response",183,178581,"0.0-3.57-1.57","46rr4nzfvnap621",77,"132.csv","","null","resources/maskTrios/BT1B.jpg","null","",NA,NA,NA,NA,""
"image-keyboard-response",184,179789,"0.0-3.57-2.57","46rr4nzfvnap621",77,"132.csv","","null","resources/images/coin2.png","null","",NA,NA,NA,NA,""
"image-keyboard-response",185,180157,"0.0-3.58-0.58","46rr4nzfvnap621",77,"132.csv","","366.5","resources/trios/L2T2A1.jpg","38","restless",0.5,0.5,0.4,0.00533556045598926,"true"
"image-keyboard-response",186,180565,"0.0-3.58-1.58","46rr4nzfvnap621",77,"132.csv","","null","resources/maskTrios/BT2B.jpg","null","",NA,NA,NA,NA,""
"image-keyboard-response",187,181773,"0.0-3.58-2.58","46rr4nzfvnap621",77,"132.csv","","null","resources/images/coin2.png","null","",NA,NA,NA,NA,""
"image-keyboard-response",188,182192,"0.0-3.59-0.59","46rr4nzfvnap621",77,"132.csv","","416.9000000357628","resources/trios/L4T1A1.jpg","38","restless",0.5,0.5,0.5,0.0846283924240807,"true"
"image-keyboard-response",189,182602,"0.0-3.59-1.59","46rr4nzfvnap621",77,"132.csv","","null","resources/maskTrios/BT1B.jpg","null","",NA,NA,NA,NA,""
"image-keyboard-response",190,183813,"0.0-3.59-2.59","46rr4nzfvnap621",77,"132.csv","","null","resources/images/coin2.png","null","",NA,NA,NA,NA,""
"image-keyboard-response",191,184879,"0.0-3.60-0.60","46rr4nzfvnap621",77,"132.csv","","1064.699999988079","resources/trios/L4T2A3.jpg","39","restless",0.5,0.5,0.5,0.933651909582665,"false"
"image-keyboard-response",192,185293,"0.0-3.60-1.60","46rr4nzfvnap621",77,"132.csv","","null","resources/maskTrios/BBA3.jpg","null","",NA,NA,NA,NA,""
"image-keyboard-response",193,186501,"0.0-3.60-2.60","46rr4nzfvnap621",77,"132.csv","","null","resources/images/fishbone.png","null","",NA,NA,NA,NA,""
"image-keyboard-response",194,186734,"0.0-3.61-0.61","46rr4nzfvnap621",77,"132.csv","","231.79999995231628","resources/trios/L4T1A1.jpg","37","restless",0.5,0.5,0.5,0.534942995385045,"false"
"image-keyboard-response",195,187148,"0.0-3.61-1.61","46rr4nzfvnap621",77,"132.csv","","null","resources/maskTrios/L4BB.jpg","null","",NA,NA,NA,NA,""
"image-keyboard-response",196,188356,"0.0-3.61-2.61","46rr4nzfvnap621",77,"132.csv","","null","resources/images/fishbone.png","null","",NA,NA,NA,NA,""
"image-keyboard-response",197,188568,"0.0-3.62-0.62","46rr4nzfvnap621",77,"132.csv","","209.19999998807907","resources/trios/L4T2A1.jpg","38","restless",0.5,0.5,0.5,0.467957116808605,"true"
"image-keyboard-response",198,188980,"0.0-3.62-1.62","46rr4nzfvnap621",77,"132.csv","","null","resources/maskTrios/BT2B.jpg","null","",NA,NA,NA,NA,""
"image-keyboard-response",199,190188,"0.0-3.62-2.62","46rr4nzfvnap621",77,"132.csv","","null","resources/images/coin2.png","null","",NA,NA,NA,NA,""
"image-keyboard-response",200,190479,"0.0-3.63-0.63","46rr4nzfvnap621",77,"132.csv","","288.5","resources/trios/L2T1A1.jpg","38","restless",0.5,0.5,0.6,0.196433623609066,"true"
"image-keyboard-response",201,190888,"0.0-3.63-1.63","46rr4nzfvnap621",77,"132.csv","","null","resources/maskTrios/BT1B.jpg","null","",NA,NA,NA,NA,""
"image-keyboard-response",202,192100,"0.0-3.63-2.63","46rr4nzfvnap621",77,"132.csv","","null","resources/images/coin2.png","null","",NA,NA,NA,NA,""
"image-keyboard-response",203,192766,"0.0-3.64-0.64","46rr4nzfvnap621",77,"132.csv","","663.8999999761581","resources/trios/L2T2A3.jpg","38","restless",0.5,0.5,0.6,0.523766783852732,"false"
"image-keyboard-response",204,193176,"0.0-3.64-1.64","46rr4nzfvnap621",77,"132.csv","","null","resources/maskTrios/BT2B.jpg","null","",NA,NA,NA,NA,""
"image-keyboard-response",205,194388,"0.0-3.64-2.64","46rr4nzfvnap621",77,"132.csv","","null","resources/images/fishbone.png","null","",NA,NA,NA,NA,""
"image-keyboard-response",206,194635,"0.0-3.65-0.65","46rr4nzfvnap621",77,"132.csv","","244.5","resources/trios/L4T2A3.jpg","37","restless",0.5,0.5,0.6,0.558990478580255,"false"
"image-keyboard-response",207,195044,"0.0-3.65-1.65","46rr4nzfvnap621",77,"132.csv","","null","resources/maskTrios/L4BB.jpg","null","",NA,NA,NA,NA,""
"image-keyboard-response",208,196252,"0.0-3.65-2.65","46rr4nzfvnap621",77,"132.csv","","null","resources/images/fishbone.png","null","",NA,NA,NA,NA,""
"image-keyboard-response",209,196401,"0.0-3.66-0.66","46rr4nzfvnap621",77,"132.csv","","147","resources/trios/L2T1A3.jpg","39","restless",0.5,0.5,0.6,0.616303786261883,"false"
"image-keyboard-response",210,196812,"0.0-3.66-1.66","46rr4nzfvnap621",77,"132.csv","","null","resources/maskTrios/BBA3.jpg","null","",NA,NA,NA,NA,""
"image-keyboard-response",211,198018,"0.0-3.66-2.66","46rr4nzfvnap621",77,"132.csv","","null","resources/images/fishbone.png","null","",NA,NA,NA,NA,""
"image-keyboard-response",212,198329,"0.0-3.67-0.67","46rr4nzfvnap621",77,"132.csv","","308.2999999523163","resources/trios/L4T2A1.jpg","38","restless",0.5,0.5,0.7,0.381310434702396,"true"
"image-keyboard-response",213,198740,"0.0-3.67-1.67","46rr4nzfvnap621",77,"132.csv","","null","resources/maskTrios/BT2B.jpg","null","",NA,NA,NA,NA,""
"image-keyboard-response",214,199944,"0.0-3.67-2.67","46rr4nzfvnap621",77,"132.csv","","null","resources/images/coin2.png","null","",NA,NA,NA,NA,""
"image-keyboard-response",215,200190,"0.0-3.68-0.68","46rr4nzfvnap621",77,"132.csv","","243.5999999642372","resources/trios/L2T2A1.jpg","37","restless",0.5,0.5,0.7,0.137503258076771,"true"
"image-keyboard-response",216,200600,"0.0-3.68-1.68","46rr4nzfvnap621",77,"132.csv","","null","resources/maskTrios/L2BB.jpg","null","",NA,NA,NA,NA,""
"image-keyboard-response",217,201811,"0.0-3.68-2.68","46rr4nzfvnap621",77,"132.csv","","null","resources/images/coin2.png","null","",NA,NA,NA,NA,""
"image-keyboard-response",218,202118,"0.0-3.69-0.69","46rr4nzfvnap621",77,"132.csv","","304.69999998807907","resources/trios/L4T2A3.jpg","37","restless",0.5,0.5,0.7,0.42763797769239,"true"
"image-keyboard-response",219,202529,"0.0-3.69-1.69","46rr4nzfvnap621",77,"132.csv","","null","resources/maskTrios/L4BB.jpg","null","",NA,NA,NA,NA,""
"image-keyboard-response",220,203735,"0.0-3.69-2.69","46rr4nzfvnap621",77,"132.csv","","null","resources/images/coin2.png","null","",NA,NA,NA,NA,""
"image-keyboard-response",221,204107,"0.0-3.70-0.70","46rr4nzfvnap621",77,"132.csv","","369.80000001192093","resources/trios/L4T2A3.jpg","37","restless",0.5,0.5,0.7,0.627221804667478,"false"
"image-keyboard-response",222,204516,"0.0-3.70-1.70","46rr4nzfvnap621",77,"132.csv","","null","resources/maskTrios/L4BB.jpg","null","",NA,NA,NA,NA,""
"image-keyboard-response",223,205723,"0.0-3.70-2.70","46rr4nzfvnap621",77,"132.csv","","null","resources/images/fishbone.png","null","",NA,NA,NA,NA,""
"image-keyboard-response",224,206008,"0.0-3.71-0.71","46rr4nzfvnap621",77,"132.csv","","282.69999998807907","resources/trios/L4T1A1.jpg","38","restless",0.5,0.4,0.8,0.963406350603926,"false"
"image-keyboard-response",225,206420,"0.0-3.71-1.71","46rr4nzfvnap621",77,"132.csv","","null","resources/maskTrios/BT1B.jpg","null","",NA,NA,NA,NA,""
"image-keyboard-response",226,207625,"0.0-3.71-2.71","46rr4nzfvnap621",77,"132.csv","","null","resources/images/fishbone.png","null","",NA,NA,NA,NA,""
"image-keyboard-response",227,207914,"0.0-3.72-0.72","46rr4nzfvnap621",77,"132.csv","","286.69999998807907","resources/trios/L2T2A3.jpg","39","restless",0.5,0.4,0.8,0.987121060168153,"false"
"image-keyboard-response",228,208320,"0.0-3.72-1.72","46rr4nzfvnap621",77,"132.csv","","null","resources/maskTrios/BBA3.jpg","null","",NA,NA,NA,NA,""
"image-keyboard-response",229,209532,"0.0-3.72-2.72","46rr4nzfvnap621",77,"132.csv","","null","resources/images/fishbone.png","null","",NA,NA,NA,NA,""
"image-keyboard-response",230,209835,"0.0-3.73-0.73","46rr4nzfvnap621",77,"132.csv","","301.19999998807907","resources/trios/L2T1A3.jpg","37","restless",0.5,0.5,0.8,0.393858591368661,"true"
"image-keyboard-response",231,210240,"0.0-3.73-1.73","46rr4nzfvnap621",77,"132.csv","","null","resources/maskTrios/L2BB.jpg","null","",NA,NA,NA,NA,""
"image-keyboard-response",232,211447,"0.0-3.73-2.73","46rr4nzfvnap621",77,"132.csv","","null","resources/images/coin2.png","null","",NA,NA,NA,NA,""
"image-keyboard-response",233,211861,"0.0-3.74-0.74","46rr4nzfvnap621",77,"132.csv","","412.0999999642372","resources/trios/L2T1A3.jpg","37","restless",0.5,0.5,0.8,0.348818769023171,"true"
"image-keyboard-response",234,212276,"0.0-3.74-1.74","46rr4nzfvnap621",77,"132.csv","","null","resources/maskTrios/L2BB.jpg","null","",NA,NA,NA,NA,""
"image-keyboard-response",235,213479,"0.0-3.74-2.74","46rr4nzfvnap621",77,"132.csv","","null","resources/images/coin2.png","null","",NA,NA,NA,NA,""
"image-keyboard-response",236,213887,"0.0-3.75-0.75","46rr4nzfvnap621",77,"132.csv","","406.30000001192093","resources/trios/L4T2A1.jpg","37","restless",0.5,0.6,0.8,0.708904485493085,"false"
"image-keyboard-response",237,214300,"0.0-3.75-1.75","46rr4nzfvnap621",77,"132.csv","","null","resources/maskTrios/L4BB.jpg","null","",NA,NA,NA,NA,""
"image-keyboard-response",238,215504,"0.0-3.75-2.75","46rr4nzfvnap621",77,"132.csv","","null","resources/images/fishbone.png","null","",NA,NA,NA,NA,""
"image-keyboard-response",239,215899,"0.0-3.76-0.76","46rr4nzfvnap621",77,"132.csv","","393.19999998807907","resources/trios/L4T1A1.jpg","38","restless",0.5,0.6,0.8,0.0125227932191516,"true"
"image-keyboard-response",240,216308,"0.0-3.76-1.76","46rr4nzfvnap621",77,"132.csv","","null","resources/maskTrios/BT1B.jpg","null","",NA,NA,NA,NA,""
"image-keyboard-response",241,217512,"0.0-3.76-2.76","46rr4nzfvnap621",77,"132.csv","","null","resources/images/coin2.png","null","",NA,NA,NA,NA,""
"image-keyboard-response",242,218074,"0.0-3.77-0.77","46rr4nzfvnap621",77,"132.csv","","560.1000000238419","resources/trios/L4T2A1.jpg","38","restless",0.5,0.6,0.8,0.400883350618947,"true"
"image-keyboard-response",243,218482,"0.0-3.77-1.77","46rr4nzfvnap621",77,"132.csv","","null","resources/maskTrios/BT2B.jpg","null","",NA,NA,NA,NA,""
"image-keyboard-response",244,219688,"0.0-3.77-2.77","46rr4nzfvnap621",77,"132.csv","","null","resources/images/coin2.png","null","",NA,NA,NA,NA,""
"image-keyboard-response",245,220213,"0.0-3.78-0.78","46rr4nzfvnap621",77,"132.csv","","523","resources/trios/L4T1A1.jpg","39","restless",0.5,0.6,0.8,0.307171258078923,"true"
"image-keyboard-response",246,220628,"0.0-3.78-1.78","46rr4nzfvnap621",77,"132.csv","","null","resources/maskTrios/BBA1.jpg","null","",NA,NA,NA,NA,""
"image-keyboard-response",247,221832,"0.0-3.78-2.78","46rr4nzfvnap621",77,"132.csv","","null","resources/images/coin2.png","null","",NA,NA,NA,NA,""
"image-keyboard-response",248,222109,"0.0-3.79-0.79","46rr4nzfvnap621",77,"132.csv","","275.19999998807907","resources/trios/L2T2A3.jpg","39","restless",0.5,0.6,0.8,0.582223695398493,"true"
"image-keyboard-response",249,222512,"0.0-3.79-1.79","46rr4nzfvnap621",77,"132.csv","","null","resources/maskTrios/BBA3.jpg","null","",NA,NA,NA,NA,""
"image-keyboard-response",250,223720,"0.0-3.79-2.79","46rr4nzfvnap621",77,"132.csv","","null","resources/images/coin2.png","null","",NA,NA,NA,NA,""
"image-keyboard-response",251,224151,"0.0-3.80-0.80","46rr4nzfvnap621",77,"132.csv","","428.89999997615814","resources/trios/L4T1A3.jpg","37","restless",0.5,0.6,0.7,0.401520808891716,"true"
"image-keyboard-response",252,224564,"0.0-3.80-1.80","46rr4nzfvnap621",77,"132.csv","","null","resources/maskTrios/L4BB.jpg","null","",NA,NA,NA,NA,""
"image-keyboard-response",253,225772,"0.0-3.80-2.80","46rr4nzfvnap621",77,"132.csv","","null","resources/images/coin2.png","null","",NA,NA,NA,NA,""
"image-keyboard-response",254,226066,"0.0-3.81-0.81","46rr4nzfvnap621",77,"132.csv","","292.60000002384186","resources/trios/L2T1A1.jpg","37","restless",0.5,0.6,0.7,0.666317607905714,"false"
"image-keyboard-response",255,226472,"0.0-3.81-1.81","46rr4nzfvnap621",77,"132.csv","","null","resources/maskTrios/L2BB.jpg","null","",NA,NA,NA,NA,""
"image-keyboard-response",256,227680,"0.0-3.81-2.81","46rr4nzfvnap621",77,"132.csv","","null","resources/images/fishbone.png","null","",NA,NA,NA,NA,""
"image-keyboard-response",257,227972,"0.0-3.82-0.82","46rr4nzfvnap621",77,"132.csv","","290.5999999642372","resources/trios/L4T2A1.jpg","38","restless",0.5,0.6,0.7,0.586853037195988,"true"
"image-keyboard-response",258,228376,"0.0-3.82-1.82","46rr4nzfvnap621",77,"132.csv","","null","resources/maskTrios/BT2B.jpg","null","",NA,NA,NA,NA,""
"image-keyboard-response",259,229584,"0.0-3.82-2.82","46rr4nzfvnap621",77,"132.csv","","null","resources/images/coin2.png","null","",NA,NA,NA,NA,""
"image-keyboard-response",260,229924,"0.0-3.83-0.83","46rr4nzfvnap621",77,"132.csv","","338.89999997615814","resources/trios/L4T2A3.jpg","38","restless",0.5,0.6,0.7,0.481762993213466,"true"
"image-keyboard-response",261,230331,"0.0-3.83-1.83","46rr4nzfvnap621",77,"132.csv","","null","resources/maskTrios/BT2B.jpg","null","",NA,NA,NA,NA,""
"image-keyboard-response",262,231539,"0.0-3.83-2.83","46rr4nzfvnap621",77,"132.csv","","null","resources/images/coin2.png","null","",NA,NA,NA,NA,""
"image-keyboard-response",263,231851,"0.0-3.84-0.84","46rr4nzfvnap621",77,"132.csv","","309.10000002384186","resources/trios/L4T2A1.jpg","39","restless",0.5,0.6,0.7,0.876471520860571,"false"
"image-keyboard-response",264,232259,"0.0-3.84-1.84","46rr4nzfvnap621",77,"132.csv","","null","resources/maskTrios/BBA1.jpg","null","",NA,NA,NA,NA,""
"image-keyboard-response",265,233467,"0.0-3.84-2.84","46rr4nzfvnap621",77,"132.csv","","null","resources/images/fishbone.png","null","",NA,NA,NA,NA,""
"image-keyboard-response",266,233746,"0.0-3.85-0.85","46rr4nzfvnap621",77,"132.csv","","276.0999999642372","resources/trios/L4T1A1.jpg","38","restless",0.5,0.6,0.7,0.714395898417972,"false"
"image-keyboard-response",267,234151,"0.0-3.85-1.85","46rr4nzfvnap621",77,"132.csv","","null","resources/maskTrios/BT1B.jpg","null","",NA,NA,NA,NA,""
"image-keyboard-response",268,235359,"0.0-3.85-2.85","46rr4nzfvnap621",77,"132.csv","","null","resources/images/fishbone.png","null","",NA,NA,NA,NA,""
"image-keyboard-response",269,235409,"0.0-3.86-0.86","46rr4nzfvnap621",77,"132.csv","","47.40000003576279","resources/trios/L2T2A3.jpg","37","restless",0.5,0.6,0.7,0.635318940707056,"false"
"image-keyboard-response",270,235819,"0.0-3.86-1.86","46rr4nzfvnap621",77,"132.csv","","null","resources/maskTrios/L2BB.jpg","null","",NA,NA,NA,NA,""
"image-keyboard-response",271,237027,"0.0-3.86-2.86","46rr4nzfvnap621",77,"132.csv","","null","resources/images/fishbone.png","null","",NA,NA,NA,NA,""
"image-keyboard-response",272,237116,"0.0-3.87-0.87","46rr4nzfvnap621",77,"132.csv","","86.80000001192093","resources/trios/L4T2A1.jpg","39","restless",0.5,0.6,0.7,0.729853173255888,"false"
"image-keyboard-response",273,237523,"0.0-3.87-1.87","46rr4nzfvnap621",77,"132.csv","","null","resources/maskTrios/BBA1.jpg","null","",NA,NA,NA,NA,""
"image-keyboard-response",274,238731,"0.0-3.87-2.87","46rr4nzfvnap621",77,"132.csv","","null","resources/images/fishbone.png","null","",NA,NA,NA,NA,""
"image-keyboard-response",275,238998,"0.0-3.88-0.88","46rr4nzfvnap621",77,"132.csv","","265.19999998807907","resources/trios/L2T1A1.jpg","38","restless",0.5,0.6,0.7,0.345178134133859,"true"
"image-keyboard-response",276,239411,"0.0-3.88-1.88","46rr4nzfvnap621",77,"132.csv","","null","resources/maskTrios/BT1B.jpg","null","",NA,NA,NA,NA,""
"image-keyboard-response",277,240619,"0.0-3.88-2.88","46rr4nzfvnap621",77,"132.csv","","null","resources/images/coin2.png","null","",NA,NA,NA,NA,""
"image-keyboard-response",278,240709,"0.0-3.89-0.89","46rr4nzfvnap621",77,"132.csv","","87.40000003576279","resources/trios/L2T1A3.jpg","38","restless",0.5,0.6,0.7,0.190144269733599,"true"
"image-keyboard-response",279,241123,"0.0-3.89-1.89","46rr4nzfvnap621",77,"132.csv","","null","resources/maskTrios/BT1B.jpg","null","",NA,NA,NA,NA,""
"image-keyboard-response",280,242328,"0.0-3.89-2.89","46rr4nzfvnap621",77,"132.csv","","null","resources/images/coin2.png","null","",NA,NA,NA,NA,""
"image-keyboard-response",281,242490,"0.0-3.90-0.90","46rr4nzfvnap621",77,"132.csv","","160.19999998807907","resources/trios/L4T2A1.jpg","38","restless",0.4,0.6,0.7,0.229526421067489,"true"
"image-keyboard-response",282,242895,"0.0-3.90-1.90","46rr4nzfvnap621",77,"132.csv","","null","resources/maskTrios/BT2B.jpg","null","",NA,NA,NA,NA,""
"image-keyboard-response",283,244105,"0.0-3.90-2.90","46rr4nzfvnap621",77,"132.csv","","null","resources/images/coin2.png","null","",NA,NA,NA,NA,""
"image-keyboard-response",284,244614,"0.0-3.91-0.91","46rr4nzfvnap621",77,"132.csv","","506.5","resources/trios/L4T2A1.jpg","38","restless",0.4,0.5,0.7,0.0302088323956937,"true"
"image-keyboard-response",285,245024,"0.0-3.91-1.91","46rr4nzfvnap621",77,"132.csv","","null","resources/maskTrios/BT2B.jpg","null","",NA,NA,NA,NA,""
"image-keyboard-response",286,246235,"0.0-3.91-2.91","46rr4nzfvnap621",77,"132.csv","","null","resources/images/coin2.png","null","",NA,NA,NA,NA,""
"image-keyboard-response",287,246717,"0.0-3.92-0.92","46rr4nzfvnap621",77,"132.csv","","480","resources/trios/L4T2A3.jpg","38","restless",0.4,0.5,0.7,0.400653049835764,"true"
"image-keyboard-response",288,247127,"0.0-3.92-1.92","46rr4nzfvnap621",77,"132.csv","","null","resources/maskTrios/BT2B.jpg","null","",NA,NA,NA,NA,""
"image-keyboard-response",289,248339,"0.0-3.92-2.92","46rr4nzfvnap621",77,"132.csv","","null","resources/images/coin2.png","null","",NA,NA,NA,NA,""
"image-keyboard-response",290,248999,"0.0-3.93-0.93","46rr4nzfvnap621",77,"132.csv","","657.6999999880791","resources/trios/L4T1A1.jpg","37","restless",0.4,0.5,0.7,0.342539231226164,"true"
"image-keyboard-response",291,249411,"0.0-3.93-1.93","46rr4nzfvnap621",77,"132.csv","","null","resources/maskTrios/L4BB.jpg","null","",NA,NA,NA,NA,""
"image-keyboard-response",292,250619,"0.0-3.93-2.93","46rr4nzfvnap621",77,"132.csv","","null","resources/images/coin2.png","null","",NA,NA,NA,NA,""
"image-keyboard-response",293,251530,"0.0-3.94-0.94","46rr4nzfvnap621",77,"132.csv","","908.8999999761581","resources/trios/L4T1A1.jpg","37","restless",0.4,0.5,0.7,0.685386600636208,"false"
"image-keyboard-response",294,251939,"0.0-3.94-1.94","46rr4nzfvnap621",77,"132.csv","","null","resources/maskTrios/L4BB.jpg","null","",NA,NA,NA,NA,""
"image-keyboard-response",295,253144,"0.0-3.94-2.94","46rr4nzfvnap621",77,"132.csv","","null","resources/images/fishbone.png","null","",NA,NA,NA,NA,""
"image-keyboard-response",296,253494,"0.0-3.95-0.95","46rr4nzfvnap621",77,"132.csv","","347.89999997615814","resources/trios/L2T1A3.jpg","39","restless",0.4,0.5,0.7,0.933493436732505,"false"
"image-keyboard-response",297,253907,"0.0-3.95-1.95","46rr4nzfvnap621",77,"132.csv","","null","resources/maskTrios/BBA3.jpg","null","",NA,NA,NA,NA,""
"image-keyboard-response",298,255115,"0.0-3.95-2.95","46rr4nzfvnap621",77,"132.csv","","null","resources/images/fishbone.png","null","",NA,NA,NA,NA,""
"image-keyboard-response",299,255309,"0.0-3.96-0.96","46rr4nzfvnap621",77,"132.csv","","191.69999998807907","resources/trios/L2T1A3.jpg","38","restless",0.4,0.5,0.7,0.825886839363377,"false"
"image-keyboard-response",300,255723,"0.0-3.96-1.96","46rr4nzfvnap621",77,"132.csv","","null","resources/maskTrios/BT1B.jpg","null","",NA,NA,NA,NA,""
"image-keyboard-response",301,256927,"0.0-3.96-2.96","46rr4nzfvnap621",77,"132.csv","","null","resources/images/fishbone.png","null","",NA,NA,NA,NA,""
"image-keyboard-response",302,257228,"0.0-3.97-0.97","46rr4nzfvnap621",77,"132.csv","","298.69999998807907","resources/trios/L2T1A1.jpg","37","restless",0.4,0.5,0.7,0.460797710390255,"false"
"image-keyboard-response",303,257631,"0.0-3.97-1.97","46rr4nzfvnap621",77,"132.csv","","null","resources/maskTrios/L2BB.jpg","null","",NA,NA,NA,NA,""
"image-keyboard-response",304,258843,"0.0-3.97-2.97","46rr4nzfvnap621",77,"132.csv","","null","resources/images/fishbone.png","null","",NA,NA,NA,NA,""
"image-keyboard-response",305,259081,"0.0-3.98-0.98","46rr4nzfvnap621",77,"132.csv","","236.69999998807907","resources/trios/L4T2A3.jpg","39","restless",0.4,0.5,0.7,0.786398737237554,"false"
"image-keyboard-response",306,259487,"0.0-3.98-1.98","46rr4nzfvnap621",77,"132.csv","","null","resources/maskTrios/BBA3.jpg","null","",NA,NA,NA,NA,""
"image-keyboard-response",307,260697,"0.0-3.98-2.98","46rr4nzfvnap621",77,"132.csv","","null","resources/images/fishbone.png","null","",NA,NA,NA,NA,""
"image-keyboard-response",308,261003,"0.0-3.99-0.99","46rr4nzfvnap621",77,"132.csv","","303.69999998807907","resources/trios/L4T2A1.jpg","37","restless",0.4,0.5,0.7,0.222522599233066,"true"
"image-keyboard-response",309,261411,"0.0-3.99-1.99","46rr4nzfvnap621",77,"132.csv","","null","resources/maskTrios/L4BB.jpg","null","",NA,NA,NA,NA,""
"image-keyboard-response",310,262619,"0.0-3.99-2.99","46rr4nzfvnap621",77,"132.csv","","null","resources/images/coin2.png","null","",NA,NA,NA,NA,""
"image-keyboard-response",311,262890,"0.0-3.100-0.100","46rr4nzfvnap621",77,"132.csv","","269.60000002384186","resources/trios/L2T1A1.jpg","37","restless",0.4,0.4,0.6,0.931591765588128,"false"
"image-keyboard-response",312,263294,"0.0-3.100-1.100","46rr4nzfvnap621",77,"132.csv","","null","resources/maskTrios/L2BB.jpg","null","",NA,NA,NA,NA,""
"image-keyboard-response",313,264505,"0.0-3.100-2.100","46rr4nzfvnap621",77,"132.csv","","null","resources/images/fishbone.png","null","",NA,NA,NA,NA,""
"image-keyboard-response",314,264805,"0.0-3.101-0.101","46rr4nzfvnap621",77,"132.csv","","297.30000001192093","resources/trios/L2T2A1.jpg","38","restless",0.5,0.4,0.6,0.117364323080785,"true"
"image-keyboard-response",315,265219,"0.0-3.101-1.101","46rr4nzfvnap621",77,"132.csv","","null","resources/maskTrios/BT2B.jpg","null","",NA,NA,NA,NA,""
"image-keyboard-response",316,266427,"0.0-3.101-2.101","46rr4nzfvnap621",77,"132.csv","","null","resources/images/coin2.png","null","",NA,NA,NA,NA,""
"image-keyboard-response",317,266973,"0.0-3.102-0.102","46rr4nzfvnap621",77,"132.csv","","544.6999999880791","resources/trios/L4T1A1.jpg","38","restless",0.6,0.4,0.6,0.00793140288594407,"true"
"image-keyboard-response",318,267387,"0.0-3.102-1.102","46rr4nzfvnap621",77,"132.csv","","null","resources/maskTrios/BT1B.jpg","null","",NA,NA,NA,NA,""
"image-keyboard-response",319,268595,"0.0-3.102-2.102","46rr4nzfvnap621",77,"132.csv","","null","resources/images/coin2.png","null","",NA,NA,NA,NA,""
"image-keyboard-response",320,269074,"0.0-3.103-0.103","46rr4nzfvnap621",77,"132.csv","","477.39999997615814","resources/trios/L4T2A3.jpg","38","restless",0.6,0.4,0.5,0.665002902534411,"false"
"image-keyboard-response",321,269483,"0.0-3.103-1.103","46rr4nzfvnap621",77,"132.csv","","null","resources/maskTrios/BT2B.jpg","null","",NA,NA,NA,NA,""
"image-keyboard-response",322,270691,"0.0-3.103-2.103","46rr4nzfvnap621",77,"132.csv","","null","resources/images/fishbone.png","null","",NA,NA,NA,NA,""
"image-keyboard-response",323,271047,"0.0-3.104-0.104","46rr4nzfvnap621",77,"132.csv","","354","resources/trios/L4T2A1.jpg","39","restless",0.5,0.3,0.5,0.544247274019748,"false"
"image-keyboard-response",324,271458,"0.0-3.104-1.104","46rr4nzfvnap621",77,"132.csv","","null","resources/maskTrios/BBA1.jpg","null","",NA,NA,NA,NA,""
"image-keyboard-response",325,272662,"0.0-3.104-2.104","46rr4nzfvnap621",77,"132.csv","","null","resources/images/fishbone.png","null","",NA,NA,NA,NA,""
"image-keyboard-response",326,274459,"0.0-3.105-0.105","46rr4nzfvnap621",77,"132.csv","","1794.4000000357628","resources/trios/L2T2A1.jpg","37","restless",0.5,0.2,0.5,0.368165547591157,"true"
"image-keyboard-response",327,274866,"0.0-3.105-1.105","46rr4nzfvnap621",77,"132.csv","","null","resources/maskTrios/L2BB.jpg","null","",NA,NA,NA,NA,""
"image-keyboard-response",328,276070,"0.0-3.105-2.105","46rr4nzfvnap621",77,"132.csv","","null","resources/images/coin2.png","null","",NA,NA,NA,NA,""
"image-keyboard-response",329,276556,"0.0-3.106-0.106","46rr4nzfvnap621",77,"132.csv","","483.69999998807907","resources/trios/L4T1A1.jpg","37","restless",0.4,0.2,0.5,0.421684901384379,"false"
"image-keyboard-response",330,276970,"0.0-3.106-1.106","46rr4nzfvnap621",77,"132.csv","","null","resources/maskTrios/L4BB.jpg","null","",NA,NA,NA,NA,""
"image-keyboard-response",331,278174,"0.0-3.106-2.106","46rr4nzfvnap621",77,"132.csv","","null","resources/images/fishbone.png","null","",NA,NA,NA,NA,""
"image-keyboard-response",332,278246,"0.0-3.107-0.107","46rr4nzfvnap621",77,"132.csv","","69.59999996423721","resources/trios/L4T2A1.jpg","38","restless",0.4,0.2,0.5,0.582904678792664,"false"
"image-keyboard-response",333,278658,"0.0-3.107-1.107","46rr4nzfvnap621",77,"132.csv","","null","resources/maskTrios/BT2B.jpg","null","",NA,NA,NA,NA,""
"image-keyboard-response",334,279862,"0.0-3.107-2.107","46rr4nzfvnap621",77,"132.csv","","null","resources/images/fishbone.png","null","",NA,NA,NA,NA,""
"image-keyboard-response",335,280189,"0.0-3.108-0.108","46rr4nzfvnap621",77,"132.csv","","325.60000002384186","resources/trios/L2T2A3.jpg","37","restless",0.4,0.2,0.5,0.0493792310548431,"true"
"image-keyboard-response",336,280602,"0.0-3.108-1.108","46rr4nzfvnap621",77,"132.csv","","null","resources/maskTrios/L2BB.jpg","null","",NA,NA,NA,NA,""
"image-keyboard-response",337,281810,"0.0-3.108-2.108","46rr4nzfvnap621",77,"132.csv","","null","resources/images/coin2.png","null","",NA,NA,NA,NA,""
"image-keyboard-response",338,282091,"0.0-3.109-0.109","46rr4nzfvnap621",77,"132.csv","","278.30000001192093","resources/trios/L4T1A3.jpg","37","restless",0.5,0.2,0.5,0.515559177586257,"false"
"image-keyboard-response",339,282498,"0.0-3.109-1.109","46rr4nzfvnap621",77,"132.csv","","null","resources/maskTrios/L4BB.jpg","null","",NA,NA,NA,NA,""
"image-keyboard-response",340,283706,"0.0-3.109-2.109","46rr4nzfvnap621",77,"132.csv","","null","resources/images/fishbone.png","null","",NA,NA,NA,NA,""
"image-keyboard-response",341,284004,"0.0-3.110-0.110","46rr4nzfvnap621",77,"132.csv","","295.39999997615814","resources/trios/L2T2A3.jpg","38","restless",0.5,0.3,0.5,0.644088949138173,"false"
"image-keyboard-response",342,284418,"0.0-3.110-1.110","46rr4nzfvnap621",77,"132.csv","","null","resources/maskTrios/BT2B.jpg","null","",NA,NA,NA,NA,""
"image-keyboard-response",343,285623,"0.0-3.110-2.110","46rr4nzfvnap621",77,"132.csv","","null","resources/images/fishbone.png","null","",NA,NA,NA,NA,""
"image-keyboard-response",344,285909,"0.0-3.111-0.111","46rr4nzfvnap621",77,"132.csv","","284.80000001192093","resources/trios/L4T2A3.jpg","39","restless",0.5,0.3,0.5,0.87685505430911,"false"
"image-keyboard-response",345,286318,"0.0-3.111-1.111","46rr4nzfvnap621",77,"132.csv","","null","resources/maskTrios/BBA3.jpg","null","",NA,NA,NA,NA,""
"image-keyboard-response",346,287530,"0.0-3.111-2.111","46rr4nzfvnap621",77,"132.csv","","null","resources/images/fishbone.png","null","",NA,NA,NA,NA,""
"image-keyboard-response",347,287567,"0.0-3.112-0.112","46rr4nzfvnap621",77,"132.csv","","34.80000001192093","resources/trios/L4T2A1.jpg","38","restless",0.5,0.2,0.5,0.930776860855887,"false"
"image-keyboard-response",348,287978,"0.0-3.112-1.112","46rr4nzfvnap621",77,"132.csv","","null","resources/maskTrios/BT2B.jpg","null","",NA,NA,NA,NA,""
"image-keyboard-response",349,289182,"0.0-3.112-2.112","46rr4nzfvnap621",77,"132.csv","","null","resources/images/fishbone.png","null","",NA,NA,NA,NA,""
"image-keyboard-response",350,289187,"0.0-3.113-0.113","46rr4nzfvnap621",77,"132.csv","","3.5","resources/trios/L4T1A1.jpg","37","restless",0.5,0.3,0.4,0.694235108911212,"false"
"image-keyboard-response",351,289594,"0.0-3.113-1.113","46rr4nzfvnap621",77,"132.csv","","null","resources/maskTrios/L4BB.jpg","null","",NA,NA,NA,NA,""
"image-keyboard-response",352,290798,"0.0-3.113-2.113","46rr4nzfvnap621",77,"132.csv","","null","resources/images/fishbone.png","null","",NA,NA,NA,NA,""
"image-keyboard-response",353,290820,"0.0-3.114-0.114","46rr4nzfvnap621",77,"132.csv","","20.19999998807907","resources/trios/L4T2A3.jpg","39","restless",0.5,0.3,0.4,0.276109571602223,"true"
"image-keyboard-response",354,291230,"0.0-3.114-1.114","46rr4nzfvnap621",77,"132.csv","","null","resources/maskTrios/BBA3.jpg","null","",NA,NA,NA,NA,""
"image-keyboard-response",355,292442,"0.0-3.114-2.114","46rr4nzfvnap621",77,"132.csv","","null","resources/images/coin2.png","null","",NA,NA,NA,NA,""
"image-keyboard-response",356,292668,"0.0-3.115-0.115","46rr4nzfvnap621",77,"132.csv","","224.29999995231628","resources/trios/L4T1A1.jpg","38","restless",0.5,0.3,0.4,0.309650587709826,"false"
"image-keyboard-response",357,293080,"0.0-3.115-1.115","46rr4nzfvnap621",77,"132.csv","","null","resources/maskTrios/BT1B.jpg","null","",NA,NA,NA,NA,""
"image-keyboard-response",358,294290,"0.0-3.115-2.115","46rr4nzfvnap621",77,"132.csv","","null","resources/images/fishbone.png","null","",NA,NA,NA,NA,""
"image-keyboard-response",359,294461,"0.0-3.116-0.116","46rr4nzfvnap621",77,"132.csv","","169.30000001192093","resources/trios/L4T1A1.jpg","37","restless",0.5,0.3,0.4,0.059976524806052,"true"
"image-keyboard-response",360,294873,"0.0-3.116-1.116","46rr4nzfvnap621",77,"132.csv","","null","resources/maskTrios/L4BB.jpg","null","",NA,NA,NA,NA,""
"image-keyboard-response",361,296082,"0.0-3.116-2.116","46rr4nzfvnap621",77,"132.csv","","null","resources/images/coin2.png","null","",NA,NA,NA,NA,""
"image-keyboard-response",362,296304,"0.0-3.117-0.117","46rr4nzfvnap621",77,"132.csv","","220","resources/trios/L2T2A3.jpg","37","restless",0.4,0.3,0.4,0.663061992283229,"false"
"image-keyboard-response",363,296714,"0.0-3.117-1.117","46rr4nzfvnap621",77,"132.csv","","null","resources/maskTrios/L2BB.jpg","null","",NA,NA,NA,NA,""
"image-keyboard-response",364,297922,"0.0-3.117-2.117","46rr4nzfvnap621",77,"132.csv","","null","resources/images/fishbone.png","null","",NA,NA,NA,NA,""
"image-keyboard-response",365,298178,"0.0-3.118-0.118","46rr4nzfvnap621",77,"132.csv","","255.39999997615814","resources/trios/L2T2A3.jpg","39","restless",0.4,0.3,0.4,0.68630034273116,"false"
"image-keyboard-response",366,298586,"0.0-3.118-1.118","46rr4nzfvnap621",77,"132.csv","","null","resources/maskTrios/BBA3.jpg","null","",NA,NA,NA,NA,""
"image-keyboard-response",367,299794,"0.0-3.118-2.118","46rr4nzfvnap621",77,"132.csv","","null","resources/images/fishbone.png","null","",NA,NA,NA,NA,""
"image-keyboard-response",368,300099,"0.0-3.119-0.119","46rr4nzfvnap621",77,"132.csv","","303","resources/trios/L2T1A1.jpg","38","restless",0.4,0.3,0.4,0.897632077756366,"false"
"image-keyboard-response",369,300514,"0.0-3.119-1.119","46rr4nzfvnap621",77,"132.csv","","null","resources/maskTrios/BT1B.jpg","null","",NA,NA,NA,NA,""
"image-keyboard-response",370,301718,"0.0-3.119-2.119","46rr4nzfvnap621",77,"132.csv","","null","resources/images/fishbone.png","null","",NA,NA,NA,NA,""
"image-keyboard-response",371,302047,"0.0-3.120-0.120","46rr4nzfvnap621",77,"132.csv","","327.19999998807907","resources/trios/L4T1A3.jpg","37","restless",0.5,0.3,0.4,0.0174631710798792,"true"
"image-keyboard-response",372,302454,"0.0-3.120-1.120","46rr4nzfvnap621",77,"132.csv","","null","resources/maskTrios/L4BB.jpg","null","",NA,NA,NA,NA,""
"image-keyboard-response",373,303666,"0.0-3.120-2.120","46rr4nzfvnap621",77,"132.csv","","null","resources/images/coin2.png","null","",NA,NA,NA,NA,""
"image-keyboard-response",374,303933,"0.0-3.121-0.121","46rr4nzfvnap621",77,"132.csv","","265.19999998807907","resources/trios/L4T1A3.jpg","37","restless",0.5,0.3,0.4,0.527312736843685,"false"
"image-keyboard-response",375,304345,"0.0-3.121-1.121","46rr4nzfvnap621",77,"132.csv","","null","resources/maskTrios/L4BB.jpg","null","",NA,NA,NA,NA,""
"image-keyboard-response",376,305554,"0.0-3.121-2.121","46rr4nzfvnap621",77,"132.csv","","null","resources/images/fishbone.png","null","",NA,NA,NA,NA,""
"image-keyboard-response",377,305829,"0.0-3.122-0.122","46rr4nzfvnap621",77,"132.csv","","273.2999999523163","resources/trios/L4T1A3.jpg","39","restless",0.5,0.3,0.4,0.337202739810198,"true"
"image-keyboard-response",378,306242,"0.0-3.122-1.122","46rr4nzfvnap621",77,"132.csv","","null","resources/maskTrios/BBA3.jpg","null","",NA,NA,NA,NA,""
"image-keyboard-response",379,307446,"0.0-3.122-2.122","46rr4nzfvnap621",77,"132.csv","","null","resources/images/coin2.png","null","",NA,NA,NA,NA,""
"image-keyboard-response",380,307527,"0.0-3.123-0.123","46rr4nzfvnap621",77,"132.csv","","79.60000002384186","resources/trios/L2T2A3.jpg","39","restless",0.5,0.3,0.4,0.92075623960788,"false"
"image-keyboard-response",381,307938,"0.0-3.123-1.123","46rr4nzfvnap621",77,"132.csv","","null","resources/maskTrios/BBA3.jpg","null","",NA,NA,NA,NA,""
"image-keyboard-response",382,309141,"0.0-3.123-2.123","46rr4nzfvnap621",77,"132.csv","","null","resources/images/fishbone.png","null","",NA,NA,NA,NA,""
"image-keyboard-response",383,309175,"0.0-3.124-0.124","46rr4nzfvnap621",77,"132.csv","","31","resources/trios/L4T1A3.jpg","38","restless",0.5,0.2,0.4,0.278427357351992,"false"
"image-keyboard-response",384,309586,"0.0-3.124-1.124","46rr4nzfvnap621",77,"132.csv","","null","resources/maskTrios/BT1B.jpg","null","",NA,NA,NA,NA,""
"image-keyboard-response",385,310791,"0.0-3.124-2.124","46rr4nzfvnap621",77,"132.csv","","null","resources/images/fishbone.png","null","",NA,NA,NA,NA,""
"image-keyboard-response",386,310874,"0.0-3.125-0.125","46rr4nzfvnap621",77,"132.csv","","80.90000003576279","resources/trios/L2T1A3.jpg","37","restless",0.5,0.2,0.4,0.490157354582513,"true"
"image-keyboard-response",387,311281,"0.0-3.125-1.125","46rr4nzfvnap621",77,"132.csv","","null","resources/maskTrios/L2BB.jpg","null","",NA,NA,NA,NA,""
"image-keyboard-response",388,312489,"0.0-3.125-2.125","46rr4nzfvnap621",77,"132.csv","","null","resources/images/coin2.png","null","",NA,NA,NA,NA,""
"image-keyboard-response",389,312727,"0.0-3.126-0.126","46rr4nzfvnap621",77,"132.csv","","235.69999998807907","resources/trios/L4T1A1.jpg","37","restless",0.6,0.2,0.4,0.141184715744856,"true"
"image-keyboard-response",390,313134,"0.0-3.126-1.126","46rr4nzfvnap621",77,"132.csv","","null","resources/maskTrios/L4BB.jpg","null","",NA,NA,NA,NA,""
"image-keyboard-response",391,314345,"0.0-3.126-2.126","46rr4nzfvnap621",77,"132.csv","","null","resources/images/coin2.png","null","",NA,NA,NA,NA,""
"image-keyboard-response",392,314665,"0.0-3.127-0.127","46rr4nzfvnap621",77,"132.csv","","316.89999997615814","resources/trios/L2T2A1.jpg","37","restless",0.6,0.2,0.4,0.452158563318229,"true"
"image-keyboard-response",393,315073,"0.0-3.127-1.127","46rr4nzfvnap621",77,"132.csv","","null","resources/maskTrios/L2BB.jpg","null","",NA,NA,NA,NA,""
"image-keyboard-response",394,316278,"0.0-3.127-2.127","46rr4nzfvnap621",77,"132.csv","","null","resources/images/coin2.png","null","",NA,NA,NA,NA,""
"image-keyboard-response",395,316548,"0.0-3.128-0.128","46rr4nzfvnap621",77,"132.csv","","267.89999997615814","resources/trios/L2T1A3.jpg","37","restless",0.6,0.2,0.4,0.903065712628914,"false"
"image-keyboard-response",396,316959,"0.0-3.128-1.128","46rr4nzfvnap621",77,"132.csv","","null","resources/maskTrios/L2BB.jpg","null","",NA,NA,NA,NA,""
"image-keyboard-response",397,318165,"0.0-3.128-2.128","46rr4nzfvnap621",77,"132.csv","","null","resources/images/fishbone.png","null","",NA,NA,NA,NA,""
"image-keyboard-response",398,318446,"0.0-3.129-0.129","46rr4nzfvnap621",77,"132.csv","","278.30000001192093","resources/trios/L2T1A1.jpg","38","restless",0.5,0.2,0.4,0.737978780176971,"false"
"image-keyboard-response",399,318857,"0.0-3.129-1.129","46rr4nzfvnap621",77,"132.csv","","null","resources/maskTrios/BT1B.jpg","null","",NA,NA,NA,NA,""
"image-keyboard-response",400,320063,"0.0-3.129-2.129","46rr4nzfvnap621",77,"132.csv","","null","resources/images/fishbone.png","null","",NA,NA,NA,NA,""
"image-keyboard-response",401,320587,"0.0-3.130-0.130","46rr4nzfvnap621",77,"132.csv","","522.7999999523163","resources/trios/L4T1A3.jpg","38","restless",0.5,0.2,0.4,0.72770111112094,"false"
"image-keyboard-response",402,321001,"0.0-3.130-1.130","46rr4nzfvnap621",77,"132.csv","","null","resources/maskTrios/BT1B.jpg","null","",NA,NA,NA,NA,""
"image-keyboard-response",403,322209,"0.0-3.130-2.130","46rr4nzfvnap621",77,"132.csv","","null","resources/images/fishbone.png","null","",NA,NA,NA,NA,""
"image-keyboard-response",404,322663,"0.0-3.131-0.131","46rr4nzfvnap621",77,"132.csv","","451.19999998807907","resources/trios/L2T1A1.jpg","39","restless",0.5,0.2,0.4,0.320146335012835,"true"
"image-keyboard-response",405,323073,"0.0-3.131-1.131","46rr4nzfvnap621",77,"132.csv","","null","resources/maskTrios/BBA1.jpg","null","",NA,NA,NA,NA,""
"image-keyboard-response",406,324281,"0.0-3.131-2.131","46rr4nzfvnap621",77,"132.csv","","null","resources/images/coin2.png","null","",NA,NA,NA,NA,""
"image-keyboard-response",407,324428,"0.0-3.132-0.132","46rr4nzfvnap621",77,"132.csv","","145.19999998807907","resources/trios/L2T1A3.jpg","39","restless",0.5,0.2,0.4,0.261412955056196,"true"
"image-keyboard-response",408,324837,"0.0-3.132-1.132","46rr4nzfvnap621",77,"132.csv","","null","resources/maskTrios/BBA3.jpg","null","",NA,NA,NA,NA,""
"image-keyboard-response",409,326049,"0.0-3.132-2.132","46rr4nzfvnap621",77,"132.csv","","null","resources/images/coin2.png","null","",NA,NA,NA,NA,""
"image-keyboard-response",410,326382,"0.0-3.133-0.133","46rr4nzfvnap621",77,"132.csv","","332.30000001192093","resources/trios/L4T1A3.jpg","39","restless",0.6,0.2,0.4,0.452788886013845,"false"
"image-keyboard-response",411,326789,"0.0-3.133-1.133","46rr4nzfvnap621",77,"132.csv","","null","resources/maskTrios/BBA3.jpg","null","",NA,NA,NA,NA,""
"image-keyboard-response",412,328001,"0.0-3.133-2.133","46rr4nzfvnap621",77,"132.csv","","null","resources/images/fishbone.png","null","",NA,NA,NA,NA,""
"image-keyboard-response",413,328132,"0.0-3.134-0.134","46rr4nzfvnap621",77,"132.csv","","129.5","resources/trios/L4T1A1.jpg","38","restless",0.6,0.2,0.4,0.790873270281246,"false"
"image-keyboard-response",414,328545,"0.0-3.134-1.134","46rr4nzfvnap621",77,"132.csv","","null","resources/maskTrios/BT1B.jpg","null","",NA,NA,NA,NA,""
"image-keyboard-response",415,329753,"0.0-3.134-2.134","46rr4nzfvnap621",77,"132.csv","","null","resources/images/fishbone.png","null","",NA,NA,NA,NA,""
"image-keyboard-response",416,330056,"0.0-3.135-0.135","46rr4nzfvnap621",77,"132.csv","","301.30000001192093","resources/trios/L4T1A3.jpg","37","restless",0.6,0.2,0.4,0.829357420222804,"false"
"image-keyboard-response",417,330465,"0.0-3.135-1.135","46rr4nzfvnap621",77,"132.csv","","null","resources/maskTrios/L4BB.jpg","null","",NA,NA,NA,NA,""
"image-keyboard-response",418,331670,"0.0-3.135-2.135","46rr4nzfvnap621",77,"132.csv","","null","resources/images/fishbone.png","null","",NA,NA,NA,NA,""
"image-keyboard-response",419,332192,"0.0-3.136-0.136","46rr4nzfvnap621",77,"132.csv","","520.6999999880791","resources/trios/L2T1A3.jpg","38","restless",0.6,0.2,0.5,0.408035573895629,"false"
"image-keyboard-response",420,332601,"0.0-3.136-1.136","46rr4nzfvnap621",77,"132.csv","","null","resources/maskTrios/BT1B.jpg","null","",NA,NA,NA,NA,""
"image-keyboard-response",421,333805,"0.0-3.136-2.136","46rr4nzfvnap621",77,"132.csv","","null","resources/images/fishbone.png","null","",NA,NA,NA,NA,""
"image-keyboard-response",422,334177,"0.0-3.137-0.137","46rr4nzfvnap621",77,"132.csv","","370.80000001192093","resources/trios/L2T1A1.jpg","39","restless",0.6,0.2,0.5,0.518747224022438,"false"
"image-keyboard-response",423,334584,"0.0-3.137-1.137","46rr4nzfvnap621",77,"132.csv","","null","resources/maskTrios/BBA1.jpg","null","",NA,NA,NA,NA,""
"image-keyboard-response",424,335786,"0.0-3.137-2.137","46rr4nzfvnap621",77,"132.csv","","null","resources/images/fishbone.png","null","",NA,NA,NA,NA,""
"image-keyboard-response",425,335788,"0.0-3.138-0.138","46rr4nzfvnap621",77,"132.csv","","0.2999999523162842","resources/trios/L4T1A1.jpg","37","restless",0.6,0.2,0.5,0.107666840367356,"true"
"image-keyboard-response",426,336198,"0.0-3.138-1.138","46rr4nzfvnap621",77,"132.csv","","null","resources/maskTrios/L4BB.jpg","null","",NA,NA,NA,NA,""
"image-keyboard-response",427,337405,"0.0-3.138-2.138","46rr4nzfvnap621",77,"132.csv","","null","resources/images/coin2.png","null","",NA,NA,NA,NA,""
"image-keyboard-response",428,337883,"0.0-3.139-0.139","46rr4nzfvnap621",77,"132.csv","","476.39999997615814","resources/trios/L4T2A3.jpg","38","restless",0.6,0.2,0.5,0.823336455523662,"false"
"image-keyboard-response",429,338297,"0.0-3.139-1.139","46rr4nzfvnap621",77,"132.csv","","null","resources/maskTrios/BT2B.jpg","null","",NA,NA,NA,NA,""
"image-keyboard-response",430,339505,"0.0-3.139-2.139","46rr4nzfvnap621",77,"132.csv","","null","resources/images/fishbone.png","null","",NA,NA,NA,NA,""
"image-keyboard-response",431,339778,"0.0-3.140-0.140","46rr4nzfvnap621",77,"132.csv","","271.0999999642372","resources/trios/L4T1A3.jpg","37","restless",0.6,0.2,0.5,0.477330195379201,"true"
"image-keyboard-response",432,340193,"0.0-3.140-1.140","46rr4nzfvnap621",77,"132.csv","","null","resources/maskTrios/L4BB.jpg","null","",NA,NA,NA,NA,""
"image-keyboard-response",433,341401,"0.0-3.140-2.140","46rr4nzfvnap621",77,"132.csv","","null","resources/images/coin2.png","null","",NA,NA,NA,NA,""
"image-keyboard-response",434,341649,"0.0-3.141-0.141","46rr4nzfvnap621",77,"132.csv","","246.10000002384186","resources/trios/L2T1A1.jpg","37","restless",0.6,0.1,0.5,0.622558007213384,"false"
"image-keyboard-response",435,342057,"0.0-3.141-1.141","46rr4nzfvnap621",77,"132.csv","","null","resources/maskTrios/L2BB.jpg","null","",NA,NA,NA,NA,""
"image-keyboard-response",436,343262,"0.0-3.141-2.141","46rr4nzfvnap621",77,"132.csv","","null","resources/images/fishbone.png","null","",NA,NA,NA,NA,""
"image-keyboard-response",437,343585,"0.0-3.142-0.142","46rr4nzfvnap621",77,"132.csv","","320.69999998807907","resources/trios/L4T1A3.jpg","37","restless",0.6,0.1,0.5,0.553375759851261,"true"
"image-keyboard-response",438,343993,"0.0-3.142-1.142","46rr4nzfvnap621",77,"132.csv","","null","resources/maskTrios/L4BB.jpg","null","",NA,NA,NA,NA,""
"image-keyboard-response",439,345197,"0.0-3.142-2.142","46rr4nzfvnap621",77,"132.csv","","null","resources/images/coin2.png","null","",NA,NA,NA,NA,""
"image-keyboard-response",440,345423,"0.0-3.143-0.143","46rr4nzfvnap621",77,"132.csv","","224.5","resources/trios/L2T2A3.jpg","39","restless",0.7,0.1,0.5,0.818580600121804,"false"
"image-keyboard-response",441,345829,"0.0-3.143-1.143","46rr4nzfvnap621",77,"132.csv","","null","resources/maskTrios/BBA3.jpg","null","",NA,NA,NA,NA,""
"image-keyboard-response",442,347037,"0.0-3.143-2.143","46rr4nzfvnap621",77,"132.csv","","null","resources/images/fishbone.png","null","",NA,NA,NA,NA,""
"image-keyboard-response",443,347287,"0.0-3.144-0.144","46rr4nzfvnap621",77,"132.csv","","248.0999999642372","resources/trios/L2T2A1.jpg","38","restless",0.7,0.1,0.5,0.391392234673729,"false"
"image-keyboard-response",444,347697,"0.0-3.144-1.144","46rr4nzfvnap621",77,"132.csv","","null","resources/maskTrios/BT2B.jpg","null","",NA,NA,NA,NA,""
"image-keyboard-response",445,348903,"0.0-3.144-2.144","46rr4nzfvnap621",77,"132.csv","","null","resources/images/fishbone.png","null","",NA,NA,NA,NA,""
"image-keyboard-response",446,349148,"0.0-3.145-0.145","46rr4nzfvnap621",77,"132.csv","","243.19999998807907","resources/trios/L2T2A3.jpg","37","restless",0.7,0.1,0.5,0.483639896965567,"true"
"image-keyboard-response",447,349561,"0.0-3.145-1.145","46rr4nzfvnap621",77,"132.csv","","null","resources/maskTrios/L2BB.jpg","null","",NA,NA,NA,NA,""
"image-keyboard-response",448,350766,"0.0-3.145-2.145","46rr4nzfvnap621",77,"132.csv","","null","resources/images/coin2.png","null","",NA,NA,NA,NA,""
"image-keyboard-response",449,350829,"0.0-3.146-0.146","46rr4nzfvnap621",77,"132.csv","","61.59999996423721","resources/trios/L2T2A3.jpg","37","restless",0.7,0.1,0.6,0.214527346220258,"true"
"image-keyboard-response",450,351237,"0.0-3.146-1.146","46rr4nzfvnap621",77,"132.csv","","null","resources/maskTrios/L2BB.jpg","null","",NA,NA,NA,NA,""
"image-keyboard-response",451,352447,"0.0-3.146-2.146","46rr4nzfvnap621",77,"132.csv","","null","resources/images/coin2.png","null","",NA,NA,NA,NA,""
"image-keyboard-response",452,352733,"0.0-3.147-0.147","46rr4nzfvnap621",77,"132.csv","","283.9000000357628","resources/trios/L4T2A3.jpg","37","restless",0.7,0.1,0.6,0.842815396692369,"false"
"image-keyboard-response",453,353144,"0.0-3.147-1.147","46rr4nzfvnap621",77,"132.csv","","null","resources/maskTrios/L4BB.jpg","null","",NA,NA,NA,NA,""
"image-keyboard-response",454,354351,"0.0-3.147-2.147","46rr4nzfvnap621",77,"132.csv","","null","resources/images/fishbone.png","null","",NA,NA,NA,NA,""
"image-keyboard-response",455,354444,"0.0-3.148-0.148","46rr4nzfvnap621",77,"132.csv","","90.5","resources/trios/L4T2A1.jpg","37","restless",0.8,0.1,0.6,0.495445420860925,"true"
"image-keyboard-response",456,354855,"0.0-3.148-1.148","46rr4nzfvnap621",77,"132.csv","","null","resources/maskTrios/L4BB.jpg","null","",NA,NA,NA,NA,""
"image-keyboard-response",457,356061,"0.0-3.148-2.148","46rr4nzfvnap621",77,"132.csv","","null","resources/images/coin2.png","null","",NA,NA,NA,NA,""
"image-keyboard-response",458,356201,"0.0-3.149-0.149","46rr4nzfvnap621",77,"132.csv","","138.10000002384186","resources/trios/L4T2A3.jpg","38","restless",0.8,0.1,0.5,0.556741705689562,"false"
"image-keyboard-response",459,356612,"0.0-3.149-1.149","46rr4nzfvnap621",77,"132.csv","","null","resources/maskTrios/BT2B.jpg","null","",NA,NA,NA,NA,""
"image-keyboard-response",460,357819,"0.0-3.149-2.149","46rr4nzfvnap621",77,"132.csv","","null","resources/images/fishbone.png","null","",NA,NA,NA,NA,""
"image-keyboard-response",461,357851,"0.0-3.150-0.150","46rr4nzfvnap621",77,"132.csv","","29","resources/trios/L4T1A3.jpg","39","restless",0.8,0.1,0.5,0.911626603994179,"false"
"image-keyboard-response",462,358260,"0.0-3.150-1.150","46rr4nzfvnap621",77,"132.csv","","null","resources/maskTrios/BBA3.jpg","null","",NA,NA,NA,NA,""
"image-keyboard-response",463,359469,"0.0-3.150-2.150","46rr4nzfvnap621",77,"132.csv","","null","resources/images/fishbone.png","null","",NA,NA,NA,NA,""
"image-keyboard-response",464,359525,"0.0-3.151-0.151","46rr4nzfvnap621",77,"132.csv","","53.89999997615814","resources/trios/L4T1A3.jpg","37","restless",0.8,0.2,0.5,0.809415280705488,"false"
"image-keyboard-response",465,359933,"0.0-3.151-1.151","46rr4nzfvnap621",77,"132.csv","","null","resources/maskTrios/L4BB.jpg","null","",NA,NA,NA,NA,""
"image-keyboard-response",466,361144,"0.0-3.151-2.151","46rr4nzfvnap621",77,"132.csv","","null","resources/images/fishbone.png","null","",NA,NA,NA,NA,""
"image-keyboard-response",467,361178,"0.0-3.152-0.152","46rr4nzfvnap621",77,"132.csv","","31.899999976158142","resources/trios/L2T2A1.jpg","39","restless",0.8,0.3,0.5,0.740904301592223,"false"
"image-keyboard-response",468,361588,"0.0-3.152-1.152","46rr4nzfvnap621",77,"132.csv","","null","resources/maskTrios/BBA1.jpg","null","",NA,NA,NA,NA,""
"image-keyboard-response",469,362800,"0.0-3.152-2.152","46rr4nzfvnap621",77,"132.csv","","null","resources/images/fishbone.png","null","",NA,NA,NA,NA,""
"image-keyboard-response",470,363237,"0.0-3.153-0.153","46rr4nzfvnap621",77,"132.csv","","434.5","resources/trios/L4T1A1.jpg","38","restless",0.8,0.3,0.5,0.56094292346168,"false"
"image-keyboard-response",471,363646,"0.0-3.153-1.153","46rr4nzfvnap621",77,"132.csv","","null","resources/maskTrios/BT1B.jpg","null","",NA,NA,NA,NA,""
"image-keyboard-response",472,364856,"0.0-3.153-2.153","46rr4nzfvnap621",77,"132.csv","","null","resources/images/fishbone.png","null","",NA,NA,NA,NA,""
"image-keyboard-response",473,365044,"0.0-3.154-0.154","46rr4nzfvnap621",77,"132.csv","","186","resources/trios/L2T2A1.jpg","37","restless",0.7,0.3,0.5,0.728817174496713,"false"
"image-keyboard-response",474,365454,"0.0-3.154-1.154","46rr4nzfvnap621",77,"132.csv","","null","resources/maskTrios/L2BB.jpg","null","",NA,NA,NA,NA,""
"image-keyboard-response",475,366662,"0.0-3.154-2.154","46rr4nzfvnap621",77,"132.csv","","null","resources/images/fishbone.png","null","",NA,NA,NA,NA,""
"image-keyboard-response",476,366770,"0.0-3.155-0.155","46rr4nzfvnap621",77,"132.csv","","105.10000002384186","resources/trios/L2T2A3.jpg","38","restless",0.7,0.3,0.5,0.689625213792237,"false"
"image-keyboard-response",477,367183,"0.0-3.155-1.155","46rr4nzfvnap621",77,"132.csv","","null","resources/maskTrios/BT2B.jpg","null","",NA,NA,NA,NA,""
"image-keyboard-response",478,368392,"0.0-3.155-2.155","46rr4nzfvnap621",77,"132.csv","","null","resources/images/fishbone.png","null","",NA,NA,NA,NA,""
"image-keyboard-response",479,368474,"0.0-3.156-0.156","46rr4nzfvnap621",77,"132.csv","","79.80000001192093","resources/trios/L2T1A3.jpg","39","restless",0.7,0.3,0.4,0.634151558542665,"false"
"image-keyboard-response",480,368885,"0.0-3.156-1.156","46rr4nzfvnap621",77,"132.csv","","null","resources/maskTrios/BBA3.jpg","null","",NA,NA,NA,NA,""
"image-keyboard-response",481,370094,"0.0-3.156-2.156","46rr4nzfvnap621",77,"132.csv","","null","resources/images/fishbone.png","null","",NA,NA,NA,NA,""
"image-keyboard-response",482,370288,"0.0-3.157-0.157","46rr4nzfvnap621",77,"132.csv","","191.9000000357628","resources/trios/L2T2A3.jpg","37","restless",0.7,0.3,0.4,0.313282781564581,"true"
"image-keyboard-response",483,370696,"0.0-3.157-1.157","46rr4nzfvnap621",77,"132.csv","","null","resources/maskTrios/L2BB.jpg","null","",NA,NA,NA,NA,""
"image-keyboard-response",484,371904,"0.0-3.157-2.157","46rr4nzfvnap621",77,"132.csv","","null","resources/images/coin2.png","null","",NA,NA,NA,NA,""
"image-keyboard-response",485,372003,"0.0-3.158-0.158","46rr4nzfvnap621",77,"132.csv","","97.60000002384186","resources/trios/L4T2A1.jpg","37","restless",0.7,0.3,0.4,0.138457696183218,"true"
"image-keyboard-response",486,372415,"0.0-3.158-1.158","46rr4nzfvnap621",77,"132.csv","","null","resources/maskTrios/L4BB.jpg","null","",NA,NA,NA,NA,""
"image-keyboard-response",487,373620,"0.0-3.158-2.158","46rr4nzfvnap621",77,"132.csv","","null","resources/images/coin2.png","null","",NA,NA,NA,NA,""
"image-keyboard-response",488,373680,"0.0-3.159-0.159","46rr4nzfvnap621",77,"132.csv","","58.30000001192093","resources/trios/L2T2A1.jpg","37","restless",0.7,0.3,0.3,0.75893597132121,"false"
"image-keyboard-response",489,374088,"0.0-3.159-1.159","46rr4nzfvnap621",77,"132.csv","","null","resources/maskTrios/L2BB.jpg","null","",NA,NA,NA,NA,""
"image-keyboard-response",490,375292,"0.0-3.159-2.159","46rr4nzfvnap621",77,"132.csv","","null","resources/images/fishbone.png","null","",NA,NA,NA,NA,""
"image-keyboard-response",491,375370,"0.0-3.160-0.160","46rr4nzfvnap621",77,"132.csv","","76.10000002384186","resources/trios/L2T2A3.jpg","39","restless",0.6,0.3,0.3,0.268698344225336,"true"
"image-keyboard-response",492,375784,"0.0-3.160-1.160","46rr4nzfvnap621",77,"132.csv","","null","resources/maskTrios/BBA3.jpg","null","",NA,NA,NA,NA,""
"image-keyboard-response",493,376992,"0.0-3.160-2.160","46rr4nzfvnap621",77,"132.csv","","null","resources/images/coin2.png","null","",NA,NA,NA,NA,""
"image-keyboard-response",494,377092,"0.0-3.161-0.161","46rr4nzfvnap621",77,"132.csv","","97.89999997615814","resources/trios/L2T1A1.jpg","39","restless",0.6,0.3,0.3,0.34403407348205,"false"
"image-keyboard-response",495,377500,"0.0-3.161-1.161","46rr4nzfvnap621",77,"132.csv","","null","resources/maskTrios/BBA1.jpg","null","",NA,NA,NA,NA,""
"image-keyboard-response",496,378707,"0.0-3.161-2.161","46rr4nzfvnap621",77,"132.csv","","null","resources/images/fishbone.png","null","",NA,NA,NA,NA,""
"image-keyboard-response",497,378718,"0.0-3.162-0.162","46rr4nzfvnap621",77,"132.csv","","8.199999988079071","resources/trios/L4T1A1.jpg","38","restless",0.6,0.3,0.3,0.751684654547955,"false"
"image-keyboard-response",498,379127,"0.0-3.162-1.162","46rr4nzfvnap621",77,"132.csv","","null","resources/maskTrios/BT1B.jpg","null","",NA,NA,NA,NA,""
"image-keyboard-response",499,380334,"0.0-3.162-2.162","46rr4nzfvnap621",77,"132.csv","","null","resources/images/fishbone.png","null","",NA,NA,NA,NA,""
"image-keyboard-response",500,380349,"0.0-3.163-0.163","46rr4nzfvnap621",77,"132.csv","","12.899999976158142","resources/trios/L2T2A3.jpg","37","restless",0.6,0.3,0.3,0.390120760335428,"true"
"image-keyboard-response",501,380759,"0.0-3.163-1.163","46rr4nzfvnap621",77,"132.csv","","null","resources/maskTrios/L2BB.jpg","null","",NA,NA,NA,NA,""
"image-keyboard-response",502,381966,"0.0-3.163-2.163","46rr4nzfvnap621",77,"132.csv","","null","resources/images/coin2.png","null","",NA,NA,NA,NA,""
"image-keyboard-response",503,382022,"0.0-3.164-0.164","46rr4nzfvnap621",77,"132.csv","","53.59999996423721","resources/trios/L2T2A1.jpg","39","restless",0.6,0.3,0.3,0.651142526581234,"false"
"image-keyboard-response",504,382427,"0.0-3.164-1.164","46rr4nzfvnap621",77,"132.csv","","null","resources/maskTrios/BBA1.jpg","null","",NA,NA,NA,NA,""
"image-keyboard-response",505,383640,"0.0-3.164-2.164","46rr4nzfvnap621",77,"132.csv","","null","resources/images/fishbone.png","null","",NA,NA,NA,NA,""
"image-keyboard-response",506,383701,"0.0-3.165-0.165","46rr4nzfvnap621",77,"132.csv","","59.60000002384186","resources/trios/L4T1A3.jpg","39","restless",0.6,0.3,0.3,0.883046873456079,"false"
"image-keyboard-response",507,384108,"0.0-3.165-1.165","46rr4nzfvnap621",77,"132.csv","","null","resources/maskTrios/BBA3.jpg","null","",NA,NA,NA,NA,""
"image-keyboard-response",508,385319,"0.0-3.165-2.165","46rr4nzfvnap621",77,"132.csv","","null","resources/images/fishbone.png","null","",NA,NA,NA,NA,""
"image-keyboard-response",509,385443,"0.0-3.166-0.166","46rr4nzfvnap621",77,"132.csv","","121.80000001192093","resources/trios/L2T1A3.jpg","39","restless",0.6,0.3,0.3,0.598072973047663,"false"
"image-keyboard-response",510,385855,"0.0-3.166-1.166","46rr4nzfvnap621",77,"132.csv","","null","resources/maskTrios/BBA3.jpg","null","",NA,NA,NA,NA,""
"image-keyboard-response",511,387064,"0.0-3.166-2.166","46rr4nzfvnap621",77,"132.csv","","null","resources/images/fishbone.png","null","",NA,NA,NA,NA,""
"image-keyboard-response",512,387339,"0.0-3.167-0.167","46rr4nzfvnap621",77,"132.csv","","273","resources/trios/L4T1A3.jpg","39","restless",0.6,0.3,0.3,0.174416776912784,"true"
"image-keyboard-response",513,387749,"0.0-3.167-1.167","46rr4nzfvnap621",77,"132.csv","","null","resources/maskTrios/BBA3.jpg","null","",NA,NA,NA,NA,""
"image-keyboard-response",514,388952,"0.0-3.167-2.167","46rr4nzfvnap621",77,"132.csv","","null","resources/images/coin2.png","null","",NA,NA,NA,NA,""
"image-keyboard-response",515,388990,"0.0-3.168-0.168","46rr4nzfvnap621",77,"132.csv","","36.10000002384186","resources/trios/L4T1A3.jpg","39","restless",0.6,0.3,0.3,0.203685682403866,"true"
"image-keyboard-response",516,389395,"0.0-3.168-1.168","46rr4nzfvnap621",77,"132.csv","","null","resources/maskTrios/BBA3.jpg","null","",NA,NA,NA,NA,""
"image-keyboard-response",517,390607,"0.0-3.168-2.168","46rr4nzfvnap621",77,"132.csv","","null","resources/images/coin2.png","null","",NA,NA,NA,NA,""
"image-keyboard-response",518,390640,"0.0-3.169-0.169","46rr4nzfvnap621",77,"132.csv","","30.600000023841858","resources/trios/L2T1A3.jpg","39","restless",0.6,0.3,0.3,0.441135955585274,"false"
"image-keyboard-response",519,391042,"0.0-3.169-1.169","46rr4nzfvnap621",77,"132.csv","","null","resources/maskTrios/BBA3.jpg","null","",NA,NA,NA,NA,""
"image-keyboard-response",520,392255,"0.0-3.169-2.169","46rr4nzfvnap621",77,"132.csv","","null","resources/images/fishbone.png","null","",NA,NA,NA,NA,""
"image-keyboard-response",521,392280,"0.0-3.170-0.170","46rr4nzfvnap621",77,"132.csv","","22.599999964237213","resources/trios/L2T1A3.jpg","37","restless",0.6,0.3,0.3,0.415436484456051,"true"
"image-keyboard-response",522,392683,"0.0-3.170-1.170","46rr4nzfvnap621",77,"132.csv","","null","resources/maskTrios/L2BB.jpg","null","",NA,NA,NA,NA,""
"image-keyboard-response",523,393894,"0.0-3.170-2.170","46rr4nzfvnap621",77,"132.csv","","null","resources/images/coin2.png","null","",NA,NA,NA,NA,""
"image-keyboard-response",524,394050,"0.0-3.171-0.171","46rr4nzfvnap621",77,"132.csv","","153.89999997615814","resources/trios/L4T2A3.jpg","37","restless",0.6,0.3,0.2,0.53300177517752,"true"
"image-keyboard-response",525,394461,"0.0-3.171-1.171","46rr4nzfvnap621",77,"132.csv","","null","resources/maskTrios/L4BB.jpg","null","",NA,NA,NA,NA,""
"image-keyboard-response",526,395669,"0.0-3.171-2.171","46rr4nzfvnap621",77,"132.csv","","null","resources/images/coin2.png","null","",NA,NA,NA,NA,""
"image-keyboard-response",527,395718,"0.0-3.172-0.172","46rr4nzfvnap621",77,"132.csv","","47","resources/trios/L2T2A1.jpg","37","restless",0.6,0.3,0.2,0.431399021526489,"true"
"image-keyboard-response",528,396123,"0.0-3.172-1.172","46rr4nzfvnap621",77,"132.csv","","null","resources/maskTrios/L2BB.jpg","null","",NA,NA,NA,NA,""
"image-keyboard-response",529,397335,"0.0-3.172-2.172","46rr4nzfvnap621",77,"132.csv","","null","resources/images/coin2.png","null","",NA,NA,NA,NA,""
"image-keyboard-response",530,397532,"0.0-3.173-0.173","46rr4nzfvnap621",77,"132.csv","","195.19999998807907","resources/trios/L4T1A1.jpg","37","restless",0.6,0.4,0.2,0.459060129144146,"true"
"image-keyboard-response",531,397943,"0.0-3.173-1.173","46rr4nzfvnap621",77,"132.csv","","null","resources/maskTrios/L4BB.jpg","null","",NA,NA,NA,NA,""
"image-keyboard-response",532,399149,"0.0-3.173-2.173","46rr4nzfvnap621",77,"132.csv","","null","resources/images/coin2.png","null","",NA,NA,NA,NA,""
"image-keyboard-response",533,399323,"0.0-3.174-0.174","46rr4nzfvnap621",77,"132.csv","","172.20000004768372","resources/trios/L2T1A3.jpg","37","restless",0.6,0.4,0.2,0.689919008325285,"false"
"image-keyboard-response",534,399733,"0.0-3.174-1.174","46rr4nzfvnap621",77,"132.csv","","null","resources/maskTrios/L2BB.jpg","null","",NA,NA,NA,NA,""
"image-keyboard-response",535,400937,"0.0-3.174-2.174","46rr4nzfvnap621",77,"132.csv","","null","resources/images/fishbone.png","null","",NA,NA,NA,NA,""
"image-keyboard-response",536,401053,"0.0-3.175-0.175","46rr4nzfvnap621",77,"132.csv","","113.30000001192093","resources/trios/L4T1A1.jpg","38","restless",0.5,0.5,0.2,0.547914549134502,"false"
"image-keyboard-response",537,401459,"0.0-3.175-1.175","46rr4nzfvnap621",77,"132.csv","","null","resources/maskTrios/BT1B.jpg","null","",NA,NA,NA,NA,""
"image-keyboard-response",538,402668,"0.0-3.175-2.175","46rr4nzfvnap621",77,"132.csv","","null","resources/images/fishbone.png","null","",NA,NA,NA,NA,""
"image-keyboard-response",539,402750,"0.0-3.176-0.176","46rr4nzfvnap621",77,"132.csv","","80.19999998807907","resources/trios/L2T1A1.jpg","39","restless",0.5,0.4,0.2,0.102346837262664,"true"
"image-keyboard-response",540,403159,"0.0-3.176-1.176","46rr4nzfvnap621",77,"132.csv","","null","resources/maskTrios/BBA1.jpg","null","",NA,NA,NA,NA,""
"image-keyboard-response",541,404367,"0.0-3.176-2.176","46rr4nzfvnap621",77,"132.csv","","null","resources/images/coin2.png","null","",NA,NA,NA,NA,""
"image-keyboard-response",542,404512,"0.0-3.177-0.177","46rr4nzfvnap621",77,"132.csv","","142.60000002384186","resources/trios/L4T2A1.jpg","39","restless",0.5,0.4,0.2,0.696216405941504,"false"
"image-keyboard-response",543,404915,"0.0-3.177-1.177","46rr4nzfvnap621",77,"132.csv","","null","resources/maskTrios/BBA1.jpg","null","",NA,NA,NA,NA,""
"image-keyboard-response",544,406118,"0.0-3.177-2.177","46rr4nzfvnap621",77,"132.csv","","null","resources/images/fishbone.png","null","",NA,NA,NA,NA,""
"image-keyboard-response",545,406238,"0.0-3.178-0.178","46rr4nzfvnap621",77,"132.csv","","118.90000003576279","resources/trios/L2T2A3.jpg","37","restless",0.5,0.4,0.2,0.77987599089026,"false"
"image-keyboard-response",546,406642,"0.0-3.178-1.178","46rr4nzfvnap621",77,"132.csv","","null","resources/maskTrios/L2BB.jpg","null","",NA,NA,NA,NA,""
"image-keyboard-response",547,407850,"0.0-3.178-2.178","46rr4nzfvnap621",77,"132.csv","","null","resources/images/fishbone.png","null","",NA,NA,NA,NA,""
"image-keyboard-response",548,408038,"0.0-3.179-0.179","46rr4nzfvnap621",77,"132.csv","","186.30000001192093","resources/trios/L4T1A3.jpg","38","restless",0.5,0.4,0.2,0.894582919792084,"false"
"image-keyboard-response",549,408443,"0.0-3.179-1.179","46rr4nzfvnap621",77,"132.csv","","null","resources/maskTrios/BT1B.jpg","null","",NA,NA,NA,NA,""
"image-keyboard-response",550,409655,"0.0-3.179-2.179","46rr4nzfvnap621",77,"132.csv","","null","resources/images/fishbone.png","null","",NA,NA,NA,NA,""
"image-keyboard-response",551,409696,"0.0-3.180-0.180","46rr4nzfvnap621",77,"132.csv","","38.80000001192093","resources/trios/L4T2A1.jpg","39","restless",0.5,0.4,0.2,0.0936200758719477,"true"
"image-keyboard-response",552,410107,"0.0-3.180-1.180","46rr4nzfvnap621",77,"132.csv","","null","resources/maskTrios/BBA1.jpg","null","",NA,NA,NA,NA,""
"image-keyboard-response",553,411319,"0.0-3.180-2.180","46rr4nzfvnap621",77,"132.csv","","null","resources/images/coin2.png","null","",NA,NA,NA,NA,""
"image-keyboard-response",554,411387,"0.0-3.181-0.181","46rr4nzfvnap621",77,"132.csv","","66.09999996423721","resources/trios/L4T2A1.jpg","39","restless",0.5,0.4,0.2,0.956355432764618,"false"
"image-keyboard-response",555,411798,"0.0-3.181-1.181","46rr4nzfvnap621",77,"132.csv","","null","resources/maskTrios/BBA1.jpg","null","",NA,NA,NA,NA,""
"image-keyboard-response",556,413003,"0.0-3.181-2.181","46rr4nzfvnap621",77,"132.csv","","null","resources/images/fishbone.png","null","",NA,NA,NA,NA,""
"image-keyboard-response",557,413005,"0.0-3.182-0.182","46rr4nzfvnap621",77,"132.csv","","0","resources/trios/L2T1A1.jpg","37","restless",0.5,0.4,0.2,0.78321788231072,"false"
"image-keyboard-response",558,413415,"0.0-3.182-1.182","46rr4nzfvnap621",77,"132.csv","","null","resources/maskTrios/L2BB.jpg","null","",NA,NA,NA,NA,""
"image-keyboard-response",559,414623,"0.0-3.182-2.182","46rr4nzfvnap621",77,"132.csv","","null","resources/images/fishbone.png","null","",NA,NA,NA,NA,""
"image-keyboard-response",560,414760,"0.0-3.183-0.183","46rr4nzfvnap621",77,"132.csv","","135.10000002384186","resources/trios/L4T1A3.jpg","38","restless",0.5,0.4,0.1,0.759998245434551,"false"
"image-keyboard-response",561,415175,"0.0-3.183-1.183","46rr4nzfvnap621",77,"132.csv","","null","resources/maskTrios/BT1B.jpg","null","",NA,NA,NA,NA,""
"image-keyboard-response",562,416383,"0.0-3.183-2.183","46rr4nzfvnap621",77,"132.csv","","null","resources/images/fishbone.png","null","",NA,NA,NA,NA,""
"image-keyboard-response",563,416457,"0.0-3.184-0.184","46rr4nzfvnap621",77,"132.csv","","72.10000002384186","resources/trios/L4T1A1.jpg","39","restless",0.5,0.4,0.1,0.701388362384415,"false"
"image-keyboard-response",564,416867,"0.0-3.184-1.184","46rr4nzfvnap621",77,"132.csv","","null","resources/maskTrios/BBA1.jpg","null","",NA,NA,NA,NA,""
"image-keyboard-response",565,418077,"0.0-3.184-2.184","46rr4nzfvnap621",77,"132.csv","","null","resources/images/fishbone.png","null","",NA,NA,NA,NA,""
"image-keyboard-response",566,418095,"0.0-3.185-0.185","46rr4nzfvnap621",77,"132.csv","","16.399999976158142","resources/trios/L2T1A3.jpg","39","restless",0.5,0.4,0.1,0.516670580237621,"false"
"image-keyboard-response",567,418499,"0.0-3.185-1.185","46rr4nzfvnap621",77,"132.csv","","null","resources/maskTrios/BBA3.jpg","null","",NA,NA,NA,NA,""
"image-keyboard-response",568,419711,"0.0-3.185-2.185","46rr4nzfvnap621",77,"132.csv","","null","resources/images/fishbone.png","null","",NA,NA,NA,NA,""
"image-keyboard-response",569,419866,"0.0-3.186-0.186","46rr4nzfvnap621",77,"132.csv","","152.89999997615814","resources/trios/L4T1A3.jpg","39","restless",0.5,0.4,0.1,0.987711930471264,"false"
"image-keyboard-response",570,420279,"0.0-3.186-1.186","46rr4nzfvnap621",77,"132.csv","","null","resources/maskTrios/BBA3.jpg","null","",NA,NA,NA,NA,""
"image-keyboard-response",571,421483,"0.0-3.186-2.186","46rr4nzfvnap621",77,"132.csv","","null","resources/images/fishbone.png","null","",NA,NA,NA,NA,""
"image-keyboard-response",572,421690,"0.0-3.187-0.187","46rr4nzfvnap621",77,"132.csv","","204.69999998807907","resources/trios/L2T1A1.jpg","39","restless",0.5,0.4,0.1,0.45592134159843,"false"
"image-keyboard-response",573,422102,"0.0-3.187-1.187","46rr4nzfvnap621",77,"132.csv","","null","resources/maskTrios/BBA1.jpg","null","",NA,NA,NA,NA,""
"image-keyboard-response",574,423311,"0.0-3.187-2.187","46rr4nzfvnap621",77,"132.csv","","null","resources/images/fishbone.png","null","",NA,NA,NA,NA,""
"image-keyboard-response",575,423328,"0.0-3.188-0.188","46rr4nzfvnap621",77,"132.csv","","15.699999988079071","resources/trios/L4T1A3.jpg","39","restless",0.5,0.4,0.1,0.882759544809602,"false"
"image-keyboard-response",576,423735,"0.0-3.188-1.188","46rr4nzfvnap621",77,"132.csv","","null","resources/maskTrios/BBA3.jpg","null","",NA,NA,NA,NA,""
"image-keyboard-response",577,424943,"0.0-3.188-2.188","46rr4nzfvnap621",77,"132.csv","","null","resources/images/fishbone.png","null","",NA,NA,NA,NA,""
"image-keyboard-response",578,425912,"0.0-3.189-0.189","46rr4nzfvnap621",77,"132.csv","","967.4000000357628","resources/trios/L2T2A1.jpg","39","restless",0.5,0.4,0.1,0.760402037554549,"false"
"image-keyboard-response",579,426327,"0.0-3.189-1.189","46rr4nzfvnap621",77,"132.csv","","null","resources/maskTrios/BBA1.jpg","null","",NA,NA,NA,NA,""
"image-keyboard-response",580,427531,"0.0-3.189-2.189","46rr4nzfvnap621",77,"132.csv","","null","resources/images/fishbone.png","null","",NA,NA,NA,NA,""
"image-keyboard-response",581,427561,"0.0-3.190-0.190","46rr4nzfvnap621",77,"132.csv","","28.30000001192093","resources/trios/L2T1A1.jpg","37","restless",0.5,0.4,0.2,0.569467622447335,"false"
"image-keyboard-response",582,427970,"0.0-3.190-1.190","46rr4nzfvnap621",77,"132.csv","","null","resources/maskTrios/L2BB.jpg","null","",NA,NA,NA,NA,""
"image-keyboard-response",583,429179,"0.0-3.190-2.190","46rr4nzfvnap621",77,"132.csv","","null","resources/images/fishbone.png","null","",NA,NA,NA,NA,""
"image-keyboard-response",584,429186,"0.0-3.191-0.191","46rr4nzfvnap621",77,"132.csv","","4.800000011920929","resources/trios/L2T2A1.jpg","38","restless",0.5,0.4,0.2,0.48192194626782,"false"
"image-keyboard-response",585,429598,"0.0-3.191-1.191","46rr4nzfvnap621",77,"132.csv","","null","resources/maskTrios/BT2B.jpg","null","",NA,NA,NA,NA,""
"image-keyboard-response",586,430807,"0.0-3.191-2.191","46rr4nzfvnap621",77,"132.csv","","null","resources/images/fishbone.png","null","",NA,NA,NA,NA,""
"image-keyboard-response",587,430848,"0.0-3.192-0.192","46rr4nzfvnap621",77,"132.csv","","39.40000003576279","resources/trios/L2T2A3.jpg","39","restless",0.5,0.4,0.2,0.777981423985997,"false"
"image-keyboard-response",588,431255,"0.0-3.192-1.192","46rr4nzfvnap621",77,"132.csv","","null","resources/maskTrios/BBA3.jpg","null","",NA,NA,NA,NA,""
"image-keyboard-response",589,432462,"0.0-3.192-2.192","46rr4nzfvnap621",77,"132.csv","","null","resources/images/fishbone.png","null","",NA,NA,NA,NA,""
"image-keyboard-response",590,432582,"0.0-3.193-0.193","46rr4nzfvnap621",77,"132.csv","","117.40000003576279","resources/trios/L2T1A1.jpg","38","restless",0.4,0.4,0.3,0.238954915836946,"true"
"image-keyboard-response",591,432986,"0.0-3.193-1.193","46rr4nzfvnap621",77,"132.csv","","null","resources/maskTrios/BT1B.jpg","null","",NA,NA,NA,NA,""
"image-keyboard-response",592,434195,"0.0-3.193-2.193","46rr4nzfvnap621",77,"132.csv","","null","resources/images/coin2.png","null","",NA,NA,NA,NA,""
"image-keyboard-response",593,434233,"0.0-3.194-0.194","46rr4nzfvnap621",77,"132.csv","","35.89999997615814","resources/trios/L2T1A3.jpg","38","restless",0.4,0.4,0.3,0.0136451623418876,"true"
"image-keyboard-response",594,434646,"0.0-3.194-1.194","46rr4nzfvnap621",77,"132.csv","","null","resources/maskTrios/BT1B.jpg","null","",NA,NA,NA,NA,""
"image-keyboard-response",595,435854,"0.0-3.194-2.194","46rr4nzfvnap621",77,"132.csv","","null","resources/images/coin2.png","null","",NA,NA,NA,NA,""
"image-keyboard-response",596,435908,"0.0-3.195-0.195","46rr4nzfvnap621",77,"132.csv","","51.299999952316284","resources/trios/L4T1A3.jpg","38","restless",0.4,0.4,0.3,0.440425896375157,"false"
"image-keyboard-response",597,436316,"0.0-3.195-1.195","46rr4nzfvnap621",77,"132.csv","","null","resources/maskTrios/BT1B.jpg","null","",NA,NA,NA,NA,""
"image-keyboard-response",598,437526,"0.0-3.195-2.195","46rr4nzfvnap621",77,"132.csv","","null","resources/images/fishbone.png","null","",NA,NA,NA,NA,""
"image-keyboard-response",599,437703,"0.0-3.196-0.196","46rr4nzfvnap621",77,"132.csv","","174.89999997615814","resources/trios/L4T2A1.jpg","37","restless",0.4,0.4,0.3,0.724852200197409,"false"
"image-keyboard-response",600,438107,"0.0-3.196-1.196","46rr4nzfvnap621",77,"132.csv","","null","resources/maskTrios/L4BB.jpg","null","",NA,NA,NA,NA,""
"image-keyboard-response",601,439314,"0.0-3.196-2.196","46rr4nzfvnap621",77,"132.csv","","null","resources/images/fishbone.png","null","",NA,NA,NA,NA,""
"image-keyboard-response",602,439423,"0.0-3.197-0.197","46rr4nzfvnap621",77,"132.csv","","106.89999997615814","resources/trios/L2T1A1.jpg","39","restless",0.4,0.5,0.4,0.894254768645954,"false"
"image-keyboard-response",603,439827,"0.0-3.197-1.197","46rr4nzfvnap621",77,"132.csv","","null","resources/maskTrios/BBA1.jpg","null","",NA,NA,NA,NA,""
"image-keyboard-response",604,441038,"0.0-3.197-2.197","46rr4nzfvnap621",77,"132.csv","","null","resources/images/fishbone.png","null","",NA,NA,NA,NA,""
"image-keyboard-response",605,441123,"0.0-3.198-0.198","46rr4nzfvnap621",77,"132.csv","","82.89999997615814","resources/trios/L2T2A1.jpg","38","restless",0.4,0.5,0.4,0.594197009485153,"false"
"image-keyboard-response",606,441532,"0.0-3.198-1.198","46rr4nzfvnap621",77,"132.csv","","null","resources/maskTrios/BT2B.jpg","null","",NA,NA,NA,NA,""
"image-keyboard-response",607,442739,"0.0-3.198-2.198","46rr4nzfvnap621",77,"132.csv","","null","resources/images/fishbone.png","null","",NA,NA,NA,NA,""
"image-keyboard-response",608,442764,"0.0-3.199-0.199","46rr4nzfvnap621",77,"132.csv","","23.100000023841858","resources/trios/L2T2A1.jpg","37","restless",0.4,0.5,0.5,0.00309326293874412,"true"
