"trial_type","trial_index","time_elapsed","internal_node_id","subject","participantCode","walkNumber","success","rt","stimulus","key_press","test_part","leftProb","midProb","rightProb","generatedNum","correct"
"pavlovia",0,951,"0.0-0.0","u90p8w3c82fw1d8",471,"157.csv","","","","","",NA,NA,NA,NA,""
"fullscreen",1,5739,"0.0-1.0","u90p8w3c82fw1d8",471,"157.csv","true","","","","",NA,NA,NA,NA,""
"html-keyboard-response",2,8687,"0.0-2.0-0.0","u90p8w3c82fw1d8",471,"157.csv","","2946.5","<p><font size='6'>Arrrgh!</p></font><p>Can you be the best pirate? Try to find lots of gold! But beware, some islands have more gold than others, and over time, the island with the most gold may change. Can YOU figure it out? </p><font size='6'>GOOD LUCK, CAPTAIN!!!</font><p>Press any key to begin</p>","32","",NA,NA,NA,NA,""
"image-keyboard-response",3,11692,"0.0-2.0-1.0","u90p8w3c82fw1d8",471,"157.csv","","null","resources/image_sets/111.png","null","",NA,NA,NA,NA,""
"image-keyboard-response",4,30490,"0.0-2.0-2.0","u90p8w3c82fw1d8",471,"157.csv","","18795.79999999702","resources/image_sets/left_highlight.png","37","",NA,NA,NA,NA,""
"image-keyboard-response",5,34287,"0.0-2.0-3.0","u90p8w3c82fw1d8",471,"157.csv","","3795.0999999940395","resources/image_sets/mid_highlight.png","38","",NA,NA,NA,NA,""
"image-keyboard-response",6,35676,"0.0-2.0-4.0","u90p8w3c82fw1d8",471,"157.csv","","1387.5","resources/image_sets/right_highlight.png","39","",NA,NA,NA,NA,""
"image-keyboard-response",7,38082,"0.0-2.0-5.0","u90p8w3c82fw1d8",471,"157.csv","","2404.7000000029802","resources/image_sets/111.png","13","",NA,NA,NA,NA,""
"image-keyboard-response",8,40338,"0.0-2.0-6.0","u90p8w3c82fw1d8",471,"157.csv","","2255.2999999970198","resources/images/coin2.png","13","",NA,NA,NA,NA,""
"image-keyboard-response",9,44455,"0.0-2.0-7.0","u90p8w3c82fw1d8",471,"157.csv","","4115.79999999702","resources/images/fishbone.png","13","",NA,NA,NA,NA,""
"html-keyboard-response",10,48621,"0.0-2.0-8.0","u90p8w3c82fw1d8",471,"157.csv","","4164.5","<p>Your first journey will be a long one, but you will get a well deserved break at the end</p><p>After the break you will have four more journeys, but each will be much shorter than the first, and you will have breaks in between each</p><p>Press Enter to begin</p>","13","",NA,NA,NA,NA,""
"image-keyboard-response",11,54005,"0.0-3.0-0.0","u90p8w3c82fw1d8",471,"157.csv","","5382.5","resources/trios/L4T2A2.jpg","39","restless",0.3,0.9,0.7,0.950305714972873,"false"
"image-keyboard-response",12,54412,"0.0-3.0-1.0","u90p8w3c82fw1d8",471,"157.csv","","null","resources/maskTrios/BBA2.jpg","null","",NA,NA,NA,NA,""
"image-keyboard-response",13,55613,"0.0-3.0-2.0","u90p8w3c82fw1d8",471,"157.csv","","null","resources/images/fishbone.png","null","",NA,NA,NA,NA,""
"image-keyboard-response",14,58035,"0.0-3.1-0.1","u90p8w3c82fw1d8",471,"157.csv","","2419.2000000029802","resources/trios/L4T4A2.jpg","37","restless",0.3,0.9,0.7,0.393956889724802,"false"
"image-keyboard-response",15,58442,"0.0-3.1-1.1","u90p8w3c82fw1d8",471,"157.csv","","null","resources/maskTrios/L4BB.jpg","null","",NA,NA,NA,NA,""
"image-keyboard-response",16,59644,"0.0-3.1-2.1","u90p8w3c82fw1d8",471,"157.csv","","null","resources/images/fishbone.png","null","",NA,NA,NA,NA,""
"image-keyboard-response",17,62789,"0.0-3.2-0.2","u90p8w3c82fw1d8",471,"157.csv","","3143.2999999970198","resources/trios/L2T4A2.jpg","38","restless",0.3,0.8,0.7,0.796659863933457,"true"
"image-keyboard-response",18,63190,"0.0-3.2-1.2","u90p8w3c82fw1d8",471,"157.csv","","null","resources/maskTrios/BT4B.jpg","null","",NA,NA,NA,NA,""
"image-keyboard-response",19,64394,"0.0-3.2-2.2","u90p8w3c82fw1d8",471,"157.csv","","null","resources/images/coin2.png","null","",NA,NA,NA,NA,""
"image-keyboard-response",20,65305,"0.0-3.3-0.3","u90p8w3c82fw1d8",471,"157.csv","","909.2999999970198","resources/trios/L2T4A2.jpg","37","restless",0.3,0.8,0.6,0.334342891130182,"false"
"image-keyboard-response",21,65709,"0.0-3.3-1.3","u90p8w3c82fw1d8",471,"157.csv","","null","resources/maskTrios/L2BB.jpg","null","",NA,NA,NA,NA,""
"image-keyboard-response",22,66913,"0.0-3.3-2.3","u90p8w3c82fw1d8",471,"157.csv","","null","resources/images/fishbone.png","null","",NA,NA,NA,NA,""
"image-keyboard-response",23,67678,"0.0-3.4-0.4","u90p8w3c82fw1d8",471,"157.csv","","764.2000000029802","resources/trios/L2T2A2.jpg","39","restless",0.3,0.7,0.6,0.718047900555944,"false"
"image-keyboard-response",24,68085,"0.0-3.4-1.4","u90p8w3c82fw1d8",471,"157.csv","","null","resources/maskTrios/BBA2.jpg","null","",NA,NA,NA,NA,""
"image-keyboard-response",25,69288,"0.0-3.4-2.4","u90p8w3c82fw1d8",471,"157.csv","","null","resources/images/fishbone.png","null","",NA,NA,NA,NA,""
"image-keyboard-response",26,69697,"0.0-3.5-0.5","u90p8w3c82fw1d8",471,"157.csv","","406.90000000596046","resources/trios/L4T2A3.jpg","38","restless",0.3,0.7,0.6,0.66392160353918,"true"
"image-keyboard-response",27,70099,"0.0-3.5-1.5","u90p8w3c82fw1d8",471,"157.csv","","null","resources/maskTrios/BT2B.jpg","null","",NA,NA,NA,NA,""
"image-keyboard-response",28,71302,"0.0-3.5-2.5","u90p8w3c82fw1d8",471,"157.csv","","null","resources/images/coin2.png","null","",NA,NA,NA,NA,""
"image-keyboard-response",29,71719,"0.0-3.6-0.6","u90p8w3c82fw1d8",471,"157.csv","","415.29999999701977","resources/trios/L2T4A3.jpg","38","restless",0.3,0.7,0.7,0.656162113347185,"true"
"image-keyboard-response",30,72123,"0.0-3.6-1.6","u90p8w3c82fw1d8",471,"157.csv","","null","resources/maskTrios/BT4B.jpg","null","",NA,NA,NA,NA,""
"image-keyboard-response",31,73325,"0.0-3.6-2.6","u90p8w3c82fw1d8",471,"157.csv","","null","resources/images/coin2.png","null","",NA,NA,NA,NA,""
"image-keyboard-response",32,73982,"0.0-3.7-0.7","u90p8w3c82fw1d8",471,"157.csv","","656.0999999940395","resources/trios/L4T2A3.jpg","38","restless",0.3,0.7,0.8,0.991511622845318,"false"
"image-keyboard-response",33,74389,"0.0-3.7-1.7","u90p8w3c82fw1d8",471,"157.csv","","null","resources/maskTrios/BT2B.jpg","null","",NA,NA,NA,NA,""
"image-keyboard-response",34,75594,"0.0-3.7-2.7","u90p8w3c82fw1d8",471,"157.csv","","null","resources/images/fishbone.png","null","",NA,NA,NA,NA,""
"image-keyboard-response",35,76438,"0.0-3.8-0.8","u90p8w3c82fw1d8",471,"157.csv","","841.6999999880791","resources/trios/L4T2A2.jpg","37","restless",0.3,0.7,0.8,0.715358428865759,"false"
"image-keyboard-response",36,76842,"0.0-3.8-1.8","u90p8w3c82fw1d8",471,"157.csv","","null","resources/maskTrios/L4BB.jpg","null","",NA,NA,NA,NA,""
"image-keyboard-response",37,78048,"0.0-3.8-2.8","u90p8w3c82fw1d8",471,"157.csv","","null","resources/images/fishbone.png","null","",NA,NA,NA,NA,""
"image-keyboard-response",38,78523,"0.0-3.9-0.9","u90p8w3c82fw1d8",471,"157.csv","","474","resources/trios/L4T2A2.jpg","39","restless",0.3,0.7,0.8,0.982571887175886,"false"
"image-keyboard-response",39,78928,"0.0-3.9-1.9","u90p8w3c82fw1d8",471,"157.csv","","null","resources/maskTrios/BBA2.jpg","null","",NA,NA,NA,NA,""
"image-keyboard-response",40,80135,"0.0-3.9-2.9","u90p8w3c82fw1d8",471,"157.csv","","null","resources/images/fishbone.png","null","",NA,NA,NA,NA,""
"image-keyboard-response",41,80497,"0.0-3.10-0.10","u90p8w3c82fw1d8",471,"157.csv","","360.79999999701977","resources/trios/L4T2A2.jpg","38","restless",0.3,0.7,0.8,0.349445524337328,"true"
"image-keyboard-response",42,80902,"0.0-3.10-1.10","u90p8w3c82fw1d8",471,"157.csv","","null","resources/maskTrios/BT2B.jpg","null","",NA,NA,NA,NA,""
"image-keyboard-response",43,82108,"0.0-3.10-2.10","u90p8w3c82fw1d8",471,"157.csv","","null","resources/images/coin2.png","null","",NA,NA,NA,NA,""
"image-keyboard-response",44,83277,"0.0-3.11-0.11","u90p8w3c82fw1d8",471,"157.csv","","1167.5","resources/trios/L4T4A3.jpg","38","restless",0.3,0.7,0.8,0.897777673500363,"false"
"image-keyboard-response",45,83683,"0.0-3.11-1.11","u90p8w3c82fw1d8",471,"157.csv","","null","resources/maskTrios/BT4B.jpg","null","",NA,NA,NA,NA,""
"image-keyboard-response",46,84889,"0.0-3.11-2.11","u90p8w3c82fw1d8",471,"157.csv","","null","resources/images/fishbone.png","null","",NA,NA,NA,NA,""
"image-keyboard-response",47,85448,"0.0-3.12-0.12","u90p8w3c82fw1d8",471,"157.csv","","558","resources/trios/L4T2A3.jpg","38","restless",0.3,0.7,0.8,0.758857509776301,"false"
"image-keyboard-response",48,85852,"0.0-3.12-1.12","u90p8w3c82fw1d8",471,"157.csv","","null","resources/maskTrios/BT2B.jpg","null","",NA,NA,NA,NA,""
"image-keyboard-response",49,87058,"0.0-3.12-2.12","u90p8w3c82fw1d8",471,"157.csv","","null","resources/images/fishbone.png","null","",NA,NA,NA,NA,""
"image-keyboard-response",50,87402,"0.0-3.13-0.13","u90p8w3c82fw1d8",471,"157.csv","","341.8999999910593","resources/trios/L4T4A3.jpg","39","restless",0.2,0.7,0.8,0.55062664004356,"true"
"image-keyboard-response",51,87808,"0.0-3.13-1.13","u90p8w3c82fw1d8",471,"157.csv","","null","resources/maskTrios/BBA3.jpg","null","",NA,NA,NA,NA,""
"image-keyboard-response",52,89010,"0.0-3.13-2.13","u90p8w3c82fw1d8",471,"157.csv","","null","resources/images/coin2.png","null","",NA,NA,NA,NA,""
"image-keyboard-response",53,89708,"0.0-3.14-0.14","u90p8w3c82fw1d8",471,"157.csv","","695.9000000059605","resources/trios/L4T4A2.jpg","37","restless",0.2,0.7,0.8,0.0759563352239705,"true"
"image-keyboard-response",54,90115,"0.0-3.14-1.14","u90p8w3c82fw1d8",471,"157.csv","","null","resources/maskTrios/L4BB.jpg","null","",NA,NA,NA,NA,""
"image-keyboard-response",55,91321,"0.0-3.14-2.14","u90p8w3c82fw1d8",471,"157.csv","","null","resources/images/coin2.png","null","",NA,NA,NA,NA,""
"image-keyboard-response",56,91984,"0.0-3.15-0.15","u90p8w3c82fw1d8",471,"157.csv","","661.7999999970198","resources/trios/L2T4A3.jpg","39","restless",0.2,0.7,0.8,0.321906509199485,"true"
"image-keyboard-response",57,92389,"0.0-3.15-1.15","u90p8w3c82fw1d8",471,"157.csv","","null","resources/maskTrios/BBA3.jpg","null","",NA,NA,NA,NA,""
"image-keyboard-response",58,93593,"0.0-3.15-2.15","u90p8w3c82fw1d8",471,"157.csv","","null","resources/images/coin2.png","null","",NA,NA,NA,NA,""
"image-keyboard-response",59,94193,"0.0-3.16-0.16","u90p8w3c82fw1d8",471,"157.csv","","598.5999999940395","resources/trios/L4T4A2.jpg","37","restless",0.2,0.7,0.8,0.533816181331573,"false"
"image-keyboard-response",60,94598,"0.0-3.16-1.16","u90p8w3c82fw1d8",471,"157.csv","","null","resources/maskTrios/L4BB.jpg","null","",NA,NA,NA,NA,""
"image-keyboard-response",61,95802,"0.0-3.16-2.16","u90p8w3c82fw1d8",471,"157.csv","","null","resources/images/fishbone.png","null","",NA,NA,NA,NA,""
"image-keyboard-response",62,96181,"0.0-3.17-0.17","u90p8w3c82fw1d8",471,"157.csv","","376.70000000298023","resources/trios/L2T2A3.jpg","38","restless",0.2,0.7,0.7,0.677505458036409,"true"
"image-keyboard-response",63,96586,"0.0-3.17-1.17","u90p8w3c82fw1d8",471,"157.csv","","null","resources/maskTrios/BT2B.jpg","null","",NA,NA,NA,NA,""
"image-keyboard-response",64,97788,"0.0-3.17-2.17","u90p8w3c82fw1d8",471,"157.csv","","null","resources/images/coin2.png","null","",NA,NA,NA,NA,""
"image-keyboard-response",65,98454,"0.0-3.18-0.18","u90p8w3c82fw1d8",471,"157.csv","","665","resources/trios/L2T2A2.jpg","39","restless",0.1,0.7,0.7,0.751755574022657,"false"
"image-keyboard-response",66,98859,"0.0-3.18-1.18","u90p8w3c82fw1d8",471,"157.csv","","null","resources/maskTrios/BBA2.jpg","null","",NA,NA,NA,NA,""
"image-keyboard-response",67,100063,"0.0-3.18-2.18","u90p8w3c82fw1d8",471,"157.csv","","null","resources/images/fishbone.png","null","",NA,NA,NA,NA,""
"image-keyboard-response",68,100542,"0.0-3.19-0.19","u90p8w3c82fw1d8",471,"157.csv","","477.79999999701977","resources/trios/L4T4A3.jpg","37","restless",0.1,0.6,0.7,0.723181145224578,"false"
"image-keyboard-response",69,100948,"0.0-3.19-1.19","u90p8w3c82fw1d8",471,"157.csv","","null","resources/maskTrios/L4BB.jpg","null","",NA,NA,NA,NA,""
"image-keyboard-response",70,102150,"0.0-3.19-2.19","u90p8w3c82fw1d8",471,"157.csv","","null","resources/images/fishbone.png","null","",NA,NA,NA,NA,""
"image-keyboard-response",71,102599,"0.0-3.20-0.20","u90p8w3c82fw1d8",471,"157.csv","","448.40000000596046","resources/trios/L2T2A2.jpg","38","restless",0.1,0.6,0.7,0.215911752399435,"true"
"image-keyboard-response",72,103004,"0.0-3.20-1.20","u90p8w3c82fw1d8",471,"157.csv","","null","resources/maskTrios/BT2B.jpg","null","",NA,NA,NA,NA,""
"image-keyboard-response",73,104211,"0.0-3.20-2.20","u90p8w3c82fw1d8",471,"157.csv","","null","resources/images/coin2.png","null","",NA,NA,NA,NA,""
"image-keyboard-response",74,104769,"0.0-3.21-0.21","u90p8w3c82fw1d8",471,"157.csv","","557.2999999970198","resources/trios/L2T2A3.jpg","39","restless",0.2,0.6,0.7,0.377246241541817,"true"
"image-keyboard-response",75,105176,"0.0-3.21-1.21","u90p8w3c82fw1d8",471,"157.csv","","null","resources/maskTrios/BBA3.jpg","null","",NA,NA,NA,NA,""
"image-keyboard-response",76,106380,"0.0-3.21-2.21","u90p8w3c82fw1d8",471,"157.csv","","null","resources/images/coin2.png","null","",NA,NA,NA,NA,""
"image-keyboard-response",77,106972,"0.0-3.22-0.22","u90p8w3c82fw1d8",471,"157.csv","","590.4000000059605","resources/trios/L2T2A3.jpg","38","restless",0.2,0.6,0.7,0.3026381382646,"true"
"image-keyboard-response",78,107378,"0.0-3.22-1.22","u90p8w3c82fw1d8",471,"157.csv","","null","resources/maskTrios/BT2B.jpg","null","",NA,NA,NA,NA,""
"image-keyboard-response",79,108585,"0.0-3.22-2.22","u90p8w3c82fw1d8",471,"157.csv","","null","resources/images/coin2.png","null","",NA,NA,NA,NA,""
"image-keyboard-response",80,109212,"0.0-3.23-0.23","u90p8w3c82fw1d8",471,"157.csv","","625.6000000089407","resources/trios/L4T2A3.jpg","37","restless",0.2,0.6,0.7,0.621911266739283,"false"
"image-keyboard-response",81,109628,"0.0-3.23-1.23","u90p8w3c82fw1d8",471,"157.csv","","null","resources/maskTrios/L4BB.jpg","null","",NA,NA,NA,NA,""
"image-keyboard-response",82,110832,"0.0-3.23-2.23","u90p8w3c82fw1d8",471,"157.csv","","null","resources/images/fishbone.png","null","",NA,NA,NA,NA,""
"image-keyboard-response",83,111244,"0.0-3.24-0.24","u90p8w3c82fw1d8",471,"157.csv","","411.29999999701977","resources/trios/L4T2A2.jpg","39","restless",0.2,0.6,0.8,0.132656997525284,"true"
"image-keyboard-response",84,111651,"0.0-3.24-1.24","u90p8w3c82fw1d8",471,"157.csv","","null","resources/maskTrios/BBA2.jpg","null","",NA,NA,NA,NA,""
"image-keyboard-response",85,112852,"0.0-3.24-2.24","u90p8w3c82fw1d8",471,"157.csv","","null","resources/images/coin2.png","null","",NA,NA,NA,NA,""
"image-keyboard-response",86,113271,"0.0-3.25-0.25","u90p8w3c82fw1d8",471,"157.csv","","417.20000000298023","resources/trios/L4T4A2.jpg","38","restless",0.2,0.6,0.8,0.0337961122747579,"true"
"image-keyboard-response",87,113677,"0.0-3.25-1.25","u90p8w3c82fw1d8",471,"157.csv","","null","resources/maskTrios/BT4B.jpg","null","",NA,NA,NA,NA,""
"image-keyboard-response",88,114884,"0.0-3.25-2.25","u90p8w3c82fw1d8",471,"157.csv","","null","resources/images/coin2.png","null","",NA,NA,NA,NA,""
"image-keyboard-response",89,115706,"0.0-3.26-0.26","u90p8w3c82fw1d8",471,"157.csv","","821.3999999910593","resources/trios/L2T4A2.jpg","37","restless",0.2,0.7,0.8,0.141649826590276,"true"
"image-keyboard-response",90,116109,"0.0-3.26-1.26","u90p8w3c82fw1d8",471,"157.csv","","null","resources/maskTrios/L2BB.jpg","null","",NA,NA,NA,NA,""
"image-keyboard-response",91,117313,"0.0-3.26-2.26","u90p8w3c82fw1d8",471,"157.csv","","null","resources/images/coin2.png","null","",NA,NA,NA,NA,""
"image-keyboard-response",92,117693,"0.0-3.27-0.27","u90p8w3c82fw1d8",471,"157.csv","","378.70000000298023","resources/trios/L4T4A2.jpg","39","restless",0.2,0.7,0.9,0.521206477241097,"true"
"image-keyboard-response",93,118098,"0.0-3.27-1.27","u90p8w3c82fw1d8",471,"157.csv","","null","resources/maskTrios/BBA2.jpg","null","",NA,NA,NA,NA,""
"image-keyboard-response",94,119301,"0.0-3.27-2.27","u90p8w3c82fw1d8",471,"157.csv","","null","resources/images/coin2.png","null","",NA,NA,NA,NA,""
"image-keyboard-response",95,120207,"0.0-3.28-0.28","u90p8w3c82fw1d8",471,"157.csv","","904.7999999970198","resources/trios/L2T4A2.jpg","37","restless",0.3,0.7,0.9,0.176609197689613,"true"
"image-keyboard-response",96,120612,"0.0-3.28-1.28","u90p8w3c82fw1d8",471,"157.csv","","null","resources/maskTrios/L2BB.jpg","null","",NA,NA,NA,NA,""
"image-keyboard-response",97,121819,"0.0-3.28-2.28","u90p8w3c82fw1d8",471,"157.csv","","null","resources/images/coin2.png","null","",NA,NA,NA,NA,""
"image-keyboard-response",98,122264,"0.0-3.29-0.29","u90p8w3c82fw1d8",471,"157.csv","","443.5","resources/trios/L4T2A3.jpg","39","restless",0.3,0.7,0.9,0.292048271033292,"true"
"image-keyboard-response",99,122666,"0.0-3.29-1.29","u90p8w3c82fw1d8",471,"157.csv","","null","resources/maskTrios/BBA3.jpg","null","",NA,NA,NA,NA,""
"image-keyboard-response",100,123873,"0.0-3.29-2.29","u90p8w3c82fw1d8",471,"157.csv","","null","resources/images/coin2.png","null","",NA,NA,NA,NA,""
"image-keyboard-response",101,124354,"0.0-3.30-0.30","u90p8w3c82fw1d8",471,"157.csv","","479.59999999403954","resources/trios/L2T4A2.jpg","38","restless",0.3,0.7,0.9,0.514285347944406,"true"
"image-keyboard-response",102,124756,"0.0-3.30-1.30","u90p8w3c82fw1d8",471,"157.csv","","null","resources/maskTrios/BT4B.jpg","null","",NA,NA,NA,NA,""
"image-keyboard-response",103,125959,"0.0-3.30-2.30","u90p8w3c82fw1d8",471,"157.csv","","null","resources/images/coin2.png","null","",NA,NA,NA,NA,""
"image-keyboard-response",104,126404,"0.0-3.31-0.31","u90p8w3c82fw1d8",471,"157.csv","","442.79999999701977","resources/trios/L2T2A2.jpg","37","restless",0.4,0.7,0.8,0.594972818948772,"false"
"image-keyboard-response",105,126809,"0.0-3.31-1.31","u90p8w3c82fw1d8",471,"157.csv","","null","resources/maskTrios/L2BB.jpg","null","",NA,NA,NA,NA,""
"image-keyboard-response",106,128011,"0.0-3.31-2.31","u90p8w3c82fw1d8",471,"157.csv","","null","resources/images/fishbone.png","null","",NA,NA,NA,NA,""
"image-keyboard-response",107,128332,"0.0-3.32-0.32","u90p8w3c82fw1d8",471,"157.csv","","320","resources/trios/L4T2A3.jpg","39","restless",0.4,0.7,0.8,0.55744171979514,"true"
"image-keyboard-response",108,128736,"0.0-3.32-1.32","u90p8w3c82fw1d8",471,"157.csv","","null","resources/maskTrios/BBA3.jpg","null","",NA,NA,NA,NA,""
"image-keyboard-response",109,129940,"0.0-3.32-2.32","u90p8w3c82fw1d8",471,"157.csv","","null","resources/images/coin2.png","null","",NA,NA,NA,NA,""
"image-keyboard-response",110,130398,"0.0-3.33-0.33","u90p8w3c82fw1d8",471,"157.csv","","456.6000000089407","resources/trios/L2T2A3.jpg","38","restless",0.4,0.7,0.8,0.312220970628567,"true"
"image-keyboard-response",111,130803,"0.0-3.33-1.33","u90p8w3c82fw1d8",471,"157.csv","","null","resources/maskTrios/BT2B.jpg","null","",NA,NA,NA,NA,""
"image-keyboard-response",112,132007,"0.0-3.33-2.33","u90p8w3c82fw1d8",471,"157.csv","","null","resources/images/coin2.png","null","",NA,NA,NA,NA,""
"image-keyboard-response",113,132478,"0.0-3.34-0.34","u90p8w3c82fw1d8",471,"157.csv","","468.79999999701977","resources/trios/L4T4A2.jpg","39","restless",0.4,0.7,0.8,0.788466203482497,"true"
"image-keyboard-response",114,132884,"0.0-3.34-1.34","u90p8w3c82fw1d8",471,"157.csv","","null","resources/maskTrios/BBA2.jpg","null","",NA,NA,NA,NA,""
"image-keyboard-response",115,134091,"0.0-3.34-2.34","u90p8w3c82fw1d8",471,"157.csv","","null","resources/images/coin2.png","null","",NA,NA,NA,NA,""
"image-keyboard-response",116,134457,"0.0-3.35-0.35","u90p8w3c82fw1d8",471,"157.csv","","364.40000000596046","resources/trios/L2T2A3.jpg","37","restless",0.4,0.7,0.8,0.782048056256306,"false"
"image-keyboard-response",117,134863,"0.0-3.35-1.35","u90p8w3c82fw1d8",471,"157.csv","","null","resources/maskTrios/L2BB.jpg","null","",NA,NA,NA,NA,""
"image-keyboard-response",118,136065,"0.0-3.35-2.35","u90p8w3c82fw1d8",471,"157.csv","","null","resources/images/fishbone.png","null","",NA,NA,NA,NA,""
"image-keyboard-response",119,136488,"0.0-3.36-0.36","u90p8w3c82fw1d8",471,"157.csv","","421.79999999701977","resources/trios/L2T4A2.jpg","38","restless",0.5,0.7,0.8,0.750921841645083,"false"
"image-keyboard-response",120,136892,"0.0-3.36-1.36","u90p8w3c82fw1d8",471,"157.csv","","null","resources/maskTrios/BT4B.jpg","null","",NA,NA,NA,NA,""
"image-keyboard-response",121,138095,"0.0-3.36-2.36","u90p8w3c82fw1d8",471,"157.csv","","null","resources/images/fishbone.png","null","",NA,NA,NA,NA,""
"image-keyboard-response",122,138420,"0.0-3.37-0.37","u90p8w3c82fw1d8",471,"157.csv","","322.29999999701977","resources/trios/L2T4A3.jpg","39","restless",0.5,0.7,0.8,0.510482502693307,"true"
"image-keyboard-response",123,138822,"0.0-3.37-1.37","u90p8w3c82fw1d8",471,"157.csv","","null","resources/maskTrios/BBA3.jpg","null","",NA,NA,NA,NA,""
"image-keyboard-response",124,140026,"0.0-3.37-2.37","u90p8w3c82fw1d8",471,"157.csv","","null","resources/images/coin2.png","null","",NA,NA,NA,NA,""
"image-keyboard-response",125,140408,"0.0-3.38-0.38","u90p8w3c82fw1d8",471,"157.csv","","380.40000000596046","resources/trios/L2T2A3.jpg","37","restless",0.5,0.7,0.8,0.214350000870846,"true"
"image-keyboard-response",126,140810,"0.0-3.38-1.38","u90p8w3c82fw1d8",471,"157.csv","","null","resources/maskTrios/L2BB.jpg","null","",NA,NA,NA,NA,""
"image-keyboard-response",127,142013,"0.0-3.38-2.38","u90p8w3c82fw1d8",471,"157.csv","","null","resources/images/coin2.png","null","",NA,NA,NA,NA,""
"image-keyboard-response",128,142323,"0.0-3.39-0.39","u90p8w3c82fw1d8",471,"157.csv","","309.40000000596046","resources/trios/L2T2A3.jpg","38","restless",0.5,0.7,0.8,0.154347134953646,"true"
"image-keyboard-response",129,142729,"0.0-3.39-1.39","u90p8w3c82fw1d8",471,"157.csv","","null","resources/maskTrios/BT2B.jpg","null","",NA,NA,NA,NA,""
"image-keyboard-response",130,143936,"0.0-3.39-2.39","u90p8w3c82fw1d8",471,"157.csv","","null","resources/images/coin2.png","null","",NA,NA,NA,NA,""
"image-keyboard-response",131,144290,"0.0-3.40-0.40","u90p8w3c82fw1d8",471,"157.csv","","352.59999999403954","resources/trios/L2T4A2.jpg","39","restless",0.5,0.7,0.8,0.69851867965641,"true"
"image-keyboard-response",132,144694,"0.0-3.40-1.40","u90p8w3c82fw1d8",471,"157.csv","","null","resources/maskTrios/BBA2.jpg","null","",NA,NA,NA,NA,""
"image-keyboard-response",133,145898,"0.0-3.40-2.40","u90p8w3c82fw1d8",471,"157.csv","","null","resources/images/coin2.png","null","",NA,NA,NA,NA,""
"image-keyboard-response",134,146470,"0.0-3.41-0.41","u90p8w3c82fw1d8",471,"157.csv","","570.1000000089407","resources/trios/L4T4A3.jpg","37","restless",0.5,0.7,0.8,0.759760279065989,"false"
"image-keyboard-response",135,146874,"0.0-3.41-1.41","u90p8w3c82fw1d8",471,"157.csv","","null","resources/maskTrios/L4BB.jpg","null","",NA,NA,NA,NA,""
"image-keyboard-response",136,148077,"0.0-3.41-2.41","u90p8w3c82fw1d8",471,"157.csv","","null","resources/images/fishbone.png","null","",NA,NA,NA,NA,""
"image-keyboard-response",137,148457,"0.0-3.42-0.42","u90p8w3c82fw1d8",471,"157.csv","","377.5","resources/trios/L2T2A3.jpg","38","restless",0.5,0.7,0.8,0.143550212725713,"true"
"image-keyboard-response",138,148863,"0.0-3.42-1.42","u90p8w3c82fw1d8",471,"157.csv","","null","resources/maskTrios/BT2B.jpg","null","",NA,NA,NA,NA,""
"image-keyboard-response",139,150065,"0.0-3.42-2.42","u90p8w3c82fw1d8",471,"157.csv","","null","resources/images/coin2.png","null","",NA,NA,NA,NA,""
"image-keyboard-response",140,150557,"0.0-3.43-0.43","u90p8w3c82fw1d8",471,"157.csv","","490.59999999403954","resources/trios/L2T4A3.jpg","39","restless",0.5,0.7,0.8,0.755848670036637,"true"
"image-keyboard-response",141,150964,"0.0-3.43-1.43","u90p8w3c82fw1d8",471,"157.csv","","null","resources/maskTrios/BBA3.jpg","null","",NA,NA,NA,NA,""
"image-keyboard-response",142,152169,"0.0-3.43-2.43","u90p8w3c82fw1d8",471,"157.csv","","null","resources/images/coin2.png","null","",NA,NA,NA,NA,""
"image-keyboard-response",143,152834,"0.0-3.44-0.44","u90p8w3c82fw1d8",471,"157.csv","","664.3000000119209","resources/trios/L4T2A3.jpg","37","restless",0.5,0.7,0.8,0.925767202303945,"false"
"image-keyboard-response",144,153238,"0.0-3.44-1.44","u90p8w3c82fw1d8",471,"157.csv","","null","resources/maskTrios/L4BB.jpg","null","",NA,NA,NA,NA,""
"image-keyboard-response",145,154440,"0.0-3.44-2.44","u90p8w3c82fw1d8",471,"157.csv","","null","resources/images/fishbone.png","null","",NA,NA,NA,NA,""
"image-keyboard-response",146,155346,"0.0-3.45-0.45","u90p8w3c82fw1d8",471,"157.csv","","904.8999999910593","resources/trios/L2T2A3.jpg","38","restless",0.5,0.7,0.8,0.0565883515197683,"true"
"image-keyboard-response",147,155751,"0.0-3.45-1.45","u90p8w3c82fw1d8",471,"157.csv","","null","resources/maskTrios/BT2B.jpg","null","",NA,NA,NA,NA,""
"image-keyboard-response",148,156957,"0.0-3.45-2.45","u90p8w3c82fw1d8",471,"157.csv","","null","resources/images/coin2.png","null","",NA,NA,NA,NA,""
"image-keyboard-response",149,157371,"0.0-3.46-0.46","u90p8w3c82fw1d8",471,"157.csv","","412.1000000089407","resources/trios/L2T2A2.jpg","39","restless",0.5,0.7,0.8,0.78479724517268,"true"
"image-keyboard-response",150,157773,"0.0-3.46-1.46","u90p8w3c82fw1d8",471,"157.csv","","null","resources/maskTrios/BBA2.jpg","null","",NA,NA,NA,NA,""
"image-keyboard-response",151,158977,"0.0-3.46-2.46","u90p8w3c82fw1d8",471,"157.csv","","null","resources/images/coin2.png","null","",NA,NA,NA,NA,""
"image-keyboard-response",152,159697,"0.0-3.47-0.47","u90p8w3c82fw1d8",471,"157.csv","","718.1999999880791","resources/trios/L4T2A2.jpg","37","restless",0.6,0.6,0.8,0.768881099396669,"false"
"image-keyboard-response",153,160099,"0.0-3.47-1.47","u90p8w3c82fw1d8",471,"157.csv","","null","resources/maskTrios/L4BB.jpg","null","",NA,NA,NA,NA,""
"image-keyboard-response",154,161301,"0.0-3.47-2.47","u90p8w3c82fw1d8",471,"157.csv","","null","resources/images/fishbone.png","null","",NA,NA,NA,NA,""
"image-keyboard-response",155,161676,"0.0-3.48-0.48","u90p8w3c82fw1d8",471,"157.csv","","373.40000000596046","resources/trios/L4T2A2.jpg","38","restless",0.6,0.6,0.8,0.205001212712647,"true"
"image-keyboard-response",156,162080,"0.0-3.48-1.48","u90p8w3c82fw1d8",471,"157.csv","","null","resources/maskTrios/BT2B.jpg","null","",NA,NA,NA,NA,""
"image-keyboard-response",157,163283,"0.0-3.48-2.48","u90p8w3c82fw1d8",471,"157.csv","","null","resources/images/coin2.png","null","",NA,NA,NA,NA,""
"image-keyboard-response",158,163717,"0.0-3.49-0.49","u90p8w3c82fw1d8",471,"157.csv","","432.5","resources/trios/L2T4A3.jpg","39","restless",0.6,0.6,0.8,0.956575879236546,"false"
"image-keyboard-response",159,164124,"0.0-3.49-1.49","u90p8w3c82fw1d8",471,"157.csv","","null","resources/maskTrios/BBA3.jpg","null","",NA,NA,NA,NA,""
"image-keyboard-response",160,165326,"0.0-3.49-2.49","u90p8w3c82fw1d8",471,"157.csv","","null","resources/images/fishbone.png","null","",NA,NA,NA,NA,""
"image-keyboard-response",161,165725,"0.0-3.50-0.50","u90p8w3c82fw1d8",471,"157.csv","","397.20000000298023","resources/trios/L4T2A3.jpg","37","restless",0.6,0.6,0.8,0.270070153693446,"true"
"image-keyboard-response",162,166131,"0.0-3.50-1.50","u90p8w3c82fw1d8",471,"157.csv","","null","resources/maskTrios/L4BB.jpg","null","",NA,NA,NA,NA,""
"image-keyboard-response",163,167333,"0.0-3.50-2.50","u90p8w3c82fw1d8",471,"157.csv","","null","resources/images/coin2.png","null","",NA,NA,NA,NA,""
"image-keyboard-response",164,167877,"0.0-3.51-0.51","u90p8w3c82fw1d8",471,"157.csv","","542.5","resources/trios/L4T4A3.jpg","38","restless",0.6,0.6,0.7,0.462249928119649,"true"
"image-keyboard-response",165,168282,"0.0-3.51-1.51","u90p8w3c82fw1d8",471,"157.csv","","null","resources/maskTrios/BT4B.jpg","null","",NA,NA,NA,NA,""
"image-keyboard-response",166,169486,"0.0-3.51-2.51","u90p8w3c82fw1d8",471,"157.csv","","null","resources/images/coin2.png","null","",NA,NA,NA,NA,""
"image-keyboard-response",167,170075,"0.0-3.52-0.52","u90p8w3c82fw1d8",471,"157.csv","","587.8000000119209","resources/trios/L4T2A3.jpg","39","restless",0.6,0.5,0.7,0.678655429225933,"true"
"image-keyboard-response",168,170480,"0.0-3.52-1.52","u90p8w3c82fw1d8",471,"157.csv","","null","resources/maskTrios/BBA3.jpg","null","",NA,NA,NA,NA,""
"image-keyboard-response",169,171685,"0.0-3.52-2.52","u90p8w3c82fw1d8",471,"157.csv","","null","resources/images/coin2.png","null","",NA,NA,NA,NA,""
"image-keyboard-response",170,172061,"0.0-3.53-0.53","u90p8w3c82fw1d8",471,"157.csv","","374.80000001192093","resources/trios/L2T2A2.jpg","37","restless",0.6,0.5,0.7,0.390372571719231,"true"
"image-keyboard-response",171,172463,"0.0-3.53-1.53","u90p8w3c82fw1d8",471,"157.csv","","null","resources/maskTrios/L2BB.jpg","null","",NA,NA,NA,NA,""
"image-keyboard-response",172,173664,"0.0-3.53-2.53","u90p8w3c82fw1d8",471,"157.csv","","null","resources/images/coin2.png","null","",NA,NA,NA,NA,""
"image-keyboard-response",173,174073,"0.0-3.54-0.54","u90p8w3c82fw1d8",471,"157.csv","","407.5","resources/trios/L2T4A2.jpg","38","restless",0.6,0.5,0.7,0.668713469711163,"false"
"image-keyboard-response",174,174478,"0.0-3.54-1.54","u90p8w3c82fw1d8",471,"157.csv","","null","resources/maskTrios/BT4B.jpg","null","",NA,NA,NA,NA,""
"image-keyboard-response",175,175682,"0.0-3.54-2.54","u90p8w3c82fw1d8",471,"157.csv","","null","resources/images/fishbone.png","null","",NA,NA,NA,NA,""
"image-keyboard-response",176,176154,"0.0-3.55-0.55","u90p8w3c82fw1d8",471,"157.csv","","470.29999999701977","resources/trios/L4T4A3.jpg","39","restless",0.5,0.6,0.7,0.761586452400251,"false"
"image-keyboard-response",177,176555,"0.0-3.55-1.55","u90p8w3c82fw1d8",471,"157.csv","","null","resources/maskTrios/BBA3.jpg","null","",NA,NA,NA,NA,""
"image-keyboard-response",178,177757,"0.0-3.55-2.55","u90p8w3c82fw1d8",471,"157.csv","","null","resources/images/fishbone.png","null","",NA,NA,NA,NA,""
"image-keyboard-response",179,178189,"0.0-3.56-0.56","u90p8w3c82fw1d8",471,"157.csv","","430.20000000298023","resources/trios/L2T4A2.jpg","37","restless",0.5,0.5,0.7,0.476700698548545,"true"
"image-keyboard-response",180,178592,"0.0-3.56-1.56","u90p8w3c82fw1d8",471,"157.csv","","null","resources/maskTrios/L2BB.jpg","null","",NA,NA,NA,NA,""
"image-keyboard-response",181,179798,"0.0-3.56-2.56","u90p8w3c82fw1d8",471,"157.csv","","null","resources/images/coin2.png","null","",NA,NA,NA,NA,""
"image-keyboard-response",182,180507,"0.0-3.57-0.57","u90p8w3c82fw1d8",471,"157.csv","","707.0999999940395","resources/trios/L4T4A3.jpg","38","restless",0.5,0.5,0.7,0.142842183233307,"true"
"image-keyboard-response",183,180909,"0.0-3.57-1.57","u90p8w3c82fw1d8",471,"157.csv","","null","resources/maskTrios/BT4B.jpg","null","",NA,NA,NA,NA,""
"image-keyboard-response",184,182110,"0.0-3.57-2.57","u90p8w3c82fw1d8",471,"157.csv","","null","resources/images/coin2.png","null","",NA,NA,NA,NA,""
"image-keyboard-response",185,182630,"0.0-3.58-0.58","u90p8w3c82fw1d8",471,"157.csv","","517.7999999970198","resources/trios/L4T4A3.jpg","39","restless",0.5,0.5,0.8,0.384422674617202,"true"
"image-keyboard-response",186,183036,"0.0-3.58-1.58","u90p8w3c82fw1d8",471,"157.csv","","null","resources/maskTrios/BBA3.jpg","null","",NA,NA,NA,NA,""
"image-keyboard-response",187,184243,"0.0-3.58-2.58","u90p8w3c82fw1d8",471,"157.csv","","null","resources/images/coin2.png","null","",NA,NA,NA,NA,""
"image-keyboard-response",188,184928,"0.0-3.59-0.59","u90p8w3c82fw1d8",471,"157.csv","","683.2000000029802","resources/trios/L4T2A2.jpg","37","restless",0.5,0.5,0.8,0.0583690800677601,"true"
"image-keyboard-response",189,185334,"0.0-3.59-1.59","u90p8w3c82fw1d8",471,"157.csv","","null","resources/maskTrios/L4BB.jpg","null","",NA,NA,NA,NA,""
"image-keyboard-response",190,186539,"0.0-3.59-2.59","u90p8w3c82fw1d8",471,"157.csv","","null","resources/images/coin2.png","null","",NA,NA,NA,NA,""
"image-keyboard-response",191,187418,"0.0-3.60-0.60","u90p8w3c82fw1d8",471,"157.csv","","877.8999999910593","resources/trios/L4T4A2.jpg","38","restless",0.5,0.5,0.8,0.73507950676297,"false"
"image-keyboard-response",192,187821,"0.0-3.60-1.60","u90p8w3c82fw1d8",471,"157.csv","","null","resources/maskTrios/BT4B.jpg","null","",NA,NA,NA,NA,""
"image-keyboard-response",193,189026,"0.0-3.60-2.60","u90p8w3c82fw1d8",471,"157.csv","","null","resources/images/fishbone.png","null","",NA,NA,NA,NA,""
"image-keyboard-response",194,189404,"0.0-3.61-0.61","u90p8w3c82fw1d8",471,"157.csv","","376.90000000596046","resources/trios/L2T4A3.jpg","39","restless",0.4,0.5,0.8,0.900797194848684,"false"
"image-keyboard-response",195,189810,"0.0-3.61-1.61","u90p8w3c82fw1d8",471,"157.csv","","null","resources/maskTrios/BBA3.jpg","null","",NA,NA,NA,NA,""
"image-keyboard-response",196,191012,"0.0-3.61-2.61","u90p8w3c82fw1d8",471,"157.csv","","null","resources/images/fishbone.png","null","",NA,NA,NA,NA,""
"image-keyboard-response",197,191429,"0.0-3.62-0.62","u90p8w3c82fw1d8",471,"157.csv","","416.20000000298023","resources/trios/L4T4A3.jpg","37","restless",0.4,0.5,0.8,0.554038786731697,"false"
"image-keyboard-response",198,191833,"0.0-3.62-1.62","u90p8w3c82fw1d8",471,"157.csv","","null","resources/maskTrios/L4BB.jpg","null","",NA,NA,NA,NA,""
"image-keyboard-response",199,193038,"0.0-3.62-2.62","u90p8w3c82fw1d8",471,"157.csv","","null","resources/images/fishbone.png","null","",NA,NA,NA,NA,""
"image-keyboard-response",200,193404,"0.0-3.63-0.63","u90p8w3c82fw1d8",471,"157.csv","","364.6000000089407","resources/trios/L4T4A2.jpg","38","restless",0.4,0.5,0.8,0.044339404923313,"true"
"image-keyboard-response",201,193810,"0.0-3.63-1.63","u90p8w3c82fw1d8",471,"157.csv","","null","resources/maskTrios/BT4B.jpg","null","",NA,NA,NA,NA,""
"image-keyboard-response",202,195012,"0.0-3.63-2.63","u90p8w3c82fw1d8",471,"157.csv","","null","resources/images/coin2.png","null","",NA,NA,NA,NA,""
"image-keyboard-response",203,195496,"0.0-3.64-0.64","u90p8w3c82fw1d8",471,"157.csv","","482.8999999910593","resources/trios/L4T2A3.jpg","39","restless",0.4,0.5,0.8,0.985386477951941,"false"
"image-keyboard-response",204,195903,"0.0-3.64-1.64","u90p8w3c82fw1d8",471,"157.csv","","null","resources/maskTrios/BBA3.jpg","null","",NA,NA,NA,NA,""
"image-keyboard-response",205,197107,"0.0-3.64-2.64","u90p8w3c82fw1d8",471,"157.csv","","null","resources/images/fishbone.png","null","",NA,NA,NA,NA,""
"image-keyboard-response",206,197535,"0.0-3.65-0.65","u90p8w3c82fw1d8",471,"157.csv","","427.20000000298023","resources/trios/L4T2A3.jpg","37","restless",0.4,0.5,0.8,0.73656717697782,"false"
"image-keyboard-response",207,197942,"0.0-3.65-1.65","u90p8w3c82fw1d8",471,"157.csv","","null","resources/maskTrios/L4BB.jpg","null","",NA,NA,NA,NA,""
"image-keyboard-response",208,199148,"0.0-3.65-2.65","u90p8w3c82fw1d8",471,"157.csv","","null","resources/images/fishbone.png","null","",NA,NA,NA,NA,""
"image-keyboard-response",209,199499,"0.0-3.66-0.66","u90p8w3c82fw1d8",471,"157.csv","","349.20000000298023","resources/trios/L4T2A2.jpg","38","restless",0.4,0.5,0.8,0.129167644049914,"true"
"image-keyboard-response",210,199905,"0.0-3.66-1.66","u90p8w3c82fw1d8",471,"157.csv","","null","resources/maskTrios/BT2B.jpg","null","",NA,NA,NA,NA,""
"image-keyboard-response",211,201111,"0.0-3.66-2.66","u90p8w3c82fw1d8",471,"157.csv","","null","resources/images/coin2.png","null","",NA,NA,NA,NA,""
"image-keyboard-response",212,201696,"0.0-3.67-0.67","u90p8w3c82fw1d8",471,"157.csv","","583.7999999970198","resources/trios/L2T2A2.jpg","39","restless",0.4,0.5,0.8,0.466988560144531,"true"
"image-keyboard-response",213,202102,"0.0-3.67-1.67","u90p8w3c82fw1d8",471,"157.csv","","null","resources/maskTrios/BBA2.jpg","null","",NA,NA,NA,NA,""
"image-keyboard-response",214,203306,"0.0-3.67-2.67","u90p8w3c82fw1d8",471,"157.csv","","null","resources/images/coin2.png","null","",NA,NA,NA,NA,""
"image-keyboard-response",215,203788,"0.0-3.68-0.68","u90p8w3c82fw1d8",471,"157.csv","","480.5","resources/trios/L2T4A3.jpg","37","restless",0.4,0.5,0.8,0.183262648566776,"true"
"image-keyboard-response",216,204192,"0.0-3.68-1.68","u90p8w3c82fw1d8",471,"157.csv","","null","resources/maskTrios/L2BB.jpg","null","",NA,NA,NA,NA,""
"image-keyboard-response",217,205396,"0.0-3.68-2.68","u90p8w3c82fw1d8",471,"157.csv","","null","resources/images/coin2.png","null","",NA,NA,NA,NA,""
"image-keyboard-response",218,205830,"0.0-3.69-0.69","u90p8w3c82fw1d8",471,"157.csv","","432.29999999701977","resources/trios/L4T4A3.jpg","38","restless",0.4,0.4,0.8,0.221331516369095,"true"
"image-keyboard-response",219,206237,"0.0-3.69-1.69","u90p8w3c82fw1d8",471,"157.csv","","null","resources/maskTrios/BT4B.jpg","null","",NA,NA,NA,NA,""
"image-keyboard-response",220,207443,"0.0-3.69-2.69","u90p8w3c82fw1d8",471,"157.csv","","null","resources/images/coin2.png","null","",NA,NA,NA,NA,""
"image-keyboard-response",221,207849,"0.0-3.70-0.70","u90p8w3c82fw1d8",471,"157.csv","","404.70000000298023","resources/trios/L4T4A3.jpg","39","restless",0.4,0.4,0.7,0.0525085273839876,"true"
"image-keyboard-response",222,208256,"0.0-3.70-1.70","u90p8w3c82fw1d8",471,"157.csv","","null","resources/maskTrios/BBA3.jpg","null","",NA,NA,NA,NA,""
"image-keyboard-response",223,209458,"0.0-3.70-2.70","u90p8w3c82fw1d8",471,"157.csv","","null","resources/images/coin2.png","null","",NA,NA,NA,NA,""
"image-keyboard-response",224,209829,"0.0-3.71-0.71","u90p8w3c82fw1d8",471,"157.csv","","369.70000000298023","resources/trios/L4T2A3.jpg","37","restless",0.4,0.3,0.7,0.157714513188232,"true"
"image-keyboard-response",225,210236,"0.0-3.71-1.71","u90p8w3c82fw1d8",471,"157.csv","","null","resources/maskTrios/L4BB.jpg","null","",NA,NA,NA,NA,""
"image-keyboard-response",226,211442,"0.0-3.71-2.71","u90p8w3c82fw1d8",471,"157.csv","","null","resources/images/coin2.png","null","",NA,NA,NA,NA,""
"image-keyboard-response",227,211786,"0.0-3.72-0.72","u90p8w3c82fw1d8",471,"157.csv","","342.30000001192093","resources/trios/L4T4A3.jpg","38","restless",0.4,0.3,0.7,0.74492988087783,"false"
"image-keyboard-response",228,212193,"0.0-3.72-1.72","u90p8w3c82fw1d8",471,"157.csv","","null","resources/maskTrios/BT4B.jpg","null","",NA,NA,NA,NA,""
"image-keyboard-response",229,213396,"0.0-3.72-2.72","u90p8w3c82fw1d8",471,"157.csv","","null","resources/images/fishbone.png","null","",NA,NA,NA,NA,""
"image-keyboard-response",230,213728,"0.0-3.73-0.73","u90p8w3c82fw1d8",471,"157.csv","","329.79999999701977","resources/trios/L4T2A2.jpg","39","restless",0.4,0.3,0.7,0.66066195956203,"true"
"image-keyboard-response",231,214131,"0.0-3.73-1.73","u90p8w3c82fw1d8",471,"157.csv","","null","resources/maskTrios/BBA2.jpg","null","",NA,NA,NA,NA,""
"image-keyboard-response",232,215337,"0.0-3.73-2.73","u90p8w3c82fw1d8",471,"157.csv","","null","resources/images/coin2.png","null","",NA,NA,NA,NA,""
"image-keyboard-response",233,215726,"0.0-3.74-0.74","u90p8w3c82fw1d8",471,"157.csv","","387.8999999910593","resources/trios/L4T2A2.jpg","37","restless",0.4,0.4,0.7,0.471963643518278,"false"
"image-keyboard-response",234,216134,"0.0-3.74-1.74","u90p8w3c82fw1d8",471,"157.csv","","null","resources/maskTrios/L4BB.jpg","null","",NA,NA,NA,NA,""
"image-keyboard-response",235,217338,"0.0-3.74-2.74","u90p8w3c82fw1d8",471,"157.csv","","null","resources/images/fishbone.png","null","",NA,NA,NA,NA,""
"image-keyboard-response",236,217745,"0.0-3.75-0.75","u90p8w3c82fw1d8",471,"157.csv","","404.80000001192093","resources/trios/L4T2A2.jpg","38","restless",0.4,0.4,0.7,0.149546314750097,"true"
"image-keyboard-response",237,218151,"0.0-3.75-1.75","u90p8w3c82fw1d8",471,"157.csv","","null","resources/maskTrios/BT2B.jpg","null","",NA,NA,NA,NA,""
"image-keyboard-response",238,219357,"0.0-3.75-2.75","u90p8w3c82fw1d8",471,"157.csv","","null","resources/images/coin2.png","null","",NA,NA,NA,NA,""
"image-keyboard-response",239,219831,"0.0-3.76-0.76","u90p8w3c82fw1d8",471,"157.csv","","472.3999999910593","resources/trios/L2T4A3.jpg","39","restless",0.3,0.4,0.8,0.651507540096139,"true"
"image-keyboard-response",240,220236,"0.0-3.76-1.76","u90p8w3c82fw1d8",471,"157.csv","","null","resources/maskTrios/BBA3.jpg","null","",NA,NA,NA,NA,""
"image-keyboard-response",241,221442,"0.0-3.76-2.76","u90p8w3c82fw1d8",471,"157.csv","","null","resources/images/coin2.png","null","",NA,NA,NA,NA,""
"image-keyboard-response",242,221843,"0.0-3.77-0.77","u90p8w3c82fw1d8",471,"157.csv","","399.80000001192093","resources/trios/L4T2A2.jpg","37","restless",0.3,0.4,0.8,0.689064280384465,"false"
"image-keyboard-response",243,222247,"0.0-3.77-1.77","u90p8w3c82fw1d8",471,"157.csv","","null","resources/maskTrios/L4BB.jpg","null","",NA,NA,NA,NA,""
"image-keyboard-response",244,223454,"0.0-3.77-2.77","u90p8w3c82fw1d8",471,"157.csv","","null","resources/images/fishbone.png","null","",NA,NA,NA,NA,""
"image-keyboard-response",245,223802,"0.0-3.78-0.78","u90p8w3c82fw1d8",471,"157.csv","","346.59999999403954","resources/trios/L2T4A2.jpg","38","restless",0.4,0.4,0.8,0.492789525360452,"false"
"image-keyboard-response",246,224206,"0.0-3.78-1.78","u90p8w3c82fw1d8",471,"157.csv","","null","resources/maskTrios/BT4B.jpg","null","",NA,NA,NA,NA,""
"image-keyboard-response",247,225410,"0.0-3.78-2.78","u90p8w3c82fw1d8",471,"157.csv","","null","resources/images/fishbone.png","null","",NA,NA,NA,NA,""
"image-keyboard-response",248,225747,"0.0-3.79-0.79","u90p8w3c82fw1d8",471,"157.csv","","336","resources/trios/L2T2A3.jpg","39","restless",0.4,0.3,0.8,0.329862193157736,"true"
"image-keyboard-response",249,226154,"0.0-3.79-1.79","u90p8w3c82fw1d8",471,"157.csv","","null","resources/maskTrios/BBA3.jpg","null","",NA,NA,NA,NA,""
"image-keyboard-response",250,227358,"0.0-3.79-2.79","u90p8w3c82fw1d8",471,"157.csv","","null","resources/images/coin2.png","null","",NA,NA,NA,NA,""
"image-keyboard-response",251,227806,"0.0-3.80-0.80","u90p8w3c82fw1d8",471,"157.csv","","446.70000000298023","resources/trios/L2T2A3.jpg","37","restless",0.4,0.4,0.8,0.334285213865864,"true"
"image-keyboard-response",252,228212,"0.0-3.80-1.80","u90p8w3c82fw1d8",471,"157.csv","","null","resources/maskTrios/L2BB.jpg","null","",NA,NA,NA,NA,""
"image-keyboard-response",253,229418,"0.0-3.80-2.80","u90p8w3c82fw1d8",471,"157.csv","","null","resources/images/coin2.png","null","",NA,NA,NA,NA,""
"image-keyboard-response",254,229847,"0.0-3.81-0.81","u90p8w3c82fw1d8",471,"157.csv","","427.29999999701977","resources/trios/L2T4A2.jpg","38","restless",0.4,0.4,0.8,0.275959959671351,"true"
"image-keyboard-response",255,230252,"0.0-3.81-1.81","u90p8w3c82fw1d8",471,"157.csv","","null","resources/maskTrios/BT4B.jpg","null","",NA,NA,NA,NA,""
"image-keyboard-response",256,231455,"0.0-3.81-2.81","u90p8w3c82fw1d8",471,"157.csv","","null","resources/images/coin2.png","null","",NA,NA,NA,NA,""
"image-keyboard-response",257,231797,"0.0-3.82-0.82","u90p8w3c82fw1d8",471,"157.csv","","340.79999999701977","resources/trios/L4T4A2.jpg","39","restless",0.4,0.4,0.8,0.0923112830493029,"true"
"image-keyboard-response",258,232201,"0.0-3.82-1.82","u90p8w3c82fw1d8",471,"157.csv","","null","resources/maskTrios/BBA2.jpg","null","",NA,NA,NA,NA,""
"image-keyboard-response",259,233408,"0.0-3.82-2.82","u90p8w3c82fw1d8",471,"157.csv","","null","resources/images/coin2.png","null","",NA,NA,NA,NA,""
"image-keyboard-response",260,233794,"0.0-3.83-0.83","u90p8w3c82fw1d8",471,"157.csv","","385.1000000089407","resources/trios/L2T4A2.jpg","37","restless",0.3,0.4,0.8,0.544444852161253,"false"
"image-keyboard-response",261,234201,"0.0-3.83-1.83","u90p8w3c82fw1d8",471,"157.csv","","null","resources/maskTrios/L2BB.jpg","null","",NA,NA,NA,NA,""
"image-keyboard-response",262,235405,"0.0-3.83-2.83","u90p8w3c82fw1d8",471,"157.csv","","null","resources/images/fishbone.png","null","",NA,NA,NA,NA,""
"image-keyboard-response",263,235800,"0.0-3.84-0.84","u90p8w3c82fw1d8",471,"157.csv","","392.8999999910593","resources/trios/L2T2A2.jpg","38","restless",0.3,0.4,0.8,0.14526514587983,"true"
"image-keyboard-response",264,236203,"0.0-3.84-1.84","u90p8w3c82fw1d8",471,"157.csv","","null","resources/maskTrios/BT2B.jpg","null","",NA,NA,NA,NA,""
"image-keyboard-response",265,237410,"0.0-3.84-2.84","u90p8w3c82fw1d8",471,"157.csv","","null","resources/images/coin2.png","null","",NA,NA,NA,NA,""
"image-keyboard-response",266,237971,"0.0-3.85-0.85","u90p8w3c82fw1d8",471,"157.csv","","559.7999999970198","resources/trios/L2T4A2.jpg","39","restless",0.3,0.4,0.8,0.101718526762288,"true"
"image-keyboard-response",267,238378,"0.0-3.85-1.85","u90p8w3c82fw1d8",471,"157.csv","","null","resources/maskTrios/BBA2.jpg","null","",NA,NA,NA,NA,""
"image-keyboard-response",268,239580,"0.0-3.85-2.85","u90p8w3c82fw1d8",471,"157.csv","","null","resources/images/coin2.png","null","",NA,NA,NA,NA,""
"image-keyboard-response",269,240011,"0.0-3.86-0.86","u90p8w3c82fw1d8",471,"157.csv","","429.3999999910593","resources/trios/L4T4A3.jpg","37","restless",0.3,0.4,0.8,0.648283357695456,"false"
"image-keyboard-response",270,240417,"0.0-3.86-1.86","u90p8w3c82fw1d8",471,"157.csv","","null","resources/maskTrios/L4BB.jpg","null","",NA,NA,NA,NA,""
"image-keyboard-response",271,241623,"0.0-3.86-2.86","u90p8w3c82fw1d8",471,"157.csv","","null","resources/images/fishbone.png","null","",NA,NA,NA,NA,""
"image-keyboard-response",272,241995,"0.0-3.87-0.87","u90p8w3c82fw1d8",471,"157.csv","","370","resources/trios/L4T4A3.jpg","38","restless",0.3,0.4,0.8,0.627031118390154,"false"
"image-keyboard-response",273,242401,"0.0-3.87-1.87","u90p8w3c82fw1d8",471,"157.csv","","null","resources/maskTrios/BT4B.jpg","null","",NA,NA,NA,NA,""
"image-keyboard-response",274,243603,"0.0-3.87-2.87","u90p8w3c82fw1d8",471,"157.csv","","null","resources/images/fishbone.png","null","",NA,NA,NA,NA,""
"image-keyboard-response",275,243928,"0.0-3.88-0.88","u90p8w3c82fw1d8",471,"157.csv","","323.90000000596046","resources/trios/L4T2A3.jpg","39","restless",0.3,0.4,0.8,0.426578740448111,"true"
"image-keyboard-response",276,244333,"0.0-3.88-1.88","u90p8w3c82fw1d8",471,"157.csv","","null","resources/maskTrios/BBA3.jpg","null","",NA,NA,NA,NA,""
"image-keyboard-response",277,245540,"0.0-3.88-2.88","u90p8w3c82fw1d8",471,"157.csv","","null","resources/images/coin2.png","null","",NA,NA,NA,NA,""
"image-keyboard-response",278,246061,"0.0-3.89-0.89","u90p8w3c82fw1d8",471,"157.csv","","520.2000000029802","resources/trios/L4T2A3.jpg","37","restless",0.3,0.4,0.8,0.357512257528522,"false"
"image-keyboard-response",279,246465,"0.0-3.89-1.89","u90p8w3c82fw1d8",471,"157.csv","","null","resources/maskTrios/L4BB.jpg","null","",NA,NA,NA,NA,""
"image-keyboard-response",280,247666,"0.0-3.89-2.89","u90p8w3c82fw1d8",471,"157.csv","","null","resources/images/fishbone.png","null","",NA,NA,NA,NA,""
"image-keyboard-response",281,248030,"0.0-3.90-0.90","u90p8w3c82fw1d8",471,"157.csv","","362.40000000596046","resources/trios/L2T2A3.jpg","38","restless",0.3,0.4,0.7,0.647594152631962,"false"
"image-keyboard-response",282,248437,"0.0-3.90-1.90","u90p8w3c82fw1d8",471,"157.csv","","null","resources/maskTrios/BT2B.jpg","null","",NA,NA,NA,NA,""
"image-keyboard-response",283,249638,"0.0-3.90-2.90","u90p8w3c82fw1d8",471,"157.csv","","null","resources/images/fishbone.png","null","",NA,NA,NA,NA,""
"image-keyboard-response",284,249989,"0.0-3.91-0.91","u90p8w3c82fw1d8",471,"157.csv","","349.20000000298023","resources/trios/L4T4A3.jpg","39","restless",0.3,0.4,0.7,0.720514337072985,"false"
"image-keyboard-response",285,250394,"0.0-3.91-1.91","u90p8w3c82fw1d8",471,"157.csv","","null","resources/maskTrios/BBA3.jpg","null","",NA,NA,NA,NA,""
"image-keyboard-response",286,251596,"0.0-3.91-2.91","u90p8w3c82fw1d8",471,"157.csv","","null","resources/images/fishbone.png","null","",NA,NA,NA,NA,""
"image-keyboard-response",287,252024,"0.0-3.92-0.92","u90p8w3c82fw1d8",471,"157.csv","","426.8999999910593","resources/trios/L4T2A2.jpg","37","restless",0.3,0.3,0.7,0.156417935954961,"true"
"image-keyboard-response",288,252430,"0.0-3.92-1.92","u90p8w3c82fw1d8",471,"157.csv","","null","resources/maskTrios/L4BB.jpg","null","",NA,NA,NA,NA,""
"image-keyboard-response",289,253635,"0.0-3.92-2.92","u90p8w3c82fw1d8",471,"157.csv","","null","resources/images/coin2.png","null","",NA,NA,NA,NA,""
"image-keyboard-response",290,254203,"0.0-3.93-0.93","u90p8w3c82fw1d8",471,"157.csv","","565.3000000119209","resources/trios/L2T2A2.jpg","38","restless",0.3,0.3,0.7,0.923658306524644,"false"
"image-keyboard-response",291,254604,"0.0-3.93-1.93","u90p8w3c82fw1d8",471,"157.csv","","null","resources/maskTrios/BT2B.jpg","null","",NA,NA,NA,NA,""
"image-keyboard-response",292,255808,"0.0-3.93-2.93","u90p8w3c82fw1d8",471,"157.csv","","null","resources/images/fishbone.png","null","",NA,NA,NA,NA,""
"image-keyboard-response",293,256130,"0.0-3.94-0.94","u90p8w3c82fw1d8",471,"157.csv","","321.20000000298023","resources/trios/L2T2A3.jpg","39","restless",0.3,0.3,0.7,0.496545441287971,"true"
"image-keyboard-response",294,256534,"0.0-3.94-1.94","u90p8w3c82fw1d8",471,"157.csv","","null","resources/maskTrios/BBA3.jpg","null","",NA,NA,NA,NA,""
"image-keyboard-response",295,257737,"0.0-3.94-2.94","u90p8w3c82fw1d8",471,"157.csv","","null","resources/images/coin2.png","null","",NA,NA,NA,NA,""
"image-keyboard-response",296,258249,"0.0-3.95-0.95","u90p8w3c82fw1d8",471,"157.csv","","510.40000000596046","resources/trios/L2T4A2.jpg","37","restless",0.3,0.3,0.7,0.787363802064964,"false"
"image-keyboard-response",297,258656,"0.0-3.95-1.95","u90p8w3c82fw1d8",471,"157.csv","","null","resources/maskTrios/L2BB.jpg","null","",NA,NA,NA,NA,""
"image-keyboard-response",298,259862,"0.0-3.95-2.95","u90p8w3c82fw1d8",471,"157.csv","","null","resources/images/fishbone.png","null","",NA,NA,NA,NA,""
"image-keyboard-response",299,260200,"0.0-3.96-0.96","u90p8w3c82fw1d8",471,"157.csv","","336.09999999403954","resources/trios/L2T4A3.jpg","38","restless",0.3,0.3,0.7,0.869700527965638,"false"
"image-keyboard-response",300,260604,"0.0-3.96-1.96","u90p8w3c82fw1d8",471,"157.csv","","null","resources/maskTrios/BT4B.jpg","null","",NA,NA,NA,NA,""
"image-keyboard-response",301,261808,"0.0-3.96-2.96","u90p8w3c82fw1d8",471,"157.csv","","null","resources/images/fishbone.png","null","",NA,NA,NA,NA,""
"image-keyboard-response",302,262104,"0.0-3.97-0.97","u90p8w3c82fw1d8",471,"157.csv","","294.6000000089407","resources/trios/L4T4A2.jpg","39","restless",0.3,0.2,0.7,0.383500798641413,"true"
"image-keyboard-response",303,262510,"0.0-3.97-1.97","u90p8w3c82fw1d8",471,"157.csv","","null","resources/maskTrios/BBA2.jpg","null","",NA,NA,NA,NA,""
"image-keyboard-response",304,263716,"0.0-3.97-2.97","u90p8w3c82fw1d8",471,"157.csv","","null","resources/images/coin2.png","null","",NA,NA,NA,NA,""
"image-keyboard-response",305,265306,"0.0-3.98-0.98","u90p8w3c82fw1d8",471,"157.csv","","1588.7000000029802","resources/trios/L4T4A3.jpg","37","restless",0.3,0.2,0.7,0.873305434659765,"false"
"image-keyboard-response",306,265713,"0.0-3.98-1.98","u90p8w3c82fw1d8",471,"157.csv","","null","resources/maskTrios/L4BB.jpg","null","",NA,NA,NA,NA,""
"image-keyboard-response",307,266916,"0.0-3.98-2.98","u90p8w3c82fw1d8",471,"157.csv","","null","resources/images/fishbone.png","null","",NA,NA,NA,NA,""
"image-keyboard-response",308,267938,"0.0-3.99-0.99","u90p8w3c82fw1d8",471,"157.csv","","1021","resources/trios/L2T4A3.jpg","38","restless",0.3,0.2,0.7,0.128401420429171,"true"
"image-keyboard-response",309,268342,"0.0-3.99-1.99","u90p8w3c82fw1d8",471,"157.csv","","null","resources/maskTrios/BT4B.jpg","null","",NA,NA,NA,NA,""
"image-keyboard-response",310,269547,"0.0-3.99-2.99","u90p8w3c82fw1d8",471,"157.csv","","null","resources/images/coin2.png","null","",NA,NA,NA,NA,""
"image-keyboard-response",311,270044,"0.0-3.100-0.100","u90p8w3c82fw1d8",471,"157.csv","","495.5","resources/trios/L4T4A3.jpg","39","restless",0.3,0.2,0.7,0.306965258490626,"true"
"image-keyboard-response",312,270449,"0.0-3.100-1.100","u90p8w3c82fw1d8",471,"157.csv","","null","resources/maskTrios/BBA3.jpg","null","",NA,NA,NA,NA,""
"image-keyboard-response",313,271655,"0.0-3.100-2.100","u90p8w3c82fw1d8",471,"157.csv","","null","resources/images/coin2.png","null","",NA,NA,NA,NA,""
"image-keyboard-response",314,272235,"0.0-3.101-0.101","u90p8w3c82fw1d8",471,"157.csv","","578.2999999970198","resources/trios/L2T4A3.jpg","37","restless",0.3,0.2,0.7,0.201162182720891,"true"
"image-keyboard-response",315,272639,"0.0-3.101-1.101","u90p8w3c82fw1d8",471,"157.csv","","null","resources/maskTrios/L2BB.jpg","null","",NA,NA,NA,NA,""
"image-keyboard-response",316,273846,"0.0-3.101-2.101","u90p8w3c82fw1d8",471,"157.csv","","null","resources/images/coin2.png","null","",NA,NA,NA,NA,""
"image-keyboard-response",317,273949,"0.0-3.102-0.102","u90p8w3c82fw1d8",471,"157.csv","","102.29999999701977","resources/trios/L4T4A3.jpg","38","restless",0.3,0.2,0.7,0.410069707805848,"false"
"image-keyboard-response",318,274354,"0.0-3.102-1.102","u90p8w3c82fw1d8",471,"157.csv","","null","resources/maskTrios/BT4B.jpg","null","",NA,NA,NA,NA,""
"image-keyboard-response",319,275560,"0.0-3.102-2.102","u90p8w3c82fw1d8",471,"157.csv","","null","resources/images/fishbone.png","null","",NA,NA,NA,NA,""
"image-keyboard-response",320,275905,"0.0-3.103-0.103","u90p8w3c82fw1d8",471,"157.csv","","343.79999999701977","resources/trios/L4T4A2.jpg","39","restless",0.3,0.2,0.8,0.149924891955416,"true"
"image-keyboard-response",321,276312,"0.0-3.103-1.103","u90p8w3c82fw1d8",471,"157.csv","","null","resources/maskTrios/BBA2.jpg","null","",NA,NA,NA,NA,""
"image-keyboard-response",322,277514,"0.0-3.103-2.103","u90p8w3c82fw1d8",471,"157.csv","","null","resources/images/coin2.png","null","",NA,NA,NA,NA,""
"image-keyboard-response",323,278001,"0.0-3.104-0.104","u90p8w3c82fw1d8",471,"157.csv","","485.70000000298023","resources/trios/L2T4A2.jpg","37","restless",0.4,0.2,0.8,0.123899912580266,"true"
"image-keyboard-response",324,278408,"0.0-3.104-1.104","u90p8w3c82fw1d8",471,"157.csv","","null","resources/maskTrios/L2BB.jpg","null","",NA,NA,NA,NA,""
"image-keyboard-response",325,279614,"0.0-3.104-2.104","u90p8w3c82fw1d8",471,"157.csv","","null","resources/images/coin2.png","null","",NA,NA,NA,NA,""
"image-keyboard-response",326,280048,"0.0-3.105-0.105","u90p8w3c82fw1d8",471,"157.csv","","432.40000000596046","resources/trios/L2T2A3.jpg","38","restless",0.4,0.2,0.8,0.373238784324075,"false"
"image-keyboard-response",327,280455,"0.0-3.105-1.105","u90p8w3c82fw1d8",471,"157.csv","","null","resources/maskTrios/BT2B.jpg","null","",NA,NA,NA,NA,""
"image-keyboard-response",328,281658,"0.0-3.105-2.105","u90p8w3c82fw1d8",471,"157.csv","","null","resources/images/fishbone.png","null","",NA,NA,NA,NA,""
"image-keyboard-response",329,282028,"0.0-3.106-0.106","u90p8w3c82fw1d8",471,"157.csv","","368.90000000596046","resources/trios/L2T2A3.jpg","39","restless",0.4,0.2,0.8,0.4382965159502,"true"
"image-keyboard-response",330,282435,"0.0-3.106-1.106","u90p8w3c82fw1d8",471,"157.csv","","null","resources/maskTrios/BBA3.jpg","null","",NA,NA,NA,NA,""
"image-keyboard-response",331,283639,"0.0-3.106-2.106","u90p8w3c82fw1d8",471,"157.csv","","null","resources/images/coin2.png","null","",NA,NA,NA,NA,""
"image-keyboard-response",332,284172,"0.0-3.107-0.107","u90p8w3c82fw1d8",471,"157.csv","","531.5","resources/trios/L4T2A3.jpg","37","restless",0.4,0.1,0.7,0.622349726339569,"false"
"image-keyboard-response",333,284575,"0.0-3.107-1.107","u90p8w3c82fw1d8",471,"157.csv","","null","resources/maskTrios/L4BB.jpg","null","",NA,NA,NA,NA,""
"image-keyboard-response",334,285779,"0.0-3.107-2.107","u90p8w3c82fw1d8",471,"157.csv","","null","resources/images/fishbone.png","null","",NA,NA,NA,NA,""
"image-keyboard-response",335,287466,"0.0-3.108-0.108","u90p8w3c82fw1d8",471,"157.csv","","1685","resources/trios/L4T2A3.jpg","38","restless",0.5,0.1,0.7,0.547046905353264,"false"
"image-keyboard-response",336,287872,"0.0-3.108-1.108","u90p8w3c82fw1d8",471,"157.csv","","null","resources/maskTrios/BT2B.jpg","null","",NA,NA,NA,NA,""
"image-keyboard-response",337,289073,"0.0-3.108-2.108","u90p8w3c82fw1d8",471,"157.csv","","null","resources/images/fishbone.png","null","",NA,NA,NA,NA,""
"image-keyboard-response",338,289539,"0.0-3.109-0.109","u90p8w3c82fw1d8",471,"157.csv","","464.20000000298023","resources/trios/L4T2A3.jpg","38","restless",0.6,0.2,0.7,0.320809100048462,"false"
"image-keyboard-response",339,289943,"0.0-3.109-1.109","u90p8w3c82fw1d8",471,"157.csv","","null","resources/maskTrios/BT2B.jpg","null","",NA,NA,NA,NA,""
"image-keyboard-response",340,291151,"0.0-3.109-2.109","u90p8w3c82fw1d8",471,"157.csv","","null","resources/images/fishbone.png","null","",NA,NA,NA,NA,""
"image-keyboard-response",341,291643,"0.0-3.110-0.110","u90p8w3c82fw1d8",471,"157.csv","","490.59999999403954","resources/trios/L4T4A2.jpg","39","restless",0.6,0.2,0.7,0.91629812711562,"false"
"image-keyboard-response",342,292046,"0.0-3.110-1.110","u90p8w3c82fw1d8",471,"157.csv","","null","resources/maskTrios/BBA2.jpg","null","",NA,NA,NA,NA,""
"image-keyboard-response",343,293252,"0.0-3.110-2.110","u90p8w3c82fw1d8",471,"157.csv","","null","resources/images/fishbone.png","null","",NA,NA,NA,NA,""
"image-keyboard-response",344,294011,"0.0-3.111-0.111","u90p8w3c82fw1d8",471,"157.csv","","756.9000000059605","resources/trios/L2T2A3.jpg","37","restless",0.6,0.2,0.7,0.282040380235312,"true"
"image-keyboard-response",345,294413,"0.0-3.111-1.111","u90p8w3c82fw1d8",471,"157.csv","","null","resources/maskTrios/L2BB.jpg","null","",NA,NA,NA,NA,""
"image-keyboard-response",346,295619,"0.0-3.111-2.111","u90p8w3c82fw1d8",471,"157.csv","","null","resources/images/coin2.png","null","",NA,NA,NA,NA,""
"image-keyboard-response",347,296128,"0.0-3.112-0.112","u90p8w3c82fw1d8",471,"157.csv","","507.70000000298023","resources/trios/L4T4A3.jpg","38","restless",0.6,0.2,0.7,0.0879230557225554,"true"
"image-keyboard-response",348,296532,"0.0-3.112-1.112","u90p8w3c82fw1d8",471,"157.csv","","null","resources/maskTrios/BT4B.jpg","null","",NA,NA,NA,NA,""
"image-keyboard-response",349,297737,"0.0-3.112-2.112","u90p8w3c82fw1d8",471,"157.csv","","null","resources/images/coin2.png","null","",NA,NA,NA,NA,""
"image-keyboard-response",350,298159,"0.0-3.113-0.113","u90p8w3c82fw1d8",471,"157.csv","","420.1000000089407","resources/trios/L4T4A2.jpg","39","restless",0.6,0.2,0.7,0.326064964546621,"true"
"image-keyboard-response",351,298565,"0.0-3.113-1.113","u90p8w3c82fw1d8",471,"157.csv","","null","resources/maskTrios/BBA2.jpg","null","",NA,NA,NA,NA,""
"image-keyboard-response",352,299767,"0.0-3.113-2.113","u90p8w3c82fw1d8",471,"157.csv","","null","resources/images/coin2.png","null","",NA,NA,NA,NA,""
"image-keyboard-response",353,300265,"0.0-3.114-0.114","u90p8w3c82fw1d8",471,"157.csv","","496.70000000298023","resources/trios/L4T2A3.jpg","37","restless",0.6,0.2,0.6,0.387860089109057,"true"
"image-keyboard-response",354,300669,"0.0-3.114-1.114","u90p8w3c82fw1d8",471,"157.csv","","null","resources/maskTrios/L4BB.jpg","null","",NA,NA,NA,NA,""
"image-keyboard-response",355,301874,"0.0-3.114-2.114","u90p8w3c82fw1d8",471,"157.csv","","null","resources/images/coin2.png","null","",NA,NA,NA,NA,""
"image-keyboard-response",356,306040,"0.0-3.115-0.115","u90p8w3c82fw1d8",471,"157.csv","","4164.29999999702","resources/trios/L4T2A3.jpg","39","restless",0.6,0.2,0.6,0.932385862137626,"false"
"image-keyboard-response",357,306447,"0.0-3.115-1.115","u90p8w3c82fw1d8",471,"157.csv","","null","resources/maskTrios/BBA3.jpg","null","",NA,NA,NA,NA,""
"image-keyboard-response",358,307649,"0.0-3.115-2.115","u90p8w3c82fw1d8",471,"157.csv","","null","resources/images/fishbone.png","null","",NA,NA,NA,NA,""
"image-keyboard-response",359,308318,"0.0-3.116-0.116","u90p8w3c82fw1d8",471,"157.csv","","667.9000000059605","resources/trios/L4T2A3.jpg","37","restless",0.7,0.2,0.6,0.725876419138294,"false"
"image-keyboard-response",360,308724,"0.0-3.116-1.116","u90p8w3c82fw1d8",471,"157.csv","","null","resources/maskTrios/L4BB.jpg","null","",NA,NA,NA,NA,""
"image-keyboard-response",361,309926,"0.0-3.116-2.116","u90p8w3c82fw1d8",471,"157.csv","","null","resources/images/fishbone.png","null","",NA,NA,NA,NA,""
"image-keyboard-response",362,311016,"0.0-3.117-0.117","u90p8w3c82fw1d8",471,"157.csv","","1089","resources/trios/L4T4A2.jpg","38","restless",0.7,0.2,0.6,0.506360084234961,"false"
"image-keyboard-response",363,311422,"0.0-3.117-1.117","u90p8w3c82fw1d8",471,"157.csv","","null","resources/maskTrios/BT4B.jpg","null","",NA,NA,NA,NA,""
"image-keyboard-response",364,312625,"0.0-3.117-2.117","u90p8w3c82fw1d8",471,"157.csv","","null","resources/images/fishbone.png","null","",NA,NA,NA,NA,""
"image-keyboard-response",365,314556,"0.0-3.118-0.118","u90p8w3c82fw1d8",471,"157.csv","","1929.2000000029802","resources/trios/L2T4A2.jpg","39","restless",0.7,0.2,0.6,0.168200284620695,"true"
"image-keyboard-response",366,314960,"0.0-3.118-1.118","u90p8w3c82fw1d8",471,"157.csv","","null","resources/maskTrios/BBA2.jpg","null","",NA,NA,NA,NA,""
"image-keyboard-response",367,316166,"0.0-3.118-2.118","u90p8w3c82fw1d8",471,"157.csv","","null","resources/images/coin2.png","null","",NA,NA,NA,NA,""
"image-keyboard-response",368,317078,"0.0-3.119-0.119","u90p8w3c82fw1d8",471,"157.csv","","911.0999999940395","resources/trios/L4T4A2.jpg","37","restless",0.7,0.2,0.6,0.981319625690218,"false"
"image-keyboard-response",369,317483,"0.0-3.119-1.119","u90p8w3c82fw1d8",471,"157.csv","","null","resources/maskTrios/L4BB.jpg","null","",NA,NA,NA,NA,""
"image-keyboard-response",370,318686,"0.0-3.119-2.119","u90p8w3c82fw1d8",471,"157.csv","","null","resources/images/fishbone.png","null","",NA,NA,NA,NA,""
"image-keyboard-response",371,319289,"0.0-3.120-0.120","u90p8w3c82fw1d8",471,"157.csv","","601.4000000059605","resources/trios/L4T2A2.jpg","38","restless",0.7,0.2,0.6,0.154976234332542,"true"
"image-keyboard-response",372,319692,"0.0-3.120-1.120","u90p8w3c82fw1d8",471,"157.csv","","null","resources/maskTrios/BT2B.jpg","null","",NA,NA,NA,NA,""
"image-keyboard-response",373,320898,"0.0-3.120-2.120","u90p8w3c82fw1d8",471,"157.csv","","null","resources/images/coin2.png","null","",NA,NA,NA,NA,""
"image-keyboard-response",374,322900,"0.0-3.121-0.121","u90p8w3c82fw1d8",471,"157.csv","","2000.199999988079","resources/trios/L2T4A2.jpg","39","restless",0.7,0.3,0.6,0.983704586835904,"false"
"image-keyboard-response",375,323302,"0.0-3.121-1.121","u90p8w3c82fw1d8",471,"157.csv","","null","resources/maskTrios/BBA2.jpg","null","",NA,NA,NA,NA,""
"image-keyboard-response",376,324506,"0.0-3.121-2.121","u90p8w3c82fw1d8",471,"157.csv","","null","resources/images/fishbone.png","null","",NA,NA,NA,NA,""
"image-keyboard-response",377,328164,"0.0-3.122-0.122","u90p8w3c82fw1d8",471,"157.csv","","3657","resources/trios/L4T4A3.jpg","37","restless",0.7,0.3,0.6,0.0994004873257786,"true"
"image-keyboard-response",378,328568,"0.0-3.122-1.122","u90p8w3c82fw1d8",471,"157.csv","","null","resources/maskTrios/L4BB.jpg","null","",NA,NA,NA,NA,""
"image-keyboard-response",379,329772,"0.0-3.122-2.122","u90p8w3c82fw1d8",471,"157.csv","","null","resources/images/coin2.png","null","",NA,NA,NA,NA,""
"image-keyboard-response",380,332075,"0.0-3.123-0.123","u90p8w3c82fw1d8",471,"157.csv","","2302.9000000059605","resources/trios/L2T2A2.jpg","39","restless",0.7,0.3,0.5,0.372454759381471,"true"
"image-keyboard-response",381,332477,"0.0-3.123-1.123","u90p8w3c82fw1d8",471,"157.csv","","null","resources/maskTrios/BBA2.jpg","null","",NA,NA,NA,NA,""
"image-keyboard-response",382,333679,"0.0-3.123-2.123","u90p8w3c82fw1d8",471,"157.csv","","null","resources/images/coin2.png","null","",NA,NA,NA,NA,""
"image-keyboard-response",383,334278,"0.0-3.124-0.124","u90p8w3c82fw1d8",471,"157.csv","","597","resources/trios/L2T4A3.jpg","38","restless",0.7,0.3,0.5,0.234787430556347,"true"
"image-keyboard-response",384,334682,"0.0-3.124-1.124","u90p8w3c82fw1d8",471,"157.csv","","null","resources/maskTrios/BT4B.jpg","null","",NA,NA,NA,NA,""
"image-keyboard-response",385,335888,"0.0-3.124-2.124","u90p8w3c82fw1d8",471,"157.csv","","null","resources/images/coin2.png","null","",NA,NA,NA,NA,""
"image-keyboard-response",386,336727,"0.0-3.125-0.125","u90p8w3c82fw1d8",471,"157.csv","","837.5","resources/trios/L4T2A2.jpg","39","restless",0.7,0.2,0.5,0.780991885957822,"false"
"image-keyboard-response",387,337131,"0.0-3.125-1.125","u90p8w3c82fw1d8",471,"157.csv","","null","resources/maskTrios/BBA2.jpg","null","",NA,NA,NA,NA,""
"image-keyboard-response",388,338334,"0.0-3.125-2.125","u90p8w3c82fw1d8",471,"157.csv","","null","resources/images/fishbone.png","null","",NA,NA,NA,NA,""
"image-keyboard-response",389,338818,"0.0-3.126-0.126","u90p8w3c82fw1d8",471,"157.csv","","482.3999999910593","resources/trios/L2T4A3.jpg","38","restless",0.7,0.2,0.5,0.281947772145759,"false"
"image-keyboard-response",390,339220,"0.0-3.126-1.126","u90p8w3c82fw1d8",471,"157.csv","","null","resources/maskTrios/BT4B.jpg","null","",NA,NA,NA,NA,""
"image-keyboard-response",391,340423,"0.0-3.126-2.126","u90p8w3c82fw1d8",471,"157.csv","","null","resources/images/fishbone.png","null","",NA,NA,NA,NA,""
"image-keyboard-response",392,341705,"0.0-3.127-0.127","u90p8w3c82fw1d8",471,"157.csv","","1280.5","resources/trios/L4T2A2.jpg","37","restless",0.6,0.3,0.5,0.868140188665337,"false"
"image-keyboard-response",393,342111,"0.0-3.127-1.127","u90p8w3c82fw1d8",471,"157.csv","","null","resources/maskTrios/L4BB.jpg","null","",NA,NA,NA,NA,""
"image-keyboard-response",394,343317,"0.0-3.127-2.127","u90p8w3c82fw1d8",471,"157.csv","","null","resources/images/fishbone.png","null","",NA,NA,NA,NA,""
"image-keyboard-response",395,343648,"0.0-3.128-0.128","u90p8w3c82fw1d8",471,"157.csv","","329.79999999701977","resources/trios/L2T4A2.jpg","39","restless",0.5,0.3,0.5,0.676285932863207,"false"
"image-keyboard-response",396,344050,"0.0-3.128-1.128","u90p8w3c82fw1d8",471,"157.csv","","null","resources/maskTrios/BBA2.jpg","null","",NA,NA,NA,NA,""
"image-keyboard-response",397,345252,"0.0-3.128-2.128","u90p8w3c82fw1d8",471,"157.csv","","null","resources/images/fishbone.png","null","",NA,NA,NA,NA,""
"image-keyboard-response",398,345615,"0.0-3.129-0.129","u90p8w3c82fw1d8",471,"157.csv","","361.40000000596046","resources/trios/L4T4A2.jpg","38","restless",0.5,0.3,0.4,0.984328416866001,"false"
"image-keyboard-response",399,346017,"0.0-3.129-1.129","u90p8w3c82fw1d8",471,"157.csv","","null","resources/maskTrios/BT4B.jpg","null","",NA,NA,NA,NA,""
"image-keyboard-response",400,347221,"0.0-3.129-2.129","u90p8w3c82fw1d8",471,"157.csv","","null","resources/images/fishbone.png","null","",NA,NA,NA,NA,""
"image-keyboard-response",401,347580,"0.0-3.130-0.130","u90p8w3c82fw1d8",471,"157.csv","","357.40000000596046","resources/trios/L2T4A2.jpg","37","restless",0.5,0.3,0.4,0.49493795286251,"true"
"image-keyboard-response",402,347987,"0.0-3.130-1.130","u90p8w3c82fw1d8",471,"157.csv","","null","resources/maskTrios/L2BB.jpg","null","",NA,NA,NA,NA,""
"image-keyboard-response",403,349193,"0.0-3.130-2.130","u90p8w3c82fw1d8",471,"157.csv","","null","resources/images/coin2.png","null","",NA,NA,NA,NA,""
"image-keyboard-response",404,349759,"0.0-3.131-0.131","u90p8w3c82fw1d8",471,"157.csv","","564.2999999970198","resources/trios/L4T4A3.jpg","39","restless",0.5,0.3,0.4,0.497473752941948,"false"
"image-keyboard-response",405,350163,"0.0-3.131-1.131","u90p8w3c82fw1d8",471,"157.csv","","null","resources/maskTrios/BBA3.jpg","null","",NA,NA,NA,NA,""
"image-keyboard-response",406,351367,"0.0-3.131-2.131","u90p8w3c82fw1d8",471,"157.csv","","null","resources/images/fishbone.png","null","",NA,NA,NA,NA,""
"image-keyboard-response",407,351793,"0.0-3.132-0.132","u90p8w3c82fw1d8",471,"157.csv","","424.79999999701977","resources/trios/L4T2A2.jpg","38","restless",0.5,0.3,0.4,0.109249385783848,"true"
"image-keyboard-response",408,352199,"0.0-3.132-1.132","u90p8w3c82fw1d8",471,"157.csv","","null","resources/maskTrios/BT2B.jpg","null","",NA,NA,NA,NA,""
"image-keyboard-response",409,353403,"0.0-3.132-2.132","u90p8w3c82fw1d8",471,"157.csv","","null","resources/images/coin2.png","null","",NA,NA,NA,NA,""
"image-keyboard-response",410,354124,"0.0-3.133-0.133","u90p8w3c82fw1d8",471,"157.csv","","719.4000000059605","resources/trios/L2T2A2.jpg","37","restless",0.5,0.3,0.4,0.386929244453477,"true"
"image-keyboard-response",411,354527,"0.0-3.133-1.133","u90p8w3c82fw1d8",471,"157.csv","","null","resources/maskTrios/L2BB.jpg","null","",NA,NA,NA,NA,""
"image-keyboard-response",412,355734,"0.0-3.133-2.133","u90p8w3c82fw1d8",471,"157.csv","","null","resources/images/coin2.png","null","",NA,NA,NA,NA,""
"image-keyboard-response",413,356328,"0.0-3.134-0.134","u90p8w3c82fw1d8",471,"157.csv","","592.9000000059605","resources/trios/L2T4A3.jpg","38","restless",0.5,0.4,0.4,0.0542545001534183,"true"
"image-keyboard-response",414,356735,"0.0-3.134-1.134","u90p8w3c82fw1d8",471,"157.csv","","null","resources/maskTrios/BT4B.jpg","null","",NA,NA,NA,NA,""
"image-keyboard-response",415,357938,"0.0-3.134-2.134","u90p8w3c82fw1d8",471,"157.csv","","null","resources/images/coin2.png","null","",NA,NA,NA,NA,""
"image-keyboard-response",416,358412,"0.0-3.135-0.135","u90p8w3c82fw1d8",471,"157.csv","","472.5","resources/trios/L2T2A3.jpg","39","restless",0.5,0.4,0.4,0.57024217687419,"false"
"image-keyboard-response",417,358817,"0.0-3.135-1.135","u90p8w3c82fw1d8",471,"157.csv","","null","resources/maskTrios/BBA3.jpg","null","",NA,NA,NA,NA,""
"image-keyboard-response",418,360019,"0.0-3.135-2.135","u90p8w3c82fw1d8",471,"157.csv","","null","resources/images/fishbone.png","null","",NA,NA,NA,NA,""
"image-keyboard-response",419,360846,"0.0-3.136-0.136","u90p8w3c82fw1d8",471,"157.csv","","826.2000000029802","resources/trios/L4T4A2.jpg","37","restless",0.5,0.4,0.4,0.895471816533358,"false"
"image-keyboard-response",420,361251,"0.0-3.136-1.136","u90p8w3c82fw1d8",471,"157.csv","","null","resources/maskTrios/L4BB.jpg","null","",NA,NA,NA,NA,""
"image-keyboard-response",421,362455,"0.0-3.136-2.136","u90p8w3c82fw1d8",471,"157.csv","","null","resources/images/fishbone.png","null","",NA,NA,NA,NA,""
"image-keyboard-response",422,362777,"0.0-3.137-0.137","u90p8w3c82fw1d8",471,"157.csv","","319.90000000596046","resources/trios/L4T4A2.jpg","38","restless",0.5,0.4,0.4,0.708331242521221,"false"
"image-keyboard-response",423,363181,"0.0-3.137-1.137","u90p8w3c82fw1d8",471,"157.csv","","null","resources/maskTrios/BT4B.jpg","null","",NA,NA,NA,NA,""
"image-keyboard-response",424,364389,"0.0-3.137-2.137","u90p8w3c82fw1d8",471,"157.csv","","null","resources/images/fishbone.png","null","",NA,NA,NA,NA,""
"image-keyboard-response",425,364717,"0.0-3.138-0.138","u90p8w3c82fw1d8",471,"157.csv","","326.80000001192093","resources/trios/L2T4A2.jpg","39","restless",0.5,0.4,0.4,0.786349243038395,"false"
"image-keyboard-response",426,365120,"0.0-3.138-1.138","u90p8w3c82fw1d8",471,"157.csv","","null","resources/maskTrios/BBA2.jpg","null","",NA,NA,NA,NA,""
"image-keyboard-response",427,366324,"0.0-3.138-2.138","u90p8w3c82fw1d8",471,"157.csv","","null","resources/images/fishbone.png","null","",NA,NA,NA,NA,""
"image-keyboard-response",428,366694,"0.0-3.139-0.139","u90p8w3c82fw1d8",471,"157.csv","","368.70000000298023","resources/trios/L2T2A2.jpg","37","restless",0.6,0.4,0.4,0.980666817519348,"false"
"image-keyboard-response",429,367096,"0.0-3.139-1.139","u90p8w3c82fw1d8",471,"157.csv","","null","resources/maskTrios/L2BB.jpg","null","",NA,NA,NA,NA,""
"image-keyboard-response",430,368297,"0.0-3.139-2.139","u90p8w3c82fw1d8",471,"157.csv","","null","resources/images/fishbone.png","null","",NA,NA,NA,NA,""
"image-keyboard-response",431,368711,"0.0-3.140-0.140","u90p8w3c82fw1d8",471,"157.csv","","411.70000000298023","resources/trios/L4T4A3.jpg","38","restless",0.6,0.4,0.4,0.0540623361486603,"true"
"image-keyboard-response",432,369117,"0.0-3.140-1.140","u90p8w3c82fw1d8",471,"157.csv","","null","resources/maskTrios/BT4B.jpg","null","",NA,NA,NA,NA,""
"image-keyboard-response",433,370322,"0.0-3.140-2.140","u90p8w3c82fw1d8",471,"157.csv","","null","resources/images/coin2.png","null","",NA,NA,NA,NA,""
"image-keyboard-response",434,370727,"0.0-3.141-0.141","u90p8w3c82fw1d8",471,"157.csv","","403.29999999701977","resources/trios/L2T2A2.jpg","39","restless",0.6,0.5,0.4,0.747899306902674,"false"
"image-keyboard-response",435,371129,"0.0-3.141-1.141","u90p8w3c82fw1d8",471,"157.csv","","null","resources/maskTrios/BBA2.jpg","null","",NA,NA,NA,NA,""
"image-keyboard-response",436,372331,"0.0-3.141-2.141","u90p8w3c82fw1d8",471,"157.csv","","null","resources/images/fishbone.png","null","",NA,NA,NA,NA,""
"image-keyboard-response",437,372712,"0.0-3.142-0.142","u90p8w3c82fw1d8",471,"157.csv","","380.30000001192093","resources/trios/L2T4A2.jpg","37","restless",0.6,0.5,0.4,0.955659115863219,"false"
"image-keyboard-response",438,373117,"0.0-3.142-1.142","u90p8w3c82fw1d8",471,"157.csv","","null","resources/maskTrios/L2BB.jpg","null","",NA,NA,NA,NA,""
"image-keyboard-response",439,374323,"0.0-3.142-2.142","u90p8w3c82fw1d8",471,"157.csv","","null","resources/images/fishbone.png","null","",NA,NA,NA,NA,""
"image-keyboard-response",440,374695,"0.0-3.143-0.143","u90p8w3c82fw1d8",471,"157.csv","","370.79999999701977","resources/trios/L2T4A2.jpg","38","restless",0.5,0.5,0.4,0.0349520582592222,"true"
"image-keyboard-response",441,375102,"0.0-3.143-1.143","u90p8w3c82fw1d8",471,"157.csv","","null","resources/maskTrios/BT4B.jpg","null","",NA,NA,NA,NA,""
"image-keyboard-response",442,376304,"0.0-3.143-2.143","u90p8w3c82fw1d8",471,"157.csv","","null","resources/images/coin2.png","null","",NA,NA,NA,NA,""
"image-keyboard-response",443,376756,"0.0-3.144-0.144","u90p8w3c82fw1d8",471,"157.csv","","450.09999999403954","resources/trios/L4T2A3.jpg","39","restless",0.6,0.5,0.4,0.0950316257385337,"true"
"image-keyboard-response",444,377163,"0.0-3.144-1.144","u90p8w3c82fw1d8",471,"157.csv","","null","resources/maskTrios/BBA3.jpg","null","",NA,NA,NA,NA,""
"image-keyboard-response",445,378367,"0.0-3.144-2.144","u90p8w3c82fw1d8",471,"157.csv","","null","resources/images/coin2.png","null","",NA,NA,NA,NA,""
"image-keyboard-response",446,378738,"0.0-3.145-0.145","u90p8w3c82fw1d8",471,"157.csv","","369.19999998807907","resources/trios/L4T2A3.jpg","37","restless",0.7,0.5,0.4,0.600483372066016,"true"
"image-keyboard-response",447,379145,"0.0-3.145-1.145","u90p8w3c82fw1d8",471,"157.csv","","null","resources/maskTrios/L4BB.jpg","null","",NA,NA,NA,NA,""
"image-keyboard-response",448,380348,"0.0-3.145-2.145","u90p8w3c82fw1d8",471,"157.csv","","null","resources/images/coin2.png","null","",NA,NA,NA,NA,""
"image-keyboard-response",449,380635,"0.0-3.146-0.146","u90p8w3c82fw1d8",471,"157.csv","","285","resources/trios/L4T4A2.jpg","38","restless",0.7,0.5,0.4,0.240484699168563,"true"
"image-keyboard-response",450,381038,"0.0-3.146-1.146","u90p8w3c82fw1d8",471,"157.csv","","null","resources/maskTrios/BT4B.jpg","null","",NA,NA,NA,NA,""
"image-keyboard-response",451,382242,"0.0-3.146-2.146","u90p8w3c82fw1d8",471,"157.csv","","null","resources/images/coin2.png","null","",NA,NA,NA,NA,""
"image-keyboard-response",452,382539,"0.0-3.147-0.147","u90p8w3c82fw1d8",471,"157.csv","","295.90000000596046","resources/trios/L4T4A3.jpg","39","restless",0.7,0.6,0.4,0.817032651758806,"false"
"image-keyboard-response",453,382945,"0.0-3.147-1.147","u90p8w3c82fw1d8",471,"157.csv","","null","resources/maskTrios/BBA3.jpg","null","",NA,NA,NA,NA,""
"image-keyboard-response",454,384151,"0.0-3.147-2.147","u90p8w3c82fw1d8",471,"157.csv","","null","resources/images/fishbone.png","null","",NA,NA,NA,NA,""
"image-keyboard-response",455,384565,"0.0-3.148-0.148","u90p8w3c82fw1d8",471,"157.csv","","412.79999999701977","resources/trios/L4T4A2.jpg","37","restless",0.7,0.6,0.4,0.250296504429708,"true"
"image-keyboard-response",456,384968,"0.0-3.148-1.148","u90p8w3c82fw1d8",471,"157.csv","","null","resources/maskTrios/L4BB.jpg","null","",NA,NA,NA,NA,""
"image-keyboard-response",457,386174,"0.0-3.148-2.148","u90p8w3c82fw1d8",471,"157.csv","","null","resources/images/coin2.png","null","",NA,NA,NA,NA,""
"image-keyboard-response",458,386528,"0.0-3.149-0.149","u90p8w3c82fw1d8",471,"157.csv","","352.70000000298023","resources/trios/L2T2A2.jpg","38","restless",0.8,0.6,0.4,0.575783538569284,"true"
"image-keyboard-response",459,386934,"0.0-3.149-1.149","u90p8w3c82fw1d8",471,"157.csv","","null","resources/maskTrios/BT2B.jpg","null","",NA,NA,NA,NA,""
"image-keyboard-response",460,388140,"0.0-3.149-2.149","u90p8w3c82fw1d8",471,"157.csv","","null","resources/images/coin2.png","null","",NA,NA,NA,NA,""
"image-keyboard-response",461,388538,"0.0-3.150-0.150","u90p8w3c82fw1d8",471,"157.csv","","396","resources/trios/L4T4A3.jpg","39","restless",0.8,0.5,0.4,0.479670127940723,"false"
"image-keyboard-response",462,388944,"0.0-3.150-1.150","u90p8w3c82fw1d8",471,"157.csv","","null","resources/maskTrios/BBA3.jpg","null","",NA,NA,NA,NA,""
"image-keyboard-response",463,390146,"0.0-3.150-2.150","u90p8w3c82fw1d8",471,"157.csv","","null","resources/images/fishbone.png","null","",NA,NA,NA,NA,""
"image-keyboard-response",464,390444,"0.0-3.151-0.151","u90p8w3c82fw1d8",471,"157.csv","","296.5","resources/trios/L4T2A3.jpg","37","restless",0.8,0.5,0.4,0.656921720611948,"true"
"image-keyboard-response",465,390848,"0.0-3.151-1.151","u90p8w3c82fw1d8",471,"157.csv","","null","resources/maskTrios/L4BB.jpg","null","",NA,NA,NA,NA,""
"image-keyboard-response",466,392055,"0.0-3.151-2.151","u90p8w3c82fw1d8",471,"157.csv","","null","resources/images/coin2.png","null","",NA,NA,NA,NA,""
"image-keyboard-response",467,392379,"0.0-3.152-0.152","u90p8w3c82fw1d8",471,"157.csv","","322","resources/trios/L4T2A2.jpg","38","restless",0.8,0.5,0.4,0.824681555292194,"false"
"image-keyboard-response",468,392782,"0.0-3.152-1.152","u90p8w3c82fw1d8",471,"157.csv","","null","resources/maskTrios/BT2B.jpg","null","",NA,NA,NA,NA,""
"image-keyboard-response",469,393984,"0.0-3.152-2.152","u90p8w3c82fw1d8",471,"157.csv","","null","resources/images/fishbone.png","null","",NA,NA,NA,NA,""
"image-keyboard-response",470,394260,"0.0-3.153-0.153","u90p8w3c82fw1d8",471,"157.csv","","274.40000000596046","resources/trios/L2T2A3.jpg","39","restless",0.8,0.5,0.4,0.218891079216021,"true"
"image-keyboard-response",471,394662,"0.0-3.153-1.153","u90p8w3c82fw1d8",471,"157.csv","","null","resources/maskTrios/BBA3.jpg","null","",NA,NA,NA,NA,""
"image-keyboard-response",472,395864,"0.0-3.153-2.153","u90p8w3c82fw1d8",471,"157.csv","","null","resources/images/coin2.png","null","",NA,NA,NA,NA,""
"image-keyboard-response",473,396367,"0.0-3.154-0.154","u90p8w3c82fw1d8",471,"157.csv","","501","resources/trios/L4T4A2.jpg","37","restless",0.8,0.5,0.4,0.778333732153704,"true"
"image-keyboard-response",474,396773,"0.0-3.154-1.154","u90p8w3c82fw1d8",471,"157.csv","","null","resources/maskTrios/L4BB.jpg","null","",NA,NA,NA,NA,""
"image-keyboard-response",475,397980,"0.0-3.154-2.154","u90p8w3c82fw1d8",471,"157.csv","","null","resources/images/coin2.png","null","",NA,NA,NA,NA,""
"image-keyboard-response",476,398363,"0.0-3.155-0.155","u90p8w3c82fw1d8",471,"157.csv","","381.40000000596046","resources/trios/L4T4A2.jpg","38","restless",0.8,0.6,0.4,0.120999053283047,"true"
"image-keyboard-response",477,398764,"0.0-3.155-1.155","u90p8w3c82fw1d8",471,"157.csv","","null","resources/maskTrios/BT4B.jpg","null","",NA,NA,NA,NA,""
"image-keyboard-response",478,399969,"0.0-3.155-2.155","u90p8w3c82fw1d8",471,"157.csv","","null","resources/images/coin2.png","null","",NA,NA,NA,NA,""
"image-keyboard-response",479,400307,"0.0-3.156-0.156","u90p8w3c82fw1d8",471,"157.csv","","337","resources/trios/L2T2A2.jpg","39","restless",0.8,0.7,0.4,0.264865864554981,"true"
"image-keyboard-response",480,400712,"0.0-3.156-1.156","u90p8w3c82fw1d8",471,"157.csv","","null","resources/maskTrios/BBA2.jpg","null","",NA,NA,NA,NA,""
"image-keyboard-response",481,401918,"0.0-3.156-2.156","u90p8w3c82fw1d8",471,"157.csv","","null","resources/images/coin2.png","null","",NA,NA,NA,NA,""
"image-keyboard-response",482,402520,"0.0-3.157-0.157","u90p8w3c82fw1d8",471,"157.csv","","600","resources/trios/L4T2A2.jpg","37","restless",0.8,0.7,0.4,0.615388147563275,"true"
"image-keyboard-response",483,402924,"0.0-3.157-1.157","u90p8w3c82fw1d8",471,"157.csv","","null","resources/maskTrios/L4BB.jpg","null","",NA,NA,NA,NA,""
"image-keyboard-response",484,404130,"0.0-3.157-2.157","u90p8w3c82fw1d8",471,"157.csv","","null","resources/images/coin2.png","null","",NA,NA,NA,NA,""
"image-keyboard-response",485,404443,"0.0-3.158-0.158","u90p8w3c82fw1d8",471,"157.csv","","311.80000001192093","resources/trios/L2T2A3.jpg","38","restless",0.8,0.7,0.4,0.00790179022713899,"true"
"image-keyboard-response",486,404850,"0.0-3.158-1.158","u90p8w3c82fw1d8",471,"157.csv","","null","resources/maskTrios/BT2B.jpg","null","",NA,NA,NA,NA,""
"image-keyboard-response",487,406057,"0.0-3.158-2.158","u90p8w3c82fw1d8",471,"157.csv","","null","resources/images/coin2.png","null","",NA,NA,NA,NA,""
"image-keyboard-response",488,406423,"0.0-3.159-0.159","u90p8w3c82fw1d8",471,"157.csv","","364.40000000596046","resources/trios/L2T2A2.jpg","39","restless",0.8,0.7,0.4,0.409529894911642,"false"
"image-keyboard-response",489,406828,"0.0-3.159-1.159","u90p8w3c82fw1d8",471,"157.csv","","null","resources/maskTrios/BBA2.jpg","null","",NA,NA,NA,NA,""
"image-keyboard-response",490,408032,"0.0-3.159-2.159","u90p8w3c82fw1d8",471,"157.csv","","null","resources/images/fishbone.png","null","",NA,NA,NA,NA,""
"image-keyboard-response",491,408385,"0.0-3.160-0.160","u90p8w3c82fw1d8",471,"157.csv","","351.5","resources/trios/L2T4A2.jpg","37","restless",0.8,0.7,0.3,0.310270763560868,"true"
"image-keyboard-response",492,408790,"0.0-3.160-1.160","u90p8w3c82fw1d8",471,"157.csv","","null","resources/maskTrios/L2BB.jpg","null","",NA,NA,NA,NA,""
"image-keyboard-response",493,409997,"0.0-3.160-2.160","u90p8w3c82fw1d8",471,"157.csv","","null","resources/images/coin2.png","null","",NA,NA,NA,NA,""
"image-keyboard-response",494,411771,"0.0-3.161-0.161","u90p8w3c82fw1d8",471,"157.csv","","1772.7000000029802","resources/trios/L2T4A2.jpg","38","restless",0.8,0.7,0.2,0.00408586324743032,"true"
"image-keyboard-response",495,412178,"0.0-3.161-1.161","u90p8w3c82fw1d8",471,"157.csv","","null","resources/maskTrios/BT4B.jpg","null","",NA,NA,NA,NA,""
"image-keyboard-response",496,413384,"0.0-3.161-2.161","u90p8w3c82fw1d8",471,"157.csv","","null","resources/images/coin2.png","null","",NA,NA,NA,NA,""
"image-keyboard-response",497,414548,"0.0-3.162-0.162","u90p8w3c82fw1d8",471,"157.csv","","1163.1000000089407","resources/trios/L4T2A2.jpg","39","restless",0.8,0.7,0.2,0.682831946392321,"false"
"image-keyboard-response",498,414954,"0.0-3.162-1.162","u90p8w3c82fw1d8",471,"157.csv","","null","resources/maskTrios/BBA2.jpg","null","",NA,NA,NA,NA,""
"image-keyboard-response",499,416159,"0.0-3.162-2.162","u90p8w3c82fw1d8",471,"157.csv","","null","resources/images/fishbone.png","null","",NA,NA,NA,NA,""
"image-keyboard-response",500,416570,"0.0-3.163-0.163","u90p8w3c82fw1d8",471,"157.csv","","409.69999998807907","resources/trios/L2T2A2.jpg","37","restless",0.8,0.7,0.1,0.696382359517144,"true"
"image-keyboard-response",501,416973,"0.0-3.163-1.163","u90p8w3c82fw1d8",471,"157.csv","","null","resources/maskTrios/L2BB.jpg","null","",NA,NA,NA,NA,""
"image-keyboard-response",502,418179,"0.0-3.163-2.163","u90p8w3c82fw1d8",471,"157.csv","","null","resources/images/coin2.png","null","",NA,NA,NA,NA,""
"image-keyboard-response",503,419027,"0.0-3.164-0.164","u90p8w3c82fw1d8",471,"157.csv","","846.6999999880791","resources/trios/L4T4A3.jpg","38","restless",0.7,0.7,0.1,0.614092276689226,"true"
"image-keyboard-response",504,419431,"0.0-3.164-1.164","u90p8w3c82fw1d8",471,"157.csv","","null","resources/maskTrios/BT4B.jpg","null","",NA,NA,NA,NA,""
"image-keyboard-response",505,420637,"0.0-3.164-2.164","u90p8w3c82fw1d8",471,"157.csv","","null","resources/images/coin2.png","null","",NA,NA,NA,NA,""
"image-keyboard-response",506,421226,"0.0-3.165-0.165","u90p8w3c82fw1d8",471,"157.csv","","587.2999999970198","resources/trios/L2T2A3.jpg","39","restless",0.7,0.7,0.1,0.373160166222466,"false"
"image-keyboard-response",507,421632,"0.0-3.165-1.165","u90p8w3c82fw1d8",471,"157.csv","","null","resources/maskTrios/BBA3.jpg","null","",NA,NA,NA,NA,""
"image-keyboard-response",508,422838,"0.0-3.165-2.165","u90p8w3c82fw1d8",471,"157.csv","","null","resources/images/fishbone.png","null","",NA,NA,NA,NA,""
"image-keyboard-response",509,423306,"0.0-3.166-0.166","u90p8w3c82fw1d8",471,"157.csv","","467","resources/trios/L4T4A2.jpg","37","restless",0.7,0.7,0.1,0.171131023592844,"true"
"image-keyboard-response",510,423709,"0.0-3.166-1.166","u90p8w3c82fw1d8",471,"157.csv","","null","resources/maskTrios/L4BB.jpg","null","",NA,NA,NA,NA,""
"image-keyboard-response",511,424913,"0.0-3.166-2.166","u90p8w3c82fw1d8",471,"157.csv","","null","resources/images/coin2.png","null","",NA,NA,NA,NA,""
"image-keyboard-response",512,425241,"0.0-3.167-0.167","u90p8w3c82fw1d8",471,"157.csv","","326.5","resources/trios/L4T2A2.jpg","38","restless",0.7,0.8,0.1,0.967463016355673,"false"
"image-keyboard-response",513,425646,"0.0-3.167-1.167","u90p8w3c82fw1d8",471,"157.csv","","null","resources/maskTrios/BT2B.jpg","null","",NA,NA,NA,NA,""
"image-keyboard-response",514,426851,"0.0-3.167-2.167","u90p8w3c82fw1d8",471,"157.csv","","null","resources/images/fishbone.png","null","",NA,NA,NA,NA,""
"image-keyboard-response",515,427161,"0.0-3.168-0.168","u90p8w3c82fw1d8",471,"157.csv","","308.69999998807907","resources/trios/L2T2A3.jpg","39","restless",0.7,0.7,0.2,0.798297015772589,"false"
"image-keyboard-response",516,427567,"0.0-3.168-1.168","u90p8w3c82fw1d8",471,"157.csv","","null","resources/maskTrios/BBA3.jpg","null","",NA,NA,NA,NA,""
"image-keyboard-response",517,428773,"0.0-3.168-2.168","u90p8w3c82fw1d8",471,"157.csv","","null","resources/images/fishbone.png","null","",NA,NA,NA,NA,""
"image-keyboard-response",518,429270,"0.0-3.169-0.169","u90p8w3c82fw1d8",471,"157.csv","","495.3999999910593","resources/trios/L4T4A3.jpg","37","restless",0.7,0.7,0.2,0.991408404333151,"false"
"image-keyboard-response",519,429677,"0.0-3.169-1.169","u90p8w3c82fw1d8",471,"157.csv","","null","resources/maskTrios/L4BB.jpg","null","",NA,NA,NA,NA,""
"image-keyboard-response",520,430880,"0.0-3.169-2.169","u90p8w3c82fw1d8",471,"157.csv","","null","resources/images/fishbone.png","null","",NA,NA,NA,NA,""
"image-keyboard-response",521,431246,"0.0-3.170-0.170","u90p8w3c82fw1d8",471,"157.csv","","364.29999999701977","resources/trios/L4T4A2.jpg","38","restless",0.7,0.7,0.2,0.0839458148071985,"true"
"image-keyboard-response",522,431650,"0.0-3.170-1.170","u90p8w3c82fw1d8",471,"157.csv","","null","resources/maskTrios/BT4B.jpg","null","",NA,NA,NA,NA,""
"image-keyboard-response",523,432855,"0.0-3.170-2.170","u90p8w3c82fw1d8",471,"157.csv","","null","resources/images/coin2.png","null","",NA,NA,NA,NA,""
"image-keyboard-response",524,433188,"0.0-3.171-0.171","u90p8w3c82fw1d8",471,"157.csv","","331.90000000596046","resources/trios/L2T2A3.jpg","39","restless",0.7,0.8,0.2,0.48754786872235,"false"
"image-keyboard-response",525,433592,"0.0-3.171-1.171","u90p8w3c82fw1d8",471,"157.csv","","null","resources/maskTrios/BBA3.jpg","null","",NA,NA,NA,NA,""
"image-keyboard-response",526,434794,"0.0-3.171-2.171","u90p8w3c82fw1d8",471,"157.csv","","null","resources/images/fishbone.png","null","",NA,NA,NA,NA,""
"image-keyboard-response",527,435267,"0.0-3.172-0.172","u90p8w3c82fw1d8",471,"157.csv","","472.09999999403954","resources/trios/L4T2A2.jpg","37","restless",0.7,0.8,0.2,0.572568988805577,"true"
"image-keyboard-response",528,435669,"0.0-3.172-1.172","u90p8w3c82fw1d8",471,"157.csv","","null","resources/maskTrios/L4BB.jpg","null","",NA,NA,NA,NA,""
"image-keyboard-response",529,436876,"0.0-3.172-2.172","u90p8w3c82fw1d8",471,"157.csv","","null","resources/images/coin2.png","null","",NA,NA,NA,NA,""
"image-keyboard-response",530,437270,"0.0-3.173-0.173","u90p8w3c82fw1d8",471,"157.csv","","392.5","resources/trios/L4T2A3.jpg","38","restless",0.7,0.8,0.2,0.590878493486329,"true"
"image-keyboard-response",531,437677,"0.0-3.173-1.173","u90p8w3c82fw1d8",471,"157.csv","","null","resources/maskTrios/BT2B.jpg","null","",NA,NA,NA,NA,""
"image-keyboard-response",532,438880,"0.0-3.173-2.173","u90p8w3c82fw1d8",471,"157.csv","","null","resources/images/coin2.png","null","",NA,NA,NA,NA,""
"image-keyboard-response",533,439278,"0.0-3.174-0.174","u90p8w3c82fw1d8",471,"157.csv","","396","resources/trios/L4T2A3.jpg","39","restless",0.7,0.8,0.2,0.683023948859902,"false"
"image-keyboard-response",534,439684,"0.0-3.174-1.174","u90p8w3c82fw1d8",471,"157.csv","","null","resources/maskTrios/BBA3.jpg","null","",NA,NA,NA,NA,""
"image-keyboard-response",535,440889,"0.0-3.174-2.174","u90p8w3c82fw1d8",471,"157.csv","","null","resources/images/fishbone.png","null","",NA,NA,NA,NA,""
"image-keyboard-response",536,441305,"0.0-3.175-0.175","u90p8w3c82fw1d8",471,"157.csv","","414.29999999701977","resources/trios/L2T2A2.jpg","37","restless",0.7,0.8,0.2,0.698600854754548,"true"
"image-keyboard-response",537,441710,"0.0-3.175-1.175","u90p8w3c82fw1d8",471,"157.csv","","null","resources/maskTrios/L2BB.jpg","null","",NA,NA,NA,NA,""
"image-keyboard-response",538,442914,"0.0-3.175-2.175","u90p8w3c82fw1d8",471,"157.csv","","null","resources/images/coin2.png","null","",NA,NA,NA,NA,""
"image-keyboard-response",539,443543,"0.0-3.176-0.176","u90p8w3c82fw1d8",471,"157.csv","","627.7000000029802","resources/trios/L2T2A2.jpg","38","restless",0.7,0.8,0.2,0.501372878195081,"true"
"image-keyboard-response",540,443949,"0.0-3.176-1.176","u90p8w3c82fw1d8",471,"157.csv","","null","resources/maskTrios/BT2B.jpg","null","",NA,NA,NA,NA,""
"image-keyboard-response",541,445153,"0.0-3.176-2.176","u90p8w3c82fw1d8",471,"157.csv","","null","resources/images/coin2.png","null","",NA,NA,NA,NA,""
"image-keyboard-response",542,446967,"0.0-3.177-0.177","u90p8w3c82fw1d8",471,"157.csv","","1812.2999999970198","resources/trios/L2T4A2.jpg","39","restless",0.7,0.8,0.2,0.586617586068291,"false"
"image-keyboard-response",543,447373,"0.0-3.177-1.177","u90p8w3c82fw1d8",471,"157.csv","","null","resources/maskTrios/BBA2.jpg","null","",NA,NA,NA,NA,""
"image-keyboard-response",544,448580,"0.0-3.177-2.177","u90p8w3c82fw1d8",471,"157.csv","","null","resources/images/fishbone.png","null","",NA,NA,NA,NA,""
"image-keyboard-response",545,449213,"0.0-3.178-0.178","u90p8w3c82fw1d8",471,"157.csv","","632.0999999940395","resources/trios/L4T4A2.jpg","37","restless",0.7,0.7,0.2,0.607457815003731,"true"
"image-keyboard-response",546,449618,"0.0-3.178-1.178","u90p8w3c82fw1d8",471,"157.csv","","null","resources/maskTrios/L4BB.jpg","null","",NA,NA,NA,NA,""
"image-keyboard-response",547,450824,"0.0-3.178-2.178","u90p8w3c82fw1d8",471,"157.csv","","null","resources/images/coin2.png","null","",NA,NA,NA,NA,""
"image-keyboard-response",548,451172,"0.0-3.179-0.179","u90p8w3c82fw1d8",471,"157.csv","","345.69999998807907","resources/trios/L2T2A2.jpg","38","restless",0.7,0.7,0.2,0.0113429101531202,"true"
"image-keyboard-response",549,451573,"0.0-3.179-1.179","u90p8w3c82fw1d8",471,"157.csv","","null","resources/maskTrios/BT2B.jpg","null","",NA,NA,NA,NA,""
"image-keyboard-response",550,452775,"0.0-3.179-2.179","u90p8w3c82fw1d8",471,"157.csv","","null","resources/images/coin2.png","null","",NA,NA,NA,NA,""
"image-keyboard-response",551,453087,"0.0-3.180-0.180","u90p8w3c82fw1d8",471,"157.csv","","310.70000000298023","resources/trios/L2T4A3.jpg","39","restless",0.7,0.7,0.2,0.807371774626443,"false"
"image-keyboard-response",552,453491,"0.0-3.180-1.180","u90p8w3c82fw1d8",471,"157.csv","","null","resources/maskTrios/BBA3.jpg","null","",NA,NA,NA,NA,""
"image-keyboard-response",553,454697,"0.0-3.180-2.180","u90p8w3c82fw1d8",471,"157.csv","","null","resources/images/fishbone.png","null","",NA,NA,NA,NA,""
"image-keyboard-response",554,455227,"0.0-3.181-0.181","u90p8w3c82fw1d8",471,"157.csv","","528.2999999970198","resources/trios/L2T2A2.jpg","37","restless",0.7,0.6,0.2,0.264547722497969,"true"
"image-keyboard-response",555,455632,"0.0-3.181-1.181","u90p8w3c82fw1d8",471,"157.csv","","null","resources/maskTrios/L2BB.jpg","null","",NA,NA,NA,NA,""
"image-keyboard-response",556,456834,"0.0-3.181-2.181","u90p8w3c82fw1d8",471,"157.csv","","null","resources/images/coin2.png","null","",NA,NA,NA,NA,""
"image-keyboard-response",557,457257,"0.0-3.182-0.182","u90p8w3c82fw1d8",471,"157.csv","","421.20000000298023","resources/trios/L4T2A2.jpg","38","restless",0.7,0.6,0.2,0.341272854150453,"true"
"image-keyboard-response",558,457660,"0.0-3.182-1.182","u90p8w3c82fw1d8",471,"157.csv","","null","resources/maskTrios/BT2B.jpg","null","",NA,NA,NA,NA,""
"image-keyboard-response",559,458866,"0.0-3.182-2.182","u90p8w3c82fw1d8",471,"157.csv","","null","resources/images/coin2.png","null","",NA,NA,NA,NA,""
"image-keyboard-response",560,459356,"0.0-3.183-0.183","u90p8w3c82fw1d8",471,"157.csv","","488.59999999403954","resources/trios/L4T2A3.jpg","39","restless",0.7,0.6,0.2,0.382789630887561,"false"
"image-keyboard-response",561,459762,"0.0-3.183-1.183","u90p8w3c82fw1d8",471,"157.csv","","null","resources/maskTrios/BBA3.jpg","null","",NA,NA,NA,NA,""
"image-keyboard-response",562,460965,"0.0-3.183-2.183","u90p8w3c82fw1d8",471,"157.csv","","null","resources/images/fishbone.png","null","",NA,NA,NA,NA,""
"image-keyboard-response",563,461374,"0.0-3.184-0.184","u90p8w3c82fw1d8",471,"157.csv","","407.29999999701977","resources/trios/L4T4A3.jpg","37","restless",0.7,0.6,0.2,0.218129885101002,"true"
"image-keyboard-response",564,461779,"0.0-3.184-1.184","u90p8w3c82fw1d8",471,"157.csv","","null","resources/maskTrios/L4BB.jpg","null","",NA,NA,NA,NA,""
"image-keyboard-response",565,462986,"0.0-3.184-2.184","u90p8w3c82fw1d8",471,"157.csv","","null","resources/images/coin2.png","null","",NA,NA,NA,NA,""
"image-keyboard-response",566,463332,"0.0-3.185-0.185","u90p8w3c82fw1d8",471,"157.csv","","344.80000001192093","resources/trios/L2T4A2.jpg","38","restless",0.7,0.6,0.2,0.018001294177755,"true"
"image-keyboard-response",567,463738,"0.0-3.185-1.185","u90p8w3c82fw1d8",471,"157.csv","","null","resources/maskTrios/BT4B.jpg","null","",NA,NA,NA,NA,""
"image-keyboard-response",568,464941,"0.0-3.185-2.185","u90p8w3c82fw1d8",471,"157.csv","","null","resources/images/coin2.png","null","",NA,NA,NA,NA,""
"image-keyboard-response",569,465455,"0.0-3.186-0.186","u90p8w3c82fw1d8",471,"157.csv","","512.6000000089407","resources/trios/L2T2A3.jpg","39","restless",0.7,0.6,0.2,0.398641931477891,"false"
"image-keyboard-response",570,465862,"0.0-3.186-1.186","u90p8w3c82fw1d8",471,"157.csv","","null","resources/maskTrios/BBA3.jpg","null","",NA,NA,NA,NA,""
"image-keyboard-response",571,467068,"0.0-3.186-2.186","u90p8w3c82fw1d8",471,"157.csv","","null","resources/images/fishbone.png","null","",NA,NA,NA,NA,""
"image-keyboard-response",572,467722,"0.0-3.187-0.187","u90p8w3c82fw1d8",471,"157.csv","","651.9000000059605","resources/trios/L2T4A3.jpg","37","restless",0.7,0.6,0.2,0.242667266614653,"true"
"image-keyboard-response",573,468126,"0.0-3.187-1.187","u90p8w3c82fw1d8",471,"157.csv","","null","resources/maskTrios/L2BB.jpg","null","",NA,NA,NA,NA,""
"image-keyboard-response",574,469333,"0.0-3.187-2.187","u90p8w3c82fw1d8",471,"157.csv","","null","resources/images/coin2.png","null","",NA,NA,NA,NA,""
"image-keyboard-response",575,469941,"0.0-3.188-0.188","u90p8w3c82fw1d8",471,"157.csv","","607","resources/trios/L2T4A3.jpg","38","restless",0.7,0.6,0.2,0.100573060837616,"true"
"image-keyboard-response",576,470345,"0.0-3.188-1.188","u90p8w3c82fw1d8",471,"157.csv","","null","resources/maskTrios/BT4B.jpg","null","",NA,NA,NA,NA,""
"image-keyboard-response",577,471551,"0.0-3.188-2.188","u90p8w3c82fw1d8",471,"157.csv","","null","resources/images/coin2.png","null","",NA,NA,NA,NA,""
"image-keyboard-response",578,472215,"0.0-3.189-0.189","u90p8w3c82fw1d8",471,"157.csv","","662.4000000059605","resources/trios/L2T2A2.jpg","39","restless",0.7,0.6,0.2,0.303734893945724,"false"
"image-keyboard-response",579,472622,"0.0-3.189-1.189","u90p8w3c82fw1d8",471,"157.csv","","null","resources/maskTrios/BBA2.jpg","null","",NA,NA,NA,NA,""
"image-keyboard-response",580,473825,"0.0-3.189-2.189","u90p8w3c82fw1d8",471,"157.csv","","null","resources/images/fishbone.png","null","",NA,NA,NA,NA,""
"image-keyboard-response",581,474230,"0.0-3.190-0.190","u90p8w3c82fw1d8",471,"157.csv","","403.8999999910593","resources/trios/L4T2A3.jpg","37","restless",0.7,0.6,0.2,0.737503645166446,"false"
"image-keyboard-response",582,474636,"0.0-3.190-1.190","u90p8w3c82fw1d8",471,"157.csv","","null","resources/maskTrios/L4BB.jpg","null","",NA,NA,NA,NA,""
"image-keyboard-response",583,475838,"0.0-3.190-2.190","u90p8w3c82fw1d8",471,"157.csv","","null","resources/images/fishbone.png","null","",NA,NA,NA,NA,""
"image-keyboard-response",584,476110,"0.0-3.191-0.191","u90p8w3c82fw1d8",471,"157.csv","","270.79999999701977","resources/trios/L4T2A3.jpg","38","restless",0.7,0.6,0.2,0.795041847351079,"false"
"image-keyboard-response",585,476513,"0.0-3.191-1.191","u90p8w3c82fw1d8",471,"157.csv","","null","resources/maskTrios/BT2B.jpg","null","",NA,NA,NA,NA,""
"image-keyboard-response",586,477715,"0.0-3.191-2.191","u90p8w3c82fw1d8",471,"157.csv","","null","resources/images/fishbone.png","null","",NA,NA,NA,NA,""
"image-keyboard-response",587,478042,"0.0-3.192-0.192","u90p8w3c82fw1d8",471,"157.csv","","325.70000000298023","resources/trios/L4T4A3.jpg","39","restless",0.7,0.6,0.2,0.181728084937706,"true"
"image-keyboard-response",588,478447,"0.0-3.192-1.192","u90p8w3c82fw1d8",471,"157.csv","","null","resources/maskTrios/BBA3.jpg","null","",NA,NA,NA,NA,""
"image-keyboard-response",589,479652,"0.0-3.192-2.192","u90p8w3c82fw1d8",471,"157.csv","","null","resources/images/coin2.png","null","",NA,NA,NA,NA,""
"image-keyboard-response",590,480615,"0.0-3.193-0.193","u90p8w3c82fw1d8",471,"157.csv","","961.5","resources/trios/L4T4A2.jpg","37","restless",0.7,0.6,0.2,0.267030360765189,"true"
"image-keyboard-response",591,481017,"0.0-3.193-1.193","u90p8w3c82fw1d8",471,"157.csv","","null","resources/maskTrios/L4BB.jpg","null","",NA,NA,NA,NA,""
"image-keyboard-response",592,482222,"0.0-3.193-2.193","u90p8w3c82fw1d8",471,"157.csv","","null","resources/images/coin2.png","null","",NA,NA,NA,NA,""
"image-keyboard-response",593,482546,"0.0-3.194-0.194","u90p8w3c82fw1d8",471,"157.csv","","323","resources/trios/L4T4A3.jpg","38","restless",0.7,0.5,0.2,0.802222233215801,"false"
"image-keyboard-response",594,482950,"0.0-3.194-1.194","u90p8w3c82fw1d8",471,"157.csv","","null","resources/maskTrios/BT4B.jpg","null","",NA,NA,NA,NA,""
"image-keyboard-response",595,484156,"0.0-3.194-2.194","u90p8w3c82fw1d8",471,"157.csv","","null","resources/images/fishbone.png","null","",NA,NA,NA,NA,""
"image-keyboard-response",596,484497,"0.0-3.195-0.195","u90p8w3c82fw1d8",471,"157.csv","","339","resources/trios/L2T4A2.jpg","39","restless",0.7,0.5,0.2,0.065573597064946,"true"
"image-keyboard-response",597,484903,"0.0-3.195-1.195","u90p8w3c82fw1d8",471,"157.csv","","null","resources/maskTrios/BBA2.jpg","null","",NA,NA,NA,NA,""
"image-keyboard-response",598,486107,"0.0-3.195-2.195","u90p8w3c82fw1d8",471,"157.csv","","null","resources/images/coin2.png","null","",NA,NA,NA,NA,""
"image-keyboard-response",599,486487,"0.0-3.196-0.196","u90p8w3c82fw1d8",471,"157.csv","","377.70000000298023","resources/trios/L4T4A2.jpg","37","restless",0.6,0.5,0.2,0.909918729282553,"false"
"image-keyboard-response",600,486892,"0.0-3.196-1.196","u90p8w3c82fw1d8",471,"157.csv","","null","resources/maskTrios/L4BB.jpg","null","",NA,NA,NA,NA,""
"image-keyboard-response",601,488093,"0.0-3.196-2.196","u90p8w3c82fw1d8",471,"157.csv","","null","resources/images/fishbone.png","null","",NA,NA,NA,NA,""
"image-keyboard-response",602,488468,"0.0-3.197-0.197","u90p8w3c82fw1d8",471,"157.csv","","372.90000000596046","resources/trios/L4T2A3.jpg","38","restless",0.6,0.5,0.2,0.878324404235823,"false"
"image-keyboard-response",603,488874,"0.0-3.197-1.197","u90p8w3c82fw1d8",471,"157.csv","","null","resources/maskTrios/BT2B.jpg","null","",NA,NA,NA,NA,""
"image-keyboard-response",604,490081,"0.0-3.197-2.197","u90p8w3c82fw1d8",471,"157.csv","","null","resources/images/fishbone.png","null","",NA,NA,NA,NA,""
"image-keyboard-response",605,490545,"0.0-3.198-0.198","u90p8w3c82fw1d8",471,"157.csv","","462.5","resources/trios/L2T4A3.jpg","39","restless",0.6,0.5,0.2,0.262292318104323,"false"
"image-keyboard-response",606,490947,"0.0-3.198-1.198","u90p8w3c82fw1d8",471,"157.csv","","null","resources/maskTrios/BBA3.jpg","null","",NA,NA,NA,NA,""
