"trial_type","trial_index","time_elapsed","internal_node_id","subject","participantCode","walkNumber","success","rt","stimulus","key_press","test_part","leftProb","midProb","rightProb","generatedNum","correct"
"pavlovia",0,1104,"0.0-0.0","grrkm06dyljb3z0",148,"157.csv","","","","","",NA,NA,NA,NA,""
"fullscreen",1,4814,"0.0-1.0","grrkm06dyljb3z0",148,"157.csv","true","","","","",NA,NA,NA,NA,""
"html-keyboard-response",2,14827,"0.0-2.0-0.0","grrkm06dyljb3z0",148,"157.csv","","10011.5","<p><font size='6'>Arrrgh!</p></font><p>Can you be the best pirate? Try to find lots of gold! But beware, some islands have more gold than others, and over time, the island with the most gold may change. Can YOU figure it out? </p><font size='6'>GOOD LUCK, CAPTAIN!!!</font><p>Press any key to begin</p>","32","",NA,NA,NA,NA,""
"image-keyboard-response",3,17834,"0.0-2.0-1.0","grrkm06dyljb3z0",148,"157.csv","","null","resources/image_sets/111.png","null","",NA,NA,NA,NA,""
"image-keyboard-response",4,25093,"0.0-2.0-2.0","grrkm06dyljb3z0",148,"157.csv","","7257","resources/image_sets/left_highlight.png","37","",NA,NA,NA,NA,""
"image-keyboard-response",5,28022,"0.0-2.0-3.0","grrkm06dyljb3z0",148,"157.csv","","2927","resources/image_sets/mid_highlight.png","38","",NA,NA,NA,NA,""
"image-keyboard-response",6,29406,"0.0-2.0-4.0","grrkm06dyljb3z0",148,"157.csv","","1383","resources/image_sets/right_highlight.png","39","",NA,NA,NA,NA,""
"image-keyboard-response",7,36009,"0.0-2.0-5.0","grrkm06dyljb3z0",148,"157.csv","","6601.0999999940395","resources/image_sets/111.png","13","",NA,NA,NA,NA,""
"image-keyboard-response",8,39851,"0.0-2.0-6.0","grrkm06dyljb3z0",148,"157.csv","","3841","resources/images/coin2.png","13","",NA,NA,NA,NA,""
"image-keyboard-response",9,41800,"0.0-2.0-7.0","grrkm06dyljb3z0",148,"157.csv","","1947","resources/images/fishbone.png","13","",NA,NA,NA,NA,""
"html-keyboard-response",10,47834,"0.0-2.0-8.0","grrkm06dyljb3z0",148,"157.csv","","6032.699999988079","<p>Your first journey will be a long one, but you will get a well deserved break at the end</p><p>After the break you will have four more journeys, but each will be much shorter than the first, and you will have breaks in between each</p><p>Press Enter to begin</p>","13","",NA,NA,NA,NA,""
"image-keyboard-response",11,49068,"0.0-3.0-0.0","grrkm06dyljb3z0",148,"157.csv","","1231.5999999940395","resources/trios/L1T2A1.jpg","38","restless",0.3,0.9,0.7,0.196894617733002,"true"
"image-keyboard-response",12,49476,"0.0-3.0-1.0","grrkm06dyljb3z0",148,"157.csv","","null","resources/maskTrios/BT2B.jpg","null","",NA,NA,NA,NA,""
"image-keyboard-response",13,50683,"0.0-3.0-2.0","grrkm06dyljb3z0",148,"157.csv","","null","resources/images/coin2.png","null","",NA,NA,NA,NA,""
"image-keyboard-response",14,52773,"0.0-3.1-0.1","grrkm06dyljb3z0",148,"157.csv","","2087.2000000178814","resources/trios/L1T1A2.jpg","38","restless",0.3,0.9,0.7,0.474521880504157,"true"
"image-keyboard-response",15,53176,"0.0-3.1-1.1","grrkm06dyljb3z0",148,"157.csv","","null","resources/maskTrios/BT1B.jpg","null","",NA,NA,NA,NA,""
"image-keyboard-response",16,54382,"0.0-3.1-2.1","grrkm06dyljb3z0",148,"157.csv","","null","resources/images/coin2.png","null","",NA,NA,NA,NA,""
"image-keyboard-response",17,55161,"0.0-3.2-0.2","grrkm06dyljb3z0",148,"157.csv","","777","resources/trios/L1T1A2.jpg","38","restless",0.3,0.8,0.7,0.952255948949876,"false"
"image-keyboard-response",18,55566,"0.0-3.2-1.2","grrkm06dyljb3z0",148,"157.csv","","null","resources/maskTrios/BT1B.jpg","null","",NA,NA,NA,NA,""
"image-keyboard-response",19,56769,"0.0-3.2-2.2","grrkm06dyljb3z0",148,"157.csv","","null","resources/images/fishbone.png","null","",NA,NA,NA,NA,""
"image-keyboard-response",20,57827,"0.0-3.3-0.3","grrkm06dyljb3z0",148,"157.csv","","1055.5999999940395","resources/trios/L1T1A2.jpg","38","restless",0.3,0.8,0.6,0.798100759543104,"true"
"image-keyboard-response",21,58234,"0.0-3.3-1.3","grrkm06dyljb3z0",148,"157.csv","","null","resources/maskTrios/BT1B.jpg","null","",NA,NA,NA,NA,""
"image-keyboard-response",22,59439,"0.0-3.3-2.3","grrkm06dyljb3z0",148,"157.csv","","null","resources/images/coin2.png","null","",NA,NA,NA,NA,""
"image-keyboard-response",23,59957,"0.0-3.4-0.4","grrkm06dyljb3z0",148,"157.csv","","517","resources/trios/L1T1A1.jpg","38","restless",0.3,0.7,0.6,0.967307372561797,"false"
"image-keyboard-response",24,60362,"0.0-3.4-1.4","grrkm06dyljb3z0",148,"157.csv","","null","resources/maskTrios/BT1B.jpg","null","",NA,NA,NA,NA,""
"image-keyboard-response",25,61567,"0.0-3.4-2.4","grrkm06dyljb3z0",148,"157.csv","","null","resources/images/fishbone.png","null","",NA,NA,NA,NA,""
"image-keyboard-response",26,61985,"0.0-3.5-0.5","grrkm06dyljb3z0",148,"157.csv","","416.2000000178814","resources/trios/L2T1A2.jpg","37","restless",0.3,0.7,0.6,0.467788017056193,"false"
"image-keyboard-response",27,62390,"0.0-3.5-1.5","grrkm06dyljb3z0",148,"157.csv","","null","resources/maskTrios/L2BB.jpg","null","",NA,NA,NA,NA,""
"image-keyboard-response",28,63597,"0.0-3.5-2.5","grrkm06dyljb3z0",148,"157.csv","","null","resources/images/fishbone.png","null","",NA,NA,NA,NA,""
"image-keyboard-response",29,64086,"0.0-3.6-0.6","grrkm06dyljb3z0",148,"157.csv","","487.19999998807907","resources/trios/L1T1A2.jpg","39","restless",0.3,0.7,0.7,0.836495508419839,"false"
"image-keyboard-response",30,64493,"0.0-3.6-1.6","grrkm06dyljb3z0",148,"157.csv","","null","resources/maskTrios/BBA2.jpg","null","",NA,NA,NA,NA,""
"image-keyboard-response",31,65697,"0.0-3.6-2.6","grrkm06dyljb3z0",148,"157.csv","","null","resources/images/fishbone.png","null","",NA,NA,NA,NA,""
"image-keyboard-response",32,66544,"0.0-3.7-0.7","grrkm06dyljb3z0",148,"157.csv","","844.9000000059605","resources/trios/L2T1A2.jpg","38","restless",0.3,0.7,0.8,0.219854141390356,"true"
"image-keyboard-response",33,66950,"0.0-3.7-1.7","grrkm06dyljb3z0",148,"157.csv","","null","resources/maskTrios/BT1B.jpg","null","",NA,NA,NA,NA,""
"image-keyboard-response",34,68157,"0.0-3.7-2.7","grrkm06dyljb3z0",148,"157.csv","","null","resources/images/coin2.png","null","",NA,NA,NA,NA,""
"image-keyboard-response",35,69074,"0.0-3.8-0.8","grrkm06dyljb3z0",148,"157.csv","","915.5","resources/trios/L1T1A2.jpg","38","restless",0.3,0.7,0.8,0.821041909039831,"false"
"image-keyboard-response",36,69480,"0.0-3.8-1.8","grrkm06dyljb3z0",148,"157.csv","","null","resources/maskTrios/BT1B.jpg","null","",NA,NA,NA,NA,""
"image-keyboard-response",37,70682,"0.0-3.8-2.8","grrkm06dyljb3z0",148,"157.csv","","null","resources/images/fishbone.png","null","",NA,NA,NA,NA,""
"image-keyboard-response",38,71131,"0.0-3.9-0.9","grrkm06dyljb3z0",148,"157.csv","","445.80000001192093","resources/trios/L1T1A1.jpg","37","restless",0.3,0.7,0.8,0.550123481445488,"false"
"image-keyboard-response",39,71533,"0.0-3.9-1.9","grrkm06dyljb3z0",148,"157.csv","","null","resources/maskTrios/L1BB.jpg","null","",NA,NA,NA,NA,""
"image-keyboard-response",40,72736,"0.0-3.9-2.9","grrkm06dyljb3z0",148,"157.csv","","null","resources/images/fishbone.png","null","",NA,NA,NA,NA,""
"image-keyboard-response",41,73011,"0.0-3.10-0.10","grrkm06dyljb3z0",148,"157.csv","","272.09999999403954","resources/trios/L2T1A1.jpg","38","restless",0.3,0.7,0.8,0.175773893752434,"true"
"image-keyboard-response",42,73416,"0.0-3.10-1.10","grrkm06dyljb3z0",148,"157.csv","","null","resources/maskTrios/BT1B.jpg","null","",NA,NA,NA,NA,""
"image-keyboard-response",43,74623,"0.0-3.10-2.10","grrkm06dyljb3z0",148,"157.csv","","null","resources/images/coin2.png","null","",NA,NA,NA,NA,""
"image-keyboard-response",44,74883,"0.0-3.11-0.11","grrkm06dyljb3z0",148,"157.csv","","258.59999999403954","resources/trios/L1T2A2.jpg","38","restless",0.3,0.7,0.8,0.238972320662134,"true"
"image-keyboard-response",45,75287,"0.0-3.11-1.11","grrkm06dyljb3z0",148,"157.csv","","null","resources/maskTrios/BT2B.jpg","null","",NA,NA,NA,NA,""
"image-keyboard-response",46,76491,"0.0-3.11-2.11","grrkm06dyljb3z0",148,"157.csv","","null","resources/images/coin2.png","null","",NA,NA,NA,NA,""
"image-keyboard-response",47,77039,"0.0-3.12-0.12","grrkm06dyljb3z0",148,"157.csv","","546.4000000059605","resources/trios/L1T1A1.jpg","38","restless",0.3,0.7,0.8,0.83276587890318,"false"
"image-keyboard-response",48,77442,"0.0-3.12-1.12","grrkm06dyljb3z0",148,"157.csv","","null","resources/maskTrios/BT1B.jpg","null","",NA,NA,NA,NA,""
"image-keyboard-response",49,78646,"0.0-3.12-2.12","grrkm06dyljb3z0",148,"157.csv","","null","resources/images/fishbone.png","null","",NA,NA,NA,NA,""
"image-keyboard-response",50,79011,"0.0-3.13-0.13","grrkm06dyljb3z0",148,"157.csv","","362.7000000178814","resources/trios/L2T1A1.jpg","37","restless",0.2,0.7,0.8,0.477171816895144,"false"
"image-keyboard-response",51,79414,"0.0-3.13-1.13","grrkm06dyljb3z0",148,"157.csv","","null","resources/maskTrios/L2BB.jpg","null","",NA,NA,NA,NA,""
"image-keyboard-response",52,80620,"0.0-3.13-2.13","grrkm06dyljb3z0",148,"157.csv","","null","resources/images/fishbone.png","null","",NA,NA,NA,NA,""
"image-keyboard-response",53,80861,"0.0-3.14-0.14","grrkm06dyljb3z0",148,"157.csv","","239.89999997615814","resources/trios/L2T2A1.jpg","38","restless",0.2,0.7,0.8,0.750472549622363,"false"
"image-keyboard-response",54,81266,"0.0-3.14-1.14","grrkm06dyljb3z0",148,"157.csv","","null","resources/maskTrios/BT2B.jpg","null","",NA,NA,NA,NA,""
"image-keyboard-response",55,82471,"0.0-3.14-2.14","grrkm06dyljb3z0",148,"157.csv","","null","resources/images/fishbone.png","null","",NA,NA,NA,NA,""
"image-keyboard-response",56,82850,"0.0-3.15-0.15","grrkm06dyljb3z0",148,"157.csv","","377.2000000178814","resources/trios/L2T2A2.jpg","38","restless",0.2,0.7,0.8,0.914200033362425,"false"
"image-keyboard-response",57,83256,"0.0-3.15-1.15","grrkm06dyljb3z0",148,"157.csv","","null","resources/maskTrios/BT2B.jpg","null","",NA,NA,NA,NA,""
"image-keyboard-response",58,84460,"0.0-3.15-2.15","grrkm06dyljb3z0",148,"157.csv","","null","resources/images/fishbone.png","null","",NA,NA,NA,NA,""
"image-keyboard-response",59,85041,"0.0-3.16-0.16","grrkm06dyljb3z0",148,"157.csv","","578.3999999761581","resources/trios/L1T1A1.jpg","38","restless",0.2,0.7,0.8,0.628407374482244,"true"
"image-keyboard-response",60,85446,"0.0-3.16-1.16","grrkm06dyljb3z0",148,"157.csv","","null","resources/maskTrios/BT1B.jpg","null","",NA,NA,NA,NA,""
"image-keyboard-response",61,86652,"0.0-3.16-2.16","grrkm06dyljb3z0",148,"157.csv","","null","resources/images/coin2.png","null","",NA,NA,NA,NA,""
"image-keyboard-response",62,87306,"0.0-3.17-0.17","grrkm06dyljb3z0",148,"157.csv","","651.7999999821186","resources/trios/L2T1A1.jpg","37","restless",0.2,0.7,0.7,0.415388970285703,"false"
"image-keyboard-response",63,87710,"0.0-3.17-1.17","grrkm06dyljb3z0",148,"157.csv","","null","resources/maskTrios/L2BB.jpg","null","",NA,NA,NA,NA,""
"image-keyboard-response",64,88914,"0.0-3.17-2.17","grrkm06dyljb3z0",148,"157.csv","","null","resources/images/fishbone.png","null","",NA,NA,NA,NA,""
"image-keyboard-response",65,89631,"0.0-3.18-0.18","grrkm06dyljb3z0",148,"157.csv","","714.5999999940395","resources/trios/L1T2A2.jpg","38","restless",0.1,0.7,0.7,0.842376437932594,"false"
"image-keyboard-response",66,90034,"0.0-3.18-1.18","grrkm06dyljb3z0",148,"157.csv","","null","resources/maskTrios/BT2B.jpg","null","",NA,NA,NA,NA,""
"image-keyboard-response",67,91237,"0.0-3.18-2.18","grrkm06dyljb3z0",148,"157.csv","","null","resources/images/fishbone.png","null","",NA,NA,NA,NA,""
"image-keyboard-response",68,92366,"0.0-3.19-0.19","grrkm06dyljb3z0",148,"157.csv","","1126","resources/trios/L2T2A1.jpg","39","restless",0.1,0.6,0.7,0.183848650594683,"true"
"image-keyboard-response",69,92770,"0.0-3.19-1.19","grrkm06dyljb3z0",148,"157.csv","","null","resources/maskTrios/BBA1.jpg","null","",NA,NA,NA,NA,""
"image-keyboard-response",70,93973,"0.0-3.19-2.19","grrkm06dyljb3z0",148,"157.csv","","null","resources/images/coin2.png","null","",NA,NA,NA,NA,""
"image-keyboard-response",71,94434,"0.0-3.20-0.20","grrkm06dyljb3z0",148,"157.csv","","458.7999999821186","resources/trios/L1T2A1.jpg","39","restless",0.1,0.6,0.7,0.18478847206952,"true"
"image-keyboard-response",72,94840,"0.0-3.20-1.20","grrkm06dyljb3z0",148,"157.csv","","null","resources/maskTrios/BBA1.jpg","null","",NA,NA,NA,NA,""
"image-keyboard-response",73,96045,"0.0-3.20-2.20","grrkm06dyljb3z0",148,"157.csv","","null","resources/images/coin2.png","null","",NA,NA,NA,NA,""
"image-keyboard-response",74,96330,"0.0-3.21-0.21","grrkm06dyljb3z0",148,"157.csv","","283.2999999821186","resources/trios/L1T1A2.jpg","38","restless",0.2,0.6,0.7,0.607564329250504,"false"
"image-keyboard-response",75,96732,"0.0-3.21-1.21","grrkm06dyljb3z0",148,"157.csv","","null","resources/maskTrios/BT1B.jpg","null","",NA,NA,NA,NA,""
"image-keyboard-response",76,97937,"0.0-3.21-2.21","grrkm06dyljb3z0",148,"157.csv","","null","resources/images/fishbone.png","null","",NA,NA,NA,NA,""
"image-keyboard-response",77,98260,"0.0-3.22-0.22","grrkm06dyljb3z0",148,"157.csv","","320.80000001192093","resources/trios/L2T2A2.jpg","38","restless",0.2,0.6,0.7,0.264475503029765,"true"
"image-keyboard-response",78,98666,"0.0-3.22-1.22","grrkm06dyljb3z0",148,"157.csv","","null","resources/maskTrios/BT2B.jpg","null","",NA,NA,NA,NA,""
"image-keyboard-response",79,99872,"0.0-3.22-2.22","grrkm06dyljb3z0",148,"157.csv","","null","resources/images/coin2.png","null","",NA,NA,NA,NA,""
"image-keyboard-response",80,100603,"0.0-3.23-0.23","grrkm06dyljb3z0",148,"157.csv","","729.1999999880791","resources/trios/L1T2A1.jpg","38","restless",0.2,0.6,0.7,0.862778145945116,"false"
"image-keyboard-response",81,101006,"0.0-3.23-1.23","grrkm06dyljb3z0",148,"157.csv","","null","resources/maskTrios/BT2B.jpg","null","",NA,NA,NA,NA,""
"image-keyboard-response",82,102211,"0.0-3.23-2.23","grrkm06dyljb3z0",148,"157.csv","","null","resources/images/fishbone.png","null","",NA,NA,NA,NA,""
"image-keyboard-response",83,102429,"0.0-3.24-0.24","grrkm06dyljb3z0",148,"157.csv","","215.90000000596046","resources/trios/L2T1A2.jpg","39","restless",0.2,0.6,0.8,0.656518429088804,"true"
"image-keyboard-response",84,102832,"0.0-3.24-1.24","grrkm06dyljb3z0",148,"157.csv","","null","resources/maskTrios/BBA2.jpg","null","",NA,NA,NA,NA,""
"image-keyboard-response",85,104035,"0.0-3.24-2.24","grrkm06dyljb3z0",148,"157.csv","","null","resources/images/coin2.png","null","",NA,NA,NA,NA,""
"image-keyboard-response",86,104341,"0.0-3.25-0.25","grrkm06dyljb3z0",148,"157.csv","","304.40000000596046","resources/trios/L1T2A1.jpg","39","restless",0.2,0.6,0.8,0.947276766624522,"false"
"image-keyboard-response",87,104745,"0.0-3.25-1.25","grrkm06dyljb3z0",148,"157.csv","","null","resources/maskTrios/BBA1.jpg","null","",NA,NA,NA,NA,""
"image-keyboard-response",88,105951,"0.0-3.25-2.25","grrkm06dyljb3z0",148,"157.csv","","null","resources/images/fishbone.png","null","",NA,NA,NA,NA,""
"image-keyboard-response",89,105957,"0.0-3.26-0.26","grrkm06dyljb3z0",148,"157.csv","","4","resources/trios/L2T1A2.jpg","37","restless",0.2,0.7,0.8,0.688157030270653,"false"
"image-keyboard-response",90,106360,"0.0-3.26-1.26","grrkm06dyljb3z0",148,"157.csv","","null","resources/maskTrios/L2BB.jpg","null","",NA,NA,NA,NA,""
"image-keyboard-response",91,107566,"0.0-3.26-2.26","grrkm06dyljb3z0",148,"157.csv","","null","resources/images/fishbone.png","null","",NA,NA,NA,NA,""
"image-keyboard-response",92,107845,"0.0-3.27-0.27","grrkm06dyljb3z0",148,"157.csv","","276.59999999403954","resources/trios/L1T1A1.jpg","38","restless",0.2,0.7,0.9,0.583527609631069,"true"
"image-keyboard-response",93,108249,"0.0-3.27-1.27","grrkm06dyljb3z0",148,"157.csv","","null","resources/maskTrios/BT1B.jpg","null","",NA,NA,NA,NA,""
"image-keyboard-response",94,109455,"0.0-3.27-2.27","grrkm06dyljb3z0",148,"157.csv","","null","resources/images/coin2.png","null","",NA,NA,NA,NA,""
"image-keyboard-response",95,110013,"0.0-3.28-0.28","grrkm06dyljb3z0",148,"157.csv","","556.5","resources/trios/L2T2A2.jpg","39","restless",0.3,0.7,0.9,0.9582208303544,"false"
"image-keyboard-response",96,110417,"0.0-3.28-1.28","grrkm06dyljb3z0",148,"157.csv","","null","resources/maskTrios/BBA2.jpg","null","",NA,NA,NA,NA,""
"image-keyboard-response",97,111622,"0.0-3.28-2.28","grrkm06dyljb3z0",148,"157.csv","","null","resources/images/fishbone.png","null","",NA,NA,NA,NA,""
"image-keyboard-response",98,111852,"0.0-3.29-0.29","grrkm06dyljb3z0",148,"157.csv","","227.5","resources/trios/L1T1A1.jpg","38","restless",0.3,0.7,0.9,0.323827006906072,"true"
"image-keyboard-response",99,112256,"0.0-3.29-1.29","grrkm06dyljb3z0",148,"157.csv","","null","resources/maskTrios/BT1B.jpg","null","",NA,NA,NA,NA,""
"image-keyboard-response",100,113461,"0.0-3.29-2.29","grrkm06dyljb3z0",148,"157.csv","","null","resources/images/coin2.png","null","",NA,NA,NA,NA,""
"image-keyboard-response",101,113618,"0.0-3.30-0.30","grrkm06dyljb3z0",148,"157.csv","","155.19999998807907","resources/trios/L2T1A1.jpg","38","restless",0.3,0.7,0.9,0.505397230167851,"true"
"image-keyboard-response",102,114023,"0.0-3.30-1.30","grrkm06dyljb3z0",148,"157.csv","","null","resources/maskTrios/BT1B.jpg","null","",NA,NA,NA,NA,""
"image-keyboard-response",103,115227,"0.0-3.30-2.30","grrkm06dyljb3z0",148,"157.csv","","null","resources/images/coin2.png","null","",NA,NA,NA,NA,""
"image-keyboard-response",104,115606,"0.0-3.31-0.31","grrkm06dyljb3z0",148,"157.csv","","377.40000000596046","resources/trios/L2T1A2.jpg","38","restless",0.4,0.7,0.8,0.70278786594605,"false"
"image-keyboard-response",105,116011,"0.0-3.31-1.31","grrkm06dyljb3z0",148,"157.csv","","null","resources/maskTrios/BT1B.jpg","null","",NA,NA,NA,NA,""
"image-keyboard-response",106,117216,"0.0-3.31-2.31","grrkm06dyljb3z0",148,"157.csv","","null","resources/images/fishbone.png","null","",NA,NA,NA,NA,""
"image-keyboard-response",107,117493,"0.0-3.32-0.32","grrkm06dyljb3z0",148,"157.csv","","274.90000000596046","resources/trios/L2T1A1.jpg","37","restless",0.4,0.7,0.8,0.323665148509999,"true"
"image-keyboard-response",108,117900,"0.0-3.32-1.32","grrkm06dyljb3z0",148,"157.csv","","null","resources/maskTrios/L2BB.jpg","null","",NA,NA,NA,NA,""
"image-keyboard-response",109,119106,"0.0-3.32-2.32","grrkm06dyljb3z0",148,"157.csv","","null","resources/images/coin2.png","null","",NA,NA,NA,NA,""
"image-keyboard-response",110,119403,"0.0-3.33-0.33","grrkm06dyljb3z0",148,"157.csv","","294.30000001192093","resources/trios/L2T2A1.jpg","39","restless",0.4,0.7,0.8,0.715501935528396,"true"
"image-keyboard-response",111,119806,"0.0-3.33-1.33","grrkm06dyljb3z0",148,"157.csv","","null","resources/maskTrios/BBA1.jpg","null","",NA,NA,NA,NA,""
"image-keyboard-response",112,121009,"0.0-3.33-2.33","grrkm06dyljb3z0",148,"157.csv","","null","resources/images/coin2.png","null","",NA,NA,NA,NA,""
"image-keyboard-response",113,121112,"0.0-3.34-0.34","grrkm06dyljb3z0",148,"157.csv","","101.60000002384186","resources/trios/L1T2A1.jpg","38","restless",0.4,0.7,0.8,0.269639352711008,"true"
"image-keyboard-response",114,121513,"0.0-3.34-1.34","grrkm06dyljb3z0",148,"157.csv","","null","resources/maskTrios/BT2B.jpg","null","",NA,NA,NA,NA,""
"image-keyboard-response",115,122718,"0.0-3.34-2.34","grrkm06dyljb3z0",148,"157.csv","","null","resources/images/coin2.png","null","",NA,NA,NA,NA,""
"image-keyboard-response",116,122928,"0.0-3.35-0.35","grrkm06dyljb3z0",148,"157.csv","","208","resources/trios/L1T1A2.jpg","37","restless",0.4,0.7,0.8,0.0989602879765772,"true"
"image-keyboard-response",117,123332,"0.0-3.35-1.35","grrkm06dyljb3z0",148,"157.csv","","null","resources/maskTrios/L1BB.jpg","null","",NA,NA,NA,NA,""
"image-keyboard-response",118,124535,"0.0-3.35-2.35","grrkm06dyljb3z0",148,"157.csv","","null","resources/images/coin2.png","null","",NA,NA,NA,NA,""
"image-keyboard-response",119,124844,"0.0-3.36-0.36","grrkm06dyljb3z0",148,"157.csv","","306.90000000596046","resources/trios/L1T2A1.jpg","39","restless",0.5,0.7,0.8,0.955187295848008,"false"
"image-keyboard-response",120,125251,"0.0-3.36-1.36","grrkm06dyljb3z0",148,"157.csv","","null","resources/maskTrios/BBA1.jpg","null","",NA,NA,NA,NA,""
"image-keyboard-response",121,126456,"0.0-3.36-2.36","grrkm06dyljb3z0",148,"157.csv","","null","resources/images/fishbone.png","null","",NA,NA,NA,NA,""
"image-keyboard-response",122,126924,"0.0-3.37-0.37","grrkm06dyljb3z0",148,"157.csv","","465.7000000178814","resources/trios/L2T1A2.jpg","38","restless",0.5,0.7,0.8,0.0827625085760653,"true"
"image-keyboard-response",123,127329,"0.0-3.37-1.37","grrkm06dyljb3z0",148,"157.csv","","null","resources/maskTrios/BT1B.jpg","null","",NA,NA,NA,NA,""
"image-keyboard-response",124,128532,"0.0-3.37-2.37","grrkm06dyljb3z0",148,"157.csv","","null","resources/images/coin2.png","null","",NA,NA,NA,NA,""
"image-keyboard-response",125,128797,"0.0-3.38-0.38","grrkm06dyljb3z0",148,"157.csv","","262.90000000596046","resources/trios/L2T1A1.jpg","37","restless",0.5,0.7,0.8,0.874637272255553,"false"
"image-keyboard-response",126,129201,"0.0-3.38-1.38","grrkm06dyljb3z0",148,"157.csv","","null","resources/maskTrios/L2BB.jpg","null","",NA,NA,NA,NA,""
"image-keyboard-response",127,130406,"0.0-3.38-2.38","grrkm06dyljb3z0",148,"157.csv","","null","resources/images/fishbone.png","null","",NA,NA,NA,NA,""
"image-keyboard-response",128,130807,"0.0-3.39-0.39","grrkm06dyljb3z0",148,"157.csv","","399.60000002384186","resources/trios/L1T2A1.jpg","37","restless",0.5,0.7,0.8,0.490790548989302,"true"
"image-keyboard-response",129,131210,"0.0-3.39-1.39","grrkm06dyljb3z0",148,"157.csv","","null","resources/maskTrios/L1BB.jpg","null","",NA,NA,NA,NA,""
"image-keyboard-response",130,132413,"0.0-3.39-2.39","grrkm06dyljb3z0",148,"157.csv","","null","resources/images/coin2.png","null","",NA,NA,NA,NA,""
"image-keyboard-response",131,132684,"0.0-3.40-0.40","grrkm06dyljb3z0",148,"157.csv","","267.80000001192093","resources/trios/L2T1A1.jpg","38","restless",0.5,0.7,0.8,0.524788391342609,"true"
"image-keyboard-response",132,133088,"0.0-3.40-1.40","grrkm06dyljb3z0",148,"157.csv","","null","resources/maskTrios/BT1B.jpg","null","",NA,NA,NA,NA,""
"image-keyboard-response",133,134293,"0.0-3.40-2.40","grrkm06dyljb3z0",148,"157.csv","","null","resources/images/coin2.png","null","",NA,NA,NA,NA,""
"image-keyboard-response",134,134619,"0.0-3.41-0.41","grrkm06dyljb3z0",148,"157.csv","","324.40000000596046","resources/trios/L1T2A1.jpg","39","restless",0.5,0.7,0.8,0.697053674948904,"true"
"image-keyboard-response",135,135023,"0.0-3.41-1.41","grrkm06dyljb3z0",148,"157.csv","","null","resources/maskTrios/BBA1.jpg","null","",NA,NA,NA,NA,""
"image-keyboard-response",136,136226,"0.0-3.41-2.41","grrkm06dyljb3z0",148,"157.csv","","null","resources/images/coin2.png","null","",NA,NA,NA,NA,""
"image-keyboard-response",137,137356,"0.0-3.42-0.42","grrkm06dyljb3z0",148,"157.csv","","1127.800000011921","resources/trios/L1T2A2.jpg","39","restless",0.5,0.7,0.8,0.164846493777871,"true"
"image-keyboard-response",138,137760,"0.0-3.42-1.42","grrkm06dyljb3z0",148,"157.csv","","null","resources/maskTrios/BBA2.jpg","null","",NA,NA,NA,NA,""
"image-keyboard-response",139,138966,"0.0-3.42-2.42","grrkm06dyljb3z0",148,"157.csv","","null","resources/images/coin2.png","null","",NA,NA,NA,NA,""
"image-keyboard-response",140,139356,"0.0-3.43-0.43","grrkm06dyljb3z0",148,"157.csv","","388.09999999403954","resources/trios/L2T2A2.jpg","38","restless",0.5,0.7,0.8,0.457302541340608,"true"
"image-keyboard-response",141,139763,"0.0-3.43-1.43","grrkm06dyljb3z0",148,"157.csv","","null","resources/maskTrios/BT2B.jpg","null","",NA,NA,NA,NA,""
"image-keyboard-response",142,140969,"0.0-3.43-2.43","grrkm06dyljb3z0",148,"157.csv","","null","resources/images/coin2.png","null","",NA,NA,NA,NA,""
"image-keyboard-response",143,141312,"0.0-3.44-0.44","grrkm06dyljb3z0",148,"157.csv","","341.2000000178814","resources/trios/L1T1A2.jpg","37","restless",0.5,0.7,0.8,0.340672189148594,"true"
"image-keyboard-response",144,141716,"0.0-3.44-1.44","grrkm06dyljb3z0",148,"157.csv","","null","resources/maskTrios/L1BB.jpg","null","",NA,NA,NA,NA,""
"image-keyboard-response",145,142923,"0.0-3.44-2.44","grrkm06dyljb3z0",148,"157.csv","","null","resources/images/coin2.png","null","",NA,NA,NA,NA,""
"image-keyboard-response",146,143195,"0.0-3.45-0.45","grrkm06dyljb3z0",148,"157.csv","","270.30000001192093","resources/trios/L1T1A1.jpg","37","restless",0.5,0.7,0.8,0.742875876839798,"false"
"image-keyboard-response",147,143601,"0.0-3.45-1.45","grrkm06dyljb3z0",148,"157.csv","","null","resources/maskTrios/L1BB.jpg","null","",NA,NA,NA,NA,""
"image-keyboard-response",148,144806,"0.0-3.45-2.45","grrkm06dyljb3z0",148,"157.csv","","null","resources/images/fishbone.png","null","",NA,NA,NA,NA,""
"image-keyboard-response",149,145185,"0.0-3.46-0.46","grrkm06dyljb3z0",148,"157.csv","","377.10000002384186","resources/trios/L1T1A2.jpg","39","restless",0.5,0.7,0.8,0.780438209353219,"true"
"image-keyboard-response",150,145591,"0.0-3.46-1.46","grrkm06dyljb3z0",148,"157.csv","","null","resources/maskTrios/BBA2.jpg","null","",NA,NA,NA,NA,""
"image-keyboard-response",151,146796,"0.0-3.46-2.46","grrkm06dyljb3z0",148,"157.csv","","null","resources/images/coin2.png","null","",NA,NA,NA,NA,""
"image-keyboard-response",152,147199,"0.0-3.47-0.47","grrkm06dyljb3z0",148,"157.csv","","401.09999999403954","resources/trios/L2T2A2.jpg","37","restless",0.6,0.6,0.8,0.470685024168762,"true"
"image-keyboard-response",153,147603,"0.0-3.47-1.47","grrkm06dyljb3z0",148,"157.csv","","null","resources/maskTrios/L2BB.jpg","null","",NA,NA,NA,NA,""
"image-keyboard-response",154,148809,"0.0-3.47-2.47","grrkm06dyljb3z0",148,"157.csv","","null","resources/images/coin2.png","null","",NA,NA,NA,NA,""
"image-keyboard-response",155,149038,"0.0-3.48-0.48","grrkm06dyljb3z0",148,"157.csv","","226.39999997615814","resources/trios/L1T2A1.jpg","38","restless",0.6,0.6,0.8,0.493556640490949,"true"
"image-keyboard-response",156,149443,"0.0-3.48-1.48","grrkm06dyljb3z0",148,"157.csv","","null","resources/maskTrios/BT2B.jpg","null","",NA,NA,NA,NA,""
"image-keyboard-response",157,150648,"0.0-3.48-2.48","grrkm06dyljb3z0",148,"157.csv","","null","resources/images/coin2.png","null","",NA,NA,NA,NA,""
"image-keyboard-response",158,151303,"0.0-3.49-0.49","grrkm06dyljb3z0",148,"157.csv","","652.4000000059605","resources/trios/L1T2A1.jpg","38","restless",0.6,0.6,0.8,0.986477106417938,"false"
"image-keyboard-response",159,151709,"0.0-3.49-1.49","grrkm06dyljb3z0",148,"157.csv","","null","resources/maskTrios/BT2B.jpg","null","",NA,NA,NA,NA,""
"image-keyboard-response",160,152912,"0.0-3.49-2.49","grrkm06dyljb3z0",148,"157.csv","","null","resources/images/fishbone.png","null","",NA,NA,NA,NA,""
"image-keyboard-response",161,153285,"0.0-3.50-0.50","grrkm06dyljb3z0",148,"157.csv","","371.5","resources/trios/L2T2A1.jpg","39","restless",0.6,0.6,0.8,0.251833677316068,"true"
"image-keyboard-response",162,153691,"0.0-3.50-1.50","grrkm06dyljb3z0",148,"157.csv","","null","resources/maskTrios/BBA1.jpg","null","",NA,NA,NA,NA,""
"image-keyboard-response",163,154896,"0.0-3.50-2.50","grrkm06dyljb3z0",148,"157.csv","","null","resources/images/coin2.png","null","",NA,NA,NA,NA,""
"image-keyboard-response",164,155153,"0.0-3.51-0.51","grrkm06dyljb3z0",148,"157.csv","","255.40000000596046","resources/trios/L1T1A1.jpg","37","restless",0.6,0.6,0.7,0.898845882579471,"false"
"image-keyboard-response",165,155556,"0.0-3.51-1.51","grrkm06dyljb3z0",148,"157.csv","","null","resources/maskTrios/L1BB.jpg","null","",NA,NA,NA,NA,""
"image-keyboard-response",166,156760,"0.0-3.51-2.51","grrkm06dyljb3z0",148,"157.csv","","null","resources/images/fishbone.png","null","",NA,NA,NA,NA,""
"image-keyboard-response",167,157021,"0.0-3.52-0.52","grrkm06dyljb3z0",148,"157.csv","","260.09999999403954","resources/trios/L2T2A2.jpg","38","restless",0.6,0.5,0.7,0.301841046859801,"true"
"image-keyboard-response",168,157426,"0.0-3.52-1.52","grrkm06dyljb3z0",148,"157.csv","","null","resources/maskTrios/BT2B.jpg","null","",NA,NA,NA,NA,""
"image-keyboard-response",169,158632,"0.0-3.52-2.52","grrkm06dyljb3z0",148,"157.csv","","null","resources/images/coin2.png","null","",NA,NA,NA,NA,""
"image-keyboard-response",170,158936,"0.0-3.53-0.53","grrkm06dyljb3z0",148,"157.csv","","302.80000001192093","resources/trios/L2T1A2.jpg","37","restless",0.6,0.5,0.7,0.839377922202307,"false"
"image-keyboard-response",171,159339,"0.0-3.53-1.53","grrkm06dyljb3z0",148,"157.csv","","null","resources/maskTrios/L2BB.jpg","null","",NA,NA,NA,NA,""
"image-keyboard-response",172,160541,"0.0-3.53-2.53","grrkm06dyljb3z0",148,"157.csv","","null","resources/images/fishbone.png","null","",NA,NA,NA,NA,""
"image-keyboard-response",173,161124,"0.0-3.54-0.54","grrkm06dyljb3z0",148,"157.csv","","580.7999999821186","resources/trios/L1T1A1.jpg","38","restless",0.6,0.5,0.7,0.911721864831836,"false"
"image-keyboard-response",174,161530,"0.0-3.54-1.54","grrkm06dyljb3z0",148,"157.csv","","null","resources/maskTrios/BT1B.jpg","null","",NA,NA,NA,NA,""
"image-keyboard-response",175,162737,"0.0-3.54-2.54","grrkm06dyljb3z0",148,"157.csv","","null","resources/images/fishbone.png","null","",NA,NA,NA,NA,""
"image-keyboard-response",176,163019,"0.0-3.55-0.55","grrkm06dyljb3z0",148,"157.csv","","279.80000001192093","resources/trios/L1T2A2.jpg","39","restless",0.5,0.6,0.7,0.91177762996121,"false"
"image-keyboard-response",177,163424,"0.0-3.55-1.55","grrkm06dyljb3z0",148,"157.csv","","null","resources/maskTrios/BBA2.jpg","null","",NA,NA,NA,NA,""
"image-keyboard-response",178,164629,"0.0-3.55-2.55","grrkm06dyljb3z0",148,"157.csv","","null","resources/images/fishbone.png","null","",NA,NA,NA,NA,""
"image-keyboard-response",179,164940,"0.0-3.56-0.56","grrkm06dyljb3z0",148,"157.csv","","309.5","resources/trios/L1T1A2.jpg","39","restless",0.5,0.5,0.7,0.733133079551441,"false"
"image-keyboard-response",180,165344,"0.0-3.56-1.56","grrkm06dyljb3z0",148,"157.csv","","null","resources/maskTrios/BBA2.jpg","null","",NA,NA,NA,NA,""
"image-keyboard-response",181,166550,"0.0-3.56-2.56","grrkm06dyljb3z0",148,"157.csv","","null","resources/images/fishbone.png","null","",NA,NA,NA,NA,""
"image-keyboard-response",182,167142,"0.0-3.57-0.57","grrkm06dyljb3z0",148,"157.csv","","590.1999999880791","resources/trios/L1T2A1.jpg","37","restless",0.5,0.5,0.7,0.900395083645799,"false"
"image-keyboard-response",183,167545,"0.0-3.57-1.57","grrkm06dyljb3z0",148,"157.csv","","null","resources/maskTrios/L1BB.jpg","null","",NA,NA,NA,NA,""
"image-keyboard-response",184,168750,"0.0-3.57-2.57","grrkm06dyljb3z0",148,"157.csv","","null","resources/images/fishbone.png","null","",NA,NA,NA,NA,""
"image-keyboard-response",185,169047,"0.0-3.58-0.58","grrkm06dyljb3z0",148,"157.csv","","293.5","resources/trios/L1T2A1.jpg","39","restless",0.5,0.5,0.8,0.0999471906935312,"true"
"image-keyboard-response",186,169450,"0.0-3.58-1.58","grrkm06dyljb3z0",148,"157.csv","","null","resources/maskTrios/BBA1.jpg","null","",NA,NA,NA,NA,""
"image-keyboard-response",187,170654,"0.0-3.58-2.58","grrkm06dyljb3z0",148,"157.csv","","null","resources/images/coin2.png","null","",NA,NA,NA,NA,""
"image-keyboard-response",188,170968,"0.0-3.59-0.59","grrkm06dyljb3z0",148,"157.csv","","312.40000000596046","resources/trios/L1T2A1.jpg","38","restless",0.5,0.5,0.8,0.095408576036359,"true"
"image-keyboard-response",189,171375,"0.0-3.59-1.59","grrkm06dyljb3z0",148,"157.csv","","null","resources/maskTrios/BT2B.jpg","null","",NA,NA,NA,NA,""
"image-keyboard-response",190,172581,"0.0-3.59-2.59","grrkm06dyljb3z0",148,"157.csv","","null","resources/images/coin2.png","null","",NA,NA,NA,NA,""
"image-keyboard-response",191,172743,"0.0-3.60-0.60","grrkm06dyljb3z0",148,"157.csv","","159.69999998807907","resources/trios/L2T1A1.jpg","38","restless",0.5,0.5,0.8,0.907584668073491,"false"
"image-keyboard-response",192,173150,"0.0-3.60-1.60","grrkm06dyljb3z0",148,"157.csv","","null","resources/maskTrios/BT1B.jpg","null","",NA,NA,NA,NA,""
"image-keyboard-response",193,174356,"0.0-3.60-2.60","grrkm06dyljb3z0",148,"157.csv","","null","resources/images/fishbone.png","null","",NA,NA,NA,NA,""
"image-keyboard-response",194,174686,"0.0-3.61-0.61","grrkm06dyljb3z0",148,"157.csv","","328.90000000596046","resources/trios/L1T2A2.jpg","37","restless",0.4,0.5,0.8,0.386802858868887,"true"
"image-keyboard-response",195,175090,"0.0-3.61-1.61","grrkm06dyljb3z0",148,"157.csv","","null","resources/maskTrios/L1BB.jpg","null","",NA,NA,NA,NA,""
"image-keyboard-response",196,176295,"0.0-3.61-2.61","grrkm06dyljb3z0",148,"157.csv","","null","resources/images/coin2.png","null","",NA,NA,NA,NA,""
"image-keyboard-response",197,176499,"0.0-3.62-0.62","grrkm06dyljb3z0",148,"157.csv","","201.2000000178814","resources/trios/L1T1A2.jpg","37","restless",0.4,0.5,0.8,0.652522029069278,"false"
"image-keyboard-response",198,176903,"0.0-3.62-1.62","grrkm06dyljb3z0",148,"157.csv","","null","resources/maskTrios/L1BB.jpg","null","",NA,NA,NA,NA,""
"image-keyboard-response",199,178106,"0.0-3.62-2.62","grrkm06dyljb3z0",148,"157.csv","","null","resources/images/fishbone.png","null","",NA,NA,NA,NA,""
"image-keyboard-response",200,178346,"0.0-3.63-0.63","grrkm06dyljb3z0",148,"157.csv","","238.80000001192093","resources/trios/L1T1A1.jpg","37","restless",0.4,0.5,0.8,0.524966757636778,"false"
"image-keyboard-response",201,178750,"0.0-3.63-1.63","grrkm06dyljb3z0",148,"157.csv","","null","resources/maskTrios/L1BB.jpg","null","",NA,NA,NA,NA,""
"image-keyboard-response",202,179956,"0.0-3.63-2.63","grrkm06dyljb3z0",148,"157.csv","","null","resources/images/fishbone.png","null","",NA,NA,NA,NA,""
"image-keyboard-response",203,180208,"0.0-3.64-0.64","grrkm06dyljb3z0",148,"157.csv","","250.7999999821186","resources/trios/L1T2A2.jpg","38","restless",0.4,0.5,0.8,0.134238798013946,"true"
"image-keyboard-response",204,180615,"0.0-3.64-1.64","grrkm06dyljb3z0",148,"157.csv","","null","resources/maskTrios/BT2B.jpg","null","",NA,NA,NA,NA,""
"image-keyboard-response",205,181820,"0.0-3.64-2.64","grrkm06dyljb3z0",148,"157.csv","","null","resources/images/coin2.png","null","",NA,NA,NA,NA,""
"image-keyboard-response",206,182081,"0.0-3.65-0.65","grrkm06dyljb3z0",148,"157.csv","","258.39999997615814","resources/trios/L1T2A2.jpg","38","restless",0.4,0.5,0.8,0.589084474615399,"false"
"image-keyboard-response",207,182486,"0.0-3.65-1.65","grrkm06dyljb3z0",148,"157.csv","","null","resources/maskTrios/BT2B.jpg","null","",NA,NA,NA,NA,""
"image-keyboard-response",208,183690,"0.0-3.65-2.65","grrkm06dyljb3z0",148,"157.csv","","null","resources/images/fishbone.png","null","",NA,NA,NA,NA,""
"image-keyboard-response",209,183909,"0.0-3.66-0.66","grrkm06dyljb3z0",148,"157.csv","","216.30000001192093","resources/trios/L2T2A2.jpg","39","restless",0.4,0.5,0.8,0.977614031672872,"false"
"image-keyboard-response",210,184314,"0.0-3.66-1.66","grrkm06dyljb3z0",148,"157.csv","","null","resources/maskTrios/BBA2.jpg","null","",NA,NA,NA,NA,""
"image-keyboard-response",211,185518,"0.0-3.66-2.66","grrkm06dyljb3z0",148,"157.csv","","null","resources/images/fishbone.png","null","",NA,NA,NA,NA,""
"image-keyboard-response",212,185798,"0.0-3.67-0.67","grrkm06dyljb3z0",148,"157.csv","","277.7000000178814","resources/trios/L2T1A2.jpg","39","restless",0.4,0.5,0.8,0.678033412628056,"true"
"image-keyboard-response",213,186200,"0.0-3.67-1.67","grrkm06dyljb3z0",148,"157.csv","","null","resources/maskTrios/BBA2.jpg","null","",NA,NA,NA,NA,""
"image-keyboard-response",214,187406,"0.0-3.67-2.67","grrkm06dyljb3z0",148,"157.csv","","null","resources/images/coin2.png","null","",NA,NA,NA,NA,""
"image-keyboard-response",215,187634,"0.0-3.68-0.68","grrkm06dyljb3z0",148,"157.csv","","225.40000000596046","resources/trios/L2T1A2.jpg","38","restless",0.4,0.5,0.8,0.469483743238504,"true"
"image-keyboard-response",216,188040,"0.0-3.68-1.68","grrkm06dyljb3z0",148,"157.csv","","null","resources/maskTrios/BT1B.jpg","null","",NA,NA,NA,NA,""
"image-keyboard-response",217,189246,"0.0-3.68-2.68","grrkm06dyljb3z0",148,"157.csv","","null","resources/images/coin2.png","null","",NA,NA,NA,NA,""
"image-keyboard-response",218,189542,"0.0-3.69-0.69","grrkm06dyljb3z0",148,"157.csv","","294.89999997615814","resources/trios/L2T2A2.jpg","37","restless",0.4,0.4,0.8,0.606300999225169,"false"
"image-keyboard-response",219,189944,"0.0-3.69-1.69","grrkm06dyljb3z0",148,"157.csv","","null","resources/maskTrios/L2BB.jpg","null","",NA,NA,NA,NA,""
"image-keyboard-response",220,191150,"0.0-3.69-2.69","grrkm06dyljb3z0",148,"157.csv","","null","resources/images/fishbone.png","null","",NA,NA,NA,NA,""
"image-keyboard-response",221,191210,"0.0-3.70-0.70","grrkm06dyljb3z0",148,"157.csv","","58.400000005960464","resources/trios/L1T1A2.jpg","38","restless",0.4,0.4,0.7,0.18767880550835,"true"
"image-keyboard-response",222,191616,"0.0-3.70-1.70","grrkm06dyljb3z0",148,"157.csv","","null","resources/maskTrios/BT1B.jpg","null","",NA,NA,NA,NA,""
"image-keyboard-response",223,192822,"0.0-3.70-2.70","grrkm06dyljb3z0",148,"157.csv","","null","resources/images/coin2.png","null","",NA,NA,NA,NA,""
"image-keyboard-response",224,193071,"0.0-3.71-0.71","grrkm06dyljb3z0",148,"157.csv","","247","resources/trios/L2T1A1.jpg","39","restless",0.4,0.3,0.7,0.384988151612026,"true"
"image-keyboard-response",225,193475,"0.0-3.71-1.71","grrkm06dyljb3z0",148,"157.csv","","null","resources/maskTrios/BBA1.jpg","null","",NA,NA,NA,NA,""
"image-keyboard-response",226,194681,"0.0-3.71-2.71","grrkm06dyljb3z0",148,"157.csv","","null","resources/images/coin2.png","null","",NA,NA,NA,NA,""
"image-keyboard-response",227,195009,"0.0-3.72-0.72","grrkm06dyljb3z0",148,"157.csv","","325.30000001192093","resources/trios/L2T2A2.jpg","39","restless",0.4,0.3,0.7,0.955377111185121,"false"
"image-keyboard-response",228,195412,"0.0-3.72-1.72","grrkm06dyljb3z0",148,"157.csv","","null","resources/maskTrios/BBA2.jpg","null","",NA,NA,NA,NA,""
"image-keyboard-response",229,196616,"0.0-3.72-2.72","grrkm06dyljb3z0",148,"157.csv","","null","resources/images/fishbone.png","null","",NA,NA,NA,NA,""
"image-keyboard-response",230,196918,"0.0-3.73-0.73","grrkm06dyljb3z0",148,"157.csv","","300.09999999403954","resources/trios/L1T2A1.jpg","38","restless",0.4,0.3,0.7,0.0806954881115287,"true"
"image-keyboard-response",231,197322,"0.0-3.73-1.73","grrkm06dyljb3z0",148,"157.csv","","null","resources/maskTrios/BT2B.jpg","null","",NA,NA,NA,NA,""
"image-keyboard-response",232,198529,"0.0-3.73-2.73","grrkm06dyljb3z0",148,"157.csv","","null","resources/images/coin2.png","null","",NA,NA,NA,NA,""
"image-keyboard-response",233,198810,"0.0-3.74-0.74","grrkm06dyljb3z0",148,"157.csv","","278.7000000178814","resources/trios/L1T1A2.jpg","38","restless",0.4,0.4,0.7,0.774916598578609,"false"
"image-keyboard-response",234,199215,"0.0-3.74-1.74","grrkm06dyljb3z0",148,"157.csv","","null","resources/maskTrios/BT1B.jpg","null","",NA,NA,NA,NA,""
"image-keyboard-response",235,200418,"0.0-3.74-2.74","grrkm06dyljb3z0",148,"157.csv","","null","resources/images/fishbone.png","null","",NA,NA,NA,NA,""
"image-keyboard-response",236,200709,"0.0-3.75-0.75","grrkm06dyljb3z0",148,"157.csv","","289.30000001192093","resources/trios/L2T1A2.jpg","39","restless",0.4,0.4,0.7,0.680255021604541,"true"
"image-keyboard-response",237,201116,"0.0-3.75-1.75","grrkm06dyljb3z0",148,"157.csv","","null","resources/maskTrios/BBA2.jpg","null","",NA,NA,NA,NA,""
"image-keyboard-response",238,202320,"0.0-3.75-2.75","grrkm06dyljb3z0",148,"157.csv","","null","resources/images/coin2.png","null","",NA,NA,NA,NA,""
"image-keyboard-response",239,202365,"0.0-3.76-0.76","grrkm06dyljb3z0",148,"157.csv","","43","resources/trios/L2T1A1.jpg","39","restless",0.3,0.4,0.8,0.592426755123616,"true"
"image-keyboard-response",240,202772,"0.0-3.76-1.76","grrkm06dyljb3z0",148,"157.csv","","null","resources/maskTrios/BBA1.jpg","null","",NA,NA,NA,NA,""
"image-keyboard-response",241,203976,"0.0-3.76-2.76","grrkm06dyljb3z0",148,"157.csv","","null","resources/images/coin2.png","null","",NA,NA,NA,NA,""
"image-keyboard-response",242,204250,"0.0-3.77-0.77","grrkm06dyljb3z0",148,"157.csv","","272","resources/trios/L1T1A1.jpg","39","restless",0.3,0.4,0.8,0.695132531600518,"true"
"image-keyboard-response",243,204654,"0.0-3.77-1.77","grrkm06dyljb3z0",148,"157.csv","","null","resources/maskTrios/BBA1.jpg","null","",NA,NA,NA,NA,""
"image-keyboard-response",244,205860,"0.0-3.77-2.77","grrkm06dyljb3z0",148,"157.csv","","null","resources/images/coin2.png","null","",NA,NA,NA,NA,""
"image-keyboard-response",245,206113,"0.0-3.78-0.78","grrkm06dyljb3z0",148,"157.csv","","250.80000001192093","resources/trios/L2T1A1.jpg","38","restless",0.4,0.4,0.8,0.0284184637595271,"true"
"image-keyboard-response",246,206520,"0.0-3.78-1.78","grrkm06dyljb3z0",148,"157.csv","","null","resources/maskTrios/BT1B.jpg","null","",NA,NA,NA,NA,""
"image-keyboard-response",247,207724,"0.0-3.78-2.78","grrkm06dyljb3z0",148,"157.csv","","null","resources/images/coin2.png","null","",NA,NA,NA,NA,""
"image-keyboard-response",248,207951,"0.0-3.79-0.79","grrkm06dyljb3z0",148,"157.csv","","226.30000001192093","resources/trios/L2T1A2.jpg","39","restless",0.4,0.3,0.8,0.192796704388617,"true"
"image-keyboard-response",249,208354,"0.0-3.79-1.79","grrkm06dyljb3z0",148,"157.csv","","null","resources/maskTrios/BBA2.jpg","null","",NA,NA,NA,NA,""
"image-keyboard-response",250,209561,"0.0-3.79-2.79","grrkm06dyljb3z0",148,"157.csv","","null","resources/images/coin2.png","null","",NA,NA,NA,NA,""
"image-keyboard-response",251,209732,"0.0-3.80-0.80","grrkm06dyljb3z0",148,"157.csv","","169.80000001192093","resources/trios/L2T1A1.jpg","38","restless",0.4,0.4,0.8,0.241587751107348,"true"
"image-keyboard-response",252,210135,"0.0-3.80-1.80","grrkm06dyljb3z0",148,"157.csv","","null","resources/maskTrios/BT1B.jpg","null","",NA,NA,NA,NA,""
"image-keyboard-response",253,211339,"0.0-3.80-2.80","grrkm06dyljb3z0",148,"157.csv","","null","resources/images/coin2.png","null","",NA,NA,NA,NA,""
"image-keyboard-response",254,212267,"0.0-3.81-0.81","grrkm06dyljb3z0",148,"157.csv","","925.7000000178814","resources/trios/L1T1A2.jpg","39","restless",0.4,0.4,0.8,0.474272613877184,"true"
"image-keyboard-response",255,212672,"0.0-3.81-1.81","grrkm06dyljb3z0",148,"157.csv","","null","resources/maskTrios/BBA2.jpg","null","",NA,NA,NA,NA,""
"image-keyboard-response",256,213878,"0.0-3.81-2.81","grrkm06dyljb3z0",148,"157.csv","","null","resources/images/coin2.png","null","",NA,NA,NA,NA,""
"image-keyboard-response",257,214118,"0.0-3.82-0.82","grrkm06dyljb3z0",148,"157.csv","","238.30000001192093","resources/trios/L2T1A1.jpg","38","restless",0.4,0.4,0.8,0.0702772878332447,"true"
"image-keyboard-response",258,214522,"0.0-3.82-1.82","grrkm06dyljb3z0",148,"157.csv","","null","resources/maskTrios/BT1B.jpg","null","",NA,NA,NA,NA,""
"image-keyboard-response",259,215729,"0.0-3.82-2.82","grrkm06dyljb3z0",148,"157.csv","","null","resources/images/coin2.png","null","",NA,NA,NA,NA,""
"image-keyboard-response",260,216044,"0.0-3.83-0.83","grrkm06dyljb3z0",148,"157.csv","","313.90000000596046","resources/trios/L2T2A2.jpg","39","restless",0.3,0.4,0.8,0.0868111350115988,"true"
"image-keyboard-response",261,216450,"0.0-3.83-1.83","grrkm06dyljb3z0",148,"157.csv","","null","resources/maskTrios/BBA2.jpg","null","",NA,NA,NA,NA,""
"image-keyboard-response",262,217654,"0.0-3.83-2.83","grrkm06dyljb3z0",148,"157.csv","","null","resources/images/coin2.png","null","",NA,NA,NA,NA,""
"image-keyboard-response",263,218319,"0.0-3.84-0.84","grrkm06dyljb3z0",148,"157.csv","","663.2999999821186","resources/trios/L1T2A2.jpg","38","restless",0.3,0.4,0.8,0.00830479538472439,"true"
"image-keyboard-response",264,218726,"0.0-3.84-1.84","grrkm06dyljb3z0",148,"157.csv","","null","resources/maskTrios/BT2B.jpg","null","",NA,NA,NA,NA,""
"image-keyboard-response",265,219933,"0.0-3.84-2.84","grrkm06dyljb3z0",148,"157.csv","","null","resources/images/coin2.png","null","",NA,NA,NA,NA,""
"image-keyboard-response",266,220288,"0.0-3.85-0.85","grrkm06dyljb3z0",148,"157.csv","","352.40000000596046","resources/trios/L2T1A2.jpg","39","restless",0.3,0.4,0.8,0.119508846269487,"true"
"image-keyboard-response",267,220695,"0.0-3.85-1.85","grrkm06dyljb3z0",148,"157.csv","","null","resources/maskTrios/BBA2.jpg","null","",NA,NA,NA,NA,""
"image-keyboard-response",268,221900,"0.0-3.85-2.85","grrkm06dyljb3z0",148,"157.csv","","null","resources/images/coin2.png","null","",NA,NA,NA,NA,""
"image-keyboard-response",269,222170,"0.0-3.86-0.86","grrkm06dyljb3z0",148,"157.csv","","267.90000000596046","resources/trios/L2T2A1.jpg","38","restless",0.3,0.4,0.8,0.414820880937544,"false"
"image-keyboard-response",270,222577,"0.0-3.86-1.86","grrkm06dyljb3z0",148,"157.csv","","null","resources/maskTrios/BT2B.jpg","null","",NA,NA,NA,NA,""
"image-keyboard-response",271,223780,"0.0-3.86-2.86","grrkm06dyljb3z0",148,"157.csv","","null","resources/images/fishbone.png","null","",NA,NA,NA,NA,""
"image-keyboard-response",272,224051,"0.0-3.87-0.87","grrkm06dyljb3z0",148,"157.csv","","269","resources/trios/L1T2A2.jpg","37","restless",0.3,0.4,0.8,0.672976471454393,"false"
"image-keyboard-response",273,224455,"0.0-3.87-1.87","grrkm06dyljb3z0",148,"157.csv","","null","resources/maskTrios/L1BB.jpg","null","",NA,NA,NA,NA,""
"image-keyboard-response",274,225660,"0.0-3.87-2.87","grrkm06dyljb3z0",148,"157.csv","","null","resources/images/fishbone.png","null","",NA,NA,NA,NA,""
"image-keyboard-response",275,226635,"0.0-3.88-0.88","grrkm06dyljb3z0",148,"157.csv","","972.8000000119209","resources/trios/L1T1A1.jpg","37","restless",0.3,0.4,0.8,0.962223307274501,"false"
"image-keyboard-response",276,227040,"0.0-3.88-1.88","grrkm06dyljb3z0",148,"157.csv","","null","resources/maskTrios/L1BB.jpg","null","",NA,NA,NA,NA,""
"image-keyboard-response",277,228247,"0.0-3.88-2.88","grrkm06dyljb3z0",148,"157.csv","","null","resources/images/fishbone.png","null","",NA,NA,NA,NA,""
"image-keyboard-response",278,228324,"0.0-3.89-0.89","grrkm06dyljb3z0",148,"157.csv","","74.5","resources/trios/L1T1A1.jpg","39","restless",0.3,0.4,0.8,0.826946419879192,"false"
"image-keyboard-response",279,228729,"0.0-3.89-1.89","grrkm06dyljb3z0",148,"157.csv","","null","resources/maskTrios/BBA1.jpg","null","",NA,NA,NA,NA,""
"image-keyboard-response",280,229934,"0.0-3.89-2.89","grrkm06dyljb3z0",148,"157.csv","","null","resources/images/fishbone.png","null","",NA,NA,NA,NA,""
"image-keyboard-response",281,230044,"0.0-3.90-0.90","grrkm06dyljb3z0",148,"157.csv","","108.90000000596046","resources/trios/L1T2A2.jpg","38","restless",0.3,0.4,0.7,0.500836288746494,"false"
"image-keyboard-response",282,230449,"0.0-3.90-1.90","grrkm06dyljb3z0",148,"157.csv","","null","resources/maskTrios/BT2B.jpg","null","",NA,NA,NA,NA,""
"image-keyboard-response",283,231655,"0.0-3.90-2.90","grrkm06dyljb3z0",148,"157.csv","","null","resources/images/fishbone.png","null","",NA,NA,NA,NA,""
"image-keyboard-response",284,231939,"0.0-3.91-0.91","grrkm06dyljb3z0",148,"157.csv","","282.59999999403954","resources/trios/L2T2A2.jpg","37","restless",0.3,0.4,0.7,0.395166926226729,"false"
"image-keyboard-response",285,232345,"0.0-3.91-1.91","grrkm06dyljb3z0",148,"157.csv","","null","resources/maskTrios/L2BB.jpg","null","",NA,NA,NA,NA,""
"image-keyboard-response",286,233550,"0.0-3.91-2.91","grrkm06dyljb3z0",148,"157.csv","","null","resources/images/fishbone.png","null","",NA,NA,NA,NA,""
"image-keyboard-response",287,233891,"0.0-3.92-0.92","grrkm06dyljb3z0",148,"157.csv","","339","resources/trios/L1T1A2.jpg","37","restless",0.3,0.3,0.7,0.135942352018091,"true"
"image-keyboard-response",288,234295,"0.0-3.92-1.92","grrkm06dyljb3z0",148,"157.csv","","null","resources/maskTrios/L1BB.jpg","null","",NA,NA,NA,NA,""
"image-keyboard-response",289,235500,"0.0-3.92-2.92","grrkm06dyljb3z0",148,"157.csv","","null","resources/images/coin2.png","null","",NA,NA,NA,NA,""
"image-keyboard-response",290,235794,"0.0-3.93-0.93","grrkm06dyljb3z0",148,"157.csv","","292.10000002384186","resources/trios/L2T1A2.jpg","37","restless",0.3,0.3,0.7,0.903055673388131,"false"
"image-keyboard-response",291,236200,"0.0-3.93-1.93","grrkm06dyljb3z0",148,"157.csv","","null","resources/maskTrios/L2BB.jpg","null","",NA,NA,NA,NA,""
"image-keyboard-response",292,237405,"0.0-3.93-2.93","grrkm06dyljb3z0",148,"157.csv","","null","resources/images/fishbone.png","null","",NA,NA,NA,NA,""
"image-keyboard-response",293,237767,"0.0-3.94-0.94","grrkm06dyljb3z0",148,"157.csv","","359.90000000596046","resources/trios/L1T2A2.jpg","39","restless",0.3,0.3,0.7,0.0825829448272726,"true"
"image-keyboard-response",294,238172,"0.0-3.94-1.94","grrkm06dyljb3z0",148,"157.csv","","null","resources/maskTrios/BBA2.jpg","null","",NA,NA,NA,NA,""
"image-keyboard-response",295,239377,"0.0-3.94-2.94","grrkm06dyljb3z0",148,"157.csv","","null","resources/images/coin2.png","null","",NA,NA,NA,NA,""
"image-keyboard-response",296,239604,"0.0-3.95-0.95","grrkm06dyljb3z0",148,"157.csv","","224.19999998807907","resources/trios/L1T1A2.jpg","38","restless",0.3,0.3,0.7,0.609377717944302,"false"
"image-keyboard-response",297,240007,"0.0-3.95-1.95","grrkm06dyljb3z0",148,"157.csv","","null","resources/maskTrios/BT1B.jpg","null","",NA,NA,NA,NA,""
"image-keyboard-response",298,241212,"0.0-3.95-2.95","grrkm06dyljb3z0",148,"157.csv","","null","resources/images/fishbone.png","null","",NA,NA,NA,NA,""
"image-keyboard-response",299,241517,"0.0-3.96-0.96","grrkm06dyljb3z0",148,"157.csv","","303.09999999403954","resources/trios/L1T2A2.jpg","37","restless",0.3,0.3,0.7,0.510504485245792,"false"
"image-keyboard-response",300,241922,"0.0-3.96-1.96","grrkm06dyljb3z0",148,"157.csv","","null","resources/maskTrios/L1BB.jpg","null","",NA,NA,NA,NA,""
"image-keyboard-response",301,243124,"0.0-3.96-2.96","grrkm06dyljb3z0",148,"157.csv","","null","resources/images/fishbone.png","null","",NA,NA,NA,NA,""
"image-keyboard-response",302,243405,"0.0-3.97-0.97","grrkm06dyljb3z0",148,"157.csv","","278.30000001192093","resources/trios/L1T1A1.jpg","39","restless",0.3,0.2,0.7,0.776933806740033,"false"
"image-keyboard-response",303,243810,"0.0-3.97-1.97","grrkm06dyljb3z0",148,"157.csv","","null","resources/maskTrios/BBA1.jpg","null","",NA,NA,NA,NA,""
"image-keyboard-response",304,245016,"0.0-3.97-2.97","grrkm06dyljb3z0",148,"157.csv","","null","resources/images/fishbone.png","null","",NA,NA,NA,NA,""
"image-keyboard-response",305,245339,"0.0-3.98-0.98","grrkm06dyljb3z0",148,"157.csv","","320","resources/trios/L1T1A2.jpg","39","restless",0.3,0.2,0.7,0.804797925729181,"false"
"image-keyboard-response",306,245745,"0.0-3.98-1.98","grrkm06dyljb3z0",148,"157.csv","","null","resources/maskTrios/BBA2.jpg","null","",NA,NA,NA,NA,""
"image-keyboard-response",307,246950,"0.0-3.98-2.98","grrkm06dyljb3z0",148,"157.csv","","null","resources/images/fishbone.png","null","",NA,NA,NA,NA,""
"image-keyboard-response",308,247208,"0.0-3.99-0.99","grrkm06dyljb3z0",148,"157.csv","","256.7000000178814","resources/trios/L1T1A2.jpg","38","restless",0.3,0.2,0.7,0.945017383847332,"false"
"image-keyboard-response",309,247611,"0.0-3.99-1.99","grrkm06dyljb3z0",148,"157.csv","","null","resources/maskTrios/BT1B.jpg","null","",NA,NA,NA,NA,""
"image-keyboard-response",310,248816,"0.0-3.99-2.99","grrkm06dyljb3z0",148,"157.csv","","null","resources/images/fishbone.png","null","",NA,NA,NA,NA,""
"image-keyboard-response",311,249596,"0.0-3.100-0.100","grrkm06dyljb3z0",148,"157.csv","","778.1999999880791","resources/trios/L2T1A2.jpg","38","restless",0.3,0.2,0.7,0.670280282932007,"false"
"image-keyboard-response",312,249999,"0.0-3.100-1.100","grrkm06dyljb3z0",148,"157.csv","","null","resources/maskTrios/BT1B.jpg","null","",NA,NA,NA,NA,""
"image-keyboard-response",313,251205,"0.0-3.100-2.100","grrkm06dyljb3z0",148,"157.csv","","null","resources/images/fishbone.png","null","",NA,NA,NA,NA,""
"image-keyboard-response",314,251483,"0.0-3.101-0.101","grrkm06dyljb3z0",148,"157.csv","","276.2000000178814","resources/trios/L1T1A2.jpg","37","restless",0.3,0.2,0.7,0.903036482822392,"false"
"image-keyboard-response",315,251890,"0.0-3.101-1.101","grrkm06dyljb3z0",148,"157.csv","","null","resources/maskTrios/L1BB.jpg","null","",NA,NA,NA,NA,""
"image-keyboard-response",316,253095,"0.0-3.101-2.101","grrkm06dyljb3z0",148,"157.csv","","null","resources/images/fishbone.png","null","",NA,NA,NA,NA,""
"image-keyboard-response",317,253165,"0.0-3.102-0.102","grrkm06dyljb3z0",148,"157.csv","","67.5","resources/trios/L1T1A2.jpg","39","restless",0.3,0.2,0.7,0.293115605593537,"true"
"image-keyboard-response",318,253572,"0.0-3.102-1.102","grrkm06dyljb3z0",148,"157.csv","","null","resources/maskTrios/BBA2.jpg","null","",NA,NA,NA,NA,""
"image-keyboard-response",319,254776,"0.0-3.102-2.102","grrkm06dyljb3z0",148,"157.csv","","null","resources/images/coin2.png","null","",NA,NA,NA,NA,""
"image-keyboard-response",320,255094,"0.0-3.103-0.103","grrkm06dyljb3z0",148,"157.csv","","315.90000000596046","resources/trios/L1T1A1.jpg","39","restless",0.3,0.2,0.8,0.819059239046421,"false"
"image-keyboard-response",321,255500,"0.0-3.103-1.103","grrkm06dyljb3z0",148,"157.csv","","null","resources/maskTrios/BBA1.jpg","null","",NA,NA,NA,NA,""
"image-keyboard-response",322,256705,"0.0-3.103-2.103","grrkm06dyljb3z0",148,"157.csv","","null","resources/images/fishbone.png","null","",NA,NA,NA,NA,""
"image-keyboard-response",323,257066,"0.0-3.104-0.104","grrkm06dyljb3z0",148,"157.csv","","359.30000001192093","resources/trios/L1T1A1.jpg","38","restless",0.4,0.2,0.8,0.813234146511258,"false"
"image-keyboard-response",324,257473,"0.0-3.104-1.104","grrkm06dyljb3z0",148,"157.csv","","null","resources/maskTrios/BT1B.jpg","null","",NA,NA,NA,NA,""
"image-keyboard-response",325,258678,"0.0-3.104-2.104","grrkm06dyljb3z0",148,"157.csv","","null","resources/images/fishbone.png","null","",NA,NA,NA,NA,""
"image-keyboard-response",326,259063,"0.0-3.105-0.105","grrkm06dyljb3z0",148,"157.csv","","383.19999998807907","resources/trios/L2T2A2.jpg","37","restless",0.4,0.2,0.8,0.426267997742621,"false"
"image-keyboard-response",327,259470,"0.0-3.105-1.105","grrkm06dyljb3z0",148,"157.csv","","null","resources/maskTrios/L2BB.jpg","null","",NA,NA,NA,NA,""
"image-keyboard-response",328,260672,"0.0-3.105-2.105","grrkm06dyljb3z0",148,"157.csv","","null","resources/images/fishbone.png","null","",NA,NA,NA,NA,""
"image-keyboard-response",329,260940,"0.0-3.106-0.106","grrkm06dyljb3z0",148,"157.csv","","266.30000001192093","resources/trios/L1T2A2.jpg","38","restless",0.4,0.2,0.8,0.0912705009260921,"true"
"image-keyboard-response",330,261342,"0.0-3.106-1.106","grrkm06dyljb3z0",148,"157.csv","","null","resources/maskTrios/BT2B.jpg","null","",NA,NA,NA,NA,""
"image-keyboard-response",331,262549,"0.0-3.106-2.106","grrkm06dyljb3z0",148,"157.csv","","null","resources/images/coin2.png","null","",NA,NA,NA,NA,""
"image-keyboard-response",332,262872,"0.0-3.107-0.107","grrkm06dyljb3z0",148,"157.csv","","321.19999998807907","resources/trios/L1T2A2.jpg","39","restless",0.4,0.1,0.7,0.649517016195867,"true"
"image-keyboard-response",333,263276,"0.0-3.107-1.107","grrkm06dyljb3z0",148,"157.csv","","null","resources/maskTrios/BBA2.jpg","null","",NA,NA,NA,NA,""
"image-keyboard-response",334,264480,"0.0-3.107-2.107","grrkm06dyljb3z0",148,"157.csv","","null","resources/images/coin2.png","null","",NA,NA,NA,NA,""
"image-keyboard-response",335,264778,"0.0-3.108-0.108","grrkm06dyljb3z0",148,"157.csv","","295.19999998807907","resources/trios/L1T1A2.jpg","38","restless",0.5,0.1,0.7,0.0310581774590062,"true"
"image-keyboard-response",336,265181,"0.0-3.108-1.108","grrkm06dyljb3z0",148,"157.csv","","null","resources/maskTrios/BT1B.jpg","null","",NA,NA,NA,NA,""
"image-keyboard-response",337,266385,"0.0-3.108-2.108","grrkm06dyljb3z0",148,"157.csv","","null","resources/images/coin2.png","null","",NA,NA,NA,NA,""
"image-keyboard-response",338,266474,"0.0-3.109-0.109","grrkm06dyljb3z0",148,"157.csv","","86.2000000178814","resources/trios/L2T2A2.jpg","37","restless",0.6,0.2,0.7,0.315435865463671,"true"
"image-keyboard-response",339,266881,"0.0-3.109-1.109","grrkm06dyljb3z0",148,"157.csv","","null","resources/maskTrios/L2BB.jpg","null","",NA,NA,NA,NA,""
"image-keyboard-response",340,268086,"0.0-3.109-2.109","grrkm06dyljb3z0",148,"157.csv","","null","resources/images/coin2.png","null","",NA,NA,NA,NA,""
"image-keyboard-response",341,268307,"0.0-3.110-0.110","grrkm06dyljb3z0",148,"157.csv","","219.59999999403954","resources/trios/L1T2A2.jpg","37","restless",0.6,0.2,0.7,0.0413920115887687,"true"
"image-keyboard-response",342,268712,"0.0-3.110-1.110","grrkm06dyljb3z0",148,"157.csv","","null","resources/maskTrios/L1BB.jpg","null","",NA,NA,NA,NA,""
"image-keyboard-response",343,269915,"0.0-3.110-2.110","grrkm06dyljb3z0",148,"157.csv","","null","resources/images/coin2.png","null","",NA,NA,NA,NA,""
"image-keyboard-response",344,270141,"0.0-3.111-0.111","grrkm06dyljb3z0",148,"157.csv","","224.2000000178814","resources/trios/L1T1A2.jpg","38","restless",0.6,0.2,0.7,0.821961225773392,"false"
"image-keyboard-response",345,270548,"0.0-3.111-1.111","grrkm06dyljb3z0",148,"157.csv","","null","resources/maskTrios/BT1B.jpg","null","",NA,NA,NA,NA,""
"image-keyboard-response",346,271754,"0.0-3.111-2.111","grrkm06dyljb3z0",148,"157.csv","","null","resources/images/fishbone.png","null","",NA,NA,NA,NA,""
"image-keyboard-response",347,271921,"0.0-3.112-0.112","grrkm06dyljb3z0",148,"157.csv","","165.40000000596046","resources/trios/L2T1A1.jpg","37","restless",0.6,0.2,0.7,0.74304467882329,"false"
"image-keyboard-response",348,272327,"0.0-3.112-1.112","grrkm06dyljb3z0",148,"157.csv","","null","resources/maskTrios/L2BB.jpg","null","",NA,NA,NA,NA,""
"image-keyboard-response",349,273531,"0.0-3.112-2.112","grrkm06dyljb3z0",148,"157.csv","","null","resources/images/fishbone.png","null","",NA,NA,NA,NA,""
"image-keyboard-response",350,274127,"0.0-3.113-0.113","grrkm06dyljb3z0",148,"157.csv","","594.5","resources/trios/L2T2A2.jpg","37","restless",0.6,0.2,0.7,0.369494486649792,"true"
"image-keyboard-response",351,274531,"0.0-3.113-1.113","grrkm06dyljb3z0",148,"157.csv","","null","resources/maskTrios/L2BB.jpg","null","",NA,NA,NA,NA,""
"image-keyboard-response",352,275737,"0.0-3.113-2.113","grrkm06dyljb3z0",148,"157.csv","","null","resources/images/coin2.png","null","",NA,NA,NA,NA,""
"image-keyboard-response",353,276321,"0.0-3.114-0.114","grrkm06dyljb3z0",148,"157.csv","","582.0999999940395","resources/trios/L2T2A1.jpg","39","restless",0.6,0.2,0.6,0.433854891902017,"true"
"image-keyboard-response",354,276724,"0.0-3.114-1.114","grrkm06dyljb3z0",148,"157.csv","","null","resources/maskTrios/BBA1.jpg","null","",NA,NA,NA,NA,""
"image-keyboard-response",355,277930,"0.0-3.114-2.114","grrkm06dyljb3z0",148,"157.csv","","null","resources/images/coin2.png","null","",NA,NA,NA,NA,""
"image-keyboard-response",356,277955,"0.0-3.115-0.115","grrkm06dyljb3z0",148,"157.csv","","23","resources/trios/L2T1A2.jpg","38","restless",0.6,0.2,0.6,0.896566780650312,"false"
"image-keyboard-response",357,278358,"0.0-3.115-1.115","grrkm06dyljb3z0",148,"157.csv","","null","resources/maskTrios/BT1B.jpg","null","",NA,NA,NA,NA,""
"image-keyboard-response",358,279563,"0.0-3.115-2.115","grrkm06dyljb3z0",148,"157.csv","","null","resources/images/fishbone.png","null","",NA,NA,NA,NA,""
"image-keyboard-response",359,279847,"0.0-3.116-0.116","grrkm06dyljb3z0",148,"157.csv","","282.30000001192093","resources/trios/L1T1A1.jpg","37","restless",0.7,0.2,0.6,0.102798716948373,"true"
"image-keyboard-response",360,280251,"0.0-3.116-1.116","grrkm06dyljb3z0",148,"157.csv","","null","resources/maskTrios/L1BB.jpg","null","",NA,NA,NA,NA,""
"image-keyboard-response",361,281453,"0.0-3.116-2.116","grrkm06dyljb3z0",148,"157.csv","","null","resources/images/coin2.png","null","",NA,NA,NA,NA,""
"image-keyboard-response",362,281825,"0.0-3.117-0.117","grrkm06dyljb3z0",148,"157.csv","","370.09999999403954","resources/trios/L1T2A1.jpg","39","restless",0.7,0.2,0.6,0.918922284821696,"false"
"image-keyboard-response",363,282230,"0.0-3.117-1.117","grrkm06dyljb3z0",148,"157.csv","","null","resources/maskTrios/BBA1.jpg","null","",NA,NA,NA,NA,""
"image-keyboard-response",364,283434,"0.0-3.117-2.117","grrkm06dyljb3z0",148,"157.csv","","null","resources/images/fishbone.png","null","",NA,NA,NA,NA,""
"image-keyboard-response",365,283755,"0.0-3.118-0.118","grrkm06dyljb3z0",148,"157.csv","","318.90000000596046","resources/trios/L2T2A1.jpg","39","restless",0.7,0.2,0.6,0.365516545918048,"true"
"image-keyboard-response",366,284159,"0.0-3.118-1.118","grrkm06dyljb3z0",148,"157.csv","","null","resources/maskTrios/BBA1.jpg","null","",NA,NA,NA,NA,""
"image-keyboard-response",367,285365,"0.0-3.118-2.118","grrkm06dyljb3z0",148,"157.csv","","null","resources/images/coin2.png","null","",NA,NA,NA,NA,""
"image-keyboard-response",368,285641,"0.0-3.119-0.119","grrkm06dyljb3z0",148,"157.csv","","274","resources/trios/L2T1A2.jpg","37","restless",0.7,0.2,0.6,0.344133824514881,"true"
"image-keyboard-response",369,286045,"0.0-3.119-1.119","grrkm06dyljb3z0",148,"157.csv","","null","resources/maskTrios/L2BB.jpg","null","",NA,NA,NA,NA,""
"image-keyboard-response",370,287249,"0.0-3.119-2.119","grrkm06dyljb3z0",148,"157.csv","","null","resources/images/coin2.png","null","",NA,NA,NA,NA,""
"image-keyboard-response",371,287519,"0.0-3.120-0.120","grrkm06dyljb3z0",148,"157.csv","","267.40000000596046","resources/trios/L2T2A1.jpg","38","restless",0.7,0.2,0.6,0.442257231377042,"false"
"image-keyboard-response",372,287926,"0.0-3.120-1.120","grrkm06dyljb3z0",148,"157.csv","","null","resources/maskTrios/BT2B.jpg","null","",NA,NA,NA,NA,""
"image-keyboard-response",373,289131,"0.0-3.120-2.120","grrkm06dyljb3z0",148,"157.csv","","null","resources/images/fishbone.png","null","",NA,NA,NA,NA,""
"image-keyboard-response",374,289444,"0.0-3.121-0.121","grrkm06dyljb3z0",148,"157.csv","","310.69999998807907","resources/trios/L2T1A1.jpg","39","restless",0.7,0.3,0.6,0.833463460737562,"false"
"image-keyboard-response",375,289849,"0.0-3.121-1.121","grrkm06dyljb3z0",148,"157.csv","","null","resources/maskTrios/BBA1.jpg","null","",NA,NA,NA,NA,""
"image-keyboard-response",376,291056,"0.0-3.121-2.121","grrkm06dyljb3z0",148,"157.csv","","null","resources/images/fishbone.png","null","",NA,NA,NA,NA,""
"image-keyboard-response",377,291293,"0.0-3.122-0.122","grrkm06dyljb3z0",148,"157.csv","","235.09999999403954","resources/trios/L1T2A2.jpg","37","restless",0.7,0.3,0.6,0.533855951254572,"true"
"image-keyboard-response",378,291699,"0.0-3.122-1.122","grrkm06dyljb3z0",148,"157.csv","","null","resources/maskTrios/L1BB.jpg","null","",NA,NA,NA,NA,""
"image-keyboard-response",379,292905,"0.0-3.122-2.122","grrkm06dyljb3z0",148,"157.csv","","null","resources/images/coin2.png","null","",NA,NA,NA,NA,""
"image-keyboard-response",380,292944,"0.0-3.123-0.123","grrkm06dyljb3z0",148,"157.csv","","36.89999997615814","resources/trios/L2T1A2.jpg","39","restless",0.7,0.3,0.5,0.741389502285979,"false"
"image-keyboard-response",381,293350,"0.0-3.123-1.123","grrkm06dyljb3z0",148,"157.csv","","null","resources/maskTrios/BBA2.jpg","null","",NA,NA,NA,NA,""
"image-keyboard-response",382,294554,"0.0-3.123-2.123","grrkm06dyljb3z0",148,"157.csv","","null","resources/images/fishbone.png","null","",NA,NA,NA,NA,""
"image-keyboard-response",383,294830,"0.0-3.124-0.124","grrkm06dyljb3z0",148,"157.csv","","273.5","resources/trios/L1T2A1.jpg","37","restless",0.7,0.3,0.5,0.304513904175898,"true"
"image-keyboard-response",384,295237,"0.0-3.124-1.124","grrkm06dyljb3z0",148,"157.csv","","null","resources/maskTrios/L1BB.jpg","null","",NA,NA,NA,NA,""
"image-keyboard-response",385,296443,"0.0-3.124-2.124","grrkm06dyljb3z0",148,"157.csv","","null","resources/images/coin2.png","null","",NA,NA,NA,NA,""
"image-keyboard-response",386,296779,"0.0-3.125-0.125","grrkm06dyljb3z0",148,"157.csv","","333.59999999403954","resources/trios/L2T2A1.jpg","38","restless",0.7,0.2,0.5,0.457224073744749,"false"
"image-keyboard-response",387,297184,"0.0-3.125-1.125","grrkm06dyljb3z0",148,"157.csv","","null","resources/maskTrios/BT2B.jpg","null","",NA,NA,NA,NA,""
"image-keyboard-response",388,298386,"0.0-3.125-2.125","grrkm06dyljb3z0",148,"157.csv","","null","resources/images/fishbone.png","null","",NA,NA,NA,NA,""
"image-keyboard-response",389,298724,"0.0-3.126-0.126","grrkm06dyljb3z0",148,"157.csv","","336.5","resources/trios/L2T1A1.jpg","39","restless",0.7,0.2,0.5,0.26626715178574,"true"
"image-keyboard-response",390,299130,"0.0-3.126-1.126","grrkm06dyljb3z0",148,"157.csv","","null","resources/maskTrios/BBA1.jpg","null","",NA,NA,NA,NA,""
"image-keyboard-response",391,300337,"0.0-3.126-2.126","grrkm06dyljb3z0",148,"157.csv","","null","resources/images/coin2.png","null","",NA,NA,NA,NA,""
"image-keyboard-response",392,300804,"0.0-3.127-0.127","grrkm06dyljb3z0",148,"157.csv","","465.5","resources/trios/L2T2A1.jpg","39","restless",0.6,0.3,0.5,0.28067990837816,"true"
"image-keyboard-response",393,301207,"0.0-3.127-1.127","grrkm06dyljb3z0",148,"157.csv","","null","resources/maskTrios/BBA1.jpg","null","",NA,NA,NA,NA,""
"image-keyboard-response",394,302411,"0.0-3.127-2.127","grrkm06dyljb3z0",148,"157.csv","","null","resources/images/coin2.png","null","",NA,NA,NA,NA,""
"image-keyboard-response",395,302972,"0.0-3.128-0.128","grrkm06dyljb3z0",148,"157.csv","","558.7000000178814","resources/trios/L1T1A1.jpg","37","restless",0.5,0.3,0.5,0.351256183092381,"true"
"image-keyboard-response",396,303379,"0.0-3.128-1.128","grrkm06dyljb3z0",148,"157.csv","","null","resources/maskTrios/L1BB.jpg","null","",NA,NA,NA,NA,""
"image-keyboard-response",397,304584,"0.0-3.128-2.128","grrkm06dyljb3z0",148,"157.csv","","null","resources/images/coin2.png","null","",NA,NA,NA,NA,""
"image-keyboard-response",398,304862,"0.0-3.129-0.129","grrkm06dyljb3z0",148,"157.csv","","277","resources/trios/L1T2A1.jpg","38","restless",0.5,0.3,0.4,0.113181052512727,"true"
"image-keyboard-response",399,305269,"0.0-3.129-1.129","grrkm06dyljb3z0",148,"157.csv","","null","resources/maskTrios/BT2B.jpg","null","",NA,NA,NA,NA,""
"image-keyboard-response",400,306473,"0.0-3.129-2.129","grrkm06dyljb3z0",148,"157.csv","","null","resources/images/coin2.png","null","",NA,NA,NA,NA,""
"image-keyboard-response",401,306785,"0.0-3.130-0.130","grrkm06dyljb3z0",148,"157.csv","","309.90000000596046","resources/trios/L2T2A2.jpg","39","restless",0.5,0.3,0.4,0.715509431924053,"false"
"image-keyboard-response",402,307189,"0.0-3.130-1.130","grrkm06dyljb3z0",148,"157.csv","","null","resources/maskTrios/BBA2.jpg","null","",NA,NA,NA,NA,""
"image-keyboard-response",403,308394,"0.0-3.130-2.130","grrkm06dyljb3z0",148,"157.csv","","null","resources/images/fishbone.png","null","",NA,NA,NA,NA,""
"image-keyboard-response",404,308729,"0.0-3.131-0.131","grrkm06dyljb3z0",148,"157.csv","","333","resources/trios/L1T2A2.jpg","37","restless",0.5,0.3,0.4,0.21467394632463,"true"
"image-keyboard-response",405,309134,"0.0-3.131-1.131","grrkm06dyljb3z0",148,"157.csv","","null","resources/maskTrios/L1BB.jpg","null","",NA,NA,NA,NA,""
"image-keyboard-response",406,310340,"0.0-3.131-2.131","grrkm06dyljb3z0",148,"157.csv","","null","resources/images/coin2.png","null","",NA,NA,NA,NA,""
"image-keyboard-response",407,310694,"0.0-3.132-0.132","grrkm06dyljb3z0",148,"157.csv","","351.40000000596046","resources/trios/L1T1A1.jpg","38","restless",0.5,0.3,0.4,0.097476396701855,"true"
"image-keyboard-response",408,311099,"0.0-3.132-1.132","grrkm06dyljb3z0",148,"157.csv","","null","resources/maskTrios/BT1B.jpg","null","",NA,NA,NA,NA,""
"image-keyboard-response",409,312306,"0.0-3.132-2.132","grrkm06dyljb3z0",148,"157.csv","","null","resources/images/coin2.png","null","",NA,NA,NA,NA,""
"image-keyboard-response",410,312670,"0.0-3.133-0.133","grrkm06dyljb3z0",148,"157.csv","","361.09999999403954","resources/trios/L1T1A2.jpg","39","restless",0.5,0.3,0.4,0.576252794135761,"false"
"image-keyboard-response",411,313077,"0.0-3.133-1.133","grrkm06dyljb3z0",148,"157.csv","","null","resources/maskTrios/BBA2.jpg","null","",NA,NA,NA,NA,""
"image-keyboard-response",412,314283,"0.0-3.133-2.133","grrkm06dyljb3z0",148,"157.csv","","null","resources/images/fishbone.png","null","",NA,NA,NA,NA,""
"image-keyboard-response",413,314608,"0.0-3.134-0.134","grrkm06dyljb3z0",148,"157.csv","","323.2000000178814","resources/trios/L2T1A1.jpg","38","restless",0.5,0.4,0.4,0.484096295779322,"false"
"image-keyboard-response",414,315015,"0.0-3.134-1.134","grrkm06dyljb3z0",148,"157.csv","","null","resources/maskTrios/BT1B.jpg","null","",NA,NA,NA,NA,""
"image-keyboard-response",415,316217,"0.0-3.134-2.134","grrkm06dyljb3z0",148,"157.csv","","null","resources/images/fishbone.png","null","",NA,NA,NA,NA,""
"image-keyboard-response",416,316313,"0.0-3.135-0.135","grrkm06dyljb3z0",148,"157.csv","","94.59999999403954","resources/trios/L1T2A1.jpg","37","restless",0.5,0.4,0.4,0.701055046257715,"false"
"image-keyboard-response",417,316720,"0.0-3.135-1.135","grrkm06dyljb3z0",148,"157.csv","","null","resources/maskTrios/L1BB.jpg","null","",NA,NA,NA,NA,""
"image-keyboard-response",418,317926,"0.0-3.135-2.135","grrkm06dyljb3z0",148,"157.csv","","null","resources/images/fishbone.png","null","",NA,NA,NA,NA,""
"image-keyboard-response",419,318078,"0.0-3.136-0.136","grrkm06dyljb3z0",148,"157.csv","","149.69999998807907","resources/trios/L2T1A2.jpg","39","restless",0.5,0.4,0.4,0.792098250354238,"false"
"image-keyboard-response",420,318483,"0.0-3.136-1.136","grrkm06dyljb3z0",148,"157.csv","","null","resources/maskTrios/BBA2.jpg","null","",NA,NA,NA,NA,""
"image-keyboard-response",421,319689,"0.0-3.136-2.136","grrkm06dyljb3z0",148,"157.csv","","null","resources/images/fishbone.png","null","",NA,NA,NA,NA,""
"image-keyboard-response",422,319949,"0.0-3.137-0.137","grrkm06dyljb3z0",148,"157.csv","","257.30000001192093","resources/trios/L2T1A1.jpg","37","restless",0.5,0.4,0.4,0.12884725056906,"true"
"image-keyboard-response",423,320354,"0.0-3.137-1.137","grrkm06dyljb3z0",148,"157.csv","","null","resources/maskTrios/L2BB.jpg","null","",NA,NA,NA,NA,""
"image-keyboard-response",424,321559,"0.0-3.137-2.137","grrkm06dyljb3z0",148,"157.csv","","null","resources/images/coin2.png","null","",NA,NA,NA,NA,""
"image-keyboard-response",425,321951,"0.0-3.138-0.138","grrkm06dyljb3z0",148,"157.csv","","389.89999997615814","resources/trios/L2T1A2.jpg","38","restless",0.5,0.4,0.4,0.866001862150821,"false"
"image-keyboard-response",426,322358,"0.0-3.138-1.138","grrkm06dyljb3z0",148,"157.csv","","null","resources/maskTrios/BT1B.jpg","null","",NA,NA,NA,NA,""
"image-keyboard-response",427,323564,"0.0-3.138-2.138","grrkm06dyljb3z0",148,"157.csv","","null","resources/images/fishbone.png","null","",NA,NA,NA,NA,""
"image-keyboard-response",428,323929,"0.0-3.139-0.139","grrkm06dyljb3z0",148,"157.csv","","362.40000000596046","resources/trios/L2T2A1.jpg","39","restless",0.6,0.4,0.4,0.254989289384649,"true"
"image-keyboard-response",429,324334,"0.0-3.139-1.139","grrkm06dyljb3z0",148,"157.csv","","null","resources/maskTrios/BBA1.jpg","null","",NA,NA,NA,NA,""
"image-keyboard-response",430,325538,"0.0-3.139-2.139","grrkm06dyljb3z0",148,"157.csv","","null","resources/images/coin2.png","null","",NA,NA,NA,NA,""
"image-keyboard-response",431,325841,"0.0-3.140-0.140","grrkm06dyljb3z0",148,"157.csv","","300.5","resources/trios/L1T2A1.jpg","37","restless",0.6,0.4,0.4,0.199744505761367,"true"
"image-keyboard-response",432,326245,"0.0-3.140-1.140","grrkm06dyljb3z0",148,"157.csv","","null","resources/maskTrios/L1BB.jpg","null","",NA,NA,NA,NA,""
"image-keyboard-response",433,327449,"0.0-3.140-2.140","grrkm06dyljb3z0",148,"157.csv","","null","resources/images/coin2.png","null","",NA,NA,NA,NA,""
"image-keyboard-response",434,328139,"0.0-3.141-0.141","grrkm06dyljb3z0",148,"157.csv","","688.3000000119209","resources/trios/L2T2A1.jpg","39","restless",0.6,0.5,0.4,0.600151306405289,"false"
"image-keyboard-response",435,328542,"0.0-3.141-1.141","grrkm06dyljb3z0",148,"157.csv","","null","resources/maskTrios/BBA1.jpg","null","",NA,NA,NA,NA,""
"image-keyboard-response",436,329744,"0.0-3.141-2.141","grrkm06dyljb3z0",148,"157.csv","","null","resources/images/fishbone.png","null","",NA,NA,NA,NA,""
"image-keyboard-response",437,330114,"0.0-3.142-0.142","grrkm06dyljb3z0",148,"157.csv","","367.2999999821186","resources/trios/L2T2A1.jpg","37","restless",0.6,0.5,0.4,0.649231386564083,"false"
"image-keyboard-response",438,330521,"0.0-3.142-1.142","grrkm06dyljb3z0",148,"157.csv","","null","resources/maskTrios/L2BB.jpg","null","",NA,NA,NA,NA,""
"image-keyboard-response",439,331726,"0.0-3.142-2.142","grrkm06dyljb3z0",148,"157.csv","","null","resources/images/fishbone.png","null","",NA,NA,NA,NA,""
"image-keyboard-response",440,332157,"0.0-3.143-0.143","grrkm06dyljb3z0",148,"157.csv","","429.09999999403954","resources/trios/L2T1A1.jpg","38","restless",0.5,0.5,0.4,0.347995765874331,"true"
"image-keyboard-response",441,332564,"0.0-3.143-1.143","grrkm06dyljb3z0",148,"157.csv","","null","resources/maskTrios/BT1B.jpg","null","",NA,NA,NA,NA,""
"image-keyboard-response",442,333765,"0.0-3.143-2.143","grrkm06dyljb3z0",148,"157.csv","","null","resources/images/coin2.png","null","",NA,NA,NA,NA,""
"image-keyboard-response",443,334137,"0.0-3.144-0.144","grrkm06dyljb3z0",148,"157.csv","","370.69999998807907","resources/trios/L2T1A2.jpg","38","restless",0.6,0.5,0.4,0.276467418781114,"true"
"image-keyboard-response",444,334543,"0.0-3.144-1.144","grrkm06dyljb3z0",148,"157.csv","","null","resources/maskTrios/BT1B.jpg","null","",NA,NA,NA,NA,""
"image-keyboard-response",445,335748,"0.0-3.144-2.144","grrkm06dyljb3z0",148,"157.csv","","null","resources/images/coin2.png","null","",NA,NA,NA,NA,""
"image-keyboard-response",446,336006,"0.0-3.145-0.145","grrkm06dyljb3z0",148,"157.csv","","255.5","resources/trios/L2T1A2.jpg","39","restless",0.7,0.5,0.4,0.304983600272014,"true"
"image-keyboard-response",447,336411,"0.0-3.145-1.145","grrkm06dyljb3z0",148,"157.csv","","null","resources/maskTrios/BBA2.jpg","null","",NA,NA,NA,NA,""
"image-keyboard-response",448,337618,"0.0-3.145-2.145","grrkm06dyljb3z0",148,"157.csv","","null","resources/images/coin2.png","null","",NA,NA,NA,NA,""
"image-keyboard-response",449,337847,"0.0-3.146-0.146","grrkm06dyljb3z0",148,"157.csv","","227.59999999403954","resources/trios/L1T2A1.jpg","37","restless",0.7,0.5,0.4,0.645045971625136,"true"
"image-keyboard-response",450,338254,"0.0-3.146-1.146","grrkm06dyljb3z0",148,"157.csv","","null","resources/maskTrios/L1BB.jpg","null","",NA,NA,NA,NA,""
"image-keyboard-response",451,339461,"0.0-3.146-2.146","grrkm06dyljb3z0",148,"157.csv","","null","resources/images/coin2.png","null","",NA,NA,NA,NA,""
"image-keyboard-response",452,339856,"0.0-3.147-0.147","grrkm06dyljb3z0",148,"157.csv","","393","resources/trios/L2T2A2.jpg","37","restless",0.7,0.6,0.4,0.725420894440163,"false"
"image-keyboard-response",453,340259,"0.0-3.147-1.147","grrkm06dyljb3z0",148,"157.csv","","null","resources/maskTrios/L2BB.jpg","null","",NA,NA,NA,NA,""
"image-keyboard-response",454,341465,"0.0-3.147-2.147","grrkm06dyljb3z0",148,"157.csv","","null","resources/images/fishbone.png","null","",NA,NA,NA,NA,""
"image-keyboard-response",455,341815,"0.0-3.148-0.148","grrkm06dyljb3z0",148,"157.csv","","347.90000000596046","resources/trios/L2T2A2.jpg","38","restless",0.7,0.6,0.4,0.593471854737309,"true"
"image-keyboard-response",456,342222,"0.0-3.148-1.148","grrkm06dyljb3z0",148,"157.csv","","null","resources/maskTrios/BT2B.jpg","null","",NA,NA,NA,NA,""
"image-keyboard-response",457,343426,"0.0-3.148-2.148","grrkm06dyljb3z0",148,"157.csv","","null","resources/images/coin2.png","null","",NA,NA,NA,NA,""
"image-keyboard-response",458,343775,"0.0-3.149-0.149","grrkm06dyljb3z0",148,"157.csv","","347","resources/trios/L2T2A2.jpg","39","restless",0.8,0.6,0.4,0.533956000751283,"false"
"image-keyboard-response",459,344180,"0.0-3.149-1.149","grrkm06dyljb3z0",148,"157.csv","","null","resources/maskTrios/BBA2.jpg","null","",NA,NA,NA,NA,""
"image-keyboard-response",460,345383,"0.0-3.149-2.149","grrkm06dyljb3z0",148,"157.csv","","null","resources/images/fishbone.png","null","",NA,NA,NA,NA,""
"image-keyboard-response",461,345646,"0.0-3.150-0.150","grrkm06dyljb3z0",148,"157.csv","","260.7000000178814","resources/trios/L1T1A1.jpg","38","restless",0.8,0.5,0.4,0.816106105266144,"false"
"image-keyboard-response",462,346050,"0.0-3.150-1.150","grrkm06dyljb3z0",148,"157.csv","","null","resources/maskTrios/BT1B.jpg","null","",NA,NA,NA,NA,""
"image-keyboard-response",463,347254,"0.0-3.150-2.150","grrkm06dyljb3z0",148,"157.csv","","null","resources/images/fishbone.png","null","",NA,NA,NA,NA,""
"image-keyboard-response",464,347528,"0.0-3.151-0.151","grrkm06dyljb3z0",148,"157.csv","","271.59999999403954","resources/trios/L2T1A1.jpg","37","restless",0.8,0.5,0.4,0.701541842250488,"true"
"image-keyboard-response",465,347931,"0.0-3.151-1.151","grrkm06dyljb3z0",148,"157.csv","","null","resources/maskTrios/L2BB.jpg","null","",NA,NA,NA,NA,""
"image-keyboard-response",466,349137,"0.0-3.151-2.151","grrkm06dyljb3z0",148,"157.csv","","null","resources/images/coin2.png","null","",NA,NA,NA,NA,""
"image-keyboard-response",467,349993,"0.0-3.152-0.152","grrkm06dyljb3z0",148,"157.csv","","853.6999999880791","resources/trios/L1T2A1.jpg","37","restless",0.8,0.5,0.4,0.92737834660054,"false"
"image-keyboard-response",468,350399,"0.0-3.152-1.152","grrkm06dyljb3z0",148,"157.csv","","null","resources/maskTrios/L1BB.jpg","null","",NA,NA,NA,NA,""
"image-keyboard-response",469,351604,"0.0-3.152-2.152","grrkm06dyljb3z0",148,"157.csv","","null","resources/images/fishbone.png","null","",NA,NA,NA,NA,""
"image-keyboard-response",470,351756,"0.0-3.153-0.153","grrkm06dyljb3z0",148,"157.csv","","150.30000001192093","resources/trios/L2T1A1.jpg","39","restless",0.8,0.5,0.4,0.305146141309942,"true"
"image-keyboard-response",471,352163,"0.0-3.153-1.153","grrkm06dyljb3z0",148,"157.csv","","null","resources/maskTrios/BBA1.jpg","null","",NA,NA,NA,NA,""
"image-keyboard-response",472,353368,"0.0-3.153-2.153","grrkm06dyljb3z0",148,"157.csv","","null","resources/images/coin2.png","null","",NA,NA,NA,NA,""
"image-keyboard-response",473,353720,"0.0-3.154-0.154","grrkm06dyljb3z0",148,"157.csv","","349.59999999403954","resources/trios/L2T2A2.jpg","37","restless",0.8,0.5,0.4,0.582233234922678,"true"
"image-keyboard-response",474,354126,"0.0-3.154-1.154","grrkm06dyljb3z0",148,"157.csv","","null","resources/maskTrios/L2BB.jpg","null","",NA,NA,NA,NA,""
"image-keyboard-response",475,355330,"0.0-3.154-2.154","grrkm06dyljb3z0",148,"157.csv","","null","resources/images/coin2.png","null","",NA,NA,NA,NA,""
"image-keyboard-response",476,355613,"0.0-3.155-0.155","grrkm06dyljb3z0",148,"157.csv","","281.2999999821186","resources/trios/L2T2A2.jpg","38","restless",0.8,0.6,0.4,0.372693463500538,"true"
"image-keyboard-response",477,356019,"0.0-3.155-1.155","grrkm06dyljb3z0",148,"157.csv","","null","resources/maskTrios/BT2B.jpg","null","",NA,NA,NA,NA,""
"image-keyboard-response",478,357225,"0.0-3.155-2.155","grrkm06dyljb3z0",148,"157.csv","","null","resources/images/coin2.png","null","",NA,NA,NA,NA,""
"image-keyboard-response",479,357590,"0.0-3.156-0.156","grrkm06dyljb3z0",148,"157.csv","","363","resources/trios/L1T1A1.jpg","39","restless",0.8,0.7,0.4,0.912799933996997,"false"
"image-keyboard-response",480,357997,"0.0-3.156-1.156","grrkm06dyljb3z0",148,"157.csv","","null","resources/maskTrios/BBA1.jpg","null","",NA,NA,NA,NA,""
"image-keyboard-response",481,359204,"0.0-3.156-2.156","grrkm06dyljb3z0",148,"157.csv","","null","resources/images/fishbone.png","null","",NA,NA,NA,NA,""
"image-keyboard-response",482,359470,"0.0-3.157-0.157","grrkm06dyljb3z0",148,"157.csv","","263.60000002384186","resources/trios/L1T2A2.jpg","38","restless",0.8,0.7,0.4,0.83493544572423,"false"
"image-keyboard-response",483,359876,"0.0-3.157-1.157","grrkm06dyljb3z0",148,"157.csv","","null","resources/maskTrios/BT2B.jpg","null","",NA,NA,NA,NA,""
"image-keyboard-response",484,361081,"0.0-3.157-2.157","grrkm06dyljb3z0",148,"157.csv","","null","resources/images/fishbone.png","null","",NA,NA,NA,NA,""
"image-keyboard-response",485,361265,"0.0-3.158-0.158","grrkm06dyljb3z0",148,"157.csv","","181.59999999403954","resources/trios/L2T2A2.jpg","37","restless",0.8,0.7,0.4,0.546658017120157,"true"
"image-keyboard-response",486,361668,"0.0-3.158-1.158","grrkm06dyljb3z0",148,"157.csv","","null","resources/maskTrios/L2BB.jpg","null","",NA,NA,NA,NA,""
"image-keyboard-response",487,362872,"0.0-3.158-2.158","grrkm06dyljb3z0",148,"157.csv","","null","resources/images/coin2.png","null","",NA,NA,NA,NA,""
"image-keyboard-response",488,363121,"0.0-3.159-0.159","grrkm06dyljb3z0",148,"157.csv","","247.69999998807907","resources/trios/L1T2A2.jpg","38","restless",0.8,0.7,0.4,0.310937738970161,"true"
"image-keyboard-response",489,363527,"0.0-3.159-1.159","grrkm06dyljb3z0",148,"157.csv","","null","resources/maskTrios/BT2B.jpg","null","",NA,NA,NA,NA,""
"image-keyboard-response",490,364731,"0.0-3.159-2.159","grrkm06dyljb3z0",148,"157.csv","","null","resources/images/coin2.png","null","",NA,NA,NA,NA,""
"image-keyboard-response",491,365009,"0.0-3.160-0.160","grrkm06dyljb3z0",148,"157.csv","","276.40000000596046","resources/trios/L1T1A1.jpg","39","restless",0.8,0.7,0.3,0.456879060926193,"false"
"image-keyboard-response",492,365415,"0.0-3.160-1.160","grrkm06dyljb3z0",148,"157.csv","","null","resources/maskTrios/BBA1.jpg","null","",NA,NA,NA,NA,""
"image-keyboard-response",493,366621,"0.0-3.160-2.160","grrkm06dyljb3z0",148,"157.csv","","null","resources/images/fishbone.png","null","",NA,NA,NA,NA,""
"image-keyboard-response",494,366914,"0.0-3.161-0.161","grrkm06dyljb3z0",148,"157.csv","","291.40000000596046","resources/trios/L1T1A2.jpg","37","restless",0.8,0.7,0.2,0.596355639512077,"true"
"image-keyboard-response",495,367318,"0.0-3.161-1.161","grrkm06dyljb3z0",148,"157.csv","","null","resources/maskTrios/L1BB.jpg","null","",NA,NA,NA,NA,""
"image-keyboard-response",496,368524,"0.0-3.161-2.161","grrkm06dyljb3z0",148,"157.csv","","null","resources/images/coin2.png","null","",NA,NA,NA,NA,""
"image-keyboard-response",497,368804,"0.0-3.162-0.162","grrkm06dyljb3z0",148,"157.csv","","277","resources/trios/L2T1A2.jpg","38","restless",0.8,0.7,0.2,0.276055349280103,"true"
"image-keyboard-response",498,369208,"0.0-3.162-1.162","grrkm06dyljb3z0",148,"157.csv","","null","resources/maskTrios/BT1B.jpg","null","",NA,NA,NA,NA,""
"image-keyboard-response",499,370412,"0.0-3.162-2.162","grrkm06dyljb3z0",148,"157.csv","","null","resources/images/coin2.png","null","",NA,NA,NA,NA,""
"image-keyboard-response",500,370418,"0.0-3.163-0.163","grrkm06dyljb3z0",148,"157.csv","","3.800000011920929","resources/trios/L1T2A2.jpg","38","restless",0.8,0.7,0.1,0.751090232939395,"false"
"image-keyboard-response",501,370823,"0.0-3.163-1.163","grrkm06dyljb3z0",148,"157.csv","","null","resources/maskTrios/BT2B.jpg","null","",NA,NA,NA,NA,""
"image-keyboard-response",502,372029,"0.0-3.163-2.163","grrkm06dyljb3z0",148,"157.csv","","null","resources/images/fishbone.png","null","",NA,NA,NA,NA,""
"image-keyboard-response",503,372395,"0.0-3.164-0.164","grrkm06dyljb3z0",148,"157.csv","","364.09999999403954","resources/trios/L1T1A2.jpg","38","restless",0.7,0.7,0.1,0.356044028233728,"true"
"image-keyboard-response",504,372799,"0.0-3.164-1.164","grrkm06dyljb3z0",148,"157.csv","","null","resources/maskTrios/BT1B.jpg","null","",NA,NA,NA,NA,""
"image-keyboard-response",505,374002,"0.0-3.164-2.164","grrkm06dyljb3z0",148,"157.csv","","null","resources/images/coin2.png","null","",NA,NA,NA,NA,""
"image-keyboard-response",506,374829,"0.0-3.165-0.165","grrkm06dyljb3z0",148,"157.csv","","825.1999999880791","resources/trios/L1T2A2.jpg","37","restless",0.7,0.7,0.1,0.804968309232075,"false"
"image-keyboard-response",507,375234,"0.0-3.165-1.165","grrkm06dyljb3z0",148,"157.csv","","null","resources/maskTrios/L1BB.jpg","null","",NA,NA,NA,NA,""
"image-keyboard-response",508,376438,"0.0-3.165-2.165","grrkm06dyljb3z0",148,"157.csv","","null","resources/images/fishbone.png","null","",NA,NA,NA,NA,""
"image-keyboard-response",509,376757,"0.0-3.166-0.166","grrkm06dyljb3z0",148,"157.csv","","316.30000001192093","resources/trios/L2T2A1.jpg","38","restless",0.7,0.7,0.1,0.688153008477677,"true"
"image-keyboard-response",510,377164,"0.0-3.166-1.166","grrkm06dyljb3z0",148,"157.csv","","null","resources/maskTrios/BT2B.jpg","null","",NA,NA,NA,NA,""
"image-keyboard-response",511,378369,"0.0-3.166-2.166","grrkm06dyljb3z0",148,"157.csv","","null","resources/images/coin2.png","null","",NA,NA,NA,NA,""
"image-keyboard-response",512,379016,"0.0-3.167-0.167","grrkm06dyljb3z0",148,"157.csv","","645.6000000238419","resources/trios/L1T2A2.jpg","39","restless",0.7,0.8,0.1,0.508507155743629,"false"
"image-keyboard-response",513,379420,"0.0-3.167-1.167","grrkm06dyljb3z0",148,"157.csv","","null","resources/maskTrios/BBA2.jpg","null","",NA,NA,NA,NA,""
"image-keyboard-response",514,380627,"0.0-3.167-2.167","grrkm06dyljb3z0",148,"157.csv","","null","resources/images/fishbone.png","null","",NA,NA,NA,NA,""
"image-keyboard-response",515,380946,"0.0-3.168-0.168","grrkm06dyljb3z0",148,"157.csv","","317.10000002384186","resources/trios/L2T2A1.jpg","38","restless",0.7,0.7,0.2,0.168931140679281,"true"
"image-keyboard-response",516,381353,"0.0-3.168-1.168","grrkm06dyljb3z0",148,"157.csv","","null","resources/maskTrios/BT2B.jpg","null","",NA,NA,NA,NA,""
"image-keyboard-response",517,382558,"0.0-3.168-2.168","grrkm06dyljb3z0",148,"157.csv","","null","resources/images/coin2.png","null","",NA,NA,NA,NA,""
"image-keyboard-response",518,382901,"0.0-3.169-0.169","grrkm06dyljb3z0",148,"157.csv","","341.5","resources/trios/L2T1A1.jpg","37","restless",0.7,0.7,0.2,0.917771118528642,"false"
"image-keyboard-response",519,383304,"0.0-3.169-1.169","grrkm06dyljb3z0",148,"157.csv","","null","resources/maskTrios/L2BB.jpg","null","",NA,NA,NA,NA,""
"image-keyboard-response",520,384508,"0.0-3.169-2.169","grrkm06dyljb3z0",148,"157.csv","","null","resources/images/fishbone.png","null","",NA,NA,NA,NA,""
"image-keyboard-response",521,384836,"0.0-3.170-0.170","grrkm06dyljb3z0",148,"157.csv","","325.5","resources/trios/L1T1A1.jpg","37","restless",0.7,0.7,0.2,0.192945675367541,"true"
"image-keyboard-response",522,385243,"0.0-3.170-1.170","grrkm06dyljb3z0",148,"157.csv","","null","resources/maskTrios/L1BB.jpg","null","",NA,NA,NA,NA,""
"image-keyboard-response",523,386448,"0.0-3.170-2.170","grrkm06dyljb3z0",148,"157.csv","","null","resources/images/coin2.png","null","",NA,NA,NA,NA,""
"image-keyboard-response",524,386740,"0.0-3.171-0.171","grrkm06dyljb3z0",148,"157.csv","","289.19999998807907","resources/trios/L1T2A2.jpg","38","restless",0.7,0.8,0.2,0.804946061406618,"false"
"image-keyboard-response",525,387144,"0.0-3.171-1.171","grrkm06dyljb3z0",148,"157.csv","","null","resources/maskTrios/BT2B.jpg","null","",NA,NA,NA,NA,""
"image-keyboard-response",526,388348,"0.0-3.171-2.171","grrkm06dyljb3z0",148,"157.csv","","null","resources/images/fishbone.png","null","",NA,NA,NA,NA,""
"image-keyboard-response",527,388450,"0.0-3.172-0.172","grrkm06dyljb3z0",148,"157.csv","","100.09999999403954","resources/trios/L2T2A2.jpg","38","restless",0.7,0.8,0.2,0.142427732373538,"true"
"image-keyboard-response",528,388854,"0.0-3.172-1.172","grrkm06dyljb3z0",148,"157.csv","","null","resources/maskTrios/BT2B.jpg","null","",NA,NA,NA,NA,""
"image-keyboard-response",529,390058,"0.0-3.172-2.172","grrkm06dyljb3z0",148,"157.csv","","null","resources/images/coin2.png","null","",NA,NA,NA,NA,""
"image-keyboard-response",530,390672,"0.0-3.173-0.173","grrkm06dyljb3z0",148,"157.csv","","612.0999999940395","resources/trios/L1T1A1.jpg","37","restless",0.7,0.8,0.2,0.888437955402672,"false"
"image-keyboard-response",531,391078,"0.0-3.173-1.173","grrkm06dyljb3z0",148,"157.csv","","null","resources/maskTrios/L1BB.jpg","null","",NA,NA,NA,NA,""
"image-keyboard-response",532,392284,"0.0-3.173-2.173","grrkm06dyljb3z0",148,"157.csv","","null","resources/images/fishbone.png","null","",NA,NA,NA,NA,""
"image-keyboard-response",533,392582,"0.0-3.174-0.174","grrkm06dyljb3z0",148,"157.csv","","296.2000000178814","resources/trios/L1T2A2.jpg","38","restless",0.7,0.8,0.2,0.0931352318441152,"true"
"image-keyboard-response",534,392987,"0.0-3.174-1.174","grrkm06dyljb3z0",148,"157.csv","","null","resources/maskTrios/BT2B.jpg","null","",NA,NA,NA,NA,""
"image-keyboard-response",535,394194,"0.0-3.174-2.174","grrkm06dyljb3z0",148,"157.csv","","null","resources/images/coin2.png","null","",NA,NA,NA,NA,""
"image-keyboard-response",536,394586,"0.0-3.175-0.175","grrkm06dyljb3z0",148,"157.csv","","390","resources/trios/L2T2A1.jpg","38","restless",0.7,0.8,0.2,0.353849641826968,"true"
"image-keyboard-response",537,394991,"0.0-3.175-1.175","grrkm06dyljb3z0",148,"157.csv","","null","resources/maskTrios/BT2B.jpg","null","",NA,NA,NA,NA,""
"image-keyboard-response",538,396197,"0.0-3.175-2.175","grrkm06dyljb3z0",148,"157.csv","","null","resources/images/coin2.png","null","",NA,NA,NA,NA,""
"image-keyboard-response",539,396538,"0.0-3.176-0.176","grrkm06dyljb3z0",148,"157.csv","","339.39999997615814","resources/trios/L2T2A2.jpg","38","restless",0.7,0.8,0.2,0.15112184595352,"true"
"image-keyboard-response",540,396942,"0.0-3.176-1.176","grrkm06dyljb3z0",148,"157.csv","","null","resources/maskTrios/BT2B.jpg","null","",NA,NA,NA,NA,""
"image-keyboard-response",541,398148,"0.0-3.176-2.176","grrkm06dyljb3z0",148,"157.csv","","null","resources/images/coin2.png","null","",NA,NA,NA,NA,""
"image-keyboard-response",542,398461,"0.0-3.177-0.177","grrkm06dyljb3z0",148,"157.csv","","311.10000002384186","resources/trios/L1T2A2.jpg","38","restless",0.7,0.8,0.2,0.948301534204059,"false"
"image-keyboard-response",543,398865,"0.0-3.177-1.177","grrkm06dyljb3z0",148,"157.csv","","null","resources/maskTrios/BT2B.jpg","null","",NA,NA,NA,NA,""
"image-keyboard-response",544,400070,"0.0-3.177-2.177","grrkm06dyljb3z0",148,"157.csv","","null","resources/images/fishbone.png","null","",NA,NA,NA,NA,""
"image-keyboard-response",545,400321,"0.0-3.178-0.178","grrkm06dyljb3z0",148,"157.csv","","248.5","resources/trios/L1T1A2.jpg","38","restless",0.7,0.7,0.2,0.0803751634315069,"true"
"image-keyboard-response",546,400725,"0.0-3.178-1.178","grrkm06dyljb3z0",148,"157.csv","","null","resources/maskTrios/BT1B.jpg","null","",NA,NA,NA,NA,""
"image-keyboard-response",547,401929,"0.0-3.178-2.178","grrkm06dyljb3z0",148,"157.csv","","null","resources/images/coin2.png","null","",NA,NA,NA,NA,""
"image-keyboard-response",548,402139,"0.0-3.179-0.179","grrkm06dyljb3z0",148,"157.csv","","208.2999999821186","resources/trios/L1T1A1.jpg","38","restless",0.7,0.7,0.2,0.335537094430892,"true"
"image-keyboard-response",549,402545,"0.0-3.179-1.179","grrkm06dyljb3z0",148,"157.csv","","null","resources/maskTrios/BT1B.jpg","null","",NA,NA,NA,NA,""
"image-keyboard-response",550,403748,"0.0-3.179-2.179","grrkm06dyljb3z0",148,"157.csv","","null","resources/images/coin2.png","null","",NA,NA,NA,NA,""
"image-keyboard-response",551,404013,"0.0-3.180-0.180","grrkm06dyljb3z0",148,"157.csv","","262.7000000178814","resources/trios/L1T2A2.jpg","38","restless",0.7,0.7,0.2,0.161098255645802,"true"
"image-keyboard-response",552,404417,"0.0-3.180-1.180","grrkm06dyljb3z0",148,"157.csv","","null","resources/maskTrios/BT2B.jpg","null","",NA,NA,NA,NA,""
"image-keyboard-response",553,405620,"0.0-3.180-2.180","grrkm06dyljb3z0",148,"157.csv","","null","resources/images/coin2.png","null","",NA,NA,NA,NA,""
"image-keyboard-response",554,405668,"0.0-3.181-0.181","grrkm06dyljb3z0",148,"157.csv","","45.400000005960464","resources/trios/L1T2A2.jpg","38","restless",0.7,0.6,0.2,0.523304180429625,"true"
"image-keyboard-response",555,406072,"0.0-3.181-1.181","grrkm06dyljb3z0",148,"157.csv","","null","resources/maskTrios/BT2B.jpg","null","",NA,NA,NA,NA,""
"image-keyboard-response",556,407278,"0.0-3.181-2.181","grrkm06dyljb3z0",148,"157.csv","","null","resources/images/coin2.png","null","",NA,NA,NA,NA,""
"image-keyboard-response",557,407730,"0.0-3.182-0.182","grrkm06dyljb3z0",148,"157.csv","","449.09999999403954","resources/trios/L1T2A1.jpg","38","restless",0.7,0.6,0.2,0.822623417352028,"false"
"image-keyboard-response",558,408135,"0.0-3.182-1.182","grrkm06dyljb3z0",148,"157.csv","","null","resources/maskTrios/BT2B.jpg","null","",NA,NA,NA,NA,""
"image-keyboard-response",559,409338,"0.0-3.182-2.182","grrkm06dyljb3z0",148,"157.csv","","null","resources/images/fishbone.png","null","",NA,NA,NA,NA,""
"image-keyboard-response",560,410212,"0.0-3.183-0.183","grrkm06dyljb3z0",148,"157.csv","","871.9000000059605","resources/trios/L1T2A1.jpg","38","restless",0.7,0.6,0.2,0.810810344979645,"false"
"image-keyboard-response",561,410616,"0.0-3.183-1.183","grrkm06dyljb3z0",148,"157.csv","","null","resources/maskTrios/BT2B.jpg","null","",NA,NA,NA,NA,""
"image-keyboard-response",562,411821,"0.0-3.183-2.183","grrkm06dyljb3z0",148,"157.csv","","null","resources/images/fishbone.png","null","",NA,NA,NA,NA,""
"image-keyboard-response",563,412282,"0.0-3.184-0.184","grrkm06dyljb3z0",148,"157.csv","","458.89999997615814","resources/trios/L1T1A2.jpg","38","restless",0.7,0.6,0.2,0.652259486669471,"false"
"image-keyboard-response",564,412687,"0.0-3.184-1.184","grrkm06dyljb3z0",148,"157.csv","","null","resources/maskTrios/BT1B.jpg","null","",NA,NA,NA,NA,""
"image-keyboard-response",565,413890,"0.0-3.184-2.184","grrkm06dyljb3z0",148,"157.csv","","null","resources/images/fishbone.png","null","",NA,NA,NA,NA,""
"image-keyboard-response",566,414197,"0.0-3.185-0.185","grrkm06dyljb3z0",148,"157.csv","","305.5","resources/trios/L1T2A2.jpg","39","restless",0.7,0.6,0.2,0.29012237656355,"false"
"image-keyboard-response",567,414604,"0.0-3.185-1.185","grrkm06dyljb3z0",148,"157.csv","","null","resources/maskTrios/BBA2.jpg","null","",NA,NA,NA,NA,""
"image-keyboard-response",568,415805,"0.0-3.185-2.185","grrkm06dyljb3z0",148,"157.csv","","null","resources/images/fishbone.png","null","",NA,NA,NA,NA,""
"image-keyboard-response",569,416110,"0.0-3.186-0.186","grrkm06dyljb3z0",148,"157.csv","","302.30000001192093","resources/trios/L2T1A2.jpg","37","restless",0.7,0.6,0.2,0.839943808494661,"false"
"image-keyboard-response",570,416514,"0.0-3.186-1.186","grrkm06dyljb3z0",148,"157.csv","","null","resources/maskTrios/L2BB.jpg","null","",NA,NA,NA,NA,""
"image-keyboard-response",571,417718,"0.0-3.186-2.186","grrkm06dyljb3z0",148,"157.csv","","null","resources/images/fishbone.png","null","",NA,NA,NA,NA,""
"image-keyboard-response",572,418156,"0.0-3.187-0.187","grrkm06dyljb3z0",148,"157.csv","","435.89999997615814","resources/trios/L2T1A2.jpg","38","restless",0.7,0.6,0.2,0.782157041708644,"false"
"image-keyboard-response",573,418563,"0.0-3.187-1.187","grrkm06dyljb3z0",148,"157.csv","","null","resources/maskTrios/BT1B.jpg","null","",NA,NA,NA,NA,""
"image-keyboard-response",574,419766,"0.0-3.187-2.187","grrkm06dyljb3z0",148,"157.csv","","null","resources/images/fishbone.png","null","",NA,NA,NA,NA,""
"image-keyboard-response",575,420035,"0.0-3.188-0.188","grrkm06dyljb3z0",148,"157.csv","","266.7000000178814","resources/trios/L2T2A1.jpg","39","restless",0.7,0.6,0.2,0.394831189394432,"false"
"image-keyboard-response",576,420441,"0.0-3.188-1.188","grrkm06dyljb3z0",148,"157.csv","","null","resources/maskTrios/BBA1.jpg","null","",NA,NA,NA,NA,""
"image-keyboard-response",577,421648,"0.0-3.188-2.188","grrkm06dyljb3z0",148,"157.csv","","null","resources/images/fishbone.png","null","",NA,NA,NA,NA,""
"image-keyboard-response",578,421933,"0.0-3.189-0.189","grrkm06dyljb3z0",148,"157.csv","","283.30000001192093","resources/trios/L2T2A1.jpg","39","restless",0.7,0.6,0.2,0.319144315411324,"false"
"image-keyboard-response",579,422338,"0.0-3.189-1.189","grrkm06dyljb3z0",148,"157.csv","","null","resources/maskTrios/BBA1.jpg","null","",NA,NA,NA,NA,""
"image-keyboard-response",580,423545,"0.0-3.189-2.189","grrkm06dyljb3z0",148,"157.csv","","null","resources/images/fishbone.png","null","",NA,NA,NA,NA,""
"image-keyboard-response",581,423865,"0.0-3.190-0.190","grrkm06dyljb3z0",148,"157.csv","","318.69999998807907","resources/trios/L2T2A1.jpg","39","restless",0.7,0.6,0.2,0.848095315715982,"false"
"image-keyboard-response",582,424270,"0.0-3.190-1.190","grrkm06dyljb3z0",148,"157.csv","","null","resources/maskTrios/BBA1.jpg","null","",NA,NA,NA,NA,""
"image-keyboard-response",583,425475,"0.0-3.190-2.190","grrkm06dyljb3z0",148,"157.csv","","null","resources/images/fishbone.png","null","",NA,NA,NA,NA,""
"image-keyboard-response",584,425757,"0.0-3.191-0.191","grrkm06dyljb3z0",148,"157.csv","","279.89999997615814","resources/trios/L2T1A1.jpg","39","restless",0.7,0.6,0.2,0.694681824051276,"false"
"image-keyboard-response",585,426162,"0.0-3.191-1.191","grrkm06dyljb3z0",148,"157.csv","","null","resources/maskTrios/BBA1.jpg","null","",NA,NA,NA,NA,""
"image-keyboard-response",586,427366,"0.0-3.191-2.191","grrkm06dyljb3z0",148,"157.csv","","null","resources/images/fishbone.png","null","",NA,NA,NA,NA,""
"image-keyboard-response",587,427697,"0.0-3.192-0.192","grrkm06dyljb3z0",148,"157.csv","","328.90000000596046","resources/trios/L1T2A2.jpg","38","restless",0.7,0.6,0.2,0.823698212324266,"false"
"image-keyboard-response",588,428104,"0.0-3.192-1.192","grrkm06dyljb3z0",148,"157.csv","","null","resources/maskTrios/BT2B.jpg","null","",NA,NA,NA,NA,""
"image-keyboard-response",589,429306,"0.0-3.192-2.192","grrkm06dyljb3z0",148,"157.csv","","null","resources/images/fishbone.png","null","",NA,NA,NA,NA,""
"image-keyboard-response",590,429537,"0.0-3.193-0.193","grrkm06dyljb3z0",148,"157.csv","","228.19999998807907","resources/trios/L1T1A1.jpg","37","restless",0.7,0.6,0.2,0.75796872280984,"false"
"image-keyboard-response",591,429943,"0.0-3.193-1.193","grrkm06dyljb3z0",148,"157.csv","","null","resources/maskTrios/L1BB.jpg","null","",NA,NA,NA,NA,""
"image-keyboard-response",592,431148,"0.0-3.193-2.193","grrkm06dyljb3z0",148,"157.csv","","null","resources/images/fishbone.png","null","",NA,NA,NA,NA,""
"image-keyboard-response",593,431270,"0.0-3.194-0.194","grrkm06dyljb3z0",148,"157.csv","","119.30000001192093","resources/trios/L2T2A2.jpg","39","restless",0.7,0.5,0.2,0.141818105879876,"true"
"image-keyboard-response",594,431673,"0.0-3.194-1.194","grrkm06dyljb3z0",148,"157.csv","","null","resources/maskTrios/BBA2.jpg","null","",NA,NA,NA,NA,""
"image-keyboard-response",595,432879,"0.0-3.194-2.194","grrkm06dyljb3z0",148,"157.csv","","null","resources/images/coin2.png","null","",NA,NA,NA,NA,""
"image-keyboard-response",596,433638,"0.0-3.195-0.195","grrkm06dyljb3z0",148,"157.csv","","757","resources/trios/L1T1A2.jpg","38","restless",0.7,0.5,0.2,0.260794788076064,"true"
"image-keyboard-response",597,434042,"0.0-3.195-1.195","grrkm06dyljb3z0",148,"157.csv","","null","resources/maskTrios/BT1B.jpg","null","",NA,NA,NA,NA,""
"image-keyboard-response",598,435248,"0.0-3.195-2.195","grrkm06dyljb3z0",148,"157.csv","","null","resources/images/coin2.png","null","",NA,NA,NA,NA,""
"image-keyboard-response",599,435696,"0.0-3.196-0.196","grrkm06dyljb3z0",148,"157.csv","","446.30000001192093","resources/trios/L1T2A2.jpg","38","restless",0.6,0.5,0.2,0.701762664566609,"false"
"image-keyboard-response",600,436103,"0.0-3.196-1.196","grrkm06dyljb3z0",148,"157.csv","","null","resources/maskTrios/BT2B.jpg","null","",NA,NA,NA,NA,""
"image-keyboard-response",601,437308,"0.0-3.196-2.196","grrkm06dyljb3z0",148,"157.csv","","null","resources/images/fishbone.png","null","",NA,NA,NA,NA,""
"image-keyboard-response",602,437578,"0.0-3.197-0.197","grrkm06dyljb3z0",148,"157.csv","","268.80000001192093","resources/trios/L1T1A1.jpg","39","restless",0.6,0.5,0.2,0.850518120371514,"false"
"image-keyboard-response",603,437984,"0.0-3.197-1.197","grrkm06dyljb3z0",148,"157.csv","","null","resources/maskTrios/BBA1.jpg","null","",NA,NA,NA,NA,""
"image-keyboard-response",604,439187,"0.0-3.197-2.197","grrkm06dyljb3z0",148,"157.csv","","null","resources/images/fishbone.png","null","",NA,NA,NA,NA,""
"image-keyboard-response",605,441248,"0.0-3.198-0.198","grrkm06dyljb3z0",148,"157.csv","","2058.2000000178814","resources/trios/L1T2A2.jpg","38","restless",0.6,0.5,0.2,0.780677094302984,"false"
"image-keyboard-response",606,441653,"0.0-3.198-1.198","grrkm06dyljb3z0",148,"157.csv","","null","resources/maskTrios/BT2B.jpg","null","",NA,NA,NA,NA,""
