"trial_type","trial_index","time_elapsed","internal_node_id","subject","participantCode","walkNumber","success","rt","stimulus","key_press","test_part","leftProb","midProb","rightProb","generatedNum","correct"
"pavlovia",0,1533,"0.0-0.0","sgagufj563ubd5u",466,"142.csv","","","","","",NA,NA,NA,NA,""
"fullscreen",1,7843,"0.0-1.0","sgagufj563ubd5u",466,"142.csv","true","","","","",NA,NA,NA,NA,""
"html-keyboard-response",2,18119,"0.0-2.0-0.0","sgagufj563ubd5u",466,"142.csv","","10273.100000023842","<p><font size='6'>Arrrgh!</p></font><p>Can you be the best pirate? Try to find lots of gold! But beware, some islands have more gold than others, and over time, the island with the most gold may change. Can YOU figure it out? </p><font size='6'>GOOD LUCK, CAPTAIN!!!</font><p>Press any key to begin</p>","32","",NA,NA,NA,NA,""
"image-keyboard-response",3,21122,"0.0-2.0-1.0","sgagufj563ubd5u",466,"142.csv","","null","resources/image_sets/111.png","null","",NA,NA,NA,NA,""
"image-keyboard-response",4,29782,"0.0-2.0-2.0","sgagufj563ubd5u",466,"142.csv","","8657.700000047684","resources/image_sets/left_highlight.png","37","",NA,NA,NA,NA,""
"image-keyboard-response",5,32284,"0.0-2.0-3.0","sgagufj563ubd5u",466,"142.csv","","2501","resources/image_sets/mid_highlight.png","38","",NA,NA,NA,NA,""
"image-keyboard-response",6,34251,"0.0-2.0-4.0","sgagufj563ubd5u",466,"142.csv","","1965.800000011921","resources/image_sets/right_highlight.png","39","",NA,NA,NA,NA,""
"image-keyboard-response",7,39480,"0.0-2.0-5.0","sgagufj563ubd5u",466,"142.csv","","5227.699999988079","resources/image_sets/111.png","13","",NA,NA,NA,NA,""
"image-keyboard-response",8,44349,"0.0-2.0-6.0","sgagufj563ubd5u",466,"142.csv","","4868.699999988079","resources/images/coin2.png","13","",NA,NA,NA,NA,""
"image-keyboard-response",9,47248,"0.0-2.0-7.0","sgagufj563ubd5u",466,"142.csv","","2897.600000023842","resources/images/fishbone.png","13","",NA,NA,NA,NA,""
"html-keyboard-response",10,49613,"0.0-2.0-8.0","sgagufj563ubd5u",466,"142.csv","","2364.099999964237","<p>Your first journey will be a long one, but you will get a well deserved break at the end</p><p>After the break you will have four more journeys, but each will be much shorter than the first, and you will have breaks in between each</p><p>Press Enter to begin</p>","13","",NA,NA,NA,NA,""
"image-keyboard-response",11,50592,"0.0-3.0-0.0","sgagufj563ubd5u",466,"142.csv","","977","resources/trios/L2T1A2.jpg","37","restless",0.7,0.9,0.3,0.50189314151273,"true"
"image-keyboard-response",12,50995,"0.0-3.0-1.0","sgagufj563ubd5u",466,"142.csv","","null","resources/maskTrios/L2BB.jpg","null","",NA,NA,NA,NA,""
"image-keyboard-response",13,52200,"0.0-3.0-2.0","sgagufj563ubd5u",466,"142.csv","","null","resources/images/coin2.png","null","",NA,NA,NA,NA,""
"image-keyboard-response",14,53276,"0.0-3.1-0.1","sgagufj563ubd5u",466,"142.csv","","1073.3999999761581","resources/trios/L1T1A3.jpg","38","restless",0.7,0.9,0.4,0.977065344110502,"false"
"image-keyboard-response",15,53682,"0.0-3.1-1.1","sgagufj563ubd5u",466,"142.csv","","null","resources/maskTrios/BT1B.jpg","null","",NA,NA,NA,NA,""
"image-keyboard-response",16,54888,"0.0-3.1-2.1","sgagufj563ubd5u",466,"142.csv","","null","resources/images/fishbone.png","null","",NA,NA,NA,NA,""
"image-keyboard-response",17,55272,"0.0-3.2-0.2","sgagufj563ubd5u",466,"142.csv","","382.69999998807907","resources/trios/L2T1A2.jpg","37","restless",0.7,0.9,0.4,0.144769805801327,"true"
"image-keyboard-response",18,55679,"0.0-3.2-1.2","sgagufj563ubd5u",466,"142.csv","","null","resources/maskTrios/L2BB.jpg","null","",NA,NA,NA,NA,""
"image-keyboard-response",19,56889,"0.0-3.2-2.2","sgagufj563ubd5u",466,"142.csv","","null","resources/images/coin2.png","null","",NA,NA,NA,NA,""
"image-keyboard-response",20,57277,"0.0-3.3-0.3","sgagufj563ubd5u",466,"142.csv","","386.60000002384186","resources/trios/L1T1A3.jpg","39","restless",0.7,0.9,0.4,0.696350308341009,"false"
"image-keyboard-response",21,57680,"0.0-3.3-1.3","sgagufj563ubd5u",466,"142.csv","","null","resources/maskTrios/BBA3.jpg","null","",NA,NA,NA,NA,""
"image-keyboard-response",22,58889,"0.0-3.3-2.3","sgagufj563ubd5u",466,"142.csv","","null","resources/images/fishbone.png","null","",NA,NA,NA,NA,""
"image-keyboard-response",23,59254,"0.0-3.4-0.4","sgagufj563ubd5u",466,"142.csv","","362.19999998807907","resources/trios/L1T1A2.jpg","39","restless",0.7,0.9,0.5,0.611368454258322,"false"
"image-keyboard-response",24,59657,"0.0-3.4-1.4","sgagufj563ubd5u",466,"142.csv","","null","resources/maskTrios/BBA2.jpg","null","",NA,NA,NA,NA,""
"image-keyboard-response",25,60861,"0.0-3.4-2.4","sgagufj563ubd5u",466,"142.csv","","null","resources/images/fishbone.png","null","",NA,NA,NA,NA,""
"image-keyboard-response",26,61208,"0.0-3.5-0.5","sgagufj563ubd5u",466,"142.csv","","345.30000001192093","resources/trios/L2T1A3.jpg","38","restless",0.7,0.9,0.5,0.00840703123806774,"true"
"image-keyboard-response",27,61613,"0.0-3.5-1.5","sgagufj563ubd5u",466,"142.csv","","null","resources/maskTrios/BT1B.jpg","null","",NA,NA,NA,NA,""
"image-keyboard-response",28,62818,"0.0-3.5-2.5","sgagufj563ubd5u",466,"142.csv","","null","resources/images/coin2.png","null","",NA,NA,NA,NA,""
"image-keyboard-response",29,63178,"0.0-3.6-0.6","sgagufj563ubd5u",466,"142.csv","","358.39999997615814","resources/trios/L2T1A2.jpg","39","restless",0.6,0.9,0.5,0.397284096800943,"true"
"image-keyboard-response",30,63585,"0.0-3.6-1.6","sgagufj563ubd5u",466,"142.csv","","null","resources/maskTrios/BBA2.jpg","null","",NA,NA,NA,NA,""
"image-keyboard-response",31,64788,"0.0-3.6-2.6","sgagufj563ubd5u",466,"142.csv","","null","resources/images/coin2.png","null","",NA,NA,NA,NA,""
"image-keyboard-response",32,65188,"0.0-3.7-0.7","sgagufj563ubd5u",466,"142.csv","","398","resources/trios/L2T2A3.jpg","37","restless",0.6,0.9,0.5,0.630567464274663,"false"
"image-keyboard-response",33,65594,"0.0-3.7-1.7","sgagufj563ubd5u",466,"142.csv","","null","resources/maskTrios/L2BB.jpg","null","",NA,NA,NA,NA,""
"image-keyboard-response",34,66796,"0.0-3.7-2.7","sgagufj563ubd5u",466,"142.csv","","null","resources/images/fishbone.png","null","",NA,NA,NA,NA,""
"image-keyboard-response",35,67059,"0.0-3.8-0.8","sgagufj563ubd5u",466,"142.csv","","261.19999998807907","resources/trios/L1T1A2.jpg","39","restless",0.6,0.9,0.5,0.601583761738412,"false"
"image-keyboard-response",36,67461,"0.0-3.8-1.8","sgagufj563ubd5u",466,"142.csv","","null","resources/maskTrios/BBA2.jpg","null","",NA,NA,NA,NA,""
"image-keyboard-response",37,68663,"0.0-3.8-2.8","sgagufj563ubd5u",466,"142.csv","","null","resources/images/fishbone.png","null","",NA,NA,NA,NA,""
"image-keyboard-response",38,69022,"0.0-3.9-0.9","sgagufj563ubd5u",466,"142.csv","","357.10000002384186","resources/trios/L1T2A2.jpg","38","restless",0.6,0.8,0.5,0.929329080086282,"false"
"image-keyboard-response",39,69425,"0.0-3.9-1.9","sgagufj563ubd5u",466,"142.csv","","null","resources/maskTrios/BT2B.jpg","null","",NA,NA,NA,NA,""
"image-keyboard-response",40,70628,"0.0-3.9-2.9","sgagufj563ubd5u",466,"142.csv","","null","resources/images/fishbone.png","null","",NA,NA,NA,NA,""
"image-keyboard-response",41,70895,"0.0-3.10-0.10","sgagufj563ubd5u",466,"142.csv","","264.89999997615814","resources/trios/L2T2A3.jpg","38","restless",0.6,0.8,0.4,0.0713834132913267,"true"
"image-keyboard-response",42,71301,"0.0-3.10-1.10","sgagufj563ubd5u",466,"142.csv","","null","resources/maskTrios/BT2B.jpg","null","",NA,NA,NA,NA,""
"image-keyboard-response",43,72507,"0.0-3.10-2.10","sgagufj563ubd5u",466,"142.csv","","null","resources/images/coin2.png","null","",NA,NA,NA,NA,""
"image-keyboard-response",44,73001,"0.0-3.11-0.11","sgagufj563ubd5u",466,"142.csv","","492.2000000476837","resources/trios/L1T1A2.jpg","38","restless",0.6,0.8,0.4,0.328524380659466,"true"
"image-keyboard-response",45,73406,"0.0-3.11-1.11","sgagufj563ubd5u",466,"142.csv","","null","resources/maskTrios/BT1B.jpg","null","",NA,NA,NA,NA,""
"image-keyboard-response",46,74608,"0.0-3.11-2.11","sgagufj563ubd5u",466,"142.csv","","null","resources/images/coin2.png","null","",NA,NA,NA,NA,""
"image-keyboard-response",47,74892,"0.0-3.12-0.12","sgagufj563ubd5u",466,"142.csv","","282","resources/trios/L1T1A2.jpg","37","restless",0.6,0.8,0.4,0.0919755935659543,"true"
"image-keyboard-response",48,75296,"0.0-3.12-1.12","sgagufj563ubd5u",466,"142.csv","","null","resources/maskTrios/L1BB.jpg","null","",NA,NA,NA,NA,""
"image-keyboard-response",49,76499,"0.0-3.12-2.12","sgagufj563ubd5u",466,"142.csv","","null","resources/images/coin2.png","null","",NA,NA,NA,NA,""
"image-keyboard-response",50,76849,"0.0-3.13-0.13","sgagufj563ubd5u",466,"142.csv","","348.80000001192093","resources/trios/L2T2A3.jpg","39","restless",0.6,0.8,0.3,0.678553012626525,"false"
"image-keyboard-response",51,77257,"0.0-3.13-1.13","sgagufj563ubd5u",466,"142.csv","","null","resources/maskTrios/BBA3.jpg","null","",NA,NA,NA,NA,""
"image-keyboard-response",52,78463,"0.0-3.13-2.13","sgagufj563ubd5u",466,"142.csv","","null","resources/images/fishbone.png","null","",NA,NA,NA,NA,""
"image-keyboard-response",53,78769,"0.0-3.14-0.14","sgagufj563ubd5u",466,"142.csv","","303.60000002384186","resources/trios/L2T2A3.jpg","39","restless",0.7,0.8,0.3,0.369226156439055,"false"
"image-keyboard-response",54,79174,"0.0-3.14-1.14","sgagufj563ubd5u",466,"142.csv","","null","resources/maskTrios/BBA3.jpg","null","",NA,NA,NA,NA,""
"image-keyboard-response",55,80379,"0.0-3.14-2.14","sgagufj563ubd5u",466,"142.csv","","null","resources/images/fishbone.png","null","",NA,NA,NA,NA,""
"image-keyboard-response",56,80728,"0.0-3.15-0.15","sgagufj563ubd5u",466,"142.csv","","346.80000001192093","resources/trios/L1T1A3.jpg","39","restless",0.7,0.8,0.4,0.75988970679176,"false"
"image-keyboard-response",57,81131,"0.0-3.15-1.15","sgagufj563ubd5u",466,"142.csv","","null","resources/maskTrios/BBA3.jpg","null","",NA,NA,NA,NA,""
"image-keyboard-response",58,82334,"0.0-3.15-2.15","sgagufj563ubd5u",466,"142.csv","","null","resources/images/fishbone.png","null","",NA,NA,NA,NA,""
"image-keyboard-response",59,82657,"0.0-3.16-0.16","sgagufj563ubd5u",466,"142.csv","","321.89999997615814","resources/trios/L1T2A3.jpg","39","restless",0.7,0.7,0.4,0.216198434615233,"true"
"image-keyboard-response",60,83060,"0.0-3.16-1.16","sgagufj563ubd5u",466,"142.csv","","null","resources/maskTrios/BBA3.jpg","null","",NA,NA,NA,NA,""
"image-keyboard-response",61,84263,"0.0-3.16-2.16","sgagufj563ubd5u",466,"142.csv","","null","resources/images/coin2.png","null","",NA,NA,NA,NA,""
"image-keyboard-response",62,84580,"0.0-3.17-0.17","sgagufj563ubd5u",466,"142.csv","","314.5","resources/trios/L2T2A3.jpg","38","restless",0.7,0.7,0.4,0.340101231503569,"true"
"image-keyboard-response",63,84982,"0.0-3.17-1.17","sgagufj563ubd5u",466,"142.csv","","null","resources/maskTrios/BT2B.jpg","null","",NA,NA,NA,NA,""
"image-keyboard-response",64,86187,"0.0-3.17-2.17","sgagufj563ubd5u",466,"142.csv","","null","resources/images/coin2.png","null","",NA,NA,NA,NA,""
"image-keyboard-response",65,86574,"0.0-3.18-0.18","sgagufj563ubd5u",466,"142.csv","","384.5","resources/trios/L1T2A2.jpg","37","restless",0.7,0.7,0.4,0.785788499021521,"false"
"image-keyboard-response",66,86979,"0.0-3.18-1.18","sgagufj563ubd5u",466,"142.csv","","null","resources/maskTrios/L1BB.jpg","null","",NA,NA,NA,NA,""
"image-keyboard-response",67,88181,"0.0-3.18-2.18","sgagufj563ubd5u",466,"142.csv","","null","resources/images/fishbone.png","null","",NA,NA,NA,NA,""
"image-keyboard-response",68,88669,"0.0-3.19-0.19","sgagufj563ubd5u",466,"142.csv","","486.30000001192093","resources/trios/L2T1A2.jpg","37","restless",0.7,0.7,0.4,0.688333343958748,"true"
"image-keyboard-response",69,89072,"0.0-3.19-1.19","sgagufj563ubd5u",466,"142.csv","","null","resources/maskTrios/L2BB.jpg","null","",NA,NA,NA,NA,""
"image-keyboard-response",70,90276,"0.0-3.19-2.19","sgagufj563ubd5u",466,"142.csv","","null","resources/images/coin2.png","null","",NA,NA,NA,NA,""
"image-keyboard-response",71,90589,"0.0-3.20-0.20","sgagufj563ubd5u",466,"142.csv","","311.19999998807907","resources/trios/L2T2A3.jpg","38","restless",0.7,0.7,0.4,0.772956182293709,"false"
"image-keyboard-response",72,90994,"0.0-3.20-1.20","sgagufj563ubd5u",466,"142.csv","","null","resources/maskTrios/BT2B.jpg","null","",NA,NA,NA,NA,""
"image-keyboard-response",73,92199,"0.0-3.20-2.20","sgagufj563ubd5u",466,"142.csv","","null","resources/images/fishbone.png","null","",NA,NA,NA,NA,""
"image-keyboard-response",74,92473,"0.0-3.21-0.21","sgagufj563ubd5u",466,"142.csv","","271.89999997615814","resources/trios/L1T1A3.jpg","37","restless",0.7,0.7,0.4,0.391493427864449,"true"
"image-keyboard-response",75,92878,"0.0-3.21-1.21","sgagufj563ubd5u",466,"142.csv","","null","resources/maskTrios/L1BB.jpg","null","",NA,NA,NA,NA,""
"image-keyboard-response",76,94080,"0.0-3.21-2.21","sgagufj563ubd5u",466,"142.csv","","null","resources/images/coin2.png","null","",NA,NA,NA,NA,""
"image-keyboard-response",77,94395,"0.0-3.22-0.22","sgagufj563ubd5u",466,"142.csv","","312.80000001192093","resources/trios/L2T1A2.jpg","39","restless",0.7,0.6,0.4,0.0281077042978186,"true"
"image-keyboard-response",78,94802,"0.0-3.22-1.22","sgagufj563ubd5u",466,"142.csv","","null","resources/maskTrios/BBA2.jpg","null","",NA,NA,NA,NA,""
"image-keyboard-response",79,96005,"0.0-3.22-2.22","sgagufj563ubd5u",466,"142.csv","","null","resources/images/coin2.png","null","",NA,NA,NA,NA,""
"image-keyboard-response",80,96433,"0.0-3.23-0.23","sgagufj563ubd5u",466,"142.csv","","426.69999998807907","resources/trios/L1T1A3.jpg","39","restless",0.7,0.6,0.4,0.553192360001224,"false"
"image-keyboard-response",81,96835,"0.0-3.23-1.23","sgagufj563ubd5u",466,"142.csv","","null","resources/maskTrios/BBA3.jpg","null","",NA,NA,NA,NA,""
"image-keyboard-response",82,98040,"0.0-3.23-2.23","sgagufj563ubd5u",466,"142.csv","","null","resources/images/fishbone.png","null","",NA,NA,NA,NA,""
"image-keyboard-response",83,98384,"0.0-3.24-0.24","sgagufj563ubd5u",466,"142.csv","","341.69999998807907","resources/trios/L1T2A3.jpg","38","restless",0.7,0.6,0.4,0.653568891354769,"false"
"image-keyboard-response",84,98786,"0.0-3.24-1.24","sgagufj563ubd5u",466,"142.csv","","null","resources/maskTrios/BT2B.jpg","null","",NA,NA,NA,NA,""
"image-keyboard-response",85,99989,"0.0-3.24-2.24","sgagufj563ubd5u",466,"142.csv","","null","resources/images/fishbone.png","null","",NA,NA,NA,NA,""
"image-keyboard-response",86,100274,"0.0-3.25-0.25","sgagufj563ubd5u",466,"142.csv","","282.60000002384186","resources/trios/L2T1A3.jpg","37","restless",0.7,0.6,0.4,0.519528744789192,"true"
"image-keyboard-response",87,100680,"0.0-3.25-1.25","sgagufj563ubd5u",466,"142.csv","","null","resources/maskTrios/L2BB.jpg","null","",NA,NA,NA,NA,""
"image-keyboard-response",88,101889,"0.0-3.25-2.25","sgagufj563ubd5u",466,"142.csv","","null","resources/images/coin2.png","null","",NA,NA,NA,NA,""
"image-keyboard-response",89,102313,"0.0-3.26-0.26","sgagufj563ubd5u",466,"142.csv","","422.19999998807907","resources/trios/L1T2A3.jpg","37","restless",0.7,0.6,0.4,0.908093503517971,"false"
"image-keyboard-response",90,102717,"0.0-3.26-1.26","sgagufj563ubd5u",466,"142.csv","","null","resources/maskTrios/L1BB.jpg","null","",NA,NA,NA,NA,""
"image-keyboard-response",91,103920,"0.0-3.26-2.26","sgagufj563ubd5u",466,"142.csv","","null","resources/images/fishbone.png","null","",NA,NA,NA,NA,""
"image-keyboard-response",92,104255,"0.0-3.27-0.27","sgagufj563ubd5u",466,"142.csv","","333.0999999642372","resources/trios/L2T1A2.jpg","37","restless",0.8,0.6,0.4,0.185471913850919,"true"
"image-keyboard-response",93,104660,"0.0-3.27-1.27","sgagufj563ubd5u",466,"142.csv","","null","resources/maskTrios/L2BB.jpg","null","",NA,NA,NA,NA,""
"image-keyboard-response",94,105863,"0.0-3.27-2.27","sgagufj563ubd5u",466,"142.csv","","null","resources/images/coin2.png","null","",NA,NA,NA,NA,""
"image-keyboard-response",95,106147,"0.0-3.28-0.28","sgagufj563ubd5u",466,"142.csv","","281.69999998807907","resources/trios/L2T2A3.jpg","38","restless",0.8,0.6,0.4,0.0803259243084944,"true"
"image-keyboard-response",96,106549,"0.0-3.28-1.28","sgagufj563ubd5u",466,"142.csv","","null","resources/maskTrios/BT2B.jpg","null","",NA,NA,NA,NA,""
"image-keyboard-response",97,107753,"0.0-3.28-2.28","sgagufj563ubd5u",466,"142.csv","","null","resources/images/coin2.png","null","",NA,NA,NA,NA,""
"image-keyboard-response",98,108069,"0.0-3.29-0.29","sgagufj563ubd5u",466,"142.csv","","313.5","resources/trios/L1T1A2.jpg","38","restless",0.8,0.6,0.3,0.162518540294336,"true"
"image-keyboard-response",99,108470,"0.0-3.29-1.29","sgagufj563ubd5u",466,"142.csv","","null","resources/maskTrios/BT1B.jpg","null","",NA,NA,NA,NA,""
"image-keyboard-response",100,109679,"0.0-3.29-2.29","sgagufj563ubd5u",466,"142.csv","","null","resources/images/coin2.png","null","",NA,NA,NA,NA,""
"image-keyboard-response",101,110092,"0.0-3.30-0.30","sgagufj563ubd5u",466,"142.csv","","411.60000002384186","resources/trios/L2T1A3.jpg","38","restless",0.8,0.6,0.4,0.605055146247141,"false"
"image-keyboard-response",102,110494,"0.0-3.30-1.30","sgagufj563ubd5u",466,"142.csv","","null","resources/maskTrios/BT1B.jpg","null","",NA,NA,NA,NA,""
"image-keyboard-response",103,111699,"0.0-3.30-2.30","sgagufj563ubd5u",466,"142.csv","","null","resources/images/fishbone.png","null","",NA,NA,NA,NA,""
"image-keyboard-response",104,112047,"0.0-3.31-0.31","sgagufj563ubd5u",466,"142.csv","","346.4000000357628","resources/trios/L1T1A3.jpg","37","restless",0.8,0.6,0.4,0.394202432953169,"true"
"image-keyboard-response",105,112450,"0.0-3.31-1.31","sgagufj563ubd5u",466,"142.csv","","null","resources/maskTrios/L1BB.jpg","null","",NA,NA,NA,NA,""
"image-keyboard-response",106,113653,"0.0-3.31-2.31","sgagufj563ubd5u",466,"142.csv","","null","resources/images/coin2.png","null","",NA,NA,NA,NA,""
"image-keyboard-response",107,113973,"0.0-3.32-0.32","sgagufj563ubd5u",466,"142.csv","","317.5","resources/trios/L2T2A2.jpg","37","restless",0.8,0.6,0.4,0.325313514486259,"true"
"image-keyboard-response",108,114379,"0.0-3.32-1.32","sgagufj563ubd5u",466,"142.csv","","null","resources/maskTrios/L2BB.jpg","null","",NA,NA,NA,NA,""
"image-keyboard-response",109,115583,"0.0-3.32-2.32","sgagufj563ubd5u",466,"142.csv","","null","resources/images/coin2.png","null","",NA,NA,NA,NA,""
"image-keyboard-response",110,115861,"0.0-3.33-0.33","sgagufj563ubd5u",466,"142.csv","","276.89999997615814","resources/trios/L2T1A2.jpg","37","restless",0.8,0.6,0.4,0.853872229089973,"false"
"image-keyboard-response",111,116266,"0.0-3.33-1.33","sgagufj563ubd5u",466,"142.csv","","null","resources/maskTrios/L2BB.jpg","null","",NA,NA,NA,NA,""
"image-keyboard-response",112,117468,"0.0-3.33-2.33","sgagufj563ubd5u",466,"142.csv","","null","resources/images/fishbone.png","null","",NA,NA,NA,NA,""
"image-keyboard-response",113,117741,"0.0-3.34-0.34","sgagufj563ubd5u",466,"142.csv","","270.89999997615814","resources/trios/L2T1A3.jpg","39","restless",0.8,0.5,0.4,0.461702630780296,"false"
"image-keyboard-response",114,118146,"0.0-3.34-1.34","sgagufj563ubd5u",466,"142.csv","","null","resources/maskTrios/BBA3.jpg","null","",NA,NA,NA,NA,""
"image-keyboard-response",115,119349,"0.0-3.34-2.34","sgagufj563ubd5u",466,"142.csv","","null","resources/images/fishbone.png","null","",NA,NA,NA,NA,""
"image-keyboard-response",116,119639,"0.0-3.35-0.35","sgagufj563ubd5u",466,"142.csv","","288.69999998807907","resources/trios/L2T2A2.jpg","39","restless",0.8,0.5,0.4,0.889359502897347,"false"
"image-keyboard-response",117,120041,"0.0-3.35-1.35","sgagufj563ubd5u",466,"142.csv","","null","resources/maskTrios/BBA2.jpg","null","",NA,NA,NA,NA,""
"image-keyboard-response",118,121245,"0.0-3.35-2.35","sgagufj563ubd5u",466,"142.csv","","null","resources/images/fishbone.png","null","",NA,NA,NA,NA,""
"image-keyboard-response",119,121514,"0.0-3.36-0.36","sgagufj563ubd5u",466,"142.csv","","267.10000002384186","resources/trios/L1T2A2.jpg","39","restless",0.8,0.5,0.4,0.570339113584304,"false"
"image-keyboard-response",120,121916,"0.0-3.36-1.36","sgagufj563ubd5u",466,"142.csv","","null","resources/maskTrios/BBA2.jpg","null","",NA,NA,NA,NA,""
"image-keyboard-response",121,123118,"0.0-3.36-2.36","sgagufj563ubd5u",466,"142.csv","","null","resources/images/fishbone.png","null","",NA,NA,NA,NA,""
"image-keyboard-response",122,123409,"0.0-3.37-0.37","sgagufj563ubd5u",466,"142.csv","","288.60000002384186","resources/trios/L2T2A2.jpg","37","restless",0.8,0.5,0.5,0.122397086630289,"true"
"image-keyboard-response",123,123816,"0.0-3.37-1.37","sgagufj563ubd5u",466,"142.csv","","null","resources/maskTrios/L2BB.jpg","null","",NA,NA,NA,NA,""
"image-keyboard-response",124,125019,"0.0-3.37-2.37","sgagufj563ubd5u",466,"142.csv","","null","resources/images/coin2.png","null","",NA,NA,NA,NA,""
"image-keyboard-response",125,125377,"0.0-3.38-0.38","sgagufj563ubd5u",466,"142.csv","","356","resources/trios/L1T2A3.jpg","38","restless",0.8,0.5,0.5,0.659675916192197,"false"
"image-keyboard-response",126,125779,"0.0-3.38-1.38","sgagufj563ubd5u",466,"142.csv","","null","resources/maskTrios/BT2B.jpg","null","",NA,NA,NA,NA,""
"image-keyboard-response",127,126983,"0.0-3.38-2.38","sgagufj563ubd5u",466,"142.csv","","null","resources/images/fishbone.png","null","",NA,NA,NA,NA,""
"image-keyboard-response",128,127216,"0.0-3.39-0.39","sgagufj563ubd5u",466,"142.csv","","231.30000001192093","resources/trios/L1T1A3.jpg","37","restless",0.8,0.4,0.5,0.95808554688556,"false"
"image-keyboard-response",129,127618,"0.0-3.39-1.39","sgagufj563ubd5u",466,"142.csv","","null","resources/maskTrios/L1BB.jpg","null","",NA,NA,NA,NA,""
"image-keyboard-response",130,128820,"0.0-3.39-2.39","sgagufj563ubd5u",466,"142.csv","","null","resources/images/fishbone.png","null","",NA,NA,NA,NA,""
"image-keyboard-response",131,129117,"0.0-3.40-0.40","sgagufj563ubd5u",466,"142.csv","","295.10000002384186","resources/trios/L2T1A2.jpg","37","restless",0.8,0.5,0.5,0.988089076664923,"false"
"image-keyboard-response",132,129520,"0.0-3.40-1.40","sgagufj563ubd5u",466,"142.csv","","null","resources/maskTrios/L2BB.jpg","null","",NA,NA,NA,NA,""
"image-keyboard-response",133,130722,"0.0-3.40-2.40","sgagufj563ubd5u",466,"142.csv","","null","resources/images/fishbone.png","null","",NA,NA,NA,NA,""
"image-keyboard-response",134,130968,"0.0-3.41-0.41","sgagufj563ubd5u",466,"142.csv","","244","resources/trios/L1T2A3.jpg","37","restless",0.7,0.5,0.5,0.269304953489318,"true"
"image-keyboard-response",135,131372,"0.0-3.41-1.41","sgagufj563ubd5u",466,"142.csv","","null","resources/maskTrios/L1BB.jpg","null","",NA,NA,NA,NA,""
"image-keyboard-response",136,132574,"0.0-3.41-2.41","sgagufj563ubd5u",466,"142.csv","","null","resources/images/coin2.png","null","",NA,NA,NA,NA,""
"image-keyboard-response",137,132861,"0.0-3.42-0.42","sgagufj563ubd5u",466,"142.csv","","285.19999998807907","resources/trios/L2T2A2.jpg","38","restless",0.7,0.5,0.5,0.824140339604788,"false"
"image-keyboard-response",138,133265,"0.0-3.42-1.42","sgagufj563ubd5u",466,"142.csv","","null","resources/maskTrios/BT2B.jpg","null","",NA,NA,NA,NA,""
"image-keyboard-response",139,134469,"0.0-3.42-2.42","sgagufj563ubd5u",466,"142.csv","","null","resources/images/fishbone.png","null","",NA,NA,NA,NA,""
"image-keyboard-response",140,134779,"0.0-3.43-0.43","sgagufj563ubd5u",466,"142.csv","","307.5","resources/trios/L2T2A3.jpg","38","restless",0.7,0.5,0.5,0.305984141809675,"true"
"image-keyboard-response",141,135186,"0.0-3.43-1.43","sgagufj563ubd5u",466,"142.csv","","null","resources/maskTrios/BT2B.jpg","null","",NA,NA,NA,NA,""
"image-keyboard-response",142,136388,"0.0-3.43-2.43","sgagufj563ubd5u",466,"142.csv","","null","resources/images/coin2.png","null","",NA,NA,NA,NA,""
"image-keyboard-response",143,136673,"0.0-3.44-0.44","sgagufj563ubd5u",466,"142.csv","","282.80000001192093","resources/trios/L2T1A2.jpg","39","restless",0.7,0.5,0.5,0.102737630853775,"true"
"image-keyboard-response",144,137077,"0.0-3.44-1.44","sgagufj563ubd5u",466,"142.csv","","null","resources/maskTrios/BBA2.jpg","null","",NA,NA,NA,NA,""
"image-keyboard-response",145,138283,"0.0-3.44-2.44","sgagufj563ubd5u",466,"142.csv","","null","resources/images/coin2.png","null","",NA,NA,NA,NA,""
"image-keyboard-response",146,138566,"0.0-3.45-0.45","sgagufj563ubd5u",466,"142.csv","","280.39999997615814","resources/trios/L1T2A2.jpg","39","restless",0.8,0.5,0.5,0.578914605089662,"false"
"image-keyboard-response",147,138969,"0.0-3.45-1.45","sgagufj563ubd5u",466,"142.csv","","null","resources/maskTrios/BBA2.jpg","null","",NA,NA,NA,NA,""
"image-keyboard-response",148,140172,"0.0-3.45-2.45","sgagufj563ubd5u",466,"142.csv","","null","resources/images/fishbone.png","null","",NA,NA,NA,NA,""
"image-keyboard-response",149,140500,"0.0-3.46-0.46","sgagufj563ubd5u",466,"142.csv","","326.2000000476837","resources/trios/L2T2A3.jpg","39","restless",0.8,0.5,0.5,0.390749986801371,"true"
"image-keyboard-response",150,140905,"0.0-3.46-1.46","sgagufj563ubd5u",466,"142.csv","","null","resources/maskTrios/BBA3.jpg","null","",NA,NA,NA,NA,""
"image-keyboard-response",151,142111,"0.0-3.46-2.46","sgagufj563ubd5u",466,"142.csv","","null","resources/images/coin2.png","null","",NA,NA,NA,NA,""
"image-keyboard-response",152,142452,"0.0-3.47-0.47","sgagufj563ubd5u",466,"142.csv","","338.9000000357628","resources/trios/L2T1A3.jpg","37","restless",0.8,0.5,0.5,0.488824340631642,"true"
"image-keyboard-response",153,142858,"0.0-3.47-1.47","sgagufj563ubd5u",466,"142.csv","","null","resources/maskTrios/L2BB.jpg","null","",NA,NA,NA,NA,""
"image-keyboard-response",154,144061,"0.0-3.47-2.47","sgagufj563ubd5u",466,"142.csv","","null","resources/images/coin2.png","null","",NA,NA,NA,NA,""
"image-keyboard-response",155,144309,"0.0-3.48-0.48","sgagufj563ubd5u",466,"142.csv","","246.69999998807907","resources/trios/L2T2A2.jpg","38","restless",0.8,0.5,0.5,0.983731774701341,"false"
"image-keyboard-response",156,144712,"0.0-3.48-1.48","sgagufj563ubd5u",466,"142.csv","","null","resources/maskTrios/BT2B.jpg","null","",NA,NA,NA,NA,""
"image-keyboard-response",157,145915,"0.0-3.48-2.48","sgagufj563ubd5u",466,"142.csv","","null","resources/images/fishbone.png","null","",NA,NA,NA,NA,""
"image-keyboard-response",158,146218,"0.0-3.49-0.49","sgagufj563ubd5u",466,"142.csv","","301.5","resources/trios/L1T2A3.jpg","37","restless",0.8,0.5,0.5,0.973611832646152,"false"
"image-keyboard-response",159,146620,"0.0-3.49-1.49","sgagufj563ubd5u",466,"142.csv","","null","resources/maskTrios/L1BB.jpg","null","",NA,NA,NA,NA,""
"image-keyboard-response",160,147823,"0.0-3.49-2.49","sgagufj563ubd5u",466,"142.csv","","null","resources/images/fishbone.png","null","",NA,NA,NA,NA,""
"image-keyboard-response",161,147986,"0.0-3.50-0.50","sgagufj563ubd5u",466,"142.csv","","161.10000002384186","resources/trios/L2T2A3.jpg","39","restless",0.8,0.5,0.5,0.910590000941809,"false"
"image-keyboard-response",162,148392,"0.0-3.50-1.50","sgagufj563ubd5u",466,"142.csv","","null","resources/maskTrios/BBA3.jpg","null","",NA,NA,NA,NA,""
"image-keyboard-response",163,149593,"0.0-3.50-2.50","sgagufj563ubd5u",466,"142.csv","","null","resources/images/fishbone.png","null","",NA,NA,NA,NA,""
"image-keyboard-response",164,149840,"0.0-3.51-0.51","sgagufj563ubd5u",466,"142.csv","","245","resources/trios/L2T1A3.jpg","39","restless",0.8,0.5,0.5,0.588834246798344,"false"
"image-keyboard-response",165,150245,"0.0-3.51-1.51","sgagufj563ubd5u",466,"142.csv","","null","resources/maskTrios/BBA3.jpg","null","",NA,NA,NA,NA,""
"image-keyboard-response",166,151449,"0.0-3.51-2.51","sgagufj563ubd5u",466,"142.csv","","null","resources/images/fishbone.png","null","",NA,NA,NA,NA,""
"image-keyboard-response",167,151545,"0.0-3.52-0.52","sgagufj563ubd5u",466,"142.csv","","94.69999998807907","resources/trios/L2T2A3.jpg","38","restless",0.8,0.5,0.5,0.686005342737353,"false"
"image-keyboard-response",168,151947,"0.0-3.52-1.52","sgagufj563ubd5u",466,"142.csv","","null","resources/maskTrios/BT2B.jpg","null","",NA,NA,NA,NA,""
"image-keyboard-response",169,153152,"0.0-3.52-2.52","sgagufj563ubd5u",466,"142.csv","","null","resources/images/fishbone.png","null","",NA,NA,NA,NA,""
"image-keyboard-response",170,153369,"0.0-3.53-0.53","sgagufj563ubd5u",466,"142.csv","","215.30000001192093","resources/trios/L1T1A2.jpg","37","restless",0.8,0.5,0.5,0.760713584928966,"true"
"image-keyboard-response",171,153774,"0.0-3.53-1.53","sgagufj563ubd5u",466,"142.csv","","null","resources/maskTrios/L1BB.jpg","null","",NA,NA,NA,NA,""
"image-keyboard-response",172,154981,"0.0-3.53-2.53","sgagufj563ubd5u",466,"142.csv","","null","resources/images/coin2.png","null","",NA,NA,NA,NA,""
"image-keyboard-response",173,155261,"0.0-3.54-0.54","sgagufj563ubd5u",466,"142.csv","","277.19999998807907","resources/trios/L1T2A2.jpg","37","restless",0.8,0.5,0.5,0.0666278539509271,"true"
"image-keyboard-response",174,155667,"0.0-3.54-1.54","sgagufj563ubd5u",466,"142.csv","","null","resources/maskTrios/L1BB.jpg","null","",NA,NA,NA,NA,""
"image-keyboard-response",175,156870,"0.0-3.54-2.54","sgagufj563ubd5u",466,"142.csv","","null","resources/images/coin2.png","null","",NA,NA,NA,NA,""
"image-keyboard-response",176,157206,"0.0-3.55-0.55","sgagufj563ubd5u",466,"142.csv","","334","resources/trios/L1T2A3.jpg","38","restless",0.9,0.5,0.5,0.923624026259822,"false"
"image-keyboard-response",177,157609,"0.0-3.55-1.55","sgagufj563ubd5u",466,"142.csv","","null","resources/maskTrios/BT2B.jpg","null","",NA,NA,NA,NA,""
"image-keyboard-response",178,158817,"0.0-3.55-2.55","sgagufj563ubd5u",466,"142.csv","","null","resources/images/fishbone.png","null","",NA,NA,NA,NA,""
"image-keyboard-response",179,159141,"0.0-3.56-0.56","sgagufj563ubd5u",466,"142.csv","","322.39999997615814","resources/trios/L2T2A3.jpg","39","restless",0.9,0.5,0.5,0.360389017126407,"true"
"image-keyboard-response",180,159547,"0.0-3.56-1.56","sgagufj563ubd5u",466,"142.csv","","null","resources/maskTrios/BBA3.jpg","null","",NA,NA,NA,NA,""
"image-keyboard-response",181,160756,"0.0-3.56-2.56","sgagufj563ubd5u",466,"142.csv","","null","resources/images/coin2.png","null","",NA,NA,NA,NA,""
"image-keyboard-response",182,161091,"0.0-3.57-0.57","sgagufj563ubd5u",466,"142.csv","","332.5","resources/trios/L1T2A2.jpg","39","restless",0.9,0.5,0.5,0.397971763497867,"true"
"image-keyboard-response",183,161492,"0.0-3.57-1.57","sgagufj563ubd5u",466,"142.csv","","null","resources/maskTrios/BBA2.jpg","null","",NA,NA,NA,NA,""
"image-keyboard-response",184,162695,"0.0-3.57-2.57","sgagufj563ubd5u",466,"142.csv","","null","resources/images/coin2.png","null","",NA,NA,NA,NA,""
"image-keyboard-response",185,163052,"0.0-3.58-0.58","sgagufj563ubd5u",466,"142.csv","","354","resources/trios/L2T1A3.jpg","38","restless",0.9,0.5,0.5,0.647760036973697,"false"
"image-keyboard-response",186,163454,"0.0-3.58-1.58","sgagufj563ubd5u",466,"142.csv","","null","resources/maskTrios/BT1B.jpg","null","",NA,NA,NA,NA,""
"image-keyboard-response",187,164657,"0.0-3.58-2.58","sgagufj563ubd5u",466,"142.csv","","null","resources/images/fishbone.png","null","",NA,NA,NA,NA,""
"image-keyboard-response",188,164923,"0.0-3.59-0.59","sgagufj563ubd5u",466,"142.csv","","264","resources/trios/L1T2A2.jpg","37","restless",0.9,0.5,0.5,0.454301950683561,"true"
"image-keyboard-response",189,165326,"0.0-3.59-1.59","sgagufj563ubd5u",466,"142.csv","","null","resources/maskTrios/L1BB.jpg","null","",NA,NA,NA,NA,""
"image-keyboard-response",190,166533,"0.0-3.59-2.59","sgagufj563ubd5u",466,"142.csv","","null","resources/images/coin2.png","null","",NA,NA,NA,NA,""
"image-keyboard-response",191,166815,"0.0-3.60-0.60","sgagufj563ubd5u",466,"142.csv","","280.69999998807907","resources/trios/L2T2A3.jpg","37","restless",0.9,0.5,0.5,0.423515153077145,"true"
"image-keyboard-response",192,167218,"0.0-3.60-1.60","sgagufj563ubd5u",466,"142.csv","","null","resources/maskTrios/L2BB.jpg","null","",NA,NA,NA,NA,""
"image-keyboard-response",193,168420,"0.0-3.60-2.60","sgagufj563ubd5u",466,"142.csv","","null","resources/images/coin2.png","null","",NA,NA,NA,NA,""
"image-keyboard-response",194,168746,"0.0-3.61-0.61","sgagufj563ubd5u",466,"142.csv","","324.5","resources/trios/L2T2A3.jpg","38","restless",0.9,0.5,0.5,0.00403451697776114,"true"
"image-keyboard-response",195,169152,"0.0-3.61-1.61","sgagufj563ubd5u",466,"142.csv","","null","resources/maskTrios/BT2B.jpg","null","",NA,NA,NA,NA,""
"image-keyboard-response",196,170356,"0.0-3.61-2.61","sgagufj563ubd5u",466,"142.csv","","null","resources/images/coin2.png","null","",NA,NA,NA,NA,""
"image-keyboard-response",197,170647,"0.0-3.62-0.62","sgagufj563ubd5u",466,"142.csv","","290.0999999642372","resources/trios/L1T2A2.jpg","39","restless",0.9,0.5,0.6,0.630376161300476,"false"
"image-keyboard-response",198,171049,"0.0-3.62-1.62","sgagufj563ubd5u",466,"142.csv","","null","resources/maskTrios/BBA2.jpg","null","",NA,NA,NA,NA,""
"image-keyboard-response",199,172253,"0.0-3.62-2.62","sgagufj563ubd5u",466,"142.csv","","null","resources/images/fishbone.png","null","",NA,NA,NA,NA,""
"image-keyboard-response",200,172502,"0.0-3.63-0.63","sgagufj563ubd5u",466,"142.csv","","246.9000000357628","resources/trios/L1T2A2.jpg","39","restless",0.9,0.5,0.6,0.691169396656924,"false"
"image-keyboard-response",201,172906,"0.0-3.63-1.63","sgagufj563ubd5u",466,"142.csv","","null","resources/maskTrios/BBA2.jpg","null","",NA,NA,NA,NA,""
"image-keyboard-response",202,174108,"0.0-3.63-2.63","sgagufj563ubd5u",466,"142.csv","","null","resources/images/fishbone.png","null","",NA,NA,NA,NA,""
"image-keyboard-response",203,174370,"0.0-3.64-0.64","sgagufj563ubd5u",466,"142.csv","","258","resources/trios/L2T2A2.jpg","38","restless",0.9,0.5,0.6,0.705993142646104,"false"
"image-keyboard-response",204,174773,"0.0-3.64-1.64","sgagufj563ubd5u",466,"142.csv","","null","resources/maskTrios/BT2B.jpg","null","",NA,NA,NA,NA,""
"image-keyboard-response",205,175980,"0.0-3.64-2.64","sgagufj563ubd5u",466,"142.csv","","null","resources/images/fishbone.png","null","",NA,NA,NA,NA,""
"image-keyboard-response",206,176231,"0.0-3.65-0.65","sgagufj563ubd5u",466,"142.csv","","248.5999999642372","resources/trios/L2T2A2.jpg","37","restless",0.9,0.5,0.6,0.979334462184633,"false"
"image-keyboard-response",207,176634,"0.0-3.65-1.65","sgagufj563ubd5u",466,"142.csv","","null","resources/maskTrios/L2BB.jpg","null","",NA,NA,NA,NA,""
"image-keyboard-response",208,177838,"0.0-3.65-2.65","sgagufj563ubd5u",466,"142.csv","","null","resources/images/fishbone.png","null","",NA,NA,NA,NA,""
"image-keyboard-response",209,178055,"0.0-3.66-0.66","sgagufj563ubd5u",466,"142.csv","","215.5","resources/trios/L1T1A3.jpg","37","restless",0.9,0.5,0.6,0.659528864050875,"true"
"image-keyboard-response",210,178459,"0.0-3.66-1.66","sgagufj563ubd5u",466,"142.csv","","null","resources/maskTrios/L1BB.jpg","null","",NA,NA,NA,NA,""
"image-keyboard-response",211,179666,"0.0-3.66-2.66","sgagufj563ubd5u",466,"142.csv","","null","resources/images/coin2.png","null","",NA,NA,NA,NA,""
"image-keyboard-response",212,179898,"0.0-3.67-0.67","sgagufj563ubd5u",466,"142.csv","","229.5","resources/trios/L2T2A3.jpg","38","restless",0.9,0.5,0.6,0.763671741063906,"false"
"image-keyboard-response",213,180300,"0.0-3.67-1.67","sgagufj563ubd5u",466,"142.csv","","null","resources/maskTrios/BT2B.jpg","null","",NA,NA,NA,NA,""
"image-keyboard-response",214,181502,"0.0-3.67-2.67","sgagufj563ubd5u",466,"142.csv","","null","resources/images/fishbone.png","null","",NA,NA,NA,NA,""
"image-keyboard-response",215,181662,"0.0-3.68-0.68","sgagufj563ubd5u",466,"142.csv","","158","resources/trios/L1T1A2.jpg","38","restless",0.9,0.5,0.6,0.507859134217411,"false"
"image-keyboard-response",216,182065,"0.0-3.68-1.68","sgagufj563ubd5u",466,"142.csv","","null","resources/maskTrios/BT1B.jpg","null","",NA,NA,NA,NA,""
"image-keyboard-response",217,183267,"0.0-3.68-2.68","sgagufj563ubd5u",466,"142.csv","","null","resources/images/fishbone.png","null","",NA,NA,NA,NA,""
"image-keyboard-response",218,183549,"0.0-3.69-0.69","sgagufj563ubd5u",466,"142.csv","","280","resources/trios/L1T2A2.jpg","39","restless",0.9,0.5,0.6,0.0923647559519973,"true"
"image-keyboard-response",219,183955,"0.0-3.69-1.69","sgagufj563ubd5u",466,"142.csv","","null","resources/maskTrios/BBA2.jpg","null","",NA,NA,NA,NA,""
"image-keyboard-response",220,185158,"0.0-3.69-2.69","sgagufj563ubd5u",466,"142.csv","","null","resources/images/coin2.png","null","",NA,NA,NA,NA,""
"image-keyboard-response",221,185464,"0.0-3.70-0.70","sgagufj563ubd5u",466,"142.csv","","305.10000002384186","resources/trios/L2T1A3.jpg","39","restless",0.9,0.5,0.6,0.740364723446932,"false"
"image-keyboard-response",222,185869,"0.0-3.70-1.70","sgagufj563ubd5u",466,"142.csv","","null","resources/maskTrios/BBA3.jpg","null","",NA,NA,NA,NA,""
"image-keyboard-response",223,187073,"0.0-3.70-2.70","sgagufj563ubd5u",466,"142.csv","","null","resources/images/fishbone.png","null","",NA,NA,NA,NA,""
"image-keyboard-response",224,187319,"0.0-3.71-0.71","sgagufj563ubd5u",466,"142.csv","","243.89999997615814","resources/trios/L2T1A3.jpg","39","restless",0.9,0.5,0.5,0.223372495326224,"true"
"image-keyboard-response",225,187728,"0.0-3.71-1.71","sgagufj563ubd5u",466,"142.csv","","null","resources/maskTrios/BBA3.jpg","null","",NA,NA,NA,NA,""
"image-keyboard-response",226,188931,"0.0-3.71-2.71","sgagufj563ubd5u",466,"142.csv","","null","resources/images/coin2.png","null","",NA,NA,NA,NA,""
"image-keyboard-response",227,189211,"0.0-3.72-0.72","sgagufj563ubd5u",466,"142.csv","","277.2000000476837","resources/trios/L2T1A2.jpg","38","restless",0.8,0.5,0.5,0.805582290253241,"false"
"image-keyboard-response",228,189613,"0.0-3.72-1.72","sgagufj563ubd5u",466,"142.csv","","null","resources/maskTrios/BT1B.jpg","null","",NA,NA,NA,NA,""
"image-keyboard-response",229,190816,"0.0-3.72-2.72","sgagufj563ubd5u",466,"142.csv","","null","resources/images/fishbone.png","null","",NA,NA,NA,NA,""
"image-keyboard-response",230,191046,"0.0-3.73-0.73","sgagufj563ubd5u",466,"142.csv","","227.5999999642372","resources/trios/L2T2A2.jpg","38","restless",0.8,0.5,0.5,0.201312219565592,"true"
"image-keyboard-response",231,191450,"0.0-3.73-1.73","sgagufj563ubd5u",466,"142.csv","","null","resources/maskTrios/BT2B.jpg","null","",NA,NA,NA,NA,""
"image-keyboard-response",232,192653,"0.0-3.73-2.73","sgagufj563ubd5u",466,"142.csv","","null","resources/images/coin2.png","null","",NA,NA,NA,NA,""
"image-keyboard-response",233,192952,"0.0-3.74-0.74","sgagufj563ubd5u",466,"142.csv","","296.89999997615814","resources/trios/L2T2A3.jpg","39","restless",0.8,0.5,0.5,0.861107407631031,"false"
"image-keyboard-response",234,193358,"0.0-3.74-1.74","sgagufj563ubd5u",466,"142.csv","","null","resources/maskTrios/BBA3.jpg","null","",NA,NA,NA,NA,""
"image-keyboard-response",235,194562,"0.0-3.74-2.74","sgagufj563ubd5u",466,"142.csv","","null","resources/images/fishbone.png","null","",NA,NA,NA,NA,""
"image-keyboard-response",236,194843,"0.0-3.75-0.75","sgagufj563ubd5u",466,"142.csv","","278.5999999642372","resources/trios/L2T1A3.jpg","39","restless",0.8,0.5,0.5,0.675665695248915,"false"
"image-keyboard-response",237,195245,"0.0-3.75-1.75","sgagufj563ubd5u",466,"142.csv","","null","resources/maskTrios/BBA3.jpg","null","",NA,NA,NA,NA,""
"image-keyboard-response",238,196447,"0.0-3.75-2.75","sgagufj563ubd5u",466,"142.csv","","null","resources/images/fishbone.png","null","",NA,NA,NA,NA,""
"image-keyboard-response",239,196687,"0.0-3.76-0.76","sgagufj563ubd5u",466,"142.csv","","237.5","resources/trios/L2T2A2.jpg","37","restless",0.8,0.5,0.5,0.0470403532419281,"true"
"image-keyboard-response",240,197089,"0.0-3.76-1.76","sgagufj563ubd5u",466,"142.csv","","null","resources/maskTrios/L2BB.jpg","null","",NA,NA,NA,NA,""
"image-keyboard-response",241,198292,"0.0-3.76-2.76","sgagufj563ubd5u",466,"142.csv","","null","resources/images/coin2.png","null","",NA,NA,NA,NA,""
"image-keyboard-response",242,198551,"0.0-3.77-0.77","sgagufj563ubd5u",466,"142.csv","","258.0999999642372","resources/trios/L1T1A3.jpg","37","restless",0.8,0.5,0.5,0.277971151867958,"true"
"image-keyboard-response",243,198955,"0.0-3.77-1.77","sgagufj563ubd5u",466,"142.csv","","null","resources/maskTrios/L1BB.jpg","null","",NA,NA,NA,NA,""
"image-keyboard-response",244,200159,"0.0-3.77-2.77","sgagufj563ubd5u",466,"142.csv","","null","resources/images/coin2.png","null","",NA,NA,NA,NA,""
"image-keyboard-response",245,200604,"0.0-3.78-0.78","sgagufj563ubd5u",466,"142.csv","","443.89999997615814","resources/trios/L1T1A3.jpg","37","restless",0.8,0.5,0.5,0.870826702663452,"false"
"image-keyboard-response",246,201006,"0.0-3.78-1.78","sgagufj563ubd5u",466,"142.csv","","null","resources/maskTrios/L1BB.jpg","null","",NA,NA,NA,NA,""
"image-keyboard-response",247,202213,"0.0-3.78-2.78","sgagufj563ubd5u",466,"142.csv","","null","resources/images/fishbone.png","null","",NA,NA,NA,NA,""
"image-keyboard-response",248,202488,"0.0-3.79-0.79","sgagufj563ubd5u",466,"142.csv","","272.39999997615814","resources/trios/L2T1A3.jpg","38","restless",0.8,0.5,0.5,0.411360200415108,"true"
"image-keyboard-response",249,202891,"0.0-3.79-1.79","sgagufj563ubd5u",466,"142.csv","","null","resources/maskTrios/BT1B.jpg","null","",NA,NA,NA,NA,""
"image-keyboard-response",250,204096,"0.0-3.79-2.79","sgagufj563ubd5u",466,"142.csv","","null","resources/images/coin2.png","null","",NA,NA,NA,NA,""
"image-keyboard-response",251,204364,"0.0-3.80-0.80","sgagufj563ubd5u",466,"142.csv","","266.5","resources/trios/L1T2A2.jpg","38","restless",0.8,0.5,0.5,0.301112185230093,"true"
"image-keyboard-response",252,204771,"0.0-3.80-1.80","sgagufj563ubd5u",466,"142.csv","","null","resources/maskTrios/BT2B.jpg","null","",NA,NA,NA,NA,""
"image-keyboard-response",253,205978,"0.0-3.80-2.80","sgagufj563ubd5u",466,"142.csv","","null","resources/images/coin2.png","null","",NA,NA,NA,NA,""
"image-keyboard-response",254,206306,"0.0-3.81-0.81","sgagufj563ubd5u",466,"142.csv","","326.89999997615814","resources/trios/L2T1A3.jpg","38","restless",0.8,0.5,0.5,0.816848790556173,"false"
"image-keyboard-response",255,206709,"0.0-3.81-1.81","sgagufj563ubd5u",466,"142.csv","","null","resources/maskTrios/BT1B.jpg","null","",NA,NA,NA,NA,""
"image-keyboard-response",256,207913,"0.0-3.81-2.81","sgagufj563ubd5u",466,"142.csv","","null","resources/images/fishbone.png","null","",NA,NA,NA,NA,""
"image-keyboard-response",257,208091,"0.0-3.82-0.82","sgagufj563ubd5u",466,"142.csv","","176.19999998807907","resources/trios/L1T1A3.jpg","39","restless",0.8,0.5,0.6,0.858953991411596,"false"
"image-keyboard-response",258,208492,"0.0-3.82-1.82","sgagufj563ubd5u",466,"142.csv","","null","resources/maskTrios/BBA3.jpg","null","",NA,NA,NA,NA,""
"image-keyboard-response",259,209695,"0.0-3.82-2.82","sgagufj563ubd5u",466,"142.csv","","null","resources/images/fishbone.png","null","",NA,NA,NA,NA,""
"image-keyboard-response",260,209880,"0.0-3.83-0.83","sgagufj563ubd5u",466,"142.csv","","183.5","resources/trios/L2T1A2.jpg","39","restless",0.8,0.4,0.6,0.127628095068045,"true"
"image-keyboard-response",261,210284,"0.0-3.83-1.83","sgagufj563ubd5u",466,"142.csv","","null","resources/maskTrios/BBA2.jpg","null","",NA,NA,NA,NA,""
"image-keyboard-response",262,211492,"0.0-3.83-2.83","sgagufj563ubd5u",466,"142.csv","","null","resources/images/coin2.png","null","",NA,NA,NA,NA,""
"image-keyboard-response",263,211876,"0.0-3.84-0.84","sgagufj563ubd5u",466,"142.csv","","381.80000001192093","resources/trios/L2T2A2.jpg","39","restless",0.8,0.4,0.6,0.324128209178907,"true"
"image-keyboard-response",264,212280,"0.0-3.84-1.84","sgagufj563ubd5u",466,"142.csv","","null","resources/maskTrios/BBA2.jpg","null","",NA,NA,NA,NA,""
"image-keyboard-response",265,213483,"0.0-3.84-2.84","sgagufj563ubd5u",466,"142.csv","","null","resources/images/coin2.png","null","",NA,NA,NA,NA,""
"image-keyboard-response",266,213845,"0.0-3.85-0.85","sgagufj563ubd5u",466,"142.csv","","359.80000001192093","resources/trios/L1T2A2.jpg","39","restless",0.8,0.4,0.6,0.40027272797695,"true"
"image-keyboard-response",267,214252,"0.0-3.85-1.85","sgagufj563ubd5u",466,"142.csv","","null","resources/maskTrios/BBA2.jpg","null","",NA,NA,NA,NA,""
"image-keyboard-response",268,215455,"0.0-3.85-2.85","sgagufj563ubd5u",466,"142.csv","","null","resources/images/coin2.png","null","",NA,NA,NA,NA,""
"image-keyboard-response",269,215900,"0.0-3.86-0.86","sgagufj563ubd5u",466,"142.csv","","443.60000002384186","resources/trios/L1T2A3.jpg","38","restless",0.8,0.4,0.6,0.860288818790485,"false"
"image-keyboard-response",270,216305,"0.0-3.86-1.86","sgagufj563ubd5u",466,"142.csv","","null","resources/maskTrios/BT2B.jpg","null","",NA,NA,NA,NA,""
"image-keyboard-response",271,217508,"0.0-3.86-2.86","sgagufj563ubd5u",466,"142.csv","","null","resources/images/fishbone.png","null","",NA,NA,NA,NA,""
"image-keyboard-response",272,217770,"0.0-3.87-0.87","sgagufj563ubd5u",466,"142.csv","","260.2999999523163","resources/trios/L2T2A3.jpg","37","restless",0.8,0.4,0.6,0.193777856795297,"true"
"image-keyboard-response",273,218173,"0.0-3.87-1.87","sgagufj563ubd5u",466,"142.csv","","null","resources/maskTrios/L2BB.jpg","null","",NA,NA,NA,NA,""
"image-keyboard-response",274,219377,"0.0-3.87-2.87","sgagufj563ubd5u",466,"142.csv","","null","resources/images/coin2.png","null","",NA,NA,NA,NA,""
"image-keyboard-response",275,219653,"0.0-3.88-0.88","sgagufj563ubd5u",466,"142.csv","","274","resources/trios/L2T2A2.jpg","37","restless",0.8,0.5,0.6,0.358945353503572,"true"
"image-keyboard-response",276,220055,"0.0-3.88-1.88","sgagufj563ubd5u",466,"142.csv","","null","resources/maskTrios/L2BB.jpg","null","",NA,NA,NA,NA,""
"image-keyboard-response",277,221258,"0.0-3.88-2.88","sgagufj563ubd5u",466,"142.csv","","null","resources/images/coin2.png","null","",NA,NA,NA,NA,""
"image-keyboard-response",278,221493,"0.0-3.89-0.89","sgagufj563ubd5u",466,"142.csv","","232.69999998807907","resources/trios/L1T1A2.jpg","37","restless",0.8,0.5,0.6,0.0678950754017098,"true"
"image-keyboard-response",279,221898,"0.0-3.89-1.89","sgagufj563ubd5u",466,"142.csv","","null","resources/maskTrios/L1BB.jpg","null","",NA,NA,NA,NA,""
"image-keyboard-response",280,223100,"0.0-3.89-2.89","sgagufj563ubd5u",466,"142.csv","","null","resources/images/coin2.png","null","",NA,NA,NA,NA,""
"image-keyboard-response",281,223361,"0.0-3.90-0.90","sgagufj563ubd5u",466,"142.csv","","259.4000000357628","resources/trios/L1T2A2.jpg","37","restless",0.7,0.5,0.6,0.98798463613497,"false"
"image-keyboard-response",282,223764,"0.0-3.90-1.90","sgagufj563ubd5u",466,"142.csv","","null","resources/maskTrios/L1BB.jpg","null","",NA,NA,NA,NA,""
"image-keyboard-response",283,224966,"0.0-3.90-2.90","sgagufj563ubd5u",466,"142.csv","","null","resources/images/fishbone.png","null","",NA,NA,NA,NA,""
"image-keyboard-response",284,225205,"0.0-3.91-0.91","sgagufj563ubd5u",466,"142.csv","","236.9000000357628","resources/trios/L1T2A2.jpg","38","restless",0.6,0.6,0.6,0.87514903742088,"false"
"image-keyboard-response",285,225611,"0.0-3.91-1.91","sgagufj563ubd5u",466,"142.csv","","null","resources/maskTrios/BT2B.jpg","null","",NA,NA,NA,NA,""
"image-keyboard-response",286,226815,"0.0-3.91-2.91","sgagufj563ubd5u",466,"142.csv","","null","resources/images/fishbone.png","null","",NA,NA,NA,NA,""
"image-keyboard-response",287,227053,"0.0-3.92-0.92","sgagufj563ubd5u",466,"142.csv","","236.0999999642372","resources/trios/L1T2A2.jpg","38","restless",0.6,0.6,0.6,0.487547244133663,"true"
"image-keyboard-response",288,227455,"0.0-3.92-1.92","sgagufj563ubd5u",466,"142.csv","","null","resources/maskTrios/BT2B.jpg","null","",NA,NA,NA,NA,""
"image-keyboard-response",289,228657,"0.0-3.92-2.92","sgagufj563ubd5u",466,"142.csv","","null","resources/images/coin2.png","null","",NA,NA,NA,NA,""
"image-keyboard-response",290,228919,"0.0-3.93-0.93","sgagufj563ubd5u",466,"142.csv","","260.69999998807907","resources/trios/L1T2A3.jpg","39","restless",0.6,0.5,0.6,0.376613500352356,"true"
"image-keyboard-response",291,229323,"0.0-3.93-1.93","sgagufj563ubd5u",466,"142.csv","","null","resources/maskTrios/BBA3.jpg","null","",NA,NA,NA,NA,""
"image-keyboard-response",292,230527,"0.0-3.93-2.93","sgagufj563ubd5u",466,"142.csv","","null","resources/images/coin2.png","null","",NA,NA,NA,NA,""
"image-keyboard-response",293,230795,"0.0-3.94-0.94","sgagufj563ubd5u",466,"142.csv","","266.19999998807907","resources/trios/L1T2A2.jpg","39","restless",0.6,0.4,0.7,0.97171040102924,"false"
"image-keyboard-response",294,231196,"0.0-3.94-1.94","sgagufj563ubd5u",466,"142.csv","","null","resources/maskTrios/BBA2.jpg","null","",NA,NA,NA,NA,""
"image-keyboard-response",295,232401,"0.0-3.94-2.94","sgagufj563ubd5u",466,"142.csv","","null","resources/images/fishbone.png","null","",NA,NA,NA,NA,""
"image-keyboard-response",296,232952,"0.0-3.95-0.95","sgagufj563ubd5u",466,"142.csv","","549.5999999642372","resources/trios/L1T1A2.jpg","38","restless",0.6,0.4,0.7,0.97097258433575,"false"
"image-keyboard-response",297,233354,"0.0-3.95-1.95","sgagufj563ubd5u",466,"142.csv","","null","resources/maskTrios/BT1B.jpg","null","",NA,NA,NA,NA,""
"image-keyboard-response",298,234560,"0.0-3.95-2.95","sgagufj563ubd5u",466,"142.csv","","null","resources/images/fishbone.png","null","",NA,NA,NA,NA,""
"image-keyboard-response",299,234889,"0.0-3.96-0.96","sgagufj563ubd5u",466,"142.csv","","326.5","resources/trios/L1T1A3.jpg","38","restless",0.6,0.4,0.7,0.770902562225135,"false"
"image-keyboard-response",300,235293,"0.0-3.96-1.96","sgagufj563ubd5u",466,"142.csv","","null","resources/maskTrios/BT1B.jpg","null","",NA,NA,NA,NA,""
"image-keyboard-response",301,236497,"0.0-3.96-2.96","sgagufj563ubd5u",466,"142.csv","","null","resources/images/fishbone.png","null","",NA,NA,NA,NA,""
"image-keyboard-response",302,236759,"0.0-3.97-0.97","sgagufj563ubd5u",466,"142.csv","","259.89999997615814","resources/trios/L1T1A2.jpg","39","restless",0.5,0.4,0.7,0.394811607136724,"true"
"image-keyboard-response",303,237166,"0.0-3.97-1.97","sgagufj563ubd5u",466,"142.csv","","null","resources/maskTrios/BBA2.jpg","null","",NA,NA,NA,NA,""
"image-keyboard-response",304,238369,"0.0-3.97-2.97","sgagufj563ubd5u",466,"142.csv","","null","resources/images/coin2.png","null","",NA,NA,NA,NA,""
"image-keyboard-response",305,238626,"0.0-3.98-0.98","sgagufj563ubd5u",466,"142.csv","","254.89999997615814","resources/trios/L2T2A2.jpg","39","restless",0.5,0.4,0.7,0.835633161300244,"false"
"image-keyboard-response",306,239028,"0.0-3.98-1.98","sgagufj563ubd5u",466,"142.csv","","null","resources/maskTrios/BBA2.jpg","null","",NA,NA,NA,NA,""
"image-keyboard-response",307,240234,"0.0-3.98-2.98","sgagufj563ubd5u",466,"142.csv","","null","resources/images/fishbone.png","null","",NA,NA,NA,NA,""
"image-keyboard-response",308,240564,"0.0-3.99-0.99","sgagufj563ubd5u",466,"142.csv","","327.89999997615814","resources/trios/L2T2A2.jpg","39","restless",0.5,0.4,0.7,0.607730497256321,"true"
"image-keyboard-response",309,240966,"0.0-3.99-1.99","sgagufj563ubd5u",466,"142.csv","","null","resources/maskTrios/BBA2.jpg","null","",NA,NA,NA,NA,""
"image-keyboard-response",310,242169,"0.0-3.99-2.99","sgagufj563ubd5u",466,"142.csv","","null","resources/images/coin2.png","null","",NA,NA,NA,NA,""
"image-keyboard-response",311,242391,"0.0-3.100-0.100","sgagufj563ubd5u",466,"142.csv","","220.20000004768372","resources/trios/L1T2A2.jpg","39","restless",0.5,0.4,0.7,0.384313804063336,"true"
"image-keyboard-response",312,242795,"0.0-3.100-1.100","sgagufj563ubd5u",466,"142.csv","","null","resources/maskTrios/BBA2.jpg","null","",NA,NA,NA,NA,""
"image-keyboard-response",313,243998,"0.0-3.100-2.100","sgagufj563ubd5u",466,"142.csv","","null","resources/images/coin2.png","null","",NA,NA,NA,NA,""
"image-keyboard-response",314,244421,"0.0-3.101-0.101","sgagufj563ubd5u",466,"142.csv","","420.5","resources/trios/L1T2A2.jpg","38","restless",0.4,0.4,0.7,0.24816636761189,"true"
"image-keyboard-response",315,244824,"0.0-3.101-1.101","sgagufj563ubd5u",466,"142.csv","","null","resources/maskTrios/BT2B.jpg","null","",NA,NA,NA,NA,""
"image-keyboard-response",316,246026,"0.0-3.101-2.101","sgagufj563ubd5u",466,"142.csv","","null","resources/images/coin2.png","null","",NA,NA,NA,NA,""
"image-keyboard-response",317,246294,"0.0-3.102-0.102","sgagufj563ubd5u",466,"142.csv","","266.80000001192093","resources/trios/L1T2A3.jpg","38","restless",0.4,0.4,0.7,0.975455864469443,"false"
"image-keyboard-response",318,246697,"0.0-3.102-1.102","sgagufj563ubd5u",466,"142.csv","","null","resources/maskTrios/BT2B.jpg","null","",NA,NA,NA,NA,""
"image-keyboard-response",319,247901,"0.0-3.102-2.102","sgagufj563ubd5u",466,"142.csv","","null","resources/images/fishbone.png","null","",NA,NA,NA,NA,""
"image-keyboard-response",320,248136,"0.0-3.103-0.103","sgagufj563ubd5u",466,"142.csv","","233.5999999642372","resources/trios/L1T2A3.jpg","37","restless",0.4,0.4,0.7,0.296113216962647,"true"
"image-keyboard-response",321,248538,"0.0-3.103-1.103","sgagufj563ubd5u",466,"142.csv","","null","resources/maskTrios/L1BB.jpg","null","",NA,NA,NA,NA,""
"image-keyboard-response",322,249745,"0.0-3.103-2.103","sgagufj563ubd5u",466,"142.csv","","null","resources/images/coin2.png","null","",NA,NA,NA,NA,""
"image-keyboard-response",323,249984,"0.0-3.104-0.104","sgagufj563ubd5u",466,"142.csv","","236.5","resources/trios/L2T2A3.jpg","37","restless",0.4,0.4,0.7,0.906549719825486,"false"
"image-keyboard-response",324,250388,"0.0-3.104-1.104","sgagufj563ubd5u",466,"142.csv","","null","resources/maskTrios/L2BB.jpg","null","",NA,NA,NA,NA,""
"image-keyboard-response",325,251590,"0.0-3.104-2.104","sgagufj563ubd5u",466,"142.csv","","null","resources/images/fishbone.png","null","",NA,NA,NA,NA,""
"image-keyboard-response",326,251713,"0.0-3.105-0.105","sgagufj563ubd5u",466,"142.csv","","120.90000003576279","resources/trios/L1T1A2.jpg","37","restless",0.4,0.4,0.8,0.577234397147449,"false"
"image-keyboard-response",327,252116,"0.0-3.105-1.105","sgagufj563ubd5u",466,"142.csv","","null","resources/maskTrios/L1BB.jpg","null","",NA,NA,NA,NA,""
"image-keyboard-response",328,253318,"0.0-3.105-2.105","sgagufj563ubd5u",466,"142.csv","","null","resources/images/fishbone.png","null","",NA,NA,NA,NA,""
"image-keyboard-response",329,253459,"0.0-3.106-0.106","sgagufj563ubd5u",466,"142.csv","","139.5","resources/trios/L1T1A3.jpg","37","restless",0.4,0.4,0.8,0.693918635989069,"false"
"image-keyboard-response",330,253864,"0.0-3.106-1.106","sgagufj563ubd5u",466,"142.csv","","null","resources/maskTrios/L1BB.jpg","null","",NA,NA,NA,NA,""
"image-keyboard-response",331,255071,"0.0-3.106-2.106","sgagufj563ubd5u",466,"142.csv","","null","resources/images/fishbone.png","null","",NA,NA,NA,NA,""
"image-keyboard-response",332,255331,"0.0-3.107-0.107","sgagufj563ubd5u",466,"142.csv","","258.60000002384186","resources/trios/L2T2A2.jpg","37","restless",0.4,0.4,0.8,0.619340721710217,"false"
"image-keyboard-response",333,255734,"0.0-3.107-1.107","sgagufj563ubd5u",466,"142.csv","","null","resources/maskTrios/L2BB.jpg","null","",NA,NA,NA,NA,""
"image-keyboard-response",334,256942,"0.0-3.107-2.107","sgagufj563ubd5u",466,"142.csv","","null","resources/images/fishbone.png","null","",NA,NA,NA,NA,""
"image-keyboard-response",335,257226,"0.0-3.108-0.108","sgagufj563ubd5u",466,"142.csv","","282.5","resources/trios/L1T2A2.jpg","37","restless",0.4,0.5,0.8,0.450835927287783,"false"
"image-keyboard-response",336,257631,"0.0-3.108-1.108","sgagufj563ubd5u",466,"142.csv","","null","resources/maskTrios/L1BB.jpg","null","",NA,NA,NA,NA,""
"image-keyboard-response",337,258835,"0.0-3.108-2.108","sgagufj563ubd5u",466,"142.csv","","null","resources/images/fishbone.png","null","",NA,NA,NA,NA,""
"image-keyboard-response",338,259063,"0.0-3.109-0.109","sgagufj563ubd5u",466,"142.csv","","226.80000001192093","resources/trios/L1T1A2.jpg","37","restless",0.4,0.5,0.8,0.113855849485418,"true"
"image-keyboard-response",339,259467,"0.0-3.109-1.109","sgagufj563ubd5u",466,"142.csv","","null","resources/maskTrios/L1BB.jpg","null","",NA,NA,NA,NA,""
"image-keyboard-response",340,260676,"0.0-3.109-2.109","sgagufj563ubd5u",466,"142.csv","","null","resources/images/coin2.png","null","",NA,NA,NA,NA,""
"image-keyboard-response",341,260971,"0.0-3.110-0.110","sgagufj563ubd5u",466,"142.csv","","292.5","resources/trios/L1T1A3.jpg","38","restless",0.4,0.5,0.8,0.355503212686741,"true"
"image-keyboard-response",342,261373,"0.0-3.110-1.110","sgagufj563ubd5u",466,"142.csv","","null","resources/maskTrios/BT1B.jpg","null","",NA,NA,NA,NA,""
"image-keyboard-response",343,262576,"0.0-3.110-2.110","sgagufj563ubd5u",466,"142.csv","","null","resources/images/coin2.png","null","",NA,NA,NA,NA,""
"image-keyboard-response",344,262850,"0.0-3.111-0.111","sgagufj563ubd5u",466,"142.csv","","271.60000002384186","resources/trios/L1T1A3.jpg","39","restless",0.4,0.5,0.9,0.66846033360012,"true"
"image-keyboard-response",345,263255,"0.0-3.111-1.111","sgagufj563ubd5u",466,"142.csv","","null","resources/maskTrios/BBA3.jpg","null","",NA,NA,NA,NA,""
"image-keyboard-response",346,264461,"0.0-3.111-2.111","sgagufj563ubd5u",466,"142.csv","","null","resources/images/coin2.png","null","",NA,NA,NA,NA,""
"image-keyboard-response",347,264760,"0.0-3.112-0.112","sgagufj563ubd5u",466,"142.csv","","297.80000001192093","resources/trios/L1T1A2.jpg","37","restless",0.4,0.6,0.9,0.0644875571369186,"true"
"image-keyboard-response",348,265167,"0.0-3.112-1.112","sgagufj563ubd5u",466,"142.csv","","null","resources/maskTrios/L1BB.jpg","null","",NA,NA,NA,NA,""
"image-keyboard-response",349,266373,"0.0-3.112-2.112","sgagufj563ubd5u",466,"142.csv","","null","resources/images/coin2.png","null","",NA,NA,NA,NA,""
"image-keyboard-response",350,266638,"0.0-3.113-0.113","sgagufj563ubd5u",466,"142.csv","","262.69999998807907","resources/trios/L1T2A3.jpg","38","restless",0.4,0.6,0.9,0.172692444064586,"true"
"image-keyboard-response",351,267040,"0.0-3.113-1.113","sgagufj563ubd5u",466,"142.csv","","null","resources/maskTrios/BT2B.jpg","null","",NA,NA,NA,NA,""
"image-keyboard-response",352,268250,"0.0-3.113-2.113","sgagufj563ubd5u",466,"142.csv","","null","resources/images/coin2.png","null","",NA,NA,NA,NA,""
"image-keyboard-response",353,268514,"0.0-3.114-0.114","sgagufj563ubd5u",466,"142.csv","","262.2999999523163","resources/trios/L2T2A3.jpg","39","restless",0.3,0.5,0.9,0.896474991742322,"true"
"image-keyboard-response",354,268920,"0.0-3.114-1.114","sgagufj563ubd5u",466,"142.csv","","null","resources/maskTrios/BBA3.jpg","null","",NA,NA,NA,NA,""
"image-keyboard-response",355,270124,"0.0-3.114-2.114","sgagufj563ubd5u",466,"142.csv","","null","resources/images/coin2.png","null","",NA,NA,NA,NA,""
"image-keyboard-response",356,270391,"0.0-3.115-0.115","sgagufj563ubd5u",466,"142.csv","","265.39999997615814","resources/trios/L1T1A3.jpg","38","restless",0.3,0.5,0.9,0.776900587371804,"false"
"image-keyboard-response",357,270795,"0.0-3.115-1.115","sgagufj563ubd5u",466,"142.csv","","null","resources/maskTrios/BT1B.jpg","null","",NA,NA,NA,NA,""
"image-keyboard-response",358,271997,"0.0-3.115-2.115","sgagufj563ubd5u",466,"142.csv","","null","resources/images/fishbone.png","null","",NA,NA,NA,NA,""
"image-keyboard-response",359,272219,"0.0-3.116-0.116","sgagufj563ubd5u",466,"142.csv","","219.5","resources/trios/L1T2A2.jpg","38","restless",0.3,0.5,0.9,0.652235167182285,"false"
"image-keyboard-response",360,272620,"0.0-3.116-1.116","sgagufj563ubd5u",466,"142.csv","","null","resources/maskTrios/BT2B.jpg","null","",NA,NA,NA,NA,""
"image-keyboard-response",361,273822,"0.0-3.116-2.116","sgagufj563ubd5u",466,"142.csv","","null","resources/images/fishbone.png","null","",NA,NA,NA,NA,""
"image-keyboard-response",362,274104,"0.0-3.117-0.117","sgagufj563ubd5u",466,"142.csv","","279.7999999523163","resources/trios/L1T2A3.jpg","38","restless",0.3,0.5,0.9,0.776388942505957,"false"
"image-keyboard-response",363,274506,"0.0-3.117-1.117","sgagufj563ubd5u",466,"142.csv","","null","resources/maskTrios/BT2B.jpg","null","",NA,NA,NA,NA,""
"image-keyboard-response",364,275711,"0.0-3.117-2.117","sgagufj563ubd5u",466,"142.csv","","null","resources/images/fishbone.png","null","",NA,NA,NA,NA,""
"image-keyboard-response",365,276053,"0.0-3.118-0.118","sgagufj563ubd5u",466,"142.csv","","340.89999997615814","resources/trios/L1T2A3.jpg","38","restless",0.3,0.6,0.9,0.520293270314285,"true"
"image-keyboard-response",366,276459,"0.0-3.118-1.118","sgagufj563ubd5u",466,"142.csv","","null","resources/maskTrios/BT2B.jpg","null","",NA,NA,NA,NA,""
"image-keyboard-response",367,277662,"0.0-3.118-2.118","sgagufj563ubd5u",466,"142.csv","","null","resources/images/coin2.png","null","",NA,NA,NA,NA,""
"image-keyboard-response",368,277929,"0.0-3.119-0.119","sgagufj563ubd5u",466,"142.csv","","265.10000002384186","resources/trios/L1T1A3.jpg","37","restless",0.3,0.6,0.8,0.403602439297591,"false"
"image-keyboard-response",369,278333,"0.0-3.119-1.119","sgagufj563ubd5u",466,"142.csv","","null","resources/maskTrios/L1BB.jpg","null","",NA,NA,NA,NA,""
"image-keyboard-response",370,279537,"0.0-3.119-2.119","sgagufj563ubd5u",466,"142.csv","","null","resources/images/fishbone.png","null","",NA,NA,NA,NA,""
"image-keyboard-response",371,279836,"0.0-3.120-0.120","sgagufj563ubd5u",466,"142.csv","","296.10000002384186","resources/trios/L1T2A2.jpg","37","restless",0.3,0.6,0.8,0.42471136191076,"false"
"image-keyboard-response",372,280239,"0.0-3.120-1.120","sgagufj563ubd5u",466,"142.csv","","null","resources/maskTrios/L1BB.jpg","null","",NA,NA,NA,NA,""
"image-keyboard-response",373,281441,"0.0-3.120-2.120","sgagufj563ubd5u",466,"142.csv","","null","resources/images/fishbone.png","null","",NA,NA,NA,NA,""
"image-keyboard-response",374,281651,"0.0-3.121-0.121","sgagufj563ubd5u",466,"142.csv","","207.20000004768372","resources/trios/L2T1A3.jpg","37","restless",0.3,0.6,0.9,0.816759640032648,"false"
"image-keyboard-response",375,282053,"0.0-3.121-1.121","sgagufj563ubd5u",466,"142.csv","","null","resources/maskTrios/L2BB.jpg","null","",NA,NA,NA,NA,""
"image-keyboard-response",376,283257,"0.0-3.121-2.121","sgagufj563ubd5u",466,"142.csv","","null","resources/images/fishbone.png","null","",NA,NA,NA,NA,""
"image-keyboard-response",377,283499,"0.0-3.122-0.122","sgagufj563ubd5u",466,"142.csv","","239.60000002384186","resources/trios/L1T2A3.jpg","37","restless",0.3,0.6,0.9,0.108005147298167,"true"
"image-keyboard-response",378,283905,"0.0-3.122-1.122","sgagufj563ubd5u",466,"142.csv","","null","resources/maskTrios/L1BB.jpg","null","",NA,NA,NA,NA,""
"image-keyboard-response",379,285110,"0.0-3.122-2.122","sgagufj563ubd5u",466,"142.csv","","null","resources/images/coin2.png","null","",NA,NA,NA,NA,""
"image-keyboard-response",380,285448,"0.0-3.123-0.123","sgagufj563ubd5u",466,"142.csv","","335.19999998807907","resources/trios/L1T2A2.jpg","37","restless",0.3,0.6,0.9,0.106554647817233,"true"
"image-keyboard-response",381,285849,"0.0-3.123-1.123","sgagufj563ubd5u",466,"142.csv","","null","resources/maskTrios/L1BB.jpg","null","",NA,NA,NA,NA,""
"image-keyboard-response",382,287052,"0.0-3.123-2.123","sgagufj563ubd5u",466,"142.csv","","null","resources/images/coin2.png","null","",NA,NA,NA,NA,""
"image-keyboard-response",383,287323,"0.0-3.124-0.124","sgagufj563ubd5u",466,"142.csv","","268.19999998807907","resources/trios/L2T1A2.jpg","39","restless",0.3,0.6,0.8,0.441022579537562,"true"
"image-keyboard-response",384,287727,"0.0-3.124-1.124","sgagufj563ubd5u",466,"142.csv","","null","resources/maskTrios/BBA2.jpg","null","",NA,NA,NA,NA,""
"image-keyboard-response",385,288932,"0.0-3.124-2.124","sgagufj563ubd5u",466,"142.csv","","null","resources/images/coin2.png","null","",NA,NA,NA,NA,""
"image-keyboard-response",386,289213,"0.0-3.125-0.125","sgagufj563ubd5u",466,"142.csv","","278.69999998807907","resources/trios/L1T1A2.jpg","38","restless",0.3,0.6,0.7,0.74276670794374,"false"
"image-keyboard-response",387,289616,"0.0-3.125-1.125","sgagufj563ubd5u",466,"142.csv","","null","resources/maskTrios/BT1B.jpg","null","",NA,NA,NA,NA,""
"image-keyboard-response",388,290820,"0.0-3.125-2.125","sgagufj563ubd5u",466,"142.csv","","null","resources/images/fishbone.png","null","",NA,NA,NA,NA,""
"image-keyboard-response",389,290999,"0.0-3.126-0.126","sgagufj563ubd5u",466,"142.csv","","177.19999998807907","resources/trios/L1T1A3.jpg","38","restless",0.3,0.6,0.7,0.256825769125584,"true"
"image-keyboard-response",390,291401,"0.0-3.126-1.126","sgagufj563ubd5u",466,"142.csv","","null","resources/maskTrios/BT1B.jpg","null","",NA,NA,NA,NA,""
"image-keyboard-response",391,292604,"0.0-3.126-2.126","sgagufj563ubd5u",466,"142.csv","","null","resources/images/coin2.png","null","",NA,NA,NA,NA,""
"image-keyboard-response",392,292917,"0.0-3.127-0.127","sgagufj563ubd5u",466,"142.csv","","310.80000001192093","resources/trios/L1T2A2.jpg","39","restless",0.3,0.6,0.7,0.221502222913564,"true"
"image-keyboard-response",393,293321,"0.0-3.127-1.127","sgagufj563ubd5u",466,"142.csv","","null","resources/maskTrios/BBA2.jpg","null","",NA,NA,NA,NA,""
"image-keyboard-response",394,294523,"0.0-3.127-2.127","sgagufj563ubd5u",466,"142.csv","","null","resources/images/coin2.png","null","",NA,NA,NA,NA,""
"image-keyboard-response",395,294888,"0.0-3.128-0.128","sgagufj563ubd5u",466,"142.csv","","363","resources/trios/L1T1A3.jpg","38","restless",0.3,0.7,0.7,0.990814044031887,"false"
"image-keyboard-response",396,295294,"0.0-3.128-1.128","sgagufj563ubd5u",466,"142.csv","","null","resources/maskTrios/BT1B.jpg","null","",NA,NA,NA,NA,""
"image-keyboard-response",397,296498,"0.0-3.128-2.128","sgagufj563ubd5u",466,"142.csv","","null","resources/images/fishbone.png","null","",NA,NA,NA,NA,""
"image-keyboard-response",398,296714,"0.0-3.129-0.129","sgagufj563ubd5u",466,"142.csv","","214.10000002384186","resources/trios/L2T1A2.jpg","37","restless",0.3,0.7,0.7,0.141797569176399,"true"
"image-keyboard-response",399,297116,"0.0-3.129-1.129","sgagufj563ubd5u",466,"142.csv","","null","resources/maskTrios/L2BB.jpg","null","",NA,NA,NA,NA,""
"image-keyboard-response",400,298320,"0.0-3.129-2.129","sgagufj563ubd5u",466,"142.csv","","null","resources/images/coin2.png","null","",NA,NA,NA,NA,""
"image-keyboard-response",401,298575,"0.0-3.130-0.130","sgagufj563ubd5u",466,"142.csv","","252.5999999642372","resources/trios/L1T2A2.jpg","37","restless",0.3,0.7,0.7,0.0582190783377394,"true"
"image-keyboard-response",402,298977,"0.0-3.130-1.130","sgagufj563ubd5u",466,"142.csv","","null","resources/maskTrios/L1BB.jpg","null","",NA,NA,NA,NA,""
"image-keyboard-response",403,300180,"0.0-3.130-2.130","sgagufj563ubd5u",466,"142.csv","","null","resources/images/coin2.png","null","",NA,NA,NA,NA,""
"image-keyboard-response",404,300419,"0.0-3.131-0.131","sgagufj563ubd5u",466,"142.csv","","237.5999999642372","resources/trios/L2T2A2.jpg","38","restless",0.3,0.7,0.8,0.174759210822484,"true"
"image-keyboard-response",405,300821,"0.0-3.131-1.131","sgagufj563ubd5u",466,"142.csv","","null","resources/maskTrios/BT2B.jpg","null","",NA,NA,NA,NA,""
"image-keyboard-response",406,302024,"0.0-3.131-2.131","sgagufj563ubd5u",466,"142.csv","","null","resources/images/coin2.png","null","",NA,NA,NA,NA,""
"image-keyboard-response",407,302356,"0.0-3.132-0.132","sgagufj563ubd5u",466,"142.csv","","330","resources/trios/L2T1A2.jpg","39","restless",0.3,0.7,0.7,0.119660707749997,"true"
"image-keyboard-response",408,302761,"0.0-3.132-1.132","sgagufj563ubd5u",466,"142.csv","","null","resources/maskTrios/BBA2.jpg","null","",NA,NA,NA,NA,""
"image-keyboard-response",409,303964,"0.0-3.132-2.132","sgagufj563ubd5u",466,"142.csv","","null","resources/images/coin2.png","null","",NA,NA,NA,NA,""
"image-keyboard-response",410,304149,"0.0-3.133-0.133","sgagufj563ubd5u",466,"142.csv","","183.9000000357628","resources/trios/L1T1A3.jpg","38","restless",0.3,0.7,0.7,0.358880643448015,"true"
"image-keyboard-response",411,304556,"0.0-3.133-1.133","sgagufj563ubd5u",466,"142.csv","","null","resources/maskTrios/BT1B.jpg","null","",NA,NA,NA,NA,""
"image-keyboard-response",412,305761,"0.0-3.133-2.133","sgagufj563ubd5u",466,"142.csv","","null","resources/images/coin2.png","null","",NA,NA,NA,NA,""
"image-keyboard-response",413,307442,"0.0-3.134-0.134","sgagufj563ubd5u",466,"142.csv","","1679.5","resources/trios/L2T2A2.jpg","38","restless",0.3,0.7,0.7,0.585122278453212,"true"
"image-keyboard-response",414,307845,"0.0-3.134-1.134","sgagufj563ubd5u",466,"142.csv","","null","resources/maskTrios/BT2B.jpg","null","",NA,NA,NA,NA,""
"image-keyboard-response",415,309049,"0.0-3.134-2.134","sgagufj563ubd5u",466,"142.csv","","null","resources/images/coin2.png","null","",NA,NA,NA,NA,""
"image-keyboard-response",416,756183,"0.0-3.135-0.135","sgagufj563ubd5u",466,"142.csv","","447104.1999999881","resources/trios/L2T2A2.jpg","39","restless",0.3,0.7,0.8,0.662375045470663,"true"
"image-keyboard-response",417,756586,"0.0-3.135-1.135","sgagufj563ubd5u",466,"142.csv","","null","resources/maskTrios/BBA2.jpg","null","",NA,NA,NA,NA,""
"image-keyboard-response",418,757788,"0.0-3.135-2.135","sgagufj563ubd5u",466,"142.csv","","null","resources/images/coin2.png","null","",NA,NA,NA,NA,""
"image-keyboard-response",419,758154,"0.0-3.136-0.136","sgagufj563ubd5u",466,"142.csv","","365.0999999642372","resources/trios/L2T2A3.jpg","39","restless",0.3,0.7,0.8,0.0327999829872847,"true"
"image-keyboard-response",420,758555,"0.0-3.136-1.136","sgagufj563ubd5u",466,"142.csv","","null","resources/maskTrios/BBA3.jpg","null","",NA,NA,NA,NA,""
"image-keyboard-response",421,759760,"0.0-3.136-2.136","sgagufj563ubd5u",466,"142.csv","","null","resources/images/coin2.png","null","",NA,NA,NA,NA,""
"image-keyboard-response",422,760084,"0.0-3.137-0.137","sgagufj563ubd5u",466,"142.csv","","323","resources/trios/L1T1A2.jpg","38","restless",0.3,0.7,0.7,0.611593005041647,"true"
"image-keyboard-response",423,760486,"0.0-3.137-1.137","sgagufj563ubd5u",466,"142.csv","","null","resources/maskTrios/BT1B.jpg","null","",NA,NA,NA,NA,""
"image-keyboard-response",424,761689,"0.0-3.137-2.137","sgagufj563ubd5u",466,"142.csv","","null","resources/images/coin2.png","null","",NA,NA,NA,NA,""
"image-keyboard-response",425,761997,"0.0-3.138-0.138","sgagufj563ubd5u",466,"142.csv","","306.30000001192093","resources/trios/L1T1A2.jpg","38","restless",0.3,0.7,0.7,0.209304663233207,"true"
"image-keyboard-response",426,762399,"0.0-3.138-1.138","sgagufj563ubd5u",466,"142.csv","","null","resources/maskTrios/BT1B.jpg","null","",NA,NA,NA,NA,""
"image-keyboard-response",427,763603,"0.0-3.138-2.138","sgagufj563ubd5u",466,"142.csv","","null","resources/images/coin2.png","null","",NA,NA,NA,NA,""
"image-keyboard-response",428,763849,"0.0-3.139-0.139","sgagufj563ubd5u",466,"142.csv","","243","resources/trios/L2T2A2.jpg","39","restless",0.3,0.7,0.7,0.491413579667751,"true"
"image-keyboard-response",429,764253,"0.0-3.139-1.139","sgagufj563ubd5u",466,"142.csv","","null","resources/maskTrios/BBA2.jpg","null","",NA,NA,NA,NA,""
"image-keyboard-response",430,765456,"0.0-3.139-2.139","sgagufj563ubd5u",466,"142.csv","","null","resources/images/coin2.png","null","",NA,NA,NA,NA,""
"image-keyboard-response",431,765696,"0.0-3.140-0.140","sgagufj563ubd5u",466,"142.csv","","237.80000001192093","resources/trios/L2T2A2.jpg","38","restless",0.3,0.8,0.6,0.475745158095232,"true"
"image-keyboard-response",432,766102,"0.0-3.140-1.140","sgagufj563ubd5u",466,"142.csv","","null","resources/maskTrios/BT2B.jpg","null","",NA,NA,NA,NA,""
"image-keyboard-response",433,767305,"0.0-3.140-2.140","sgagufj563ubd5u",466,"142.csv","","null","resources/images/coin2.png","null","",NA,NA,NA,NA,""
"image-keyboard-response",434,767666,"0.0-3.141-0.141","sgagufj563ubd5u",466,"142.csv","","359.0999999642372","resources/trios/L1T1A3.jpg","37","restless",0.3,0.7,0.6,0.963567595433956,"false"
"image-keyboard-response",435,768068,"0.0-3.141-1.141","sgagufj563ubd5u",466,"142.csv","","null","resources/maskTrios/L1BB.jpg","null","",NA,NA,NA,NA,""
"image-keyboard-response",436,769270,"0.0-3.141-2.141","sgagufj563ubd5u",466,"142.csv","","null","resources/images/fishbone.png","null","",NA,NA,NA,NA,""
"image-keyboard-response",437,769526,"0.0-3.142-0.142","sgagufj563ubd5u",466,"142.csv","","253.89999997615814","resources/trios/L1T1A2.jpg","37","restless",0.4,0.7,0.6,0.687874104529923,"false"
"image-keyboard-response",438,769932,"0.0-3.142-1.142","sgagufj563ubd5u",466,"142.csv","","null","resources/maskTrios/L1BB.jpg","null","",NA,NA,NA,NA,""
"image-keyboard-response",439,771135,"0.0-3.142-2.142","sgagufj563ubd5u",466,"142.csv","","null","resources/images/fishbone.png","null","",NA,NA,NA,NA,""
"image-keyboard-response",440,771542,"0.0-3.143-0.143","sgagufj563ubd5u",466,"142.csv","","404.80000001192093","resources/trios/L1T1A3.jpg","39","restless",0.4,0.8,0.6,0.319061724172323,"true"
"image-keyboard-response",441,771946,"0.0-3.143-1.143","sgagufj563ubd5u",466,"142.csv","","null","resources/maskTrios/BBA3.jpg","null","",NA,NA,NA,NA,""
"image-keyboard-response",442,773150,"0.0-3.143-2.143","sgagufj563ubd5u",466,"142.csv","","null","resources/images/coin2.png","null","",NA,NA,NA,NA,""
"image-keyboard-response",443,773535,"0.0-3.144-0.144","sgagufj563ubd5u",466,"142.csv","","383.60000002384186","resources/trios/L2T1A2.jpg","39","restless",0.4,0.8,0.6,0.883342185497713,"false"
"image-keyboard-response",444,773938,"0.0-3.144-1.144","sgagufj563ubd5u",466,"142.csv","","null","resources/maskTrios/BBA2.jpg","null","",NA,NA,NA,NA,""
"image-keyboard-response",445,775141,"0.0-3.144-2.144","sgagufj563ubd5u",466,"142.csv","","null","resources/images/fishbone.png","null","",NA,NA,NA,NA,""
"image-keyboard-response",446,804335,"0.0-3.145-0.145","sgagufj563ubd5u",466,"142.csv","","29192.599999964237","resources/trios/L2T1A2.jpg","39","restless",0.4,0.8,0.6,0.0569384192752418,"true"
"image-keyboard-response",447,804738,"0.0-3.145-1.145","sgagufj563ubd5u",466,"142.csv","","null","resources/maskTrios/BBA2.jpg","null","",NA,NA,NA,NA,""
"image-keyboard-response",448,805945,"0.0-3.145-2.145","sgagufj563ubd5u",466,"142.csv","","null","resources/images/coin2.png","null","",NA,NA,NA,NA,""
"image-keyboard-response",449,806896,"0.0-3.146-0.146","sgagufj563ubd5u",466,"142.csv","","948.7999999523163","resources/trios/L2T2A3.jpg","39","restless",0.4,0.8,0.6,0.97128932727402,"false"
"image-keyboard-response",450,807298,"0.0-3.146-1.146","sgagufj563ubd5u",466,"142.csv","","null","resources/maskTrios/BBA3.jpg","null","",NA,NA,NA,NA,""
"image-keyboard-response",451,808503,"0.0-3.146-2.146","sgagufj563ubd5u",466,"142.csv","","null","resources/images/fishbone.png","null","",NA,NA,NA,NA,""
"image-keyboard-response",452,868137,"0.0-3.147-0.147","sgagufj563ubd5u",466,"142.csv","","59634.80000001192","resources/trios/L1T1A2.jpg","39","restless",0.4,0.8,0.6,0.620144850507439,"false"
"image-keyboard-response",453,868543,"0.0-3.147-1.147","sgagufj563ubd5u",466,"142.csv","","null","resources/maskTrios/BBA2.jpg","null","",NA,NA,NA,NA,""
"image-keyboard-response",454,869748,"0.0-3.147-2.147","sgagufj563ubd5u",466,"142.csv","","null","resources/images/fishbone.png","null","",NA,NA,NA,NA,""
"image-keyboard-response",455,870013,"0.0-3.148-0.148","sgagufj563ubd5u",466,"142.csv","","262.80000001192093","resources/trios/L1T2A3.jpg","39","restless",0.4,0.8,0.6,0.0466796742456896,"true"
"image-keyboard-response",456,870419,"0.0-3.148-1.148","sgagufj563ubd5u",466,"142.csv","","null","resources/maskTrios/BBA3.jpg","null","",NA,NA,NA,NA,""
"image-keyboard-response",457,871621,"0.0-3.148-2.148","sgagufj563ubd5u",466,"142.csv","","null","resources/images/coin2.png","null","",NA,NA,NA,NA,""
"image-keyboard-response",458,885376,"0.0-3.149-0.149","sgagufj563ubd5u",466,"142.csv","","13752.700000047684","resources/trios/L2T1A2.jpg","39","restless",0.4,0.7,0.6,0.0737513251878266,"true"
"image-keyboard-response",459,885778,"0.0-3.149-1.149","sgagufj563ubd5u",466,"142.csv","","null","resources/maskTrios/BBA2.jpg","null","",NA,NA,NA,NA,""
"image-keyboard-response",460,886981,"0.0-3.149-2.149","sgagufj563ubd5u",466,"142.csv","","null","resources/images/coin2.png","null","",NA,NA,NA,NA,""
"image-keyboard-response",461,893260,"0.0-3.150-0.150","sgagufj563ubd5u",466,"142.csv","","6276.899999976158","resources/trios/L1T2A3.jpg","39","restless",0.4,0.7,0.6,0.53019029548625,"true"
"image-keyboard-response",462,893663,"0.0-3.150-1.150","sgagufj563ubd5u",466,"142.csv","","null","resources/maskTrios/BBA3.jpg","null","",NA,NA,NA,NA,""
"image-keyboard-response",463,894865,"0.0-3.150-2.150","sgagufj563ubd5u",466,"142.csv","","null","resources/images/coin2.png","null","",NA,NA,NA,NA,""
"image-keyboard-response",464,896219,"0.0-3.151-0.151","sgagufj563ubd5u",466,"142.csv","","1352.300000011921","resources/trios/L1T1A3.jpg","38","restless",0.4,0.6,0.6,0.0320588093304601,"true"
"image-keyboard-response",465,896621,"0.0-3.151-1.151","sgagufj563ubd5u",466,"142.csv","","null","resources/maskTrios/BT1B.jpg","null","",NA,NA,NA,NA,""
"image-keyboard-response",466,897824,"0.0-3.151-2.151","sgagufj563ubd5u",466,"142.csv","","null","resources/images/coin2.png","null","",NA,NA,NA,NA,""
"image-keyboard-response",467,898124,"0.0-3.152-0.152","sgagufj563ubd5u",466,"142.csv","","297.9000000357628","resources/trios/L1T1A2.jpg","37","restless",0.4,0.5,0.6,0.247538365985309,"true"
"image-keyboard-response",468,898527,"0.0-3.152-1.152","sgagufj563ubd5u",466,"142.csv","","null","resources/maskTrios/L1BB.jpg","null","",NA,NA,NA,NA,""
"image-keyboard-response",469,899732,"0.0-3.152-2.152","sgagufj563ubd5u",466,"142.csv","","null","resources/images/coin2.png","null","",NA,NA,NA,NA,""
"image-keyboard-response",470,899870,"0.0-3.153-0.153","sgagufj563ubd5u",466,"142.csv","","136.5999999642372","resources/trios/L2T2A3.jpg","37","restless",0.4,0.5,0.6,0.397451142751511,"true"
"image-keyboard-response",471,900276,"0.0-3.153-1.153","sgagufj563ubd5u",466,"142.csv","","null","resources/maskTrios/L2BB.jpg","null","",NA,NA,NA,NA,""
"image-keyboard-response",472,901482,"0.0-3.153-2.153","sgagufj563ubd5u",466,"142.csv","","null","resources/images/coin2.png","null","",NA,NA,NA,NA,""
"image-keyboard-response",473,901493,"0.0-3.154-0.154","sgagufj563ubd5u",466,"142.csv","","9.100000023841858","resources/trios/L1T1A2.jpg","37","restless",0.4,0.4,0.6,0.323483738217593,"true"
"image-keyboard-response",474,901898,"0.0-3.154-1.154","sgagufj563ubd5u",466,"142.csv","","null","resources/maskTrios/L1BB.jpg","null","",NA,NA,NA,NA,""
"image-keyboard-response",475,903101,"0.0-3.154-2.154","sgagufj563ubd5u",466,"142.csv","","null","resources/images/coin2.png","null","",NA,NA,NA,NA,""
"image-keyboard-response",476,903530,"0.0-3.155-0.155","sgagufj563ubd5u",466,"142.csv","","426.80000001192093","resources/trios/L1T2A2.jpg","39","restless",0.4,0.4,0.6,0.984657834895232,"false"
"image-keyboard-response",477,903936,"0.0-3.155-1.155","sgagufj563ubd5u",466,"142.csv","","null","resources/maskTrios/BBA2.jpg","null","",NA,NA,NA,NA,""
"image-keyboard-response",478,905142,"0.0-3.155-2.155","sgagufj563ubd5u",466,"142.csv","","null","resources/images/fishbone.png","null","",NA,NA,NA,NA,""
"image-keyboard-response",479,917462,"0.0-3.156-0.156","sgagufj563ubd5u",466,"142.csv","","12318.5","resources/trios/L2T1A3.jpg","39","restless",0.4,0.4,0.7,0.752593860078794,"false"
"image-keyboard-response",480,917864,"0.0-3.156-1.156","sgagufj563ubd5u",466,"142.csv","","null","resources/maskTrios/BBA3.jpg","null","",NA,NA,NA,NA,""
"image-keyboard-response",481,919070,"0.0-3.156-2.156","sgagufj563ubd5u",466,"142.csv","","null","resources/images/fishbone.png","null","",NA,NA,NA,NA,""
"image-keyboard-response",482,919424,"0.0-3.157-0.157","sgagufj563ubd5u",466,"142.csv","","351.9000000357628","resources/trios/L1T1A3.jpg","39","restless",0.4,0.4,0.7,0.630837467244669,"true"
"image-keyboard-response",483,919831,"0.0-3.157-1.157","sgagufj563ubd5u",466,"142.csv","","null","resources/maskTrios/BBA3.jpg","null","",NA,NA,NA,NA,""
"image-keyboard-response",484,921034,"0.0-3.157-2.157","sgagufj563ubd5u",466,"142.csv","","null","resources/images/coin2.png","null","",NA,NA,NA,NA,""
"image-keyboard-response",485,921322,"0.0-3.158-0.158","sgagufj563ubd5u",466,"142.csv","","286.5","resources/trios/L1T1A2.jpg","38","restless",0.4,0.4,0.7,0.51262585214401,"false"
"image-keyboard-response",486,921725,"0.0-3.158-1.158","sgagufj563ubd5u",466,"142.csv","","null","resources/maskTrios/BT1B.jpg","null","",NA,NA,NA,NA,""
"image-keyboard-response",487,922929,"0.0-3.158-2.158","sgagufj563ubd5u",466,"142.csv","","null","resources/images/fishbone.png","null","",NA,NA,NA,NA,""
"image-keyboard-response",488,923262,"0.0-3.159-0.159","sgagufj563ubd5u",466,"142.csv","","330.69999998807907","resources/trios/L2T2A2.jpg","37","restless",0.4,0.4,0.7,0.28181868226374,"true"
"image-keyboard-response",489,923667,"0.0-3.159-1.159","sgagufj563ubd5u",466,"142.csv","","null","resources/maskTrios/L2BB.jpg","null","",NA,NA,NA,NA,""
"image-keyboard-response",490,924874,"0.0-3.159-2.159","sgagufj563ubd5u",466,"142.csv","","null","resources/images/coin2.png","null","",NA,NA,NA,NA,""
"image-keyboard-response",491,925114,"0.0-3.160-0.160","sgagufj563ubd5u",466,"142.csv","","238.30000001192093","resources/trios/L1T1A3.jpg","37","restless",0.4,0.4,0.7,0.952366107430612,"false"
"image-keyboard-response",492,925520,"0.0-3.160-1.160","sgagufj563ubd5u",466,"142.csv","","null","resources/maskTrios/L1BB.jpg","null","",NA,NA,NA,NA,""
"image-keyboard-response",493,926725,"0.0-3.160-2.160","sgagufj563ubd5u",466,"142.csv","","null","resources/images/fishbone.png","null","",NA,NA,NA,NA,""
"image-keyboard-response",494,927006,"0.0-3.161-0.161","sgagufj563ubd5u",466,"142.csv","","278.5999999642372","resources/trios/L1T1A2.jpg","37","restless",0.5,0.4,0.7,0.476178639339307,"true"
"image-keyboard-response",495,927409,"0.0-3.161-1.161","sgagufj563ubd5u",466,"142.csv","","null","resources/maskTrios/L1BB.jpg","null","",NA,NA,NA,NA,""
"image-keyboard-response",496,928611,"0.0-3.161-2.161","sgagufj563ubd5u",466,"142.csv","","null","resources/images/coin2.png","null","",NA,NA,NA,NA,""
"image-keyboard-response",497,928911,"0.0-3.162-0.162","sgagufj563ubd5u",466,"142.csv","","299","resources/trios/L1T2A3.jpg","37","restless",0.5,0.4,0.7,0.421398523922502,"true"
"image-keyboard-response",498,929316,"0.0-3.162-1.162","sgagufj563ubd5u",466,"142.csv","","null","resources/maskTrios/L1BB.jpg","null","",NA,NA,NA,NA,""
"image-keyboard-response",499,930520,"0.0-3.162-2.162","sgagufj563ubd5u",466,"142.csv","","null","resources/images/coin2.png","null","",NA,NA,NA,NA,""
"image-keyboard-response",500,930732,"0.0-3.163-0.163","sgagufj563ubd5u",466,"142.csv","","210.10000002384186","resources/trios/L1T1A3.jpg","37","restless",0.5,0.4,0.8,0.0502178958177757,"true"
"image-keyboard-response",501,931135,"0.0-3.163-1.163","sgagufj563ubd5u",466,"142.csv","","null","resources/maskTrios/L1BB.jpg","null","",NA,NA,NA,NA,""
"image-keyboard-response",502,932342,"0.0-3.163-2.163","sgagufj563ubd5u",466,"142.csv","","null","resources/images/coin2.png","null","",NA,NA,NA,NA,""
"image-keyboard-response",503,932763,"0.0-3.164-0.164","sgagufj563ubd5u",466,"142.csv","","419.5","resources/trios/L2T1A2.jpg","37","restless",0.5,0.4,0.8,0.803233055955951,"false"
"image-keyboard-response",504,933169,"0.0-3.164-1.164","sgagufj563ubd5u",466,"142.csv","","null","resources/maskTrios/L2BB.jpg","null","",NA,NA,NA,NA,""
"image-keyboard-response",505,934374,"0.0-3.164-2.164","sgagufj563ubd5u",466,"142.csv","","null","resources/images/fishbone.png","null","",NA,NA,NA,NA,""
"image-keyboard-response",506,934853,"0.0-3.165-0.165","sgagufj563ubd5u",466,"142.csv","","475.9000000357628","resources/trios/L2T2A2.jpg","37","restless",0.4,0.4,0.8,0.0421324289114138,"true"
"image-keyboard-response",507,935258,"0.0-3.165-1.165","sgagufj563ubd5u",466,"142.csv","","null","resources/maskTrios/L2BB.jpg","null","",NA,NA,NA,NA,""
"image-keyboard-response",508,936462,"0.0-3.165-2.165","sgagufj563ubd5u",466,"142.csv","","null","resources/images/coin2.png","null","",NA,NA,NA,NA,""
"image-keyboard-response",509,936943,"0.0-3.166-0.166","sgagufj563ubd5u",466,"142.csv","","479","resources/trios/L2T1A2.jpg","37","restless",0.4,0.4,0.8,0.126760940516979,"true"
"image-keyboard-response",510,937347,"0.0-3.166-1.166","sgagufj563ubd5u",466,"142.csv","","null","resources/maskTrios/L2BB.jpg","null","",NA,NA,NA,NA,""
"image-keyboard-response",511,938552,"0.0-3.166-2.166","sgagufj563ubd5u",466,"142.csv","","null","resources/images/coin2.png","null","",NA,NA,NA,NA,""
"image-keyboard-response",512,939148,"0.0-3.167-0.167","sgagufj563ubd5u",466,"142.csv","","593.8999999761581","resources/trios/L2T2A3.jpg","38","restless",0.4,0.4,0.7,0.969762475845201,"false"
"image-keyboard-response",513,939555,"0.0-3.167-1.167","sgagufj563ubd5u",466,"142.csv","","null","resources/maskTrios/BT2B.jpg","null","",NA,NA,NA,NA,""
"image-keyboard-response",514,940758,"0.0-3.167-2.167","sgagufj563ubd5u",466,"142.csv","","null","resources/images/fishbone.png","null","",NA,NA,NA,NA,""
"image-keyboard-response",515,941135,"0.0-3.168-0.168","sgagufj563ubd5u",466,"142.csv","","374.9000000357628","resources/trios/L1T2A3.jpg","39","restless",0.4,0.4,0.7,0.25184580127273,"true"
"image-keyboard-response",516,941542,"0.0-3.168-1.168","sgagufj563ubd5u",466,"142.csv","","null","resources/maskTrios/BBA3.jpg","null","",NA,NA,NA,NA,""
"image-keyboard-response",517,942747,"0.0-3.168-2.168","sgagufj563ubd5u",466,"142.csv","","null","resources/images/coin2.png","null","",NA,NA,NA,NA,""
"image-keyboard-response",518,943351,"0.0-3.169-0.169","sgagufj563ubd5u",466,"142.csv","","602.6000000238419","resources/trios/L2T1A2.jpg","39","restless",0.4,0.4,0.7,0.731710800892446,"false"
"image-keyboard-response",519,943755,"0.0-3.169-1.169","sgagufj563ubd5u",466,"142.csv","","null","resources/maskTrios/BBA2.jpg","null","",NA,NA,NA,NA,""
"image-keyboard-response",520,944962,"0.0-3.169-2.169","sgagufj563ubd5u",466,"142.csv","","null","resources/images/fishbone.png","null","",NA,NA,NA,NA,""
"image-keyboard-response",521,945495,"0.0-3.170-0.170","sgagufj563ubd5u",466,"142.csv","","531.3000000119209","resources/trios/L1T2A3.jpg","39","restless",0.4,0.4,0.7,0.601501493155427,"true"
"image-keyboard-response",522,945902,"0.0-3.170-1.170","sgagufj563ubd5u",466,"142.csv","","null","resources/maskTrios/BBA3.jpg","null","",NA,NA,NA,NA,""
"image-keyboard-response",523,947106,"0.0-3.170-2.170","sgagufj563ubd5u",466,"142.csv","","null","resources/images/coin2.png","null","",NA,NA,NA,NA,""
"image-keyboard-response",524,947451,"0.0-3.171-0.171","sgagufj563ubd5u",466,"142.csv","","342.89999997615814","resources/trios/L1T1A2.jpg","37","restless",0.4,0.4,0.6,0.0211815698200548,"true"
"image-keyboard-response",525,947856,"0.0-3.171-1.171","sgagufj563ubd5u",466,"142.csv","","null","resources/maskTrios/L1BB.jpg","null","",NA,NA,NA,NA,""
"image-keyboard-response",526,949060,"0.0-3.171-2.171","sgagufj563ubd5u",466,"142.csv","","null","resources/images/coin2.png","null","",NA,NA,NA,NA,""
"image-keyboard-response",527,949764,"0.0-3.172-0.172","sgagufj563ubd5u",466,"142.csv","","702.4000000357628","resources/trios/L1T1A2.jpg","37","restless",0.4,0.4,0.6,0.321706195450302,"true"
"image-keyboard-response",528,950168,"0.0-3.172-1.172","sgagufj563ubd5u",466,"142.csv","","null","resources/maskTrios/L1BB.jpg","null","",NA,NA,NA,NA,""
"image-keyboard-response",529,951373,"0.0-3.172-2.172","sgagufj563ubd5u",466,"142.csv","","null","resources/images/coin2.png","null","",NA,NA,NA,NA,""
"image-keyboard-response",530,952294,"0.0-3.173-0.173","sgagufj563ubd5u",466,"142.csv","","918.6999999880791","resources/trios/L2T1A2.jpg","37","restless",0.4,0.4,0.5,0.0103907264859682,"true"
"image-keyboard-response",531,952698,"0.0-3.173-1.173","sgagufj563ubd5u",466,"142.csv","","null","resources/maskTrios/L2BB.jpg","null","",NA,NA,NA,NA,""
"image-keyboard-response",532,953902,"0.0-3.173-2.173","sgagufj563ubd5u",466,"142.csv","","null","resources/images/coin2.png","null","",NA,NA,NA,NA,""
"image-keyboard-response",533,954346,"0.0-3.174-0.174","sgagufj563ubd5u",466,"142.csv","","441.19999998807907","resources/trios/L1T1A2.jpg","37","restless",0.4,0.4,0.4,0.670673699401487,"false"
"image-keyboard-response",534,954750,"0.0-3.174-1.174","sgagufj563ubd5u",466,"142.csv","","null","resources/maskTrios/L1BB.jpg","null","",NA,NA,NA,NA,""
"image-keyboard-response",535,955952,"0.0-3.174-2.174","sgagufj563ubd5u",466,"142.csv","","null","resources/images/fishbone.png","null","",NA,NA,NA,NA,""
"image-keyboard-response",536,956393,"0.0-3.175-0.175","sgagufj563ubd5u",466,"142.csv","","438.5999999642372","resources/trios/L2T2A2.jpg","37","restless",0.4,0.3,0.4,0.239582566937328,"true"
"image-keyboard-response",537,956797,"0.0-3.175-1.175","sgagufj563ubd5u",466,"142.csv","","null","resources/maskTrios/L2BB.jpg","null","",NA,NA,NA,NA,""
"image-keyboard-response",538,958002,"0.0-3.175-2.175","sgagufj563ubd5u",466,"142.csv","","null","resources/images/coin2.png","null","",NA,NA,NA,NA,""
"image-keyboard-response",539,959028,"0.0-3.176-0.176","sgagufj563ubd5u",466,"142.csv","","1024.2000000476837","resources/trios/L2T2A3.jpg","37","restless",0.4,0.3,0.4,0.824119617409713,"false"
"image-keyboard-response",540,959433,"0.0-3.176-1.176","sgagufj563ubd5u",466,"142.csv","","null","resources/maskTrios/L2BB.jpg","null","",NA,NA,NA,NA,""
"image-keyboard-response",541,960635,"0.0-3.176-2.176","sgagufj563ubd5u",466,"142.csv","","null","resources/images/fishbone.png","null","",NA,NA,NA,NA,""
"image-keyboard-response",542,963458,"0.0-3.177-0.177","sgagufj563ubd5u",466,"142.csv","","2820.800000011921","resources/trios/L2T1A3.jpg","37","restless",0.4,0.3,0.3,0.189154764392413,"true"
"image-keyboard-response",543,963860,"0.0-3.177-1.177","sgagufj563ubd5u",466,"142.csv","","null","resources/maskTrios/L2BB.jpg","null","",NA,NA,NA,NA,""
"image-keyboard-response",544,965064,"0.0-3.177-2.177","sgagufj563ubd5u",466,"142.csv","","null","resources/images/coin2.png","null","",NA,NA,NA,NA,""
"image-keyboard-response",545,965346,"0.0-3.178-0.178","sgagufj563ubd5u",466,"142.csv","","280.0999999642372","resources/trios/L2T1A3.jpg","37","restless",0.4,0.3,0.3,0.543990898507352,"false"
"image-keyboard-response",546,965750,"0.0-3.178-1.178","sgagufj563ubd5u",466,"142.csv","","null","resources/maskTrios/L2BB.jpg","null","",NA,NA,NA,NA,""
"image-keyboard-response",547,966952,"0.0-3.178-2.178","sgagufj563ubd5u",466,"142.csv","","null","resources/images/fishbone.png","null","",NA,NA,NA,NA,""
"image-keyboard-response",548,967262,"0.0-3.179-0.179","sgagufj563ubd5u",466,"142.csv","","306.9000000357628","resources/trios/L2T1A2.jpg","38","restless",0.4,0.3,0.3,0.746473167816329,"false"
"image-keyboard-response",549,967666,"0.0-3.179-1.179","sgagufj563ubd5u",466,"142.csv","","null","resources/maskTrios/BT1B.jpg","null","",NA,NA,NA,NA,""
"image-keyboard-response",550,968871,"0.0-3.179-2.179","sgagufj563ubd5u",466,"142.csv","","null","resources/images/fishbone.png","null","",NA,NA,NA,NA,""
"image-keyboard-response",551,969150,"0.0-3.180-0.180","sgagufj563ubd5u",466,"142.csv","","276.7000000476837","resources/trios/L1T2A3.jpg","38","restless",0.5,0.3,0.3,0.58738611096363,"false"
"image-keyboard-response",552,969555,"0.0-3.180-1.180","sgagufj563ubd5u",466,"142.csv","","null","resources/maskTrios/BT2B.jpg","null","",NA,NA,NA,NA,""
"image-keyboard-response",553,970759,"0.0-3.180-2.180","sgagufj563ubd5u",466,"142.csv","","null","resources/images/fishbone.png","null","",NA,NA,NA,NA,""
"image-keyboard-response",554,971000,"0.0-3.181-0.181","sgagufj563ubd5u",466,"142.csv","","237.89999997615814","resources/trios/L2T1A3.jpg","39","restless",0.5,0.3,0.3,0.789972733737152,"false"
"image-keyboard-response",555,971406,"0.0-3.181-1.181","sgagufj563ubd5u",466,"142.csv","","null","resources/maskTrios/BBA3.jpg","null","",NA,NA,NA,NA,""
"image-keyboard-response",556,972608,"0.0-3.181-2.181","sgagufj563ubd5u",466,"142.csv","","null","resources/images/fishbone.png","null","",NA,NA,NA,NA,""
"image-keyboard-response",557,972910,"0.0-3.182-0.182","sgagufj563ubd5u",466,"142.csv","","300.10000002384186","resources/trios/L1T1A3.jpg","37","restless",0.5,0.2,0.3,0.750856434275196,"false"
"image-keyboard-response",558,973314,"0.0-3.182-1.182","sgagufj563ubd5u",466,"142.csv","","null","resources/maskTrios/L1BB.jpg","null","",NA,NA,NA,NA,""
"image-keyboard-response",559,974518,"0.0-3.182-2.182","sgagufj563ubd5u",466,"142.csv","","null","resources/images/fishbone.png","null","",NA,NA,NA,NA,""
"image-keyboard-response",560,974783,"0.0-3.183-0.183","sgagufj563ubd5u",466,"142.csv","","263.5","resources/trios/L2T2A3.jpg","37","restless",0.5,0.2,0.4,0.0877939854124972,"true"
"image-keyboard-response",561,975186,"0.0-3.183-1.183","sgagufj563ubd5u",466,"142.csv","","null","resources/maskTrios/L2BB.jpg","null","",NA,NA,NA,NA,""
"image-keyboard-response",562,976394,"0.0-3.183-2.183","sgagufj563ubd5u",466,"142.csv","","null","resources/images/coin2.png","null","",NA,NA,NA,NA,""
"image-keyboard-response",563,976696,"0.0-3.184-0.184","sgagufj563ubd5u",466,"142.csv","","300.5","resources/trios/L1T1A3.jpg","37","restless",0.5,0.2,0.4,0.268852958196923,"true"
"image-keyboard-response",564,977103,"0.0-3.184-1.184","sgagufj563ubd5u",466,"142.csv","","null","resources/maskTrios/L1BB.jpg","null","",NA,NA,NA,NA,""
"image-keyboard-response",565,978307,"0.0-3.184-2.184","sgagufj563ubd5u",466,"142.csv","","null","resources/images/coin2.png","null","",NA,NA,NA,NA,""
"image-keyboard-response",566,978576,"0.0-3.185-0.185","sgagufj563ubd5u",466,"142.csv","","267.30000001192093","resources/trios/L2T2A2.jpg","37","restless",0.5,0.2,0.4,0.234207842674274,"true"
"image-keyboard-response",567,978981,"0.0-3.185-1.185","sgagufj563ubd5u",466,"142.csv","","null","resources/maskTrios/L2BB.jpg","null","",NA,NA,NA,NA,""
"image-keyboard-response",568,980185,"0.0-3.185-2.185","sgagufj563ubd5u",466,"142.csv","","null","resources/images/coin2.png","null","",NA,NA,NA,NA,""
"image-keyboard-response",569,980466,"0.0-3.186-0.186","sgagufj563ubd5u",466,"142.csv","","279.30000001192093","resources/trios/L2T2A2.jpg","37","restless",0.5,0.3,0.4,0.578949215761718,"false"
"image-keyboard-response",570,980872,"0.0-3.186-1.186","sgagufj563ubd5u",466,"142.csv","","null","resources/maskTrios/L2BB.jpg","null","",NA,NA,NA,NA,""
"image-keyboard-response",571,982073,"0.0-3.186-2.186","sgagufj563ubd5u",466,"142.csv","","null","resources/images/fishbone.png","null","",NA,NA,NA,NA,""
"image-keyboard-response",572,982311,"0.0-3.187-0.187","sgagufj563ubd5u",466,"142.csv","","236.10000002384186","resources/trios/L2T1A2.jpg","37","restless",0.5,0.3,0.4,0.315626526340763,"true"
"image-keyboard-response",573,982715,"0.0-3.187-1.187","sgagufj563ubd5u",466,"142.csv","","null","resources/maskTrios/L2BB.jpg","null","",NA,NA,NA,NA,""
"image-keyboard-response",574,983918,"0.0-3.187-2.187","sgagufj563ubd5u",466,"142.csv","","null","resources/images/coin2.png","null","",NA,NA,NA,NA,""
"image-keyboard-response",575,984051,"0.0-3.188-0.188","sgagufj563ubd5u",466,"142.csv","","131.0999999642372","resources/trios/L2T1A3.jpg","38","restless",0.5,0.3,0.4,0.855316439583167,"false"
"image-keyboard-response",576,984460,"0.0-3.188-1.188","sgagufj563ubd5u",466,"142.csv","","null","resources/maskTrios/BT1B.jpg","null","",NA,NA,NA,NA,""
"image-keyboard-response",577,985664,"0.0-3.188-2.188","sgagufj563ubd5u",466,"142.csv","","null","resources/images/fishbone.png","null","",NA,NA,NA,NA,""
"image-keyboard-response",578,985921,"0.0-3.189-0.189","sgagufj563ubd5u",466,"142.csv","","254.89999997615814","resources/trios/L1T2A3.jpg","38","restless",0.5,0.3,0.3,0.394422379703206,"false"
"image-keyboard-response",579,986323,"0.0-3.189-1.189","sgagufj563ubd5u",466,"142.csv","","null","resources/maskTrios/BT2B.jpg","null","",NA,NA,NA,NA,""
"image-keyboard-response",580,987526,"0.0-3.189-2.189","sgagufj563ubd5u",466,"142.csv","","null","resources/images/fishbone.png","null","",NA,NA,NA,NA,""
"image-keyboard-response",581,987789,"0.0-3.190-0.190","sgagufj563ubd5u",466,"142.csv","","260.5","resources/trios/L2T2A3.jpg","38","restless",0.5,0.3,0.2,0.348648991344537,"false"
"image-keyboard-response",582,988192,"0.0-3.190-1.190","sgagufj563ubd5u",466,"142.csv","","null","resources/maskTrios/BT2B.jpg","null","",NA,NA,NA,NA,""
"image-keyboard-response",583,989399,"0.0-3.190-2.190","sgagufj563ubd5u",466,"142.csv","","null","resources/images/fishbone.png","null","",NA,NA,NA,NA,""
"image-keyboard-response",584,989418,"0.0-3.191-0.191","sgagufj563ubd5u",466,"142.csv","","17.5","resources/trios/L1T1A3.jpg","38","restless",0.5,0.3,0.2,0.0137716679839903,"true"
"image-keyboard-response",585,989821,"0.0-3.191-1.191","sgagufj563ubd5u",466,"142.csv","","null","resources/maskTrios/BT1B.jpg","null","",NA,NA,NA,NA,""
"image-keyboard-response",586,991024,"0.0-3.191-2.191","sgagufj563ubd5u",466,"142.csv","","null","resources/images/coin2.png","null","",NA,NA,NA,NA,""
"image-keyboard-response",587,991335,"0.0-3.192-0.192","sgagufj563ubd5u",466,"142.csv","","308.60000002384186","resources/trios/L1T1A3.jpg","38","restless",0.5,0.3,0.2,0.37633182342862,"false"
"image-keyboard-response",588,991743,"0.0-3.192-1.192","sgagufj563ubd5u",466,"142.csv","","null","resources/maskTrios/BT1B.jpg","null","",NA,NA,NA,NA,""
"image-keyboard-response",589,992948,"0.0-3.192-2.192","sgagufj563ubd5u",466,"142.csv","","null","resources/images/fishbone.png","null","",NA,NA,NA,NA,""
"image-keyboard-response",590,993149,"0.0-3.193-0.193","sgagufj563ubd5u",466,"142.csv","","199.69999998807907","resources/trios/L2T1A3.jpg","38","restless",0.5,0.3,0.2,0.845599225964408,"false"
"image-keyboard-response",591,993557,"0.0-3.193-1.193","sgagufj563ubd5u",466,"142.csv","","null","resources/maskTrios/BT1B.jpg","null","",NA,NA,NA,NA,""
"image-keyboard-response",592,994766,"0.0-3.193-2.193","sgagufj563ubd5u",466,"142.csv","","null","resources/images/fishbone.png","null","",NA,NA,NA,NA,""
"image-keyboard-response",593,995088,"0.0-3.194-0.194","sgagufj563ubd5u",466,"142.csv","","320.39999997615814","resources/trios/L1T2A3.jpg","37","restless",0.5,0.3,0.2,0.296821064157504,"true"
"image-keyboard-response",594,995491,"0.0-3.194-1.194","sgagufj563ubd5u",466,"142.csv","","null","resources/maskTrios/L1BB.jpg","null","",NA,NA,NA,NA,""
"image-keyboard-response",595,996696,"0.0-3.194-2.194","sgagufj563ubd5u",466,"142.csv","","null","resources/images/coin2.png","null","",NA,NA,NA,NA,""
"image-keyboard-response",596,997147,"0.0-3.195-0.195","sgagufj563ubd5u",466,"142.csv","","448.9000000357628","resources/trios/L2T2A3.jpg","39","restless",0.5,0.3,0.2,0.185483564553295,"true"
"image-keyboard-response",597,997549,"0.0-3.195-1.195","sgagufj563ubd5u",466,"142.csv","","null","resources/maskTrios/BBA3.jpg","null","",NA,NA,NA,NA,""
"image-keyboard-response",598,998752,"0.0-3.195-2.195","sgagufj563ubd5u",466,"142.csv","","null","resources/images/coin2.png","null","",NA,NA,NA,NA,""
"image-keyboard-response",599,998850,"0.0-3.196-0.196","sgagufj563ubd5u",466,"142.csv","","95.79999995231628","resources/trios/L2T1A3.jpg","39","restless",0.5,0.3,0.2,0.0911234544486865,"true"
"image-keyboard-response",600,999256,"0.0-3.196-1.196","sgagufj563ubd5u",466,"142.csv","","null","resources/maskTrios/BBA3.jpg","null","",NA,NA,NA,NA,""
"image-keyboard-response",601,1000460,"0.0-3.196-2.196","sgagufj563ubd5u",466,"142.csv","","null","resources/images/coin2.png","null","",NA,NA,NA,NA,""
"image-keyboard-response",602,1000715,"0.0-3.197-0.197","sgagufj563ubd5u",466,"142.csv","","253.39999997615814","resources/trios/L2T2A2.jpg","39","restless",0.5,0.3,0.2,0.85819833555415,"false"
"image-keyboard-response",603,1001122,"0.0-3.197-1.197","sgagufj563ubd5u",466,"142.csv","","null","resources/maskTrios/BBA2.jpg","null","",NA,NA,NA,NA,""
"image-keyboard-response",604,1002326,"0.0-3.197-2.197","sgagufj563ubd5u",466,"142.csv","","null","resources/images/fishbone.png","null","",NA,NA,NA,NA,""
"image-keyboard-response",605,1002785,"0.0-3.198-0.198","sgagufj563ubd5u",466,"142.csv","","457","resources/trios/L2T1A3.jpg","39","restless",0.5,0.3,0.2,0.565408899234129,"false"
"image-keyboard-response",606,1003188,"0.0-3.198-1.198","sgagufj563ubd5u",466,"142.csv","","null","resources/maskTrios/BBA3.jpg","null","",NA,NA,NA,NA,""
