"trial_type","trial_index","time_elapsed","internal_node_id","subject","participantCode","walkNumber","success","rt","stimulus","key_press","test_part","leftProb","midProb","rightProb","generatedNum","correct"
"pavlovia",0,1188,"0.0-0.0","1uwhsq6u0dzuncq",308,"147.csv","","","","","",NA,NA,NA,NA,""
"fullscreen",1,14045,"0.0-1.0","1uwhsq6u0dzuncq",308,"147.csv","true","","","","",NA,NA,NA,NA,""
"html-keyboard-response",2,20175,"0.0-2.0-0.0","1uwhsq6u0dzuncq",308,"147.csv","","6127.199999988079","<p><font size='6'>Arrrgh!</p></font><p>Can you be the best pirate? Try to find lots of gold! But beware, some islands have more gold than others, and over time, the island with the most gold may change. Can YOU figure it out? </p><font size='6'>GOOD LUCK, CAPTAIN!!!</font><p>Press any key to begin</p>","74","",NA,NA,NA,NA,""
"image-keyboard-response",3,23176,"0.0-2.0-1.0","1uwhsq6u0dzuncq",308,"147.csv","","null","resources/image_sets/111.png","null","",NA,NA,NA,NA,""
"image-keyboard-response",4,48459,"0.0-2.0-2.0","1uwhsq6u0dzuncq",308,"147.csv","","25280.899999976158","resources/image_sets/left_highlight.png","37","",NA,NA,NA,NA,""
"image-keyboard-response",5,62269,"0.0-2.0-3.0","1uwhsq6u0dzuncq",308,"147.csv","","13808.800000011921","resources/image_sets/mid_highlight.png","38","",NA,NA,NA,NA,""
"image-keyboard-response",6,63631,"0.0-2.0-4.0","1uwhsq6u0dzuncq",308,"147.csv","","1361.800000011921","resources/image_sets/right_highlight.png","39","",NA,NA,NA,NA,""
"image-keyboard-response",7,76926,"0.0-2.0-5.0","1uwhsq6u0dzuncq",308,"147.csv","","13294","resources/image_sets/111.png","13","",NA,NA,NA,NA,""
"image-keyboard-response",8,80812,"0.0-2.0-6.0","1uwhsq6u0dzuncq",308,"147.csv","","3885.7000000178814","resources/images/coin2.png","13","",NA,NA,NA,NA,""
"image-keyboard-response",9,82212,"0.0-2.0-7.0","1uwhsq6u0dzuncq",308,"147.csv","","1398.699999988079","resources/images/fishbone.png","13","",NA,NA,NA,NA,""
"html-keyboard-response",10,88285,"0.0-2.0-8.0","1uwhsq6u0dzuncq",308,"147.csv","","6072.699999988079","<p>Your first journey will be a long one, but you will get a well deserved break at the end</p><p>After the break you will have four more journeys, but each will be much shorter than the first, and you will have breaks in between each</p><p>Press Enter to begin</p>","13","",NA,NA,NA,NA,""
"image-keyboard-response",11,91359,"0.0-3.0-0.0","1uwhsq6u0dzuncq",308,"147.csv","","3071.5999999940395","resources/trios/L1T4A3.jpg","39","restless",0.9,0.3,0.7,0.732492361053882,"false"
"image-keyboard-response",12,91766,"0.0-3.0-1.0","1uwhsq6u0dzuncq",308,"147.csv","","null","resources/maskTrios/BBA3.jpg","null","",NA,NA,NA,NA,""
"image-keyboard-response",13,92972,"0.0-3.0-2.0","1uwhsq6u0dzuncq",308,"147.csv","","null","resources/images/fishbone.png","null","",NA,NA,NA,NA,""
"image-keyboard-response",14,95173,"0.0-3.1-0.1","1uwhsq6u0dzuncq",308,"147.csv","","2198.9000000059605","resources/trios/L2T2A1.jpg","37","restless",0.8,0.3,0.7,0.544374178721221,"true"
"image-keyboard-response",15,95579,"0.0-3.1-1.1","1uwhsq6u0dzuncq",308,"147.csv","","null","resources/maskTrios/L2BB.jpg","null","",NA,NA,NA,NA,""
"image-keyboard-response",16,96782,"0.0-3.1-2.1","1uwhsq6u0dzuncq",308,"147.csv","","null","resources/images/coin2.png","null","",NA,NA,NA,NA,""
"image-keyboard-response",17,98178,"0.0-3.2-0.2","1uwhsq6u0dzuncq",308,"147.csv","","1395","resources/trios/L1T4A3.jpg","37","restless",0.8,0.3,0.7,0.6937869088757,"true"
"image-keyboard-response",18,98583,"0.0-3.2-1.2","1uwhsq6u0dzuncq",308,"147.csv","","null","resources/maskTrios/L1BB.jpg","null","",NA,NA,NA,NA,""
"image-keyboard-response",19,99787,"0.0-3.2-2.2","1uwhsq6u0dzuncq",308,"147.csv","","null","resources/images/coin2.png","null","",NA,NA,NA,NA,""
"image-keyboard-response",20,100865,"0.0-3.3-0.3","1uwhsq6u0dzuncq",308,"147.csv","","1077","resources/trios/L2T4A3.jpg","37","restless",0.8,0.3,0.7,0.370514896652916,"true"
"image-keyboard-response",21,101270,"0.0-3.3-1.3","1uwhsq6u0dzuncq",308,"147.csv","","null","resources/maskTrios/L2BB.jpg","null","",NA,NA,NA,NA,""
"image-keyboard-response",22,102474,"0.0-3.3-2.3","1uwhsq6u0dzuncq",308,"147.csv","","null","resources/images/coin2.png","null","",NA,NA,NA,NA,""
"image-keyboard-response",23,103872,"0.0-3.4-0.4","1uwhsq6u0dzuncq",308,"147.csv","","1397.9000000059605","resources/trios/L2T2A3.jpg","37","restless",0.8,0.3,0.7,0.87209880505131,"false"
"image-keyboard-response",24,104275,"0.0-3.4-1.4","1uwhsq6u0dzuncq",308,"147.csv","","null","resources/maskTrios/L2BB.jpg","null","",NA,NA,NA,NA,""
"image-keyboard-response",25,105481,"0.0-3.4-2.4","1uwhsq6u0dzuncq",308,"147.csv","","null","resources/images/fishbone.png","null","",NA,NA,NA,NA,""
"image-keyboard-response",26,107035,"0.0-3.5-0.5","1uwhsq6u0dzuncq",308,"147.csv","","1553.199999988079","resources/trios/L1T4A3.jpg","38","restless",0.8,0.3,0.8,0.404390214379393,"false"
"image-keyboard-response",27,107437,"0.0-3.5-1.5","1uwhsq6u0dzuncq",308,"147.csv","","null","resources/maskTrios/BT4B.jpg","null","",NA,NA,NA,NA,""
"image-keyboard-response",28,108639,"0.0-3.5-2.5","1uwhsq6u0dzuncq",308,"147.csv","","null","resources/images/fishbone.png","null","",NA,NA,NA,NA,""
"image-keyboard-response",29,109142,"0.0-3.6-0.6","1uwhsq6u0dzuncq",308,"147.csv","","502.19999998807907","resources/trios/L1T4A1.jpg","37","restless",0.8,0.3,0.9,0.14440836761923,"true"
"image-keyboard-response",30,109544,"0.0-3.6-1.6","1uwhsq6u0dzuncq",308,"147.csv","","null","resources/maskTrios/L1BB.jpg","null","",NA,NA,NA,NA,""
"image-keyboard-response",31,110750,"0.0-3.6-2.6","1uwhsq6u0dzuncq",308,"147.csv","","null","resources/images/coin2.png","null","",NA,NA,NA,NA,""
"image-keyboard-response",32,111301,"0.0-3.7-0.7","1uwhsq6u0dzuncq",308,"147.csv","","548.0999999940395","resources/trios/L2T4A1.jpg","37","restless",0.8,0.3,0.9,0.97504367495419,"false"
"image-keyboard-response",33,111704,"0.0-3.7-1.7","1uwhsq6u0dzuncq",308,"147.csv","","null","resources/maskTrios/L2BB.jpg","null","",NA,NA,NA,NA,""
"image-keyboard-response",34,112905,"0.0-3.7-2.7","1uwhsq6u0dzuncq",308,"147.csv","","null","resources/images/fishbone.png","null","",NA,NA,NA,NA,""
"image-keyboard-response",35,113772,"0.0-3.8-0.8","1uwhsq6u0dzuncq",308,"147.csv","","864.7999999821186","resources/trios/L2T4A1.jpg","37","restless",0.8,0.3,0.9,0.64765783912888,"true"
"image-keyboard-response",36,114177,"0.0-3.8-1.8","1uwhsq6u0dzuncq",308,"147.csv","","null","resources/maskTrios/L2BB.jpg","null","",NA,NA,NA,NA,""
"image-keyboard-response",37,115380,"0.0-3.8-2.8","1uwhsq6u0dzuncq",308,"147.csv","","null","resources/images/coin2.png","null","",NA,NA,NA,NA,""
"image-keyboard-response",38,116299,"0.0-3.9-0.9","1uwhsq6u0dzuncq",308,"147.csv","","918.5","resources/trios/L2T4A1.jpg","38","restless",0.8,0.3,0.9,0.289297593870551,"true"
"image-keyboard-response",39,116702,"0.0-3.9-1.9","1uwhsq6u0dzuncq",308,"147.csv","","null","resources/maskTrios/BT4B.jpg","null","",NA,NA,NA,NA,""
"image-keyboard-response",40,117904,"0.0-3.9-2.9","1uwhsq6u0dzuncq",308,"147.csv","","null","resources/images/coin2.png","null","",NA,NA,NA,NA,""
"image-keyboard-response",41,118555,"0.0-3.10-0.10","1uwhsq6u0dzuncq",308,"147.csv","","649.8000000119209","resources/trios/L1T2A3.jpg","37","restless",0.7,0.3,0.9,0.352229124013365,"true"
"image-keyboard-response",42,118960,"0.0-3.10-1.10","1uwhsq6u0dzuncq",308,"147.csv","","null","resources/maskTrios/L1BB.jpg","null","",NA,NA,NA,NA,""
"image-keyboard-response",43,120167,"0.0-3.10-2.10","1uwhsq6u0dzuncq",308,"147.csv","","null","resources/images/coin2.png","null","",NA,NA,NA,NA,""
"image-keyboard-response",44,120784,"0.0-3.11-0.11","1uwhsq6u0dzuncq",308,"147.csv","","615.4000000059605","resources/trios/L2T4A3.jpg","37","restless",0.7,0.3,0.9,0.750291392074617,"false"
"image-keyboard-response",45,121189,"0.0-3.11-1.11","1uwhsq6u0dzuncq",308,"147.csv","","null","resources/maskTrios/L2BB.jpg","null","",NA,NA,NA,NA,""
"image-keyboard-response",46,122393,"0.0-3.11-2.11","1uwhsq6u0dzuncq",308,"147.csv","","null","resources/images/fishbone.png","null","",NA,NA,NA,NA,""
"image-keyboard-response",47,122991,"0.0-3.12-0.12","1uwhsq6u0dzuncq",308,"147.csv","","597.2000000178814","resources/trios/L1T4A1.jpg","37","restless",0.6,0.3,0.9,0.489203551742468,"true"
"image-keyboard-response",48,123397,"0.0-3.12-1.12","1uwhsq6u0dzuncq",308,"147.csv","","null","resources/maskTrios/L1BB.jpg","null","",NA,NA,NA,NA,""
"image-keyboard-response",49,124603,"0.0-3.12-2.12","1uwhsq6u0dzuncq",308,"147.csv","","null","resources/images/coin2.png","null","",NA,NA,NA,NA,""
"image-keyboard-response",50,125262,"0.0-3.13-0.13","1uwhsq6u0dzuncq",308,"147.csv","","657.7000000178814","resources/trios/L2T2A1.jpg","38","restless",0.6,0.3,0.9,0.891075513737277,"false"
"image-keyboard-response",51,125665,"0.0-3.13-1.13","1uwhsq6u0dzuncq",308,"147.csv","","null","resources/maskTrios/BT2B.jpg","null","",NA,NA,NA,NA,""
"image-keyboard-response",52,126867,"0.0-3.13-2.13","1uwhsq6u0dzuncq",308,"147.csv","","null","resources/images/fishbone.png","null","",NA,NA,NA,NA,""
"image-keyboard-response",53,127331,"0.0-3.14-0.14","1uwhsq6u0dzuncq",308,"147.csv","","462.59999999403954","resources/trios/L1T2A1.jpg","37","restless",0.5,0.4,0.9,0.318175501294563,"true"
"image-keyboard-response",54,127737,"0.0-3.14-1.14","1uwhsq6u0dzuncq",308,"147.csv","","null","resources/maskTrios/L1BB.jpg","null","",NA,NA,NA,NA,""
"image-keyboard-response",55,128941,"0.0-3.14-2.14","1uwhsq6u0dzuncq",308,"147.csv","","null","resources/images/coin2.png","null","",NA,NA,NA,NA,""
"image-keyboard-response",56,129912,"0.0-3.15-0.15","1uwhsq6u0dzuncq",308,"147.csv","","969.5","resources/trios/L1T4A3.jpg","39","restless",0.5,0.5,0.9,0.117665771873254,"true"
"image-keyboard-response",57,130314,"0.0-3.15-1.15","1uwhsq6u0dzuncq",308,"147.csv","","null","resources/maskTrios/BBA3.jpg","null","",NA,NA,NA,NA,""
"image-keyboard-response",58,131517,"0.0-3.15-2.15","1uwhsq6u0dzuncq",308,"147.csv","","null","resources/images/coin2.png","null","",NA,NA,NA,NA,""
"image-keyboard-response",59,132380,"0.0-3.16-0.16","1uwhsq6u0dzuncq",308,"147.csv","","862.0999999940395","resources/trios/L1T2A1.jpg","37","restless",0.5,0.4,0.9,0.65550822384182,"false"
"image-keyboard-response",60,132784,"0.0-3.16-1.16","1uwhsq6u0dzuncq",308,"147.csv","","null","resources/maskTrios/L1BB.jpg","null","",NA,NA,NA,NA,""
"image-keyboard-response",61,133990,"0.0-3.16-2.16","1uwhsq6u0dzuncq",308,"147.csv","","null","resources/images/fishbone.png","null","",NA,NA,NA,NA,""
"image-keyboard-response",62,134587,"0.0-3.17-0.17","1uwhsq6u0dzuncq",308,"147.csv","","596.5","resources/trios/L1T4A1.jpg","37","restless",0.6,0.4,0.9,0.10595903162021,"true"
"image-keyboard-response",63,134992,"0.0-3.17-1.17","1uwhsq6u0dzuncq",308,"147.csv","","null","resources/maskTrios/L1BB.jpg","null","",NA,NA,NA,NA,""
"image-keyboard-response",64,136195,"0.0-3.17-2.17","1uwhsq6u0dzuncq",308,"147.csv","","null","resources/images/coin2.png","null","",NA,NA,NA,NA,""
"image-keyboard-response",65,136731,"0.0-3.18-0.18","1uwhsq6u0dzuncq",308,"147.csv","","535","resources/trios/L2T4A1.jpg","37","restless",0.6,0.4,0.9,0.855775741874421,"false"
"image-keyboard-response",66,137136,"0.0-3.18-1.18","1uwhsq6u0dzuncq",308,"147.csv","","null","resources/maskTrios/L2BB.jpg","null","",NA,NA,NA,NA,""
"image-keyboard-response",67,138337,"0.0-3.18-2.18","1uwhsq6u0dzuncq",308,"147.csv","","null","resources/images/fishbone.png","null","",NA,NA,NA,NA,""
"image-keyboard-response",68,138899,"0.0-3.19-0.19","1uwhsq6u0dzuncq",308,"147.csv","","560.8000000119209","resources/trios/L1T2A3.jpg","37","restless",0.6,0.4,0.9,0.26961702441038,"true"
"image-keyboard-response",69,139302,"0.0-3.19-1.19","1uwhsq6u0dzuncq",308,"147.csv","","null","resources/maskTrios/L1BB.jpg","null","",NA,NA,NA,NA,""
"image-keyboard-response",70,140508,"0.0-3.19-2.19","1uwhsq6u0dzuncq",308,"147.csv","","null","resources/images/coin2.png","null","",NA,NA,NA,NA,""
"image-keyboard-response",71,141003,"0.0-3.20-0.20","1uwhsq6u0dzuncq",308,"147.csv","","493","resources/trios/L1T4A3.jpg","38","restless",0.6,0.4,0.9,0.757557456638227,"false"
"image-keyboard-response",72,141408,"0.0-3.20-1.20","1uwhsq6u0dzuncq",308,"147.csv","","null","resources/maskTrios/BT4B.jpg","null","",NA,NA,NA,NA,""
"image-keyboard-response",73,142609,"0.0-3.20-2.20","1uwhsq6u0dzuncq",308,"147.csv","","null","resources/images/fishbone.png","null","",NA,NA,NA,NA,""
"image-keyboard-response",74,143095,"0.0-3.21-0.21","1uwhsq6u0dzuncq",308,"147.csv","","485.30000001192093","resources/trios/L2T2A1.jpg","37","restless",0.6,0.4,0.9,0.145286243500374,"true"
"image-keyboard-response",75,143498,"0.0-3.21-1.21","1uwhsq6u0dzuncq",308,"147.csv","","null","resources/maskTrios/L2BB.jpg","null","",NA,NA,NA,NA,""
"image-keyboard-response",76,144700,"0.0-3.21-2.21","1uwhsq6u0dzuncq",308,"147.csv","","null","resources/images/coin2.png","null","",NA,NA,NA,NA,""
"image-keyboard-response",77,145189,"0.0-3.22-0.22","1uwhsq6u0dzuncq",308,"147.csv","","487.59999999403954","resources/trios/L1T2A1.jpg","37","restless",0.6,0.4,0.9,0.630773385710779,"false"
"image-keyboard-response",78,145594,"0.0-3.22-1.22","1uwhsq6u0dzuncq",308,"147.csv","","null","resources/maskTrios/L1BB.jpg","null","",NA,NA,NA,NA,""
"image-keyboard-response",79,146795,"0.0-3.22-2.22","1uwhsq6u0dzuncq",308,"147.csv","","null","resources/images/fishbone.png","null","",NA,NA,NA,NA,""
"image-keyboard-response",80,147340,"0.0-3.23-0.23","1uwhsq6u0dzuncq",308,"147.csv","","543.1999999880791","resources/trios/L1T4A3.jpg","39","restless",0.6,0.4,0.9,0.993085040026569,"false"
"image-keyboard-response",81,147742,"0.0-3.23-1.23","1uwhsq6u0dzuncq",308,"147.csv","","null","resources/maskTrios/BBA3.jpg","null","",NA,NA,NA,NA,""
"image-keyboard-response",82,148943,"0.0-3.23-2.23","1uwhsq6u0dzuncq",308,"147.csv","","null","resources/images/fishbone.png","null","",NA,NA,NA,NA,""
"image-keyboard-response",83,149805,"0.0-3.24-0.24","1uwhsq6u0dzuncq",308,"147.csv","","860.4000000059605","resources/trios/L2T4A3.jpg","37","restless",0.6,0.4,0.9,0.258614354135128,"true"
"image-keyboard-response",84,150209,"0.0-3.24-1.24","1uwhsq6u0dzuncq",308,"147.csv","","null","resources/maskTrios/L2BB.jpg","null","",NA,NA,NA,NA,""
"image-keyboard-response",85,151412,"0.0-3.24-2.24","1uwhsq6u0dzuncq",308,"147.csv","","null","resources/images/coin2.png","null","",NA,NA,NA,NA,""
"image-keyboard-response",86,152190,"0.0-3.25-0.25","1uwhsq6u0dzuncq",308,"147.csv","","776.5999999940395","resources/trios/L1T2A3.jpg","37","restless",0.6,0.4,0.9,0.997860757954636,"false"
"image-keyboard-response",87,152595,"0.0-3.25-1.25","1uwhsq6u0dzuncq",308,"147.csv","","null","resources/maskTrios/L1BB.jpg","null","",NA,NA,NA,NA,""
"image-keyboard-response",88,153798,"0.0-3.25-2.25","1uwhsq6u0dzuncq",308,"147.csv","","null","resources/images/fishbone.png","null","",NA,NA,NA,NA,""
"image-keyboard-response",89,154275,"0.0-3.26-0.26","1uwhsq6u0dzuncq",308,"147.csv","","475.80000001192093","resources/trios/L1T4A1.jpg","37","restless",0.6,0.4,0.8,0.361233692093411,"true"
"image-keyboard-response",90,154679,"0.0-3.26-1.26","1uwhsq6u0dzuncq",308,"147.csv","","null","resources/maskTrios/L1BB.jpg","null","",NA,NA,NA,NA,""
"image-keyboard-response",91,155884,"0.0-3.26-2.26","1uwhsq6u0dzuncq",308,"147.csv","","null","resources/images/coin2.png","null","",NA,NA,NA,NA,""
"image-keyboard-response",92,156501,"0.0-3.27-0.27","1uwhsq6u0dzuncq",308,"147.csv","","615.2000000178814","resources/trios/L1T2A3.jpg","38","restless",0.5,0.4,0.8,0.956958736459597,"false"
"image-keyboard-response",93,156902,"0.0-3.27-1.27","1uwhsq6u0dzuncq",308,"147.csv","","null","resources/maskTrios/BT2B.jpg","null","",NA,NA,NA,NA,""
"image-keyboard-response",94,158104,"0.0-3.27-2.27","1uwhsq6u0dzuncq",308,"147.csv","","null","resources/images/fishbone.png","null","",NA,NA,NA,NA,""
"image-keyboard-response",95,159334,"0.0-3.28-0.28","1uwhsq6u0dzuncq",308,"147.csv","","1229.5999999940395","resources/trios/L1T2A1.jpg","39","restless",0.5,0.4,0.8,0.348045541269835,"true"
"image-keyboard-response",96,159738,"0.0-3.28-1.28","1uwhsq6u0dzuncq",308,"147.csv","","null","resources/maskTrios/BBA1.jpg","null","",NA,NA,NA,NA,""
"image-keyboard-response",97,160942,"0.0-3.28-2.28","1uwhsq6u0dzuncq",308,"147.csv","","null","resources/images/coin2.png","null","",NA,NA,NA,NA,""
"image-keyboard-response",98,161780,"0.0-3.29-0.29","1uwhsq6u0dzuncq",308,"147.csv","","836.5","resources/trios/L2T4A1.jpg","37","restless",0.5,0.4,0.8,0.00966473644660848,"true"
"image-keyboard-response",99,162185,"0.0-3.29-1.29","1uwhsq6u0dzuncq",308,"147.csv","","null","resources/maskTrios/L2BB.jpg","null","",NA,NA,NA,NA,""
"image-keyboard-response",100,163390,"0.0-3.29-2.29","1uwhsq6u0dzuncq",308,"147.csv","","null","resources/images/coin2.png","null","",NA,NA,NA,NA,""
"image-keyboard-response",101,165237,"0.0-3.30-0.30","1uwhsq6u0dzuncq",308,"147.csv","","1845.300000011921","resources/trios/L2T2A1.jpg","38","restless",0.5,0.4,0.7,0.687744510089354,"false"
"image-keyboard-response",102,165643,"0.0-3.30-1.30","1uwhsq6u0dzuncq",308,"147.csv","","null","resources/maskTrios/BT2B.jpg","null","",NA,NA,NA,NA,""
"image-keyboard-response",103,166846,"0.0-3.30-2.30","1uwhsq6u0dzuncq",308,"147.csv","","null","resources/images/fishbone.png","null","",NA,NA,NA,NA,""
"image-keyboard-response",104,167561,"0.0-3.31-0.31","1uwhsq6u0dzuncq",308,"147.csv","","713.8000000119209","resources/trios/L1T2A3.jpg","37","restless",0.5,0.4,0.7,0.584479837884143,"false"
"image-keyboard-response",105,167967,"0.0-3.31-1.31","1uwhsq6u0dzuncq",308,"147.csv","","null","resources/maskTrios/L1BB.jpg","null","",NA,NA,NA,NA,""
"image-keyboard-response",106,169171,"0.0-3.31-2.31","1uwhsq6u0dzuncq",308,"147.csv","","null","resources/images/fishbone.png","null","",NA,NA,NA,NA,""
"image-keyboard-response",107,169585,"0.0-3.32-0.32","1uwhsq6u0dzuncq",308,"147.csv","","413.59999999403954","resources/trios/L2T4A1.jpg","37","restless",0.4,0.4,0.7,0.410229572478167,"false"
"image-keyboard-response",108,169987,"0.0-3.32-1.32","1uwhsq6u0dzuncq",308,"147.csv","","null","resources/maskTrios/L2BB.jpg","null","",NA,NA,NA,NA,""
"image-keyboard-response",109,171190,"0.0-3.32-2.32","1uwhsq6u0dzuncq",308,"147.csv","","null","resources/images/fishbone.png","null","",NA,NA,NA,NA,""
"image-keyboard-response",110,171598,"0.0-3.33-0.33","1uwhsq6u0dzuncq",308,"147.csv","","407.40000000596046","resources/trios/L1T4A1.jpg","37","restless",0.4,0.4,0.6,0.381068400102074,"true"
"image-keyboard-response",111,172001,"0.0-3.33-1.33","1uwhsq6u0dzuncq",308,"147.csv","","null","resources/maskTrios/L1BB.jpg","null","",NA,NA,NA,NA,""
"image-keyboard-response",112,173203,"0.0-3.33-2.33","1uwhsq6u0dzuncq",308,"147.csv","","null","resources/images/coin2.png","null","",NA,NA,NA,NA,""
"image-keyboard-response",113,173857,"0.0-3.34-0.34","1uwhsq6u0dzuncq",308,"147.csv","","652.5999999940395","resources/trios/L1T2A1.jpg","39","restless",0.4,0.4,0.6,0.773313829458563,"false"
"image-keyboard-response",114,174259,"0.0-3.34-1.34","1uwhsq6u0dzuncq",308,"147.csv","","null","resources/maskTrios/BBA1.jpg","null","",NA,NA,NA,NA,""
"image-keyboard-response",115,175463,"0.0-3.34-2.34","1uwhsq6u0dzuncq",308,"147.csv","","null","resources/images/fishbone.png","null","",NA,NA,NA,NA,""
"image-keyboard-response",116,176208,"0.0-3.35-0.35","1uwhsq6u0dzuncq",308,"147.csv","","744.3000000119209","resources/trios/L1T2A3.jpg","39","restless",0.4,0.4,0.6,0.552708547226269,"true"
"image-keyboard-response",117,176610,"0.0-3.35-1.35","1uwhsq6u0dzuncq",308,"147.csv","","null","resources/maskTrios/BBA3.jpg","null","",NA,NA,NA,NA,""
"image-keyboard-response",118,177813,"0.0-3.35-2.35","1uwhsq6u0dzuncq",308,"147.csv","","null","resources/images/coin2.png","null","",NA,NA,NA,NA,""
"image-keyboard-response",119,178558,"0.0-3.36-0.36","1uwhsq6u0dzuncq",308,"147.csv","","743.4000000059605","resources/trios/L2T4A3.jpg","37","restless",0.4,0.4,0.6,0.182699134361786,"true"
"image-keyboard-response",120,178961,"0.0-3.36-1.36","1uwhsq6u0dzuncq",308,"147.csv","","null","resources/maskTrios/L2BB.jpg","null","",NA,NA,NA,NA,""
"image-keyboard-response",121,180163,"0.0-3.36-2.36","1uwhsq6u0dzuncq",308,"147.csv","","null","resources/images/coin2.png","null","",NA,NA,NA,NA,""
"image-keyboard-response",122,181601,"0.0-3.37-0.37","1uwhsq6u0dzuncq",308,"147.csv","","1437","resources/trios/L2T2A3.jpg","37","restless",0.4,0.4,0.6,0.0207831518746859,"true"
"image-keyboard-response",123,182003,"0.0-3.37-1.37","1uwhsq6u0dzuncq",308,"147.csv","","null","resources/maskTrios/L2BB.jpg","null","",NA,NA,NA,NA,""
"image-keyboard-response",124,183208,"0.0-3.37-2.37","1uwhsq6u0dzuncq",308,"147.csv","","null","resources/images/coin2.png","null","",NA,NA,NA,NA,""
"image-keyboard-response",125,183751,"0.0-3.38-0.38","1uwhsq6u0dzuncq",308,"147.csv","","541.9000000059605","resources/trios/L2T2A3.jpg","39","restless",0.4,0.4,0.6,0.189769351265518,"true"
"image-keyboard-response",126,184157,"0.0-3.38-1.38","1uwhsq6u0dzuncq",308,"147.csv","","null","resources/maskTrios/BBA3.jpg","null","",NA,NA,NA,NA,""
"image-keyboard-response",127,185362,"0.0-3.38-2.38","1uwhsq6u0dzuncq",308,"147.csv","","null","resources/images/coin2.png","null","",NA,NA,NA,NA,""
"image-keyboard-response",128,185828,"0.0-3.39-0.39","1uwhsq6u0dzuncq",308,"147.csv","","465.30000001192093","resources/trios/L1T4A3.jpg","37","restless",0.4,0.4,0.6,0.372821825992873,"true"
"image-keyboard-response",129,186229,"0.0-3.39-1.39","1uwhsq6u0dzuncq",308,"147.csv","","null","resources/maskTrios/L1BB.jpg","null","",NA,NA,NA,NA,""
"image-keyboard-response",130,187431,"0.0-3.39-2.39","1uwhsq6u0dzuncq",308,"147.csv","","null","resources/images/coin2.png","null","",NA,NA,NA,NA,""
"image-keyboard-response",131,187974,"0.0-3.40-0.40","1uwhsq6u0dzuncq",308,"147.csv","","541.5999999940395","resources/trios/L2T2A1.jpg","37","restless",0.4,0.4,0.6,0.281988462925874,"true"
"image-keyboard-response",132,188377,"0.0-3.40-1.40","1uwhsq6u0dzuncq",308,"147.csv","","null","resources/maskTrios/L2BB.jpg","null","",NA,NA,NA,NA,""
"image-keyboard-response",133,189580,"0.0-3.40-2.40","1uwhsq6u0dzuncq",308,"147.csv","","null","resources/images/coin2.png","null","",NA,NA,NA,NA,""
"image-keyboard-response",134,190882,"0.0-3.41-0.41","1uwhsq6u0dzuncq",308,"147.csv","","1301.4000000059605","resources/trios/L1T4A3.jpg","37","restless",0.4,0.4,0.6,0.781892758323677,"false"
"image-keyboard-response",135,191286,"0.0-3.41-1.41","1uwhsq6u0dzuncq",308,"147.csv","","null","resources/maskTrios/L1BB.jpg","null","",NA,NA,NA,NA,""
"image-keyboard-response",136,192487,"0.0-3.41-2.41","1uwhsq6u0dzuncq",308,"147.csv","","null","resources/images/fishbone.png","null","",NA,NA,NA,NA,""
"image-keyboard-response",137,193356,"0.0-3.42-0.42","1uwhsq6u0dzuncq",308,"147.csv","","867.5","resources/trios/L2T4A1.jpg","37","restless",0.4,0.4,0.5,0.964862569940639,"false"
"image-keyboard-response",138,193758,"0.0-3.42-1.42","1uwhsq6u0dzuncq",308,"147.csv","","null","resources/maskTrios/L2BB.jpg","null","",NA,NA,NA,NA,""
"image-keyboard-response",139,194960,"0.0-3.42-2.42","1uwhsq6u0dzuncq",308,"147.csv","","null","resources/images/fishbone.png","null","",NA,NA,NA,NA,""
"image-keyboard-response",140,195626,"0.0-3.43-0.43","1uwhsq6u0dzuncq",308,"147.csv","","663.9000000059605","resources/trios/L1T4A3.jpg","39","restless",0.4,0.4,0.5,0.0390536445966423,"true"
"image-keyboard-response",141,196028,"0.0-3.43-1.43","1uwhsq6u0dzuncq",308,"147.csv","","null","resources/maskTrios/BBA3.jpg","null","",NA,NA,NA,NA,""
"image-keyboard-response",142,197229,"0.0-3.43-2.43","1uwhsq6u0dzuncq",308,"147.csv","","null","resources/images/coin2.png","null","",NA,NA,NA,NA,""
"image-keyboard-response",143,197894,"0.0-3.44-0.44","1uwhsq6u0dzuncq",308,"147.csv","","663.2000000178814","resources/trios/L1T2A1.jpg","37","restless",0.4,0.4,0.5,0.143872507367175,"true"
"image-keyboard-response",144,198299,"0.0-3.44-1.44","1uwhsq6u0dzuncq",308,"147.csv","","null","resources/maskTrios/L1BB.jpg","null","",NA,NA,NA,NA,""
"image-keyboard-response",145,199504,"0.0-3.44-2.44","1uwhsq6u0dzuncq",308,"147.csv","","null","resources/images/coin2.png","null","",NA,NA,NA,NA,""
"image-keyboard-response",146,200097,"0.0-3.45-0.45","1uwhsq6u0dzuncq",308,"147.csv","","591.8000000119209","resources/trios/L2T4A3.jpg","37","restless",0.4,0.5,0.5,0.201145026673163,"true"
"image-keyboard-response",147,200498,"0.0-3.45-1.45","1uwhsq6u0dzuncq",308,"147.csv","","null","resources/maskTrios/L2BB.jpg","null","",NA,NA,NA,NA,""
"image-keyboard-response",148,201701,"0.0-3.45-2.45","1uwhsq6u0dzuncq",308,"147.csv","","null","resources/images/coin2.png","null","",NA,NA,NA,NA,""
"image-keyboard-response",149,202230,"0.0-3.46-0.46","1uwhsq6u0dzuncq",308,"147.csv","","527.5999999940395","resources/trios/L2T4A3.jpg","39","restless",0.4,0.5,0.5,0.196969003949241,"true"
"image-keyboard-response",150,202634,"0.0-3.46-1.46","1uwhsq6u0dzuncq",308,"147.csv","","null","resources/maskTrios/BBA3.jpg","null","",NA,NA,NA,NA,""
"image-keyboard-response",151,203836,"0.0-3.46-2.46","1uwhsq6u0dzuncq",308,"147.csv","","null","resources/images/coin2.png","null","",NA,NA,NA,NA,""
"image-keyboard-response",152,204506,"0.0-3.47-0.47","1uwhsq6u0dzuncq",308,"147.csv","","668.5999999940395","resources/trios/L2T4A3.jpg","37","restless",0.4,0.5,0.5,0.462181866931254,"false"
"image-keyboard-response",153,204910,"0.0-3.47-1.47","1uwhsq6u0dzuncq",308,"147.csv","","null","resources/maskTrios/L2BB.jpg","null","",NA,NA,NA,NA,""
"image-keyboard-response",154,206116,"0.0-3.47-2.47","1uwhsq6u0dzuncq",308,"147.csv","","null","resources/images/fishbone.png","null","",NA,NA,NA,NA,""
"image-keyboard-response",155,206605,"0.0-3.48-0.48","1uwhsq6u0dzuncq",308,"147.csv","","487.7999999821186","resources/trios/L1T2A1.jpg","37","restless",0.4,0.5,0.5,0.748921859998588,"false"
"image-keyboard-response",156,207006,"0.0-3.48-1.48","1uwhsq6u0dzuncq",308,"147.csv","","null","resources/maskTrios/L1BB.jpg","null","",NA,NA,NA,NA,""
"image-keyboard-response",157,208211,"0.0-3.48-2.48","1uwhsq6u0dzuncq",308,"147.csv","","null","resources/images/fishbone.png","null","",NA,NA,NA,NA,""
"image-keyboard-response",158,208974,"0.0-3.49-0.49","1uwhsq6u0dzuncq",308,"147.csv","","761.1999999880791","resources/trios/L1T2A3.jpg","38","restless",0.4,0.5,0.5,0.018305376864983,"true"
"image-keyboard-response",159,209378,"0.0-3.49-1.49","1uwhsq6u0dzuncq",308,"147.csv","","null","resources/maskTrios/BT2B.jpg","null","",NA,NA,NA,NA,""
"image-keyboard-response",160,210581,"0.0-3.49-2.49","1uwhsq6u0dzuncq",308,"147.csv","","null","resources/images/coin2.png","null","",NA,NA,NA,NA,""
"image-keyboard-response",161,211445,"0.0-3.50-0.50","1uwhsq6u0dzuncq",308,"147.csv","","862.5999999940395","resources/trios/L2T4A1.jpg","38","restless",0.4,0.5,0.5,0.618484545990241,"false"
"image-keyboard-response",162,211847,"0.0-3.50-1.50","1uwhsq6u0dzuncq",308,"147.csv","","null","resources/maskTrios/BT4B.jpg","null","",NA,NA,NA,NA,""
"image-keyboard-response",163,213049,"0.0-3.50-2.50","1uwhsq6u0dzuncq",308,"147.csv","","null","resources/images/fishbone.png","null","",NA,NA,NA,NA,""
"image-keyboard-response",164,213402,"0.0-3.51-0.51","1uwhsq6u0dzuncq",308,"147.csv","","352.19999998807907","resources/trios/L2T4A1.jpg","37","restless",0.4,0.6,0.5,0.557781096119576,"false"
"image-keyboard-response",165,213804,"0.0-3.51-1.51","1uwhsq6u0dzuncq",308,"147.csv","","null","resources/maskTrios/L2BB.jpg","null","",NA,NA,NA,NA,""
"image-keyboard-response",166,215005,"0.0-3.51-2.51","1uwhsq6u0dzuncq",308,"147.csv","","null","resources/images/fishbone.png","null","",NA,NA,NA,NA,""
"image-keyboard-response",167,215398,"0.0-3.52-0.52","1uwhsq6u0dzuncq",308,"147.csv","","391.59999999403954","resources/trios/L1T4A3.jpg","37","restless",0.4,0.6,0.5,0.30260298025104,"true"
"image-keyboard-response",168,215802,"0.0-3.52-1.52","1uwhsq6u0dzuncq",308,"147.csv","","null","resources/maskTrios/L1BB.jpg","null","",NA,NA,NA,NA,""
"image-keyboard-response",169,217008,"0.0-3.52-2.52","1uwhsq6u0dzuncq",308,"147.csv","","null","resources/images/coin2.png","null","",NA,NA,NA,NA,""
"image-keyboard-response",170,217478,"0.0-3.53-0.53","1uwhsq6u0dzuncq",308,"147.csv","","468.90000000596046","resources/trios/L1T4A3.jpg","39","restless",0.4,0.6,0.5,0.880114066884942,"false"
"image-keyboard-response",171,217883,"0.0-3.53-1.53","1uwhsq6u0dzuncq",308,"147.csv","","null","resources/maskTrios/BBA3.jpg","null","",NA,NA,NA,NA,""
"image-keyboard-response",172,219088,"0.0-3.53-2.53","1uwhsq6u0dzuncq",308,"147.csv","","null","resources/images/fishbone.png","null","",NA,NA,NA,NA,""
"image-keyboard-response",173,219499,"0.0-3.54-0.54","1uwhsq6u0dzuncq",308,"147.csv","","409.90000000596046","resources/trios/L2T4A1.jpg","37","restless",0.4,0.6,0.5,0.83225093439171,"false"
"image-keyboard-response",174,219905,"0.0-3.54-1.54","1uwhsq6u0dzuncq",308,"147.csv","","null","resources/maskTrios/L2BB.jpg","null","",NA,NA,NA,NA,""
"image-keyboard-response",175,221106,"0.0-3.54-2.54","1uwhsq6u0dzuncq",308,"147.csv","","null","resources/images/fishbone.png","null","",NA,NA,NA,NA,""
"image-keyboard-response",176,221496,"0.0-3.55-0.55","1uwhsq6u0dzuncq",308,"147.csv","","388.2000000178814","resources/trios/L1T2A3.jpg","37","restless",0.4,0.6,0.5,0.920982982828189,"false"
"image-keyboard-response",177,221898,"0.0-3.55-1.55","1uwhsq6u0dzuncq",308,"147.csv","","null","resources/maskTrios/L1BB.jpg","null","",NA,NA,NA,NA,""
"image-keyboard-response",178,223103,"0.0-3.55-2.55","1uwhsq6u0dzuncq",308,"147.csv","","null","resources/images/fishbone.png","null","",NA,NA,NA,NA,""
"image-keyboard-response",179,223525,"0.0-3.56-0.56","1uwhsq6u0dzuncq",308,"147.csv","","420.90000000596046","resources/trios/L2T4A3.jpg","38","restless",0.4,0.6,0.4,0.190033203505841,"true"
"image-keyboard-response",180,223928,"0.0-3.56-1.56","1uwhsq6u0dzuncq",308,"147.csv","","null","resources/maskTrios/BT4B.jpg","null","",NA,NA,NA,NA,""
"image-keyboard-response",181,225131,"0.0-3.56-2.56","1uwhsq6u0dzuncq",308,"147.csv","","null","resources/images/coin2.png","null","",NA,NA,NA,NA,""
"image-keyboard-response",182,225592,"0.0-3.57-0.57","1uwhsq6u0dzuncq",308,"147.csv","","459.80000001192093","resources/trios/L2T4A3.jpg","38","restless",0.4,0.6,0.3,0.535442405333675,"true"
"image-keyboard-response",183,225997,"0.0-3.57-1.57","1uwhsq6u0dzuncq",308,"147.csv","","null","resources/maskTrios/BT4B.jpg","null","",NA,NA,NA,NA,""
"image-keyboard-response",184,227202,"0.0-3.57-2.57","1uwhsq6u0dzuncq",308,"147.csv","","null","resources/images/coin2.png","null","",NA,NA,NA,NA,""
"image-keyboard-response",185,227541,"0.0-3.58-0.58","1uwhsq6u0dzuncq",308,"147.csv","","338.19999998807907","resources/trios/L1T2A3.jpg","38","restless",0.4,0.5,0.3,0.223275141747922,"true"
"image-keyboard-response",186,227945,"0.0-3.58-1.58","1uwhsq6u0dzuncq",308,"147.csv","","null","resources/maskTrios/BT2B.jpg","null","",NA,NA,NA,NA,""
"image-keyboard-response",187,229146,"0.0-3.58-2.58","1uwhsq6u0dzuncq",308,"147.csv","","null","resources/images/coin2.png","null","",NA,NA,NA,NA,""
"image-keyboard-response",188,229523,"0.0-3.59-0.59","1uwhsq6u0dzuncq",308,"147.csv","","375.80000001192093","resources/trios/L2T4A3.jpg","38","restless",0.4,0.5,0.3,0.28920133990568,"true"
"image-keyboard-response",189,229928,"0.0-3.59-1.59","1uwhsq6u0dzuncq",308,"147.csv","","null","resources/maskTrios/BT4B.jpg","null","",NA,NA,NA,NA,""
"image-keyboard-response",190,231132,"0.0-3.59-2.59","1uwhsq6u0dzuncq",308,"147.csv","","null","resources/images/coin2.png","null","",NA,NA,NA,NA,""
"image-keyboard-response",191,231458,"0.0-3.60-0.60","1uwhsq6u0dzuncq",308,"147.csv","","325.2999999821186","resources/trios/L2T2A1.jpg","38","restless",0.4,0.6,0.3,0.327395635196744,"true"
"image-keyboard-response",192,231863,"0.0-3.60-1.60","1uwhsq6u0dzuncq",308,"147.csv","","null","resources/maskTrios/BT2B.jpg","null","",NA,NA,NA,NA,""
"image-keyboard-response",193,233065,"0.0-3.60-2.60","1uwhsq6u0dzuncq",308,"147.csv","","null","resources/images/coin2.png","null","",NA,NA,NA,NA,""
"image-keyboard-response",194,233424,"0.0-3.61-0.61","1uwhsq6u0dzuncq",308,"147.csv","","357.89999997615814","resources/trios/L1T2A1.jpg","38","restless",0.4,0.6,0.3,0.0398921270127917,"true"
"image-keyboard-response",195,233825,"0.0-3.61-1.61","1uwhsq6u0dzuncq",308,"147.csv","","null","resources/maskTrios/BT2B.jpg","null","",NA,NA,NA,NA,""
"image-keyboard-response",196,235028,"0.0-3.61-2.61","1uwhsq6u0dzuncq",308,"147.csv","","null","resources/images/coin2.png","null","",NA,NA,NA,NA,""
"image-keyboard-response",197,235320,"0.0-3.62-0.62","1uwhsq6u0dzuncq",308,"147.csv","","290.80000001192093","resources/trios/L1T4A1.jpg","38","restless",0.4,0.6,0.3,0.179832727913981,"true"
"image-keyboard-response",198,235723,"0.0-3.62-1.62","1uwhsq6u0dzuncq",308,"147.csv","","null","resources/maskTrios/BT4B.jpg","null","",NA,NA,NA,NA,""
"image-keyboard-response",199,236925,"0.0-3.62-2.62","1uwhsq6u0dzuncq",308,"147.csv","","null","resources/images/coin2.png","null","",NA,NA,NA,NA,""
"image-keyboard-response",200,237411,"0.0-3.63-0.63","1uwhsq6u0dzuncq",308,"147.csv","","485","resources/trios/L2T2A1.jpg","38","restless",0.4,0.5,0.3,0.300920112276645,"true"
"image-keyboard-response",201,237816,"0.0-3.63-1.63","1uwhsq6u0dzuncq",308,"147.csv","","null","resources/maskTrios/BT2B.jpg","null","",NA,NA,NA,NA,""
"image-keyboard-response",202,239021,"0.0-3.63-2.63","1uwhsq6u0dzuncq",308,"147.csv","","null","resources/images/coin2.png","null","",NA,NA,NA,NA,""
"image-keyboard-response",203,239372,"0.0-3.64-0.64","1uwhsq6u0dzuncq",308,"147.csv","","349.7999999821186","resources/trios/L1T4A3.jpg","38","restless",0.4,0.5,0.3,0.792272068958853,"false"
"image-keyboard-response",204,239775,"0.0-3.64-1.64","1uwhsq6u0dzuncq",308,"147.csv","","null","resources/maskTrios/BT4B.jpg","null","",NA,NA,NA,NA,""
"image-keyboard-response",205,240977,"0.0-3.64-2.64","1uwhsq6u0dzuncq",308,"147.csv","","null","resources/images/fishbone.png","null","",NA,NA,NA,NA,""
"image-keyboard-response",206,241342,"0.0-3.65-0.65","1uwhsq6u0dzuncq",308,"147.csv","","363.39999997615814","resources/trios/L2T4A3.jpg","37","restless",0.4,0.5,0.3,0.340207846298124,"true"
"image-keyboard-response",207,241745,"0.0-3.65-1.65","1uwhsq6u0dzuncq",308,"147.csv","","null","resources/maskTrios/L2BB.jpg","null","",NA,NA,NA,NA,""
"image-keyboard-response",208,242951,"0.0-3.65-2.65","1uwhsq6u0dzuncq",308,"147.csv","","null","resources/images/coin2.png","null","",NA,NA,NA,NA,""
"image-keyboard-response",209,243321,"0.0-3.66-0.66","1uwhsq6u0dzuncq",308,"147.csv","","369","resources/trios/L2T2A1.jpg","37","restless",0.4,0.5,0.3,0.496822307783379,"false"
"image-keyboard-response",210,243723,"0.0-3.66-1.66","1uwhsq6u0dzuncq",308,"147.csv","","null","resources/maskTrios/L2BB.jpg","null","",NA,NA,NA,NA,""
"image-keyboard-response",211,244924,"0.0-3.66-2.66","1uwhsq6u0dzuncq",308,"147.csv","","null","resources/images/fishbone.png","null","",NA,NA,NA,NA,""
"image-keyboard-response",212,245312,"0.0-3.67-0.67","1uwhsq6u0dzuncq",308,"147.csv","","387.09999999403954","resources/trios/L1T2A3.jpg","39","restless",0.4,0.5,0.3,0.991022527307915,"false"
"image-keyboard-response",213,245719,"0.0-3.67-1.67","1uwhsq6u0dzuncq",308,"147.csv","","null","resources/maskTrios/BBA3.jpg","null","",NA,NA,NA,NA,""
"image-keyboard-response",214,246921,"0.0-3.67-2.67","1uwhsq6u0dzuncq",308,"147.csv","","null","resources/images/fishbone.png","null","",NA,NA,NA,NA,""
"image-keyboard-response",215,247375,"0.0-3.68-0.68","1uwhsq6u0dzuncq",308,"147.csv","","452.2999999821186","resources/trios/L1T4A1.jpg","38","restless",0.4,0.5,0.3,0.894674118779154,"false"
"image-keyboard-response",216,247781,"0.0-3.68-1.68","1uwhsq6u0dzuncq",308,"147.csv","","null","resources/maskTrios/BT4B.jpg","null","",NA,NA,NA,NA,""
"image-keyboard-response",217,248985,"0.0-3.68-2.68","1uwhsq6u0dzuncq",308,"147.csv","","null","resources/images/fishbone.png","null","",NA,NA,NA,NA,""
"image-keyboard-response",218,249308,"0.0-3.69-0.69","1uwhsq6u0dzuncq",308,"147.csv","","321.7000000178814","resources/trios/L2T4A3.jpg","37","restless",0.5,0.5,0.3,0.528974617674695,"false"
"image-keyboard-response",219,249713,"0.0-3.69-1.69","1uwhsq6u0dzuncq",308,"147.csv","","null","resources/maskTrios/L2BB.jpg","null","",NA,NA,NA,NA,""
"image-keyboard-response",220,250917,"0.0-3.69-2.69","1uwhsq6u0dzuncq",308,"147.csv","","null","resources/images/fishbone.png","null","",NA,NA,NA,NA,""
"image-keyboard-response",221,251296,"0.0-3.70-0.70","1uwhsq6u0dzuncq",308,"147.csv","","378.40000000596046","resources/trios/L2T2A1.jpg","37","restless",0.5,0.5,0.3,0.455079718757709,"true"
"image-keyboard-response",222,251698,"0.0-3.70-1.70","1uwhsq6u0dzuncq",308,"147.csv","","null","resources/maskTrios/L2BB.jpg","null","",NA,NA,NA,NA,""
"image-keyboard-response",223,252901,"0.0-3.70-2.70","1uwhsq6u0dzuncq",308,"147.csv","","null","resources/images/coin2.png","null","",NA,NA,NA,NA,""
"image-keyboard-response",224,253293,"0.0-3.71-0.71","1uwhsq6u0dzuncq",308,"147.csv","","391.5","resources/trios/L2T4A3.jpg","37","restless",0.5,0.5,0.3,0.603940507686061,"false"
"image-keyboard-response",225,253696,"0.0-3.71-1.71","1uwhsq6u0dzuncq",308,"147.csv","","null","resources/maskTrios/L2BB.jpg","null","",NA,NA,NA,NA,""
"image-keyboard-response",226,254899,"0.0-3.71-2.71","1uwhsq6u0dzuncq",308,"147.csv","","null","resources/images/fishbone.png","null","",NA,NA,NA,NA,""
"image-keyboard-response",227,255241,"0.0-3.72-0.72","1uwhsq6u0dzuncq",308,"147.csv","","341.2000000178814","resources/trios/L1T2A3.jpg","39","restless",0.5,0.5,0.3,0.552117476892255,"false"
"image-keyboard-response",228,255646,"0.0-3.72-1.72","1uwhsq6u0dzuncq",308,"147.csv","","null","resources/maskTrios/BBA3.jpg","null","",NA,NA,NA,NA,""
"image-keyboard-response",229,256849,"0.0-3.72-2.72","1uwhsq6u0dzuncq",308,"147.csv","","null","resources/images/fishbone.png","null","",NA,NA,NA,NA,""
"image-keyboard-response",230,257207,"0.0-3.73-0.73","1uwhsq6u0dzuncq",308,"147.csv","","357.30000001192093","resources/trios/L1T4A3.jpg","38","restless",0.5,0.4,0.2,0.281493734550731,"true"
"image-keyboard-response",231,257609,"0.0-3.73-1.73","1uwhsq6u0dzuncq",308,"147.csv","","null","resources/maskTrios/BT4B.jpg","null","",NA,NA,NA,NA,""
"image-keyboard-response",232,258813,"0.0-3.73-2.73","1uwhsq6u0dzuncq",308,"147.csv","","null","resources/images/coin2.png","null","",NA,NA,NA,NA,""
"image-keyboard-response",233,258815,"0.0-3.74-0.74","1uwhsq6u0dzuncq",308,"147.csv","","1.2000000178813934","resources/trios/L1T4A3.jpg","38","restless",0.5,0.4,0.2,0.0651414535926793,"true"
"image-keyboard-response",234,259216,"0.0-3.74-1.74","1uwhsq6u0dzuncq",308,"147.csv","","null","resources/maskTrios/BT4B.jpg","null","",NA,NA,NA,NA,""
"image-keyboard-response",235,260419,"0.0-3.74-2.74","1uwhsq6u0dzuncq",308,"147.csv","","null","resources/images/coin2.png","null","",NA,NA,NA,NA,""
"image-keyboard-response",236,260594,"0.0-3.75-0.75","1uwhsq6u0dzuncq",308,"147.csv","","173.7000000178814","resources/trios/L1T2A1.jpg","38","restless",0.5,0.4,0.2,0.819856757839897,"false"
"image-keyboard-response",237,260999,"0.0-3.75-1.75","1uwhsq6u0dzuncq",308,"147.csv","","null","resources/maskTrios/BT2B.jpg","null","",NA,NA,NA,NA,""
"image-keyboard-response",238,262202,"0.0-3.75-2.75","1uwhsq6u0dzuncq",308,"147.csv","","null","resources/images/fishbone.png","null","",NA,NA,NA,NA,""
"image-keyboard-response",239,262551,"0.0-3.76-0.76","1uwhsq6u0dzuncq",308,"147.csv","","348.10000002384186","resources/trios/L1T2A3.jpg","37","restless",0.5,0.4,0.2,0.844795953060552,"false"
"image-keyboard-response",240,262955,"0.0-3.76-1.76","1uwhsq6u0dzuncq",308,"147.csv","","null","resources/maskTrios/L1BB.jpg","null","",NA,NA,NA,NA,""
"image-keyboard-response",241,264156,"0.0-3.76-2.76","1uwhsq6u0dzuncq",308,"147.csv","","null","resources/images/fishbone.png","null","",NA,NA,NA,NA,""
"image-keyboard-response",242,264521,"0.0-3.77-0.77","1uwhsq6u0dzuncq",308,"147.csv","","364","resources/trios/L2T4A1.jpg","37","restless",0.6,0.4,0.2,0.426046168221857,"true"
"image-keyboard-response",243,264923,"0.0-3.77-1.77","1uwhsq6u0dzuncq",308,"147.csv","","null","resources/maskTrios/L2BB.jpg","null","",NA,NA,NA,NA,""
"image-keyboard-response",244,266124,"0.0-3.77-2.77","1uwhsq6u0dzuncq",308,"147.csv","","null","resources/images/coin2.png","null","",NA,NA,NA,NA,""
"image-keyboard-response",245,266495,"0.0-3.78-0.78","1uwhsq6u0dzuncq",308,"147.csv","","369.80000001192093","resources/trios/L1T4A1.jpg","37","restless",0.6,0.4,0.2,0.13131012911025,"true"
"image-keyboard-response",246,266896,"0.0-3.78-1.78","1uwhsq6u0dzuncq",308,"147.csv","","null","resources/maskTrios/L1BB.jpg","null","",NA,NA,NA,NA,""
"image-keyboard-response",247,268099,"0.0-3.78-2.78","1uwhsq6u0dzuncq",308,"147.csv","","null","resources/images/coin2.png","null","",NA,NA,NA,NA,""
"image-keyboard-response",248,268463,"0.0-3.79-0.79","1uwhsq6u0dzuncq",308,"147.csv","","362.7999999821186","resources/trios/L1T4A1.jpg","39","restless",0.6,0.4,0.2,0.15964453835053,"true"
"image-keyboard-response",249,268865,"0.0-3.79-1.79","1uwhsq6u0dzuncq",308,"147.csv","","null","resources/maskTrios/BBA1.jpg","null","",NA,NA,NA,NA,""
"image-keyboard-response",250,270066,"0.0-3.79-2.79","1uwhsq6u0dzuncq",308,"147.csv","","null","resources/images/coin2.png","null","",NA,NA,NA,NA,""
"image-keyboard-response",251,270506,"0.0-3.80-0.80","1uwhsq6u0dzuncq",308,"147.csv","","438.7999999821186","resources/trios/L2T4A1.jpg","38","restless",0.6,0.4,0.3,0.404524766594289,"false"
"image-keyboard-response",252,270909,"0.0-3.80-1.80","1uwhsq6u0dzuncq",308,"147.csv","","null","resources/maskTrios/BT4B.jpg","null","",NA,NA,NA,NA,""
"image-keyboard-response",253,272113,"0.0-3.80-2.80","1uwhsq6u0dzuncq",308,"147.csv","","null","resources/images/fishbone.png","null","",NA,NA,NA,NA,""
"image-keyboard-response",254,272574,"0.0-3.81-0.81","1uwhsq6u0dzuncq",308,"147.csv","","459.90000000596046","resources/trios/L2T2A1.jpg","37","restless",0.6,0.3,0.3,0.109976156541339,"true"
"image-keyboard-response",255,272979,"0.0-3.81-1.81","1uwhsq6u0dzuncq",308,"147.csv","","null","resources/maskTrios/L2BB.jpg","null","",NA,NA,NA,NA,""
"image-keyboard-response",256,274182,"0.0-3.81-2.81","1uwhsq6u0dzuncq",308,"147.csv","","null","resources/images/coin2.png","null","",NA,NA,NA,NA,""
"image-keyboard-response",257,274624,"0.0-3.82-0.82","1uwhsq6u0dzuncq",308,"147.csv","","440.7000000178814","resources/trios/L1T2A3.jpg","37","restless",0.6,0.3,0.3,0.201809667344798,"true"
"image-keyboard-response",258,275029,"0.0-3.82-1.82","1uwhsq6u0dzuncq",308,"147.csv","","null","resources/maskTrios/L1BB.jpg","null","",NA,NA,NA,NA,""
"image-keyboard-response",259,276231,"0.0-3.82-2.82","1uwhsq6u0dzuncq",308,"147.csv","","null","resources/images/coin2.png","null","",NA,NA,NA,NA,""
"image-keyboard-response",260,277101,"0.0-3.83-0.83","1uwhsq6u0dzuncq",308,"147.csv","","869","resources/trios/L2T2A3.jpg","39","restless",0.6,0.3,0.3,0.0637446223079041,"true"
"image-keyboard-response",261,277502,"0.0-3.83-1.83","1uwhsq6u0dzuncq",308,"147.csv","","null","resources/maskTrios/BBA3.jpg","null","",NA,NA,NA,NA,""
"image-keyboard-response",262,278704,"0.0-3.83-2.83","1uwhsq6u0dzuncq",308,"147.csv","","null","resources/images/coin2.png","null","",NA,NA,NA,NA,""
"image-keyboard-response",263,278991,"0.0-3.84-0.84","1uwhsq6u0dzuncq",308,"147.csv","","286","resources/trios/L2T2A3.jpg","39","restless",0.6,0.2,0.3,0.204165502261937,"true"
"image-keyboard-response",264,279395,"0.0-3.84-1.84","1uwhsq6u0dzuncq",308,"147.csv","","null","resources/maskTrios/BBA3.jpg","null","",NA,NA,NA,NA,""
"image-keyboard-response",265,280597,"0.0-3.84-2.84","1uwhsq6u0dzuncq",308,"147.csv","","null","resources/images/coin2.png","null","",NA,NA,NA,NA,""
"image-keyboard-response",266,281012,"0.0-3.85-0.85","1uwhsq6u0dzuncq",308,"147.csv","","414.2999999821186","resources/trios/L1T2A1.jpg","39","restless",0.6,0.3,0.3,0.0097240277404036,"true"
"image-keyboard-response",267,281415,"0.0-3.85-1.85","1uwhsq6u0dzuncq",308,"147.csv","","null","resources/maskTrios/BBA1.jpg","null","",NA,NA,NA,NA,""
"image-keyboard-response",268,282617,"0.0-3.85-2.85","1uwhsq6u0dzuncq",308,"147.csv","","null","resources/images/coin2.png","null","",NA,NA,NA,NA,""
"image-keyboard-response",269,283017,"0.0-3.86-0.86","1uwhsq6u0dzuncq",308,"147.csv","","398.40000000596046","resources/trios/L1T4A1.jpg","39","restless",0.6,0.3,0.3,0.185101902304465,"true"
"image-keyboard-response",270,283418,"0.0-3.86-1.86","1uwhsq6u0dzuncq",308,"147.csv","","null","resources/maskTrios/BBA1.jpg","null","",NA,NA,NA,NA,""
"image-keyboard-response",271,284620,"0.0-3.86-2.86","1uwhsq6u0dzuncq",308,"147.csv","","null","resources/images/coin2.png","null","",NA,NA,NA,NA,""
"image-keyboard-response",272,284989,"0.0-3.87-0.87","1uwhsq6u0dzuncq",308,"147.csv","","367.90000000596046","resources/trios/L2T4A3.jpg","39","restless",0.6,0.3,0.3,0.866742748647205,"false"
"image-keyboard-response",273,285391,"0.0-3.87-1.87","1uwhsq6u0dzuncq",308,"147.csv","","null","resources/maskTrios/BBA3.jpg","null","",NA,NA,NA,NA,""
"image-keyboard-response",274,286593,"0.0-3.87-2.87","1uwhsq6u0dzuncq",308,"147.csv","","null","resources/images/fishbone.png","null","",NA,NA,NA,NA,""
"image-keyboard-response",275,287019,"0.0-3.88-0.88","1uwhsq6u0dzuncq",308,"147.csv","","425.19999998807907","resources/trios/L1T4A3.jpg","38","restless",0.6,0.3,0.3,0.763107814842079,"false"
"image-keyboard-response",276,287423,"0.0-3.88-1.88","1uwhsq6u0dzuncq",308,"147.csv","","null","resources/maskTrios/BT4B.jpg","null","",NA,NA,NA,NA,""
"image-keyboard-response",277,288625,"0.0-3.88-2.88","1uwhsq6u0dzuncq",308,"147.csv","","null","resources/images/fishbone.png","null","",NA,NA,NA,NA,""
"image-keyboard-response",278,288950,"0.0-3.89-0.89","1uwhsq6u0dzuncq",308,"147.csv","","323.69999998807907","resources/trios/L1T4A1.jpg","37","restless",0.6,0.3,0.4,0.942925256565499,"false"
"image-keyboard-response",279,289351,"0.0-3.89-1.89","1uwhsq6u0dzuncq",308,"147.csv","","null","resources/maskTrios/L1BB.jpg","null","",NA,NA,NA,NA,""
"image-keyboard-response",280,290553,"0.0-3.89-2.89","1uwhsq6u0dzuncq",308,"147.csv","","null","resources/images/fishbone.png","null","",NA,NA,NA,NA,""
"image-keyboard-response",281,290950,"0.0-3.90-0.90","1uwhsq6u0dzuncq",308,"147.csv","","395.59999999403954","resources/trios/L2T4A1.jpg","37","restless",0.6,0.3,0.4,0.0495016678546079,"true"
"image-keyboard-response",282,291353,"0.0-3.90-1.90","1uwhsq6u0dzuncq",308,"147.csv","","null","resources/maskTrios/L2BB.jpg","null","",NA,NA,NA,NA,""
"image-keyboard-response",283,292555,"0.0-3.90-2.90","1uwhsq6u0dzuncq",308,"147.csv","","null","resources/images/coin2.png","null","",NA,NA,NA,NA,""
"image-keyboard-response",284,292954,"0.0-3.91-0.91","1uwhsq6u0dzuncq",308,"147.csv","","398","resources/trios/L1T2A1.jpg","37","restless",0.6,0.3,0.4,0.552474101160195,"true"
"image-keyboard-response",285,293356,"0.0-3.91-1.91","1uwhsq6u0dzuncq",308,"147.csv","","null","resources/maskTrios/L1BB.jpg","null","",NA,NA,NA,NA,""
"image-keyboard-response",286,294558,"0.0-3.91-2.91","1uwhsq6u0dzuncq",308,"147.csv","","null","resources/images/coin2.png","null","",NA,NA,NA,NA,""
"image-keyboard-response",287,295024,"0.0-3.92-0.92","1uwhsq6u0dzuncq",308,"147.csv","","464.90000000596046","resources/trios/L1T4A3.jpg","39","restless",0.6,0.4,0.4,0.66733269584443,"false"
"image-keyboard-response",288,295429,"0.0-3.92-1.92","1uwhsq6u0dzuncq",308,"147.csv","","null","resources/maskTrios/BBA3.jpg","null","",NA,NA,NA,NA,""
"image-keyboard-response",289,296633,"0.0-3.92-2.92","1uwhsq6u0dzuncq",308,"147.csv","","null","resources/images/fishbone.png","null","",NA,NA,NA,NA,""
"image-keyboard-response",290,297080,"0.0-3.93-0.93","1uwhsq6u0dzuncq",308,"147.csv","","445.5","resources/trios/L2T4A3.jpg","37","restless",0.6,0.4,0.4,0.773788774692723,"false"
"image-keyboard-response",291,297484,"0.0-3.93-1.93","1uwhsq6u0dzuncq",308,"147.csv","","null","resources/maskTrios/L2BB.jpg","null","",NA,NA,NA,NA,""
"image-keyboard-response",292,298686,"0.0-3.93-2.93","1uwhsq6u0dzuncq",308,"147.csv","","null","resources/images/fishbone.png","null","",NA,NA,NA,NA,""
"image-keyboard-response",293,299021,"0.0-3.94-0.94","1uwhsq6u0dzuncq",308,"147.csv","","333.7999999821186","resources/trios/L1T4A3.jpg","38","restless",0.6,0.4,0.4,0.401432271018347,"false"
"image-keyboard-response",294,299422,"0.0-3.94-1.94","1uwhsq6u0dzuncq",308,"147.csv","","null","resources/maskTrios/BT4B.jpg","null","",NA,NA,NA,NA,""
"image-keyboard-response",295,300624,"0.0-3.94-2.94","1uwhsq6u0dzuncq",308,"147.csv","","null","resources/images/fishbone.png","null","",NA,NA,NA,NA,""
"image-keyboard-response",296,300960,"0.0-3.95-0.95","1uwhsq6u0dzuncq",308,"147.csv","","335.7999999821186","resources/trios/L2T2A3.jpg","37","restless",0.6,0.4,0.4,0.15938696882759,"true"
"image-keyboard-response",297,301361,"0.0-3.95-1.95","1uwhsq6u0dzuncq",308,"147.csv","","null","resources/maskTrios/L2BB.jpg","null","",NA,NA,NA,NA,""
"image-keyboard-response",298,302564,"0.0-3.95-2.95","1uwhsq6u0dzuncq",308,"147.csv","","null","resources/images/coin2.png","null","",NA,NA,NA,NA,""
"image-keyboard-response",299,302933,"0.0-3.96-0.96","1uwhsq6u0dzuncq",308,"147.csv","","368.69999998807907","resources/trios/L1T2A1.jpg","37","restless",0.6,0.4,0.4,0.832532138827083,"false"
"image-keyboard-response",300,303335,"0.0-3.96-1.96","1uwhsq6u0dzuncq",308,"147.csv","","null","resources/maskTrios/L1BB.jpg","null","",NA,NA,NA,NA,""
"image-keyboard-response",301,304538,"0.0-3.96-2.96","1uwhsq6u0dzuncq",308,"147.csv","","null","resources/images/fishbone.png","null","",NA,NA,NA,NA,""
"image-keyboard-response",302,304941,"0.0-3.97-0.97","1uwhsq6u0dzuncq",308,"147.csv","","401.60000002384186","resources/trios/L2T2A3.jpg","38","restless",0.6,0.4,0.4,0.291942601463642,"true"
"image-keyboard-response",303,305344,"0.0-3.97-1.97","1uwhsq6u0dzuncq",308,"147.csv","","null","resources/maskTrios/BT2B.jpg","null","",NA,NA,NA,NA,""
"image-keyboard-response",304,306549,"0.0-3.97-2.97","1uwhsq6u0dzuncq",308,"147.csv","","null","resources/images/coin2.png","null","",NA,NA,NA,NA,""
"image-keyboard-response",305,306872,"0.0-3.98-0.98","1uwhsq6u0dzuncq",308,"147.csv","","321.7000000178814","resources/trios/L2T2A1.jpg","38","restless",0.6,0.4,0.4,0.395806135770892,"true"
"image-keyboard-response",306,307277,"0.0-3.98-1.98","1uwhsq6u0dzuncq",308,"147.csv","","null","resources/maskTrios/BT2B.jpg","null","",NA,NA,NA,NA,""
"image-keyboard-response",307,308478,"0.0-3.98-2.98","1uwhsq6u0dzuncq",308,"147.csv","","null","resources/images/coin2.png","null","",NA,NA,NA,NA,""
"image-keyboard-response",308,308826,"0.0-3.99-0.99","1uwhsq6u0dzuncq",308,"147.csv","","346.10000002384186","resources/trios/L1T4A1.jpg","38","restless",0.6,0.4,0.5,0.707354513684422,"false"
"image-keyboard-response",309,309227,"0.0-3.99-1.99","1uwhsq6u0dzuncq",308,"147.csv","","null","resources/maskTrios/BT4B.jpg","null","",NA,NA,NA,NA,""
"image-keyboard-response",310,310429,"0.0-3.99-2.99","1uwhsq6u0dzuncq",308,"147.csv","","null","resources/images/fishbone.png","null","",NA,NA,NA,NA,""
"image-keyboard-response",311,310791,"0.0-3.100-0.100","1uwhsq6u0dzuncq",308,"147.csv","","360.89999997615814","resources/trios/L2T4A1.jpg","39","restless",0.6,0.4,0.5,0.172220408296984,"true"
"image-keyboard-response",312,311195,"0.0-3.100-1.100","1uwhsq6u0dzuncq",308,"147.csv","","null","resources/maskTrios/BBA1.jpg","null","",NA,NA,NA,NA,""
"image-keyboard-response",313,312400,"0.0-3.100-2.100","1uwhsq6u0dzuncq",308,"147.csv","","null","resources/images/coin2.png","null","",NA,NA,NA,NA,""
"image-keyboard-response",314,312780,"0.0-3.101-0.101","1uwhsq6u0dzuncq",308,"147.csv","","379.2000000178814","resources/trios/L2T4A1.jpg","39","restless",0.6,0.4,0.5,0.172973152161096,"true"
"image-keyboard-response",315,313182,"0.0-3.101-1.101","1uwhsq6u0dzuncq",308,"147.csv","","null","resources/maskTrios/BBA1.jpg","null","",NA,NA,NA,NA,""
"image-keyboard-response",316,314388,"0.0-3.101-2.101","1uwhsq6u0dzuncq",308,"147.csv","","null","resources/images/coin2.png","null","",NA,NA,NA,NA,""
"image-keyboard-response",317,314738,"0.0-3.102-0.102","1uwhsq6u0dzuncq",308,"147.csv","","348.2999999821186","resources/trios/L1T4A3.jpg","39","restless",0.7,0.4,0.4,0.92142790573027,"false"
"image-keyboard-response",318,315143,"0.0-3.102-1.102","1uwhsq6u0dzuncq",308,"147.csv","","null","resources/maskTrios/BBA3.jpg","null","",NA,NA,NA,NA,""
"image-keyboard-response",319,316344,"0.0-3.102-2.102","1uwhsq6u0dzuncq",308,"147.csv","","null","resources/images/fishbone.png","null","",NA,NA,NA,NA,""
"image-keyboard-response",320,316742,"0.0-3.103-0.103","1uwhsq6u0dzuncq",308,"147.csv","","396.39999997615814","resources/trios/L2T4A3.jpg","37","restless",0.7,0.4,0.4,0.0178101328020797,"true"
"image-keyboard-response",321,317145,"0.0-3.103-1.103","1uwhsq6u0dzuncq",308,"147.csv","","null","resources/maskTrios/L2BB.jpg","null","",NA,NA,NA,NA,""
"image-keyboard-response",322,318347,"0.0-3.103-2.103","1uwhsq6u0dzuncq",308,"147.csv","","null","resources/images/coin2.png","null","",NA,NA,NA,NA,""
"image-keyboard-response",323,318679,"0.0-3.104-0.104","1uwhsq6u0dzuncq",308,"147.csv","","330.5","resources/trios/L1T2A3.jpg","37","restless",0.7,0.4,0.4,0.136733798268295,"true"
"image-keyboard-response",324,319088,"0.0-3.104-1.104","1uwhsq6u0dzuncq",308,"147.csv","","null","resources/maskTrios/L1BB.jpg","null","",NA,NA,NA,NA,""
"image-keyboard-response",325,320292,"0.0-3.104-2.104","1uwhsq6u0dzuncq",308,"147.csv","","null","resources/images/coin2.png","null","",NA,NA,NA,NA,""
"image-keyboard-response",326,320666,"0.0-3.105-0.105","1uwhsq6u0dzuncq",308,"147.csv","","373.59999999403954","resources/trios/L1T2A1.jpg","39","restless",0.7,0.4,0.4,0.99571203613386,"false"
"image-keyboard-response",327,321071,"0.0-3.105-1.105","1uwhsq6u0dzuncq",308,"147.csv","","null","resources/maskTrios/BBA1.jpg","null","",NA,NA,NA,NA,""
"image-keyboard-response",328,322272,"0.0-3.105-2.105","1uwhsq6u0dzuncq",308,"147.csv","","null","resources/images/fishbone.png","null","",NA,NA,NA,NA,""
"image-keyboard-response",329,322714,"0.0-3.106-0.106","1uwhsq6u0dzuncq",308,"147.csv","","440.5","resources/trios/L1T2A1.jpg","37","restless",0.7,0.4,0.4,0.872338785241281,"false"
"image-keyboard-response",330,323119,"0.0-3.106-1.106","1uwhsq6u0dzuncq",308,"147.csv","","null","resources/maskTrios/L1BB.jpg","null","",NA,NA,NA,NA,""
"image-keyboard-response",331,324320,"0.0-3.106-2.106","1uwhsq6u0dzuncq",308,"147.csv","","null","resources/images/fishbone.png","null","",NA,NA,NA,NA,""
"image-keyboard-response",332,324584,"0.0-3.107-0.107","1uwhsq6u0dzuncq",308,"147.csv","","263","resources/trios/L1T2A1.jpg","38","restless",0.7,0.4,0.4,0.658322019085821,"false"
"image-keyboard-response",333,324988,"0.0-3.107-1.107","1uwhsq6u0dzuncq",308,"147.csv","","null","resources/maskTrios/BT2B.jpg","null","",NA,NA,NA,NA,""
"image-keyboard-response",334,326194,"0.0-3.107-2.107","1uwhsq6u0dzuncq",308,"147.csv","","null","resources/images/fishbone.png","null","",NA,NA,NA,NA,""
"image-keyboard-response",335,326372,"0.0-3.108-0.108","1uwhsq6u0dzuncq",308,"147.csv","","177.2000000178814","resources/trios/L2T4A1.jpg","37","restless",0.8,0.4,0.4,0.693373076085849,"true"
"image-keyboard-response",336,326776,"0.0-3.108-1.108","1uwhsq6u0dzuncq",308,"147.csv","","null","resources/maskTrios/L2BB.jpg","null","",NA,NA,NA,NA,""
"image-keyboard-response",337,327978,"0.0-3.108-2.108","1uwhsq6u0dzuncq",308,"147.csv","","null","resources/images/coin2.png","null","",NA,NA,NA,NA,""
"image-keyboard-response",338,328115,"0.0-3.109-0.109","1uwhsq6u0dzuncq",308,"147.csv","","136.69999998807907","resources/trios/L2T4A1.jpg","37","restless",0.7,0.4,0.4,0.95888134372669,"false"
"image-keyboard-response",339,328520,"0.0-3.109-1.109","1uwhsq6u0dzuncq",308,"147.csv","","null","resources/maskTrios/L2BB.jpg","null","",NA,NA,NA,NA,""
"image-keyboard-response",340,329724,"0.0-3.109-2.109","1uwhsq6u0dzuncq",308,"147.csv","","null","resources/images/fishbone.png","null","",NA,NA,NA,NA,""
"image-keyboard-response",341,330098,"0.0-3.110-0.110","1uwhsq6u0dzuncq",308,"147.csv","","372.59999999403954","resources/trios/L2T4A1.jpg","38","restless",0.7,0.4,0.4,0.844820237709569,"false"
"image-keyboard-response",342,330503,"0.0-3.110-1.110","1uwhsq6u0dzuncq",308,"147.csv","","null","resources/maskTrios/BT4B.jpg","null","",NA,NA,NA,NA,""
"image-keyboard-response",343,331704,"0.0-3.110-2.110","1uwhsq6u0dzuncq",308,"147.csv","","null","resources/images/fishbone.png","null","",NA,NA,NA,NA,""
"image-keyboard-response",344,332020,"0.0-3.111-0.111","1uwhsq6u0dzuncq",308,"147.csv","","314.89999997615814","resources/trios/L2T2A1.jpg","39","restless",0.7,0.4,0.4,0.917547892934031,"false"
"image-keyboard-response",345,332424,"0.0-3.111-1.111","1uwhsq6u0dzuncq",308,"147.csv","","null","resources/maskTrios/BBA1.jpg","null","",NA,NA,NA,NA,""
"image-keyboard-response",346,333626,"0.0-3.111-2.111","1uwhsq6u0dzuncq",308,"147.csv","","null","resources/images/fishbone.png","null","",NA,NA,NA,NA,""
"image-keyboard-response",347,333891,"0.0-3.112-0.112","1uwhsq6u0dzuncq",308,"147.csv","","264.89999997615814","resources/trios/L2T4A1.jpg","37","restless",0.7,0.4,0.4,0.68608864689709,"true"
"image-keyboard-response",348,334293,"0.0-3.112-1.112","1uwhsq6u0dzuncq",308,"147.csv","","null","resources/maskTrios/L2BB.jpg","null","",NA,NA,NA,NA,""
"image-keyboard-response",349,335495,"0.0-3.112-2.112","1uwhsq6u0dzuncq",308,"147.csv","","null","resources/images/coin2.png","null","",NA,NA,NA,NA,""
"image-keyboard-response",350,335572,"0.0-3.113-0.113","1uwhsq6u0dzuncq",308,"147.csv","","75.7999999821186","resources/trios/L2T4A1.jpg","37","restless",0.7,0.4,0.4,0.563115101479992,"true"
"image-keyboard-response",351,335977,"0.0-3.113-1.113","1uwhsq6u0dzuncq",308,"147.csv","","null","resources/maskTrios/L2BB.jpg","null","",NA,NA,NA,NA,""
"image-keyboard-response",352,337180,"0.0-3.113-2.113","1uwhsq6u0dzuncq",308,"147.csv","","null","resources/images/coin2.png","null","",NA,NA,NA,NA,""
"image-keyboard-response",353,337295,"0.0-3.114-0.114","1uwhsq6u0dzuncq",308,"147.csv","","113.90000000596046","resources/trios/L2T4A3.jpg","39","restless",0.7,0.5,0.4,0.0729037866189792,"true"
"image-keyboard-response",354,337700,"0.0-3.114-1.114","1uwhsq6u0dzuncq",308,"147.csv","","null","resources/maskTrios/BBA3.jpg","null","",NA,NA,NA,NA,""
"image-keyboard-response",355,338903,"0.0-3.114-2.114","1uwhsq6u0dzuncq",308,"147.csv","","null","resources/images/coin2.png","null","",NA,NA,NA,NA,""
"image-keyboard-response",356,339536,"0.0-3.115-0.115","1uwhsq6u0dzuncq",308,"147.csv","","631.8000000119209","resources/trios/L2T2A1.jpg","39","restless",0.7,0.5,0.4,0.845585988356958,"false"
"image-keyboard-response",357,339940,"0.0-3.115-1.115","1uwhsq6u0dzuncq",308,"147.csv","","null","resources/maskTrios/BBA1.jpg","null","",NA,NA,NA,NA,""
"image-keyboard-response",358,341143,"0.0-3.115-2.115","1uwhsq6u0dzuncq",308,"147.csv","","null","resources/images/fishbone.png","null","",NA,NA,NA,NA,""
"image-keyboard-response",359,341480,"0.0-3.116-0.116","1uwhsq6u0dzuncq",308,"147.csv","","335.5","resources/trios/L1T4A3.jpg","37","restless",0.7,0.5,0.4,0.0838103274763495,"true"
"image-keyboard-response",360,341882,"0.0-3.116-1.116","1uwhsq6u0dzuncq",308,"147.csv","","null","resources/maskTrios/L1BB.jpg","null","",NA,NA,NA,NA,""
"image-keyboard-response",361,343083,"0.0-3.116-2.116","1uwhsq6u0dzuncq",308,"147.csv","","null","resources/images/coin2.png","null","",NA,NA,NA,NA,""
"image-keyboard-response",362,343230,"0.0-3.117-0.117","1uwhsq6u0dzuncq",308,"147.csv","","145.80000001192093","resources/trios/L2T2A3.jpg","37","restless",0.7,0.5,0.4,0.18910738010122,"true"
"image-keyboard-response",363,343634,"0.0-3.117-1.117","1uwhsq6u0dzuncq",308,"147.csv","","null","resources/maskTrios/L2BB.jpg","null","",NA,NA,NA,NA,""
"image-keyboard-response",364,344839,"0.0-3.117-2.117","1uwhsq6u0dzuncq",308,"147.csv","","null","resources/images/coin2.png","null","",NA,NA,NA,NA,""
"image-keyboard-response",365,345130,"0.0-3.118-0.118","1uwhsq6u0dzuncq",308,"147.csv","","290.19999998807907","resources/trios/L2T4A1.jpg","39","restless",0.7,0.6,0.5,0.950894728512481,"false"
"image-keyboard-response",366,345534,"0.0-3.118-1.118","1uwhsq6u0dzuncq",308,"147.csv","","null","resources/maskTrios/BBA1.jpg","null","",NA,NA,NA,NA,""
"image-keyboard-response",367,346740,"0.0-3.118-2.118","1uwhsq6u0dzuncq",308,"147.csv","","null","resources/images/fishbone.png","null","",NA,NA,NA,NA,""
"image-keyboard-response",368,347127,"0.0-3.119-0.119","1uwhsq6u0dzuncq",308,"147.csv","","386.5","resources/trios/L2T4A3.jpg","37","restless",0.7,0.6,0.5,0.444803398816074,"true"
"image-keyboard-response",369,347530,"0.0-3.119-1.119","1uwhsq6u0dzuncq",308,"147.csv","","null","resources/maskTrios/L2BB.jpg","null","",NA,NA,NA,NA,""
"image-keyboard-response",370,348734,"0.0-3.119-2.119","1uwhsq6u0dzuncq",308,"147.csv","","null","resources/images/coin2.png","null","",NA,NA,NA,NA,""
"image-keyboard-response",371,349036,"0.0-3.120-0.120","1uwhsq6u0dzuncq",308,"147.csv","","300.90000000596046","resources/trios/L2T4A3.jpg","37","restless",0.7,0.6,0.5,0.954465784048019,"false"
"image-keyboard-response",372,349441,"0.0-3.120-1.120","1uwhsq6u0dzuncq",308,"147.csv","","null","resources/maskTrios/L2BB.jpg","null","",NA,NA,NA,NA,""
"image-keyboard-response",373,350646,"0.0-3.120-2.120","1uwhsq6u0dzuncq",308,"147.csv","","null","resources/images/fishbone.png","null","",NA,NA,NA,NA,""
"image-keyboard-response",374,351012,"0.0-3.121-0.121","1uwhsq6u0dzuncq",308,"147.csv","","364.2000000178814","resources/trios/L1T2A1.jpg","38","restless",0.7,0.6,0.5,0.369666998641446,"true"
"image-keyboard-response",375,351415,"0.0-3.121-1.121","1uwhsq6u0dzuncq",308,"147.csv","","null","resources/maskTrios/BT2B.jpg","null","",NA,NA,NA,NA,""
"image-keyboard-response",376,352620,"0.0-3.121-2.121","1uwhsq6u0dzuncq",308,"147.csv","","null","resources/images/coin2.png","null","",NA,NA,NA,NA,""
"image-keyboard-response",377,353062,"0.0-3.122-0.122","1uwhsq6u0dzuncq",308,"147.csv","","440.60000002384186","resources/trios/L2T4A1.jpg","38","restless",0.7,0.6,0.5,0.889922534276752,"false"
"image-keyboard-response",378,353468,"0.0-3.122-1.122","1uwhsq6u0dzuncq",308,"147.csv","","null","resources/maskTrios/BT4B.jpg","null","",NA,NA,NA,NA,""
"image-keyboard-response",379,354669,"0.0-3.122-2.122","1uwhsq6u0dzuncq",308,"147.csv","","null","resources/images/fishbone.png","null","",NA,NA,NA,NA,""
"image-keyboard-response",380,355108,"0.0-3.123-0.123","1uwhsq6u0dzuncq",308,"147.csv","","437.5","resources/trios/L1T4A3.jpg","37","restless",0.7,0.6,0.5,0.402822473208666,"true"
"image-keyboard-response",381,355511,"0.0-3.123-1.123","1uwhsq6u0dzuncq",308,"147.csv","","null","resources/maskTrios/L1BB.jpg","null","",NA,NA,NA,NA,""
"image-keyboard-response",382,356713,"0.0-3.123-2.123","1uwhsq6u0dzuncq",308,"147.csv","","null","resources/images/coin2.png","null","",NA,NA,NA,NA,""
"image-keyboard-response",383,356902,"0.0-3.124-0.124","1uwhsq6u0dzuncq",308,"147.csv","","188","resources/trios/L1T2A3.jpg","37","restless",0.7,0.6,0.5,0.263930699898632,"true"
"image-keyboard-response",384,357305,"0.0-3.124-1.124","1uwhsq6u0dzuncq",308,"147.csv","","null","resources/maskTrios/L1BB.jpg","null","",NA,NA,NA,NA,""
"image-keyboard-response",385,358509,"0.0-3.124-2.124","1uwhsq6u0dzuncq",308,"147.csv","","null","resources/images/coin2.png","null","",NA,NA,NA,NA,""
"image-keyboard-response",386,358704,"0.0-3.125-0.125","1uwhsq6u0dzuncq",308,"147.csv","","193","resources/trios/L1T4A1.jpg","39","restless",0.7,0.6,0.5,0.816057670644797,"false"
"image-keyboard-response",387,359110,"0.0-3.125-1.125","1uwhsq6u0dzuncq",308,"147.csv","","null","resources/maskTrios/BBA1.jpg","null","",NA,NA,NA,NA,""
"image-keyboard-response",388,360312,"0.0-3.125-2.125","1uwhsq6u0dzuncq",308,"147.csv","","null","resources/images/fishbone.png","null","",NA,NA,NA,NA,""
"image-keyboard-response",389,360456,"0.0-3.126-0.126","1uwhsq6u0dzuncq",308,"147.csv","","143","resources/trios/L2T4A3.jpg","38","restless",0.7,0.6,0.5,0.549644662101843,"true"
"image-keyboard-response",390,360859,"0.0-3.126-1.126","1uwhsq6u0dzuncq",308,"147.csv","","null","resources/maskTrios/BT4B.jpg","null","",NA,NA,NA,NA,""
"image-keyboard-response",391,362065,"0.0-3.126-2.126","1uwhsq6u0dzuncq",308,"147.csv","","null","resources/images/coin2.png","null","",NA,NA,NA,NA,""
"image-keyboard-response",392,362153,"0.0-3.127-0.127","1uwhsq6u0dzuncq",308,"147.csv","","86.80000001192093","resources/trios/L2T4A1.jpg","38","restless",0.6,0.6,0.5,0.872555462778839,"false"
"image-keyboard-response",393,362558,"0.0-3.127-1.127","1uwhsq6u0dzuncq",308,"147.csv","","null","resources/maskTrios/BT4B.jpg","null","",NA,NA,NA,NA,""
"image-keyboard-response",394,363760,"0.0-3.127-2.127","1uwhsq6u0dzuncq",308,"147.csv","","null","resources/images/fishbone.png","null","",NA,NA,NA,NA,""
"image-keyboard-response",395,363864,"0.0-3.128-0.128","1uwhsq6u0dzuncq",308,"147.csv","","102.30000001192093","resources/trios/L1T4A3.jpg","37","restless",0.6,0.6,0.6,0.41450093898687,"true"
"image-keyboard-response",396,364266,"0.0-3.128-1.128","1uwhsq6u0dzuncq",308,"147.csv","","null","resources/maskTrios/L1BB.jpg","null","",NA,NA,NA,NA,""
"image-keyboard-response",397,365470,"0.0-3.128-2.128","1uwhsq6u0dzuncq",308,"147.csv","","null","resources/images/coin2.png","null","",NA,NA,NA,NA,""
"image-keyboard-response",398,365551,"0.0-3.129-0.129","1uwhsq6u0dzuncq",308,"147.csv","","79.59999999403954","resources/trios/L1T2A3.jpg","37","restless",0.6,0.6,0.7,0.0954195722670119,"true"
"image-keyboard-response",399,365954,"0.0-3.129-1.129","1uwhsq6u0dzuncq",308,"147.csv","","null","resources/maskTrios/L1BB.jpg","null","",NA,NA,NA,NA,""
"image-keyboard-response",400,367156,"0.0-3.129-2.129","1uwhsq6u0dzuncq",308,"147.csv","","null","resources/images/coin2.png","null","",NA,NA,NA,NA,""
"image-keyboard-response",401,367330,"0.0-3.130-0.130","1uwhsq6u0dzuncq",308,"147.csv","","173.7000000178814","resources/trios/L2T2A1.jpg","37","restless",0.6,0.6,0.7,0.235272233583626,"true"
"image-keyboard-response",402,367737,"0.0-3.130-1.130","1uwhsq6u0dzuncq",308,"147.csv","","null","resources/maskTrios/L2BB.jpg","null","",NA,NA,NA,NA,""
"image-keyboard-response",403,368941,"0.0-3.130-2.130","1uwhsq6u0dzuncq",308,"147.csv","","null","resources/images/coin2.png","null","",NA,NA,NA,NA,""
"image-keyboard-response",404,369121,"0.0-3.131-0.131","1uwhsq6u0dzuncq",308,"147.csv","","179.09999999403954","resources/trios/L2T4A3.jpg","37","restless",0.6,0.6,0.7,0.34198268607979,"true"
"image-keyboard-response",405,369524,"0.0-3.131-1.131","1uwhsq6u0dzuncq",308,"147.csv","","null","resources/maskTrios/L2BB.jpg","null","",NA,NA,NA,NA,""
"image-keyboard-response",406,370726,"0.0-3.131-2.131","1uwhsq6u0dzuncq",308,"147.csv","","null","resources/images/coin2.png","null","",NA,NA,NA,NA,""
"image-keyboard-response",407,370941,"0.0-3.132-0.132","1uwhsq6u0dzuncq",308,"147.csv","","213.5","resources/trios/L2T2A1.jpg","37","restless",0.6,0.6,0.7,0.270478810011413,"true"
"image-keyboard-response",408,371345,"0.0-3.132-1.132","1uwhsq6u0dzuncq",308,"147.csv","","null","resources/maskTrios/L2BB.jpg","null","",NA,NA,NA,NA,""
"image-keyboard-response",409,372550,"0.0-3.132-2.132","1uwhsq6u0dzuncq",308,"147.csv","","null","resources/images/coin2.png","null","",NA,NA,NA,NA,""
"image-keyboard-response",410,372761,"0.0-3.133-0.133","1uwhsq6u0dzuncq",308,"147.csv","","209.5","resources/trios/L2T4A1.jpg","37","restless",0.6,0.6,0.7,0.711678153162184,"false"
"image-keyboard-response",411,373164,"0.0-3.133-1.133","1uwhsq6u0dzuncq",308,"147.csv","","null","resources/maskTrios/L2BB.jpg","null","",NA,NA,NA,NA,""
"image-keyboard-response",412,374366,"0.0-3.133-2.133","1uwhsq6u0dzuncq",308,"147.csv","","null","resources/images/fishbone.png","null","",NA,NA,NA,NA,""
"image-keyboard-response",413,374773,"0.0-3.134-0.134","1uwhsq6u0dzuncq",308,"147.csv","","406.5","resources/trios/L1T4A3.jpg","39","restless",0.6,0.6,0.7,0.0371836323783752,"true"
"image-keyboard-response",414,375179,"0.0-3.134-1.134","1uwhsq6u0dzuncq",308,"147.csv","","null","resources/maskTrios/BBA3.jpg","null","",NA,NA,NA,NA,""
"image-keyboard-response",415,376382,"0.0-3.134-2.134","1uwhsq6u0dzuncq",308,"147.csv","","null","resources/images/coin2.png","null","",NA,NA,NA,NA,""
"image-keyboard-response",416,376634,"0.0-3.135-0.135","1uwhsq6u0dzuncq",308,"147.csv","","251.09999999403954","resources/trios/L2T4A3.jpg","39","restless",0.6,0.6,0.7,0.517084750791036,"true"
"image-keyboard-response",417,377036,"0.0-3.135-1.135","1uwhsq6u0dzuncq",308,"147.csv","","null","resources/maskTrios/BBA3.jpg","null","",NA,NA,NA,NA,""
"image-keyboard-response",418,378238,"0.0-3.135-2.135","1uwhsq6u0dzuncq",308,"147.csv","","null","resources/images/coin2.png","null","",NA,NA,NA,NA,""
"image-keyboard-response",419,378490,"0.0-3.136-0.136","1uwhsq6u0dzuncq",308,"147.csv","","250.7000000178814","resources/trios/L1T4A3.jpg","39","restless",0.6,0.6,0.7,0.777229673565022,"false"
"image-keyboard-response",420,378893,"0.0-3.136-1.136","1uwhsq6u0dzuncq",308,"147.csv","","null","resources/maskTrios/BBA3.jpg","null","",NA,NA,NA,NA,""
"image-keyboard-response",421,380096,"0.0-3.136-2.136","1uwhsq6u0dzuncq",308,"147.csv","","null","resources/images/fishbone.png","null","",NA,NA,NA,NA,""
"image-keyboard-response",422,380472,"0.0-3.137-0.137","1uwhsq6u0dzuncq",308,"147.csv","","375.40000000596046","resources/trios/L1T2A1.jpg","38","restless",0.5,0.6,0.6,0.0125250811582192,"true"
"image-keyboard-response",423,380875,"0.0-3.137-1.137","1uwhsq6u0dzuncq",308,"147.csv","","null","resources/maskTrios/BT2B.jpg","null","",NA,NA,NA,NA,""
"image-keyboard-response",424,382081,"0.0-3.137-2.137","1uwhsq6u0dzuncq",308,"147.csv","","null","resources/images/coin2.png","null","",NA,NA,NA,NA,""
"image-keyboard-response",425,382095,"0.0-3.138-0.138","1uwhsq6u0dzuncq",308,"147.csv","","12","resources/trios/L2T4A3.jpg","38","restless",0.5,0.6,0.6,0.193828812623038,"true"
"image-keyboard-response",426,382499,"0.0-3.138-1.138","1uwhsq6u0dzuncq",308,"147.csv","","null","resources/maskTrios/BT4B.jpg","null","",NA,NA,NA,NA,""
"image-keyboard-response",427,383700,"0.0-3.138-2.138","1uwhsq6u0dzuncq",308,"147.csv","","null","resources/images/coin2.png","null","",NA,NA,NA,NA,""
"image-keyboard-response",428,383798,"0.0-3.139-0.139","1uwhsq6u0dzuncq",308,"147.csv","","96.30000001192093","resources/trios/L2T2A1.jpg","38","restless",0.5,0.6,0.6,0.366506679157469,"true"
"image-keyboard-response",429,384200,"0.0-3.139-1.139","1uwhsq6u0dzuncq",308,"147.csv","","null","resources/maskTrios/BT2B.jpg","null","",NA,NA,NA,NA,""
"image-keyboard-response",430,385406,"0.0-3.139-2.139","1uwhsq6u0dzuncq",308,"147.csv","","null","resources/images/coin2.png","null","",NA,NA,NA,NA,""
"image-keyboard-response",431,385541,"0.0-3.140-0.140","1uwhsq6u0dzuncq",308,"147.csv","","133.90000000596046","resources/trios/L2T2A1.jpg","38","restless",0.5,0.6,0.6,0.615025451682422,"false"
"image-keyboard-response",432,385942,"0.0-3.140-1.140","1uwhsq6u0dzuncq",308,"147.csv","","null","resources/maskTrios/BT2B.jpg","null","",NA,NA,NA,NA,""
"image-keyboard-response",433,387144,"0.0-3.140-2.140","1uwhsq6u0dzuncq",308,"147.csv","","null","resources/images/fishbone.png","null","",NA,NA,NA,NA,""
"image-keyboard-response",434,387413,"0.0-3.141-0.141","1uwhsq6u0dzuncq",308,"147.csv","","267.59999999403954","resources/trios/L1T4A1.jpg","37","restless",0.5,0.6,0.6,0.279817904932467,"true"
"image-keyboard-response",435,387816,"0.0-3.141-1.141","1uwhsq6u0dzuncq",308,"147.csv","","null","resources/maskTrios/L1BB.jpg","null","",NA,NA,NA,NA,""
"image-keyboard-response",436,389018,"0.0-3.141-2.141","1uwhsq6u0dzuncq",308,"147.csv","","null","resources/images/coin2.png","null","",NA,NA,NA,NA,""
"image-keyboard-response",437,389569,"0.0-3.142-0.142","1uwhsq6u0dzuncq",308,"147.csv","","550.0999999940395","resources/trios/L1T4A3.jpg","37","restless",0.5,0.6,0.6,0.114610923275144,"true"
"image-keyboard-response",438,389974,"0.0-3.142-1.142","1uwhsq6u0dzuncq",308,"147.csv","","null","resources/maskTrios/L1BB.jpg","null","",NA,NA,NA,NA,""
"image-keyboard-response",439,391177,"0.0-3.142-2.142","1uwhsq6u0dzuncq",308,"147.csv","","null","resources/images/coin2.png","null","",NA,NA,NA,NA,""
"image-keyboard-response",440,391557,"0.0-3.143-0.143","1uwhsq6u0dzuncq",308,"147.csv","","378.19999998807907","resources/trios/L1T2A1.jpg","37","restless",0.5,0.7,0.6,0.841406339309997,"false"
"image-keyboard-response",441,391963,"0.0-3.143-1.143","1uwhsq6u0dzuncq",308,"147.csv","","null","resources/maskTrios/L1BB.jpg","null","",NA,NA,NA,NA,""
"image-keyboard-response",442,393168,"0.0-3.143-2.143","1uwhsq6u0dzuncq",308,"147.csv","","null","resources/images/fishbone.png","null","",NA,NA,NA,NA,""
"image-keyboard-response",443,393453,"0.0-3.144-0.144","1uwhsq6u0dzuncq",308,"147.csv","","283.19999998807907","resources/trios/L2T2A3.jpg","39","restless",0.5,0.8,0.6,0.47780158939145,"true"
"image-keyboard-response",444,393858,"0.0-3.144-1.144","1uwhsq6u0dzuncq",308,"147.csv","","null","resources/maskTrios/BBA3.jpg","null","",NA,NA,NA,NA,""
"image-keyboard-response",445,395062,"0.0-3.144-2.144","1uwhsq6u0dzuncq",308,"147.csv","","null","resources/images/coin2.png","null","",NA,NA,NA,NA,""
"image-keyboard-response",446,395294,"0.0-3.145-0.145","1uwhsq6u0dzuncq",308,"147.csv","","231.60000002384186","resources/trios/L1T4A3.jpg","39","restless",0.5,0.8,0.6,0.930117232146919,"false"
"image-keyboard-response",447,395700,"0.0-3.145-1.145","1uwhsq6u0dzuncq",308,"147.csv","","null","resources/maskTrios/BBA3.jpg","null","",NA,NA,NA,NA,""
"image-keyboard-response",448,396901,"0.0-3.145-2.145","1uwhsq6u0dzuncq",308,"147.csv","","null","resources/images/fishbone.png","null","",NA,NA,NA,NA,""
"image-keyboard-response",449,397235,"0.0-3.146-0.146","1uwhsq6u0dzuncq",308,"147.csv","","333.69999998807907","resources/trios/L2T2A1.jpg","38","restless",0.5,0.8,0.6,0.141381437060227,"true"
"image-keyboard-response",450,397641,"0.0-3.146-1.146","1uwhsq6u0dzuncq",308,"147.csv","","null","resources/maskTrios/BT2B.jpg","null","",NA,NA,NA,NA,""
"image-keyboard-response",451,398846,"0.0-3.146-2.146","1uwhsq6u0dzuncq",308,"147.csv","","null","resources/images/coin2.png","null","",NA,NA,NA,NA,""
"image-keyboard-response",452,398956,"0.0-3.147-0.147","1uwhsq6u0dzuncq",308,"147.csv","","108.40000000596046","resources/trios/L2T2A3.jpg","38","restless",0.5,0.8,0.6,0.945736919162554,"false"
"image-keyboard-response",453,399357,"0.0-3.147-1.147","1uwhsq6u0dzuncq",308,"147.csv","","null","resources/maskTrios/BT2B.jpg","null","",NA,NA,NA,NA,""
"image-keyboard-response",454,400559,"0.0-3.147-2.147","1uwhsq6u0dzuncq",308,"147.csv","","null","resources/images/fishbone.png","null","",NA,NA,NA,NA,""
"image-keyboard-response",455,400791,"0.0-3.148-0.148","1uwhsq6u0dzuncq",308,"147.csv","","231.40000000596046","resources/trios/L1T2A3.jpg","37","restless",0.5,0.8,0.6,0.998702918426012,"false"
"image-keyboard-response",456,401197,"0.0-3.148-1.148","1uwhsq6u0dzuncq",308,"147.csv","","null","resources/maskTrios/L1BB.jpg","null","",NA,NA,NA,NA,""
"image-keyboard-response",457,402401,"0.0-3.148-2.148","1uwhsq6u0dzuncq",308,"147.csv","","null","resources/images/fishbone.png","null","",NA,NA,NA,NA,""
"image-keyboard-response",458,402780,"0.0-3.149-0.149","1uwhsq6u0dzuncq",308,"147.csv","","377.69999998807907","resources/trios/L2T2A3.jpg","37","restless",0.4,0.8,0.5,0.734081968415038,"false"
"image-keyboard-response",459,403182,"0.0-3.149-1.149","1uwhsq6u0dzuncq",308,"147.csv","","null","resources/maskTrios/L2BB.jpg","null","",NA,NA,NA,NA,""
"image-keyboard-response",460,404384,"0.0-3.149-2.149","1uwhsq6u0dzuncq",308,"147.csv","","null","resources/images/fishbone.png","null","",NA,NA,NA,NA,""
"image-keyboard-response",461,404731,"0.0-3.150-0.150","1uwhsq6u0dzuncq",308,"147.csv","","345.5","resources/trios/L1T2A1.jpg","37","restless",0.4,0.8,0.5,0.749683527167249,"false"
"image-keyboard-response",462,405133,"0.0-3.150-1.150","1uwhsq6u0dzuncq",308,"147.csv","","null","resources/maskTrios/L1BB.jpg","null","",NA,NA,NA,NA,""
"image-keyboard-response",463,406337,"0.0-3.150-2.150","1uwhsq6u0dzuncq",308,"147.csv","","null","resources/images/fishbone.png","null","",NA,NA,NA,NA,""
"image-keyboard-response",464,406634,"0.0-3.151-0.151","1uwhsq6u0dzuncq",308,"147.csv","","295.90000000596046","resources/trios/L2T2A1.jpg","37","restless",0.4,0.8,0.5,0.700726355403077,"false"
"image-keyboard-response",465,407037,"0.0-3.151-1.151","1uwhsq6u0dzuncq",308,"147.csv","","null","resources/maskTrios/L2BB.jpg","null","",NA,NA,NA,NA,""
"image-keyboard-response",466,408239,"0.0-3.151-2.151","1uwhsq6u0dzuncq",308,"147.csv","","null","resources/images/fishbone.png","null","",NA,NA,NA,NA,""
"image-keyboard-response",467,408516,"0.0-3.152-0.152","1uwhsq6u0dzuncq",308,"147.csv","","276.80000001192093","resources/trios/L2T4A1.jpg","37","restless",0.4,0.7,0.5,0.499239114080409,"false"
"image-keyboard-response",468,408922,"0.0-3.152-1.152","1uwhsq6u0dzuncq",308,"147.csv","","null","resources/maskTrios/L2BB.jpg","null","",NA,NA,NA,NA,""
"image-keyboard-response",469,410125,"0.0-3.152-2.152","1uwhsq6u0dzuncq",308,"147.csv","","null","resources/images/fishbone.png","null","",NA,NA,NA,NA,""
"image-keyboard-response",470,410344,"0.0-3.153-0.153","1uwhsq6u0dzuncq",308,"147.csv","","217.19999998807907","resources/trios/L1T4A1.jpg","37","restless",0.4,0.7,0.5,0.356609614183775,"true"
"image-keyboard-response",471,410745,"0.0-3.153-1.153","1uwhsq6u0dzuncq",308,"147.csv","","null","resources/maskTrios/L1BB.jpg","null","",NA,NA,NA,NA,""
"image-keyboard-response",472,411947,"0.0-3.153-2.153","1uwhsq6u0dzuncq",308,"147.csv","","null","resources/images/coin2.png","null","",NA,NA,NA,NA,""
"image-keyboard-response",473,412296,"0.0-3.154-0.154","1uwhsq6u0dzuncq",308,"147.csv","","348","resources/trios/L2T2A3.jpg","37","restless",0.4,0.8,0.5,0.0271444117078745,"true"
"image-keyboard-response",474,412699,"0.0-3.154-1.154","1uwhsq6u0dzuncq",308,"147.csv","","null","resources/maskTrios/L2BB.jpg","null","",NA,NA,NA,NA,""
"image-keyboard-response",475,413904,"0.0-3.154-2.154","1uwhsq6u0dzuncq",308,"147.csv","","null","resources/images/coin2.png","null","",NA,NA,NA,NA,""
"image-keyboard-response",476,414008,"0.0-3.155-0.155","1uwhsq6u0dzuncq",308,"147.csv","","102.2999999821186","resources/trios/L2T4A3.jpg","39","restless",0.5,0.8,0.6,0.781268127012386,"false"
"image-keyboard-response",477,414409,"0.0-3.155-1.155","1uwhsq6u0dzuncq",308,"147.csv","","null","resources/maskTrios/BBA3.jpg","null","",NA,NA,NA,NA,""
"image-keyboard-response",478,415611,"0.0-3.155-2.155","1uwhsq6u0dzuncq",308,"147.csv","","null","resources/images/fishbone.png","null","",NA,NA,NA,NA,""
"image-keyboard-response",479,415978,"0.0-3.156-0.156","1uwhsq6u0dzuncq",308,"147.csv","","365","resources/trios/L2T4A1.jpg","37","restless",0.5,0.8,0.6,0.059186605082,"true"
"image-keyboard-response",480,416383,"0.0-3.156-1.156","1uwhsq6u0dzuncq",308,"147.csv","","null","resources/maskTrios/L2BB.jpg","null","",NA,NA,NA,NA,""
"image-keyboard-response",481,417589,"0.0-3.156-2.156","1uwhsq6u0dzuncq",308,"147.csv","","null","resources/images/coin2.png","null","",NA,NA,NA,NA,""
"image-keyboard-response",482,417808,"0.0-3.157-0.157","1uwhsq6u0dzuncq",308,"147.csv","","218.2000000178814","resources/trios/L1T2A3.jpg","37","restless",0.5,0.8,0.6,0.117560515617731,"true"
"image-keyboard-response",483,418214,"0.0-3.157-1.157","1uwhsq6u0dzuncq",308,"147.csv","","null","resources/maskTrios/L1BB.jpg","null","",NA,NA,NA,NA,""
"image-keyboard-response",484,419419,"0.0-3.157-2.157","1uwhsq6u0dzuncq",308,"147.csv","","null","resources/images/coin2.png","null","",NA,NA,NA,NA,""
"image-keyboard-response",485,419757,"0.0-3.158-0.158","1uwhsq6u0dzuncq",308,"147.csv","","336.60000002384186","resources/trios/L2T2A1.jpg","37","restless",0.5,0.7,0.6,0.81329040378401,"false"
"image-keyboard-response",486,420161,"0.0-3.158-1.158","1uwhsq6u0dzuncq",308,"147.csv","","null","resources/maskTrios/L2BB.jpg","null","",NA,NA,NA,NA,""
"image-keyboard-response",487,421363,"0.0-3.158-2.158","1uwhsq6u0dzuncq",308,"147.csv","","null","resources/images/fishbone.png","null","",NA,NA,NA,NA,""
"image-keyboard-response",488,421718,"0.0-3.159-0.159","1uwhsq6u0dzuncq",308,"147.csv","","353.80000001192093","resources/trios/L2T4A3.jpg","38","restless",0.5,0.7,0.6,0.935758826580574,"false"
"image-keyboard-response",489,422124,"0.0-3.159-1.159","1uwhsq6u0dzuncq",308,"147.csv","","null","resources/maskTrios/BT4B.jpg","null","",NA,NA,NA,NA,""
"image-keyboard-response",490,423326,"0.0-3.159-2.159","1uwhsq6u0dzuncq",308,"147.csv","","null","resources/images/fishbone.png","null","",NA,NA,NA,NA,""
"image-keyboard-response",491,423636,"0.0-3.160-0.160","1uwhsq6u0dzuncq",308,"147.csv","","309.2999999821186","resources/trios/L2T2A3.jpg","39","restless",0.5,0.7,0.6,0.794558493060165,"false"
"image-keyboard-response",492,424040,"0.0-3.160-1.160","1uwhsq6u0dzuncq",308,"147.csv","","null","resources/maskTrios/BBA3.jpg","null","",NA,NA,NA,NA,""
"image-keyboard-response",493,425246,"0.0-3.160-2.160","1uwhsq6u0dzuncq",308,"147.csv","","null","resources/images/fishbone.png","null","",NA,NA,NA,NA,""
"image-keyboard-response",494,425644,"0.0-3.161-0.161","1uwhsq6u0dzuncq",308,"147.csv","","397.09999999403954","resources/trios/L2T2A1.jpg","39","restless",0.5,0.8,0.6,0.11300008954868,"true"
"image-keyboard-response",495,426048,"0.0-3.161-1.161","1uwhsq6u0dzuncq",308,"147.csv","","null","resources/maskTrios/BBA1.jpg","null","",NA,NA,NA,NA,""
"image-keyboard-response",496,427252,"0.0-3.161-2.161","1uwhsq6u0dzuncq",308,"147.csv","","null","resources/images/coin2.png","null","",NA,NA,NA,NA,""
"image-keyboard-response",497,427572,"0.0-3.162-0.162","1uwhsq6u0dzuncq",308,"147.csv","","319.7000000178814","resources/trios/L2T4A3.jpg","39","restless",0.5,0.8,0.6,0.808820617350175,"false"
"image-keyboard-response",498,427977,"0.0-3.162-1.162","1uwhsq6u0dzuncq",308,"147.csv","","null","resources/maskTrios/BBA3.jpg","null","",NA,NA,NA,NA,""
"image-keyboard-response",499,429181,"0.0-3.162-2.162","1uwhsq6u0dzuncq",308,"147.csv","","null","resources/images/fishbone.png","null","",NA,NA,NA,NA,""
"image-keyboard-response",500,429401,"0.0-3.163-0.163","1uwhsq6u0dzuncq",308,"147.csv","","219","resources/trios/L1T2A3.jpg","37","restless",0.5,0.8,0.6,0.15047799181208,"true"
"image-keyboard-response",501,429804,"0.0-3.163-1.163","1uwhsq6u0dzuncq",308,"147.csv","","null","resources/maskTrios/L1BB.jpg","null","",NA,NA,NA,NA,""
"image-keyboard-response",502,431009,"0.0-3.163-2.163","1uwhsq6u0dzuncq",308,"147.csv","","null","resources/images/coin2.png","null","",NA,NA,NA,NA,""
"image-keyboard-response",503,431157,"0.0-3.164-0.164","1uwhsq6u0dzuncq",308,"147.csv","","147.40000000596046","resources/trios/L2T4A3.jpg","37","restless",0.5,0.8,0.6,0.637188108354569,"false"
"image-keyboard-response",504,431563,"0.0-3.164-1.164","1uwhsq6u0dzuncq",308,"147.csv","","null","resources/maskTrios/L2BB.jpg","null","",NA,NA,NA,NA,""
"image-keyboard-response",505,432764,"0.0-3.164-2.164","1uwhsq6u0dzuncq",308,"147.csv","","null","resources/images/fishbone.png","null","",NA,NA,NA,NA,""
"image-keyboard-response",506,433081,"0.0-3.165-0.165","1uwhsq6u0dzuncq",308,"147.csv","","315.5","resources/trios/L2T2A1.jpg","38","restless",0.5,0.8,0.5,0.420530250705542,"true"
"image-keyboard-response",507,433486,"0.0-3.165-1.165","1uwhsq6u0dzuncq",308,"147.csv","","null","resources/maskTrios/BT2B.jpg","null","",NA,NA,NA,NA,""
"image-keyboard-response",508,434692,"0.0-3.165-2.165","1uwhsq6u0dzuncq",308,"147.csv","","null","resources/images/coin2.png","null","",NA,NA,NA,NA,""
"image-keyboard-response",509,435095,"0.0-3.166-0.166","1uwhsq6u0dzuncq",308,"147.csv","","402.40000000596046","resources/trios/L2T2A1.jpg","38","restless",0.5,0.8,0.5,0.382554133479761,"true"
"image-keyboard-response",510,435499,"0.0-3.166-1.166","1uwhsq6u0dzuncq",308,"147.csv","","null","resources/maskTrios/BT2B.jpg","null","",NA,NA,NA,NA,""
"image-keyboard-response",511,436701,"0.0-3.166-2.166","1uwhsq6u0dzuncq",308,"147.csv","","null","resources/images/coin2.png","null","",NA,NA,NA,NA,""
"image-keyboard-response",512,437043,"0.0-3.167-0.167","1uwhsq6u0dzuncq",308,"147.csv","","341.40000000596046","resources/trios/L2T4A1.jpg","38","restless",0.5,0.8,0.5,0.0852086094128974,"true"
"image-keyboard-response",513,437445,"0.0-3.167-1.167","1uwhsq6u0dzuncq",308,"147.csv","","null","resources/maskTrios/BT4B.jpg","null","",NA,NA,NA,NA,""
"image-keyboard-response",514,438651,"0.0-3.167-2.167","1uwhsq6u0dzuncq",308,"147.csv","","null","resources/images/coin2.png","null","",NA,NA,NA,NA,""
"image-keyboard-response",515,439023,"0.0-3.168-0.168","1uwhsq6u0dzuncq",308,"147.csv","","370.5","resources/trios/L1T4A1.jpg","38","restless",0.5,0.8,0.5,0.490371115223365,"true"
"image-keyboard-response",516,439428,"0.0-3.168-1.168","1uwhsq6u0dzuncq",308,"147.csv","","null","resources/maskTrios/BT4B.jpg","null","",NA,NA,NA,NA,""
"image-keyboard-response",517,440631,"0.0-3.168-2.168","1uwhsq6u0dzuncq",308,"147.csv","","null","resources/images/coin2.png","null","",NA,NA,NA,NA,""
"image-keyboard-response",518,441180,"0.0-3.169-0.169","1uwhsq6u0dzuncq",308,"147.csv","","547.6000000238419","resources/trios/L1T4A1.jpg","38","restless",0.5,0.8,0.5,0.377197796876574,"true"
"image-keyboard-response",519,441583,"0.0-3.169-1.169","1uwhsq6u0dzuncq",308,"147.csv","","null","resources/maskTrios/BT4B.jpg","null","",NA,NA,NA,NA,""
"image-keyboard-response",520,442785,"0.0-3.169-2.169","1uwhsq6u0dzuncq",308,"147.csv","","null","resources/images/coin2.png","null","",NA,NA,NA,NA,""
"image-keyboard-response",521,443099,"0.0-3.170-0.170","1uwhsq6u0dzuncq",308,"147.csv","","313.40000000596046","resources/trios/L1T4A3.jpg","38","restless",0.5,0.9,0.5,0.728940677284317,"true"
"image-keyboard-response",522,443504,"0.0-3.170-1.170","1uwhsq6u0dzuncq",308,"147.csv","","null","resources/maskTrios/BT4B.jpg","null","",NA,NA,NA,NA,""
"image-keyboard-response",523,444706,"0.0-3.170-2.170","1uwhsq6u0dzuncq",308,"147.csv","","null","resources/images/coin2.png","null","",NA,NA,NA,NA,""
"image-keyboard-response",524,445001,"0.0-3.171-0.171","1uwhsq6u0dzuncq",308,"147.csv","","293.80000001192093","resources/trios/L2T4A1.jpg","38","restless",0.5,0.9,0.5,0.00605455090972207,"true"
"image-keyboard-response",525,445407,"0.0-3.171-1.171","1uwhsq6u0dzuncq",308,"147.csv","","null","resources/maskTrios/BT4B.jpg","null","",NA,NA,NA,NA,""
"image-keyboard-response",526,446612,"0.0-3.171-2.171","1uwhsq6u0dzuncq",308,"147.csv","","null","resources/images/coin2.png","null","",NA,NA,NA,NA,""
"image-keyboard-response",527,446922,"0.0-3.172-0.172","1uwhsq6u0dzuncq",308,"147.csv","","308.90000000596046","resources/trios/L2T2A3.jpg","38","restless",0.5,0.9,0.5,0.741307755704107,"true"
"image-keyboard-response",528,447324,"0.0-3.172-1.172","1uwhsq6u0dzuncq",308,"147.csv","","null","resources/maskTrios/BT2B.jpg","null","",NA,NA,NA,NA,""
"image-keyboard-response",529,448526,"0.0-3.172-2.172","1uwhsq6u0dzuncq",308,"147.csv","","null","resources/images/coin2.png","null","",NA,NA,NA,NA,""
"image-keyboard-response",530,448878,"0.0-3.173-0.173","1uwhsq6u0dzuncq",308,"147.csv","","351.7000000178814","resources/trios/L2T4A3.jpg","38","restless",0.5,0.9,0.5,0.570415961154694,"true"
"image-keyboard-response",531,449280,"0.0-3.173-1.173","1uwhsq6u0dzuncq",308,"147.csv","","null","resources/maskTrios/BT4B.jpg","null","",NA,NA,NA,NA,""
"image-keyboard-response",532,450484,"0.0-3.173-2.173","1uwhsq6u0dzuncq",308,"147.csv","","null","resources/images/coin2.png","null","",NA,NA,NA,NA,""
"image-keyboard-response",533,450786,"0.0-3.174-0.174","1uwhsq6u0dzuncq",308,"147.csv","","300.7999999821186","resources/trios/L1T4A1.jpg","38","restless",0.6,0.9,0.5,0.685151015030657,"true"
"image-keyboard-response",534,451190,"0.0-3.174-1.174","1uwhsq6u0dzuncq",308,"147.csv","","null","resources/maskTrios/BT4B.jpg","null","",NA,NA,NA,NA,""
"image-keyboard-response",535,452395,"0.0-3.174-2.174","1uwhsq6u0dzuncq",308,"147.csv","","null","resources/images/coin2.png","null","",NA,NA,NA,NA,""
"image-keyboard-response",536,452851,"0.0-3.175-0.175","1uwhsq6u0dzuncq",308,"147.csv","","454.59999999403954","resources/trios/L2T4A1.jpg","38","restless",0.6,0.9,0.5,0.525034523213683,"true"
"image-keyboard-response",537,453257,"0.0-3.175-1.175","1uwhsq6u0dzuncq",308,"147.csv","","null","resources/maskTrios/BT4B.jpg","null","",NA,NA,NA,NA,""
"image-keyboard-response",538,454459,"0.0-3.175-2.175","1uwhsq6u0dzuncq",308,"147.csv","","null","resources/images/coin2.png","null","",NA,NA,NA,NA,""
"image-keyboard-response",539,454725,"0.0-3.176-0.176","1uwhsq6u0dzuncq",308,"147.csv","","265.59999999403954","resources/trios/L1T4A1.jpg","38","restless",0.6,0.9,0.5,0.292789655593534,"true"
"image-keyboard-response",540,455130,"0.0-3.176-1.176","1uwhsq6u0dzuncq",308,"147.csv","","null","resources/maskTrios/BT4B.jpg","null","",NA,NA,NA,NA,""
"image-keyboard-response",541,456334,"0.0-3.176-2.176","1uwhsq6u0dzuncq",308,"147.csv","","null","resources/images/coin2.png","null","",NA,NA,NA,NA,""
"image-keyboard-response",542,456596,"0.0-3.177-0.177","1uwhsq6u0dzuncq",308,"147.csv","","261.40000000596046","resources/trios/L2T4A1.jpg","38","restless",0.6,0.9,0.5,0.638244275734746,"true"
"image-keyboard-response",543,457001,"0.0-3.177-1.177","1uwhsq6u0dzuncq",308,"147.csv","","null","resources/maskTrios/BT4B.jpg","null","",NA,NA,NA,NA,""
"image-keyboard-response",544,458204,"0.0-3.177-2.177","1uwhsq6u0dzuncq",308,"147.csv","","null","resources/images/coin2.png","null","",NA,NA,NA,NA,""
"image-keyboard-response",545,458394,"0.0-3.178-0.178","1uwhsq6u0dzuncq",308,"147.csv","","188.80000001192093","resources/trios/L1T4A1.jpg","38","restless",0.6,0.8,0.5,0.462966766610734,"true"
"image-keyboard-response",546,458796,"0.0-3.178-1.178","1uwhsq6u0dzuncq",308,"147.csv","","null","resources/maskTrios/BT4B.jpg","null","",NA,NA,NA,NA,""
"image-keyboard-response",547,460002,"0.0-3.178-2.178","1uwhsq6u0dzuncq",308,"147.csv","","null","resources/images/coin2.png","null","",NA,NA,NA,NA,""
"image-keyboard-response",548,460277,"0.0-3.179-0.179","1uwhsq6u0dzuncq",308,"147.csv","","273.90000000596046","resources/trios/L1T4A1.jpg","38","restless",0.6,0.7,0.5,0.722515303422067,"false"
"image-keyboard-response",549,460682,"0.0-3.179-1.179","1uwhsq6u0dzuncq",308,"147.csv","","null","resources/maskTrios/BT4B.jpg","null","",NA,NA,NA,NA,""
"image-keyboard-response",550,461883,"0.0-3.179-2.179","1uwhsq6u0dzuncq",308,"147.csv","","null","resources/images/fishbone.png","null","",NA,NA,NA,NA,""
"image-keyboard-response",551,462031,"0.0-3.180-0.180","1uwhsq6u0dzuncq",308,"147.csv","","146.2000000178814","resources/trios/L2T4A1.jpg","37","restless",0.6,0.7,0.5,0.483565042741981,"true"
"image-keyboard-response",552,462435,"0.0-3.180-1.180","1uwhsq6u0dzuncq",308,"147.csv","","null","resources/maskTrios/L2BB.jpg","null","",NA,NA,NA,NA,""
"image-keyboard-response",553,463640,"0.0-3.180-2.180","1uwhsq6u0dzuncq",308,"147.csv","","null","resources/images/coin2.png","null","",NA,NA,NA,NA,""
"image-keyboard-response",554,463712,"0.0-3.181-0.181","1uwhsq6u0dzuncq",308,"147.csv","","71.09999999403954","resources/trios/L1T2A1.jpg","37","restless",0.6,0.8,0.5,0.253379587064372,"true"
"image-keyboard-response",555,464118,"0.0-3.181-1.181","1uwhsq6u0dzuncq",308,"147.csv","","null","resources/maskTrios/L1BB.jpg","null","",NA,NA,NA,NA,""
"image-keyboard-response",556,465320,"0.0-3.181-2.181","1uwhsq6u0dzuncq",308,"147.csv","","null","resources/images/coin2.png","null","",NA,NA,NA,NA,""
"image-keyboard-response",557,465428,"0.0-3.182-0.182","1uwhsq6u0dzuncq",308,"147.csv","","107.09999999403954","resources/trios/L2T4A1.jpg","37","restless",0.6,0.8,0.5,0.109172538972804,"true"
"image-keyboard-response",558,465831,"0.0-3.182-1.182","1uwhsq6u0dzuncq",308,"147.csv","","null","resources/maskTrios/L2BB.jpg","null","",NA,NA,NA,NA,""
"image-keyboard-response",559,467032,"0.0-3.182-2.182","1uwhsq6u0dzuncq",308,"147.csv","","null","resources/images/coin2.png","null","",NA,NA,NA,NA,""
"image-keyboard-response",560,467327,"0.0-3.183-0.183","1uwhsq6u0dzuncq",308,"147.csv","","293.5","resources/trios/L1T4A1.jpg","37","restless",0.6,0.8,0.5,0.115275317695845,"true"
"image-keyboard-response",561,467729,"0.0-3.183-1.183","1uwhsq6u0dzuncq",308,"147.csv","","null","resources/maskTrios/L1BB.jpg","null","",NA,NA,NA,NA,""
"image-keyboard-response",562,468930,"0.0-3.183-2.183","1uwhsq6u0dzuncq",308,"147.csv","","null","resources/images/coin2.png","null","",NA,NA,NA,NA,""
"image-keyboard-response",563,469264,"0.0-3.184-0.184","1uwhsq6u0dzuncq",308,"147.csv","","332","resources/trios/L1T2A3.jpg","37","restless",0.6,0.8,0.5,0.770323375406869,"false"
"image-keyboard-response",564,469668,"0.0-3.184-1.184","1uwhsq6u0dzuncq",308,"147.csv","","null","resources/maskTrios/L1BB.jpg","null","",NA,NA,NA,NA,""
"image-keyboard-response",565,470871,"0.0-3.184-2.184","1uwhsq6u0dzuncq",308,"147.csv","","null","resources/images/fishbone.png","null","",NA,NA,NA,NA,""
"image-keyboard-response",566,471175,"0.0-3.185-0.185","1uwhsq6u0dzuncq",308,"147.csv","","302.2000000178814","resources/trios/L1T2A3.jpg","39","restless",0.6,0.8,0.5,0.040345048981997,"true"
"image-keyboard-response",567,471578,"0.0-3.185-1.185","1uwhsq6u0dzuncq",308,"147.csv","","null","resources/maskTrios/BBA3.jpg","null","",NA,NA,NA,NA,""
"image-keyboard-response",568,472779,"0.0-3.185-2.185","1uwhsq6u0dzuncq",308,"147.csv","","null","resources/images/coin2.png","null","",NA,NA,NA,NA,""
"image-keyboard-response",569,472926,"0.0-3.186-0.186","1uwhsq6u0dzuncq",308,"147.csv","","146","resources/trios/L1T4A1.jpg","39","restless",0.6,0.8,0.5,0.133794703600713,"true"
"image-keyboard-response",570,473331,"0.0-3.186-1.186","1uwhsq6u0dzuncq",308,"147.csv","","null","resources/maskTrios/BBA1.jpg","null","",NA,NA,NA,NA,""
"image-keyboard-response",571,474534,"0.0-3.186-2.186","1uwhsq6u0dzuncq",308,"147.csv","","null","resources/images/coin2.png","null","",NA,NA,NA,NA,""
"image-keyboard-response",572,474919,"0.0-3.187-0.187","1uwhsq6u0dzuncq",308,"147.csv","","384.5","resources/trios/L2T4A1.jpg","39","restless",0.6,0.8,0.5,0.0422737320509101,"true"
"image-keyboard-response",573,475322,"0.0-3.187-1.187","1uwhsq6u0dzuncq",308,"147.csv","","null","resources/maskTrios/BBA1.jpg","null","",NA,NA,NA,NA,""
"image-keyboard-response",574,476524,"0.0-3.187-2.187","1uwhsq6u0dzuncq",308,"147.csv","","null","resources/images/coin2.png","null","",NA,NA,NA,NA,""
"image-keyboard-response",575,476853,"0.0-3.188-0.188","1uwhsq6u0dzuncq",308,"147.csv","","328.59999999403954","resources/trios/L1T4A3.jpg","39","restless",0.6,0.8,0.5,0.126953409324706,"true"
"image-keyboard-response",576,477255,"0.0-3.188-1.188","1uwhsq6u0dzuncq",308,"147.csv","","null","resources/maskTrios/BBA3.jpg","null","",NA,NA,NA,NA,""
"image-keyboard-response",577,478457,"0.0-3.188-2.188","1uwhsq6u0dzuncq",308,"147.csv","","null","resources/images/coin2.png","null","",NA,NA,NA,NA,""
"image-keyboard-response",578,478803,"0.0-3.189-0.189","1uwhsq6u0dzuncq",308,"147.csv","","344.69999998807907","resources/trios/L1T4A3.jpg","39","restless",0.5,0.8,0.5,0.177120245549653,"true"
"image-keyboard-response",579,479205,"0.0-3.189-1.189","1uwhsq6u0dzuncq",308,"147.csv","","null","resources/maskTrios/BBA3.jpg","null","",NA,NA,NA,NA,""
"image-keyboard-response",580,480409,"0.0-3.189-2.189","1uwhsq6u0dzuncq",308,"147.csv","","null","resources/images/coin2.png","null","",NA,NA,NA,NA,""
"image-keyboard-response",581,481205,"0.0-3.190-0.190","1uwhsq6u0dzuncq",308,"147.csv","","794.8000000119209","resources/trios/L1T4A3.jpg","39","restless",0.5,0.9,0.5,0.456525100301543,"true"
"image-keyboard-response",582,481610,"0.0-3.190-1.190","1uwhsq6u0dzuncq",308,"147.csv","","null","resources/maskTrios/BBA3.jpg","null","",NA,NA,NA,NA,""
"image-keyboard-response",583,482814,"0.0-3.190-2.190","1uwhsq6u0dzuncq",308,"147.csv","","null","resources/images/coin2.png","null","",NA,NA,NA,NA,""
"image-keyboard-response",584,483210,"0.0-3.191-0.191","1uwhsq6u0dzuncq",308,"147.csv","","394.90000000596046","resources/trios/L1T4A1.jpg","39","restless",0.5,0.9,0.5,0.831885308444349,"false"
"image-keyboard-response",585,483612,"0.0-3.191-1.191","1uwhsq6u0dzuncq",308,"147.csv","","null","resources/maskTrios/BBA1.jpg","null","",NA,NA,NA,NA,""
"image-keyboard-response",586,484813,"0.0-3.191-2.191","1uwhsq6u0dzuncq",308,"147.csv","","null","resources/images/fishbone.png","null","",NA,NA,NA,NA,""
"image-keyboard-response",587,485355,"0.0-3.192-0.192","1uwhsq6u0dzuncq",308,"147.csv","","540.6999999880791","resources/trios/L1T2A1.jpg","38","restless",0.5,0.9,0.5,0.162354563172379,"true"
"image-keyboard-response",588,485759,"0.0-3.192-1.192","1uwhsq6u0dzuncq",308,"147.csv","","null","resources/maskTrios/BT2B.jpg","null","",NA,NA,NA,NA,""
"image-keyboard-response",589,486964,"0.0-3.192-2.192","1uwhsq6u0dzuncq",308,"147.csv","","null","resources/images/coin2.png","null","",NA,NA,NA,NA,""
"image-keyboard-response",590,487254,"0.0-3.193-0.193","1uwhsq6u0dzuncq",308,"147.csv","","288.90000000596046","resources/trios/L2T2A3.jpg","38","restless",0.5,0.9,0.5,0.286069267879175,"true"
"image-keyboard-response",591,487657,"0.0-3.193-1.193","1uwhsq6u0dzuncq",308,"147.csv","","null","resources/maskTrios/BT2B.jpg","null","",NA,NA,NA,NA,""
"image-keyboard-response",592,488859,"0.0-3.193-2.193","1uwhsq6u0dzuncq",308,"147.csv","","null","resources/images/coin2.png","null","",NA,NA,NA,NA,""
"image-keyboard-response",593,489150,"0.0-3.194-0.194","1uwhsq6u0dzuncq",308,"147.csv","","289.09999999403954","resources/trios/L2T2A1.jpg","38","restless",0.5,0.9,0.5,0.469356847221925,"true"
"image-keyboard-response",594,489552,"0.0-3.194-1.194","1uwhsq6u0dzuncq",308,"147.csv","","null","resources/maskTrios/BT2B.jpg","null","",NA,NA,NA,NA,""
"image-keyboard-response",595,490758,"0.0-3.194-2.194","1uwhsq6u0dzuncq",308,"147.csv","","null","resources/images/coin2.png","null","",NA,NA,NA,NA,""
"image-keyboard-response",596,490841,"0.0-3.195-0.195","1uwhsq6u0dzuncq",308,"147.csv","","82.60000002384186","resources/trios/L2T4A3.jpg","38","restless",0.5,0.9,0.5,0.469571333287216,"true"
"image-keyboard-response",597,491247,"0.0-3.195-1.195","1uwhsq6u0dzuncq",308,"147.csv","","null","resources/maskTrios/BT4B.jpg","null","",NA,NA,NA,NA,""
"image-keyboard-response",598,492452,"0.0-3.195-2.195","1uwhsq6u0dzuncq",308,"147.csv","","null","resources/images/coin2.png","null","",NA,NA,NA,NA,""
"image-keyboard-response",599,492738,"0.0-3.196-0.196","1uwhsq6u0dzuncq",308,"147.csv","","285","resources/trios/L2T2A3.jpg","38","restless",0.5,0.9,0.5,0.285812457594941,"true"
"image-keyboard-response",600,493141,"0.0-3.196-1.196","1uwhsq6u0dzuncq",308,"147.csv","","null","resources/maskTrios/BT2B.jpg","null","",NA,NA,NA,NA,""
"image-keyboard-response",601,494345,"0.0-3.196-2.196","1uwhsq6u0dzuncq",308,"147.csv","","null","resources/images/coin2.png","null","",NA,NA,NA,NA,""
"image-keyboard-response",602,494727,"0.0-3.197-0.197","1uwhsq6u0dzuncq",308,"147.csv","","380.60000002384186","resources/trios/L2T2A1.jpg","38","restless",0.5,0.9,0.5,0.959519273530017,"false"
"image-keyboard-response",603,495129,"0.0-3.197-1.197","1uwhsq6u0dzuncq",308,"147.csv","","null","resources/maskTrios/BT2B.jpg","null","",NA,NA,NA,NA,""
"image-keyboard-response",604,496332,"0.0-3.197-2.197","1uwhsq6u0dzuncq",308,"147.csv","","null","resources/images/fishbone.png","null","",NA,NA,NA,NA,""
"image-keyboard-response",605,496664,"0.0-3.198-0.198","1uwhsq6u0dzuncq",308,"147.csv","","330.69999998807907","resources/trios/L1T4A1.jpg","37","restless",0.5,0.9,0.5,0.201439219894337,"true"
"image-keyboard-response",606,497068,"0.0-3.198-1.198","1uwhsq6u0dzuncq",308,"147.csv","","null","resources/maskTrios/L1BB.jpg","null","",NA,NA,NA,NA,""
