"trial_type","trial_index","time_elapsed","internal_node_id","subject","participantCode","walkNumber","success","rt","stimulus","key_press","test_part","leftProb","midProb","rightProb","generatedNum","correct"
"pavlovia",0,1293,"0.0-0.0","d3kw5p3etex7463",88,"71.csv","","","","","",NA,NA,NA,NA,""
"fullscreen",1,7184,"0.0-1.0","d3kw5p3etex7463",88,"71.csv","true","","","","",NA,NA,NA,NA,""
"html-keyboard-response",2,26717,"0.0-2.0-0.0","d3kw5p3etex7463",88,"71.csv","","19530.699999809265","<p><font size='6'>Arrrgh!</p></font><p>Can you be the best pirate? Try to find lots of gold! But beware, some islands have more gold than others, and over time, the island with the most gold may change. Can YOU figure it out? </p><font size='6'>GOOD LUCK, CAPTAIN!!!</font><p>Press any key to begin</p>","32","",NA,NA,NA,NA,""
"image-keyboard-response",3,29724,"0.0-2.0-1.0","d3kw5p3etex7463",88,"71.csv","","null","resources/image_sets/111.png","null","",NA,NA,NA,NA,""
"image-keyboard-response",4,40917,"0.0-2.0-2.0","d3kw5p3etex7463",88,"71.csv","","11191.299999713898","resources/image_sets/left_highlight.png","37","",NA,NA,NA,NA,""
"image-keyboard-response",5,43088,"0.0-2.0-3.0","d3kw5p3etex7463",88,"71.csv","","2168.2000002861023","resources/image_sets/mid_highlight.png","38","",NA,NA,NA,NA,""
"image-keyboard-response",6,43814,"0.0-2.0-4.0","d3kw5p3etex7463",88,"71.csv","","724.5","resources/image_sets/right_highlight.png","39","",NA,NA,NA,NA,""
"image-keyboard-response",7,45599,"0.0-2.0-5.0","d3kw5p3etex7463",88,"71.csv","","1783.0999999046326","resources/image_sets/111.png","13","",NA,NA,NA,NA,""
"image-keyboard-response",8,49262,"0.0-2.0-6.0","d3kw5p3etex7463",88,"71.csv","","3662.1000003814697","resources/images/coin2.png","13","",NA,NA,NA,NA,""
"image-keyboard-response",9,51329,"0.0-2.0-7.0","d3kw5p3etex7463",88,"71.csv","","2064.800000190735","resources/images/fishbone.png","13","",NA,NA,NA,NA,""
"html-keyboard-response",10,59756,"0.0-2.0-8.0","d3kw5p3etex7463",88,"71.csv","","8429.699999809265","<p>Your first journey will be a long one, but you will get a well deserved break at the end</p><p>After the break you will have four more journeys, but each will be much shorter than the first, and you will have breaks in between each</p><p>Press Enter to begin</p>","13","",NA,NA,NA,NA,""
"image-keyboard-response",11,64004,"0.0-3.0-0.0","d3kw5p3etex7463",88,"71.csv","","4245.60000038147","resources/trios/L2T1A3.jpg","37","restless",0.3,0.9,0.7,0.815843268346373,"false"
"image-keyboard-response",12,64423,"0.0-3.0-1.0","d3kw5p3etex7463",88,"71.csv","","null","resources/maskTrios/L2BB.jpg","null","",NA,NA,NA,NA,""
"image-keyboard-response",13,65636,"0.0-3.0-2.0","d3kw5p3etex7463",88,"71.csv","","null","resources/images/fishbone.png","null","",NA,NA,NA,NA,""
"image-keyboard-response",14,67577,"0.0-3.1-0.1","d3kw5p3etex7463",88,"71.csv","","1938.0999999046326","resources/trios/L2T1A3.jpg","38","restless",0.3,0.9,0.7,0.483924077180599,"true"
"image-keyboard-response",15,67986,"0.0-3.1-1.1","d3kw5p3etex7463",88,"71.csv","","null","resources/maskTrios/BT1B.jpg","null","",NA,NA,NA,NA,""
"image-keyboard-response",16,69198,"0.0-3.1-2.1","d3kw5p3etex7463",88,"71.csv","","null","resources/images/coin2.png","null","",NA,NA,NA,NA,""
"image-keyboard-response",17,71087,"0.0-3.2-0.2","d3kw5p3etex7463",88,"71.csv","","1887.2000002861023","resources/trios/L4T1A3.jpg","39","restless",0.3,0.9,0.7,0.479616081073369,"true"
"image-keyboard-response",18,71490,"0.0-3.2-1.2","d3kw5p3etex7463",88,"71.csv","","null","resources/maskTrios/BBA3.jpg","null","",NA,NA,NA,NA,""
"image-keyboard-response",19,72699,"0.0-3.2-2.2","d3kw5p3etex7463",88,"71.csv","","null","resources/images/coin2.png","null","",NA,NA,NA,NA,""
"image-keyboard-response",20,74939,"0.0-3.3-0.3","d3kw5p3etex7463",88,"71.csv","","2238.8999996185303","resources/trios/L2T1A3.jpg","38","restless",0.3,0.9,0.7,0.980450667843277,"false"
"image-keyboard-response",21,75344,"0.0-3.3-1.3","d3kw5p3etex7463",88,"71.csv","","null","resources/maskTrios/BT1B.jpg","null","",NA,NA,NA,NA,""
"image-keyboard-response",22,76557,"0.0-3.3-2.3","d3kw5p3etex7463",88,"71.csv","","null","resources/images/fishbone.png","null","",NA,NA,NA,NA,""
"image-keyboard-response",23,78966,"0.0-3.4-0.4","d3kw5p3etex7463",88,"71.csv","","2407.5999999046326","resources/trios/L2T2A2.jpg","38","restless",0.3,0.9,0.7,0.695275541406166,"true"
"image-keyboard-response",24,79374,"0.0-3.4-1.4","d3kw5p3etex7463",88,"71.csv","","null","resources/maskTrios/BT2B.jpg","null","",NA,NA,NA,NA,""
"image-keyboard-response",25,80588,"0.0-3.4-2.4","d3kw5p3etex7463",88,"71.csv","","null","resources/images/coin2.png","null","",NA,NA,NA,NA,""
"image-keyboard-response",26,82936,"0.0-3.5-0.5","d3kw5p3etex7463",88,"71.csv","","2347","resources/trios/L4T1A3.jpg","37","restless",0.3,0.9,0.7,0.728292145803122,"false"
"image-keyboard-response",27,83344,"0.0-3.5-1.5","d3kw5p3etex7463",88,"71.csv","","null","resources/maskTrios/L4BB.jpg","null","",NA,NA,NA,NA,""
"image-keyboard-response",28,84556,"0.0-3.5-2.5","d3kw5p3etex7463",88,"71.csv","","null","resources/images/fishbone.png","null","",NA,NA,NA,NA,""
"image-keyboard-response",29,86511,"0.0-3.6-0.6","d3kw5p3etex7463",88,"71.csv","","1953.3000001907349","resources/trios/L2T1A3.jpg","39","restless",0.3,0.9,0.7,0.833883959734286,"false"
"image-keyboard-response",30,86917,"0.0-3.6-1.6","d3kw5p3etex7463",88,"71.csv","","null","resources/maskTrios/BBA3.jpg","null","",NA,NA,NA,NA,""
"image-keyboard-response",31,88126,"0.0-3.6-2.6","d3kw5p3etex7463",88,"71.csv","","null","resources/images/fishbone.png","null","",NA,NA,NA,NA,""
"image-keyboard-response",32,89840,"0.0-3.7-0.7","d3kw5p3etex7463",88,"71.csv","","1712.5999999046326","resources/trios/L2T1A3.jpg","37","restless",0.3,0.9,0.7,0.186070110585039,"true"
"image-keyboard-response",33,90257,"0.0-3.7-1.7","d3kw5p3etex7463",88,"71.csv","","null","resources/maskTrios/L2BB.jpg","null","",NA,NA,NA,NA,""
"image-keyboard-response",34,91467,"0.0-3.7-2.7","d3kw5p3etex7463",88,"71.csv","","null","resources/images/coin2.png","null","",NA,NA,NA,NA,""
"image-keyboard-response",35,92436,"0.0-3.8-0.8","d3kw5p3etex7463",88,"71.csv","","966.9000000953674","resources/trios/L2T2A3.jpg","39","restless",0.3,0.8,0.7,0.261754508810181,"true"
"image-keyboard-response",36,92843,"0.0-3.8-1.8","d3kw5p3etex7463",88,"71.csv","","null","resources/maskTrios/BBA3.jpg","null","",NA,NA,NA,NA,""
"image-keyboard-response",37,94050,"0.0-3.8-2.8","d3kw5p3etex7463",88,"71.csv","","null","resources/images/coin2.png","null","",NA,NA,NA,NA,""
"image-keyboard-response",38,95310,"0.0-3.9-0.9","d3kw5p3etex7463",88,"71.csv","","1259.0999999046326","resources/trios/L4T1A2.jpg","39","restless",0.3,0.8,0.7,0.825487122936564,"false"
"image-keyboard-response",39,95716,"0.0-3.9-1.9","d3kw5p3etex7463",88,"71.csv","","null","resources/maskTrios/BBA2.jpg","null","",NA,NA,NA,NA,""
"image-keyboard-response",40,96926,"0.0-3.9-2.9","d3kw5p3etex7463",88,"71.csv","","null","resources/images/fishbone.png","null","",NA,NA,NA,NA,""
"image-keyboard-response",41,97679,"0.0-3.10-0.10","d3kw5p3etex7463",88,"71.csv","","750.5","resources/trios/L4T1A2.jpg","37","restless",0.3,0.8,0.7,0.750040826407639,"false"
"image-keyboard-response",42,98087,"0.0-3.10-1.10","d3kw5p3etex7463",88,"71.csv","","null","resources/maskTrios/L4BB.jpg","null","",NA,NA,NA,NA,""
"image-keyboard-response",43,99293,"0.0-3.10-2.10","d3kw5p3etex7463",88,"71.csv","","null","resources/images/fishbone.png","null","",NA,NA,NA,NA,""
"image-keyboard-response",44,99763,"0.0-3.11-0.11","d3kw5p3etex7463",88,"71.csv","","468.7999997138977","resources/trios/L2T2A3.jpg","39","restless",0.3,0.7,0.7,0.59167406093276,"true"
"image-keyboard-response",45,100168,"0.0-3.11-1.11","d3kw5p3etex7463",88,"71.csv","","null","resources/maskTrios/BBA3.jpg","null","",NA,NA,NA,NA,""
"image-keyboard-response",46,101373,"0.0-3.11-2.11","d3kw5p3etex7463",88,"71.csv","","null","resources/images/coin2.png","null","",NA,NA,NA,NA,""
"image-keyboard-response",47,101823,"0.0-3.12-0.12","d3kw5p3etex7463",88,"71.csv","","446.90000009536743","resources/trios/L2T2A3.jpg","38","restless",0.3,0.7,0.7,0.757597548423451,"false"
"image-keyboard-response",48,102238,"0.0-3.12-1.12","d3kw5p3etex7463",88,"71.csv","","null","resources/maskTrios/BT2B.jpg","null","",NA,NA,NA,NA,""
"image-keyboard-response",49,103456,"0.0-3.12-2.12","d3kw5p3etex7463",88,"71.csv","","null","resources/images/fishbone.png","null","",NA,NA,NA,NA,""
"image-keyboard-response",50,104641,"0.0-3.13-0.13","d3kw5p3etex7463",88,"71.csv","","1182.2000002861023","resources/trios/L4T2A3.jpg","37","restless",0.3,0.7,0.7,0.663449460912257,"false"
"image-keyboard-response",51,105050,"0.0-3.13-1.13","d3kw5p3etex7463",88,"71.csv","","null","resources/maskTrios/L4BB.jpg","null","",NA,NA,NA,NA,""
"image-keyboard-response",52,106261,"0.0-3.13-2.13","d3kw5p3etex7463",88,"71.csv","","null","resources/images/fishbone.png","null","",NA,NA,NA,NA,""
"image-keyboard-response",53,107672,"0.0-3.14-0.14","d3kw5p3etex7463",88,"71.csv","","1408.5999999046326","resources/trios/L4T1A3.jpg","38","restless",0.3,0.7,0.7,0.89901554753139,"false"
"image-keyboard-response",54,108080,"0.0-3.14-1.14","d3kw5p3etex7463",88,"71.csv","","null","resources/maskTrios/BT1B.jpg","null","",NA,NA,NA,NA,""
"image-keyboard-response",55,109284,"0.0-3.14-2.14","d3kw5p3etex7463",88,"71.csv","","null","resources/images/fishbone.png","null","",NA,NA,NA,NA,""
"image-keyboard-response",56,111023,"0.0-3.15-0.15","d3kw5p3etex7463",88,"71.csv","","1736.7000002861023","resources/trios/L2T2A3.jpg","39","restless",0.3,0.7,0.8,0.841822585593649,"false"
"image-keyboard-response",57,111440,"0.0-3.15-1.15","d3kw5p3etex7463",88,"71.csv","","null","resources/maskTrios/BBA3.jpg","null","",NA,NA,NA,NA,""
"image-keyboard-response",58,112649,"0.0-3.15-2.15","d3kw5p3etex7463",88,"71.csv","","null","resources/images/fishbone.png","null","",NA,NA,NA,NA,""
"image-keyboard-response",59,113459,"0.0-3.16-0.16","d3kw5p3etex7463",88,"71.csv","","808.3000001907349","resources/trios/L2T1A3.jpg","38","restless",0.3,0.6,0.8,0.514767955194426,"true"
"image-keyboard-response",60,113865,"0.0-3.16-1.16","d3kw5p3etex7463",88,"71.csv","","null","resources/maskTrios/BT1B.jpg","null","",NA,NA,NA,NA,""
"image-keyboard-response",61,115080,"0.0-3.16-2.16","d3kw5p3etex7463",88,"71.csv","","null","resources/images/coin2.png","null","",NA,NA,NA,NA,""
"image-keyboard-response",62,115567,"0.0-3.17-0.17","d3kw5p3etex7463",88,"71.csv","","485.90000009536743","resources/trios/L4T2A3.jpg","37","restless",0.3,0.6,0.7,0.971359308334403,"false"
"image-keyboard-response",63,115983,"0.0-3.17-1.17","d3kw5p3etex7463",88,"71.csv","","null","resources/maskTrios/L4BB.jpg","null","",NA,NA,NA,NA,""
"image-keyboard-response",64,117199,"0.0-3.17-2.17","d3kw5p3etex7463",88,"71.csv","","null","resources/images/fishbone.png","null","",NA,NA,NA,NA,""
"image-keyboard-response",65,117868,"0.0-3.18-0.18","d3kw5p3etex7463",88,"71.csv","","667.5","resources/trios/L4T2A2.jpg","39","restless",0.3,0.6,0.6,0.431221803812216,"true"
"image-keyboard-response",66,118279,"0.0-3.18-1.18","d3kw5p3etex7463",88,"71.csv","","null","resources/maskTrios/BBA2.jpg","null","",NA,NA,NA,NA,""
"image-keyboard-response",67,119491,"0.0-3.18-2.18","d3kw5p3etex7463",88,"71.csv","","null","resources/images/coin2.png","null","",NA,NA,NA,NA,""
"image-keyboard-response",68,119980,"0.0-3.19-0.19","d3kw5p3etex7463",88,"71.csv","","483.7000002861023","resources/trios/L4T1A3.jpg","37","restless",0.3,0.6,0.6,0.279460002638221,"true"
"image-keyboard-response",69,120390,"0.0-3.19-1.19","d3kw5p3etex7463",88,"71.csv","","null","resources/maskTrios/L4BB.jpg","null","",NA,NA,NA,NA,""
"image-keyboard-response",70,121593,"0.0-3.19-2.19","d3kw5p3etex7463",88,"71.csv","","null","resources/images/coin2.png","null","",NA,NA,NA,NA,""
"image-keyboard-response",71,122954,"0.0-3.20-0.20","d3kw5p3etex7463",88,"71.csv","","1359.1999998092651","resources/trios/L2T1A3.jpg","38","restless",0.4,0.6,0.6,0.85675618404372,"false"
"image-keyboard-response",72,123378,"0.0-3.20-1.20","d3kw5p3etex7463",88,"71.csv","","null","resources/maskTrios/BT1B.jpg","null","",NA,NA,NA,NA,""
"image-keyboard-response",73,124580,"0.0-3.20-2.20","d3kw5p3etex7463",88,"71.csv","","null","resources/images/fishbone.png","null","",NA,NA,NA,NA,""
"image-keyboard-response",74,128606,"0.0-3.21-0.21","d3kw5p3etex7463",88,"71.csv","","4023.9000000953674","resources/trios/L2T1A3.jpg","39","restless",0.4,0.6,0.6,0.533526134089563,"true"
"image-keyboard-response",75,129013,"0.0-3.21-1.21","d3kw5p3etex7463",88,"71.csv","","null","resources/maskTrios/BBA3.jpg","null","",NA,NA,NA,NA,""
"image-keyboard-response",76,130220,"0.0-3.21-2.21","d3kw5p3etex7463",88,"71.csv","","null","resources/images/coin2.png","null","",NA,NA,NA,NA,""
"image-keyboard-response",77,130523,"0.0-3.22-0.22","d3kw5p3etex7463",88,"71.csv","","301.09999990463257","resources/trios/L2T2A2.jpg","37","restless",0.4,0.6,0.6,0.183036937446834,"true"
"image-keyboard-response",78,130928,"0.0-3.22-1.22","d3kw5p3etex7463",88,"71.csv","","null","resources/maskTrios/L2BB.jpg","null","",NA,NA,NA,NA,""
"image-keyboard-response",79,132142,"0.0-3.22-2.22","d3kw5p3etex7463",88,"71.csv","","null","resources/images/coin2.png","null","",NA,NA,NA,NA,""
"image-keyboard-response",80,132828,"0.0-3.23-0.23","d3kw5p3etex7463",88,"71.csv","","684.5","resources/trios/L2T1A2.jpg","38","restless",0.4,0.6,0.6,0.717297483941828,"false"
"image-keyboard-response",81,133242,"0.0-3.23-1.23","d3kw5p3etex7463",88,"71.csv","","null","resources/maskTrios/BT1B.jpg","null","",NA,NA,NA,NA,""
"image-keyboard-response",82,134449,"0.0-3.23-2.23","d3kw5p3etex7463",88,"71.csv","","null","resources/images/fishbone.png","null","",NA,NA,NA,NA,""
"image-keyboard-response",83,143197,"0.0-3.24-0.24","d3kw5p3etex7463",88,"71.csv","","8746.89999961853","resources/trios/L4T1A2.jpg","39","restless",0.4,0.5,0.6,0.758652334544285,"false"
"image-keyboard-response",84,143602,"0.0-3.24-1.24","d3kw5p3etex7463",88,"71.csv","","null","resources/maskTrios/BBA2.jpg","null","",NA,NA,NA,NA,""
"image-keyboard-response",85,144823,"0.0-3.24-2.24","d3kw5p3etex7463",88,"71.csv","","null","resources/images/fishbone.png","null","",NA,NA,NA,NA,""
"image-keyboard-response",86,146285,"0.0-3.25-0.25","d3kw5p3etex7463",88,"71.csv","","1460.1999998092651","resources/trios/L4T1A2.jpg","38","restless",0.4,0.5,0.6,0.0668149852044613,"true"
"image-keyboard-response",87,146695,"0.0-3.25-1.25","d3kw5p3etex7463",88,"71.csv","","null","resources/maskTrios/BT1B.jpg","null","",NA,NA,NA,NA,""
"image-keyboard-response",88,147908,"0.0-3.25-2.25","d3kw5p3etex7463",88,"71.csv","","null","resources/images/coin2.png","null","",NA,NA,NA,NA,""
"image-keyboard-response",89,148501,"0.0-3.26-0.26","d3kw5p3etex7463",88,"71.csv","","590.8000001907349","resources/trios/L4T1A3.jpg","38","restless",0.4,0.5,0.7,0.894024215963045,"false"
"image-keyboard-response",90,148904,"0.0-3.26-1.26","d3kw5p3etex7463",88,"71.csv","","null","resources/maskTrios/BT1B.jpg","null","",NA,NA,NA,NA,""
"image-keyboard-response",91,150114,"0.0-3.26-2.26","d3kw5p3etex7463",88,"71.csv","","null","resources/images/fishbone.png","null","",NA,NA,NA,NA,""
"image-keyboard-response",92,151630,"0.0-3.27-0.27","d3kw5p3etex7463",88,"71.csv","","1513.8999996185303","resources/trios/L2T2A2.jpg","37","restless",0.4,0.5,0.7,0.296502716816643,"true"
"image-keyboard-response",93,152042,"0.0-3.27-1.27","d3kw5p3etex7463",88,"71.csv","","null","resources/maskTrios/L2BB.jpg","null","",NA,NA,NA,NA,""
"image-keyboard-response",94,153250,"0.0-3.27-2.27","d3kw5p3etex7463",88,"71.csv","","null","resources/images/coin2.png","null","",NA,NA,NA,NA,""
"image-keyboard-response",95,153839,"0.0-3.28-0.28","d3kw5p3etex7463",88,"71.csv","","588","resources/trios/L2T1A2.jpg","39","restless",0.4,0.4,0.7,0.887828865590297,"false"
"image-keyboard-response",96,154250,"0.0-3.28-1.28","d3kw5p3etex7463",88,"71.csv","","null","resources/maskTrios/BBA2.jpg","null","",NA,NA,NA,NA,""
"image-keyboard-response",97,155454,"0.0-3.28-2.28","d3kw5p3etex7463",88,"71.csv","","null","resources/images/fishbone.png","null","",NA,NA,NA,NA,""
"image-keyboard-response",98,156140,"0.0-3.29-0.29","d3kw5p3etex7463",88,"71.csv","","684","resources/trios/L4T1A3.jpg","37","restless",0.4,0.4,0.7,0.367388002245429,"true"
"image-keyboard-response",99,156545,"0.0-3.29-1.29","d3kw5p3etex7463",88,"71.csv","","null","resources/maskTrios/L4BB.jpg","null","",NA,NA,NA,NA,""
"image-keyboard-response",100,157754,"0.0-3.29-2.29","d3kw5p3etex7463",88,"71.csv","","null","resources/images/coin2.png","null","",NA,NA,NA,NA,""
"image-keyboard-response",101,158003,"0.0-3.30-0.30","d3kw5p3etex7463",88,"71.csv","","247.09999990463257","resources/trios/L2T2A2.jpg","38","restless",0.4,0.3,0.7,0.875386714938192,"false"
"image-keyboard-response",102,158415,"0.0-3.30-1.30","d3kw5p3etex7463",88,"71.csv","","null","resources/maskTrios/BT2B.jpg","null","",NA,NA,NA,NA,""
"image-keyboard-response",103,159621,"0.0-3.30-2.30","d3kw5p3etex7463",88,"71.csv","","null","resources/images/fishbone.png","null","",NA,NA,NA,NA,""
"image-keyboard-response",104,160244,"0.0-3.31-0.31","d3kw5p3etex7463",88,"71.csv","","621.0999999046326","resources/trios/L2T1A2.jpg","37","restless",0.4,0.4,0.7,0.733909452095734,"false"
"image-keyboard-response",105,160653,"0.0-3.31-1.31","d3kw5p3etex7463",88,"71.csv","","null","resources/maskTrios/L2BB.jpg","null","",NA,NA,NA,NA,""
"image-keyboard-response",106,161855,"0.0-3.31-2.31","d3kw5p3etex7463",88,"71.csv","","null","resources/images/fishbone.png","null","",NA,NA,NA,NA,""
"image-keyboard-response",107,162100,"0.0-3.32-0.32","d3kw5p3etex7463",88,"71.csv","","243.5","resources/trios/L4T2A3.jpg","39","restless",0.4,0.4,0.7,0.241981337982203,"true"
"image-keyboard-response",108,162503,"0.0-3.32-1.32","d3kw5p3etex7463",88,"71.csv","","null","resources/maskTrios/BBA3.jpg","null","",NA,NA,NA,NA,""
"image-keyboard-response",109,163718,"0.0-3.32-2.32","d3kw5p3etex7463",88,"71.csv","","null","resources/images/coin2.png","null","",NA,NA,NA,NA,""
"image-keyboard-response",110,164061,"0.0-3.33-0.33","d3kw5p3etex7463",88,"71.csv","","340.59999990463257","resources/trios/L2T1A2.jpg","38","restless",0.4,0.4,0.7,0.652525603433903,"false"
"image-keyboard-response",111,164473,"0.0-3.33-1.33","d3kw5p3etex7463",88,"71.csv","","null","resources/maskTrios/BT1B.jpg","null","",NA,NA,NA,NA,""
"image-keyboard-response",112,165686,"0.0-3.33-2.33","d3kw5p3etex7463",88,"71.csv","","null","resources/images/fishbone.png","null","",NA,NA,NA,NA,""
"image-keyboard-response",113,166162,"0.0-3.34-0.34","d3kw5p3etex7463",88,"71.csv","","474","resources/trios/L4T2A3.jpg","37","restless",0.4,0.4,0.7,0.737622618714569,"false"
"image-keyboard-response",114,166572,"0.0-3.34-1.34","d3kw5p3etex7463",88,"71.csv","","null","resources/maskTrios/L4BB.jpg","null","",NA,NA,NA,NA,""
"image-keyboard-response",115,167780,"0.0-3.34-2.34","d3kw5p3etex7463",88,"71.csv","","null","resources/images/fishbone.png","null","",NA,NA,NA,NA,""
"image-keyboard-response",116,168331,"0.0-3.35-0.35","d3kw5p3etex7463",88,"71.csv","","549.5999999046326","resources/trios/L4T1A3.jpg","37","restless",0.4,0.4,0.7,0.0347071740455369,"true"
"image-keyboard-response",117,168739,"0.0-3.35-1.35","d3kw5p3etex7463",88,"71.csv","","null","resources/maskTrios/L4BB.jpg","null","",NA,NA,NA,NA,""
"image-keyboard-response",118,169952,"0.0-3.35-2.35","d3kw5p3etex7463",88,"71.csv","","null","resources/images/coin2.png","null","",NA,NA,NA,NA,""
"image-keyboard-response",119,170646,"0.0-3.36-0.36","d3kw5p3etex7463",88,"71.csv","","691.5999999046326","resources/trios/L4T1A3.jpg","38","restless",0.4,0.4,0.7,0.492598800521151,"false"
"image-keyboard-response",120,171056,"0.0-3.36-1.36","d3kw5p3etex7463",88,"71.csv","","null","resources/maskTrios/BT1B.jpg","null","",NA,NA,NA,NA,""
"image-keyboard-response",121,172259,"0.0-3.36-2.36","d3kw5p3etex7463",88,"71.csv","","null","resources/images/fishbone.png","null","",NA,NA,NA,NA,""
"image-keyboard-response",122,172606,"0.0-3.37-0.37","d3kw5p3etex7463",88,"71.csv","","346.40000009536743","resources/trios/L4T2A3.jpg","38","restless",0.4,0.4,0.7,0.181986253333565,"true"
"image-keyboard-response",123,173019,"0.0-3.37-1.37","d3kw5p3etex7463",88,"71.csv","","null","resources/maskTrios/BT2B.jpg","null","",NA,NA,NA,NA,""
"image-keyboard-response",124,174233,"0.0-3.37-2.37","d3kw5p3etex7463",88,"71.csv","","null","resources/images/coin2.png","null","",NA,NA,NA,NA,""
"image-keyboard-response",125,174852,"0.0-3.38-0.38","d3kw5p3etex7463",88,"71.csv","","618","resources/trios/L2T2A2.jpg","39","restless",0.4,0.4,0.7,0.184944947004409,"true"
"image-keyboard-response",126,175255,"0.0-3.38-1.38","d3kw5p3etex7463",88,"71.csv","","null","resources/maskTrios/BBA2.jpg","null","",NA,NA,NA,NA,""
"image-keyboard-response",127,176465,"0.0-3.38-2.38","d3kw5p3etex7463",88,"71.csv","","null","resources/images/coin2.png","null","",NA,NA,NA,NA,""
"image-keyboard-response",128,177314,"0.0-3.39-0.39","d3kw5p3etex7463",88,"71.csv","","847.9000000953674","resources/trios/L4T1A2.jpg","38","restless",0.4,0.4,0.8,0.632009135656841,"false"
"image-keyboard-response",129,177720,"0.0-3.39-1.39","d3kw5p3etex7463",88,"71.csv","","null","resources/maskTrios/BT1B.jpg","null","",NA,NA,NA,NA,""
"image-keyboard-response",130,178936,"0.0-3.39-2.39","d3kw5p3etex7463",88,"71.csv","","null","resources/images/fishbone.png","null","",NA,NA,NA,NA,""
"image-keyboard-response",131,179453,"0.0-3.40-0.40","d3kw5p3etex7463",88,"71.csv","","514.8000001907349","resources/trios/L2T1A2.jpg","37","restless",0.4,0.4,0.8,0.506242856299259,"false"
"image-keyboard-response",132,179861,"0.0-3.40-1.40","d3kw5p3etex7463",88,"71.csv","","null","resources/maskTrios/L2BB.jpg","null","",NA,NA,NA,NA,""
"image-keyboard-response",133,181073,"0.0-3.40-2.40","d3kw5p3etex7463",88,"71.csv","","null","resources/images/fishbone.png","null","",NA,NA,NA,NA,""
"image-keyboard-response",134,181505,"0.0-3.41-0.41","d3kw5p3etex7463",88,"71.csv","","430.59999990463257","resources/trios/L4T2A3.jpg","37","restless",0.3,0.4,0.8,0.773712190330647,"false"
"image-keyboard-response",135,181914,"0.0-3.41-1.41","d3kw5p3etex7463",88,"71.csv","","null","resources/maskTrios/L4BB.jpg","null","",NA,NA,NA,NA,""
"image-keyboard-response",136,183116,"0.0-3.41-2.41","d3kw5p3etex7463",88,"71.csv","","null","resources/images/fishbone.png","null","",NA,NA,NA,NA,""
"image-keyboard-response",137,183672,"0.0-3.42-0.42","d3kw5p3etex7463",88,"71.csv","","554.5","resources/trios/L2T1A3.jpg","39","restless",0.3,0.5,0.8,0.671581345201635,"true"
"image-keyboard-response",138,184075,"0.0-3.42-1.42","d3kw5p3etex7463",88,"71.csv","","null","resources/maskTrios/BBA3.jpg","null","",NA,NA,NA,NA,""
"image-keyboard-response",139,185282,"0.0-3.42-2.42","d3kw5p3etex7463",88,"71.csv","","null","resources/images/coin2.png","null","",NA,NA,NA,NA,""
"image-keyboard-response",140,186433,"0.0-3.43-0.43","d3kw5p3etex7463",88,"71.csv","","1148.6000003814697","resources/trios/L2T2A3.jpg","38","restless",0.3,0.5,0.8,0.076272742203914,"true"
"image-keyboard-response",141,186841,"0.0-3.43-1.43","d3kw5p3etex7463",88,"71.csv","","null","resources/maskTrios/BT2B.jpg","null","",NA,NA,NA,NA,""
"image-keyboard-response",142,188046,"0.0-3.43-2.43","d3kw5p3etex7463",88,"71.csv","","null","resources/images/coin2.png","null","",NA,NA,NA,NA,""
"image-keyboard-response",143,188869,"0.0-3.44-0.44","d3kw5p3etex7463",88,"71.csv","","820.9000000953674","resources/trios/L4T1A3.jpg","38","restless",0.3,0.5,0.8,0.696519131626814,"false"
"image-keyboard-response",144,189285,"0.0-3.44-1.44","d3kw5p3etex7463",88,"71.csv","","null","resources/maskTrios/BT1B.jpg","null","",NA,NA,NA,NA,""
"image-keyboard-response",145,190501,"0.0-3.44-2.44","d3kw5p3etex7463",88,"71.csv","","null","resources/images/fishbone.png","null","",NA,NA,NA,NA,""
"image-keyboard-response",146,192273,"0.0-3.45-0.45","d3kw5p3etex7463",88,"71.csv","","1770.8000001907349","resources/trios/L4T2A3.jpg","39","restless",0.3,0.5,0.9,0.0203674640202403,"true"
"image-keyboard-response",147,192689,"0.0-3.45-1.45","d3kw5p3etex7463",88,"71.csv","","null","resources/maskTrios/BBA3.jpg","null","",NA,NA,NA,NA,""
"image-keyboard-response",148,193902,"0.0-3.45-2.45","d3kw5p3etex7463",88,"71.csv","","null","resources/images/coin2.png","null","",NA,NA,NA,NA,""
"image-keyboard-response",149,194405,"0.0-3.46-0.46","d3kw5p3etex7463",88,"71.csv","","500.8999996185303","resources/trios/L2T1A3.jpg","37","restless",0.3,0.5,0.9,0.445821121617874,"false"
"image-keyboard-response",150,194817,"0.0-3.46-1.46","d3kw5p3etex7463",88,"71.csv","","null","resources/maskTrios/L2BB.jpg","null","",NA,NA,NA,NA,""
"image-keyboard-response",151,196028,"0.0-3.46-2.46","d3kw5p3etex7463",88,"71.csv","","null","resources/images/fishbone.png","null","",NA,NA,NA,NA,""
"image-keyboard-response",152,197209,"0.0-3.47-0.47","d3kw5p3etex7463",88,"71.csv","","1179","resources/trios/L2T2A3.jpg","38","restless",0.3,0.5,0.9,0.700707000678441,"false"
"image-keyboard-response",153,197624,"0.0-3.47-1.47","d3kw5p3etex7463",88,"71.csv","","null","resources/maskTrios/BT2B.jpg","null","",NA,NA,NA,NA,""
"image-keyboard-response",154,198838,"0.0-3.47-2.47","d3kw5p3etex7463",88,"71.csv","","null","resources/images/fishbone.png","null","",NA,NA,NA,NA,""
"image-keyboard-response",155,201948,"0.0-3.48-0.48","d3kw5p3etex7463",88,"71.csv","","3108.0999999046326","resources/trios/L4T2A2.jpg","39","restless",0.4,0.5,0.9,0.511424667588333,"true"
"image-keyboard-response",156,202351,"0.0-3.48-1.48","d3kw5p3etex7463",88,"71.csv","","null","resources/maskTrios/BBA2.jpg","null","",NA,NA,NA,NA,""
"image-keyboard-response",157,203560,"0.0-3.48-2.48","d3kw5p3etex7463",88,"71.csv","","null","resources/images/coin2.png","null","",NA,NA,NA,NA,""
"image-keyboard-response",158,205868,"0.0-3.49-0.49","d3kw5p3etex7463",88,"71.csv","","2306.2999997138977","resources/trios/L4T1A2.jpg","37","restless",0.4,0.5,0.8,0.0297770471912975,"true"
"image-keyboard-response",159,206280,"0.0-3.49-1.49","d3kw5p3etex7463",88,"71.csv","","null","resources/maskTrios/L4BB.jpg","null","",NA,NA,NA,NA,""
"image-keyboard-response",160,207487,"0.0-3.49-2.49","d3kw5p3etex7463",88,"71.csv","","null","resources/images/coin2.png","null","",NA,NA,NA,NA,""
"image-keyboard-response",161,209632,"0.0-3.50-0.50","d3kw5p3etex7463",88,"71.csv","","2143.9000000953674","resources/trios/L2T1A2.jpg","38","restless",0.4,0.5,0.7,0.622426446672559,"false"
"image-keyboard-response",162,210046,"0.0-3.50-1.50","d3kw5p3etex7463",88,"71.csv","","null","resources/maskTrios/BT1B.jpg","null","",NA,NA,NA,NA,""
"image-keyboard-response",163,211256,"0.0-3.50-2.50","d3kw5p3etex7463",88,"71.csv","","null","resources/images/fishbone.png","null","",NA,NA,NA,NA,""
"image-keyboard-response",164,214979,"0.0-3.51-0.51","d3kw5p3etex7463",88,"71.csv","","3721.2999997138977","resources/trios/L2T2A2.jpg","38","restless",0.4,0.5,0.7,0.16412401530266,"true"
"image-keyboard-response",165,215393,"0.0-3.51-1.51","d3kw5p3etex7463",88,"71.csv","","null","resources/maskTrios/BT2B.jpg","null","",NA,NA,NA,NA,""
"image-keyboard-response",166,216607,"0.0-3.51-2.51","d3kw5p3etex7463",88,"71.csv","","null","resources/images/coin2.png","null","",NA,NA,NA,NA,""
"image-keyboard-response",167,217837,"0.0-3.52-0.52","d3kw5p3etex7463",88,"71.csv","","1228.9000000953674","resources/trios/L2T2A2.jpg","37","restless",0.4,0.5,0.7,0.0159501410263727,"true"
"image-keyboard-response",168,218243,"0.0-3.52-1.52","d3kw5p3etex7463",88,"71.csv","","null","resources/maskTrios/L2BB.jpg","null","",NA,NA,NA,NA,""
"image-keyboard-response",169,219461,"0.0-3.52-2.52","d3kw5p3etex7463",88,"71.csv","","null","resources/images/coin2.png","null","",NA,NA,NA,NA,""
"image-keyboard-response",170,221376,"0.0-3.53-0.53","d3kw5p3etex7463",88,"71.csv","","1913.5","resources/trios/L2T2A2.jpg","38","restless",0.4,0.5,0.7,0.383379671149876,"true"
"image-keyboard-response",171,221792,"0.0-3.53-1.53","d3kw5p3etex7463",88,"71.csv","","null","resources/maskTrios/BT2B.jpg","null","",NA,NA,NA,NA,""
"image-keyboard-response",172,223003,"0.0-3.53-2.53","d3kw5p3etex7463",88,"71.csv","","null","resources/images/coin2.png","null","",NA,NA,NA,NA,""
"image-keyboard-response",173,224624,"0.0-3.54-0.54","d3kw5p3etex7463",88,"71.csv","","1620","resources/trios/L2T2A2.jpg","39","restless",0.5,0.5,0.7,0.256902284977475,"true"
"image-keyboard-response",174,225038,"0.0-3.54-1.54","d3kw5p3etex7463",88,"71.csv","","null","resources/maskTrios/BBA2.jpg","null","",NA,NA,NA,NA,""
"image-keyboard-response",175,226250,"0.0-3.54-2.54","d3kw5p3etex7463",88,"71.csv","","null","resources/images/coin2.png","null","",NA,NA,NA,NA,""
"image-keyboard-response",176,227162,"0.0-3.55-0.55","d3kw5p3etex7463",88,"71.csv","","910.3000001907349","resources/trios/L2T2A2.jpg","38","restless",0.5,0.5,0.6,0.790638109178258,"false"
"image-keyboard-response",177,227579,"0.0-3.55-1.55","d3kw5p3etex7463",88,"71.csv","","null","resources/maskTrios/BT2B.jpg","null","",NA,NA,NA,NA,""
"image-keyboard-response",178,228797,"0.0-3.55-2.55","d3kw5p3etex7463",88,"71.csv","","null","resources/images/fishbone.png","null","",NA,NA,NA,NA,""
"image-keyboard-response",179,229282,"0.0-3.56-0.56","d3kw5p3etex7463",88,"71.csv","","482.69999980926514","resources/trios/L4T1A3.jpg","37","restless",0.5,0.5,0.6,0.561508907372454,"false"
"image-keyboard-response",180,229692,"0.0-3.56-1.56","d3kw5p3etex7463",88,"71.csv","","null","resources/maskTrios/L4BB.jpg","null","",NA,NA,NA,NA,""
"image-keyboard-response",181,230903,"0.0-3.56-2.56","d3kw5p3etex7463",88,"71.csv","","null","resources/images/fishbone.png","null","",NA,NA,NA,NA,""
"image-keyboard-response",182,232666,"0.0-3.57-0.57","d3kw5p3etex7463",88,"71.csv","","1760.5","resources/trios/L2T1A2.jpg","39","restless",0.5,0.5,0.6,0.492694029548763,"true"
"image-keyboard-response",183,233073,"0.0-3.57-1.57","d3kw5p3etex7463",88,"71.csv","","null","resources/maskTrios/BBA2.jpg","null","",NA,NA,NA,NA,""
"image-keyboard-response",184,234275,"0.0-3.57-2.57","d3kw5p3etex7463",88,"71.csv","","null","resources/images/coin2.png","null","",NA,NA,NA,NA,""
"image-keyboard-response",185,234576,"0.0-3.58-0.58","d3kw5p3etex7463",88,"71.csv","","299.40000009536743","resources/trios/L4T1A2.jpg","38","restless",0.5,0.5,0.6,0.806640480549232,"false"
"image-keyboard-response",186,234990,"0.0-3.58-1.58","d3kw5p3etex7463",88,"71.csv","","null","resources/maskTrios/BT1B.jpg","null","",NA,NA,NA,NA,""
"image-keyboard-response",187,236203,"0.0-3.58-2.58","d3kw5p3etex7463",88,"71.csv","","null","resources/images/fishbone.png","null","",NA,NA,NA,NA,""
"image-keyboard-response",188,236988,"0.0-3.59-0.59","d3kw5p3etex7463",88,"71.csv","","784.2999997138977","resources/trios/L4T1A2.jpg","37","restless",0.5,0.5,0.6,0.379533034498703,"true"
"image-keyboard-response",189,237399,"0.0-3.59-1.59","d3kw5p3etex7463",88,"71.csv","","null","resources/maskTrios/L4BB.jpg","null","",NA,NA,NA,NA,""
"image-keyboard-response",190,238616,"0.0-3.59-2.59","d3kw5p3etex7463",88,"71.csv","","null","resources/images/coin2.png","null","",NA,NA,NA,NA,""
"image-keyboard-response",191,239561,"0.0-3.60-0.60","d3kw5p3etex7463",88,"71.csv","","943.4000000953674","resources/trios/L2T2A3.jpg","39","restless",0.5,0.5,0.6,0.41326255140283,"true"
"image-keyboard-response",192,239968,"0.0-3.60-1.60","d3kw5p3etex7463",88,"71.csv","","null","resources/maskTrios/BBA3.jpg","null","",NA,NA,NA,NA,""
"image-keyboard-response",193,241184,"0.0-3.60-2.60","d3kw5p3etex7463",88,"71.csv","","null","resources/images/coin2.png","null","",NA,NA,NA,NA,""
"image-keyboard-response",194,242816,"0.0-3.61-0.61","d3kw5p3etex7463",88,"71.csv","","1630.7000002861023","resources/trios/L4T2A2.jpg","37","restless",0.5,0.5,0.6,0.21488575669508,"true"
"image-keyboard-response",195,243231,"0.0-3.61-1.61","d3kw5p3etex7463",88,"71.csv","","null","resources/maskTrios/L4BB.jpg","null","",NA,NA,NA,NA,""
"image-keyboard-response",196,244444,"0.0-3.61-2.61","d3kw5p3etex7463",88,"71.csv","","null","resources/images/coin2.png","null","",NA,NA,NA,NA,""
"image-keyboard-response",197,245195,"0.0-3.62-0.62","d3kw5p3etex7463",88,"71.csv","","749.8000001907349","resources/trios/L4T1A3.jpg","38","restless",0.5,0.5,0.6,0.810884207485152,"false"
"image-keyboard-response",198,245612,"0.0-3.62-1.62","d3kw5p3etex7463",88,"71.csv","","null","resources/maskTrios/BT1B.jpg","null","",NA,NA,NA,NA,""
"image-keyboard-response",199,246828,"0.0-3.62-2.62","d3kw5p3etex7463",88,"71.csv","","null","resources/images/fishbone.png","null","",NA,NA,NA,NA,""
"image-keyboard-response",200,247318,"0.0-3.63-0.63","d3kw5p3etex7463",88,"71.csv","","488.09999990463257","resources/trios/L4T2A3.jpg","37","restless",0.5,0.5,0.6,0.190348262137618,"true"
"image-keyboard-response",201,247723,"0.0-3.63-1.63","d3kw5p3etex7463",88,"71.csv","","null","resources/maskTrios/L4BB.jpg","null","",NA,NA,NA,NA,""
"image-keyboard-response",202,248940,"0.0-3.63-2.63","d3kw5p3etex7463",88,"71.csv","","null","resources/images/coin2.png","null","",NA,NA,NA,NA,""
"image-keyboard-response",203,249406,"0.0-3.64-0.64","d3kw5p3etex7463",88,"71.csv","","463.40000009536743","resources/trios/L4T1A3.jpg","39","restless",0.5,0.4,0.6,0.742296308934606,"false"
"image-keyboard-response",204,249818,"0.0-3.64-1.64","d3kw5p3etex7463",88,"71.csv","","null","resources/maskTrios/BBA3.jpg","null","",NA,NA,NA,NA,""
"image-keyboard-response",205,251031,"0.0-3.64-2.64","d3kw5p3etex7463",88,"71.csv","","null","resources/images/fishbone.png","null","",NA,NA,NA,NA,""
"image-keyboard-response",206,251368,"0.0-3.65-0.65","d3kw5p3etex7463",88,"71.csv","","335.69999980926514","resources/trios/L2T1A3.jpg","38","restless",0.5,0.4,0.6,0.329961085930691,"true"
"image-keyboard-response",207,251781,"0.0-3.65-1.65","d3kw5p3etex7463",88,"71.csv","","null","resources/maskTrios/BT1B.jpg","null","",NA,NA,NA,NA,""
"image-keyboard-response",208,252989,"0.0-3.65-2.65","d3kw5p3etex7463",88,"71.csv","","null","resources/images/coin2.png","null","",NA,NA,NA,NA,""
"image-keyboard-response",209,253479,"0.0-3.66-0.66","d3kw5p3etex7463",88,"71.csv","","488.5","resources/trios/L4T1A2.jpg","37","restless",0.6,0.4,0.6,0.280629444689874,"true"
"image-keyboard-response",210,253883,"0.0-3.66-1.66","d3kw5p3etex7463",88,"71.csv","","null","resources/maskTrios/L4BB.jpg","null","",NA,NA,NA,NA,""
"image-keyboard-response",211,255096,"0.0-3.66-2.66","d3kw5p3etex7463",88,"71.csv","","null","resources/images/coin2.png","null","",NA,NA,NA,NA,""
"image-keyboard-response",212,255589,"0.0-3.67-0.67","d3kw5p3etex7463",88,"71.csv","","491.7999997138977","resources/trios/L2T1A2.jpg","38","restless",0.6,0.4,0.5,0.403393014915927,"false"
"image-keyboard-response",213,255993,"0.0-3.67-1.67","d3kw5p3etex7463",88,"71.csv","","null","resources/maskTrios/BT1B.jpg","null","",NA,NA,NA,NA,""
"image-keyboard-response",214,257209,"0.0-3.67-2.67","d3kw5p3etex7463",88,"71.csv","","null","resources/images/fishbone.png","null","",NA,NA,NA,NA,""
"image-keyboard-response",215,258002,"0.0-3.68-0.68","d3kw5p3etex7463",88,"71.csv","","791.5","resources/trios/L4T2A2.jpg","37","restless",0.5,0.4,0.5,0.258859170612268,"true"
"image-keyboard-response",216,258417,"0.0-3.68-1.68","d3kw5p3etex7463",88,"71.csv","","null","resources/maskTrios/L4BB.jpg","null","",NA,NA,NA,NA,""
"image-keyboard-response",217,259632,"0.0-3.68-2.68","d3kw5p3etex7463",88,"71.csv","","null","resources/images/coin2.png","null","",NA,NA,NA,NA,""
"image-keyboard-response",218,260027,"0.0-3.69-0.69","d3kw5p3etex7463",88,"71.csv","","393.5","resources/trios/L2T2A2.jpg","39","restless",0.5,0.4,0.4,0.457616878505247,"false"
"image-keyboard-response",219,260440,"0.0-3.69-1.69","d3kw5p3etex7463",88,"71.csv","","null","resources/maskTrios/BBA2.jpg","null","",NA,NA,NA,NA,""
"image-keyboard-response",220,261643,"0.0-3.69-2.69","d3kw5p3etex7463",88,"71.csv","","null","resources/images/fishbone.png","null","",NA,NA,NA,NA,""
"image-keyboard-response",221,262061,"0.0-3.70-0.70","d3kw5p3etex7463",88,"71.csv","","416.3999996185303","resources/trios/L4T1A2.jpg","38","restless",0.5,0.4,0.4,0.281043084718969,"true"
"image-keyboard-response",222,262476,"0.0-3.70-1.70","d3kw5p3etex7463",88,"71.csv","","null","resources/maskTrios/BT1B.jpg","null","",NA,NA,NA,NA,""
"image-keyboard-response",223,263695,"0.0-3.70-2.70","d3kw5p3etex7463",88,"71.csv","","null","resources/images/coin2.png","null","",NA,NA,NA,NA,""
"image-keyboard-response",224,264217,"0.0-3.71-0.71","d3kw5p3etex7463",88,"71.csv","","520.3000001907349","resources/trios/L4T2A3.jpg","38","restless",0.5,0.4,0.4,0.986850827235163,"false"
"image-keyboard-response",225,264623,"0.0-3.71-1.71","d3kw5p3etex7463",88,"71.csv","","null","resources/maskTrios/BT2B.jpg","null","",NA,NA,NA,NA,""
"image-keyboard-response",226,265826,"0.0-3.71-2.71","d3kw5p3etex7463",88,"71.csv","","null","resources/images/fishbone.png","null","",NA,NA,NA,NA,""
"image-keyboard-response",227,266303,"0.0-3.72-0.72","d3kw5p3etex7463",88,"71.csv","","475.59999990463257","resources/trios/L2T2A2.jpg","37","restless",0.5,0.4,0.4,0.42106273464008,"true"
"image-keyboard-response",228,266708,"0.0-3.72-1.72","d3kw5p3etex7463",88,"71.csv","","null","resources/maskTrios/L2BB.jpg","null","",NA,NA,NA,NA,""
"image-keyboard-response",229,267921,"0.0-3.72-2.72","d3kw5p3etex7463",88,"71.csv","","null","resources/images/coin2.png","null","",NA,NA,NA,NA,""
"image-keyboard-response",230,268224,"0.0-3.73-0.73","d3kw5p3etex7463",88,"71.csv","","302","resources/trios/L4T2A2.jpg","39","restless",0.5,0.4,0.3,0.797836244526528,"false"
"image-keyboard-response",231,268631,"0.0-3.73-1.73","d3kw5p3etex7463",88,"71.csv","","null","resources/maskTrios/BBA2.jpg","null","",NA,NA,NA,NA,""
"image-keyboard-response",232,269834,"0.0-3.73-2.73","d3kw5p3etex7463",88,"71.csv","","null","resources/images/fishbone.png","null","",NA,NA,NA,NA,""
"image-keyboard-response",233,270729,"0.0-3.74-0.74","d3kw5p3etex7463",88,"71.csv","","893.8999996185303","resources/trios/L4T2A3.jpg","37","restless",0.5,0.4,0.3,0.4174683841913,"true"
"image-keyboard-response",234,271136,"0.0-3.74-1.74","d3kw5p3etex7463",88,"71.csv","","null","resources/maskTrios/L4BB.jpg","null","",NA,NA,NA,NA,""
"image-keyboard-response",235,272346,"0.0-3.74-2.74","d3kw5p3etex7463",88,"71.csv","","null","resources/images/coin2.png","null","",NA,NA,NA,NA,""
"image-keyboard-response",236,272784,"0.0-3.75-0.75","d3kw5p3etex7463",88,"71.csv","","436.30000019073486","resources/trios/L4T2A2.jpg","38","restless",0.5,0.4,0.3,0.234591178713125,"true"
"image-keyboard-response",237,273194,"0.0-3.75-1.75","d3kw5p3etex7463",88,"71.csv","","null","resources/maskTrios/BT2B.jpg","null","",NA,NA,NA,NA,""
"image-keyboard-response",238,274406,"0.0-3.75-2.75","d3kw5p3etex7463",88,"71.csv","","null","resources/images/coin2.png","null","",NA,NA,NA,NA,""
"image-keyboard-response",239,274721,"0.0-3.76-0.76","d3kw5p3etex7463",88,"71.csv","","313.69999980926514","resources/trios/L4T2A3.jpg","39","restless",0.5,0.4,0.3,0.164042368322766,"true"
"image-keyboard-response",240,275139,"0.0-3.76-1.76","d3kw5p3etex7463",88,"71.csv","","null","resources/maskTrios/BBA3.jpg","null","",NA,NA,NA,NA,""
"image-keyboard-response",241,276350,"0.0-3.76-2.76","d3kw5p3etex7463",88,"71.csv","","null","resources/images/coin2.png","null","",NA,NA,NA,NA,""
"image-keyboard-response",242,278049,"0.0-3.77-0.77","d3kw5p3etex7463",88,"71.csv","","1697.5","resources/trios/L2T1A2.jpg","39","restless",0.5,0.4,0.3,0.515580330498981,"false"
"image-keyboard-response",243,278463,"0.0-3.77-1.77","d3kw5p3etex7463",88,"71.csv","","null","resources/maskTrios/BBA2.jpg","null","",NA,NA,NA,NA,""
"image-keyboard-response",244,279670,"0.0-3.77-2.77","d3kw5p3etex7463",88,"71.csv","","null","resources/images/fishbone.png","null","",NA,NA,NA,NA,""
"image-keyboard-response",245,279897,"0.0-3.78-0.78","d3kw5p3etex7463",88,"71.csv","","224.5","resources/trios/L2T1A3.jpg","37","restless",0.5,0.4,0.3,0.726364252647325,"false"
"image-keyboard-response",246,280309,"0.0-3.78-1.78","d3kw5p3etex7463",88,"71.csv","","null","resources/maskTrios/L2BB.jpg","null","",NA,NA,NA,NA,""
"image-keyboard-response",247,281525,"0.0-3.78-2.78","d3kw5p3etex7463",88,"71.csv","","null","resources/images/fishbone.png","null","",NA,NA,NA,NA,""
"image-keyboard-response",248,281821,"0.0-3.79-0.79","d3kw5p3etex7463",88,"71.csv","","293.8999996185303","resources/trios/L2T1A3.jpg","38","restless",0.5,0.4,0.3,0.481158860162928,"false"
"image-keyboard-response",249,282238,"0.0-3.79-1.79","d3kw5p3etex7463",88,"71.csv","","null","resources/maskTrios/BT1B.jpg","null","",NA,NA,NA,NA,""
"image-keyboard-response",250,283450,"0.0-3.79-2.79","d3kw5p3etex7463",88,"71.csv","","null","resources/images/fishbone.png","null","",NA,NA,NA,NA,""
"image-keyboard-response",251,284127,"0.0-3.80-0.80","d3kw5p3etex7463",88,"71.csv","","675.0999999046326","resources/trios/L4T1A3.jpg","37","restless",0.5,0.4,0.3,0.972152566506295,"false"
"image-keyboard-response",252,284534,"0.0-3.80-1.80","d3kw5p3etex7463",88,"71.csv","","null","resources/maskTrios/L4BB.jpg","null","",NA,NA,NA,NA,""
"image-keyboard-response",253,285749,"0.0-3.80-2.80","d3kw5p3etex7463",88,"71.csv","","null","resources/images/fishbone.png","null","",NA,NA,NA,NA,""
"image-keyboard-response",254,286069,"0.0-3.81-0.81","d3kw5p3etex7463",88,"71.csv","","318.40000009536743","resources/trios/L2T1A3.jpg","37","restless",0.5,0.3,0.3,0.657050440627223,"false"
"image-keyboard-response",255,286487,"0.0-3.81-1.81","d3kw5p3etex7463",88,"71.csv","","null","resources/maskTrios/L2BB.jpg","null","",NA,NA,NA,NA,""
"image-keyboard-response",256,287699,"0.0-3.81-2.81","d3kw5p3etex7463",88,"71.csv","","null","resources/images/fishbone.png","null","",NA,NA,NA,NA,""
"image-keyboard-response",257,288053,"0.0-3.82-0.82","d3kw5p3etex7463",88,"71.csv","","351.69999980926514","resources/trios/L2T2A3.jpg","39","restless",0.5,0.3,0.3,0.117234485390409,"true"
"image-keyboard-response",258,288463,"0.0-3.82-1.82","d3kw5p3etex7463",88,"71.csv","","null","resources/maskTrios/BBA3.jpg","null","",NA,NA,NA,NA,""
"image-keyboard-response",259,289670,"0.0-3.82-2.82","d3kw5p3etex7463",88,"71.csv","","null","resources/images/coin2.png","null","",NA,NA,NA,NA,""
"image-keyboard-response",260,290020,"0.0-3.83-0.83","d3kw5p3etex7463",88,"71.csv","","348","resources/trios/L4T1A3.jpg","38","restless",0.5,0.4,0.4,0.789433431226838,"false"
"image-keyboard-response",261,290438,"0.0-3.83-1.83","d3kw5p3etex7463",88,"71.csv","","null","resources/maskTrios/BT1B.jpg","null","",NA,NA,NA,NA,""
"image-keyboard-response",262,291650,"0.0-3.83-2.83","d3kw5p3etex7463",88,"71.csv","","null","resources/images/fishbone.png","null","",NA,NA,NA,NA,""
"image-keyboard-response",263,291989,"0.0-3.84-0.84","d3kw5p3etex7463",88,"71.csv","","336.80000019073486","resources/trios/L2T2A3.jpg","39","restless",0.5,0.4,0.4,0.837941847871126,"false"
"image-keyboard-response",264,292398,"0.0-3.84-1.84","d3kw5p3etex7463",88,"71.csv","","null","resources/maskTrios/BBA3.jpg","null","",NA,NA,NA,NA,""
"image-keyboard-response",265,293604,"0.0-3.84-2.84","d3kw5p3etex7463",88,"71.csv","","null","resources/images/fishbone.png","null","",NA,NA,NA,NA,""
"image-keyboard-response",266,293957,"0.0-3.85-0.85","d3kw5p3etex7463",88,"71.csv","","351.69999980926514","resources/trios/L4T2A2.jpg","37","restless",0.5,0.4,0.4,0.274752224527727,"true"
"image-keyboard-response",267,294368,"0.0-3.85-1.85","d3kw5p3etex7463",88,"71.csv","","null","resources/maskTrios/L4BB.jpg","null","",NA,NA,NA,NA,""
"image-keyboard-response",268,295584,"0.0-3.85-2.85","d3kw5p3etex7463",88,"71.csv","","null","resources/images/coin2.png","null","",NA,NA,NA,NA,""
"image-keyboard-response",269,295905,"0.0-3.86-0.86","d3kw5p3etex7463",88,"71.csv","","319.5","resources/trios/L4T1A3.jpg","37","restless",0.5,0.4,0.4,0.675923186161769,"false"
"image-keyboard-response",270,296309,"0.0-3.86-1.86","d3kw5p3etex7463",88,"71.csv","","null","resources/maskTrios/L4BB.jpg","null","",NA,NA,NA,NA,""
"image-keyboard-response",271,297513,"0.0-3.86-2.86","d3kw5p3etex7463",88,"71.csv","","null","resources/images/fishbone.png","null","",NA,NA,NA,NA,""
"image-keyboard-response",272,298068,"0.0-3.87-0.87","d3kw5p3etex7463",88,"71.csv","","552.7000002861023","resources/trios/L4T2A3.jpg","38","restless",0.5,0.4,0.4,0.240909880143174,"true"
"image-keyboard-response",273,298477,"0.0-3.87-1.87","d3kw5p3etex7463",88,"71.csv","","null","resources/maskTrios/BT2B.jpg","null","",NA,NA,NA,NA,""
"image-keyboard-response",274,299693,"0.0-3.87-2.87","d3kw5p3etex7463",88,"71.csv","","null","resources/images/coin2.png","null","",NA,NA,NA,NA,""
"image-keyboard-response",275,300248,"0.0-3.88-0.88","d3kw5p3etex7463",88,"71.csv","","554.0999999046326","resources/trios/L4T2A2.jpg","39","restless",0.5,0.4,0.4,0.410111237075314,"false"
"image-keyboard-response",276,300652,"0.0-3.88-1.88","d3kw5p3etex7463",88,"71.csv","","null","resources/maskTrios/BBA2.jpg","null","",NA,NA,NA,NA,""
"image-keyboard-response",277,301864,"0.0-3.88-2.88","d3kw5p3etex7463",88,"71.csv","","null","resources/images/fishbone.png","null","",NA,NA,NA,NA,""
"image-keyboard-response",278,302470,"0.0-3.89-0.89","d3kw5p3etex7463",88,"71.csv","","604.0999999046326","resources/trios/L4T1A3.jpg","37","restless",0.5,0.4,0.4,0.333091306245464,"true"
"image-keyboard-response",279,302880,"0.0-3.89-1.89","d3kw5p3etex7463",88,"71.csv","","null","resources/maskTrios/L4BB.jpg","null","",NA,NA,NA,NA,""
"image-keyboard-response",280,304088,"0.0-3.89-2.89","d3kw5p3etex7463",88,"71.csv","","null","resources/images/coin2.png","null","",NA,NA,NA,NA,""
"image-keyboard-response",281,304716,"0.0-3.90-0.90","d3kw5p3etex7463",88,"71.csv","","625.8000001907349","resources/trios/L2T1A3.jpg","37","restless",0.5,0.4,0.4,0.425010428730204,"true"
"image-keyboard-response",282,305129,"0.0-3.90-1.90","d3kw5p3etex7463",88,"71.csv","","null","resources/maskTrios/L2BB.jpg","null","",NA,NA,NA,NA,""
"image-keyboard-response",283,306343,"0.0-3.90-2.90","d3kw5p3etex7463",88,"71.csv","","null","resources/images/coin2.png","null","",NA,NA,NA,NA,""
"image-keyboard-response",284,306783,"0.0-3.91-0.91","d3kw5p3etex7463",88,"71.csv","","437.7000002861023","resources/trios/L4T2A2.jpg","38","restless",0.5,0.4,0.4,0.892534455607587,"false"
"image-keyboard-response",285,307196,"0.0-3.91-1.91","d3kw5p3etex7463",88,"71.csv","","null","resources/maskTrios/BT2B.jpg","null","",NA,NA,NA,NA,""
"image-keyboard-response",286,308400,"0.0-3.91-2.91","d3kw5p3etex7463",88,"71.csv","","null","resources/images/fishbone.png","null","",NA,NA,NA,NA,""
"image-keyboard-response",287,308997,"0.0-3.92-0.92","d3kw5p3etex7463",88,"71.csv","","595.5","resources/trios/L4T1A3.jpg","39","restless",0.5,0.4,0.4,0.423847172329278,"false"
"image-keyboard-response",288,309400,"0.0-3.92-1.92","d3kw5p3etex7463",88,"71.csv","","null","resources/maskTrios/BBA3.jpg","null","",NA,NA,NA,NA,""
"image-keyboard-response",289,310610,"0.0-3.92-2.92","d3kw5p3etex7463",88,"71.csv","","null","resources/images/fishbone.png","null","",NA,NA,NA,NA,""
"image-keyboard-response",290,314536,"0.0-3.93-0.93","d3kw5p3etex7463",88,"71.csv","","3924.199999809265","resources/trios/L4T2A2.jpg","37","restless",0.5,0.4,0.3,0.657429685234682,"false"
"image-keyboard-response",291,314947,"0.0-3.93-1.93","d3kw5p3etex7463",88,"71.csv","","null","resources/maskTrios/L4BB.jpg","null","",NA,NA,NA,NA,""
"image-keyboard-response",292,316162,"0.0-3.93-2.93","d3kw5p3etex7463",88,"71.csv","","null","resources/images/fishbone.png","null","",NA,NA,NA,NA,""
"image-keyboard-response",293,316876,"0.0-3.94-0.94","d3kw5p3etex7463",88,"71.csv","","712.5","resources/trios/L2T2A2.jpg","38","restless",0.5,0.4,0.2,0.0640484160073291,"true"
"image-keyboard-response",294,317293,"0.0-3.94-1.94","d3kw5p3etex7463",88,"71.csv","","null","resources/maskTrios/BT2B.jpg","null","",NA,NA,NA,NA,""
"image-keyboard-response",295,318514,"0.0-3.94-2.94","d3kw5p3etex7463",88,"71.csv","","null","resources/images/coin2.png","null","",NA,NA,NA,NA,""
"image-keyboard-response",296,320313,"0.0-3.95-0.95","d3kw5p3etex7463",88,"71.csv","","1797.4000000953674","resources/trios/L2T2A3.jpg","39","restless",0.5,0.4,0.2,0.592903619469285,"false"
"image-keyboard-response",297,320717,"0.0-3.95-1.95","d3kw5p3etex7463",88,"71.csv","","null","resources/maskTrios/BBA3.jpg","null","",NA,NA,NA,NA,""
"image-keyboard-response",298,321932,"0.0-3.95-2.95","d3kw5p3etex7463",88,"71.csv","","null","resources/images/fishbone.png","null","",NA,NA,NA,NA,""
"image-keyboard-response",299,324590,"0.0-3.96-0.96","d3kw5p3etex7463",88,"71.csv","","2657.2000002861023","resources/trios/L4T2A3.jpg","38","restless",0.5,0.4,0.2,0.208480913664994,"true"
"image-keyboard-response",300,325012,"0.0-3.96-1.96","d3kw5p3etex7463",88,"71.csv","","null","resources/maskTrios/BT2B.jpg","null","",NA,NA,NA,NA,""
"image-keyboard-response",301,326217,"0.0-3.96-2.96","d3kw5p3etex7463",88,"71.csv","","null","resources/images/coin2.png","null","",NA,NA,NA,NA,""
"image-keyboard-response",302,327866,"0.0-3.97-0.97","d3kw5p3etex7463",88,"71.csv","","1646.9000000953674","resources/trios/L4T1A2.jpg","37","restless",0.5,0.4,0.2,0.191425491045836,"true"
"image-keyboard-response",303,328272,"0.0-3.97-1.97","d3kw5p3etex7463",88,"71.csv","","null","resources/maskTrios/L4BB.jpg","null","",NA,NA,NA,NA,""
"image-keyboard-response",304,329485,"0.0-3.97-2.97","d3kw5p3etex7463",88,"71.csv","","null","resources/images/coin2.png","null","",NA,NA,NA,NA,""
"image-keyboard-response",305,331152,"0.0-3.98-0.98","d3kw5p3etex7463",88,"71.csv","","1665.0999999046326","resources/trios/L4T2A3.jpg","39","restless",0.4,0.4,0.2,0.240583780325776,"false"
"image-keyboard-response",306,331567,"0.0-3.98-1.98","d3kw5p3etex7463",88,"71.csv","","null","resources/maskTrios/BBA3.jpg","null","",NA,NA,NA,NA,""
"image-keyboard-response",307,332784,"0.0-3.98-2.98","d3kw5p3etex7463",88,"71.csv","","null","resources/images/fishbone.png","null","",NA,NA,NA,NA,""
"image-keyboard-response",308,333564,"0.0-3.99-0.99","d3kw5p3etex7463",88,"71.csv","","778.1999998092651","resources/trios/L4T2A2.jpg","38","restless",0.4,0.4,0.2,0.147559538965341,"true"
"image-keyboard-response",309,333969,"0.0-3.99-1.99","d3kw5p3etex7463",88,"71.csv","","null","resources/maskTrios/BT2B.jpg","null","",NA,NA,NA,NA,""
"image-keyboard-response",310,335193,"0.0-3.99-2.99","d3kw5p3etex7463",88,"71.csv","","null","resources/images/coin2.png","null","",NA,NA,NA,NA,""
"image-keyboard-response",311,336298,"0.0-3.100-0.100","d3kw5p3etex7463",88,"71.csv","","1102.9000000953674","resources/trios/L2T1A2.jpg","37","restless",0.4,0.4,0.2,0.942338729251478,"false"
"image-keyboard-response",312,336715,"0.0-3.100-1.100","d3kw5p3etex7463",88,"71.csv","","null","resources/maskTrios/L2BB.jpg","null","",NA,NA,NA,NA,""
"image-keyboard-response",313,337921,"0.0-3.100-2.100","d3kw5p3etex7463",88,"71.csv","","null","resources/images/fishbone.png","null","",NA,NA,NA,NA,""
"image-keyboard-response",314,340135,"0.0-3.101-0.101","d3kw5p3etex7463",88,"71.csv","","2211.5999999046326","resources/trios/L2T1A3.jpg","37","restless",0.4,0.4,0.2,0.342542342928304,"true"
"image-keyboard-response",315,340549,"0.0-3.101-1.101","d3kw5p3etex7463",88,"71.csv","","null","resources/maskTrios/L2BB.jpg","null","",NA,NA,NA,NA,""
"image-keyboard-response",316,341758,"0.0-3.101-2.101","d3kw5p3etex7463",88,"71.csv","","null","resources/images/coin2.png","null","",NA,NA,NA,NA,""
"image-keyboard-response",317,343074,"0.0-3.102-0.102","d3kw5p3etex7463",88,"71.csv","","1314.8999996185303","resources/trios/L2T2A3.jpg","38","restless",0.4,0.4,0.3,0.468311865481928,"false"
"image-keyboard-response",318,343477,"0.0-3.102-1.102","d3kw5p3etex7463",88,"71.csv","","null","resources/maskTrios/BT2B.jpg","null","",NA,NA,NA,NA,""
"image-keyboard-response",319,344685,"0.0-3.102-2.102","d3kw5p3etex7463",88,"71.csv","","null","resources/images/fishbone.png","null","",NA,NA,NA,NA,""
"image-keyboard-response",320,347528,"0.0-3.103-0.103","d3kw5p3etex7463",88,"71.csv","","2841.4000000953674","resources/trios/L2T2A3.jpg","39","restless",0.5,0.4,0.3,0.543365292238526,"false"
"image-keyboard-response",321,347945,"0.0-3.103-1.103","d3kw5p3etex7463",88,"71.csv","","null","resources/maskTrios/BBA3.jpg","null","",NA,NA,NA,NA,""
"image-keyboard-response",322,349154,"0.0-3.103-2.103","d3kw5p3etex7463",88,"71.csv","","null","resources/images/fishbone.png","null","",NA,NA,NA,NA,""
"image-keyboard-response",323,350319,"0.0-3.104-0.104","d3kw5p3etex7463",88,"71.csv","","1163.4000000953674","resources/trios/L4T1A3.jpg","37","restless",0.4,0.4,0.3,0.672889515927755,"false"
"image-keyboard-response",324,350726,"0.0-3.104-1.104","d3kw5p3etex7463",88,"71.csv","","null","resources/maskTrios/L4BB.jpg","null","",NA,NA,NA,NA,""
"image-keyboard-response",325,351931,"0.0-3.104-2.104","d3kw5p3etex7463",88,"71.csv","","null","resources/images/fishbone.png","null","",NA,NA,NA,NA,""
"image-keyboard-response",326,352681,"0.0-3.105-0.105","d3kw5p3etex7463",88,"71.csv","","749.1000003814697","resources/trios/L4T2A2.jpg","38","restless",0.4,0.3,0.3,0.902068193529526,"false"
"image-keyboard-response",327,353088,"0.0-3.105-1.105","d3kw5p3etex7463",88,"71.csv","","null","resources/maskTrios/BT2B.jpg","null","",NA,NA,NA,NA,""
"image-keyboard-response",328,354295,"0.0-3.105-2.105","d3kw5p3etex7463",88,"71.csv","","null","resources/images/fishbone.png","null","",NA,NA,NA,NA,""
"image-keyboard-response",329,355072,"0.0-3.106-0.106","d3kw5p3etex7463",88,"71.csv","","775.6000003814697","resources/trios/L2T2A3.jpg","37","restless",0.4,0.3,0.3,0.239500686121033,"true"
"image-keyboard-response",330,355476,"0.0-3.106-1.106","d3kw5p3etex7463",88,"71.csv","","null","resources/maskTrios/L2BB.jpg","null","",NA,NA,NA,NA,""
"image-keyboard-response",331,356683,"0.0-3.106-2.106","d3kw5p3etex7463",88,"71.csv","","null","resources/images/coin2.png","null","",NA,NA,NA,NA,""
"image-keyboard-response",332,359298,"0.0-3.107-0.107","d3kw5p3etex7463",88,"71.csv","","2612.699999809265","resources/trios/L2T2A2.jpg","39","restless",0.4,0.3,0.3,0.704195406944765,"false"
"image-keyboard-response",333,359714,"0.0-3.107-1.107","d3kw5p3etex7463",88,"71.csv","","null","resources/maskTrios/BBA2.jpg","null","",NA,NA,NA,NA,""
"image-keyboard-response",334,360927,"0.0-3.107-2.107","d3kw5p3etex7463",88,"71.csv","","null","resources/images/fishbone.png","null","",NA,NA,NA,NA,""
"image-keyboard-response",335,364267,"0.0-3.108-0.108","d3kw5p3etex7463",88,"71.csv","","3341.2000002861023","resources/trios/L2T1A2.jpg","37","restless",0.3,0.3,0.4,0.88266225861278,"false"
"image-keyboard-response",336,364680,"0.0-3.108-1.108","d3kw5p3etex7463",88,"71.csv","","null","resources/maskTrios/L2BB.jpg","null","",NA,NA,NA,NA,""
"image-keyboard-response",337,365887,"0.0-3.108-2.108","d3kw5p3etex7463",88,"71.csv","","null","resources/images/fishbone.png","null","",NA,NA,NA,NA,""
"image-keyboard-response",338,366730,"0.0-3.109-0.109","d3kw5p3etex7463",88,"71.csv","","841.4000000953674","resources/trios/L2T1A3.jpg","39","restless",0.3,0.3,0.4,0.874773727371357,"false"
"image-keyboard-response",339,367146,"0.0-3.109-1.109","d3kw5p3etex7463",88,"71.csv","","null","resources/maskTrios/BBA3.jpg","null","",NA,NA,NA,NA,""
"image-keyboard-response",340,368348,"0.0-3.109-2.109","d3kw5p3etex7463",88,"71.csv","","null","resources/images/fishbone.png","null","",NA,NA,NA,NA,""
"image-keyboard-response",341,368812,"0.0-3.110-0.110","d3kw5p3etex7463",88,"71.csv","","461.90000009536743","resources/trios/L2T2A2.jpg","37","restless",0.3,0.3,0.4,0.606721869018717,"false"
"image-keyboard-response",342,369222,"0.0-3.110-1.110","d3kw5p3etex7463",88,"71.csv","","null","resources/maskTrios/L2BB.jpg","null","",NA,NA,NA,NA,""
"image-keyboard-response",343,370437,"0.0-3.110-2.110","d3kw5p3etex7463",88,"71.csv","","null","resources/images/fishbone.png","null","",NA,NA,NA,NA,""
"image-keyboard-response",344,370968,"0.0-3.111-0.111","d3kw5p3etex7463",88,"71.csv","","529.6000003814697","resources/trios/L2T1A3.jpg","38","restless",0.3,0.3,0.4,0.940262764035,"false"
"image-keyboard-response",345,371383,"0.0-3.111-1.111","d3kw5p3etex7463",88,"71.csv","","null","resources/maskTrios/BT1B.jpg","null","",NA,NA,NA,NA,""
"image-keyboard-response",346,372588,"0.0-3.111-2.111","d3kw5p3etex7463",88,"71.csv","","null","resources/images/fishbone.png","null","",NA,NA,NA,NA,""
"image-keyboard-response",347,373382,"0.0-3.112-0.112","d3kw5p3etex7463",88,"71.csv","","792.3000001907349","resources/trios/L4T1A3.jpg","37","restless",0.3,0.3,0.4,0.674758326452106,"false"
"image-keyboard-response",348,373797,"0.0-3.112-1.112","d3kw5p3etex7463",88,"71.csv","","null","resources/maskTrios/L4BB.jpg","null","",NA,NA,NA,NA,""
"image-keyboard-response",349,375004,"0.0-3.112-2.112","d3kw5p3etex7463",88,"71.csv","","null","resources/images/fishbone.png","null","",NA,NA,NA,NA,""
"image-keyboard-response",350,375523,"0.0-3.113-0.113","d3kw5p3etex7463",88,"71.csv","","518.4000000953674","resources/trios/L2T2A2.jpg","39","restless",0.3,0.3,0.4,0.352838311570375,"true"
"image-keyboard-response",351,375928,"0.0-3.113-1.113","d3kw5p3etex7463",88,"71.csv","","null","resources/maskTrios/BBA2.jpg","null","",NA,NA,NA,NA,""
"image-keyboard-response",352,377137,"0.0-3.113-2.113","d3kw5p3etex7463",88,"71.csv","","null","resources/images/coin2.png","null","",NA,NA,NA,NA,""
"image-keyboard-response",353,378246,"0.0-3.114-0.114","d3kw5p3etex7463",88,"71.csv","","1108.1999998092651","resources/trios/L2T1A3.jpg","37","restless",0.3,0.3,0.3,0.484056463043042,"false"
"image-keyboard-response",354,378655,"0.0-3.114-1.114","d3kw5p3etex7463",88,"71.csv","","null","resources/maskTrios/L2BB.jpg","null","",NA,NA,NA,NA,""
"image-keyboard-response",355,379866,"0.0-3.114-2.114","d3kw5p3etex7463",88,"71.csv","","null","resources/images/fishbone.png","null","",NA,NA,NA,NA,""
"image-keyboard-response",356,381159,"0.0-3.115-0.115","d3kw5p3etex7463",88,"71.csv","","1291.5","resources/trios/L2T2A2.jpg","37","restless",0.3,0.3,0.3,0.826318156488103,"false"
"image-keyboard-response",357,381575,"0.0-3.115-1.115","d3kw5p3etex7463",88,"71.csv","","null","resources/maskTrios/L2BB.jpg","null","",NA,NA,NA,NA,""
"image-keyboard-response",358,382799,"0.0-3.115-2.115","d3kw5p3etex7463",88,"71.csv","","null","resources/images/fishbone.png","null","",NA,NA,NA,NA,""
"image-keyboard-response",359,383270,"0.0-3.116-0.116","d3kw5p3etex7463",88,"71.csv","","469.40000009536743","resources/trios/L4T1A2.jpg","38","restless",0.3,0.4,0.3,0.897249348708745,"false"
"image-keyboard-response",360,383684,"0.0-3.116-1.116","d3kw5p3etex7463",88,"71.csv","","null","resources/maskTrios/BT1B.jpg","null","",NA,NA,NA,NA,""
"image-keyboard-response",361,384889,"0.0-3.116-2.116","d3kw5p3etex7463",88,"71.csv","","null","resources/images/fishbone.png","null","",NA,NA,NA,NA,""
"image-keyboard-response",362,385353,"0.0-3.117-0.117","d3kw5p3etex7463",88,"71.csv","","462.7000002861023","resources/trios/L2T1A2.jpg","39","restless",0.3,0.4,0.3,0.0463620437520145,"true"
"image-keyboard-response",363,385755,"0.0-3.117-1.117","d3kw5p3etex7463",88,"71.csv","","null","resources/maskTrios/BBA2.jpg","null","",NA,NA,NA,NA,""
"image-keyboard-response",364,386961,"0.0-3.117-2.117","d3kw5p3etex7463",88,"71.csv","","null","resources/images/coin2.png","null","",NA,NA,NA,NA,""
"image-keyboard-response",365,387318,"0.0-3.118-0.118","d3kw5p3etex7463",88,"71.csv","","355.90000009536743","resources/trios/L4T1A2.jpg","38","restless",0.3,0.4,0.3,0.880005311518651,"false"
"image-keyboard-response",366,387729,"0.0-3.118-1.118","d3kw5p3etex7463",88,"71.csv","","null","resources/maskTrios/BT1B.jpg","null","",NA,NA,NA,NA,""
"image-keyboard-response",367,388935,"0.0-3.118-2.118","d3kw5p3etex7463",88,"71.csv","","null","resources/images/fishbone.png","null","",NA,NA,NA,NA,""
"image-keyboard-response",368,389686,"0.0-3.119-0.119","d3kw5p3etex7463",88,"71.csv","","749.5","resources/trios/L2T1A3.jpg","37","restless",0.3,0.4,0.3,0.703559935325222,"false"
"image-keyboard-response",369,390095,"0.0-3.119-1.119","d3kw5p3etex7463",88,"71.csv","","null","resources/maskTrios/L2BB.jpg","null","",NA,NA,NA,NA,""
"image-keyboard-response",370,391307,"0.0-3.119-2.119","d3kw5p3etex7463",88,"71.csv","","null","resources/images/fishbone.png","null","",NA,NA,NA,NA,""
"image-keyboard-response",371,391896,"0.0-3.120-0.120","d3kw5p3etex7463",88,"71.csv","","587.8000001907349","resources/trios/L4T1A2.jpg","39","restless",0.3,0.4,0.3,0.893547324416579,"false"
"image-keyboard-response",372,392310,"0.0-3.120-1.120","d3kw5p3etex7463",88,"71.csv","","null","resources/maskTrios/BBA2.jpg","null","",NA,NA,NA,NA,""
"image-keyboard-response",373,393516,"0.0-3.120-2.120","d3kw5p3etex7463",88,"71.csv","","null","resources/images/fishbone.png","null","",NA,NA,NA,NA,""
"image-keyboard-response",374,393778,"0.0-3.121-0.121","d3kw5p3etex7463",88,"71.csv","","259.90000009536743","resources/trios/L4T2A3.jpg","38","restless",0.3,0.4,0.3,0.21833835481745,"true"
"image-keyboard-response",375,394189,"0.0-3.121-1.121","d3kw5p3etex7463",88,"71.csv","","null","resources/maskTrios/BT2B.jpg","null","",NA,NA,NA,NA,""
"image-keyboard-response",376,395401,"0.0-3.121-2.121","d3kw5p3etex7463",88,"71.csv","","null","resources/images/coin2.png","null","",NA,NA,NA,NA,""
"image-keyboard-response",377,396148,"0.0-3.122-0.122","d3kw5p3etex7463",88,"71.csv","","745.1999998092651","resources/trios/L2T2A3.jpg","37","restless",0.3,0.4,0.3,0.452318406473653,"false"
"image-keyboard-response",378,396555,"0.0-3.122-1.122","d3kw5p3etex7463",88,"71.csv","","null","resources/maskTrios/L2BB.jpg","null","",NA,NA,NA,NA,""
"image-keyboard-response",379,397768,"0.0-3.122-2.122","d3kw5p3etex7463",88,"71.csv","","null","resources/images/fishbone.png","null","",NA,NA,NA,NA,""
"image-keyboard-response",380,399460,"0.0-3.123-0.123","d3kw5p3etex7463",88,"71.csv","","1689.8000001907349","resources/trios/L4T1A3.jpg","38","restless",0.3,0.4,0.3,0.962534288607734,"false"
"image-keyboard-response",381,399871,"0.0-3.123-1.123","d3kw5p3etex7463",88,"71.csv","","null","resources/maskTrios/BT1B.jpg","null","",NA,NA,NA,NA,""
"image-keyboard-response",382,401092,"0.0-3.123-2.123","d3kw5p3etex7463",88,"71.csv","","null","resources/images/fishbone.png","null","",NA,NA,NA,NA,""
"image-keyboard-response",383,401994,"0.0-3.124-0.124","d3kw5p3etex7463",88,"71.csv","","900.4000000953674","resources/trios/L4T2A2.jpg","37","restless",0.4,0.4,0.3,0.894695179488378,"false"
"image-keyboard-response",384,402405,"0.0-3.124-1.124","d3kw5p3etex7463",88,"71.csv","","null","resources/maskTrios/L4BB.jpg","null","",NA,NA,NA,NA,""
"image-keyboard-response",385,403615,"0.0-3.124-2.124","d3kw5p3etex7463",88,"71.csv","","null","resources/images/fishbone.png","null","",NA,NA,NA,NA,""
"image-keyboard-response",386,404354,"0.0-3.125-0.125","d3kw5p3etex7463",88,"71.csv","","737.8000001907349","resources/trios/L2T1A2.jpg","38","restless",0.4,0.4,0.3,0.105553627613169,"true"
"image-keyboard-response",387,404764,"0.0-3.125-1.125","d3kw5p3etex7463",88,"71.csv","","null","resources/maskTrios/BT1B.jpg","null","",NA,NA,NA,NA,""
"image-keyboard-response",388,405967,"0.0-3.125-2.125","d3kw5p3etex7463",88,"71.csv","","null","resources/images/coin2.png","null","",NA,NA,NA,NA,""
"image-keyboard-response",389,406518,"0.0-3.126-0.126","d3kw5p3etex7463",88,"71.csv","","549","resources/trios/L2T2A2.jpg","37","restless",0.4,0.4,0.3,0.750243590893361,"false"
"image-keyboard-response",390,406925,"0.0-3.126-1.126","d3kw5p3etex7463",88,"71.csv","","null","resources/maskTrios/L2BB.jpg","null","",NA,NA,NA,NA,""
"image-keyboard-response",391,408135,"0.0-3.126-2.126","d3kw5p3etex7463",88,"71.csv","","null","resources/images/fishbone.png","null","",NA,NA,NA,NA,""
"image-keyboard-response",392,408552,"0.0-3.127-0.127","d3kw5p3etex7463",88,"71.csv","","416","resources/trios/L4T1A2.jpg","39","restless",0.5,0.4,0.3,0.456965070458377,"false"
"image-keyboard-response",393,408963,"0.0-3.127-1.127","d3kw5p3etex7463",88,"71.csv","","null","resources/maskTrios/BBA2.jpg","null","",NA,NA,NA,NA,""
"image-keyboard-response",394,410176,"0.0-3.127-2.127","d3kw5p3etex7463",88,"71.csv","","null","resources/images/fishbone.png","null","",NA,NA,NA,NA,""
"image-keyboard-response",395,410480,"0.0-3.128-0.128","d3kw5p3etex7463",88,"71.csv","","302.80000019073486","resources/trios/L2T1A3.jpg","38","restless",0.5,0.4,0.3,0.71021986717596,"false"
"image-keyboard-response",396,410897,"0.0-3.128-1.128","d3kw5p3etex7463",88,"71.csv","","null","resources/maskTrios/BT1B.jpg","null","",NA,NA,NA,NA,""
"image-keyboard-response",397,412111,"0.0-3.128-2.128","d3kw5p3etex7463",88,"71.csv","","null","resources/images/fishbone.png","null","",NA,NA,NA,NA,""
"image-keyboard-response",398,412423,"0.0-3.129-0.129","d3kw5p3etex7463",88,"71.csv","","310.09999990463257","resources/trios/L2T1A3.jpg","37","restless",0.5,0.3,0.3,0.162341399547325,"true"
"image-keyboard-response",399,412840,"0.0-3.129-1.129","d3kw5p3etex7463",88,"71.csv","","null","resources/maskTrios/L2BB.jpg","null","",NA,NA,NA,NA,""
"image-keyboard-response",400,414045,"0.0-3.129-2.129","d3kw5p3etex7463",88,"71.csv","","null","resources/images/coin2.png","null","",NA,NA,NA,NA,""
"image-keyboard-response",401,414361,"0.0-3.130-0.130","d3kw5p3etex7463",88,"71.csv","","314.40000009536743","resources/trios/L4T2A2.jpg","37","restless",0.5,0.4,0.3,0.832940192343268,"false"
"image-keyboard-response",402,414774,"0.0-3.130-1.130","d3kw5p3etex7463",88,"71.csv","","null","resources/maskTrios/L4BB.jpg","null","",NA,NA,NA,NA,""
"image-keyboard-response",403,415983,"0.0-3.130-2.130","d3kw5p3etex7463",88,"71.csv","","null","resources/images/fishbone.png","null","",NA,NA,NA,NA,""
"image-keyboard-response",404,416273,"0.0-3.131-0.131","d3kw5p3etex7463",88,"71.csv","","288.3999996185303","resources/trios/L2T1A3.jpg","38","restless",0.5,0.4,0.3,0.783444388128262,"false"
"image-keyboard-response",405,416679,"0.0-3.131-1.131","d3kw5p3etex7463",88,"71.csv","","null","resources/maskTrios/BT1B.jpg","null","",NA,NA,NA,NA,""
"image-keyboard-response",406,417891,"0.0-3.131-2.131","d3kw5p3etex7463",88,"71.csv","","null","resources/images/fishbone.png","null","",NA,NA,NA,NA,""
"image-keyboard-response",407,420151,"0.0-3.132-0.132","d3kw5p3etex7463",88,"71.csv","","2258.2999997138977","resources/trios/L4T2A3.jpg","38","restless",0.5,0.4,0.3,0.301053119646084,"true"
"image-keyboard-response",408,420561,"0.0-3.132-1.132","d3kw5p3etex7463",88,"71.csv","","null","resources/maskTrios/BT2B.jpg","null","",NA,NA,NA,NA,""
"image-keyboard-response",409,421775,"0.0-3.132-2.132","d3kw5p3etex7463",88,"71.csv","","null","resources/images/coin2.png","null","",NA,NA,NA,NA,""
"image-keyboard-response",410,422848,"0.0-3.133-0.133","d3kw5p3etex7463",88,"71.csv","","1071.2999997138977","resources/trios/L4T2A3.jpg","38","restless",0.5,0.4,0.3,0.445163031421147,"false"
"image-keyboard-response",411,423252,"0.0-3.133-1.133","d3kw5p3etex7463",88,"71.csv","","null","resources/maskTrios/BT2B.jpg","null","",NA,NA,NA,NA,""
"image-keyboard-response",412,424461,"0.0-3.133-2.133","d3kw5p3etex7463",88,"71.csv","","null","resources/images/fishbone.png","null","",NA,NA,NA,NA,""
"image-keyboard-response",413,428623,"0.0-3.134-0.134","d3kw5p3etex7463",88,"71.csv","","4159.900000095367","resources/trios/L4T1A3.jpg","37","restless",0.6,0.4,0.3,0.206264391403364,"true"
"image-keyboard-response",414,429025,"0.0-3.134-1.134","d3kw5p3etex7463",88,"71.csv","","null","resources/maskTrios/L4BB.jpg","null","",NA,NA,NA,NA,""
"image-keyboard-response",415,430234,"0.0-3.134-2.134","d3kw5p3etex7463",88,"71.csv","","null","resources/images/coin2.png","null","",NA,NA,NA,NA,""
"image-keyboard-response",416,431869,"0.0-3.135-0.135","d3kw5p3etex7463",88,"71.csv","","1632.7000002861023","resources/trios/L4T1A2.jpg","39","restless",0.6,0.4,0.3,0.792496985786297,"false"
"image-keyboard-response",417,432274,"0.0-3.135-1.135","d3kw5p3etex7463",88,"71.csv","","null","resources/maskTrios/BBA2.jpg","null","",NA,NA,NA,NA,""
"image-keyboard-response",418,433486,"0.0-3.135-2.135","d3kw5p3etex7463",88,"71.csv","","null","resources/images/fishbone.png","null","",NA,NA,NA,NA,""
"image-keyboard-response",419,434461,"0.0-3.136-0.136","d3kw5p3etex7463",88,"71.csv","","972.5","resources/trios/L4T1A3.jpg","37","restless",0.6,0.3,0.3,0.69674004687496,"false"
"image-keyboard-response",420,434875,"0.0-3.136-1.136","d3kw5p3etex7463",88,"71.csv","","null","resources/maskTrios/L4BB.jpg","null","",NA,NA,NA,NA,""
"image-keyboard-response",421,436078,"0.0-3.136-2.136","d3kw5p3etex7463",88,"71.csv","","null","resources/images/fishbone.png","null","",NA,NA,NA,NA,""
"image-keyboard-response",422,443923,"0.0-3.137-0.137","d3kw5p3etex7463",88,"71.csv","","7843","resources/trios/L4T1A3.jpg","37","restless",0.7,0.2,0.3,0.150900216689863,"true"
"image-keyboard-response",423,444329,"0.0-3.137-1.137","d3kw5p3etex7463",88,"71.csv","","null","resources/maskTrios/L4BB.jpg","null","",NA,NA,NA,NA,""
"image-keyboard-response",424,445539,"0.0-3.137-2.137","d3kw5p3etex7463",88,"71.csv","","null","resources/images/coin2.png","null","",NA,NA,NA,NA,""
"image-keyboard-response",425,448216,"0.0-3.138-0.138","d3kw5p3etex7463",88,"71.csv","","2674.8999996185303","resources/trios/L2T2A2.jpg","39","restless",0.7,0.2,0.3,0.676209114366138,"false"
"image-keyboard-response",426,448625,"0.0-3.138-1.138","d3kw5p3etex7463",88,"71.csv","","null","resources/maskTrios/BBA2.jpg","null","",NA,NA,NA,NA,""
"image-keyboard-response",427,449842,"0.0-3.138-2.138","d3kw5p3etex7463",88,"71.csv","","null","resources/images/fishbone.png","null","",NA,NA,NA,NA,""
"image-keyboard-response",428,450291,"0.0-3.139-0.139","d3kw5p3etex7463",88,"71.csv","","447.09999990463257","resources/trios/L4T2A3.jpg","37","restless",0.7,0.2,0.3,0.415960408852761,"true"
"image-keyboard-response",429,450700,"0.0-3.139-1.139","d3kw5p3etex7463",88,"71.csv","","null","resources/maskTrios/L4BB.jpg","null","",NA,NA,NA,NA,""
"image-keyboard-response",430,451905,"0.0-3.139-2.139","d3kw5p3etex7463",88,"71.csv","","null","resources/images/coin2.png","null","",NA,NA,NA,NA,""
"image-keyboard-response",431,452630,"0.0-3.140-0.140","d3kw5p3etex7463",88,"71.csv","","724","resources/trios/L2T2A3.jpg","38","restless",0.7,0.2,0.3,0.412784755583287,"false"
"image-keyboard-response",432,453041,"0.0-3.140-1.140","d3kw5p3etex7463",88,"71.csv","","null","resources/maskTrios/BT2B.jpg","null","",NA,NA,NA,NA,""
"image-keyboard-response",433,454256,"0.0-3.140-2.140","d3kw5p3etex7463",88,"71.csv","","null","resources/images/fishbone.png","null","",NA,NA,NA,NA,""
"image-keyboard-response",434,460612,"0.0-3.141-0.141","d3kw5p3etex7463",88,"71.csv","","6355.10000038147","resources/trios/L2T2A3.jpg","37","restless",0.7,0.2,0.3,0.496040294468963,"true"
"image-keyboard-response",435,461023,"0.0-3.141-1.141","d3kw5p3etex7463",88,"71.csv","","null","resources/maskTrios/L2BB.jpg","null","",NA,NA,NA,NA,""
"image-keyboard-response",436,462235,"0.0-3.141-2.141","d3kw5p3etex7463",88,"71.csv","","null","resources/images/coin2.png","null","",NA,NA,NA,NA,""
"image-keyboard-response",437,462643,"0.0-3.142-0.142","d3kw5p3etex7463",88,"71.csv","","405.30000019073486","resources/trios/L4T1A3.jpg","38","restless",0.8,0.2,0.3,0.187514666259486,"true"
"image-keyboard-response",438,463062,"0.0-3.142-1.142","d3kw5p3etex7463",88,"71.csv","","null","resources/maskTrios/BT1B.jpg","null","",NA,NA,NA,NA,""
"image-keyboard-response",439,464270,"0.0-3.142-2.142","d3kw5p3etex7463",88,"71.csv","","null","resources/images/coin2.png","null","",NA,NA,NA,NA,""
"image-keyboard-response",440,464616,"0.0-3.143-0.143","d3kw5p3etex7463",88,"71.csv","","343.8999996185303","resources/trios/L4T1A3.jpg","39","restless",0.8,0.2,0.3,0.446510444033747,"false"
"image-keyboard-response",441,465028,"0.0-3.143-1.143","d3kw5p3etex7463",88,"71.csv","","null","resources/maskTrios/BBA3.jpg","null","",NA,NA,NA,NA,""
"image-keyboard-response",442,466236,"0.0-3.143-2.143","d3kw5p3etex7463",88,"71.csv","","null","resources/images/fishbone.png","null","",NA,NA,NA,NA,""
"image-keyboard-response",443,473083,"0.0-3.144-0.144","d3kw5p3etex7463",88,"71.csv","","6844.900000095367","resources/trios/L2T2A3.jpg","37","restless",0.8,0.2,0.3,0.347535460933001,"true"
"image-keyboard-response",444,473492,"0.0-3.144-1.144","d3kw5p3etex7463",88,"71.csv","","null","resources/maskTrios/L2BB.jpg","null","",NA,NA,NA,NA,""
"image-keyboard-response",445,474709,"0.0-3.144-2.144","d3kw5p3etex7463",88,"71.csv","","null","resources/images/coin2.png","null","",NA,NA,NA,NA,""
"image-keyboard-response",446,475300,"0.0-3.145-0.145","d3kw5p3etex7463",88,"71.csv","","589.6000003814697","resources/trios/L4T1A2.jpg","38","restless",0.8,0.2,0.3,0.0312998513926164,"true"
"image-keyboard-response",447,475717,"0.0-3.145-1.145","d3kw5p3etex7463",88,"71.csv","","null","resources/maskTrios/BT1B.jpg","null","",NA,NA,NA,NA,""
"image-keyboard-response",448,476923,"0.0-3.145-2.145","d3kw5p3etex7463",88,"71.csv","","null","resources/images/coin2.png","null","",NA,NA,NA,NA,""
"image-keyboard-response",449,477321,"0.0-3.146-0.146","d3kw5p3etex7463",88,"71.csv","","396.6000003814697","resources/trios/L4T2A2.jpg","38","restless",0.8,0.2,0.3,0.843708742068695,"false"
"image-keyboard-response",450,477723,"0.0-3.146-1.146","d3kw5p3etex7463",88,"71.csv","","null","resources/maskTrios/BT2B.jpg","null","",NA,NA,NA,NA,""
"image-keyboard-response",451,478935,"0.0-3.146-2.146","d3kw5p3etex7463",88,"71.csv","","null","resources/images/fishbone.png","null","",NA,NA,NA,NA,""
"image-keyboard-response",452,494723,"0.0-3.147-0.147","d3kw5p3etex7463",88,"71.csv","","15793.39999961853","resources/trios/L4T1A2.jpg","39","restless",0.8,0.2,0.3,0.907122525435891,"false"
"image-keyboard-response",453,495142,"0.0-3.147-1.147","d3kw5p3etex7463",88,"71.csv","","null","resources/maskTrios/BBA2.jpg","null","",NA,NA,NA,NA,""
"image-keyboard-response",454,496350,"0.0-3.147-2.147","d3kw5p3etex7463",88,"71.csv","","null","resources/images/fishbone.png","null","",NA,NA,NA,NA,""
"image-keyboard-response",455,499122,"0.0-3.148-0.148","d3kw5p3etex7463",88,"71.csv","","2770.4000000953674","resources/trios/L4T1A2.jpg","37","restless",0.9,0.3,0.3,0.303693627867774,"true"
"image-keyboard-response",456,499524,"0.0-3.148-1.148","d3kw5p3etex7463",88,"71.csv","","null","resources/maskTrios/L4BB.jpg","null","",NA,NA,NA,NA,""
"image-keyboard-response",457,500732,"0.0-3.148-2.148","d3kw5p3etex7463",88,"71.csv","","null","resources/images/coin2.png","null","",NA,NA,NA,NA,""
"image-keyboard-response",458,513197,"0.0-3.149-0.149","d3kw5p3etex7463",88,"71.csv","","12463.900000095367","resources/trios/L2T1A2.jpg","39","restless",0.9,0.4,0.3,0.184239452256087,"true"
"image-keyboard-response",459,513606,"0.0-3.149-1.149","d3kw5p3etex7463",88,"71.csv","","null","resources/maskTrios/BBA2.jpg","null","",NA,NA,NA,NA,""
"image-keyboard-response",460,514823,"0.0-3.149-2.149","d3kw5p3etex7463",88,"71.csv","","null","resources/images/coin2.png","null","",NA,NA,NA,NA,""
"image-keyboard-response",461,524069,"0.0-3.150-0.150","d3kw5p3etex7463",88,"71.csv","","9243.60000038147","resources/trios/L2T2A2.jpg","37","restless",0.9,0.5,0.3,0.570368538094106,"true"
"image-keyboard-response",462,524475,"0.0-3.150-1.150","d3kw5p3etex7463",88,"71.csv","","null","resources/maskTrios/L2BB.jpg","null","",NA,NA,NA,NA,""
"image-keyboard-response",463,525688,"0.0-3.150-2.150","d3kw5p3etex7463",88,"71.csv","","null","resources/images/coin2.png","null","",NA,NA,NA,NA,""
"image-keyboard-response",464,532550,"0.0-3.151-0.151","d3kw5p3etex7463",88,"71.csv","","6860.099999904633","resources/trios/L4T2A2.jpg","38","restless",0.9,0.4,0.3,0.0981201781767342,"true"
"image-keyboard-response",465,532963,"0.0-3.151-1.151","d3kw5p3etex7463",88,"71.csv","","null","resources/maskTrios/BT2B.jpg","null","",NA,NA,NA,NA,""
"image-keyboard-response",466,534172,"0.0-3.151-2.151","d3kw5p3etex7463",88,"71.csv","","null","resources/images/coin2.png","null","",NA,NA,NA,NA,""
"image-keyboard-response",467,544293,"0.0-3.152-0.152","d3kw5p3etex7463",88,"71.csv","","10119.099999904633","resources/trios/L4T2A3.jpg","37","restless",0.9,0.4,0.3,0.0126388109218383,"true"
"image-keyboard-response",468,544710,"0.0-3.152-1.152","d3kw5p3etex7463",88,"71.csv","","null","resources/maskTrios/L4BB.jpg","null","",NA,NA,NA,NA,""
"image-keyboard-response",469,545924,"0.0-3.152-2.152","d3kw5p3etex7463",88,"71.csv","","null","resources/images/coin2.png","null","",NA,NA,NA,NA,""
"image-keyboard-response",470,567113,"0.0-3.153-0.153","d3kw5p3etex7463",88,"71.csv","","21180.900000095367","resources/trios/L2T2A3.jpg","39","restless",0.9,0.4,0.3,0.428133010214817,"false"
"image-keyboard-response",471,567530,"0.0-3.153-1.153","d3kw5p3etex7463",88,"71.csv","","null","resources/maskTrios/BBA3.jpg","null","",NA,NA,NA,NA,""
"image-keyboard-response",472,568747,"0.0-3.153-2.153","d3kw5p3etex7463",88,"71.csv","","null","resources/images/fishbone.png","null","",NA,NA,NA,NA,""
"image-keyboard-response",473,580469,"0.0-3.154-0.154","d3kw5p3etex7463",88,"71.csv","","11719.5","resources/trios/L2T2A2.jpg","39","restless",0.9,0.4,0.3,0.423239789567245,"false"
"image-keyboard-response",474,580872,"0.0-3.154-1.154","d3kw5p3etex7463",88,"71.csv","","null","resources/maskTrios/BBA2.jpg","null","",NA,NA,NA,NA,""
"image-keyboard-response",475,582086,"0.0-3.154-2.154","d3kw5p3etex7463",88,"71.csv","","null","resources/images/fishbone.png","null","",NA,NA,NA,NA,""
"image-keyboard-response",476,593593,"0.0-3.155-0.155","d3kw5p3etex7463",88,"71.csv","","11505.300000190735","resources/trios/L2T2A2.jpg","37","restless",0.9,0.4,0.3,0.507634552493126,"true"
"image-keyboard-response",477,594020,"0.0-3.155-1.155","d3kw5p3etex7463",88,"71.csv","","null","resources/maskTrios/L2BB.jpg","null","",NA,NA,NA,NA,""
"image-keyboard-response",478,595222,"0.0-3.155-2.155","d3kw5p3etex7463",88,"71.csv","","null","resources/images/coin2.png","null","",NA,NA,NA,NA,""
"image-keyboard-response",479,596581,"0.0-3.156-0.156","d3kw5p3etex7463",88,"71.csv","","1356.8999996185303","resources/trios/L2T1A3.jpg","39","restless",0.9,0.4,0.3,0.637495632012072,"false"
"image-keyboard-response",480,596987,"0.0-3.156-1.156","d3kw5p3etex7463",88,"71.csv","","null","resources/maskTrios/BBA3.jpg","null","",NA,NA,NA,NA,""
"image-keyboard-response",481,598195,"0.0-3.156-2.156","d3kw5p3etex7463",88,"71.csv","","null","resources/images/fishbone.png","null","",NA,NA,NA,NA,""
"image-keyboard-response",482,599924,"0.0-3.157-0.157","d3kw5p3etex7463",88,"71.csv","","1726.5999999046326","resources/trios/L2T2A3.jpg","37","restless",0.9,0.4,0.4,0.222856526602909,"true"
"image-keyboard-response",483,600327,"0.0-3.157-1.157","d3kw5p3etex7463",88,"71.csv","","null","resources/maskTrios/L2BB.jpg","null","",NA,NA,NA,NA,""
"image-keyboard-response",484,601544,"0.0-3.157-2.157","d3kw5p3etex7463",88,"71.csv","","null","resources/images/coin2.png","null","",NA,NA,NA,NA,""
"image-keyboard-response",485,603177,"0.0-3.158-0.158","d3kw5p3etex7463",88,"71.csv","","1631","resources/trios/L2T1A2.jpg","39","restless",0.9,0.4,0.4,0.52737572959275,"false"
"image-keyboard-response",486,603584,"0.0-3.158-1.158","d3kw5p3etex7463",88,"71.csv","","null","resources/maskTrios/BBA2.jpg","null","",NA,NA,NA,NA,""
"image-keyboard-response",487,604794,"0.0-3.158-2.158","d3kw5p3etex7463",88,"71.csv","","null","resources/images/fishbone.png","null","",NA,NA,NA,NA,""
"image-keyboard-response",488,607640,"0.0-3.159-0.159","d3kw5p3etex7463",88,"71.csv","","2844.5","resources/trios/L2T1A3.jpg","37","restless",0.9,0.4,0.5,0.54187152925065,"true"
"image-keyboard-response",489,608046,"0.0-3.159-1.159","d3kw5p3etex7463",88,"71.csv","","null","resources/maskTrios/L2BB.jpg","null","",NA,NA,NA,NA,""
"image-keyboard-response",490,609259,"0.0-3.159-2.159","d3kw5p3etex7463",88,"71.csv","","null","resources/images/coin2.png","null","",NA,NA,NA,NA,""
"image-keyboard-response",491,611177,"0.0-3.160-0.160","d3kw5p3etex7463",88,"71.csv","","1916.8000001907349","resources/trios/L2T2A2.jpg","38","restless",0.9,0.4,0.5,0.399525911637602,"true"
"image-keyboard-response",492,611588,"0.0-3.160-1.160","d3kw5p3etex7463",88,"71.csv","","null","resources/maskTrios/BT2B.jpg","null","",NA,NA,NA,NA,""
"image-keyboard-response",493,612792,"0.0-3.160-2.160","d3kw5p3etex7463",88,"71.csv","","null","resources/images/coin2.png","null","",NA,NA,NA,NA,""
"image-keyboard-response",494,616961,"0.0-3.161-0.161","d3kw5p3etex7463",88,"71.csv","","4167.200000286102","resources/trios/L4T1A2.jpg","37","restless",0.8,0.4,0.5,0.752249821295444,"true"
"image-keyboard-response",495,617377,"0.0-3.161-1.161","d3kw5p3etex7463",88,"71.csv","","null","resources/maskTrios/L4BB.jpg","null","",NA,NA,NA,NA,""
"image-keyboard-response",496,618586,"0.0-3.161-2.161","d3kw5p3etex7463",88,"71.csv","","null","resources/images/coin2.png","null","",NA,NA,NA,NA,""
"image-keyboard-response",497,628286,"0.0-3.162-0.162","d3kw5p3etex7463",88,"71.csv","","9697.800000190735","resources/trios/L2T2A3.jpg","39","restless",0.9,0.4,0.5,0.288323768430644,"true"
"image-keyboard-response",498,628700,"0.0-3.162-1.162","d3kw5p3etex7463",88,"71.csv","","null","resources/maskTrios/BBA3.jpg","null","",NA,NA,NA,NA,""
"image-keyboard-response",499,629910,"0.0-3.162-2.162","d3kw5p3etex7463",88,"71.csv","","null","resources/images/coin2.png","null","",NA,NA,NA,NA,""
"image-keyboard-response",500,635117,"0.0-3.163-0.163","d3kw5p3etex7463",88,"71.csv","","5205.700000286102","resources/trios/L2T1A3.jpg","37","restless",0.9,0.5,0.4,0.881358679877612,"true"
"image-keyboard-response",501,635539,"0.0-3.163-1.163","d3kw5p3etex7463",88,"71.csv","","null","resources/maskTrios/L2BB.jpg","null","",NA,NA,NA,NA,""
"image-keyboard-response",502,636745,"0.0-3.163-2.163","d3kw5p3etex7463",88,"71.csv","","null","resources/images/coin2.png","null","",NA,NA,NA,NA,""
"image-keyboard-response",503,639790,"0.0-3.164-0.164","d3kw5p3etex7463",88,"71.csv","","3043.4000000953674","resources/trios/L2T2A3.jpg","38","restless",0.9,0.5,0.4,0.314094799265442,"true"
"image-keyboard-response",504,640194,"0.0-3.164-1.164","d3kw5p3etex7463",88,"71.csv","","null","resources/maskTrios/BT2B.jpg","null","",NA,NA,NA,NA,""
"image-keyboard-response",505,641399,"0.0-3.164-2.164","d3kw5p3etex7463",88,"71.csv","","null","resources/images/coin2.png","null","",NA,NA,NA,NA,""
"image-keyboard-response",506,642266,"0.0-3.165-0.165","d3kw5p3etex7463",88,"71.csv","","865.4000000953674","resources/trios/L4T2A2.jpg","37","restless",0.9,0.5,0.4,0.837334831555727,"true"
"image-keyboard-response",507,642675,"0.0-3.165-1.165","d3kw5p3etex7463",88,"71.csv","","null","resources/maskTrios/L4BB.jpg","null","",NA,NA,NA,NA,""
"image-keyboard-response",508,643883,"0.0-3.165-2.165","d3kw5p3etex7463",88,"71.csv","","null","resources/images/coin2.png","null","",NA,NA,NA,NA,""
"image-keyboard-response",509,644434,"0.0-3.166-0.166","d3kw5p3etex7463",88,"71.csv","","549","resources/trios/L4T2A3.jpg","39","restless",0.9,0.5,0.4,0.164411544334995,"true"
"image-keyboard-response",510,644839,"0.0-3.166-1.166","d3kw5p3etex7463",88,"71.csv","","null","resources/maskTrios/BBA3.jpg","null","",NA,NA,NA,NA,""
"image-keyboard-response",511,646055,"0.0-3.166-2.166","d3kw5p3etex7463",88,"71.csv","","null","resources/images/coin2.png","null","",NA,NA,NA,NA,""
"image-keyboard-response",512,651265,"0.0-3.167-0.167","d3kw5p3etex7463",88,"71.csv","","5209.199999809265","resources/trios/L4T2A2.jpg","37","restless",0.9,0.5,0.4,0.773314460321726,"true"
"image-keyboard-response",513,651681,"0.0-3.167-1.167","d3kw5p3etex7463",88,"71.csv","","null","resources/maskTrios/L4BB.jpg","null","",NA,NA,NA,NA,""
"image-keyboard-response",514,652887,"0.0-3.167-2.167","d3kw5p3etex7463",88,"71.csv","","null","resources/images/coin2.png","null","",NA,NA,NA,NA,""
"image-keyboard-response",515,653290,"0.0-3.168-0.168","d3kw5p3etex7463",88,"71.csv","","401.09999990463257","resources/trios/L4T1A2.jpg","38","restless",0.9,0.5,0.4,0.0373419094891365,"true"
"image-keyboard-response",516,653701,"0.0-3.168-1.168","d3kw5p3etex7463",88,"71.csv","","null","resources/maskTrios/BT1B.jpg","null","",NA,NA,NA,NA,""
"image-keyboard-response",517,654906,"0.0-3.168-2.168","d3kw5p3etex7463",88,"71.csv","","null","resources/images/coin2.png","null","",NA,NA,NA,NA,""
"image-keyboard-response",518,655042,"0.0-3.169-0.169","d3kw5p3etex7463",88,"71.csv","","134.40000009536743","resources/trios/L4T2A2.jpg","37","restless",0.9,0.5,0.4,0.274379541713455,"true"
"image-keyboard-response",519,655459,"0.0-3.169-1.169","d3kw5p3etex7463",88,"71.csv","","null","resources/maskTrios/L4BB.jpg","null","",NA,NA,NA,NA,""
"image-keyboard-response",520,656675,"0.0-3.169-2.169","d3kw5p3etex7463",88,"71.csv","","null","resources/images/coin2.png","null","",NA,NA,NA,NA,""
"image-keyboard-response",521,656696,"0.0-3.170-0.170","d3kw5p3etex7463",88,"71.csv","","18.799999713897705","resources/trios/L4T1A2.jpg","39","restless",0.9,0.5,0.4,0.332821297909787,"true"
"image-keyboard-response",522,657106,"0.0-3.170-1.170","d3kw5p3etex7463",88,"71.csv","","null","resources/maskTrios/BBA2.jpg","null","",NA,NA,NA,NA,""
"image-keyboard-response",523,658311,"0.0-3.170-2.170","d3kw5p3etex7463",88,"71.csv","","null","resources/images/coin2.png","null","",NA,NA,NA,NA,""
"image-keyboard-response",524,661132,"0.0-3.171-0.171","d3kw5p3etex7463",88,"71.csv","","2818.699999809265","resources/trios/L4T2A3.jpg","37","restless",0.9,0.6,0.4,0.0930847342498686,"true"
"image-keyboard-response",525,661545,"0.0-3.171-1.171","d3kw5p3etex7463",88,"71.csv","","null","resources/maskTrios/L4BB.jpg","null","",NA,NA,NA,NA,""
"image-keyboard-response",526,662751,"0.0-3.171-2.171","d3kw5p3etex7463",88,"71.csv","","null","resources/images/coin2.png","null","",NA,NA,NA,NA,""
"image-keyboard-response",527,663094,"0.0-3.172-0.172","d3kw5p3etex7463",88,"71.csv","","341.09999990463257","resources/trios/L4T2A2.jpg","38","restless",0.9,0.6,0.4,0.637251208159233,"false"
"image-keyboard-response",528,663513,"0.0-3.172-1.172","d3kw5p3etex7463",88,"71.csv","","null","resources/maskTrios/BT2B.jpg","null","",NA,NA,NA,NA,""
"image-keyboard-response",529,664717,"0.0-3.172-2.172","d3kw5p3etex7463",88,"71.csv","","null","resources/images/fishbone.png","null","",NA,NA,NA,NA,""
"image-keyboard-response",530,690813,"0.0-3.173-0.173","d3kw5p3etex7463",88,"71.csv","","26093.199999809265","resources/trios/L2T2A3.jpg","37","restless",0.9,0.6,0.4,0.472392483711593,"true"
"image-keyboard-response",531,691216,"0.0-3.173-1.173","d3kw5p3etex7463",88,"71.csv","","null","resources/maskTrios/L2BB.jpg","null","",NA,NA,NA,NA,""
"image-keyboard-response",532,692422,"0.0-3.173-2.173","d3kw5p3etex7463",88,"71.csv","","null","resources/images/coin2.png","null","",NA,NA,NA,NA,""
"image-keyboard-response",533,694807,"0.0-3.174-0.174","d3kw5p3etex7463",88,"71.csv","","2383.699999809265","resources/trios/L4T2A3.jpg","38","restless",0.9,0.6,0.4,0.120912839024204,"true"
"image-keyboard-response",534,695220,"0.0-3.174-1.174","d3kw5p3etex7463",88,"71.csv","","null","resources/maskTrios/BT2B.jpg","null","",NA,NA,NA,NA,""
"image-keyboard-response",535,696430,"0.0-3.174-2.174","d3kw5p3etex7463",88,"71.csv","","null","resources/images/coin2.png","null","",NA,NA,NA,NA,""
"image-keyboard-response",536,697015,"0.0-3.175-0.175","d3kw5p3etex7463",88,"71.csv","","584","resources/trios/L2T2A3.jpg","37","restless",0.9,0.6,0.4,0.224836547085207,"true"
"image-keyboard-response",537,697422,"0.0-3.175-1.175","d3kw5p3etex7463",88,"71.csv","","null","resources/maskTrios/L2BB.jpg","null","",NA,NA,NA,NA,""
"image-keyboard-response",538,698636,"0.0-3.175-2.175","d3kw5p3etex7463",88,"71.csv","","null","resources/images/coin2.png","null","",NA,NA,NA,NA,""
"image-keyboard-response",539,700576,"0.0-3.176-0.176","d3kw5p3etex7463",88,"71.csv","","1939","resources/trios/L4T2A3.jpg","39","restless",0.9,0.6,0.4,0.461275020336587,"false"
"image-keyboard-response",540,700985,"0.0-3.176-1.176","d3kw5p3etex7463",88,"71.csv","","null","resources/maskTrios/BBA3.jpg","null","",NA,NA,NA,NA,""
"image-keyboard-response",541,702195,"0.0-3.176-2.176","d3kw5p3etex7463",88,"71.csv","","null","resources/images/fishbone.png","null","",NA,NA,NA,NA,""
"image-keyboard-response",542,706903,"0.0-3.177-0.177","d3kw5p3etex7463",88,"71.csv","","4706.300000190735","resources/trios/L2T2A3.jpg","37","restless",0.8,0.5,0.4,0.374558299467213,"true"
"image-keyboard-response",543,707320,"0.0-3.177-1.177","d3kw5p3etex7463",88,"71.csv","","null","resources/maskTrios/L2BB.jpg","null","",NA,NA,NA,NA,""
"image-keyboard-response",544,708537,"0.0-3.177-2.177","d3kw5p3etex7463",88,"71.csv","","null","resources/images/coin2.png","null","",NA,NA,NA,NA,""
"image-keyboard-response",545,709002,"0.0-3.178-0.178","d3kw5p3etex7463",88,"71.csv","","463","resources/trios/L2T2A3.jpg","38","restless",0.9,0.5,0.3,0.461841423322523,"true"
"image-keyboard-response",546,709406,"0.0-3.178-1.178","d3kw5p3etex7463",88,"71.csv","","null","resources/maskTrios/BT2B.jpg","null","",NA,NA,NA,NA,""
"image-keyboard-response",547,710610,"0.0-3.178-2.178","d3kw5p3etex7463",88,"71.csv","","null","resources/images/coin2.png","null","",NA,NA,NA,NA,""
"image-keyboard-response",548,710984,"0.0-3.179-0.179","d3kw5p3etex7463",88,"71.csv","","371.59999990463257","resources/trios/L2T1A3.jpg","37","restless",0.9,0.5,0.3,0.621843960009678,"true"
"image-keyboard-response",549,711388,"0.0-3.179-1.179","d3kw5p3etex7463",88,"71.csv","","null","resources/maskTrios/L2BB.jpg","null","",NA,NA,NA,NA,""
"image-keyboard-response",550,712599,"0.0-3.179-2.179","d3kw5p3etex7463",88,"71.csv","","null","resources/images/coin2.png","null","",NA,NA,NA,NA,""
"image-keyboard-response",551,713255,"0.0-3.180-0.180","d3kw5p3etex7463",88,"71.csv","","655.0999999046326","resources/trios/L4T2A3.jpg","38","restless",0.8,0.5,0.3,0.940763000928514,"false"
"image-keyboard-response",552,713666,"0.0-3.180-1.180","d3kw5p3etex7463",88,"71.csv","","null","resources/maskTrios/BT2B.jpg","null","",NA,NA,NA,NA,""
"image-keyboard-response",553,714876,"0.0-3.180-2.180","d3kw5p3etex7463",88,"71.csv","","null","resources/images/fishbone.png","null","",NA,NA,NA,NA,""
"image-keyboard-response",554,717072,"0.0-3.181-0.181","d3kw5p3etex7463",88,"71.csv","","2194.699999809265","resources/trios/L4T1A2.jpg","37","restless",0.8,0.5,0.3,0.614185227493535,"true"
"image-keyboard-response",555,717477,"0.0-3.181-1.181","d3kw5p3etex7463",88,"71.csv","","null","resources/maskTrios/L4BB.jpg","null","",NA,NA,NA,NA,""
"image-keyboard-response",556,718693,"0.0-3.181-2.181","d3kw5p3etex7463",88,"71.csv","","null","resources/images/coin2.png","null","",NA,NA,NA,NA,""
"image-keyboard-response",557,719196,"0.0-3.182-0.182","d3kw5p3etex7463",88,"71.csv","","501.09999990463257","resources/trios/L4T2A3.jpg","38","restless",0.8,0.5,0.3,0.0552328298125297,"true"
"image-keyboard-response",558,719613,"0.0-3.182-1.182","d3kw5p3etex7463",88,"71.csv","","null","resources/maskTrios/BT2B.jpg","null","",NA,NA,NA,NA,""
"image-keyboard-response",559,720822,"0.0-3.182-2.182","d3kw5p3etex7463",88,"71.csv","","null","resources/images/coin2.png","null","",NA,NA,NA,NA,""
"image-keyboard-response",560,721230,"0.0-3.183-0.183","d3kw5p3etex7463",88,"71.csv","","406.69999980926514","resources/trios/L2T1A3.jpg","37","restless",0.8,0.5,0.3,0.221902368821668,"true"
"image-keyboard-response",561,721635,"0.0-3.183-1.183","d3kw5p3etex7463",88,"71.csv","","null","resources/maskTrios/L2BB.jpg","null","",NA,NA,NA,NA,""
"image-keyboard-response",562,722849,"0.0-3.183-2.183","d3kw5p3etex7463",88,"71.csv","","null","resources/images/coin2.png","null","",NA,NA,NA,NA,""
"image-keyboard-response",563,725338,"0.0-3.184-0.184","d3kw5p3etex7463",88,"71.csv","","2487.5999999046326","resources/trios/L2T2A2.jpg","38","restless",0.8,0.5,0.3,0.739595197604188,"false"
"image-keyboard-response",564,725740,"0.0-3.184-1.184","d3kw5p3etex7463",88,"71.csv","","null","resources/maskTrios/BT2B.jpg","null","",NA,NA,NA,NA,""
"image-keyboard-response",565,726947,"0.0-3.184-2.184","d3kw5p3etex7463",88,"71.csv","","null","resources/images/fishbone.png","null","",NA,NA,NA,NA,""
"image-keyboard-response",566,727794,"0.0-3.185-0.185","d3kw5p3etex7463",88,"71.csv","","844.5","resources/trios/L2T2A2.jpg","37","restless",0.8,0.5,0.3,0.576334547239726,"true"
"image-keyboard-response",567,728197,"0.0-3.185-1.185","d3kw5p3etex7463",88,"71.csv","","null","resources/maskTrios/L2BB.jpg","null","",NA,NA,NA,NA,""
"image-keyboard-response",568,729408,"0.0-3.185-2.185","d3kw5p3etex7463",88,"71.csv","","null","resources/images/coin2.png","null","",NA,NA,NA,NA,""
"image-keyboard-response",569,729750,"0.0-3.186-0.186","d3kw5p3etex7463",88,"71.csv","","341","resources/trios/L4T2A2.jpg","38","restless",0.8,0.5,0.3,0.100310170333429,"true"
"image-keyboard-response",570,730172,"0.0-3.186-1.186","d3kw5p3etex7463",88,"71.csv","","null","resources/maskTrios/BT2B.jpg","null","",NA,NA,NA,NA,""
"image-keyboard-response",571,731387,"0.0-3.186-2.186","d3kw5p3etex7463",88,"71.csv","","null","resources/images/coin2.png","null","",NA,NA,NA,NA,""
"image-keyboard-response",572,731671,"0.0-3.187-0.187","d3kw5p3etex7463",88,"71.csv","","282.19999980926514","resources/trios/L4T1A2.jpg","37","restless",0.8,0.5,0.3,0.829845504015378,"false"
"image-keyboard-response",573,732082,"0.0-3.187-1.187","d3kw5p3etex7463",88,"71.csv","","null","resources/maskTrios/L4BB.jpg","null","",NA,NA,NA,NA,""
"image-keyboard-response",574,733286,"0.0-3.187-2.187","d3kw5p3etex7463",88,"71.csv","","null","resources/images/fishbone.png","null","",NA,NA,NA,NA,""
"image-keyboard-response",575,742599,"0.0-3.188-0.188","d3kw5p3etex7463",88,"71.csv","","9311","resources/trios/L4T1A3.jpg","37","restless",0.8,0.5,0.3,0.844694050168187,"false"
"image-keyboard-response",576,743013,"0.0-3.188-1.188","d3kw5p3etex7463",88,"71.csv","","null","resources/maskTrios/L4BB.jpg","null","",NA,NA,NA,NA,""
"image-keyboard-response",577,744222,"0.0-3.188-2.188","d3kw5p3etex7463",88,"71.csv","","null","resources/images/fishbone.png","null","",NA,NA,NA,NA,""
"image-keyboard-response",578,745899,"0.0-3.189-0.189","d3kw5p3etex7463",88,"71.csv","","1675.7000002861023","resources/trios/L2T1A3.jpg","38","restless",0.8,0.5,0.3,0.994500748525618,"false"
"image-keyboard-response",579,746305,"0.0-3.189-1.189","d3kw5p3etex7463",88,"71.csv","","null","resources/maskTrios/BT1B.jpg","null","",NA,NA,NA,NA,""
"image-keyboard-response",580,747520,"0.0-3.189-2.189","d3kw5p3etex7463",88,"71.csv","","null","resources/images/fishbone.png","null","",NA,NA,NA,NA,""
"image-keyboard-response",581,747807,"0.0-3.190-0.190","d3kw5p3etex7463",88,"71.csv","","285.6000003814697","resources/trios/L4T2A2.jpg","39","restless",0.8,0.6,0.3,0.930183438220916,"false"
"image-keyboard-response",582,748216,"0.0-3.190-1.190","d3kw5p3etex7463",88,"71.csv","","null","resources/maskTrios/BBA2.jpg","null","",NA,NA,NA,NA,""
"image-keyboard-response",583,749419,"0.0-3.190-2.190","d3kw5p3etex7463",88,"71.csv","","null","resources/images/fishbone.png","null","",NA,NA,NA,NA,""
"image-keyboard-response",584,750206,"0.0-3.191-0.191","d3kw5p3etex7463",88,"71.csv","","784.7999997138977","resources/trios/L4T2A3.jpg","37","restless",0.8,0.6,0.3,0.272429782607515,"true"
"image-keyboard-response",585,750619,"0.0-3.191-1.191","d3kw5p3etex7463",88,"71.csv","","null","resources/maskTrios/L4BB.jpg","null","",NA,NA,NA,NA,""
"image-keyboard-response",586,751835,"0.0-3.191-2.191","d3kw5p3etex7463",88,"71.csv","","null","resources/images/coin2.png","null","",NA,NA,NA,NA,""
"image-keyboard-response",587,752618,"0.0-3.192-0.192","d3kw5p3etex7463",88,"71.csv","","780.6999998092651","resources/trios/L2T1A2.jpg","38","restless",0.8,0.6,0.3,0.993814146245183,"false"
"image-keyboard-response",588,753025,"0.0-3.192-1.192","d3kw5p3etex7463",88,"71.csv","","null","resources/maskTrios/BT1B.jpg","null","",NA,NA,NA,NA,""
"image-keyboard-response",589,754229,"0.0-3.192-2.192","d3kw5p3etex7463",88,"71.csv","","null","resources/images/fishbone.png","null","",NA,NA,NA,NA,""
"image-keyboard-response",590,754685,"0.0-3.193-0.193","d3kw5p3etex7463",88,"71.csv","","454.5","resources/trios/L2T2A3.jpg","37","restless",0.8,0.6,0.3,0.803849534537585,"false"
"image-keyboard-response",591,755095,"0.0-3.193-1.193","d3kw5p3etex7463",88,"71.csv","","null","resources/maskTrios/L2BB.jpg","null","",NA,NA,NA,NA,""
"image-keyboard-response",592,756303,"0.0-3.193-2.193","d3kw5p3etex7463",88,"71.csv","","null","resources/images/fishbone.png","null","",NA,NA,NA,NA,""
"image-keyboard-response",593,756845,"0.0-3.194-0.194","d3kw5p3etex7463",88,"71.csv","","539.9000000953674","resources/trios/L4T2A3.jpg","39","restless",0.7,0.6,0.3,0.329550217002605,"false"
"image-keyboard-response",594,757255,"0.0-3.194-1.194","d3kw5p3etex7463",88,"71.csv","","null","resources/maskTrios/BBA3.jpg","null","",NA,NA,NA,NA,""
"image-keyboard-response",595,758472,"0.0-3.194-2.194","d3kw5p3etex7463",88,"71.csv","","null","resources/images/fishbone.png","null","",NA,NA,NA,NA,""
"image-keyboard-response",596,758959,"0.0-3.195-0.195","d3kw5p3etex7463",88,"71.csv","","485.1000003814697","resources/trios/L2T2A3.jpg","38","restless",0.7,0.6,0.3,0.365540816013719,"true"
"image-keyboard-response",597,759366,"0.0-3.195-1.195","d3kw5p3etex7463",88,"71.csv","","null","resources/maskTrios/BT2B.jpg","null","",NA,NA,NA,NA,""
"image-keyboard-response",598,760571,"0.0-3.195-2.195","d3kw5p3etex7463",88,"71.csv","","null","resources/images/coin2.png","null","",NA,NA,NA,NA,""
"image-keyboard-response",599,762329,"0.0-3.196-0.196","d3kw5p3etex7463",88,"71.csv","","1756.7000002861023","resources/trios/L4T2A2.jpg","37","restless",0.7,0.6,0.4,0.369495169505887,"true"
"image-keyboard-response",600,762733,"0.0-3.196-1.196","d3kw5p3etex7463",88,"71.csv","","null","resources/maskTrios/L4BB.jpg","null","",NA,NA,NA,NA,""
"image-keyboard-response",601,763945,"0.0-3.196-2.196","d3kw5p3etex7463",88,"71.csv","","null","resources/images/coin2.png","null","",NA,NA,NA,NA,""
"image-keyboard-response",602,770870,"0.0-3.197-0.197","d3kw5p3etex7463",88,"71.csv","","6923.200000286102","resources/trios/L4T1A3.jpg","39","restless",0.7,0.6,0.4,0.920088282939781,"false"
"image-keyboard-response",603,771276,"0.0-3.197-1.197","d3kw5p3etex7463",88,"71.csv","","null","resources/maskTrios/BBA3.jpg","null","",NA,NA,NA,NA,""
"image-keyboard-response",604,772485,"0.0-3.197-2.197","d3kw5p3etex7463",88,"71.csv","","null","resources/images/fishbone.png","null","",NA,NA,NA,NA,""
"image-keyboard-response",605,773029,"0.0-3.198-0.198","d3kw5p3etex7463",88,"71.csv","","541.9000000953674","resources/trios/L4T1A2.jpg","38","restless",0.7,0.6,0.4,0.366895887032511,"true"
"image-keyboard-response",606,773445,"0.0-3.198-1.198","d3kw5p3etex7463",88,"71.csv","","null","resources/maskTrios/BT1B.jpg","null","",NA,NA,NA,NA,""
"image-keyboard-response",607,774648,"0.0-3.198-2.198","d3kw5p3etex7463",88,"71.csv","","null","resources/images/coin2.png","null","",NA,NA,NA,NA,""
"image-keyboard-response",608,775009,"0.0-3.199-0.199","d3kw5p3etex7463",88,"71.csv","","360.09999990463257","resources/trios/L4T2A3.jpg","37","restless",0.7,0.6,0.4,0.560329528628101,"true"
"image-keyboard-response",609,775419,"0.0-3.199-1.199","d3kw5p3etex7463",88,"71.csv","","null","resources/maskTrios/L4BB.jpg","null","",NA,NA,NA,NA,""
"image-keyboard-response",610,776631,"0.0-3.199-2.199","d3kw5p3etex7463",88,"71.csv","","null","resources/images/coin2.png","null","",NA,NA,NA,NA,""
"image-keyboard-response",611,778147,"0.0-3.200-0.200","d3kw5p3etex7463",88,"71.csv","","1514.4000000953674","resources/trios/L4T1A3.jpg","38","restless",0.7,0.6,0.4,0.971419826177311,"false"
"image-keyboard-response",612,778561,"0.0-3.200-1.200","d3kw5p3etex7463",88,"71.csv","","null","resources/maskTrios/BT1B.jpg","null","",NA,NA,NA,NA,""
"image-keyboard-response",613,779774,"0.0-3.200-2.200","d3kw5p3etex7463",88,"71.csv","","null","resources/images/fishbone.png","null","",NA,NA,NA,NA,""
