"trial_type","trial_index","time_elapsed","internal_node_id","subject","participantCode","walkNumber","success","rt","stimulus","key_press","test_part","leftProb","midProb","rightProb","generatedNum","correct"
"pavlovia",0,1162,"0.0-0.0","5h3hfbp96bt7udo",784,"12.csv","","","","","",NA,NA,NA,NA,""
"fullscreen",1,26298,"0.0-1.0","5h3hfbp96bt7udo",784,"12.csv","true","","","","",NA,NA,NA,NA,""
"html-keyboard-response",2,33606,"0.0-2.0-0.0","5h3hfbp96bt7udo",784,"12.csv","","7306.599999904633","<p><font size='6'>Arrrgh!</p></font><p>Can you be the best pirate? Try to find lots of gold! But beware, some islands have more gold than others, and over time, the island with the most gold may change. Can YOU figure it out? </p><font size='6'>GOOD LUCK, CAPTAIN!!!</font><p>Press any key to begin</p>","32","",NA,NA,NA,NA,""
"image-keyboard-response",3,36613,"0.0-2.0-1.0","5h3hfbp96bt7udo",784,"12.csv","","null","resources/image_sets/111.png","null","",NA,NA,NA,NA,""
"image-keyboard-response",4,43157,"0.0-2.0-2.0","5h3hfbp96bt7udo",784,"12.csv","","6542.900000095367","resources/image_sets/left_highlight.png","37","",NA,NA,NA,NA,""
"image-keyboard-response",5,45457,"0.0-2.0-3.0","5h3hfbp96bt7udo",784,"12.csv","","2298","resources/image_sets/mid_highlight.png","38","",NA,NA,NA,NA,""
"image-keyboard-response",6,46384,"0.0-2.0-4.0","5h3hfbp96bt7udo",784,"12.csv","","926.1000000238419","resources/image_sets/right_highlight.png","39","",NA,NA,NA,NA,""
"image-keyboard-response",7,48093,"0.0-2.0-5.0","5h3hfbp96bt7udo",784,"12.csv","","1708.1000000238419","resources/image_sets/111.png","13","",NA,NA,NA,NA,""
"image-keyboard-response",8,50971,"0.0-2.0-6.0","5h3hfbp96bt7udo",784,"12.csv","","2877.3000000715256","resources/images/coin2.png","13","",NA,NA,NA,NA,""
"image-keyboard-response",9,52877,"0.0-2.0-7.0","5h3hfbp96bt7udo",784,"12.csv","","1905","resources/images/fishbone.png","13","",NA,NA,NA,NA,""
"html-keyboard-response",10,55171,"0.0-2.0-8.0","5h3hfbp96bt7udo",784,"12.csv","","2292.899999976158","<p>Your first journey will be a long one, but you will get a well deserved break at the end</p><p>After the break you will have four more journeys, but each will be much shorter than the first, and you will have breaks in between each</p><p>Press Enter to begin</p>","13","",NA,NA,NA,NA,""
"image-keyboard-response",11,56269,"0.0-3.0-0.0","5h3hfbp96bt7udo",784,"12.csv","","1096.4000000953674","resources/trios/L1T1A1.jpg","37","restless",0.7,0.9,0.3,0.407812131288608,"true"
"image-keyboard-response",12,56674,"0.0-3.0-1.0","5h3hfbp96bt7udo",784,"12.csv","","null","resources/maskTrios/L1BB.jpg","null","",NA,NA,NA,NA,""
"image-keyboard-response",13,57882,"0.0-3.0-2.0","5h3hfbp96bt7udo",784,"12.csv","","null","resources/images/coin2.png","null","",NA,NA,NA,NA,""
"image-keyboard-response",14,58842,"0.0-3.1-0.1","5h3hfbp96bt7udo",784,"12.csv","","958.4000000953674","resources/trios/L1T1A3.jpg","39","restless",0.7,0.9,0.3,0.499067827209393,"false"
"image-keyboard-response",15,59245,"0.0-3.1-1.1","5h3hfbp96bt7udo",784,"12.csv","","null","resources/maskTrios/BBA3.jpg","null","",NA,NA,NA,NA,""
"image-keyboard-response",16,60450,"0.0-3.1-2.1","5h3hfbp96bt7udo",784,"12.csv","","null","resources/images/fishbone.png","null","",NA,NA,NA,NA,""
"image-keyboard-response",17,60783,"0.0-3.2-0.2","5h3hfbp96bt7udo",784,"12.csv","","332","resources/trios/L1T2A3.jpg","38","restless",0.7,0.9,0.3,0.697455738388518,"true"
"image-keyboard-response",18,61188,"0.0-3.2-1.2","5h3hfbp96bt7udo",784,"12.csv","","null","resources/maskTrios/BT2B.jpg","null","",NA,NA,NA,NA,""
"image-keyboard-response",19,62395,"0.0-3.2-2.2","5h3hfbp96bt7udo",784,"12.csv","","null","resources/images/coin2.png","null","",NA,NA,NA,NA,""
"image-keyboard-response",20,62676,"0.0-3.3-0.3","5h3hfbp96bt7udo",784,"12.csv","","279.7999999523163","resources/trios/L1T1A1.jpg","39","restless",0.7,0.9,0.3,0.965161463016686,"false"
"image-keyboard-response",21,63080,"0.0-3.3-1.3","5h3hfbp96bt7udo",784,"12.csv","","null","resources/maskTrios/BBA1.jpg","null","",NA,NA,NA,NA,""
"image-keyboard-response",22,64283,"0.0-3.3-2.3","5h3hfbp96bt7udo",784,"12.csv","","null","resources/images/fishbone.png","null","",NA,NA,NA,NA,""
"image-keyboard-response",23,64504,"0.0-3.4-0.4","5h3hfbp96bt7udo",784,"12.csv","","219.89999997615814","resources/trios/L1T2A3.jpg","37","restless",0.8,0.8,0.2,0.810465719253308,"false"
"image-keyboard-response",24,64908,"0.0-3.4-1.4","5h3hfbp96bt7udo",784,"12.csv","","null","resources/maskTrios/L1BB.jpg","null","",NA,NA,NA,NA,""
"image-keyboard-response",25,66112,"0.0-3.4-2.4","5h3hfbp96bt7udo",784,"12.csv","","null","resources/images/fishbone.png","null","",NA,NA,NA,NA,""
"image-keyboard-response",26,66440,"0.0-3.5-0.5","5h3hfbp96bt7udo",784,"12.csv","","325.60000002384186","resources/trios/L4T2A3.jpg","38","restless",0.8,0.7,0.2,0.480723401230197,"true"
"image-keyboard-response",27,66842,"0.0-3.5-1.5","5h3hfbp96bt7udo",784,"12.csv","","null","resources/maskTrios/BT2B.jpg","null","",NA,NA,NA,NA,""
"image-keyboard-response",28,68048,"0.0-3.5-2.5","5h3hfbp96bt7udo",784,"12.csv","","null","resources/images/coin2.png","null","",NA,NA,NA,NA,""
"image-keyboard-response",29,68237,"0.0-3.6-0.6","5h3hfbp96bt7udo",784,"12.csv","","186.79999995231628","resources/trios/L4T1A1.jpg","38","restless",0.8,0.7,0.2,0.734091192161106,"false"
"image-keyboard-response",30,68641,"0.0-3.6-1.6","5h3hfbp96bt7udo",784,"12.csv","","null","resources/maskTrios/BT1B.jpg","null","",NA,NA,NA,NA,""
"image-keyboard-response",31,69847,"0.0-3.6-2.6","5h3hfbp96bt7udo",784,"12.csv","","null","resources/images/fishbone.png","null","",NA,NA,NA,NA,""
"image-keyboard-response",32,70106,"0.0-3.7-0.7","5h3hfbp96bt7udo",784,"12.csv","","257.60000002384186","resources/trios/L1T1A3.jpg","37","restless",0.8,0.7,0.2,0.586652930683843,"true"
"image-keyboard-response",33,70510,"0.0-3.7-1.7","5h3hfbp96bt7udo",784,"12.csv","","null","resources/maskTrios/L1BB.jpg","null","",NA,NA,NA,NA,""
"image-keyboard-response",34,71712,"0.0-3.7-2.7","5h3hfbp96bt7udo",784,"12.csv","","null","resources/images/coin2.png","null","",NA,NA,NA,NA,""
"image-keyboard-response",35,71946,"0.0-3.8-0.8","5h3hfbp96bt7udo",784,"12.csv","","232.10000002384186","resources/trios/L4T2A3.jpg","39","restless",0.7,0.7,0.2,0.40640180541828,"false"
"image-keyboard-response",36,72350,"0.0-3.8-1.8","5h3hfbp96bt7udo",784,"12.csv","","null","resources/maskTrios/BBA3.jpg","null","",NA,NA,NA,NA,""
"image-keyboard-response",37,73556,"0.0-3.8-2.8","5h3hfbp96bt7udo",784,"12.csv","","null","resources/images/fishbone.png","null","",NA,NA,NA,NA,""
"image-keyboard-response",38,73579,"0.0-3.9-0.9","5h3hfbp96bt7udo",784,"12.csv","","21.5","resources/trios/L1T1A3.jpg","38","restless",0.7,0.7,0.2,0.192595257784435,"true"
"image-keyboard-response",39,73986,"0.0-3.9-1.9","5h3hfbp96bt7udo",784,"12.csv","","null","resources/maskTrios/BT1B.jpg","null","",NA,NA,NA,NA,""
"image-keyboard-response",40,75188,"0.0-3.9-2.9","5h3hfbp96bt7udo",784,"12.csv","","null","resources/images/coin2.png","null","",NA,NA,NA,NA,""
"image-keyboard-response",41,75518,"0.0-3.10-0.10","5h3hfbp96bt7udo",784,"12.csv","","329.3000000715256","resources/trios/L1T2A1.jpg","38","restless",0.7,0.7,0.3,0.577115597399402,"true"
"image-keyboard-response",42,75921,"0.0-3.10-1.10","5h3hfbp96bt7udo",784,"12.csv","","null","resources/maskTrios/BT2B.jpg","null","",NA,NA,NA,NA,""
"image-keyboard-response",43,77127,"0.0-3.10-2.10","5h3hfbp96bt7udo",784,"12.csv","","null","resources/images/coin2.png","null","",NA,NA,NA,NA,""
"image-keyboard-response",44,77446,"0.0-3.11-0.11","5h3hfbp96bt7udo",784,"12.csv","","317.10000002384186","resources/trios/L1T2A1.jpg","37","restless",0.7,0.7,0.4,0.729502085794617,"false"
"image-keyboard-response",45,77849,"0.0-3.11-1.11","5h3hfbp96bt7udo",784,"12.csv","","null","resources/maskTrios/L1BB.jpg","null","",NA,NA,NA,NA,""
"image-keyboard-response",46,79056,"0.0-3.11-2.11","5h3hfbp96bt7udo",784,"12.csv","","null","resources/images/fishbone.png","null","",NA,NA,NA,NA,""
"image-keyboard-response",47,79337,"0.0-3.12-0.12","5h3hfbp96bt7udo",784,"12.csv","","279.8000000715256","resources/trios/L4T1A1.jpg","38","restless",0.7,0.7,0.5,0.90204140236867,"false"
"image-keyboard-response",48,79744,"0.0-3.12-1.12","5h3hfbp96bt7udo",784,"12.csv","","null","resources/maskTrios/BT1B.jpg","null","",NA,NA,NA,NA,""
"image-keyboard-response",49,80946,"0.0-3.12-2.12","5h3hfbp96bt7udo",784,"12.csv","","null","resources/images/fishbone.png","null","",NA,NA,NA,NA,""
"image-keyboard-response",50,80956,"0.0-3.13-0.13","5h3hfbp96bt7udo",784,"12.csv","","8.800000071525574","resources/trios/L1T1A3.jpg","37","restless",0.7,0.7,0.5,0.359875314813173,"true"
"image-keyboard-response",51,81362,"0.0-3.13-1.13","5h3hfbp96bt7udo",784,"12.csv","","null","resources/maskTrios/L1BB.jpg","null","",NA,NA,NA,NA,""
"image-keyboard-response",52,82568,"0.0-3.13-2.13","5h3hfbp96bt7udo",784,"12.csv","","null","resources/images/coin2.png","null","",NA,NA,NA,NA,""
"image-keyboard-response",53,82874,"0.0-3.14-0.14","5h3hfbp96bt7udo",784,"12.csv","","304.10000002384186","resources/trios/L4T2A3.jpg","37","restless",0.8,0.7,0.5,0.092288595490007,"true"
"image-keyboard-response",54,83279,"0.0-3.14-1.14","5h3hfbp96bt7udo",784,"12.csv","","null","resources/maskTrios/L4BB.jpg","null","",NA,NA,NA,NA,""
"image-keyboard-response",55,84486,"0.0-3.14-2.14","5h3hfbp96bt7udo",784,"12.csv","","null","resources/images/coin2.png","null","",NA,NA,NA,NA,""
"image-keyboard-response",56,84767,"0.0-3.15-0.15","5h3hfbp96bt7udo",784,"12.csv","","279.90000009536743","resources/trios/L1T2A3.jpg","39","restless",0.8,0.7,0.5,0.860758164452651,"false"
"image-keyboard-response",57,85171,"0.0-3.15-1.15","5h3hfbp96bt7udo",784,"12.csv","","null","resources/maskTrios/BBA3.jpg","null","",NA,NA,NA,NA,""
"image-keyboard-response",58,86378,"0.0-3.15-2.15","5h3hfbp96bt7udo",784,"12.csv","","null","resources/images/fishbone.png","null","",NA,NA,NA,NA,""
"image-keyboard-response",59,86670,"0.0-3.16-0.16","5h3hfbp96bt7udo",784,"12.csv","","290.5","resources/trios/L4T1A3.jpg","39","restless",0.8,0.7,0.5,0.0290497645050551,"true"
"image-keyboard-response",60,87074,"0.0-3.16-1.16","5h3hfbp96bt7udo",784,"12.csv","","null","resources/maskTrios/BBA3.jpg","null","",NA,NA,NA,NA,""
"image-keyboard-response",61,88278,"0.0-3.16-2.16","5h3hfbp96bt7udo",784,"12.csv","","null","resources/images/coin2.png","null","",NA,NA,NA,NA,""
"image-keyboard-response",62,88808,"0.0-3.17-0.17","5h3hfbp96bt7udo",784,"12.csv","","528.2999999523163","resources/trios/L1T2A1.jpg","38","restless",0.8,0.7,0.5,0.452028791479091,"true"
"image-keyboard-response",63,89214,"0.0-3.17-1.17","5h3hfbp96bt7udo",784,"12.csv","","null","resources/maskTrios/BT2B.jpg","null","",NA,NA,NA,NA,""
"image-keyboard-response",64,90421,"0.0-3.17-2.17","5h3hfbp96bt7udo",784,"12.csv","","null","resources/images/coin2.png","null","",NA,NA,NA,NA,""
"image-keyboard-response",65,90680,"0.0-3.18-0.18","5h3hfbp96bt7udo",784,"12.csv","","257.89999997615814","resources/trios/L1T1A3.jpg","37","restless",0.8,0.7,0.5,0.858294843075191,"false"
"image-keyboard-response",66,91085,"0.0-3.18-1.18","5h3hfbp96bt7udo",784,"12.csv","","null","resources/maskTrios/L1BB.jpg","null","",NA,NA,NA,NA,""
"image-keyboard-response",67,92288,"0.0-3.18-2.18","5h3hfbp96bt7udo",784,"12.csv","","null","resources/images/fishbone.png","null","",NA,NA,NA,NA,""
"image-keyboard-response",68,92359,"0.0-3.19-0.19","5h3hfbp96bt7udo",784,"12.csv","","69.5","resources/trios/L4T1A3.jpg","38","restless",0.8,0.7,0.5,0.490051800404239,"true"
"image-keyboard-response",69,92763,"0.0-3.19-1.19","5h3hfbp96bt7udo",784,"12.csv","","null","resources/maskTrios/BT1B.jpg","null","",NA,NA,NA,NA,""
"image-keyboard-response",70,93967,"0.0-3.19-2.19","5h3hfbp96bt7udo",784,"12.csv","","null","resources/images/coin2.png","null","",NA,NA,NA,NA,""
"image-keyboard-response",71,93989,"0.0-3.20-0.20","5h3hfbp96bt7udo",784,"12.csv","","20.799999952316284","resources/trios/L4T2A1.jpg","37","restless",0.8,0.8,0.5,0.1086520611956,"true"
"image-keyboard-response",72,94393,"0.0-3.20-1.20","5h3hfbp96bt7udo",784,"12.csv","","null","resources/maskTrios/L4BB.jpg","null","",NA,NA,NA,NA,""
"image-keyboard-response",73,95595,"0.0-3.20-2.20","5h3hfbp96bt7udo",784,"12.csv","","null","resources/images/coin2.png","null","",NA,NA,NA,NA,""
"image-keyboard-response",74,95716,"0.0-3.21-0.21","5h3hfbp96bt7udo",784,"12.csv","","118.70000004768372","resources/trios/L1T1A3.jpg","37","restless",0.8,0.8,0.5,0.416152975813294,"true"
"image-keyboard-response",75,96118,"0.0-3.21-1.21","5h3hfbp96bt7udo",784,"12.csv","","null","resources/maskTrios/L1BB.jpg","null","",NA,NA,NA,NA,""
"image-keyboard-response",76,97320,"0.0-3.21-2.21","5h3hfbp96bt7udo",784,"12.csv","","null","resources/images/coin2.png","null","",NA,NA,NA,NA,""
"image-keyboard-response",77,97428,"0.0-3.22-0.22","5h3hfbp96bt7udo",784,"12.csv","","107.30000007152557","resources/trios/L4T2A1.jpg","39","restless",0.8,0.8,0.5,0.772777562096953,"false"
"image-keyboard-response",78,97830,"0.0-3.22-1.22","5h3hfbp96bt7udo",784,"12.csv","","null","resources/maskTrios/BBA1.jpg","null","",NA,NA,NA,NA,""
"image-keyboard-response",79,99032,"0.0-3.22-2.22","5h3hfbp96bt7udo",784,"12.csv","","null","resources/images/fishbone.png","null","",NA,NA,NA,NA,""
"image-keyboard-response",80,99142,"0.0-3.23-0.23","5h3hfbp96bt7udo",784,"12.csv","","108.40000009536743","resources/trios/L4T1A1.jpg","38","restless",0.8,0.8,0.5,0.0743020930325153,"true"
"image-keyboard-response",81,99545,"0.0-3.23-1.23","5h3hfbp96bt7udo",784,"12.csv","","null","resources/maskTrios/BT1B.jpg","null","",NA,NA,NA,NA,""
"image-keyboard-response",82,100747,"0.0-3.23-2.23","5h3hfbp96bt7udo",784,"12.csv","","null","resources/images/coin2.png","null","",NA,NA,NA,NA,""
"image-keyboard-response",83,100911,"0.0-3.24-0.24","5h3hfbp96bt7udo",784,"12.csv","","163","resources/trios/L4T2A3.jpg","38","restless",0.8,0.8,0.5,0.298147531558025,"true"
"image-keyboard-response",84,101314,"0.0-3.24-1.24","5h3hfbp96bt7udo",784,"12.csv","","null","resources/maskTrios/BT2B.jpg","null","",NA,NA,NA,NA,""
"image-keyboard-response",85,102520,"0.0-3.24-2.24","5h3hfbp96bt7udo",784,"12.csv","","null","resources/images/coin2.png","null","",NA,NA,NA,NA,""
"image-keyboard-response",86,102692,"0.0-3.25-0.25","5h3hfbp96bt7udo",784,"12.csv","","171.10000002384186","resources/trios/L1T2A1.jpg","37","restless",0.8,0.8,0.5,0.498705877474656,"true"
"image-keyboard-response",87,103095,"0.0-3.25-1.25","5h3hfbp96bt7udo",784,"12.csv","","null","resources/maskTrios/L1BB.jpg","null","",NA,NA,NA,NA,""
"image-keyboard-response",88,104301,"0.0-3.25-2.25","5h3hfbp96bt7udo",784,"12.csv","","null","resources/images/coin2.png","null","",NA,NA,NA,NA,""
"image-keyboard-response",89,104395,"0.0-3.26-0.26","5h3hfbp96bt7udo",784,"12.csv","","91.79999995231628","resources/trios/L4T2A3.jpg","37","restless",0.8,0.8,0.6,0.74275746943387,"true"
"image-keyboard-response",90,104801,"0.0-3.26-1.26","5h3hfbp96bt7udo",784,"12.csv","","null","resources/maskTrios/L4BB.jpg","null","",NA,NA,NA,NA,""
"image-keyboard-response",91,106004,"0.0-3.26-2.26","5h3hfbp96bt7udo",784,"12.csv","","null","resources/images/coin2.png","null","",NA,NA,NA,NA,""
"image-keyboard-response",92,106197,"0.0-3.27-0.27","5h3hfbp96bt7udo",784,"12.csv","","191.79999995231628","resources/trios/L1T1A3.jpg","37","restless",0.8,0.8,0.6,0.158929439594642,"true"
"image-keyboard-response",93,106598,"0.0-3.27-1.27","5h3hfbp96bt7udo",784,"12.csv","","null","resources/maskTrios/L1BB.jpg","null","",NA,NA,NA,NA,""
"image-keyboard-response",94,107804,"0.0-3.27-2.27","5h3hfbp96bt7udo",784,"12.csv","","null","resources/images/coin2.png","null","",NA,NA,NA,NA,""
"image-keyboard-response",95,107864,"0.0-3.28-0.28","5h3hfbp96bt7udo",784,"12.csv","","58.299999952316284","resources/trios/L1T2A1.jpg","37","restless",0.8,0.8,0.6,0.536659421253285,"true"
"image-keyboard-response",96,108268,"0.0-3.28-1.28","5h3hfbp96bt7udo",784,"12.csv","","null","resources/maskTrios/L1BB.jpg","null","",NA,NA,NA,NA,""
"image-keyboard-response",97,109470,"0.0-3.28-2.28","5h3hfbp96bt7udo",784,"12.csv","","null","resources/images/coin2.png","null","",NA,NA,NA,NA,""
"image-keyboard-response",98,109550,"0.0-3.29-0.29","5h3hfbp96bt7udo",784,"12.csv","","78.60000002384186","resources/trios/L4T1A1.jpg","37","restless",0.8,0.8,0.6,0.745185942582227,"true"
"image-keyboard-response",99,109957,"0.0-3.29-1.29","5h3hfbp96bt7udo",784,"12.csv","","null","resources/maskTrios/L4BB.jpg","null","",NA,NA,NA,NA,""
"image-keyboard-response",100,111161,"0.0-3.29-2.29","5h3hfbp96bt7udo",784,"12.csv","","null","resources/images/coin2.png","null","",NA,NA,NA,NA,""
"image-keyboard-response",101,111345,"0.0-3.30-0.30","5h3hfbp96bt7udo",784,"12.csv","","182.20000004768372","resources/trios/L1T2A1.jpg","37","restless",0.8,0.8,0.6,0.675001995448856,"true"
"image-keyboard-response",102,111747,"0.0-3.30-1.30","5h3hfbp96bt7udo",784,"12.csv","","null","resources/maskTrios/L1BB.jpg","null","",NA,NA,NA,NA,""
"image-keyboard-response",103,112952,"0.0-3.30-2.30","5h3hfbp96bt7udo",784,"12.csv","","null","resources/images/coin2.png","null","",NA,NA,NA,NA,""
"image-keyboard-response",104,113187,"0.0-3.31-0.31","5h3hfbp96bt7udo",784,"12.csv","","233.30000007152557","resources/trios/L4T1A1.jpg","37","restless",0.8,0.8,0.6,0.568430994913631,"true"
"image-keyboard-response",105,113588,"0.0-3.31-1.31","5h3hfbp96bt7udo",784,"12.csv","","null","resources/maskTrios/L4BB.jpg","null","",NA,NA,NA,NA,""
"image-keyboard-response",106,114794,"0.0-3.31-2.31","5h3hfbp96bt7udo",784,"12.csv","","null","resources/images/coin2.png","null","",NA,NA,NA,NA,""
"image-keyboard-response",107,115078,"0.0-3.32-0.32","5h3hfbp96bt7udo",784,"12.csv","","282.60000002384186","resources/trios/L1T1A3.jpg","37","restless",0.8,0.8,0.7,0.717174223596901,"true"
"image-keyboard-response",108,115485,"0.0-3.32-1.32","5h3hfbp96bt7udo",784,"12.csv","","null","resources/maskTrios/L1BB.jpg","null","",NA,NA,NA,NA,""
"image-keyboard-response",109,116688,"0.0-3.32-2.32","5h3hfbp96bt7udo",784,"12.csv","","null","resources/images/coin2.png","null","",NA,NA,NA,NA,""
"image-keyboard-response",110,116814,"0.0-3.33-0.33","5h3hfbp96bt7udo",784,"12.csv","","122","resources/trios/L4T1A1.jpg","37","restless",0.8,0.8,0.7,0.463954477015787,"true"
"image-keyboard-response",111,117216,"0.0-3.33-1.33","5h3hfbp96bt7udo",784,"12.csv","","null","resources/maskTrios/L4BB.jpg","null","",NA,NA,NA,NA,""
"image-keyboard-response",112,118418,"0.0-3.33-2.33","5h3hfbp96bt7udo",784,"12.csv","","null","resources/images/coin2.png","null","",NA,NA,NA,NA,""
"image-keyboard-response",113,118429,"0.0-3.34-0.34","5h3hfbp96bt7udo",784,"12.csv","","8.900000095367432","resources/trios/L4T1A1.jpg","37","restless",0.8,0.8,0.6,0.298372005348386,"true"
"image-keyboard-response",114,118834,"0.0-3.34-1.34","5h3hfbp96bt7udo",784,"12.csv","","null","resources/maskTrios/L4BB.jpg","null","",NA,NA,NA,NA,""
"image-keyboard-response",115,120038,"0.0-3.34-2.34","5h3hfbp96bt7udo",784,"12.csv","","null","resources/images/coin2.png","null","",NA,NA,NA,NA,""
"image-keyboard-response",116,120284,"0.0-3.35-0.35","5h3hfbp96bt7udo",784,"12.csv","","244.5","resources/trios/L1T1A3.jpg","37","restless",0.8,0.8,0.6,0.989974136312639,"false"
"image-keyboard-response",117,120687,"0.0-3.35-1.35","5h3hfbp96bt7udo",784,"12.csv","","null","resources/maskTrios/L1BB.jpg","null","",NA,NA,NA,NA,""
"image-keyboard-response",118,121892,"0.0-3.35-2.35","5h3hfbp96bt7udo",784,"12.csv","","null","resources/images/fishbone.png","null","",NA,NA,NA,NA,""
"image-keyboard-response",119,121973,"0.0-3.36-0.36","5h3hfbp96bt7udo",784,"12.csv","","79.19999992847443","resources/trios/L1T2A1.jpg","38","restless",0.8,0.8,0.5,0.206017727565792,"true"
"image-keyboard-response",120,122377,"0.0-3.36-1.36","5h3hfbp96bt7udo",784,"12.csv","","null","resources/maskTrios/BT2B.jpg","null","",NA,NA,NA,NA,""
"image-keyboard-response",121,123583,"0.0-3.36-2.36","5h3hfbp96bt7udo",784,"12.csv","","null","resources/images/coin2.png","null","",NA,NA,NA,NA,""
"image-keyboard-response",122,123956,"0.0-3.37-0.37","5h3hfbp96bt7udo",784,"12.csv","","371.10000002384186","resources/trios/L1T1A3.jpg","38","restless",0.8,0.7,0.5,0.558136459399365,"true"
"image-keyboard-response",123,124357,"0.0-3.37-1.37","5h3hfbp96bt7udo",784,"12.csv","","null","resources/maskTrios/BT1B.jpg","null","",NA,NA,NA,NA,""
"image-keyboard-response",124,125561,"0.0-3.37-2.37","5h3hfbp96bt7udo",784,"12.csv","","null","resources/images/coin2.png","null","",NA,NA,NA,NA,""
"image-keyboard-response",125,125659,"0.0-3.38-0.38","5h3hfbp96bt7udo",784,"12.csv","","96.70000004768372","resources/trios/L1T1A3.jpg","38","restless",0.8,0.7,0.5,0.704893279948238,"false"
"image-keyboard-response",126,126060,"0.0-3.38-1.38","5h3hfbp96bt7udo",784,"12.csv","","null","resources/maskTrios/BT1B.jpg","null","",NA,NA,NA,NA,""
"image-keyboard-response",127,127267,"0.0-3.38-2.38","5h3hfbp96bt7udo",784,"12.csv","","null","resources/images/fishbone.png","null","",NA,NA,NA,NA,""
"image-keyboard-response",128,127680,"0.0-3.39-0.39","5h3hfbp96bt7udo",784,"12.csv","","411.39999997615814","resources/trios/L4T1A1.jpg","38","restless",0.8,0.7,0.5,0.758142175428137,"false"
"image-keyboard-response",129,128084,"0.0-3.39-1.39","5h3hfbp96bt7udo",784,"12.csv","","null","resources/maskTrios/BT1B.jpg","null","",NA,NA,NA,NA,""
"image-keyboard-response",130,129287,"0.0-3.39-2.39","5h3hfbp96bt7udo",784,"12.csv","","null","resources/images/fishbone.png","null","",NA,NA,NA,NA,""
"image-keyboard-response",131,129315,"0.0-3.40-0.40","5h3hfbp96bt7udo",784,"12.csv","","26.5","resources/trios/L1T1A3.jpg","39","restless",0.8,0.7,0.5,0.618302234132559,"false"
"image-keyboard-response",132,129721,"0.0-3.40-1.40","5h3hfbp96bt7udo",784,"12.csv","","null","resources/maskTrios/BBA3.jpg","null","",NA,NA,NA,NA,""
"image-keyboard-response",133,130928,"0.0-3.40-2.40","5h3hfbp96bt7udo",784,"12.csv","","null","resources/images/fishbone.png","null","",NA,NA,NA,NA,""
"image-keyboard-response",134,131228,"0.0-3.41-0.41","5h3hfbp96bt7udo",784,"12.csv","","298.39999997615814","resources/trios/L4T1A3.jpg","37","restless",0.8,0.7,0.4,0.533785790234203,"true"
"image-keyboard-response",135,131634,"0.0-3.41-1.41","5h3hfbp96bt7udo",784,"12.csv","","null","resources/maskTrios/L4BB.jpg","null","",NA,NA,NA,NA,""
"image-keyboard-response",136,132838,"0.0-3.41-2.41","5h3hfbp96bt7udo",784,"12.csv","","null","resources/images/coin2.png","null","",NA,NA,NA,NA,""
"image-keyboard-response",137,133225,"0.0-3.42-0.42","5h3hfbp96bt7udo",784,"12.csv","","385.1999999284744","resources/trios/L1T2A3.jpg","37","restless",0.8,0.7,0.4,0.880602059158806,"false"
"image-keyboard-response",138,133627,"0.0-3.42-1.42","5h3hfbp96bt7udo",784,"12.csv","","null","resources/maskTrios/L1BB.jpg","null","",NA,NA,NA,NA,""
"image-keyboard-response",139,134829,"0.0-3.42-2.42","5h3hfbp96bt7udo",784,"12.csv","","null","resources/images/fishbone.png","null","",NA,NA,NA,NA,""
"image-keyboard-response",140,134837,"0.0-3.43-0.43","5h3hfbp96bt7udo",784,"12.csv","","6.100000023841858","resources/trios/L4T1A1.jpg","38","restless",0.8,0.7,0.4,0.103603012599067,"true"
"image-keyboard-response",141,135240,"0.0-3.43-1.43","5h3hfbp96bt7udo",784,"12.csv","","null","resources/maskTrios/BT1B.jpg","null","",NA,NA,NA,NA,""
"image-keyboard-response",142,136443,"0.0-3.43-2.43","5h3hfbp96bt7udo",784,"12.csv","","null","resources/images/coin2.png","null","",NA,NA,NA,NA,""
"image-keyboard-response",143,136683,"0.0-3.44-0.44","5h3hfbp96bt7udo",784,"12.csv","","238.60000002384186","resources/trios/L1T2A1.jpg","38","restless",0.8,0.7,0.4,0.546330064207528,"true"
"image-keyboard-response",144,137086,"0.0-3.44-1.44","5h3hfbp96bt7udo",784,"12.csv","","null","resources/maskTrios/BT2B.jpg","null","",NA,NA,NA,NA,""
"image-keyboard-response",145,138288,"0.0-3.44-2.44","5h3hfbp96bt7udo",784,"12.csv","","null","resources/images/coin2.png","null","",NA,NA,NA,NA,""
"image-keyboard-response",146,138891,"0.0-3.45-0.45","5h3hfbp96bt7udo",784,"12.csv","","602.2999999523163","resources/trios/L1T1A3.jpg","38","restless",0.8,0.6,0.4,0.910260587348979,"false"
"image-keyboard-response",147,139294,"0.0-3.45-1.45","5h3hfbp96bt7udo",784,"12.csv","","null","resources/maskTrios/BT1B.jpg","null","",NA,NA,NA,NA,""
"image-keyboard-response",148,140498,"0.0-3.45-2.45","5h3hfbp96bt7udo",784,"12.csv","","null","resources/images/fishbone.png","null","",NA,NA,NA,NA,""
"image-keyboard-response",149,140572,"0.0-3.46-0.46","5h3hfbp96bt7udo",784,"12.csv","","72.89999997615814","resources/trios/L1T1A1.jpg","38","restless",0.8,0.6,0.4,0.685670870691475,"false"
"image-keyboard-response",150,140973,"0.0-3.46-1.46","5h3hfbp96bt7udo",784,"12.csv","","null","resources/maskTrios/BT1B.jpg","null","",NA,NA,NA,NA,""
"image-keyboard-response",151,142176,"0.0-3.46-2.46","5h3hfbp96bt7udo",784,"12.csv","","null","resources/images/fishbone.png","null","",NA,NA,NA,NA,""
"image-keyboard-response",152,142972,"0.0-3.47-0.47","5h3hfbp96bt7udo",784,"12.csv","","794.1000000238419","resources/trios/L1T1A1.jpg","39","restless",0.8,0.5,0.4,0.316692059051928,"true"
"image-keyboard-response",153,143375,"0.0-3.47-1.47","5h3hfbp96bt7udo",784,"12.csv","","null","resources/maskTrios/BBA1.jpg","null","",NA,NA,NA,NA,""
"image-keyboard-response",154,144577,"0.0-3.47-2.47","5h3hfbp96bt7udo",784,"12.csv","","null","resources/images/coin2.png","null","",NA,NA,NA,NA,""
"image-keyboard-response",155,144654,"0.0-3.48-0.48","5h3hfbp96bt7udo",784,"12.csv","","75.39999997615814","resources/trios/L4T1A3.jpg","39","restless",0.8,0.5,0.4,0.0448127406797705,"true"
"image-keyboard-response",156,145060,"0.0-3.48-1.48","5h3hfbp96bt7udo",784,"12.csv","","null","resources/maskTrios/BBA3.jpg","null","",NA,NA,NA,NA,""
"image-keyboard-response",157,146264,"0.0-3.48-2.48","5h3hfbp96bt7udo",784,"12.csv","","null","resources/images/coin2.png","null","",NA,NA,NA,NA,""
"image-keyboard-response",158,146331,"0.0-3.49-0.49","5h3hfbp96bt7udo",784,"12.csv","","65.30000007152557","resources/trios/L1T2A1.jpg","39","restless",0.8,0.6,0.4,0.854998824026841,"false"
"image-keyboard-response",159,146734,"0.0-3.49-1.49","5h3hfbp96bt7udo",784,"12.csv","","null","resources/maskTrios/BBA1.jpg","null","",NA,NA,NA,NA,""
"image-keyboard-response",160,147938,"0.0-3.49-2.49","5h3hfbp96bt7udo",784,"12.csv","","null","resources/images/fishbone.png","null","",NA,NA,NA,NA,""
"image-keyboard-response",161,147983,"0.0-3.50-0.50","5h3hfbp96bt7udo",784,"12.csv","","43.39999997615814","resources/trios/L1T2A3.jpg","39","restless",0.8,0.6,0.4,0.9158884558251,"false"
"image-keyboard-response",162,148385,"0.0-3.50-1.50","5h3hfbp96bt7udo",784,"12.csv","","null","resources/maskTrios/BBA3.jpg","null","",NA,NA,NA,NA,""
"image-keyboard-response",163,149588,"0.0-3.50-2.50","5h3hfbp96bt7udo",784,"12.csv","","null","resources/images/fishbone.png","null","",NA,NA,NA,NA,""
"image-keyboard-response",164,149706,"0.0-3.51-0.51","5h3hfbp96bt7udo",784,"12.csv","","116.09999990463257","resources/trios/L1T1A1.jpg","39","restless",0.8,0.5,0.4,0.464390868253673,"false"
"image-keyboard-response",165,150108,"0.0-3.51-1.51","5h3hfbp96bt7udo",784,"12.csv","","null","resources/maskTrios/BBA1.jpg","null","",NA,NA,NA,NA,""
"image-keyboard-response",166,151313,"0.0-3.51-2.51","5h3hfbp96bt7udo",784,"12.csv","","null","resources/images/fishbone.png","null","",NA,NA,NA,NA,""
"image-keyboard-response",167,151375,"0.0-3.52-0.52","5h3hfbp96bt7udo",784,"12.csv","","60.60000002384186","resources/trios/L1T2A1.jpg","39","restless",0.8,0.5,0.4,0.195438441863651,"true"
"image-keyboard-response",168,151782,"0.0-3.52-1.52","5h3hfbp96bt7udo",784,"12.csv","","null","resources/maskTrios/BBA1.jpg","null","",NA,NA,NA,NA,""
"image-keyboard-response",169,152985,"0.0-3.52-2.52","5h3hfbp96bt7udo",784,"12.csv","","null","resources/images/coin2.png","null","",NA,NA,NA,NA,""
"image-keyboard-response",170,153335,"0.0-3.53-0.53","5h3hfbp96bt7udo",784,"12.csv","","348.7999999523163","resources/trios/L4T1A3.jpg","39","restless",0.8,0.5,0.4,0.551067886976961,"false"
"image-keyboard-response",171,153742,"0.0-3.53-1.53","5h3hfbp96bt7udo",784,"12.csv","","null","resources/maskTrios/BBA3.jpg","null","",NA,NA,NA,NA,""
"image-keyboard-response",172,154945,"0.0-3.53-2.53","5h3hfbp96bt7udo",784,"12.csv","","null","resources/images/fishbone.png","null","",NA,NA,NA,NA,""
"image-keyboard-response",173,154977,"0.0-3.54-0.54","5h3hfbp96bt7udo",784,"12.csv","","30.800000071525574","resources/trios/L4T1A3.jpg","39","restless",0.8,0.5,0.4,0.511706801028572,"false"
"image-keyboard-response",174,155383,"0.0-3.54-1.54","5h3hfbp96bt7udo",784,"12.csv","","null","resources/maskTrios/BBA3.jpg","null","",NA,NA,NA,NA,""
"image-keyboard-response",175,156586,"0.0-3.54-2.54","5h3hfbp96bt7udo",784,"12.csv","","null","resources/images/fishbone.png","null","",NA,NA,NA,NA,""
"image-keyboard-response",176,156618,"0.0-3.55-0.55","5h3hfbp96bt7udo",784,"12.csv","","30.299999952316284","resources/trios/L1T2A1.jpg","38","restless",0.8,0.5,0.4,0.0989259136781331,"true"
"image-keyboard-response",177,157025,"0.0-3.55-1.55","5h3hfbp96bt7udo",784,"12.csv","","null","resources/maskTrios/BT2B.jpg","null","",NA,NA,NA,NA,""
"image-keyboard-response",178,158231,"0.0-3.55-2.55","5h3hfbp96bt7udo",784,"12.csv","","null","resources/images/coin2.png","null","",NA,NA,NA,NA,""
"image-keyboard-response",179,158278,"0.0-3.56-0.56","5h3hfbp96bt7udo",784,"12.csv","","45.09999990463257","resources/trios/L1T1A1.jpg","38","restless",0.8,0.6,0.4,0.96586436659146,"false"
"image-keyboard-response",180,158685,"0.0-3.56-1.56","5h3hfbp96bt7udo",784,"12.csv","","null","resources/maskTrios/BT1B.jpg","null","",NA,NA,NA,NA,""
"image-keyboard-response",181,159888,"0.0-3.56-2.56","5h3hfbp96bt7udo",784,"12.csv","","null","resources/images/fishbone.png","null","",NA,NA,NA,NA,""
"image-keyboard-response",182,160529,"0.0-3.57-0.57","5h3hfbp96bt7udo",784,"12.csv","","639.6000000238419","resources/trios/L1T2A3.jpg","37","restless",0.8,0.6,0.4,0.270357334485714,"true"
"image-keyboard-response",183,160933,"0.0-3.57-1.57","5h3hfbp96bt7udo",784,"12.csv","","null","resources/maskTrios/L1BB.jpg","null","",NA,NA,NA,NA,""
"image-keyboard-response",184,162137,"0.0-3.57-2.57","5h3hfbp96bt7udo",784,"12.csv","","null","resources/images/coin2.png","null","",NA,NA,NA,NA,""
"image-keyboard-response",185,183105,"0.0-3.58-0.58","5h3hfbp96bt7udo",784,"12.csv","","20965.800000071526","resources/trios/L1T1A1.jpg","39","restless",0.8,0.7,0.4,0.912587497061706,"false"
"image-keyboard-response",186,183508,"0.0-3.58-1.58","5h3hfbp96bt7udo",784,"12.csv","","null","resources/maskTrios/BBA1.jpg","null","",NA,NA,NA,NA,""
"image-keyboard-response",187,184709,"0.0-3.58-2.58","5h3hfbp96bt7udo",784,"12.csv","","null","resources/images/fishbone.png","null","",NA,NA,NA,NA,""
"image-keyboard-response",188,185033,"0.0-3.59-0.59","5h3hfbp96bt7udo",784,"12.csv","","322","resources/trios/L4T2A1.jpg","39","restless",0.8,0.6,0.4,0.218484699720641,"true"
"image-keyboard-response",189,185439,"0.0-3.59-1.59","5h3hfbp96bt7udo",784,"12.csv","","null","resources/maskTrios/BBA1.jpg","null","",NA,NA,NA,NA,""
"image-keyboard-response",190,186641,"0.0-3.59-2.59","5h3hfbp96bt7udo",784,"12.csv","","null","resources/images/coin2.png","null","",NA,NA,NA,NA,""
"image-keyboard-response",191,186967,"0.0-3.60-0.60","5h3hfbp96bt7udo",784,"12.csv","","324.09999990463257","resources/trios/L4T1A3.jpg","38","restless",0.8,0.5,0.4,0.134065485263266,"true"
"image-keyboard-response",192,187375,"0.0-3.60-1.60","5h3hfbp96bt7udo",784,"12.csv","","null","resources/maskTrios/BT1B.jpg","null","",NA,NA,NA,NA,""
"image-keyboard-response",193,188578,"0.0-3.60-2.60","5h3hfbp96bt7udo",784,"12.csv","","null","resources/images/coin2.png","null","",NA,NA,NA,NA,""
"image-keyboard-response",194,188622,"0.0-3.61-0.61","5h3hfbp96bt7udo",784,"12.csv","","41.799999952316284","resources/trios/L1T1A1.jpg","38","restless",0.7,0.5,0.4,0.768269372144453,"false"
"image-keyboard-response",195,189024,"0.0-3.61-1.61","5h3hfbp96bt7udo",784,"12.csv","","null","resources/maskTrios/BT1B.jpg","null","",NA,NA,NA,NA,""
"image-keyboard-response",196,190226,"0.0-3.61-2.61","5h3hfbp96bt7udo",784,"12.csv","","null","resources/images/fishbone.png","null","",NA,NA,NA,NA,""
"image-keyboard-response",197,190305,"0.0-3.62-0.62","5h3hfbp96bt7udo",784,"12.csv","","78","resources/trios/L4T2A1.jpg","37","restless",0.7,0.5,0.4,0.832032399865869,"false"
"image-keyboard-response",198,190708,"0.0-3.62-1.62","5h3hfbp96bt7udo",784,"12.csv","","null","resources/maskTrios/L4BB.jpg","null","",NA,NA,NA,NA,""
"image-keyboard-response",199,191914,"0.0-3.62-2.62","5h3hfbp96bt7udo",784,"12.csv","","null","resources/images/fishbone.png","null","",NA,NA,NA,NA,""
"image-keyboard-response",200,192122,"0.0-3.63-0.63","5h3hfbp96bt7udo",784,"12.csv","","206.29999995231628","resources/trios/L4T2A1.jpg","38","restless",0.7,0.5,0.4,0.712372155492246,"false"
"image-keyboard-response",201,192529,"0.0-3.63-1.63","5h3hfbp96bt7udo",784,"12.csv","","null","resources/maskTrios/BT2B.jpg","null","",NA,NA,NA,NA,""
"image-keyboard-response",202,193730,"0.0-3.63-2.63","5h3hfbp96bt7udo",784,"12.csv","","null","resources/images/fishbone.png","null","",NA,NA,NA,NA,""
"image-keyboard-response",203,193893,"0.0-3.64-0.64","5h3hfbp96bt7udo",784,"12.csv","","160.60000002384186","resources/trios/L1T1A1.jpg","37","restless",0.7,0.5,0.4,0.972449448923572,"false"
"image-keyboard-response",204,194299,"0.0-3.64-1.64","5h3hfbp96bt7udo",784,"12.csv","","null","resources/maskTrios/L1BB.jpg","null","",NA,NA,NA,NA,""
"image-keyboard-response",205,195501,"0.0-3.64-2.64","5h3hfbp96bt7udo",784,"12.csv","","null","resources/images/fishbone.png","null","",NA,NA,NA,NA,""
"image-keyboard-response",206,195505,"0.0-3.65-0.65","5h3hfbp96bt7udo",784,"12.csv","","2.5","resources/trios/L1T2A1.jpg","39","restless",0.7,0.5,0.4,0.246192211134191,"true"
"image-keyboard-response",207,195907,"0.0-3.65-1.65","5h3hfbp96bt7udo",784,"12.csv","","null","resources/maskTrios/BBA1.jpg","null","",NA,NA,NA,NA,""
"image-keyboard-response",208,197111,"0.0-3.65-2.65","5h3hfbp96bt7udo",784,"12.csv","","null","resources/images/coin2.png","null","",NA,NA,NA,NA,""
"image-keyboard-response",209,197207,"0.0-3.66-0.66","5h3hfbp96bt7udo",784,"12.csv","","94.89999997615814","resources/trios/L4T1A1.jpg","39","restless",0.7,0.5,0.4,0.923402691671144,"false"
"image-keyboard-response",210,197609,"0.0-3.66-1.66","5h3hfbp96bt7udo",784,"12.csv","","null","resources/maskTrios/BBA1.jpg","null","",NA,NA,NA,NA,""
"image-keyboard-response",211,198813,"0.0-3.66-2.66","5h3hfbp96bt7udo",784,"12.csv","","null","resources/images/fishbone.png","null","",NA,NA,NA,NA,""
"image-keyboard-response",212,198859,"0.0-3.67-0.67","5h3hfbp96bt7udo",784,"12.csv","","44.300000071525574","resources/trios/L4T2A3.jpg","37","restless",0.7,0.5,0.4,0.0261152348265428,"true"
"image-keyboard-response",213,199260,"0.0-3.67-1.67","5h3hfbp96bt7udo",784,"12.csv","","null","resources/maskTrios/L4BB.jpg","null","",NA,NA,NA,NA,""
"image-keyboard-response",214,200463,"0.0-3.67-2.67","5h3hfbp96bt7udo",784,"12.csv","","null","resources/images/coin2.png","null","",NA,NA,NA,NA,""
"image-keyboard-response",215,200480,"0.0-3.68-0.68","5h3hfbp96bt7udo",784,"12.csv","","16.09999990463257","resources/trios/L1T1A3.jpg","39","restless",0.7,0.5,0.4,0.377221492764398,"true"
"image-keyboard-response",216,200883,"0.0-3.68-1.68","5h3hfbp96bt7udo",784,"12.csv","","null","resources/maskTrios/BBA3.jpg","null","",NA,NA,NA,NA,""
"image-keyboard-response",217,202085,"0.0-3.68-2.68","5h3hfbp96bt7udo",784,"12.csv","","null","resources/images/coin2.png","null","",NA,NA,NA,NA,""
"image-keyboard-response",218,202093,"0.0-3.69-0.69","5h3hfbp96bt7udo",784,"12.csv","","6.599999904632568","resources/trios/L4T1A3.jpg","39","restless",0.7,0.5,0.4,0.53229537545953,"false"
"image-keyboard-response",219,202495,"0.0-3.69-1.69","5h3hfbp96bt7udo",784,"12.csv","","null","resources/maskTrios/BBA3.jpg","null","",NA,NA,NA,NA,""
"image-keyboard-response",220,203697,"0.0-3.69-2.69","5h3hfbp96bt7udo",784,"12.csv","","null","resources/images/fishbone.png","null","",NA,NA,NA,NA,""
"image-keyboard-response",221,203791,"0.0-3.70-0.70","5h3hfbp96bt7udo",784,"12.csv","","92.59999990463257","resources/trios/L1T1A3.jpg","39","restless",0.7,0.5,0.4,0.408545333203521,"false"
"image-keyboard-response",222,204196,"0.0-3.70-1.70","5h3hfbp96bt7udo",784,"12.csv","","null","resources/maskTrios/BBA3.jpg","null","",NA,NA,NA,NA,""
"image-keyboard-response",223,205400,"0.0-3.70-2.70","5h3hfbp96bt7udo",784,"12.csv","","null","resources/images/fishbone.png","null","",NA,NA,NA,NA,""
"image-keyboard-response",224,205572,"0.0-3.71-0.71","5h3hfbp96bt7udo",784,"12.csv","","170.69999992847443","resources/trios/L1T1A3.jpg","38","restless",0.7,0.5,0.4,0.0179015610678963,"true"
"image-keyboard-response",225,205975,"0.0-3.71-1.71","5h3hfbp96bt7udo",784,"12.csv","","null","resources/maskTrios/BT1B.jpg","null","",NA,NA,NA,NA,""
"image-keyboard-response",226,207177,"0.0-3.71-2.71","5h3hfbp96bt7udo",784,"12.csv","","null","resources/images/coin2.png","null","",NA,NA,NA,NA,""
"image-keyboard-response",227,207302,"0.0-3.72-0.72","5h3hfbp96bt7udo",784,"12.csv","","123.89999997615814","resources/trios/L4T1A1.jpg","38","restless",0.7,0.5,0.4,0.427315421968672,"true"
"image-keyboard-response",228,207706,"0.0-3.72-1.72","5h3hfbp96bt7udo",784,"12.csv","","null","resources/maskTrios/BT1B.jpg","null","",NA,NA,NA,NA,""
"image-keyboard-response",229,208908,"0.0-3.72-2.72","5h3hfbp96bt7udo",784,"12.csv","","null","resources/images/coin2.png","null","",NA,NA,NA,NA,""
"image-keyboard-response",230,208985,"0.0-3.73-0.73","5h3hfbp96bt7udo",784,"12.csv","","75.80000007152557","resources/trios/L4T2A1.jpg","38","restless",0.7,0.4,0.4,0.0367690086764025,"true"
"image-keyboard-response",231,209388,"0.0-3.73-1.73","5h3hfbp96bt7udo",784,"12.csv","","null","resources/maskTrios/BT2B.jpg","null","",NA,NA,NA,NA,""
"image-keyboard-response",232,210590,"0.0-3.73-2.73","5h3hfbp96bt7udo",784,"12.csv","","null","resources/images/coin2.png","null","",NA,NA,NA,NA,""
"image-keyboard-response",233,210758,"0.0-3.74-0.74","5h3hfbp96bt7udo",784,"12.csv","","166.09999990463257","resources/trios/L1T2A3.jpg","38","restless",0.6,0.4,0.4,0.0341321286669012,"true"
"image-keyboard-response",234,211164,"0.0-3.74-1.74","5h3hfbp96bt7udo",784,"12.csv","","null","resources/maskTrios/BT2B.jpg","null","",NA,NA,NA,NA,""
"image-keyboard-response",235,212366,"0.0-3.74-2.74","5h3hfbp96bt7udo",784,"12.csv","","null","resources/images/coin2.png","null","",NA,NA,NA,NA,""
"image-keyboard-response",236,212469,"0.0-3.75-0.75","5h3hfbp96bt7udo",784,"12.csv","","100.60000002384186","resources/trios/L4T2A3.jpg","38","restless",0.6,0.4,0.4,0.390556567250016,"true"
"image-keyboard-response",237,212873,"0.0-3.75-1.75","5h3hfbp96bt7udo",784,"12.csv","","null","resources/maskTrios/BT2B.jpg","null","",NA,NA,NA,NA,""
"image-keyboard-response",238,214077,"0.0-3.75-2.75","5h3hfbp96bt7udo",784,"12.csv","","null","resources/images/coin2.png","null","",NA,NA,NA,NA,""
"image-keyboard-response",239,214224,"0.0-3.76-0.76","5h3hfbp96bt7udo",784,"12.csv","","145","resources/trios/L4T2A1.jpg","38","restless",0.6,0.4,0.4,0.716003828482506,"false"
"image-keyboard-response",240,214630,"0.0-3.76-1.76","5h3hfbp96bt7udo",784,"12.csv","","null","resources/maskTrios/BT2B.jpg","null","",NA,NA,NA,NA,""
"image-keyboard-response",241,215835,"0.0-3.76-2.76","5h3hfbp96bt7udo",784,"12.csv","","null","resources/images/fishbone.png","null","",NA,NA,NA,NA,""
"image-keyboard-response",242,215922,"0.0-3.77-0.77","5h3hfbp96bt7udo",784,"12.csv","","85","resources/trios/L4T2A3.jpg","37","restless",0.7,0.4,0.4,0.467456855229747,"true"
"image-keyboard-response",243,216325,"0.0-3.77-1.77","5h3hfbp96bt7udo",784,"12.csv","","null","resources/maskTrios/L4BB.jpg","null","",NA,NA,NA,NA,""
"image-keyboard-response",244,217530,"0.0-3.77-2.77","5h3hfbp96bt7udo",784,"12.csv","","null","resources/images/coin2.png","null","",NA,NA,NA,NA,""
"image-keyboard-response",245,217734,"0.0-3.78-0.78","5h3hfbp96bt7udo",784,"12.csv","","202.19999992847443","resources/trios/L1T1A3.jpg","37","restless",0.7,0.4,0.4,0.93236838192351,"false"
"image-keyboard-response",246,218140,"0.0-3.78-1.78","5h3hfbp96bt7udo",784,"12.csv","","null","resources/maskTrios/L1BB.jpg","null","",NA,NA,NA,NA,""
"image-keyboard-response",247,219344,"0.0-3.78-2.78","5h3hfbp96bt7udo",784,"12.csv","","null","resources/images/fishbone.png","null","",NA,NA,NA,NA,""
"image-keyboard-response",248,219347,"0.0-3.79-0.79","5h3hfbp96bt7udo",784,"12.csv","","2","resources/trios/L1T2A1.jpg","39","restless",0.7,0.4,0.4,0.226221787397784,"true"
"image-keyboard-response",249,219753,"0.0-3.79-1.79","5h3hfbp96bt7udo",784,"12.csv","","null","resources/maskTrios/BBA1.jpg","null","",NA,NA,NA,NA,""
"image-keyboard-response",250,220956,"0.0-3.79-2.79","5h3hfbp96bt7udo",784,"12.csv","","null","resources/images/coin2.png","null","",NA,NA,NA,NA,""
"image-keyboard-response",251,221097,"0.0-3.80-0.80","5h3hfbp96bt7udo",784,"12.csv","","139.29999995231628","resources/trios/L4T2A3.jpg","39","restless",0.7,0.4,0.4,0.78107124435284,"false"
"image-keyboard-response",252,221504,"0.0-3.80-1.80","5h3hfbp96bt7udo",784,"12.csv","","null","resources/maskTrios/BBA3.jpg","null","",NA,NA,NA,NA,""
"image-keyboard-response",253,222706,"0.0-3.80-2.80","5h3hfbp96bt7udo",784,"12.csv","","null","resources/images/fishbone.png","null","",NA,NA,NA,NA,""
"image-keyboard-response",254,222806,"0.0-3.81-0.81","5h3hfbp96bt7udo",784,"12.csv","","98.10000002384186","resources/trios/L4T1A3.jpg","38","restless",0.7,0.4,0.4,0.511686151428664,"false"
"image-keyboard-response",255,223212,"0.0-3.81-1.81","5h3hfbp96bt7udo",784,"12.csv","","null","resources/maskTrios/BT1B.jpg","null","",NA,NA,NA,NA,""
"image-keyboard-response",256,224416,"0.0-3.81-2.81","5h3hfbp96bt7udo",784,"12.csv","","null","resources/images/fishbone.png","null","",NA,NA,NA,NA,""
"image-keyboard-response",257,225062,"0.0-3.82-0.82","5h3hfbp96bt7udo",784,"12.csv","","644.1999999284744","resources/trios/L1T1A3.jpg","37","restless",0.7,0.4,0.4,0.905417697829072,"false"
"image-keyboard-response",258,225464,"0.0-3.82-1.82","5h3hfbp96bt7udo",784,"12.csv","","null","resources/maskTrios/L1BB.jpg","null","",NA,NA,NA,NA,""
"image-keyboard-response",259,226670,"0.0-3.82-2.82","5h3hfbp96bt7udo",784,"12.csv","","null","resources/images/fishbone.png","null","",NA,NA,NA,NA,""
"image-keyboard-response",260,226796,"0.0-3.83-0.83","5h3hfbp96bt7udo",784,"12.csv","","124.19999992847443","resources/trios/L4T2A1.jpg","39","restless",0.7,0.4,0.4,0.127974323795023,"true"
"image-keyboard-response",261,227202,"0.0-3.83-1.83","5h3hfbp96bt7udo",784,"12.csv","","null","resources/maskTrios/BBA1.jpg","null","",NA,NA,NA,NA,""
"image-keyboard-response",262,228406,"0.0-3.83-2.83","5h3hfbp96bt7udo",784,"12.csv","","null","resources/images/coin2.png","null","",NA,NA,NA,NA,""
"image-keyboard-response",263,229059,"0.0-3.84-0.84","5h3hfbp96bt7udo",784,"12.csv","","651.2000000476837","resources/trios/L1T2A3.jpg","38","restless",0.7,0.4,0.4,0.679582930736058,"false"
"image-keyboard-response",264,229461,"0.0-3.84-1.84","5h3hfbp96bt7udo",784,"12.csv","","null","resources/maskTrios/BT2B.jpg","null","",NA,NA,NA,NA,""
"image-keyboard-response",265,230663,"0.0-3.84-2.84","5h3hfbp96bt7udo",784,"12.csv","","null","resources/images/fishbone.png","null","",NA,NA,NA,NA,""
"image-keyboard-response",266,230716,"0.0-3.85-0.85","5h3hfbp96bt7udo",784,"12.csv","","51.59999990463257","resources/trios/L1T1A3.jpg","39","restless",0.7,0.4,0.4,0.708807629569758,"false"
"image-keyboard-response",267,231122,"0.0-3.85-1.85","5h3hfbp96bt7udo",784,"12.csv","","null","resources/maskTrios/BBA3.jpg","null","",NA,NA,NA,NA,""
"image-keyboard-response",268,232326,"0.0-3.85-2.85","5h3hfbp96bt7udo",784,"12.csv","","null","resources/images/fishbone.png","null","",NA,NA,NA,NA,""
"image-keyboard-response",269,234092,"0.0-3.86-0.86","5h3hfbp96bt7udo",784,"12.csv","","1764.7999999523163","resources/trios/L1T2A1.jpg","37","restless",0.7,0.4,0.5,0.953624780879042,"false"
"image-keyboard-response",270,234498,"0.0-3.86-1.86","5h3hfbp96bt7udo",784,"12.csv","","null","resources/maskTrios/L1BB.jpg","null","",NA,NA,NA,NA,""
"image-keyboard-response",271,235701,"0.0-3.86-2.86","5h3hfbp96bt7udo",784,"12.csv","","null","resources/images/fishbone.png","null","",NA,NA,NA,NA,""
"image-keyboard-response",272,235708,"0.0-3.87-0.87","5h3hfbp96bt7udo",784,"12.csv","","5.5","resources/trios/L1T2A1.jpg","38","restless",0.7,0.4,0.5,0.930773997403447,"false"
"image-keyboard-response",273,236111,"0.0-3.87-1.87","5h3hfbp96bt7udo",784,"12.csv","","null","resources/maskTrios/BT2B.jpg","null","",NA,NA,NA,NA,""
"image-keyboard-response",274,237318,"0.0-3.87-2.87","5h3hfbp96bt7udo",784,"12.csv","","null","resources/images/fishbone.png","null","",NA,NA,NA,NA,""
"image-keyboard-response",275,237644,"0.0-3.88-0.88","5h3hfbp96bt7udo",784,"12.csv","","325.2999999523163","resources/trios/L1T1A3.jpg","39","restless",0.7,0.5,0.5,0.425973753042349,"true"
"image-keyboard-response",276,238050,"0.0-3.88-1.88","5h3hfbp96bt7udo",784,"12.csv","","null","resources/maskTrios/BBA3.jpg","null","",NA,NA,NA,NA,""
"image-keyboard-response",277,239256,"0.0-3.88-2.88","5h3hfbp96bt7udo",784,"12.csv","","null","resources/images/coin2.png","null","",NA,NA,NA,NA,""
"image-keyboard-response",278,239797,"0.0-3.89-0.89","5h3hfbp96bt7udo",784,"12.csv","","540.2999999523163","resources/trios/L4T2A1.jpg","38","restless",0.7,0.5,0.5,0.375252094500947,"true"
"image-keyboard-response",279,240199,"0.0-3.89-1.89","5h3hfbp96bt7udo",784,"12.csv","","null","resources/maskTrios/BT2B.jpg","null","",NA,NA,NA,NA,""
"image-keyboard-response",280,241405,"0.0-3.89-2.89","5h3hfbp96bt7udo",784,"12.csv","","null","resources/images/coin2.png","null","",NA,NA,NA,NA,""
"image-keyboard-response",281,241611,"0.0-3.90-0.90","5h3hfbp96bt7udo",784,"12.csv","","204.70000004768372","resources/trios/L1T1A3.jpg","38","restless",0.7,0.5,0.5,0.360364723753458,"true"
"image-keyboard-response",282,242018,"0.0-3.90-1.90","5h3hfbp96bt7udo",784,"12.csv","","null","resources/maskTrios/BT1B.jpg","null","",NA,NA,NA,NA,""
"image-keyboard-response",283,243221,"0.0-3.90-2.90","5h3hfbp96bt7udo",784,"12.csv","","null","resources/images/coin2.png","null","",NA,NA,NA,NA,""
"image-keyboard-response",284,243292,"0.0-3.91-0.91","5h3hfbp96bt7udo",784,"12.csv","","69.69999992847443","resources/trios/L1T2A3.jpg","38","restless",0.7,0.5,0.5,0.909199193909793,"false"
"image-keyboard-response",285,243697,"0.0-3.91-1.91","5h3hfbp96bt7udo",784,"12.csv","","null","resources/maskTrios/BT2B.jpg","null","",NA,NA,NA,NA,""
"image-keyboard-response",286,244900,"0.0-3.91-2.91","5h3hfbp96bt7udo",784,"12.csv","","null","resources/images/fishbone.png","null","",NA,NA,NA,NA,""
"image-keyboard-response",287,245254,"0.0-3.92-0.92","5h3hfbp96bt7udo",784,"12.csv","","352.89999997615814","resources/trios/L1T1A1.jpg","37","restless",0.7,0.5,0.5,0.51408970701128,"true"
"image-keyboard-response",288,245657,"0.0-3.92-1.92","5h3hfbp96bt7udo",784,"12.csv","","null","resources/maskTrios/L1BB.jpg","null","",NA,NA,NA,NA,""
"image-keyboard-response",289,246863,"0.0-3.92-2.92","5h3hfbp96bt7udo",784,"12.csv","","null","resources/images/coin2.png","null","",NA,NA,NA,NA,""
"image-keyboard-response",290,246881,"0.0-3.93-0.93","5h3hfbp96bt7udo",784,"12.csv","","17.09999990463257","resources/trios/L4T1A3.jpg","39","restless",0.7,0.5,0.5,0.54633591770419,"false"
"image-keyboard-response",291,247288,"0.0-3.93-1.93","5h3hfbp96bt7udo",784,"12.csv","","null","resources/maskTrios/BBA3.jpg","null","",NA,NA,NA,NA,""
"image-keyboard-response",292,248489,"0.0-3.93-2.93","5h3hfbp96bt7udo",784,"12.csv","","null","resources/images/fishbone.png","null","",NA,NA,NA,NA,""
"image-keyboard-response",293,248578,"0.0-3.94-0.94","5h3hfbp96bt7udo",784,"12.csv","","87.5","resources/trios/L4T1A1.jpg","38","restless",0.7,0.5,0.5,0.188339634678588,"true"
"image-keyboard-response",294,248982,"0.0-3.94-1.94","5h3hfbp96bt7udo",784,"12.csv","","null","resources/maskTrios/BT1B.jpg","null","",NA,NA,NA,NA,""
"image-keyboard-response",295,250187,"0.0-3.94-2.94","5h3hfbp96bt7udo",784,"12.csv","","null","resources/images/coin2.png","null","",NA,NA,NA,NA,""
"image-keyboard-response",296,250208,"0.0-3.95-0.95","5h3hfbp96bt7udo",784,"12.csv","","19.300000071525574","resources/trios/L4T2A3.jpg","38","restless",0.7,0.5,0.5,0.804338264658706,"false"
"image-keyboard-response",297,250609,"0.0-3.95-1.95","5h3hfbp96bt7udo",784,"12.csv","","null","resources/maskTrios/BT2B.jpg","null","",NA,NA,NA,NA,""
"image-keyboard-response",298,251815,"0.0-3.95-2.95","5h3hfbp96bt7udo",784,"12.csv","","null","resources/images/fishbone.png","null","",NA,NA,NA,NA,""
"image-keyboard-response",299,252143,"0.0-3.96-0.96","5h3hfbp96bt7udo",784,"12.csv","","326.2999999523163","resources/trios/L1T1A1.jpg","37","restless",0.7,0.5,0.5,0.157857009100293,"true"
"image-keyboard-response",300,252549,"0.0-3.96-1.96","5h3hfbp96bt7udo",784,"12.csv","","null","resources/maskTrios/L1BB.jpg","null","",NA,NA,NA,NA,""
"image-keyboard-response",301,253755,"0.0-3.96-2.96","5h3hfbp96bt7udo",784,"12.csv","","null","resources/images/coin2.png","null","",NA,NA,NA,NA,""
"image-keyboard-response",302,253854,"0.0-3.97-0.97","5h3hfbp96bt7udo",784,"12.csv","","97.90000009536743","resources/trios/L4T1A3.jpg","39","restless",0.7,0.5,0.5,0.782923726336816,"false"
"image-keyboard-response",303,254256,"0.0-3.97-1.97","5h3hfbp96bt7udo",784,"12.csv","","null","resources/maskTrios/BBA3.jpg","null","",NA,NA,NA,NA,""
"image-keyboard-response",304,255462,"0.0-3.97-2.97","5h3hfbp96bt7udo",784,"12.csv","","null","resources/images/fishbone.png","null","",NA,NA,NA,NA,""
"image-keyboard-response",305,255491,"0.0-3.98-0.98","5h3hfbp96bt7udo",784,"12.csv","","27.100000023841858","resources/trios/L1T1A1.jpg","38","restless",0.7,0.5,0.5,0.0175476837166286,"true"
"image-keyboard-response",306,255894,"0.0-3.98-1.98","5h3hfbp96bt7udo",784,"12.csv","","null","resources/maskTrios/BT1B.jpg","null","",NA,NA,NA,NA,""
"image-keyboard-response",307,257096,"0.0-3.98-2.98","5h3hfbp96bt7udo",784,"12.csv","","null","resources/images/coin2.png","null","",NA,NA,NA,NA,""
"image-keyboard-response",308,257165,"0.0-3.99-0.99","5h3hfbp96bt7udo",784,"12.csv","","67.29999995231628","resources/trios/L1T2A3.jpg","37","restless",0.7,0.5,0.5,0.787492612619463,"false"
"image-keyboard-response",309,257570,"0.0-3.99-1.99","5h3hfbp96bt7udo",784,"12.csv","","null","resources/maskTrios/L1BB.jpg","null","",NA,NA,NA,NA,""
"image-keyboard-response",310,258774,"0.0-3.99-2.99","5h3hfbp96bt7udo",784,"12.csv","","null","resources/images/fishbone.png","null","",NA,NA,NA,NA,""
"image-keyboard-response",311,258811,"0.0-3.100-0.100","5h3hfbp96bt7udo",784,"12.csv","","35.699999928474426","resources/trios/L4T1A1.jpg","38","restless",0.7,0.5,0.5,0.721511194282181,"false"
"image-keyboard-response",312,259217,"0.0-3.100-1.100","5h3hfbp96bt7udo",784,"12.csv","","null","resources/maskTrios/BT1B.jpg","null","",NA,NA,NA,NA,""
"image-keyboard-response",313,260419,"0.0-3.100-2.100","5h3hfbp96bt7udo",784,"12.csv","","null","resources/images/fishbone.png","null","",NA,NA,NA,NA,""
"image-keyboard-response",314,260550,"0.0-3.101-0.101","5h3hfbp96bt7udo",784,"12.csv","","130.70000004768372","resources/trios/L1T2A3.jpg","39","restless",0.7,0.5,0.5,0.288661227700527,"true"
"image-keyboard-response",315,260954,"0.0-3.101-1.101","5h3hfbp96bt7udo",784,"12.csv","","null","resources/maskTrios/BBA3.jpg","null","",NA,NA,NA,NA,""
"image-keyboard-response",316,262156,"0.0-3.101-2.101","5h3hfbp96bt7udo",784,"12.csv","","null","resources/images/coin2.png","null","",NA,NA,NA,NA,""
"image-keyboard-response",317,262162,"0.0-3.102-0.102","5h3hfbp96bt7udo",784,"12.csv","","4.5","resources/trios/L4T1A3.jpg","37","restless",0.7,0.5,0.5,0.567311178925055,"true"
"image-keyboard-response",318,262564,"0.0-3.102-1.102","5h3hfbp96bt7udo",784,"12.csv","","null","resources/maskTrios/L4BB.jpg","null","",NA,NA,NA,NA,""
"image-keyboard-response",319,263770,"0.0-3.102-2.102","5h3hfbp96bt7udo",784,"12.csv","","null","resources/images/coin2.png","null","",NA,NA,NA,NA,""
"image-keyboard-response",320,263841,"0.0-3.103-0.103","5h3hfbp96bt7udo",784,"12.csv","","70.10000002384186","resources/trios/L4T2A1.jpg","37","restless",0.7,0.5,0.5,0.127435339671391,"true"
"image-keyboard-response",321,264243,"0.0-3.103-1.103","5h3hfbp96bt7udo",784,"12.csv","","null","resources/maskTrios/L4BB.jpg","null","",NA,NA,NA,NA,""
"image-keyboard-response",322,265446,"0.0-3.103-2.103","5h3hfbp96bt7udo",784,"12.csv","","null","resources/images/coin2.png","null","",NA,NA,NA,NA,""
"image-keyboard-response",323,265455,"0.0-3.104-0.104","5h3hfbp96bt7udo",784,"12.csv","","6.799999952316284","resources/trios/L1T2A3.jpg","39","restless",0.7,0.5,0.6,0.986416675614127,"false"
"image-keyboard-response",324,265862,"0.0-3.104-1.104","5h3hfbp96bt7udo",784,"12.csv","","null","resources/maskTrios/BBA3.jpg","null","",NA,NA,NA,NA,""
"image-keyboard-response",325,267064,"0.0-3.104-2.104","5h3hfbp96bt7udo",784,"12.csv","","null","resources/images/fishbone.png","null","",NA,NA,NA,NA,""
"image-keyboard-response",326,267199,"0.0-3.105-0.105","5h3hfbp96bt7udo",784,"12.csv","","134.59999990463257","resources/trios/L4T2A1.jpg","39","restless",0.7,0.5,0.6,0.443426752734297,"true"
"image-keyboard-response",327,267605,"0.0-3.105-1.105","5h3hfbp96bt7udo",784,"12.csv","","null","resources/maskTrios/BBA1.jpg","null","",NA,NA,NA,NA,""
"image-keyboard-response",328,268809,"0.0-3.105-2.105","5h3hfbp96bt7udo",784,"12.csv","","null","resources/images/coin2.png","null","",NA,NA,NA,NA,""
"image-keyboard-response",329,268897,"0.0-3.106-0.106","5h3hfbp96bt7udo",784,"12.csv","","87.29999995231628","resources/trios/L1T2A1.jpg","37","restless",0.7,0.5,0.6,0.437956589872033,"true"
"image-keyboard-response",330,269299,"0.0-3.106-1.106","5h3hfbp96bt7udo",784,"12.csv","","null","resources/maskTrios/L1BB.jpg","null","",NA,NA,NA,NA,""
"image-keyboard-response",331,270500,"0.0-3.106-2.106","5h3hfbp96bt7udo",784,"12.csv","","null","resources/images/coin2.png","null","",NA,NA,NA,NA,""
"image-keyboard-response",332,270539,"0.0-3.107-0.107","5h3hfbp96bt7udo",784,"12.csv","","37.300000071525574","resources/trios/L1T1A1.jpg","38","restless",0.7,0.5,0.6,0.728681768415889,"false"
"image-keyboard-response",333,270943,"0.0-3.107-1.107","5h3hfbp96bt7udo",784,"12.csv","","null","resources/maskTrios/BT1B.jpg","null","",NA,NA,NA,NA,""
"image-keyboard-response",334,272149,"0.0-3.107-2.107","5h3hfbp96bt7udo",784,"12.csv","","null","resources/images/fishbone.png","null","",NA,NA,NA,NA,""
"image-keyboard-response",335,272210,"0.0-3.108-0.108","5h3hfbp96bt7udo",784,"12.csv","","59.39999997615814","resources/trios/L1T1A1.jpg","39","restless",0.7,0.5,0.5,0.509861392622643,"false"
"image-keyboard-response",336,272615,"0.0-3.108-1.108","5h3hfbp96bt7udo",784,"12.csv","","null","resources/maskTrios/BBA1.jpg","null","",NA,NA,NA,NA,""
"image-keyboard-response",337,273821,"0.0-3.108-2.108","5h3hfbp96bt7udo",784,"12.csv","","null","resources/images/fishbone.png","null","",NA,NA,NA,NA,""
"image-keyboard-response",338,273906,"0.0-3.109-0.109","5h3hfbp96bt7udo",784,"12.csv","","82.79999995231628","resources/trios/L4T1A3.jpg","38","restless",0.7,0.5,0.5,0.643740522716487,"false"
"image-keyboard-response",339,274308,"0.0-3.109-1.109","5h3hfbp96bt7udo",784,"12.csv","","null","resources/maskTrios/BT1B.jpg","null","",NA,NA,NA,NA,""
"image-keyboard-response",340,275514,"0.0-3.109-2.109","5h3hfbp96bt7udo",784,"12.csv","","null","resources/images/fishbone.png","null","",NA,NA,NA,NA,""
"image-keyboard-response",341,275571,"0.0-3.110-0.110","5h3hfbp96bt7udo",784,"12.csv","","55.200000047683716","resources/trios/L1T2A3.jpg","39","restless",0.7,0.5,0.5,0.189906669987468,"true"
"image-keyboard-response",342,275974,"0.0-3.110-1.110","5h3hfbp96bt7udo",784,"12.csv","","null","resources/maskTrios/BBA3.jpg","null","",NA,NA,NA,NA,""
"image-keyboard-response",343,277181,"0.0-3.110-2.110","5h3hfbp96bt7udo",784,"12.csv","","null","resources/images/coin2.png","null","",NA,NA,NA,NA,""
"image-keyboard-response",344,277231,"0.0-3.111-0.111","5h3hfbp96bt7udo",784,"12.csv","","48.39999997615814","resources/trios/L4T2A1.jpg","39","restless",0.7,0.5,0.5,0.634424477047449,"false"
"image-keyboard-response",345,277633,"0.0-3.111-1.111","5h3hfbp96bt7udo",784,"12.csv","","null","resources/maskTrios/BBA1.jpg","null","",NA,NA,NA,NA,""
"image-keyboard-response",346,278838,"0.0-3.111-2.111","5h3hfbp96bt7udo",784,"12.csv","","null","resources/images/fishbone.png","null","",NA,NA,NA,NA,""
"image-keyboard-response",347,278934,"0.0-3.112-0.112","5h3hfbp96bt7udo",784,"12.csv","","94.59999990463257","resources/trios/L4T1A1.jpg","39","restless",0.7,0.5,0.4,0.0607340693463714,"true"
"image-keyboard-response",348,279337,"0.0-3.112-1.112","5h3hfbp96bt7udo",784,"12.csv","","null","resources/maskTrios/BBA1.jpg","null","",NA,NA,NA,NA,""
"image-keyboard-response",349,280539,"0.0-3.112-2.112","5h3hfbp96bt7udo",784,"12.csv","","null","resources/images/coin2.png","null","",NA,NA,NA,NA,""
"image-keyboard-response",350,280613,"0.0-3.113-0.113","5h3hfbp96bt7udo",784,"12.csv","","72.30000007152557","resources/trios/L4T1A1.jpg","39","restless",0.7,0.4,0.4,0.532416992890854,"false"
"image-keyboard-response",351,281015,"0.0-3.113-1.113","5h3hfbp96bt7udo",784,"12.csv","","null","resources/maskTrios/BBA1.jpg","null","",NA,NA,NA,NA,""
"image-keyboard-response",352,282216,"0.0-3.113-2.113","5h3hfbp96bt7udo",784,"12.csv","","null","resources/images/fishbone.png","null","",NA,NA,NA,NA,""
"image-keyboard-response",353,282255,"0.0-3.114-0.114","5h3hfbp96bt7udo",784,"12.csv","","37.799999952316284","resources/trios/L4T1A3.jpg","37","restless",0.8,0.3,0.4,0.788885058169492,"true"
"image-keyboard-response",354,282657,"0.0-3.114-1.114","5h3hfbp96bt7udo",784,"12.csv","","null","resources/maskTrios/L4BB.jpg","null","",NA,NA,NA,NA,""
"image-keyboard-response",355,283861,"0.0-3.114-2.114","5h3hfbp96bt7udo",784,"12.csv","","null","resources/images/coin2.png","null","",NA,NA,NA,NA,""
"image-keyboard-response",356,283935,"0.0-3.115-0.115","5h3hfbp96bt7udo",784,"12.csv","","72.79999995231628","resources/trios/L4T1A1.jpg","37","restless",0.8,0.3,0.4,0.466402930845037,"true"
"image-keyboard-response",357,284338,"0.0-3.115-1.115","5h3hfbp96bt7udo",784,"12.csv","","null","resources/maskTrios/L4BB.jpg","null","",NA,NA,NA,NA,""
"image-keyboard-response",358,285540,"0.0-3.115-2.115","5h3hfbp96bt7udo",784,"12.csv","","null","resources/images/coin2.png","null","",NA,NA,NA,NA,""
"image-keyboard-response",359,285543,"0.0-3.116-0.116","5h3hfbp96bt7udo",784,"12.csv","","1.1999999284744263","resources/trios/L4T1A1.jpg","38","restless",0.8,0.3,0.4,0.280229112076103,"true"
"image-keyboard-response",360,285949,"0.0-3.116-1.116","5h3hfbp96bt7udo",784,"12.csv","","null","resources/maskTrios/BT1B.jpg","null","",NA,NA,NA,NA,""
"image-keyboard-response",361,287152,"0.0-3.116-2.116","5h3hfbp96bt7udo",784,"12.csv","","null","resources/images/coin2.png","null","",NA,NA,NA,NA,""
"image-keyboard-response",362,287160,"0.0-3.117-0.117","5h3hfbp96bt7udo",784,"12.csv","","5.600000023841858","resources/trios/L1T2A1.jpg","38","restless",0.8,0.3,0.4,0.951375907503488,"false"
"image-keyboard-response",363,287565,"0.0-3.117-1.117","5h3hfbp96bt7udo",784,"12.csv","","null","resources/maskTrios/BT2B.jpg","null","",NA,NA,NA,NA,""
"image-keyboard-response",364,288767,"0.0-3.117-2.117","5h3hfbp96bt7udo",784,"12.csv","","null","resources/images/fishbone.png","null","",NA,NA,NA,NA,""
"image-keyboard-response",365,288830,"0.0-3.118-0.118","5h3hfbp96bt7udo",784,"12.csv","","61.799999952316284","resources/trios/L4T1A1.jpg","38","restless",0.8,0.3,0.4,0.955408802885631,"false"
"image-keyboard-response",366,289233,"0.0-3.118-1.118","5h3hfbp96bt7udo",784,"12.csv","","null","resources/maskTrios/BT1B.jpg","null","",NA,NA,NA,NA,""
"image-keyboard-response",367,290435,"0.0-3.118-2.118","5h3hfbp96bt7udo",784,"12.csv","","null","resources/images/fishbone.png","null","",NA,NA,NA,NA,""
"image-keyboard-response",368,290465,"0.0-3.119-0.119","5h3hfbp96bt7udo",784,"12.csv","","28.600000023841858","resources/trios/L4T1A3.jpg","38","restless",0.8,0.3,0.4,0.921807029463204,"false"
"image-keyboard-response",369,290867,"0.0-3.119-1.119","5h3hfbp96bt7udo",784,"12.csv","","null","resources/maskTrios/BT1B.jpg","null","",NA,NA,NA,NA,""
"image-keyboard-response",370,292069,"0.0-3.119-2.119","5h3hfbp96bt7udo",784,"12.csv","","null","resources/images/fishbone.png","null","",NA,NA,NA,NA,""
"image-keyboard-response",371,292174,"0.0-3.120-0.120","5h3hfbp96bt7udo",784,"12.csv","","102.70000004768372","resources/trios/L1T1A3.jpg","39","restless",0.8,0.3,0.4,0.507397678084072,"false"
"image-keyboard-response",372,292578,"0.0-3.120-1.120","5h3hfbp96bt7udo",784,"12.csv","","null","resources/maskTrios/BBA3.jpg","null","",NA,NA,NA,NA,""
"image-keyboard-response",373,293785,"0.0-3.120-2.120","5h3hfbp96bt7udo",784,"12.csv","","null","resources/images/fishbone.png","null","",NA,NA,NA,NA,""
"image-keyboard-response",374,293824,"0.0-3.121-0.121","5h3hfbp96bt7udo",784,"12.csv","","37.40000009536743","resources/trios/L4T2A1.jpg","38","restless",0.7,0.3,0.4,0.446792399629821,"false"
"image-keyboard-response",375,294230,"0.0-3.121-1.121","5h3hfbp96bt7udo",784,"12.csv","","null","resources/maskTrios/BT2B.jpg","null","",NA,NA,NA,NA,""
"image-keyboard-response",376,295436,"0.0-3.121-2.121","5h3hfbp96bt7udo",784,"12.csv","","null","resources/images/fishbone.png","null","",NA,NA,NA,NA,""
"image-keyboard-response",377,295567,"0.0-3.122-0.122","5h3hfbp96bt7udo",784,"12.csv","","128.70000004768372","resources/trios/L4T1A3.jpg","39","restless",0.7,0.3,0.4,0.478664377435094,"false"
"image-keyboard-response",378,295970,"0.0-3.122-1.122","5h3hfbp96bt7udo",784,"12.csv","","null","resources/maskTrios/BBA3.jpg","null","",NA,NA,NA,NA,""
"image-keyboard-response",379,297173,"0.0-3.122-2.122","5h3hfbp96bt7udo",784,"12.csv","","null","resources/images/fishbone.png","null","",NA,NA,NA,NA,""
"image-keyboard-response",380,297245,"0.0-3.123-0.123","5h3hfbp96bt7udo",784,"12.csv","","71","resources/trios/L1T2A1.jpg","38","restless",0.7,0.3,0.4,0.881647912363352,"false"
"image-keyboard-response",381,297646,"0.0-3.123-1.123","5h3hfbp96bt7udo",784,"12.csv","","null","resources/maskTrios/BT2B.jpg","null","",NA,NA,NA,NA,""
"image-keyboard-response",382,298849,"0.0-3.123-2.123","5h3hfbp96bt7udo",784,"12.csv","","null","resources/images/fishbone.png","null","",NA,NA,NA,NA,""
"image-keyboard-response",383,298854,"0.0-3.124-0.124","5h3hfbp96bt7udo",784,"12.csv","","4.5","resources/trios/L1T1A1.jpg","39","restless",0.7,0.3,0.4,0.969433234156411,"false"
"image-keyboard-response",384,299259,"0.0-3.124-1.124","5h3hfbp96bt7udo",784,"12.csv","","null","resources/maskTrios/BBA1.jpg","null","",NA,NA,NA,NA,""
"image-keyboard-response",385,300461,"0.0-3.124-2.124","5h3hfbp96bt7udo",784,"12.csv","","null","resources/images/fishbone.png","null","",NA,NA,NA,NA,""
"image-keyboard-response",386,300497,"0.0-3.125-0.125","5h3hfbp96bt7udo",784,"12.csv","","34.799999952316284","resources/trios/L4T1A1.jpg","39","restless",0.7,0.3,0.4,0.15959300506471,"true"
"image-keyboard-response",387,300899,"0.0-3.125-1.125","5h3hfbp96bt7udo",784,"12.csv","","null","resources/maskTrios/BBA1.jpg","null","",NA,NA,NA,NA,""
"image-keyboard-response",388,302102,"0.0-3.125-2.125","5h3hfbp96bt7udo",784,"12.csv","","null","resources/images/coin2.png","null","",NA,NA,NA,NA,""
"image-keyboard-response",389,302357,"0.0-3.126-0.126","5h3hfbp96bt7udo",784,"12.csv","","252.80000007152557","resources/trios/L4T2A3.jpg","37","restless",0.7,0.3,0.4,0.879098694048494,"false"
"image-keyboard-response",390,302758,"0.0-3.126-1.126","5h3hfbp96bt7udo",784,"12.csv","","null","resources/maskTrios/L4BB.jpg","null","",NA,NA,NA,NA,""
"image-keyboard-response",391,303961,"0.0-3.126-2.126","5h3hfbp96bt7udo",784,"12.csv","","null","resources/images/fishbone.png","null","",NA,NA,NA,NA,""
"image-keyboard-response",392,303995,"0.0-3.127-0.127","5h3hfbp96bt7udo",784,"12.csv","","32.699999928474426","resources/trios/L1T2A3.jpg","38","restless",0.7,0.3,0.4,0.711912904931814,"false"
"image-keyboard-response",393,304396,"0.0-3.127-1.127","5h3hfbp96bt7udo",784,"12.csv","","null","resources/maskTrios/BT2B.jpg","null","",NA,NA,NA,NA,""
"image-keyboard-response",394,305602,"0.0-3.127-2.127","5h3hfbp96bt7udo",784,"12.csv","","null","resources/images/fishbone.png","null","",NA,NA,NA,NA,""
"image-keyboard-response",395,305629,"0.0-3.128-0.128","5h3hfbp96bt7udo",784,"12.csv","","25.5","resources/trios/L1T1A1.jpg","37","restless",0.8,0.3,0.4,0.261629288769761,"true"
"image-keyboard-response",396,306030,"0.0-3.128-1.128","5h3hfbp96bt7udo",784,"12.csv","","null","resources/maskTrios/L1BB.jpg","null","",NA,NA,NA,NA,""
"image-keyboard-response",397,307236,"0.0-3.128-2.128","5h3hfbp96bt7udo",784,"12.csv","","null","resources/images/coin2.png","null","",NA,NA,NA,NA,""
"image-keyboard-response",398,307670,"0.0-3.129-0.129","5h3hfbp96bt7udo",784,"12.csv","","432.10000002384186","resources/trios/L4T1A3.jpg","37","restless",0.7,0.3,0.5,0.541597249172481,"true"
"image-keyboard-response",399,308076,"0.0-3.129-1.129","5h3hfbp96bt7udo",784,"12.csv","","null","resources/maskTrios/L4BB.jpg","null","",NA,NA,NA,NA,""
"image-keyboard-response",400,309282,"0.0-3.129-2.129","5h3hfbp96bt7udo",784,"12.csv","","null","resources/images/coin2.png","null","",NA,NA,NA,NA,""
"image-keyboard-response",401,309321,"0.0-3.130-0.130","5h3hfbp96bt7udo",784,"12.csv","","37.5","resources/trios/L1T2A3.jpg","39","restless",0.7,0.3,0.5,0.889886318846156,"false"
"image-keyboard-response",402,309722,"0.0-3.130-1.130","5h3hfbp96bt7udo",784,"12.csv","","null","resources/maskTrios/BBA3.jpg","null","",NA,NA,NA,NA,""
"image-keyboard-response",403,310925,"0.0-3.130-2.130","5h3hfbp96bt7udo",784,"12.csv","","null","resources/images/fishbone.png","null","",NA,NA,NA,NA,""
"image-keyboard-response",404,310958,"0.0-3.131-0.131","5h3hfbp96bt7udo",784,"12.csv","","31.5","resources/trios/L4T2A3.jpg","38","restless",0.7,0.3,0.5,0.156642832902049,"true"
"image-keyboard-response",405,311360,"0.0-3.131-1.131","5h3hfbp96bt7udo",784,"12.csv","","null","resources/maskTrios/BT2B.jpg","null","",NA,NA,NA,NA,""
"image-keyboard-response",406,312566,"0.0-3.131-2.131","5h3hfbp96bt7udo",784,"12.csv","","null","resources/images/coin2.png","null","",NA,NA,NA,NA,""
"image-keyboard-response",407,313231,"0.0-3.132-0.132","5h3hfbp96bt7udo",784,"12.csv","","663.1999999284744","resources/trios/L1T1A1.jpg","39","restless",0.7,0.3,0.5,0.0716482794215858,"true"
"image-keyboard-response",408,313634,"0.0-3.132-1.132","5h3hfbp96bt7udo",784,"12.csv","","null","resources/maskTrios/BBA1.jpg","null","",NA,NA,NA,NA,""
"image-keyboard-response",409,314841,"0.0-3.132-2.132","5h3hfbp96bt7udo",784,"12.csv","","null","resources/images/coin2.png","null","",NA,NA,NA,NA,""
"image-keyboard-response",410,314855,"0.0-3.133-0.133","5h3hfbp96bt7udo",784,"12.csv","","13.299999952316284","resources/trios/L1T2A3.jpg","39","restless",0.7,0.3,0.5,0.562363331621582,"false"
"image-keyboard-response",411,315262,"0.0-3.133-1.133","5h3hfbp96bt7udo",784,"12.csv","","null","resources/maskTrios/BBA3.jpg","null","",NA,NA,NA,NA,""
"image-keyboard-response",412,316465,"0.0-3.133-2.133","5h3hfbp96bt7udo",784,"12.csv","","null","resources/images/fishbone.png","null","",NA,NA,NA,NA,""
"image-keyboard-response",413,317013,"0.0-3.134-0.134","5h3hfbp96bt7udo",784,"12.csv","","546.2000000476837","resources/trios/L4T1A3.jpg","39","restless",0.6,0.3,0.5,0.029838592659347,"true"
"image-keyboard-response",414,317418,"0.0-3.134-1.134","5h3hfbp96bt7udo",784,"12.csv","","null","resources/maskTrios/BBA3.jpg","null","",NA,NA,NA,NA,""
"image-keyboard-response",415,318619,"0.0-3.134-2.134","5h3hfbp96bt7udo",784,"12.csv","","null","resources/images/coin2.png","null","",NA,NA,NA,NA,""
"image-keyboard-response",416,318623,"0.0-3.135-0.135","5h3hfbp96bt7udo",784,"12.csv","","2.0999999046325684","resources/trios/L4T2A1.jpg","39","restless",0.5,0.3,0.5,0.618747256421859,"false"
"image-keyboard-response",417,319025,"0.0-3.135-1.135","5h3hfbp96bt7udo",784,"12.csv","","null","resources/maskTrios/BBA1.jpg","null","",NA,NA,NA,NA,""
"image-keyboard-response",418,320227,"0.0-3.135-2.135","5h3hfbp96bt7udo",784,"12.csv","","null","resources/images/fishbone.png","null","",NA,NA,NA,NA,""
"image-keyboard-response",419,320302,"0.0-3.136-0.136","5h3hfbp96bt7udo",784,"12.csv","","73.5","resources/trios/L4T1A3.jpg","37","restless",0.5,0.4,0.5,0.282042746653465,"true"
"image-keyboard-response",420,320703,"0.0-3.136-1.136","5h3hfbp96bt7udo",784,"12.csv","","null","resources/maskTrios/L4BB.jpg","null","",NA,NA,NA,NA,""
"image-keyboard-response",421,321907,"0.0-3.136-2.136","5h3hfbp96bt7udo",784,"12.csv","","null","resources/images/coin2.png","null","",NA,NA,NA,NA,""
"image-keyboard-response",422,321956,"0.0-3.137-0.137","5h3hfbp96bt7udo",784,"12.csv","","47.39999997615814","resources/trios/L4T1A1.jpg","37","restless",0.5,0.4,0.5,0.590334799699105,"false"
"image-keyboard-response",423,322362,"0.0-3.137-1.137","5h3hfbp96bt7udo",784,"12.csv","","null","resources/maskTrios/L4BB.jpg","null","",NA,NA,NA,NA,""
"image-keyboard-response",424,323565,"0.0-3.137-2.137","5h3hfbp96bt7udo",784,"12.csv","","null","resources/images/fishbone.png","null","",NA,NA,NA,NA,""
"image-keyboard-response",425,323710,"0.0-3.138-0.138","5h3hfbp96bt7udo",784,"12.csv","","144.09999990463257","resources/trios/L4T2A1.jpg","37","restless",0.5,0.4,0.5,0.418258698901173,"true"
"image-keyboard-response",426,324113,"0.0-3.138-1.138","5h3hfbp96bt7udo",784,"12.csv","","null","resources/maskTrios/L4BB.jpg","null","",NA,NA,NA,NA,""
"image-keyboard-response",427,325315,"0.0-3.138-2.138","5h3hfbp96bt7udo",784,"12.csv","","null","resources/images/coin2.png","null","",NA,NA,NA,NA,""
"image-keyboard-response",428,325380,"0.0-3.139-0.139","5h3hfbp96bt7udo",784,"12.csv","","62.89999997615814","resources/trios/L1T1A3.jpg","38","restless",0.5,0.3,0.5,0.192437059048514,"true"
"image-keyboard-response",429,325785,"0.0-3.139-1.139","5h3hfbp96bt7udo",784,"12.csv","","null","resources/maskTrios/BT1B.jpg","null","",NA,NA,NA,NA,""
"image-keyboard-response",430,326987,"0.0-3.139-2.139","5h3hfbp96bt7udo",784,"12.csv","","null","resources/images/coin2.png","null","",NA,NA,NA,NA,""
"image-keyboard-response",431,327011,"0.0-3.140-0.140","5h3hfbp96bt7udo",784,"12.csv","","22.799999952316284","resources/trios/L1T1A3.jpg","38","restless",0.5,0.2,0.6,0.376927504536343,"false"
"image-keyboard-response",432,327414,"0.0-3.140-1.140","5h3hfbp96bt7udo",784,"12.csv","","null","resources/maskTrios/BT1B.jpg","null","",NA,NA,NA,NA,""
"image-keyboard-response",433,328617,"0.0-3.140-2.140","5h3hfbp96bt7udo",784,"12.csv","","null","resources/images/fishbone.png","null","",NA,NA,NA,NA,""
"image-keyboard-response",434,328672,"0.0-3.141-0.141","5h3hfbp96bt7udo",784,"12.csv","","54","resources/trios/L1T2A3.jpg","39","restless",0.5,0.2,0.6,0.550496923708445,"true"
"image-keyboard-response",435,329079,"0.0-3.141-1.141","5h3hfbp96bt7udo",784,"12.csv","","null","resources/maskTrios/BBA3.jpg","null","",NA,NA,NA,NA,""
"image-keyboard-response",436,330281,"0.0-3.141-2.141","5h3hfbp96bt7udo",784,"12.csv","","null","resources/images/coin2.png","null","",NA,NA,NA,NA,""
"image-keyboard-response",437,330372,"0.0-3.142-0.142","5h3hfbp96bt7udo",784,"12.csv","","89.19999992847443","resources/trios/L4T1A3.jpg","37","restless",0.5,0.2,0.6,0.660101045823639,"false"
"image-keyboard-response",438,330774,"0.0-3.142-1.142","5h3hfbp96bt7udo",784,"12.csv","","null","resources/maskTrios/L4BB.jpg","null","",NA,NA,NA,NA,""
"image-keyboard-response",439,331977,"0.0-3.142-2.142","5h3hfbp96bt7udo",784,"12.csv","","null","resources/images/fishbone.png","null","",NA,NA,NA,NA,""
"image-keyboard-response",440,332097,"0.0-3.143-0.143","5h3hfbp96bt7udo",784,"12.csv","","119","resources/trios/L1T1A1.jpg","38","restless",0.5,0.2,0.5,0.959248333630484,"false"
"image-keyboard-response",441,332501,"0.0-3.143-1.143","5h3hfbp96bt7udo",784,"12.csv","","null","resources/maskTrios/BT1B.jpg","null","",NA,NA,NA,NA,""
"image-keyboard-response",442,333707,"0.0-3.143-2.143","5h3hfbp96bt7udo",784,"12.csv","","null","resources/images/fishbone.png","null","",NA,NA,NA,NA,""
"image-keyboard-response",443,333843,"0.0-3.144-0.144","5h3hfbp96bt7udo",784,"12.csv","","134.20000004768372","resources/trios/L1T2A3.jpg","39","restless",0.5,0.2,0.4,0.646610064125274,"false"
"image-keyboard-response",444,334245,"0.0-3.144-1.144","5h3hfbp96bt7udo",784,"12.csv","","null","resources/maskTrios/BBA3.jpg","null","",NA,NA,NA,NA,""
"image-keyboard-response",445,335451,"0.0-3.144-2.144","5h3hfbp96bt7udo",784,"12.csv","","null","resources/images/fishbone.png","null","",NA,NA,NA,NA,""
"image-keyboard-response",446,335498,"0.0-3.145-0.145","5h3hfbp96bt7udo",784,"12.csv","","45.39999997615814","resources/trios/L4T2A1.jpg","38","restless",0.5,0.2,0.5,0.221721429163135,"false"
"image-keyboard-response",447,335901,"0.0-3.145-1.145","5h3hfbp96bt7udo",784,"12.csv","","null","resources/maskTrios/BT2B.jpg","null","",NA,NA,NA,NA,""
"image-keyboard-response",448,337107,"0.0-3.145-2.145","5h3hfbp96bt7udo",784,"12.csv","","null","resources/images/fishbone.png","null","",NA,NA,NA,NA,""
"image-keyboard-response",449,337135,"0.0-3.146-0.146","5h3hfbp96bt7udo",784,"12.csv","","26","resources/trios/L1T2A3.jpg","38","restless",0.5,0.2,0.5,0.690988852505107,"false"
"image-keyboard-response",450,337538,"0.0-3.146-1.146","5h3hfbp96bt7udo",784,"12.csv","","null","resources/maskTrios/BT2B.jpg","null","",NA,NA,NA,NA,""
"image-keyboard-response",451,338741,"0.0-3.146-2.146","5h3hfbp96bt7udo",784,"12.csv","","null","resources/images/fishbone.png","null","",NA,NA,NA,NA,""
"image-keyboard-response",452,338755,"0.0-3.147-0.147","5h3hfbp96bt7udo",784,"12.csv","","12.399999976158142","resources/trios/L4T2A3.jpg","38","restless",0.5,0.2,0.5,0.484722408021833,"false"
"image-keyboard-response",453,339156,"0.0-3.147-1.147","5h3hfbp96bt7udo",784,"12.csv","","null","resources/maskTrios/BT2B.jpg","null","",NA,NA,NA,NA,""
"image-keyboard-response",454,340358,"0.0-3.147-2.147","5h3hfbp96bt7udo",784,"12.csv","","null","resources/images/fishbone.png","null","",NA,NA,NA,NA,""
"image-keyboard-response",455,340491,"0.0-3.148-0.148","5h3hfbp96bt7udo",784,"12.csv","","131.80000007152557","resources/trios/L1T1A3.jpg","37","restless",0.5,0.2,0.5,0.248601149915578,"true"
"image-keyboard-response",456,340892,"0.0-3.148-1.148","5h3hfbp96bt7udo",784,"12.csv","","null","resources/maskTrios/L1BB.jpg","null","",NA,NA,NA,NA,""
"image-keyboard-response",457,342095,"0.0-3.148-2.148","5h3hfbp96bt7udo",784,"12.csv","","null","resources/images/coin2.png","null","",NA,NA,NA,NA,""
"image-keyboard-response",458,342154,"0.0-3.149-0.149","5h3hfbp96bt7udo",784,"12.csv","","57.60000002384186","resources/trios/L1T1A1.jpg","37","restless",0.5,0.2,0.5,0.92599722289539,"false"
"image-keyboard-response",459,342560,"0.0-3.149-1.149","5h3hfbp96bt7udo",784,"12.csv","","null","resources/maskTrios/L1BB.jpg","null","",NA,NA,NA,NA,""
"image-keyboard-response",460,343761,"0.0-3.149-2.149","5h3hfbp96bt7udo",784,"12.csv","","null","resources/images/fishbone.png","null","",NA,NA,NA,NA,""
"image-keyboard-response",461,343866,"0.0-3.150-0.150","5h3hfbp96bt7udo",784,"12.csv","","103.10000002384186","resources/trios/L4T2A1.jpg","39","restless",0.5,0.2,0.5,0.0278007094318615,"true"
"image-keyboard-response",462,344267,"0.0-3.150-1.150","5h3hfbp96bt7udo",784,"12.csv","","null","resources/maskTrios/BBA1.jpg","null","",NA,NA,NA,NA,""
"image-keyboard-response",463,345468,"0.0-3.150-2.150","5h3hfbp96bt7udo",784,"12.csv","","null","resources/images/coin2.png","null","",NA,NA,NA,NA,""
"image-keyboard-response",464,345532,"0.0-3.151-0.151","5h3hfbp96bt7udo",784,"12.csv","","61.89999997615814","resources/trios/L4T1A1.jpg","38","restless",0.5,0.2,0.5,0.125806078006364,"true"
"image-keyboard-response",465,345935,"0.0-3.151-1.151","5h3hfbp96bt7udo",784,"12.csv","","null","resources/maskTrios/BT1B.jpg","null","",NA,NA,NA,NA,""
"image-keyboard-response",466,347139,"0.0-3.151-2.151","5h3hfbp96bt7udo",784,"12.csv","","null","resources/images/coin2.png","null","",NA,NA,NA,NA,""
"image-keyboard-response",467,347172,"0.0-3.152-0.152","5h3hfbp96bt7udo",784,"12.csv","","30.699999928474426","resources/trios/L1T2A1.jpg","38","restless",0.5,0.2,0.5,0.784970387130463,"false"
"image-keyboard-response",468,347578,"0.0-3.152-1.152","5h3hfbp96bt7udo",784,"12.csv","","null","resources/maskTrios/BT2B.jpg","null","",NA,NA,NA,NA,""
"image-keyboard-response",469,348779,"0.0-3.152-2.152","5h3hfbp96bt7udo",784,"12.csv","","null","resources/images/fishbone.png","null","",NA,NA,NA,NA,""
"image-keyboard-response",470,348782,"0.0-3.153-0.153","5h3hfbp96bt7udo",784,"12.csv","","1.1999999284744263","resources/trios/L1T2A1.jpg","37","restless",0.5,0.2,0.5,0.548238561652608,"false"
"image-keyboard-response",471,349188,"0.0-3.153-1.153","5h3hfbp96bt7udo",784,"12.csv","","null","resources/maskTrios/L1BB.jpg","null","",NA,NA,NA,NA,""
"image-keyboard-response",472,350394,"0.0-3.153-2.153","5h3hfbp96bt7udo",784,"12.csv","","null","resources/images/fishbone.png","null","",NA,NA,NA,NA,""
"image-keyboard-response",473,350667,"0.0-3.154-0.154","5h3hfbp96bt7udo",784,"12.csv","","271.60000002384186","resources/trios/L4T2A1.jpg","38","restless",0.5,0.2,0.5,0.287609147444872,"false"
"image-keyboard-response",474,351069,"0.0-3.154-1.154","5h3hfbp96bt7udo",784,"12.csv","","null","resources/maskTrios/BT2B.jpg","null","",NA,NA,NA,NA,""
"image-keyboard-response",475,352270,"0.0-3.154-2.154","5h3hfbp96bt7udo",784,"12.csv","","null","resources/images/fishbone.png","null","",NA,NA,NA,NA,""
"image-keyboard-response",476,352394,"0.0-3.155-0.155","5h3hfbp96bt7udo",784,"12.csv","","122.70000004768372","resources/trios/L4T2A3.jpg","39","restless",0.4,0.3,0.5,0.97594131843661,"false"
"image-keyboard-response",477,352796,"0.0-3.155-1.155","5h3hfbp96bt7udo",784,"12.csv","","null","resources/maskTrios/BBA3.jpg","null","",NA,NA,NA,NA,""
"image-keyboard-response",478,353999,"0.0-3.155-2.155","5h3hfbp96bt7udo",784,"12.csv","","null","resources/images/fishbone.png","null","",NA,NA,NA,NA,""
"image-keyboard-response",479,354029,"0.0-3.156-0.156","5h3hfbp96bt7udo",784,"12.csv","","27.800000071525574","resources/trios/L1T1A1.jpg","37","restless",0.4,0.3,0.5,0.0968489182528247,"true"
"image-keyboard-response",480,354434,"0.0-3.156-1.156","5h3hfbp96bt7udo",784,"12.csv","","null","resources/maskTrios/L1BB.jpg","null","",NA,NA,NA,NA,""
"image-keyboard-response",481,355637,"0.0-3.156-2.156","5h3hfbp96bt7udo",784,"12.csv","","null","resources/images/coin2.png","null","",NA,NA,NA,NA,""
"image-keyboard-response",482,355698,"0.0-3.157-0.157","5h3hfbp96bt7udo",784,"12.csv","","59.299999952316284","resources/trios/L4T2A1.jpg","37","restless",0.4,0.3,0.5,0.835595304455103,"false"
"image-keyboard-response",483,356101,"0.0-3.157-1.157","5h3hfbp96bt7udo",784,"12.csv","","null","resources/maskTrios/L4BB.jpg","null","",NA,NA,NA,NA,""
"image-keyboard-response",484,357305,"0.0-3.157-2.157","5h3hfbp96bt7udo",784,"12.csv","","null","resources/images/fishbone.png","null","",NA,NA,NA,NA,""
"image-keyboard-response",485,357655,"0.0-3.158-0.158","5h3hfbp96bt7udo",784,"12.csv","","348.2999999523163","resources/trios/L1T2A3.jpg","37","restless",0.4,0.3,0.5,0.0536858853919273,"true"
"image-keyboard-response",486,358060,"0.0-3.158-1.158","5h3hfbp96bt7udo",784,"12.csv","","null","resources/maskTrios/L1BB.jpg","null","",NA,NA,NA,NA,""
"image-keyboard-response",487,359266,"0.0-3.158-2.158","5h3hfbp96bt7udo",784,"12.csv","","null","resources/images/coin2.png","null","",NA,NA,NA,NA,""
"image-keyboard-response",488,359753,"0.0-3.159-0.159","5h3hfbp96bt7udo",784,"12.csv","","485.2999999523163","resources/trios/L4T1A1.jpg","38","restless",0.3,0.3,0.5,0.851311820307362,"false"
"image-keyboard-response",489,360157,"0.0-3.159-1.159","5h3hfbp96bt7udo",784,"12.csv","","null","resources/maskTrios/BT1B.jpg","null","",NA,NA,NA,NA,""
"image-keyboard-response",490,361359,"0.0-3.159-2.159","5h3hfbp96bt7udo",784,"12.csv","","null","resources/images/fishbone.png","null","",NA,NA,NA,NA,""
"image-keyboard-response",491,361501,"0.0-3.160-0.160","5h3hfbp96bt7udo",784,"12.csv","","140.70000004768372","resources/trios/L4T1A1.jpg","39","restless",0.3,0.3,0.5,0.110248227258375,"true"
"image-keyboard-response",492,361903,"0.0-3.160-1.160","5h3hfbp96bt7udo",784,"12.csv","","null","resources/maskTrios/BBA1.jpg","null","",NA,NA,NA,NA,""
"image-keyboard-response",493,363105,"0.0-3.160-2.160","5h3hfbp96bt7udo",784,"12.csv","","null","resources/images/coin2.png","null","",NA,NA,NA,NA,""
"image-keyboard-response",494,363245,"0.0-3.161-0.161","5h3hfbp96bt7udo",784,"12.csv","","138.30000007152557","resources/trios/L1T1A3.jpg","39","restless",0.3,0.3,0.5,0.887289245987437,"false"
"image-keyboard-response",495,363650,"0.0-3.161-1.161","5h3hfbp96bt7udo",784,"12.csv","","null","resources/maskTrios/BBA3.jpg","null","",NA,NA,NA,NA,""
"image-keyboard-response",496,364856,"0.0-3.161-2.161","5h3hfbp96bt7udo",784,"12.csv","","null","resources/images/fishbone.png","null","",NA,NA,NA,NA,""
"image-keyboard-response",497,364980,"0.0-3.162-0.162","5h3hfbp96bt7udo",784,"12.csv","","121.40000009536743","resources/trios/L4T2A1.jpg","39","restless",0.3,0.4,0.5,0.0348104607326303,"true"
"image-keyboard-response",498,365383,"0.0-3.162-1.162","5h3hfbp96bt7udo",784,"12.csv","","null","resources/maskTrios/BBA1.jpg","null","",NA,NA,NA,NA,""
"image-keyboard-response",499,366586,"0.0-3.162-2.162","5h3hfbp96bt7udo",784,"12.csv","","null","resources/images/coin2.png","null","",NA,NA,NA,NA,""
"image-keyboard-response",500,366613,"0.0-3.163-0.163","5h3hfbp96bt7udo",784,"12.csv","","25.700000047683716","resources/trios/L1T1A3.jpg","39","restless",0.4,0.4,0.5,0.680366272893972,"false"
"image-keyboard-response",501,367017,"0.0-3.163-1.163","5h3hfbp96bt7udo",784,"12.csv","","null","resources/maskTrios/BBA3.jpg","null","",NA,NA,NA,NA,""
"image-keyboard-response",502,368220,"0.0-3.163-2.163","5h3hfbp96bt7udo",784,"12.csv","","null","resources/images/fishbone.png","null","",NA,NA,NA,NA,""
"image-keyboard-response",503,368266,"0.0-3.164-0.164","5h3hfbp96bt7udo",784,"12.csv","","45.10000002384186","resources/trios/L1T1A3.jpg","38","restless",0.4,0.4,0.6,0.804746537198322,"false"
"image-keyboard-response",504,368671,"0.0-3.164-1.164","5h3hfbp96bt7udo",784,"12.csv","","null","resources/maskTrios/BT1B.jpg","null","",NA,NA,NA,NA,""
"image-keyboard-response",505,369874,"0.0-3.164-2.164","5h3hfbp96bt7udo",784,"12.csv","","null","resources/images/fishbone.png","null","",NA,NA,NA,NA,""
"image-keyboard-response",506,370004,"0.0-3.165-0.165","5h3hfbp96bt7udo",784,"12.csv","","128.79999995231628","resources/trios/L1T2A1.jpg","38","restless",0.4,0.4,0.6,0.894597532097921,"false"
"image-keyboard-response",507,370407,"0.0-3.165-1.165","5h3hfbp96bt7udo",784,"12.csv","","null","resources/maskTrios/BT2B.jpg","null","",NA,NA,NA,NA,""
"image-keyboard-response",508,371613,"0.0-3.165-2.165","5h3hfbp96bt7udo",784,"12.csv","","null","resources/images/fishbone.png","null","",NA,NA,NA,NA,""
"image-keyboard-response",509,371634,"0.0-3.166-0.166","5h3hfbp96bt7udo",784,"12.csv","","19.09999990463257","resources/trios/L4T1A3.jpg","39","restless",0.4,0.4,0.6,0.369268232171597,"true"
"image-keyboard-response",510,372038,"0.0-3.166-1.166","5h3hfbp96bt7udo",784,"12.csv","","null","resources/maskTrios/BBA3.jpg","null","",NA,NA,NA,NA,""
"image-keyboard-response",511,373244,"0.0-3.166-2.166","5h3hfbp96bt7udo",784,"12.csv","","null","resources/images/coin2.png","null","",NA,NA,NA,NA,""
"image-keyboard-response",512,373285,"0.0-3.167-0.167","5h3hfbp96bt7udo",784,"12.csv","","39.40000009536743","resources/trios/L1T1A3.jpg","39","restless",0.4,0.5,0.6,0.304774558120038,"true"
"image-keyboard-response",513,373687,"0.0-3.167-1.167","5h3hfbp96bt7udo",784,"12.csv","","null","resources/maskTrios/BBA3.jpg","null","",NA,NA,NA,NA,""
"image-keyboard-response",514,374889,"0.0-3.167-2.167","5h3hfbp96bt7udo",784,"12.csv","","null","resources/images/coin2.png","null","",NA,NA,NA,NA,""
"image-keyboard-response",515,374988,"0.0-3.168-0.168","5h3hfbp96bt7udo",784,"12.csv","","97","resources/trios/L1T1A3.jpg","39","restless",0.4,0.5,0.6,0.228737730024096,"true"
"image-keyboard-response",516,375389,"0.0-3.168-1.168","5h3hfbp96bt7udo",784,"12.csv","","null","resources/maskTrios/BBA3.jpg","null","",NA,NA,NA,NA,""
"image-keyboard-response",517,376592,"0.0-3.168-2.168","5h3hfbp96bt7udo",784,"12.csv","","null","resources/images/coin2.png","null","",NA,NA,NA,NA,""
"image-keyboard-response",518,376613,"0.0-3.169-0.169","5h3hfbp96bt7udo",784,"12.csv","","19.799999952316284","resources/trios/L1T2A3.jpg","38","restless",0.4,0.5,0.6,0.694833815337114,"false"
"image-keyboard-response",519,377016,"0.0-3.169-1.169","5h3hfbp96bt7udo",784,"12.csv","","null","resources/maskTrios/BT2B.jpg","null","",NA,NA,NA,NA,""
"image-keyboard-response",520,378222,"0.0-3.169-2.169","5h3hfbp96bt7udo",784,"12.csv","","null","resources/images/fishbone.png","null","",NA,NA,NA,NA,""
"image-keyboard-response",521,378322,"0.0-3.170-0.170","5h3hfbp96bt7udo",784,"12.csv","","98.69999992847443","resources/trios/L4T1A3.jpg","39","restless",0.4,0.5,0.6,0.875688025998135,"false"
"image-keyboard-response",522,378724,"0.0-3.170-1.170","5h3hfbp96bt7udo",784,"12.csv","","null","resources/maskTrios/BBA3.jpg","null","",NA,NA,NA,NA,""
"image-keyboard-response",523,379926,"0.0-3.170-2.170","5h3hfbp96bt7udo",784,"12.csv","","null","resources/images/fishbone.png","null","",NA,NA,NA,NA,""
"image-keyboard-response",524,380096,"0.0-3.171-0.171","5h3hfbp96bt7udo",784,"12.csv","","168","resources/trios/L1T2A3.jpg","39","restless",0.4,0.5,0.6,0.257567253130936,"true"
"image-keyboard-response",525,380500,"0.0-3.171-1.171","5h3hfbp96bt7udo",784,"12.csv","","null","resources/maskTrios/BBA3.jpg","null","",NA,NA,NA,NA,""
"image-keyboard-response",526,381703,"0.0-3.171-2.171","5h3hfbp96bt7udo",784,"12.csv","","null","resources/images/coin2.png","null","",NA,NA,NA,NA,""
"image-keyboard-response",527,381768,"0.0-3.172-0.172","5h3hfbp96bt7udo",784,"12.csv","","62.89999997615814","resources/trios/L4T2A1.jpg","37","restless",0.4,0.5,0.6,0.507974921458269,"false"
"image-keyboard-response",528,382169,"0.0-3.172-1.172","5h3hfbp96bt7udo",784,"12.csv","","null","resources/maskTrios/L4BB.jpg","null","",NA,NA,NA,NA,""
"image-keyboard-response",529,383372,"0.0-3.172-2.172","5h3hfbp96bt7udo",784,"12.csv","","null","resources/images/fishbone.png","null","",NA,NA,NA,NA,""
"image-keyboard-response",530,383400,"0.0-3.173-0.173","5h3hfbp96bt7udo",784,"12.csv","","26.699999928474426","resources/trios/L4T2A3.jpg","39","restless",0.4,0.5,0.6,0.169336457223183,"true"
"image-keyboard-response",531,383804,"0.0-3.173-1.173","5h3hfbp96bt7udo",784,"12.csv","","null","resources/maskTrios/BBA3.jpg","null","",NA,NA,NA,NA,""
"image-keyboard-response",532,385006,"0.0-3.173-2.173","5h3hfbp96bt7udo",784,"12.csv","","null","resources/images/coin2.png","null","",NA,NA,NA,NA,""
"image-keyboard-response",533,385065,"0.0-3.174-0.174","5h3hfbp96bt7udo",784,"12.csv","","58.09999990463257","resources/trios/L1T1A1.jpg","37","restless",0.4,0.5,0.6,0.630705232071086,"false"
"image-keyboard-response",534,385467,"0.0-3.174-1.174","5h3hfbp96bt7udo",784,"12.csv","","null","resources/maskTrios/L1BB.jpg","null","",NA,NA,NA,NA,""
"image-keyboard-response",535,386674,"0.0-3.174-2.174","5h3hfbp96bt7udo",784,"12.csv","","null","resources/images/fishbone.png","null","",NA,NA,NA,NA,""
"image-keyboard-response",536,386694,"0.0-3.175-0.175","5h3hfbp96bt7udo",784,"12.csv","","19","resources/trios/L1T2A1.jpg","39","restless",0.4,0.5,0.6,0.950862107793417,"false"
"image-keyboard-response",537,387099,"0.0-3.175-1.175","5h3hfbp96bt7udo",784,"12.csv","","null","resources/maskTrios/BBA1.jpg","null","",NA,NA,NA,NA,""
"image-keyboard-response",538,388305,"0.0-3.175-2.175","5h3hfbp96bt7udo",784,"12.csv","","null","resources/images/fishbone.png","null","",NA,NA,NA,NA,""
"image-keyboard-response",539,388337,"0.0-3.176-0.176","5h3hfbp96bt7udo",784,"12.csv","","29.799999952316284","resources/trios/L4T1A3.jpg","39","restless",0.4,0.5,0.6,0.190572030586261,"true"
"image-keyboard-response",540,388741,"0.0-3.176-1.176","5h3hfbp96bt7udo",784,"12.csv","","null","resources/maskTrios/BBA3.jpg","null","",NA,NA,NA,NA,""
"image-keyboard-response",541,389943,"0.0-3.176-2.176","5h3hfbp96bt7udo",784,"12.csv","","null","resources/images/coin2.png","null","",NA,NA,NA,NA,""
"image-keyboard-response",542,390033,"0.0-3.177-0.177","5h3hfbp96bt7udo",784,"12.csv","","89","resources/trios/L1T1A3.jpg","39","restless",0.4,0.5,0.6,0.844899265262371,"false"
"image-keyboard-response",543,390438,"0.0-3.177-1.177","5h3hfbp96bt7udo",784,"12.csv","","null","resources/maskTrios/BBA3.jpg","null","",NA,NA,NA,NA,""
"image-keyboard-response",544,391643,"0.0-3.177-2.177","5h3hfbp96bt7udo",784,"12.csv","","null","resources/images/fishbone.png","null","",NA,NA,NA,NA,""
"image-keyboard-response",545,391695,"0.0-3.178-0.178","5h3hfbp96bt7udo",784,"12.csv","","50.200000047683716","resources/trios/L4T1A3.jpg","37","restless",0.4,0.5,0.6,0.900222766902691,"false"
"image-keyboard-response",546,392099,"0.0-3.178-1.178","5h3hfbp96bt7udo",784,"12.csv","","null","resources/maskTrios/L4BB.jpg","null","",NA,NA,NA,NA,""
"image-keyboard-response",547,393303,"0.0-3.178-2.178","5h3hfbp96bt7udo",784,"12.csv","","null","resources/images/fishbone.png","null","",NA,NA,NA,NA,""
"image-keyboard-response",548,393568,"0.0-3.179-0.179","5h3hfbp96bt7udo",784,"12.csv","","263.10000002384186","resources/trios/L1T2A3.jpg","39","restless",0.4,0.5,0.6,0.574067399098255,"true"
"image-keyboard-response",549,393972,"0.0-3.179-1.179","5h3hfbp96bt7udo",784,"12.csv","","null","resources/maskTrios/BBA3.jpg","null","",NA,NA,NA,NA,""
"image-keyboard-response",550,395174,"0.0-3.179-2.179","5h3hfbp96bt7udo",784,"12.csv","","null","resources/images/coin2.png","null","",NA,NA,NA,NA,""
"image-keyboard-response",551,395250,"0.0-3.180-0.180","5h3hfbp96bt7udo",784,"12.csv","","74.5","resources/trios/L1T1A3.jpg","39","restless",0.4,0.5,0.6,0.781589640089298,"false"
"image-keyboard-response",552,395651,"0.0-3.180-1.180","5h3hfbp96bt7udo",784,"12.csv","","null","resources/maskTrios/BBA3.jpg","null","",NA,NA,NA,NA,""
"image-keyboard-response",553,396853,"0.0-3.180-2.180","5h3hfbp96bt7udo",784,"12.csv","","null","resources/images/fishbone.png","null","",NA,NA,NA,NA,""
"image-keyboard-response",554,396936,"0.0-3.181-0.181","5h3hfbp96bt7udo",784,"12.csv","","81.29999995231628","resources/trios/L4T2A1.jpg","37","restless",0.4,0.5,0.6,0.902544804970673,"false"
"image-keyboard-response",555,397342,"0.0-3.181-1.181","5h3hfbp96bt7udo",784,"12.csv","","null","resources/maskTrios/L4BB.jpg","null","",NA,NA,NA,NA,""
"image-keyboard-response",556,398547,"0.0-3.181-2.181","5h3hfbp96bt7udo",784,"12.csv","","null","resources/images/fishbone.png","null","",NA,NA,NA,NA,""
"image-keyboard-response",557,398666,"0.0-3.182-0.182","5h3hfbp96bt7udo",784,"12.csv","","117.29999995231628","resources/trios/L1T2A1.jpg","38","restless",0.4,0.5,0.6,0.553205293697279,"false"
"image-keyboard-response",558,399070,"0.0-3.182-1.182","5h3hfbp96bt7udo",784,"12.csv","","null","resources/maskTrios/BT2B.jpg","null","",NA,NA,NA,NA,""
"image-keyboard-response",559,400277,"0.0-3.182-2.182","5h3hfbp96bt7udo",784,"12.csv","","null","resources/images/fishbone.png","null","",NA,NA,NA,NA,""
"image-keyboard-response",560,400302,"0.0-3.183-0.183","5h3hfbp96bt7udo",784,"12.csv","","23.799999952316284","resources/trios/L4T2A1.jpg","38","restless",0.4,0.4,0.7,0.808113563340723,"false"
"image-keyboard-response",561,400704,"0.0-3.183-1.183","5h3hfbp96bt7udo",784,"12.csv","","null","resources/maskTrios/BT2B.jpg","null","",NA,NA,NA,NA,""
"image-keyboard-response",562,401906,"0.0-3.183-2.183","5h3hfbp96bt7udo",784,"12.csv","","null","resources/images/fishbone.png","null","",NA,NA,NA,NA,""
"image-keyboard-response",563,402092,"0.0-3.184-0.184","5h3hfbp96bt7udo",784,"12.csv","","184.70000004768372","resources/trios/L4T1A1.jpg","39","restless",0.4,0.4,0.7,0.46040229416094,"true"
"image-keyboard-response",564,402495,"0.0-3.184-1.184","5h3hfbp96bt7udo",784,"12.csv","","null","resources/maskTrios/BBA1.jpg","null","",NA,NA,NA,NA,""
"image-keyboard-response",565,403697,"0.0-3.184-2.184","5h3hfbp96bt7udo",784,"12.csv","","null","resources/images/coin2.png","null","",NA,NA,NA,NA,""
"image-keyboard-response",566,403709,"0.0-3.185-0.185","5h3hfbp96bt7udo",784,"12.csv","","10.700000047683716","resources/trios/L1T2A3.jpg","37","restless",0.4,0.4,0.7,0.802408065874121,"false"
"image-keyboard-response",567,404111,"0.0-3.185-1.185","5h3hfbp96bt7udo",784,"12.csv","","null","resources/maskTrios/L1BB.jpg","null","",NA,NA,NA,NA,""
"image-keyboard-response",568,405318,"0.0-3.185-2.185","5h3hfbp96bt7udo",784,"12.csv","","null","resources/images/fishbone.png","null","",NA,NA,NA,NA,""
"image-keyboard-response",569,405618,"0.0-3.186-0.186","5h3hfbp96bt7udo",784,"12.csv","","299.3000000715256","resources/trios/L1T1A1.jpg","39","restless",0.4,0.4,0.7,0.328176247784008,"true"
"image-keyboard-response",570,406024,"0.0-3.186-1.186","5h3hfbp96bt7udo",784,"12.csv","","null","resources/maskTrios/BBA1.jpg","null","",NA,NA,NA,NA,""
"image-keyboard-response",571,407231,"0.0-3.186-2.186","5h3hfbp96bt7udo",784,"12.csv","","null","resources/images/coin2.png","null","",NA,NA,NA,NA,""
"image-keyboard-response",572,407244,"0.0-3.187-0.187","5h3hfbp96bt7udo",784,"12.csv","","12","resources/trios/L4T1A3.jpg","38","restless",0.4,0.4,0.7,0.84341768362962,"false"
"image-keyboard-response",573,407646,"0.0-3.187-1.187","5h3hfbp96bt7udo",784,"12.csv","","null","resources/maskTrios/BT1B.jpg","null","",NA,NA,NA,NA,""
"image-keyboard-response",574,408848,"0.0-3.187-2.187","5h3hfbp96bt7udo",784,"12.csv","","null","resources/images/fishbone.png","null","",NA,NA,NA,NA,""
"image-keyboard-response",575,409023,"0.0-3.188-0.188","5h3hfbp96bt7udo",784,"12.csv","","173.70000004768372","resources/trios/L1T2A1.jpg","38","restless",0.4,0.4,0.7,0.833297397632845,"false"
"image-keyboard-response",576,409425,"0.0-3.188-1.188","5h3hfbp96bt7udo",784,"12.csv","","null","resources/maskTrios/BT2B.jpg","null","",NA,NA,NA,NA,""
"image-keyboard-response",577,410626,"0.0-3.188-2.188","5h3hfbp96bt7udo",784,"12.csv","","null","resources/images/fishbone.png","null","",NA,NA,NA,NA,""
"image-keyboard-response",578,410691,"0.0-3.189-0.189","5h3hfbp96bt7udo",784,"12.csv","","62.699999928474426","resources/trios/L4T1A1.jpg","39","restless",0.4,0.4,0.7,0.570236281465491,"true"
"image-keyboard-response",579,411097,"0.0-3.189-1.189","5h3hfbp96bt7udo",784,"12.csv","","null","resources/maskTrios/BBA1.jpg","null","",NA,NA,NA,NA,""
"image-keyboard-response",580,412302,"0.0-3.189-2.189","5h3hfbp96bt7udo",784,"12.csv","","null","resources/images/coin2.png","null","",NA,NA,NA,NA,""
"image-keyboard-response",581,412449,"0.0-3.190-0.190","5h3hfbp96bt7udo",784,"12.csv","","145.19999992847443","resources/trios/L4T1A1.jpg","39","restless",0.4,0.4,0.8,0.835949626495581,"false"
"image-keyboard-response",582,412856,"0.0-3.190-1.190","5h3hfbp96bt7udo",784,"12.csv","","null","resources/maskTrios/BBA1.jpg","null","",NA,NA,NA,NA,""
"image-keyboard-response",583,414059,"0.0-3.190-2.190","5h3hfbp96bt7udo",784,"12.csv","","null","resources/images/fishbone.png","null","",NA,NA,NA,NA,""
"image-keyboard-response",584,414228,"0.0-3.191-0.191","5h3hfbp96bt7udo",784,"12.csv","","167.29999995231628","resources/trios/L1T2A1.jpg","37","restless",0.4,0.4,0.8,0.873057631669575,"false"
"image-keyboard-response",585,414633,"0.0-3.191-1.191","5h3hfbp96bt7udo",784,"12.csv","","null","resources/maskTrios/L1BB.jpg","null","",NA,NA,NA,NA,""
"image-keyboard-response",586,415834,"0.0-3.191-2.191","5h3hfbp96bt7udo",784,"12.csv","","null","resources/images/fishbone.png","null","",NA,NA,NA,NA,""
"image-keyboard-response",587,415883,"0.0-3.192-0.192","5h3hfbp96bt7udo",784,"12.csv","","46.799999952316284","resources/trios/L4T2A3.jpg","38","restless",0.4,0.4,0.8,0.486156011011495,"false"
"image-keyboard-response",588,416288,"0.0-3.192-1.192","5h3hfbp96bt7udo",784,"12.csv","","null","resources/maskTrios/BT2B.jpg","null","",NA,NA,NA,NA,""
"image-keyboard-response",589,417494,"0.0-3.192-2.192","5h3hfbp96bt7udo",784,"12.csv","","null","resources/images/fishbone.png","null","",NA,NA,NA,NA,""
"image-keyboard-response",590,417809,"0.0-3.193-0.193","5h3hfbp96bt7udo",784,"12.csv","","313.5","resources/trios/L4T2A3.jpg","39","restless",0.4,0.5,0.8,0.338219962464094,"true"
"image-keyboard-response",591,418214,"0.0-3.193-1.193","5h3hfbp96bt7udo",784,"12.csv","","null","resources/maskTrios/BBA3.jpg","null","",NA,NA,NA,NA,""
"image-keyboard-response",592,419420,"0.0-3.193-2.193","5h3hfbp96bt7udo",784,"12.csv","","null","resources/images/coin2.png","null","",NA,NA,NA,NA,""
"image-keyboard-response",593,419521,"0.0-3.194-0.194","5h3hfbp96bt7udo",784,"12.csv","","98.70000004768372","resources/trios/L1T1A1.jpg","39","restless",0.4,0.5,0.7,0.867663849182157,"false"
"image-keyboard-response",594,419923,"0.0-3.194-1.194","5h3hfbp96bt7udo",784,"12.csv","","null","resources/maskTrios/BBA1.jpg","null","",NA,NA,NA,NA,""
"image-keyboard-response",595,421126,"0.0-3.194-2.194","5h3hfbp96bt7udo",784,"12.csv","","null","resources/images/fishbone.png","null","",NA,NA,NA,NA,""
"image-keyboard-response",596,421179,"0.0-3.195-0.195","5h3hfbp96bt7udo",784,"12.csv","","50.200000047683716","resources/trios/L4T1A1.jpg","39","restless",0.4,0.5,0.7,0.616876322911912,"true"
"image-keyboard-response",597,421581,"0.0-3.195-1.195","5h3hfbp96bt7udo",784,"12.csv","","null","resources/maskTrios/BBA1.jpg","null","",NA,NA,NA,NA,""
"image-keyboard-response",598,422787,"0.0-3.195-2.195","5h3hfbp96bt7udo",784,"12.csv","","null","resources/images/coin2.png","null","",NA,NA,NA,NA,""
"image-keyboard-response",599,422923,"0.0-3.196-0.196","5h3hfbp96bt7udo",784,"12.csv","","134.89999997615814","resources/trios/L4T2A3.jpg","37","restless",0.4,0.5,0.7,0.392421541827704,"true"
"image-keyboard-response",600,423325,"0.0-3.196-1.196","5h3hfbp96bt7udo",784,"12.csv","","null","resources/maskTrios/L4BB.jpg","null","",NA,NA,NA,NA,""
"image-keyboard-response",601,424530,"0.0-3.196-2.196","5h3hfbp96bt7udo",784,"12.csv","","null","resources/images/coin2.png","null","",NA,NA,NA,NA,""
"image-keyboard-response",602,424652,"0.0-3.197-0.197","5h3hfbp96bt7udo",784,"12.csv","","120.69999992847443","resources/trios/L1T2A1.jpg","39","restless",0.4,0.5,0.8,0.189536737686436,"true"
"image-keyboard-response",603,425055,"0.0-3.197-1.197","5h3hfbp96bt7udo",784,"12.csv","","null","resources/maskTrios/BBA1.jpg","null","",NA,NA,NA,NA,""
"image-keyboard-response",604,426260,"0.0-3.197-2.197","5h3hfbp96bt7udo",784,"12.csv","","null","resources/images/coin2.png","null","",NA,NA,NA,NA,""
"image-keyboard-response",605,426379,"0.0-3.198-0.198","5h3hfbp96bt7udo",784,"12.csv","","116.69999992847443","resources/trios/L1T1A3.jpg","37","restless",0.5,0.5,0.8,0.769162973503152,"false"
"image-keyboard-response",606,426782,"0.0-3.198-1.198","5h3hfbp96bt7udo",784,"12.csv","","null","resources/maskTrios/L1BB.jpg","null","",NA,NA,NA,NA,""
"image-keyboard-response",607,427988,"0.0-3.198-2.198","5h3hfbp96bt7udo",784,"12.csv","","null","resources/images/fishbone.png","null","",NA,NA,NA,NA,""
"image-keyboard-response",608,428027,"0.0-3.199-0.199","5h3hfbp96bt7udo",784,"12.csv","","36.699999928474426","resources/trios/L1T1A3.jpg","37","restless",0.6,0.5,0.8,0.121853181438887,"true"
"image-keyboard-response",609,428433,"0.0-3.199-1.199","5h3hfbp96bt7udo",784,"12.csv","","null","resources/maskTrios/L1BB.jpg","null","",NA,NA,NA,NA,""
