"trial_type","trial_index","time_elapsed","internal_node_id","subject","participantCode","walkNumber","success","rt","stimulus","key_press","test_part","leftProb","midProb","rightProb","generatedNum","correct"
"pavlovia",0,1417,"0.0-0.0","vj1w101v08rdd34",712,"62.csv","","","","","",NA,NA,NA,NA,""
"fullscreen",1,5749,"0.0-1.0","vj1w101v08rdd34",712,"62.csv","true","","","","",NA,NA,NA,NA,""
"html-keyboard-response",2,11937,"0.0-2.0-0.0","vj1w101v08rdd34",712,"62.csv","","6183","<p><font size='6'>Arrrgh!</p></font><p>Can you be the best pirate? Try to find lots of gold! But beware, some islands have more gold than others, and over time, the island with the most gold may change. Can YOU figure it out? </p><font size='6'>GOOD LUCK, CAPTAIN!!!</font><p>Press any key to begin</p>","32","",NA,NA,NA,NA,""
"image-keyboard-response",3,14940,"0.0-2.0-1.0","vj1w101v08rdd34",712,"62.csv","","null","resources/image_sets/111.png","null","",NA,NA,NA,NA,""
"image-keyboard-response",4,29557,"0.0-2.0-2.0","vj1w101v08rdd34",712,"62.csv","","14615","resources/image_sets/left_highlight.png","37","",NA,NA,NA,NA,""
"image-keyboard-response",5,34649,"0.0-2.0-3.0","vj1w101v08rdd34",712,"62.csv","","5091","resources/image_sets/mid_highlight.png","38","",NA,NA,NA,NA,""
"image-keyboard-response",6,38137,"0.0-2.0-4.0","vj1w101v08rdd34",712,"62.csv","","3487","resources/image_sets/right_highlight.png","39","",NA,NA,NA,NA,""
"image-keyboard-response",7,41896,"0.0-2.0-5.0","vj1w101v08rdd34",712,"62.csv","","3758","resources/image_sets/111.png","13","",NA,NA,NA,NA,""
"image-keyboard-response",8,44741,"0.0-2.0-6.0","vj1w101v08rdd34",712,"62.csv","","2844","resources/images/coin2.png","13","",NA,NA,NA,NA,""
"image-keyboard-response",9,46864,"0.0-2.0-7.0","vj1w101v08rdd34",712,"62.csv","","2122","resources/images/fishbone.png","13","",NA,NA,NA,NA,""
"html-keyboard-response",10,52577,"0.0-2.0-8.0","vj1w101v08rdd34",712,"62.csv","","5713.000000000007","<p>Your first journey will be a long one, but you will get a well deserved break at the end</p><p>After the break you will have four more journeys, but each will be much shorter than the first, and you will have breaks in between each</p><p>Press Enter to begin</p>","13","",NA,NA,NA,NA,""
"image-keyboard-response",11,58013,"0.0-3.0-0.0","vj1w101v08rdd34",712,"62.csv","","5434","resources/trios/L4T1A3.jpg","39","restless",0.3,0.7,0.9,0.0595547735134413,"true"
"image-keyboard-response",12,58416,"0.0-3.0-1.0","vj1w101v08rdd34",712,"62.csv","","null","resources/maskTrios/BBA3.jpg","null","",NA,NA,NA,NA,""
"image-keyboard-response",13,59619,"0.0-3.0-2.0","vj1w101v08rdd34",712,"62.csv","","null","resources/images/coin2.png","null","",NA,NA,NA,NA,""
"image-keyboard-response",14,63596,"0.0-3.1-0.1","vj1w101v08rdd34",712,"62.csv","","3975","resources/trios/L1T4A3.jpg","37","restless",0.3,0.7,0.9,0.357698098141192,"false"
"image-keyboard-response",15,63998,"0.0-3.1-1.1","vj1w101v08rdd34",712,"62.csv","","null","resources/maskTrios/L1BB.jpg","null","",NA,NA,NA,NA,""
"image-keyboard-response",16,65201,"0.0-3.1-2.1","vj1w101v08rdd34",712,"62.csv","","null","resources/images/fishbone.png","null","",NA,NA,NA,NA,""
"image-keyboard-response",17,67015,"0.0-3.2-0.2","vj1w101v08rdd34",712,"62.csv","","1813","resources/trios/L1T4A3.jpg","38","restless",0.3,0.7,0.9,0.366001573243149,"true"
"image-keyboard-response",18,67418,"0.0-3.2-1.2","vj1w101v08rdd34",712,"62.csv","","null","resources/maskTrios/BT4B.jpg","null","",NA,NA,NA,NA,""
"image-keyboard-response",19,68620,"0.0-3.2-2.2","vj1w101v08rdd34",712,"62.csv","","null","resources/images/coin2.png","null","",NA,NA,NA,NA,""
"image-keyboard-response",20,70330,"0.0-3.3-0.3","vj1w101v08rdd34",712,"62.csv","","1707.9999999999854","resources/trios/L4T1A1.jpg","37","restless",0.3,0.8,0.8,0.268071783544625,"true"
"image-keyboard-response",21,70731,"0.0-3.3-1.3","vj1w101v08rdd34",712,"62.csv","","null","resources/maskTrios/L4BB.jpg","null","",NA,NA,NA,NA,""
"image-keyboard-response",22,71934,"0.0-3.3-2.3","vj1w101v08rdd34",712,"62.csv","","null","resources/images/coin2.png","null","",NA,NA,NA,NA,""
"image-keyboard-response",23,79526,"0.0-3.4-0.4","vj1w101v08rdd34",712,"62.csv","","7591","resources/trios/L4T1A3.jpg","39","restless",0.3,0.8,0.8,0.654284965354253,"true"
"image-keyboard-response",24,79928,"0.0-3.4-1.4","vj1w101v08rdd34",712,"62.csv","","null","resources/maskTrios/BBA3.jpg","null","",NA,NA,NA,NA,""
"image-keyboard-response",25,81131,"0.0-3.4-2.4","vj1w101v08rdd34",712,"62.csv","","null","resources/images/coin2.png","null","",NA,NA,NA,NA,""
"image-keyboard-response",26,83188,"0.0-3.5-0.5","vj1w101v08rdd34",712,"62.csv","","2056","resources/trios/L4T4A3.jpg","39","restless",0.3,0.8,0.8,0.244432743134363,"true"
"image-keyboard-response",27,83589,"0.0-3.5-1.5","vj1w101v08rdd34",712,"62.csv","","null","resources/maskTrios/BBA3.jpg","null","",NA,NA,NA,NA,""
"image-keyboard-response",28,84792,"0.0-3.5-2.5","vj1w101v08rdd34",712,"62.csv","","null","resources/images/coin2.png","null","",NA,NA,NA,NA,""
"image-keyboard-response",29,88483,"0.0-3.6-0.6","vj1w101v08rdd34",712,"62.csv","","3690","resources/trios/L1T4A3.jpg","37","restless",0.3,0.8,0.8,0.412092470721097,"false"
"image-keyboard-response",30,88885,"0.0-3.6-1.6","vj1w101v08rdd34",712,"62.csv","","null","resources/maskTrios/L1BB.jpg","null","",NA,NA,NA,NA,""
"image-keyboard-response",31,90088,"0.0-3.6-2.6","vj1w101v08rdd34",712,"62.csv","","null","resources/images/fishbone.png","null","",NA,NA,NA,NA,""
"image-keyboard-response",32,90600,"0.0-3.7-0.7","vj1w101v08rdd34",712,"62.csv","","511","resources/trios/L1T1A3.jpg","38","restless",0.2,0.7,0.8,0.268192463529881,"true"
"image-keyboard-response",33,91003,"0.0-3.7-1.7","vj1w101v08rdd34",712,"62.csv","","null","resources/maskTrios/BT1B.jpg","null","",NA,NA,NA,NA,""
"image-keyboard-response",34,92205,"0.0-3.7-2.7","vj1w101v08rdd34",712,"62.csv","","null","resources/images/coin2.png","null","",NA,NA,NA,NA,""
"image-keyboard-response",35,94462,"0.0-3.8-0.8","vj1w101v08rdd34",712,"62.csv","","2255","resources/trios/L1T4A1.jpg","39","restless",0.2,0.7,0.8,0.442655965482838,"true"
"image-keyboard-response",36,94864,"0.0-3.8-1.8","vj1w101v08rdd34",712,"62.csv","","null","resources/maskTrios/BBA1.jpg","null","",NA,NA,NA,NA,""
"image-keyboard-response",37,96067,"0.0-3.8-2.8","vj1w101v08rdd34",712,"62.csv","","null","resources/images/coin2.png","null","",NA,NA,NA,NA,""
"image-keyboard-response",38,96998,"0.0-3.9-0.9","vj1w101v08rdd34",712,"62.csv","","929","resources/trios/L1T4A3.jpg","39","restless",0.2,0.7,0.8,0.29640705211518,"true"
"image-keyboard-response",39,97400,"0.0-3.9-1.9","vj1w101v08rdd34",712,"62.csv","","null","resources/maskTrios/BBA3.jpg","null","",NA,NA,NA,NA,""
"image-keyboard-response",40,98604,"0.0-3.9-2.9","vj1w101v08rdd34",712,"62.csv","","null","resources/images/coin2.png","null","",NA,NA,NA,NA,""
"image-keyboard-response",41,99383,"0.0-3.10-0.10","vj1w101v08rdd34",712,"62.csv","","778.0000000000146","resources/trios/L4T1A1.jpg","38","restless",0.3,0.7,0.8,0.808910798831702,"false"
"image-keyboard-response",42,99786,"0.0-3.10-1.10","vj1w101v08rdd34",712,"62.csv","","null","resources/maskTrios/BT1B.jpg","null","",NA,NA,NA,NA,""
"image-keyboard-response",43,100988,"0.0-3.10-2.10","vj1w101v08rdd34",712,"62.csv","","null","resources/images/fishbone.png","null","",NA,NA,NA,NA,""
"image-keyboard-response",44,102365,"0.0-3.11-0.11","vj1w101v08rdd34",712,"62.csv","","1376","resources/trios/L1T4A3.jpg","37","restless",0.3,0.7,0.8,0.657543471343834,"false"
"image-keyboard-response",45,102767,"0.0-3.11-1.11","vj1w101v08rdd34",712,"62.csv","","null","resources/maskTrios/L1BB.jpg","null","",NA,NA,NA,NA,""
"image-keyboard-response",46,103968,"0.0-3.11-2.11","vj1w101v08rdd34",712,"62.csv","","null","resources/images/fishbone.png","null","",NA,NA,NA,NA,""
"image-keyboard-response",47,105006,"0.0-3.12-0.12","vj1w101v08rdd34",712,"62.csv","","1036.0000000000146","resources/trios/L1T4A3.jpg","39","restless",0.3,0.7,0.8,0.041605941461018,"true"
"image-keyboard-response",48,105408,"0.0-3.12-1.12","vj1w101v08rdd34",712,"62.csv","","null","resources/maskTrios/BBA3.jpg","null","",NA,NA,NA,NA,""
"image-keyboard-response",49,106610,"0.0-3.12-2.12","vj1w101v08rdd34",712,"62.csv","","null","resources/images/coin2.png","null","",NA,NA,NA,NA,""
"image-keyboard-response",50,108227,"0.0-3.13-0.13","vj1w101v08rdd34",712,"62.csv","","1616","resources/trios/L4T1A1.jpg","37","restless",0.3,0.7,0.8,0.799549138786275,"false"
"image-keyboard-response",51,108630,"0.0-3.13-1.13","vj1w101v08rdd34",712,"62.csv","","null","resources/maskTrios/L4BB.jpg","null","",NA,NA,NA,NA,""
"image-keyboard-response",52,109832,"0.0-3.13-2.13","vj1w101v08rdd34",712,"62.csv","","null","resources/images/fishbone.png","null","",NA,NA,NA,NA,""
"image-keyboard-response",53,111272,"0.0-3.14-0.14","vj1w101v08rdd34",712,"62.csv","","1439","resources/trios/L1T4A1.jpg","38","restless",0.4,0.7,0.8,0.522678146353932,"true"
"image-keyboard-response",54,111674,"0.0-3.14-1.14","vj1w101v08rdd34",712,"62.csv","","null","resources/maskTrios/BT4B.jpg","null","",NA,NA,NA,NA,""
"image-keyboard-response",55,112877,"0.0-3.14-2.14","vj1w101v08rdd34",712,"62.csv","","null","resources/images/coin2.png","null","",NA,NA,NA,NA,""
"image-keyboard-response",56,113539,"0.0-3.15-0.15","vj1w101v08rdd34",712,"62.csv","","660.9999999999854","resources/trios/L4T1A1.jpg","38","restless",0.4,0.7,0.8,0.30613777106288,"true"
"image-keyboard-response",57,113942,"0.0-3.15-1.15","vj1w101v08rdd34",712,"62.csv","","null","resources/maskTrios/BT1B.jpg","null","",NA,NA,NA,NA,""
"image-keyboard-response",58,115143,"0.0-3.15-2.15","vj1w101v08rdd34",712,"62.csv","","null","resources/images/coin2.png","null","",NA,NA,NA,NA,""
"image-keyboard-response",59,115677,"0.0-3.16-0.16","vj1w101v08rdd34",712,"62.csv","","533","resources/trios/L4T1A3.jpg","38","restless",0.3,0.7,0.8,0.80111594188426,"false"
"image-keyboard-response",60,116080,"0.0-3.16-1.16","vj1w101v08rdd34",712,"62.csv","","null","resources/maskTrios/BT1B.jpg","null","",NA,NA,NA,NA,""
"image-keyboard-response",61,117282,"0.0-3.16-2.16","vj1w101v08rdd34",712,"62.csv","","null","resources/images/fishbone.png","null","",NA,NA,NA,NA,""
"image-keyboard-response",62,117599,"0.0-3.17-0.17","vj1w101v08rdd34",712,"62.csv","","316","resources/trios/L4T4A3.jpg","39","restless",0.3,0.7,0.8,0.26310016393022,"true"
"image-keyboard-response",63,118001,"0.0-3.17-1.17","vj1w101v08rdd34",712,"62.csv","","null","resources/maskTrios/BBA3.jpg","null","",NA,NA,NA,NA,""
"image-keyboard-response",64,119204,"0.0-3.17-2.17","vj1w101v08rdd34",712,"62.csv","","null","resources/images/coin2.png","null","",NA,NA,NA,NA,""
"image-keyboard-response",65,119521,"0.0-3.18-0.18","vj1w101v08rdd34",712,"62.csv","","316.00000000001455","resources/trios/L1T1A1.jpg","37","restless",0.3,0.7,0.7,0.36985643200731,"false"
"image-keyboard-response",66,119922,"0.0-3.18-1.18","vj1w101v08rdd34",712,"62.csv","","null","resources/maskTrios/L1BB.jpg","null","",NA,NA,NA,NA,""
"image-keyboard-response",67,121124,"0.0-3.18-2.18","vj1w101v08rdd34",712,"62.csv","","null","resources/images/fishbone.png","null","",NA,NA,NA,NA,""
"image-keyboard-response",68,121449,"0.0-3.19-0.19","vj1w101v08rdd34",712,"62.csv","","323.99999999998545","resources/trios/L1T1A3.jpg","37","restless",0.3,0.7,0.7,0.727621449760763,"false"
"image-keyboard-response",69,121851,"0.0-3.19-1.19","vj1w101v08rdd34",712,"62.csv","","null","resources/maskTrios/L1BB.jpg","null","",NA,NA,NA,NA,""
"image-keyboard-response",70,123053,"0.0-3.19-2.19","vj1w101v08rdd34",712,"62.csv","","null","resources/images/fishbone.png","null","",NA,NA,NA,NA,""
"image-keyboard-response",71,123420,"0.0-3.20-0.20","vj1w101v08rdd34",712,"62.csv","","366","resources/trios/L1T1A3.jpg","39","restless",0.3,0.7,0.7,0.756726211347511,"false"
"image-keyboard-response",72,123822,"0.0-3.20-1.20","vj1w101v08rdd34",712,"62.csv","","null","resources/maskTrios/BBA3.jpg","null","",NA,NA,NA,NA,""
"image-keyboard-response",73,125024,"0.0-3.20-2.20","vj1w101v08rdd34",712,"62.csv","","null","resources/images/fishbone.png","null","",NA,NA,NA,NA,""
"image-keyboard-response",74,126886,"0.0-3.21-0.21","vj1w101v08rdd34",712,"62.csv","","1861","resources/trios/L4T1A1.jpg","37","restless",0.3,0.7,0.7,0.647244829066697,"false"
"image-keyboard-response",75,127289,"0.0-3.21-1.21","vj1w101v08rdd34",712,"62.csv","","null","resources/maskTrios/L4BB.jpg","null","",NA,NA,NA,NA,""
"image-keyboard-response",76,128491,"0.0-3.21-2.21","vj1w101v08rdd34",712,"62.csv","","null","resources/images/fishbone.png","null","",NA,NA,NA,NA,""
"image-keyboard-response",77,128856,"0.0-3.22-0.22","vj1w101v08rdd34",712,"62.csv","","364","resources/trios/L1T4A3.jpg","39","restless",0.3,0.8,0.7,0.911657380768063,"false"
"image-keyboard-response",78,129258,"0.0-3.22-1.22","vj1w101v08rdd34",712,"62.csv","","null","resources/maskTrios/BBA3.jpg","null","",NA,NA,NA,NA,""
"image-keyboard-response",79,130460,"0.0-3.22-2.22","vj1w101v08rdd34",712,"62.csv","","null","resources/images/fishbone.png","null","",NA,NA,NA,NA,""
"image-keyboard-response",80,130987,"0.0-3.23-0.23","vj1w101v08rdd34",712,"62.csv","","525","resources/trios/L1T1A3.jpg","38","restless",0.3,0.8,0.7,0.706073857239975,"true"
"image-keyboard-response",81,131389,"0.0-3.23-1.23","vj1w101v08rdd34",712,"62.csv","","null","resources/maskTrios/BT1B.jpg","null","",NA,NA,NA,NA,""
"image-keyboard-response",82,132591,"0.0-3.23-2.23","vj1w101v08rdd34",712,"62.csv","","null","resources/images/coin2.png","null","",NA,NA,NA,NA,""
"image-keyboard-response",83,134143,"0.0-3.24-0.24","vj1w101v08rdd34",712,"62.csv","","1551","resources/trios/L4T4A3.jpg","37","restless",0.3,0.8,0.7,0.839644368282886,"false"
"image-keyboard-response",84,134546,"0.0-3.24-1.24","vj1w101v08rdd34",712,"62.csv","","null","resources/maskTrios/L4BB.jpg","null","",NA,NA,NA,NA,""
"image-keyboard-response",85,135748,"0.0-3.24-2.24","vj1w101v08rdd34",712,"62.csv","","null","resources/images/fishbone.png","null","",NA,NA,NA,NA,""
"image-keyboard-response",86,136404,"0.0-3.25-0.25","vj1w101v08rdd34",712,"62.csv","","655","resources/trios/L1T4A3.jpg","39","restless",0.4,0.8,0.8,0.651295788609508,"true"
"image-keyboard-response",87,136806,"0.0-3.25-1.25","vj1w101v08rdd34",712,"62.csv","","null","resources/maskTrios/BBA3.jpg","null","",NA,NA,NA,NA,""
"image-keyboard-response",88,138009,"0.0-3.25-2.25","vj1w101v08rdd34",712,"62.csv","","null","resources/images/coin2.png","null","",NA,NA,NA,NA,""
"image-keyboard-response",89,138305,"0.0-3.26-0.26","vj1w101v08rdd34",712,"62.csv","","295.0000000000291","resources/trios/L4T1A3.jpg","39","restless",0.4,0.8,0.7,0.0326214650105581,"true"
"image-keyboard-response",90,138707,"0.0-3.26-1.26","vj1w101v08rdd34",712,"62.csv","","null","resources/maskTrios/BBA3.jpg","null","",NA,NA,NA,NA,""
"image-keyboard-response",91,139910,"0.0-3.26-2.26","vj1w101v08rdd34",712,"62.csv","","null","resources/images/coin2.png","null","",NA,NA,NA,NA,""
"image-keyboard-response",92,140528,"0.0-3.27-0.27","vj1w101v08rdd34",712,"62.csv","","617","resources/trios/L1T4A3.jpg","39","restless",0.4,0.8,0.7,0.858552020079395,"false"
"image-keyboard-response",93,140930,"0.0-3.27-1.27","vj1w101v08rdd34",712,"62.csv","","null","resources/maskTrios/BBA3.jpg","null","",NA,NA,NA,NA,""
"image-keyboard-response",94,142132,"0.0-3.27-2.27","vj1w101v08rdd34",712,"62.csv","","null","resources/images/fishbone.png","null","",NA,NA,NA,NA,""
"image-keyboard-response",95,142457,"0.0-3.28-0.28","vj1w101v08rdd34",712,"62.csv","","324","resources/trios/L4T4A1.jpg","38","restless",0.4,0.8,0.7,0.732102859903005,"true"
"image-keyboard-response",96,142859,"0.0-3.28-1.28","vj1w101v08rdd34",712,"62.csv","","null","resources/maskTrios/BT4B.jpg","null","",NA,NA,NA,NA,""
"image-keyboard-response",97,144062,"0.0-3.28-2.28","vj1w101v08rdd34",712,"62.csv","","null","resources/images/coin2.png","null","",NA,NA,NA,NA,""
"image-keyboard-response",98,144516,"0.0-3.29-0.29","vj1w101v08rdd34",712,"62.csv","","453","resources/trios/L1T4A3.jpg","38","restless",0.4,0.8,0.7,0.140410243298022,"true"
"image-keyboard-response",99,144918,"0.0-3.29-1.29","vj1w101v08rdd34",712,"62.csv","","null","resources/maskTrios/BT4B.jpg","null","",NA,NA,NA,NA,""
"image-keyboard-response",100,146121,"0.0-3.29-2.29","vj1w101v08rdd34",712,"62.csv","","null","resources/images/coin2.png","null","",NA,NA,NA,NA,""
"image-keyboard-response",101,146461,"0.0-3.30-0.30","vj1w101v08rdd34",712,"62.csv","","339","resources/trios/L1T1A1.jpg","38","restless",0.4,0.8,0.7,0.477505563038712,"true"
"image-keyboard-response",102,146864,"0.0-3.30-1.30","vj1w101v08rdd34",712,"62.csv","","null","resources/maskTrios/BT1B.jpg","null","",NA,NA,NA,NA,""
"image-keyboard-response",103,148066,"0.0-3.30-2.30","vj1w101v08rdd34",712,"62.csv","","null","resources/images/coin2.png","null","",NA,NA,NA,NA,""
"image-keyboard-response",104,148393,"0.0-3.31-0.31","vj1w101v08rdd34",712,"62.csv","","325.9999999999709","resources/trios/L1T1A3.jpg","38","restless",0.4,0.8,0.7,0.799266730007399,"true"
"image-keyboard-response",105,148795,"0.0-3.31-1.31","vj1w101v08rdd34",712,"62.csv","","null","resources/maskTrios/BT1B.jpg","null","",NA,NA,NA,NA,""
"image-keyboard-response",106,149997,"0.0-3.31-2.31","vj1w101v08rdd34",712,"62.csv","","null","resources/images/coin2.png","null","",NA,NA,NA,NA,""
"image-keyboard-response",107,150373,"0.0-3.32-0.32","vj1w101v08rdd34",712,"62.csv","","375","resources/trios/L1T4A3.jpg","38","restless",0.4,0.8,0.7,0.926564657243441,"false"
"image-keyboard-response",108,150775,"0.0-3.32-1.32","vj1w101v08rdd34",712,"62.csv","","null","resources/maskTrios/BT4B.jpg","null","",NA,NA,NA,NA,""
"image-keyboard-response",109,151978,"0.0-3.32-2.32","vj1w101v08rdd34",712,"62.csv","","null","resources/images/fishbone.png","null","",NA,NA,NA,NA,""
"image-keyboard-response",110,152330,"0.0-3.33-0.33","vj1w101v08rdd34",712,"62.csv","","350.0000000000291","resources/trios/L1T4A3.jpg","37","restless",0.4,0.8,0.7,0.767566586020413,"false"
"image-keyboard-response",111,152732,"0.0-3.33-1.33","vj1w101v08rdd34",712,"62.csv","","null","resources/maskTrios/L1BB.jpg","null","",NA,NA,NA,NA,""
"image-keyboard-response",112,153934,"0.0-3.33-2.33","vj1w101v08rdd34",712,"62.csv","","null","resources/images/fishbone.png","null","",NA,NA,NA,NA,""
"image-keyboard-response",113,154213,"0.0-3.34-0.34","vj1w101v08rdd34",712,"62.csv","","278","resources/trios/L4T1A1.jpg","39","restless",0.4,0.8,0.6,0.499814162320362,"true"
"image-keyboard-response",114,154616,"0.0-3.34-1.34","vj1w101v08rdd34",712,"62.csv","","null","resources/maskTrios/BBA1.jpg","null","",NA,NA,NA,NA,""
"image-keyboard-response",115,155820,"0.0-3.34-2.34","vj1w101v08rdd34",712,"62.csv","","null","resources/images/coin2.png","null","",NA,NA,NA,NA,""
"image-keyboard-response",116,156085,"0.0-3.35-0.35","vj1w101v08rdd34",712,"62.csv","","262","resources/trios/L1T4A3.jpg","39","restless",0.4,0.8,0.6,0.588344054541618,"true"
"image-keyboard-response",117,156487,"0.0-3.35-1.35","vj1w101v08rdd34",712,"62.csv","","null","resources/maskTrios/BBA3.jpg","null","",NA,NA,NA,NA,""
"image-keyboard-response",118,157690,"0.0-3.35-2.35","vj1w101v08rdd34",712,"62.csv","","null","resources/images/coin2.png","null","",NA,NA,NA,NA,""
"image-keyboard-response",119,157940,"0.0-3.36-0.36","vj1w101v08rdd34",712,"62.csv","","249","resources/trios/L4T1A3.jpg","39","restless",0.4,0.8,0.6,0.954213322044003,"false"
"image-keyboard-response",120,158343,"0.0-3.36-1.36","vj1w101v08rdd34",712,"62.csv","","null","resources/maskTrios/BBA3.jpg","null","",NA,NA,NA,NA,""
"image-keyboard-response",121,159544,"0.0-3.36-2.36","vj1w101v08rdd34",712,"62.csv","","null","resources/images/fishbone.png","null","",NA,NA,NA,NA,""
"image-keyboard-response",122,160456,"0.0-3.37-0.37","vj1w101v08rdd34",712,"62.csv","","911","resources/trios/L4T4A1.jpg","37","restless",0.4,0.8,0.6,0.283711630283694,"true"
"image-keyboard-response",123,160858,"0.0-3.37-1.37","vj1w101v08rdd34",712,"62.csv","","null","resources/maskTrios/L4BB.jpg","null","",NA,NA,NA,NA,""
"image-keyboard-response",124,162060,"0.0-3.37-2.37","vj1w101v08rdd34",712,"62.csv","","null","resources/images/coin2.png","null","",NA,NA,NA,NA,""
"image-keyboard-response",125,162345,"0.0-3.38-0.38","vj1w101v08rdd34",712,"62.csv","","283.9999999999709","resources/trios/L4T4A3.jpg","37","restless",0.4,0.8,0.6,0.6697880027446,"false"
"image-keyboard-response",126,162748,"0.0-3.38-1.38","vj1w101v08rdd34",712,"62.csv","","null","resources/maskTrios/L4BB.jpg","null","",NA,NA,NA,NA,""
"image-keyboard-response",127,163950,"0.0-3.38-2.38","vj1w101v08rdd34",712,"62.csv","","null","resources/images/fishbone.png","null","",NA,NA,NA,NA,""
"image-keyboard-response",128,164247,"0.0-3.39-0.39","vj1w101v08rdd34",712,"62.csv","","296","resources/trios/L4T4A1.jpg","38","restless",0.4,0.8,0.6,0.905697938619007,"false"
"image-keyboard-response",129,164650,"0.0-3.39-1.39","vj1w101v08rdd34",712,"62.csv","","null","resources/maskTrios/BT4B.jpg","null","",NA,NA,NA,NA,""
"image-keyboard-response",130,165852,"0.0-3.39-2.39","vj1w101v08rdd34",712,"62.csv","","null","resources/images/fishbone.png","null","",NA,NA,NA,NA,""
"image-keyboard-response",131,166161,"0.0-3.40-0.40","vj1w101v08rdd34",712,"62.csv","","307.9999999999709","resources/trios/L1T1A3.jpg","39","restless",0.3,0.8,0.6,0.30760580278675,"true"
"image-keyboard-response",132,166563,"0.0-3.40-1.40","vj1w101v08rdd34",712,"62.csv","","null","resources/maskTrios/BBA3.jpg","null","",NA,NA,NA,NA,""
"image-keyboard-response",133,167766,"0.0-3.40-2.40","vj1w101v08rdd34",712,"62.csv","","null","resources/images/coin2.png","null","",NA,NA,NA,NA,""
"image-keyboard-response",134,168068,"0.0-3.41-0.41","vj1w101v08rdd34",712,"62.csv","","301","resources/trios/L1T4A1.jpg","39","restless",0.3,0.8,0.6,0.130036381236376,"true"
"image-keyboard-response",135,168470,"0.0-3.41-1.41","vj1w101v08rdd34",712,"62.csv","","null","resources/maskTrios/BBA1.jpg","null","",NA,NA,NA,NA,""
"image-keyboard-response",136,169672,"0.0-3.41-2.41","vj1w101v08rdd34",712,"62.csv","","null","resources/images/coin2.png","null","",NA,NA,NA,NA,""
"image-keyboard-response",137,169994,"0.0-3.42-0.42","vj1w101v08rdd34",712,"62.csv","","321","resources/trios/L1T4A1.jpg","39","restless",0.3,0.8,0.6,0.377470187592447,"true"
"image-keyboard-response",138,170396,"0.0-3.42-1.42","vj1w101v08rdd34",712,"62.csv","","null","resources/maskTrios/BBA1.jpg","null","",NA,NA,NA,NA,""
"image-keyboard-response",139,171598,"0.0-3.42-2.42","vj1w101v08rdd34",712,"62.csv","","null","resources/images/coin2.png","null","",NA,NA,NA,NA,""
"image-keyboard-response",140,171956,"0.0-3.43-0.43","vj1w101v08rdd34",712,"62.csv","","356","resources/trios/L4T4A3.jpg","39","restless",0.3,0.8,0.6,0.641457027974572,"false"
"image-keyboard-response",141,172360,"0.0-3.43-1.43","vj1w101v08rdd34",712,"62.csv","","null","resources/maskTrios/BBA3.jpg","null","",NA,NA,NA,NA,""
"image-keyboard-response",142,173562,"0.0-3.43-2.43","vj1w101v08rdd34",712,"62.csv","","null","resources/images/fishbone.png","null","",NA,NA,NA,NA,""
"image-keyboard-response",143,173938,"0.0-3.44-0.44","vj1w101v08rdd34",712,"62.csv","","368","resources/trios/L4T4A3.jpg","37","restless",0.3,0.8,0.6,0.54239028158781,"false"
"image-keyboard-response",144,174340,"0.0-3.44-1.44","vj1w101v08rdd34",712,"62.csv","","null","resources/maskTrios/L4BB.jpg","null","",NA,NA,NA,NA,""
"image-keyboard-response",145,175543,"0.0-3.44-2.44","vj1w101v08rdd34",712,"62.csv","","null","resources/images/fishbone.png","null","",NA,NA,NA,NA,""
"image-keyboard-response",146,176649,"0.0-3.45-0.45","vj1w101v08rdd34",712,"62.csv","","1104","resources/trios/L4T1A1.jpg","38","restless",0.3,0.8,0.6,0.941286736847469,"false"
"image-keyboard-response",147,177051,"0.0-3.45-1.45","vj1w101v08rdd34",712,"62.csv","","null","resources/maskTrios/BT1B.jpg","null","",NA,NA,NA,NA,""
"image-keyboard-response",148,178253,"0.0-3.45-2.45","vj1w101v08rdd34",712,"62.csv","","null","resources/images/fishbone.png","null","",NA,NA,NA,NA,""
"image-keyboard-response",149,178549,"0.0-3.46-0.46","vj1w101v08rdd34",712,"62.csv","","294","resources/trios/L4T4A3.jpg","38","restless",0.3,0.8,0.6,0.187135396271981,"true"
"image-keyboard-response",150,178951,"0.0-3.46-1.46","vj1w101v08rdd34",712,"62.csv","","null","resources/maskTrios/BT4B.jpg","null","",NA,NA,NA,NA,""
"image-keyboard-response",151,180153,"0.0-3.46-2.46","vj1w101v08rdd34",712,"62.csv","","null","resources/images/coin2.png","null","",NA,NA,NA,NA,""
"image-keyboard-response",152,180492,"0.0-3.47-0.47","vj1w101v08rdd34",712,"62.csv","","337","resources/trios/L1T1A3.jpg","38","restless",0.3,0.9,0.6,0.634714680465656,"true"
"image-keyboard-response",153,180894,"0.0-3.47-1.47","vj1w101v08rdd34",712,"62.csv","","null","resources/maskTrios/BT1B.jpg","null","",NA,NA,NA,NA,""
"image-keyboard-response",154,182097,"0.0-3.47-2.47","vj1w101v08rdd34",712,"62.csv","","null","resources/images/coin2.png","null","",NA,NA,NA,NA,""
"image-keyboard-response",155,182425,"0.0-3.48-0.48","vj1w101v08rdd34",712,"62.csv","","327","resources/trios/L1T4A3.jpg","38","restless",0.3,0.9,0.6,0.0751402485636408,"true"
"image-keyboard-response",156,182828,"0.0-3.48-1.48","vj1w101v08rdd34",712,"62.csv","","null","resources/maskTrios/BT4B.jpg","null","",NA,NA,NA,NA,""
"image-keyboard-response",157,184030,"0.0-3.48-2.48","vj1w101v08rdd34",712,"62.csv","","null","resources/images/coin2.png","null","",NA,NA,NA,NA,""
"image-keyboard-response",158,184341,"0.0-3.49-0.49","vj1w101v08rdd34",712,"62.csv","","307.0000000000291","resources/trios/L4T4A3.jpg","38","restless",0.3,0.9,0.6,0.547017076665092,"true"
"image-keyboard-response",159,184744,"0.0-3.49-1.49","vj1w101v08rdd34",712,"62.csv","","null","resources/maskTrios/BT4B.jpg","null","",NA,NA,NA,NA,""
"image-keyboard-response",160,185946,"0.0-3.49-2.49","vj1w101v08rdd34",712,"62.csv","","null","resources/images/coin2.png","null","",NA,NA,NA,NA,""
"image-keyboard-response",161,186300,"0.0-3.50-0.50","vj1w101v08rdd34",712,"62.csv","","353","resources/trios/L4T4A3.jpg","38","restless",0.2,0.9,0.6,0.259000379880396,"true"
"image-keyboard-response",162,186703,"0.0-3.50-1.50","vj1w101v08rdd34",712,"62.csv","","null","resources/maskTrios/BT4B.jpg","null","",NA,NA,NA,NA,""
"image-keyboard-response",163,187905,"0.0-3.50-2.50","vj1w101v08rdd34",712,"62.csv","","null","resources/images/coin2.png","null","",NA,NA,NA,NA,""
"image-keyboard-response",164,188188,"0.0-3.51-0.51","vj1w101v08rdd34",712,"62.csv","","282","resources/trios/L4T1A3.jpg","38","restless",0.2,0.8,0.6,0.343537951645191,"true"
"image-keyboard-response",165,188590,"0.0-3.51-1.51","vj1w101v08rdd34",712,"62.csv","","null","resources/maskTrios/BT1B.jpg","null","",NA,NA,NA,NA,""
"image-keyboard-response",166,189793,"0.0-3.51-2.51","vj1w101v08rdd34",712,"62.csv","","null","resources/images/coin2.png","null","",NA,NA,NA,NA,""
"image-keyboard-response",167,190070,"0.0-3.52-0.52","vj1w101v08rdd34",712,"62.csv","","273","resources/trios/L1T1A3.jpg","38","restless",0.2,0.8,0.6,0.198499028658372,"true"
"image-keyboard-response",168,190472,"0.0-3.52-1.52","vj1w101v08rdd34",712,"62.csv","","null","resources/maskTrios/BT1B.jpg","null","",NA,NA,NA,NA,""
"image-keyboard-response",169,191675,"0.0-3.52-2.52","vj1w101v08rdd34",712,"62.csv","","null","resources/images/coin2.png","null","",NA,NA,NA,NA,""
"image-keyboard-response",170,191964,"0.0-3.53-0.53","vj1w101v08rdd34",712,"62.csv","","288","resources/trios/L1T4A1.jpg","38","restless",0.2,0.8,0.6,0.445457407338952,"true"
"image-keyboard-response",171,192367,"0.0-3.53-1.53","vj1w101v08rdd34",712,"62.csv","","null","resources/maskTrios/BT4B.jpg","null","",NA,NA,NA,NA,""
"image-keyboard-response",172,193569,"0.0-3.53-2.53","vj1w101v08rdd34",712,"62.csv","","null","resources/images/coin2.png","null","",NA,NA,NA,NA,""
"image-keyboard-response",173,193878,"0.0-3.54-0.54","vj1w101v08rdd34",712,"62.csv","","308","resources/trios/L4T1A3.jpg","38","restless",0.2,0.7,0.6,0.786869832055913,"false"
"image-keyboard-response",174,194280,"0.0-3.54-1.54","vj1w101v08rdd34",712,"62.csv","","null","resources/maskTrios/BT1B.jpg","null","",NA,NA,NA,NA,""
"image-keyboard-response",175,195481,"0.0-3.54-2.54","vj1w101v08rdd34",712,"62.csv","","null","resources/images/fishbone.png","null","",NA,NA,NA,NA,""
"image-keyboard-response",176,195839,"0.0-3.55-0.55","vj1w101v08rdd34",712,"62.csv","","357","resources/trios/L1T1A1.jpg","39","restless",0.2,0.7,0.6,0.201100610788481,"true"
"image-keyboard-response",177,196241,"0.0-3.55-1.55","vj1w101v08rdd34",712,"62.csv","","null","resources/maskTrios/BBA1.jpg","null","",NA,NA,NA,NA,""
"image-keyboard-response",178,197443,"0.0-3.55-2.55","vj1w101v08rdd34",712,"62.csv","","null","resources/images/coin2.png","null","",NA,NA,NA,NA,""
"image-keyboard-response",179,197757,"0.0-3.56-0.56","vj1w101v08rdd34",712,"62.csv","","312","resources/trios/L1T4A1.jpg","39","restless",0.2,0.7,0.6,0.119433504523253,"true"
"image-keyboard-response",180,198159,"0.0-3.56-1.56","vj1w101v08rdd34",712,"62.csv","","null","resources/maskTrios/BBA1.jpg","null","",NA,NA,NA,NA,""
"image-keyboard-response",181,199361,"0.0-3.56-2.56","vj1w101v08rdd34",712,"62.csv","","null","resources/images/coin2.png","null","",NA,NA,NA,NA,""
"image-keyboard-response",182,199783,"0.0-3.57-0.57","vj1w101v08rdd34",712,"62.csv","","420","resources/trios/L4T1A1.jpg","39","restless",0.3,0.7,0.6,0.938418572087172,"false"
"image-keyboard-response",183,200185,"0.0-3.57-1.57","vj1w101v08rdd34",712,"62.csv","","null","resources/maskTrios/BBA1.jpg","null","",NA,NA,NA,NA,""
"image-keyboard-response",184,201387,"0.0-3.57-2.57","vj1w101v08rdd34",712,"62.csv","","null","resources/images/fishbone.png","null","",NA,NA,NA,NA,""
"image-keyboard-response",185,201724,"0.0-3.58-0.58","vj1w101v08rdd34",712,"62.csv","","335","resources/trios/L4T1A3.jpg","38","restless",0.3,0.7,0.6,0.302478671474586,"true"
"image-keyboard-response",186,202126,"0.0-3.58-1.58","vj1w101v08rdd34",712,"62.csv","","null","resources/maskTrios/BT1B.jpg","null","",NA,NA,NA,NA,""
"image-keyboard-response",187,203328,"0.0-3.58-2.58","vj1w101v08rdd34",712,"62.csv","","null","resources/images/coin2.png","null","",NA,NA,NA,NA,""
"image-keyboard-response",188,203831,"0.0-3.59-0.59","vj1w101v08rdd34",712,"62.csv","","501.9999999999709","resources/trios/L1T1A3.jpg","38","restless",0.3,0.6,0.6,0.764921165659929,"false"
"image-keyboard-response",189,204234,"0.0-3.59-1.59","vj1w101v08rdd34",712,"62.csv","","null","resources/maskTrios/BT1B.jpg","null","",NA,NA,NA,NA,""
"image-keyboard-response",190,205436,"0.0-3.59-2.59","vj1w101v08rdd34",712,"62.csv","","null","resources/images/fishbone.png","null","",NA,NA,NA,NA,""
"image-keyboard-response",191,205695,"0.0-3.60-0.60","vj1w101v08rdd34",712,"62.csv","","257","resources/trios/L4T4A1.jpg","37","restless",0.3,0.6,0.6,0.458513816971938,"false"
"image-keyboard-response",192,206097,"0.0-3.60-1.60","vj1w101v08rdd34",712,"62.csv","","null","resources/maskTrios/L4BB.jpg","null","",NA,NA,NA,NA,""
"image-keyboard-response",193,207298,"0.0-3.60-2.60","vj1w101v08rdd34",712,"62.csv","","null","resources/images/fishbone.png","null","",NA,NA,NA,NA,""
"image-keyboard-response",194,207993,"0.0-3.61-0.61","vj1w101v08rdd34",712,"62.csv","","693.9999999999709","resources/trios/L4T1A3.jpg","37","restless",0.4,0.6,0.7,0.6032409316554,"false"
"image-keyboard-response",195,208394,"0.0-3.61-1.61","vj1w101v08rdd34",712,"62.csv","","null","resources/maskTrios/L4BB.jpg","null","",NA,NA,NA,NA,""
"image-keyboard-response",196,209596,"0.0-3.61-2.61","vj1w101v08rdd34",712,"62.csv","","null","resources/images/fishbone.png","null","",NA,NA,NA,NA,""
"image-keyboard-response",197,210010,"0.0-3.62-0.62","vj1w101v08rdd34",712,"62.csv","","411","resources/trios/L1T1A1.jpg","38","restless",0.4,0.6,0.7,0.422661030946569,"true"
"image-keyboard-response",198,210413,"0.0-3.62-1.62","vj1w101v08rdd34",712,"62.csv","","null","resources/maskTrios/BT1B.jpg","null","",NA,NA,NA,NA,""
"image-keyboard-response",199,211614,"0.0-3.62-2.62","vj1w101v08rdd34",712,"62.csv","","null","resources/images/coin2.png","null","",NA,NA,NA,NA,""
"image-keyboard-response",200,211956,"0.0-3.63-0.63","vj1w101v08rdd34",712,"62.csv","","337","resources/trios/L1T4A1.jpg","38","restless",0.4,0.6,0.7,0.049425900594852,"true"
"image-keyboard-response",201,212359,"0.0-3.63-1.63","vj1w101v08rdd34",712,"62.csv","","null","resources/maskTrios/BT4B.jpg","null","",NA,NA,NA,NA,""
"image-keyboard-response",202,213561,"0.0-3.63-2.63","vj1w101v08rdd34",712,"62.csv","","null","resources/images/coin2.png","null","",NA,NA,NA,NA,""
"image-keyboard-response",203,213941,"0.0-3.64-0.64","vj1w101v08rdd34",712,"62.csv","","379","resources/trios/L4T4A1.jpg","38","restless",0.4,0.6,0.7,0.592961814839517,"true"
"image-keyboard-response",204,214343,"0.0-3.64-1.64","vj1w101v08rdd34",712,"62.csv","","null","resources/maskTrios/BT4B.jpg","null","",NA,NA,NA,NA,""
"image-keyboard-response",205,215545,"0.0-3.64-2.64","vj1w101v08rdd34",712,"62.csv","","null","resources/images/coin2.png","null","",NA,NA,NA,NA,""
"image-keyboard-response",206,215844,"0.0-3.65-0.65","vj1w101v08rdd34",712,"62.csv","","298","resources/trios/L4T4A3.jpg","38","restless",0.5,0.6,0.7,0.603934806256628,"false"
"image-keyboard-response",207,216246,"0.0-3.65-1.65","vj1w101v08rdd34",712,"62.csv","","null","resources/maskTrios/BT4B.jpg","null","",NA,NA,NA,NA,""
"image-keyboard-response",208,217449,"0.0-3.65-2.65","vj1w101v08rdd34",712,"62.csv","","null","resources/images/fishbone.png","null","",NA,NA,NA,NA,""
"image-keyboard-response",209,217827,"0.0-3.66-0.66","vj1w101v08rdd34",712,"62.csv","","378","resources/trios/L1T4A3.jpg","39","restless",0.5,0.6,0.7,0.0466909429326897,"true"
"image-keyboard-response",210,218228,"0.0-3.66-1.66","vj1w101v08rdd34",712,"62.csv","","null","resources/maskTrios/BBA3.jpg","null","",NA,NA,NA,NA,""
"image-keyboard-response",211,219429,"0.0-3.66-2.66","vj1w101v08rdd34",712,"62.csv","","null","resources/images/coin2.png","null","",NA,NA,NA,NA,""
"image-keyboard-response",212,219754,"0.0-3.67-0.67","vj1w101v08rdd34",712,"62.csv","","325","resources/trios/L4T1A3.jpg","39","restless",0.5,0.6,0.7,0.745534091861075,"false"
"image-keyboard-response",213,220156,"0.0-3.67-1.67","vj1w101v08rdd34",712,"62.csv","","null","resources/maskTrios/BBA3.jpg","null","",NA,NA,NA,NA,""
"image-keyboard-response",214,221359,"0.0-3.67-2.67","vj1w101v08rdd34",712,"62.csv","","null","resources/images/fishbone.png","null","",NA,NA,NA,NA,""
"image-keyboard-response",215,221422,"0.0-3.68-0.68","vj1w101v08rdd34",712,"62.csv","","61","resources/trios/L1T1A1.jpg","37","restless",0.5,0.6,0.7,0.467962393168521,"true"
"image-keyboard-response",216,221823,"0.0-3.68-1.68","vj1w101v08rdd34",712,"62.csv","","null","resources/maskTrios/L1BB.jpg","null","",NA,NA,NA,NA,""
"image-keyboard-response",217,223026,"0.0-3.68-2.68","vj1w101v08rdd34",712,"62.csv","","null","resources/images/coin2.png","null","",NA,NA,NA,NA,""
"image-keyboard-response",218,223295,"0.0-3.69-0.69","vj1w101v08rdd34",712,"62.csv","","267","resources/trios/L1T4A3.jpg","38","restless",0.5,0.6,0.7,0.548326476801005,"true"
"image-keyboard-response",219,223697,"0.0-3.69-1.69","vj1w101v08rdd34",712,"62.csv","","null","resources/maskTrios/BT4B.jpg","null","",NA,NA,NA,NA,""
"image-keyboard-response",220,224899,"0.0-3.69-2.69","vj1w101v08rdd34",712,"62.csv","","null","resources/images/coin2.png","null","",NA,NA,NA,NA,""
"image-keyboard-response",221,225242,"0.0-3.70-0.70","vj1w101v08rdd34",712,"62.csv","","340.9999999999709","resources/trios/L1T1A1.jpg","38","restless",0.5,0.6,0.7,0.607314161321587,"false"
"image-keyboard-response",222,225645,"0.0-3.70-1.70","vj1w101v08rdd34",712,"62.csv","","null","resources/maskTrios/BT1B.jpg","null","",NA,NA,NA,NA,""
"image-keyboard-response",223,226847,"0.0-3.70-2.70","vj1w101v08rdd34",712,"62.csv","","null","resources/images/fishbone.png","null","",NA,NA,NA,NA,""
"image-keyboard-response",224,227140,"0.0-3.71-0.71","vj1w101v08rdd34",712,"62.csv","","290.0000000000291","resources/trios/L1T1A1.jpg","39","restless",0.5,0.6,0.7,0.218168201976223,"true"
"image-keyboard-response",225,227542,"0.0-3.71-1.71","vj1w101v08rdd34",712,"62.csv","","null","resources/maskTrios/BBA1.jpg","null","",NA,NA,NA,NA,""
"image-keyboard-response",226,228744,"0.0-3.71-2.71","vj1w101v08rdd34",712,"62.csv","","null","resources/images/coin2.png","null","",NA,NA,NA,NA,""
"image-keyboard-response",227,229054,"0.0-3.72-0.72","vj1w101v08rdd34",712,"62.csv","","308","resources/trios/L1T4A3.jpg","39","restless",0.5,0.6,0.6,0.554282297726676,"true"
"image-keyboard-response",228,229456,"0.0-3.72-1.72","vj1w101v08rdd34",712,"62.csv","","null","resources/maskTrios/BBA3.jpg","null","",NA,NA,NA,NA,""
"image-keyboard-response",229,230658,"0.0-3.72-2.72","vj1w101v08rdd34",712,"62.csv","","null","resources/images/coin2.png","null","",NA,NA,NA,NA,""
"image-keyboard-response",230,231182,"0.0-3.73-0.73","vj1w101v08rdd34",712,"62.csv","","523","resources/trios/L4T1A3.jpg","39","restless",0.5,0.6,0.6,0.462067880682452,"true"
"image-keyboard-response",231,231584,"0.0-3.73-1.73","vj1w101v08rdd34",712,"62.csv","","null","resources/maskTrios/BBA3.jpg","null","",NA,NA,NA,NA,""
"image-keyboard-response",232,232787,"0.0-3.73-2.73","vj1w101v08rdd34",712,"62.csv","","null","resources/images/coin2.png","null","",NA,NA,NA,NA,""
"image-keyboard-response",233,232996,"0.0-3.74-0.74","vj1w101v08rdd34",712,"62.csv","","208.0000000000291","resources/trios/L4T1A1.jpg","39","restless",0.6,0.6,0.6,0.907988823028432,"false"
"image-keyboard-response",234,233399,"0.0-3.74-1.74","vj1w101v08rdd34",712,"62.csv","","null","resources/maskTrios/BBA1.jpg","null","",NA,NA,NA,NA,""
"image-keyboard-response",235,234601,"0.0-3.74-2.74","vj1w101v08rdd34",712,"62.csv","","null","resources/images/fishbone.png","null","",NA,NA,NA,NA,""
"image-keyboard-response",236,235208,"0.0-3.75-0.75","vj1w101v08rdd34",712,"62.csv","","606","resources/trios/L1T4A1.jpg","38","restless",0.6,0.6,0.6,0.591441744511562,"true"
"image-keyboard-response",237,235611,"0.0-3.75-1.75","vj1w101v08rdd34",712,"62.csv","","null","resources/maskTrios/BT4B.jpg","null","",NA,NA,NA,NA,""
"image-keyboard-response",238,236813,"0.0-3.75-2.75","vj1w101v08rdd34",712,"62.csv","","null","resources/images/coin2.png","null","",NA,NA,NA,NA,""
"image-keyboard-response",239,237032,"0.0-3.76-0.76","vj1w101v08rdd34",712,"62.csv","","218.0000000000291","resources/trios/L4T1A1.jpg","38","restless",0.6,0.6,0.6,0.482763942109176,"true"
"image-keyboard-response",240,237436,"0.0-3.76-1.76","vj1w101v08rdd34",712,"62.csv","","null","resources/maskTrios/BT1B.jpg","null","",NA,NA,NA,NA,""
"image-keyboard-response",241,238638,"0.0-3.76-2.76","vj1w101v08rdd34",712,"62.csv","","null","resources/images/coin2.png","null","",NA,NA,NA,NA,""
"image-keyboard-response",242,238874,"0.0-3.77-0.77","vj1w101v08rdd34",712,"62.csv","","234.9999999999709","resources/trios/L4T1A1.jpg","38","restless",0.6,0.6,0.6,0.145625550085548,"true"
"image-keyboard-response",243,239276,"0.0-3.77-1.77","vj1w101v08rdd34",712,"62.csv","","null","resources/maskTrios/BT1B.jpg","null","",NA,NA,NA,NA,""
"image-keyboard-response",244,240478,"0.0-3.77-2.77","vj1w101v08rdd34",712,"62.csv","","null","resources/images/coin2.png","null","",NA,NA,NA,NA,""
"image-keyboard-response",245,240781,"0.0-3.78-0.78","vj1w101v08rdd34",712,"62.csv","","298","resources/trios/L1T1A3.jpg","38","restless",0.6,0.6,0.6,0.352224561673804,"true"
"image-keyboard-response",246,241184,"0.0-3.78-1.78","vj1w101v08rdd34",712,"62.csv","","null","resources/maskTrios/BT1B.jpg","null","",NA,NA,NA,NA,""
"image-keyboard-response",247,242387,"0.0-3.78-2.78","vj1w101v08rdd34",712,"62.csv","","null","resources/images/coin2.png","null","",NA,NA,NA,NA,""
"image-keyboard-response",248,242642,"0.0-3.79-0.79","vj1w101v08rdd34",712,"62.csv","","254","resources/trios/L4T4A1.jpg","38","restless",0.6,0.5,0.6,0.630355672970372,"false"
"image-keyboard-response",249,243045,"0.0-3.79-1.79","vj1w101v08rdd34",712,"62.csv","","null","resources/maskTrios/BT4B.jpg","null","",NA,NA,NA,NA,""
"image-keyboard-response",250,244247,"0.0-3.79-2.79","vj1w101v08rdd34",712,"62.csv","","null","resources/images/fishbone.png","null","",NA,NA,NA,NA,""
"image-keyboard-response",251,244410,"0.0-3.80-0.80","vj1w101v08rdd34",712,"62.csv","","161","resources/trios/L1T4A3.jpg","37","restless",0.6,0.5,0.6,0.596961928742353,"true"
"image-keyboard-response",252,244812,"0.0-3.80-1.80","vj1w101v08rdd34",712,"62.csv","","null","resources/maskTrios/L1BB.jpg","null","",NA,NA,NA,NA,""
"image-keyboard-response",253,246014,"0.0-3.80-2.80","vj1w101v08rdd34",712,"62.csv","","null","resources/images/coin2.png","null","",NA,NA,NA,NA,""
"image-keyboard-response",254,246257,"0.0-3.81-0.81","vj1w101v08rdd34",712,"62.csv","","241","resources/trios/L4T1A3.jpg","37","restless",0.7,0.5,0.6,0.780225592338705,"false"
"image-keyboard-response",255,246659,"0.0-3.81-1.81","vj1w101v08rdd34",712,"62.csv","","null","resources/maskTrios/L4BB.jpg","null","",NA,NA,NA,NA,""
"image-keyboard-response",256,247861,"0.0-3.81-2.81","vj1w101v08rdd34",712,"62.csv","","null","resources/images/fishbone.png","null","",NA,NA,NA,NA,""
"image-keyboard-response",257,248212,"0.0-3.82-0.82","vj1w101v08rdd34",712,"62.csv","","349","resources/trios/L1T4A3.jpg","39","restless",0.7,0.4,0.5,0.640943262976544,"false"
"image-keyboard-response",258,248614,"0.0-3.82-1.82","vj1w101v08rdd34",712,"62.csv","","null","resources/maskTrios/BBA3.jpg","null","",NA,NA,NA,NA,""
"image-keyboard-response",259,249816,"0.0-3.82-2.82","vj1w101v08rdd34",712,"62.csv","","null","resources/images/fishbone.png","null","",NA,NA,NA,NA,""
"image-keyboard-response",260,250081,"0.0-3.83-0.83","vj1w101v08rdd34",712,"62.csv","","262.9999999999709","resources/trios/L1T1A1.jpg","39","restless",0.7,0.3,0.5,0.556735228781908,"false"
"image-keyboard-response",261,250483,"0.0-3.83-1.83","vj1w101v08rdd34",712,"62.csv","","null","resources/maskTrios/BBA1.jpg","null","",NA,NA,NA,NA,""
"image-keyboard-response",262,251685,"0.0-3.83-2.83","vj1w101v08rdd34",712,"62.csv","","null","resources/images/fishbone.png","null","",NA,NA,NA,NA,""
"image-keyboard-response",263,251819,"0.0-3.84-0.84","vj1w101v08rdd34",712,"62.csv","","132.9999999999709","resources/trios/L1T4A3.jpg","37","restless",0.7,0.3,0.5,0.135536260678102,"true"
"image-keyboard-response",264,252221,"0.0-3.84-1.84","vj1w101v08rdd34",712,"62.csv","","null","resources/maskTrios/L1BB.jpg","null","",NA,NA,NA,NA,""
"image-keyboard-response",265,253424,"0.0-3.84-2.84","vj1w101v08rdd34",712,"62.csv","","null","resources/images/coin2.png","null","",NA,NA,NA,NA,""
"image-keyboard-response",266,253745,"0.0-3.85-0.85","vj1w101v08rdd34",712,"62.csv","","319.9999999999709","resources/trios/L4T4A3.jpg","37","restless",0.7,0.3,0.5,0.0477904748998893,"true"
"image-keyboard-response",267,254148,"0.0-3.85-1.85","vj1w101v08rdd34",712,"62.csv","","null","resources/maskTrios/L4BB.jpg","null","",NA,NA,NA,NA,""
"image-keyboard-response",268,255352,"0.0-3.85-2.85","vj1w101v08rdd34",712,"62.csv","","null","resources/images/coin2.png","null","",NA,NA,NA,NA,""
"image-keyboard-response",269,255719,"0.0-3.86-0.86","vj1w101v08rdd34",712,"62.csv","","366.0000000000291","resources/trios/L1T4A3.jpg","37","restless",0.6,0.3,0.5,0.956842509314044,"false"
"image-keyboard-response",270,256122,"0.0-3.86-1.86","vj1w101v08rdd34",712,"62.csv","","null","resources/maskTrios/L1BB.jpg","null","",NA,NA,NA,NA,""
"image-keyboard-response",271,257324,"0.0-3.86-2.86","vj1w101v08rdd34",712,"62.csv","","null","resources/images/fishbone.png","null","",NA,NA,NA,NA,""
"image-keyboard-response",272,257525,"0.0-3.87-0.87","vj1w101v08rdd34",712,"62.csv","","197","resources/trios/L1T1A1.jpg","38","restless",0.6,0.3,0.5,0.257171676102538,"true"
"image-keyboard-response",273,257928,"0.0-3.87-1.87","vj1w101v08rdd34",712,"62.csv","","null","resources/maskTrios/BT1B.jpg","null","",NA,NA,NA,NA,""
"image-keyboard-response",274,259131,"0.0-3.87-2.87","vj1w101v08rdd34",712,"62.csv","","null","resources/images/coin2.png","null","",NA,NA,NA,NA,""
"image-keyboard-response",275,259392,"0.0-3.88-0.88","vj1w101v08rdd34",712,"62.csv","","260.0000000000582","resources/trios/L1T1A3.jpg","38","restless",0.6,0.3,0.5,0.593958856359268,"false"
"image-keyboard-response",276,259795,"0.0-3.88-1.88","vj1w101v08rdd34",712,"62.csv","","null","resources/maskTrios/BT1B.jpg","null","",NA,NA,NA,NA,""
"image-keyboard-response",277,260997,"0.0-3.88-2.88","vj1w101v08rdd34",712,"62.csv","","null","resources/images/fishbone.png","null","",NA,NA,NA,NA,""
"image-keyboard-response",278,261236,"0.0-3.89-0.89","vj1w101v08rdd34",712,"62.csv","","238","resources/trios/L1T1A1.jpg","39","restless",0.6,0.3,0.6,0.790265473312408,"false"
"image-keyboard-response",279,261638,"0.0-3.89-1.89","vj1w101v08rdd34",712,"62.csv","","null","resources/maskTrios/BBA1.jpg","null","",NA,NA,NA,NA,""
"image-keyboard-response",280,262841,"0.0-3.89-2.89","vj1w101v08rdd34",712,"62.csv","","null","resources/images/fishbone.png","null","",NA,NA,NA,NA,""
"image-keyboard-response",281,263113,"0.0-3.90-0.90","vj1w101v08rdd34",712,"62.csv","","272","resources/trios/L4T1A1.jpg","37","restless",0.6,0.4,0.5,0.85362470587269,"false"
"image-keyboard-response",282,263515,"0.0-3.90-1.90","vj1w101v08rdd34",712,"62.csv","","null","resources/maskTrios/L4BB.jpg","null","",NA,NA,NA,NA,""
"image-keyboard-response",283,264716,"0.0-3.90-2.90","vj1w101v08rdd34",712,"62.csv","","null","resources/images/fishbone.png","null","",NA,NA,NA,NA,""
"image-keyboard-response",284,265014,"0.0-3.91-0.91","vj1w101v08rdd34",712,"62.csv","","297","resources/trios/L4T4A1.jpg","38","restless",0.6,0.4,0.5,0.19957365396101,"true"
"image-keyboard-response",285,265417,"0.0-3.91-1.91","vj1w101v08rdd34",712,"62.csv","","null","resources/maskTrios/BT4B.jpg","null","",NA,NA,NA,NA,""
"image-keyboard-response",286,266619,"0.0-3.91-2.91","vj1w101v08rdd34",712,"62.csv","","null","resources/images/coin2.png","null","",NA,NA,NA,NA,""
"image-keyboard-response",287,266894,"0.0-3.92-0.92","vj1w101v08rdd34",712,"62.csv","","274","resources/trios/L1T4A1.jpg","38","restless",0.6,0.4,0.5,0.751134548707717,"false"
"image-keyboard-response",288,267296,"0.0-3.92-1.92","vj1w101v08rdd34",712,"62.csv","","null","resources/maskTrios/BT4B.jpg","null","",NA,NA,NA,NA,""
"image-keyboard-response",289,268499,"0.0-3.92-2.92","vj1w101v08rdd34",712,"62.csv","","null","resources/images/fishbone.png","null","",NA,NA,NA,NA,""
"image-keyboard-response",290,268728,"0.0-3.93-0.93","vj1w101v08rdd34",712,"62.csv","","226","resources/trios/L4T1A3.jpg","39","restless",0.6,0.4,0.4,0.775602496038663,"false"
"image-keyboard-response",291,269130,"0.0-3.93-1.93","vj1w101v08rdd34",712,"62.csv","","null","resources/maskTrios/BBA3.jpg","null","",NA,NA,NA,NA,""
"image-keyboard-response",292,270332,"0.0-3.93-2.93","vj1w101v08rdd34",712,"62.csv","","null","resources/images/fishbone.png","null","",NA,NA,NA,NA,""
"image-keyboard-response",293,270532,"0.0-3.94-0.94","vj1w101v08rdd34",712,"62.csv","","199","resources/trios/L1T1A1.jpg","39","restless",0.6,0.3,0.4,0.623989527171301,"false"
"image-keyboard-response",294,270934,"0.0-3.94-1.94","vj1w101v08rdd34",712,"62.csv","","null","resources/maskTrios/BBA1.jpg","null","",NA,NA,NA,NA,""
"image-keyboard-response",295,272136,"0.0-3.94-2.94","vj1w101v08rdd34",712,"62.csv","","null","resources/images/fishbone.png","null","",NA,NA,NA,NA,""
"image-keyboard-response",296,272162,"0.0-3.95-0.95","vj1w101v08rdd34",712,"62.csv","","25","resources/trios/L1T1A3.jpg","37","restless",0.5,0.3,0.4,0.789367774374203,"false"
"image-keyboard-response",297,272566,"0.0-3.95-1.95","vj1w101v08rdd34",712,"62.csv","","null","resources/maskTrios/L1BB.jpg","null","",NA,NA,NA,NA,""
"image-keyboard-response",298,273768,"0.0-3.95-2.95","vj1w101v08rdd34",712,"62.csv","","null","resources/images/fishbone.png","null","",NA,NA,NA,NA,""
"image-keyboard-response",299,274081,"0.0-3.96-0.96","vj1w101v08rdd34",712,"62.csv","","310","resources/trios/L1T1A3.jpg","37","restless",0.5,0.3,0.4,0.649410078116821,"false"
"image-keyboard-response",300,274483,"0.0-3.96-1.96","vj1w101v08rdd34",712,"62.csv","","null","resources/maskTrios/L1BB.jpg","null","",NA,NA,NA,NA,""
"image-keyboard-response",301,275686,"0.0-3.96-2.96","vj1w101v08rdd34",712,"62.csv","","null","resources/images/fishbone.png","null","",NA,NA,NA,NA,""
"image-keyboard-response",302,276061,"0.0-3.97-0.97","vj1w101v08rdd34",712,"62.csv","","373","resources/trios/L4T4A3.jpg","39","restless",0.5,0.3,0.4,0.390053450785271,"true"
"image-keyboard-response",303,276463,"0.0-3.97-1.97","vj1w101v08rdd34",712,"62.csv","","null","resources/maskTrios/BBA3.jpg","null","",NA,NA,NA,NA,""
"image-keyboard-response",304,277665,"0.0-3.97-2.97","vj1w101v08rdd34",712,"62.csv","","null","resources/images/coin2.png","null","",NA,NA,NA,NA,""
"image-keyboard-response",305,277996,"0.0-3.98-0.98","vj1w101v08rdd34",712,"62.csv","","329","resources/trios/L1T1A1.jpg","39","restless",0.5,0.3,0.4,0.507475775409865,"false"
"image-keyboard-response",306,278399,"0.0-3.98-1.98","vj1w101v08rdd34",712,"62.csv","","null","resources/maskTrios/BBA1.jpg","null","",NA,NA,NA,NA,""
"image-keyboard-response",307,279601,"0.0-3.98-2.98","vj1w101v08rdd34",712,"62.csv","","null","resources/images/fishbone.png","null","",NA,NA,NA,NA,""
"image-keyboard-response",308,279844,"0.0-3.99-0.99","vj1w101v08rdd34",712,"62.csv","","241","resources/trios/L4T1A3.jpg","38","restless",0.5,0.3,0.4,0.36359652153914,"false"
"image-keyboard-response",309,280246,"0.0-3.99-1.99","vj1w101v08rdd34",712,"62.csv","","null","resources/maskTrios/BT1B.jpg","null","",NA,NA,NA,NA,""
"image-keyboard-response",310,281448,"0.0-3.99-2.99","vj1w101v08rdd34",712,"62.csv","","null","resources/images/fishbone.png","null","",NA,NA,NA,NA,""
"image-keyboard-response",311,281808,"0.0-3.100-0.100","vj1w101v08rdd34",712,"62.csv","","359.0000000000582","resources/trios/L4T4A3.jpg","37","restless",0.6,0.3,0.3,0.732017238700811,"false"
"image-keyboard-response",312,282210,"0.0-3.100-1.100","vj1w101v08rdd34",712,"62.csv","","null","resources/maskTrios/L4BB.jpg","null","",NA,NA,NA,NA,""
"image-keyboard-response",313,283413,"0.0-3.100-2.100","vj1w101v08rdd34",712,"62.csv","","null","resources/images/fishbone.png","null","",NA,NA,NA,NA,""
"image-keyboard-response",314,283707,"0.0-3.101-0.101","vj1w101v08rdd34",712,"62.csv","","294.0000000000582","resources/trios/L4T4A3.jpg","38","restless",0.6,0.3,0.3,0.148470146024574,"true"
"image-keyboard-response",315,284109,"0.0-3.101-1.101","vj1w101v08rdd34",712,"62.csv","","null","resources/maskTrios/BT4B.jpg","null","",NA,NA,NA,NA,""
"image-keyboard-response",316,285312,"0.0-3.101-2.101","vj1w101v08rdd34",712,"62.csv","","null","resources/images/coin2.png","null","",NA,NA,NA,NA,""
"image-keyboard-response",317,285795,"0.0-3.102-0.102","vj1w101v08rdd34",712,"62.csv","","482","resources/trios/L4T1A3.jpg","38","restless",0.6,0.3,0.2,0.736736628246636,"false"
"image-keyboard-response",318,286200,"0.0-3.102-1.102","vj1w101v08rdd34",712,"62.csv","","null","resources/maskTrios/BT1B.jpg","null","",NA,NA,NA,NA,""
"image-keyboard-response",319,287401,"0.0-3.102-2.102","vj1w101v08rdd34",712,"62.csv","","null","resources/images/fishbone.png","null","",NA,NA,NA,NA,""
"image-keyboard-response",320,287709,"0.0-3.103-0.103","vj1w101v08rdd34",712,"62.csv","","306","resources/trios/L4T1A1.jpg","39","restless",0.6,0.3,0.2,0.730204012866743,"false"
"image-keyboard-response",321,288111,"0.0-3.103-1.103","vj1w101v08rdd34",712,"62.csv","","null","resources/maskTrios/BBA1.jpg","null","",NA,NA,NA,NA,""
"image-keyboard-response",322,289313,"0.0-3.103-2.103","vj1w101v08rdd34",712,"62.csv","","null","resources/images/fishbone.png","null","",NA,NA,NA,NA,""
"image-keyboard-response",323,289636,"0.0-3.104-0.104","vj1w101v08rdd34",712,"62.csv","","323","resources/trios/L4T4A3.jpg","39","restless",0.6,0.3,0.2,0.237595508252136,"false"
"image-keyboard-response",324,290038,"0.0-3.104-1.104","vj1w101v08rdd34",712,"62.csv","","null","resources/maskTrios/BBA3.jpg","null","",NA,NA,NA,NA,""
"image-keyboard-response",325,291241,"0.0-3.104-2.104","vj1w101v08rdd34",712,"62.csv","","null","resources/images/fishbone.png","null","",NA,NA,NA,NA,""
"image-keyboard-response",326,291516,"0.0-3.105-0.105","vj1w101v08rdd34",712,"62.csv","","275","resources/trios/L1T1A1.jpg","39","restless",0.6,0.3,0.2,0.58156350259228,"false"
"image-keyboard-response",327,291922,"0.0-3.105-1.105","vj1w101v08rdd34",712,"62.csv","","null","resources/maskTrios/BBA1.jpg","null","",NA,NA,NA,NA,""
"image-keyboard-response",328,293124,"0.0-3.105-2.105","vj1w101v08rdd34",712,"62.csv","","null","resources/images/fishbone.png","null","",NA,NA,NA,NA,""
"image-keyboard-response",329,293430,"0.0-3.106-0.106","vj1w101v08rdd34",712,"62.csv","","304","resources/trios/L1T1A3.jpg","39","restless",0.6,0.3,0.2,0.746010420039442,"false"
"image-keyboard-response",330,293832,"0.0-3.106-1.106","vj1w101v08rdd34",712,"62.csv","","null","resources/maskTrios/BBA3.jpg","null","",NA,NA,NA,NA,""
"image-keyboard-response",331,295035,"0.0-3.106-2.106","vj1w101v08rdd34",712,"62.csv","","null","resources/images/fishbone.png","null","",NA,NA,NA,NA,""
"image-keyboard-response",332,295335,"0.0-3.107-0.107","vj1w101v08rdd34",712,"62.csv","","298","resources/trios/L1T1A3.jpg","39","restless",0.6,0.3,0.2,0.494526963887347,"false"
"image-keyboard-response",333,295737,"0.0-3.107-1.107","vj1w101v08rdd34",712,"62.csv","","null","resources/maskTrios/BBA3.jpg","null","",NA,NA,NA,NA,""
"image-keyboard-response",334,296939,"0.0-3.107-2.107","vj1w101v08rdd34",712,"62.csv","","null","resources/images/fishbone.png","null","",NA,NA,NA,NA,""
"image-keyboard-response",335,297407,"0.0-3.108-0.108","vj1w101v08rdd34",712,"62.csv","","465.9999999999418","resources/trios/L1T4A3.jpg","37","restless",0.6,0.2,0.2,0.290995230617883,"true"
"image-keyboard-response",336,297809,"0.0-3.108-1.108","vj1w101v08rdd34",712,"62.csv","","null","resources/maskTrios/L1BB.jpg","null","",NA,NA,NA,NA,""
"image-keyboard-response",337,299012,"0.0-3.108-2.108","vj1w101v08rdd34",712,"62.csv","","null","resources/images/coin2.png","null","",NA,NA,NA,NA,""
"image-keyboard-response",338,299366,"0.0-3.109-0.109","vj1w101v08rdd34",712,"62.csv","","352","resources/trios/L1T4A3.jpg","37","restless",0.6,0.2,0.2,0.619582336570794,"false"
"image-keyboard-response",339,299768,"0.0-3.109-1.109","vj1w101v08rdd34",712,"62.csv","","null","resources/maskTrios/L1BB.jpg","null","",NA,NA,NA,NA,""
"image-keyboard-response",340,300970,"0.0-3.109-2.109","vj1w101v08rdd34",712,"62.csv","","null","resources/images/fishbone.png","null","",NA,NA,NA,NA,""
"image-keyboard-response",341,301270,"0.0-3.110-0.110","vj1w101v08rdd34",712,"62.csv","","299","resources/trios/L4T1A1.jpg","37","restless",0.6,0.2,0.2,0.245429293110039,"true"
"image-keyboard-response",342,301673,"0.0-3.110-1.110","vj1w101v08rdd34",712,"62.csv","","null","resources/maskTrios/L4BB.jpg","null","",NA,NA,NA,NA,""
"image-keyboard-response",343,302875,"0.0-3.110-2.110","vj1w101v08rdd34",712,"62.csv","","null","resources/images/coin2.png","null","",NA,NA,NA,NA,""
"image-keyboard-response",344,303181,"0.0-3.111-0.111","vj1w101v08rdd34",712,"62.csv","","305","resources/trios/L1T4A1.jpg","37","restless",0.6,0.2,0.2,0.0570111831485804,"true"
"image-keyboard-response",345,303583,"0.0-3.111-1.111","vj1w101v08rdd34",712,"62.csv","","null","resources/maskTrios/L1BB.jpg","null","",NA,NA,NA,NA,""
"image-keyboard-response",346,304786,"0.0-3.111-2.111","vj1w101v08rdd34",712,"62.csv","","null","resources/images/coin2.png","null","",NA,NA,NA,NA,""
"image-keyboard-response",347,305082,"0.0-3.112-0.112","vj1w101v08rdd34",712,"62.csv","","292","resources/trios/L1T4A3.jpg","37","restless",0.6,0.2,0.2,0.457417693897463,"true"
"image-keyboard-response",348,305484,"0.0-3.112-1.112","vj1w101v08rdd34",712,"62.csv","","null","resources/maskTrios/L1BB.jpg","null","",NA,NA,NA,NA,""
"image-keyboard-response",349,306687,"0.0-3.112-2.112","vj1w101v08rdd34",712,"62.csv","","null","resources/images/coin2.png","null","",NA,NA,NA,NA,""
"image-keyboard-response",350,307028,"0.0-3.113-0.113","vj1w101v08rdd34",712,"62.csv","","341","resources/trios/L1T1A1.jpg","37","restless",0.6,0.2,0.2,0.765967926565447,"false"
"image-keyboard-response",351,307430,"0.0-3.113-1.113","vj1w101v08rdd34",712,"62.csv","","null","resources/maskTrios/L1BB.jpg","null","",NA,NA,NA,NA,""
"image-keyboard-response",352,308632,"0.0-3.113-2.113","vj1w101v08rdd34",712,"62.csv","","null","resources/images/fishbone.png","null","",NA,NA,NA,NA,""
"image-keyboard-response",353,308911,"0.0-3.114-0.114","vj1w101v08rdd34",712,"62.csv","","274","resources/trios/L1T4A1.jpg","37","restless",0.6,0.2,0.2,0.162210170524481,"true"
"image-keyboard-response",354,309313,"0.0-3.114-1.114","vj1w101v08rdd34",712,"62.csv","","null","resources/maskTrios/L1BB.jpg","null","",NA,NA,NA,NA,""
"image-keyboard-response",355,310515,"0.0-3.114-2.114","vj1w101v08rdd34",712,"62.csv","","null","resources/images/coin2.png","null","",NA,NA,NA,NA,""
"image-keyboard-response",356,310890,"0.0-3.115-0.115","vj1w101v08rdd34",712,"62.csv","","374","resources/trios/L4T4A3.jpg","37","restless",0.6,0.2,0.2,0.881673298616531,"false"
"image-keyboard-response",357,311293,"0.0-3.115-1.115","vj1w101v08rdd34",712,"62.csv","","null","resources/maskTrios/L4BB.jpg","null","",NA,NA,NA,NA,""
"image-keyboard-response",358,312495,"0.0-3.115-2.115","vj1w101v08rdd34",712,"62.csv","","null","resources/images/fishbone.png","null","",NA,NA,NA,NA,""
"image-keyboard-response",359,313004,"0.0-3.116-0.116","vj1w101v08rdd34",712,"62.csv","","508","resources/trios/L1T1A1.jpg","38","restless",0.6,0.2,0.2,0.480960474322312,"false"
"image-keyboard-response",360,313407,"0.0-3.116-1.116","vj1w101v08rdd34",712,"62.csv","","null","resources/maskTrios/BT1B.jpg","null","",NA,NA,NA,NA,""
"image-keyboard-response",361,314609,"0.0-3.116-2.116","vj1w101v08rdd34",712,"62.csv","","null","resources/images/fishbone.png","null","",NA,NA,NA,NA,""
"image-keyboard-response",362,314876,"0.0-3.117-0.117","vj1w101v08rdd34",712,"62.csv","","265","resources/trios/L4T1A3.jpg","38","restless",0.5,0.2,0.2,0.407345763558601,"false"
"image-keyboard-response",363,315278,"0.0-3.117-1.117","vj1w101v08rdd34",712,"62.csv","","null","resources/maskTrios/BT1B.jpg","null","",NA,NA,NA,NA,""
"image-keyboard-response",364,316480,"0.0-3.117-2.117","vj1w101v08rdd34",712,"62.csv","","null","resources/images/fishbone.png","null","",NA,NA,NA,NA,""
"image-keyboard-response",365,316746,"0.0-3.118-0.118","vj1w101v08rdd34",712,"62.csv","","263.9999999999418","resources/trios/L4T1A3.jpg","38","restless",0.5,0.2,0.2,0.264904917804041,"false"
"image-keyboard-response",366,317148,"0.0-3.118-1.118","vj1w101v08rdd34",712,"62.csv","","null","resources/maskTrios/BT1B.jpg","null","",NA,NA,NA,NA,""
"image-keyboard-response",367,318351,"0.0-3.118-2.118","vj1w101v08rdd34",712,"62.csv","","null","resources/images/fishbone.png","null","",NA,NA,NA,NA,""
"image-keyboard-response",368,318619,"0.0-3.119-0.119","vj1w101v08rdd34",712,"62.csv","","267.0000000000582","resources/trios/L4T1A1.jpg","38","restless",0.5,0.2,0.2,0.987861747660462,"false"
"image-keyboard-response",369,319021,"0.0-3.119-1.119","vj1w101v08rdd34",712,"62.csv","","null","resources/maskTrios/BT1B.jpg","null","",NA,NA,NA,NA,""
"image-keyboard-response",370,320223,"0.0-3.119-2.119","vj1w101v08rdd34",712,"62.csv","","null","resources/images/fishbone.png","null","",NA,NA,NA,NA,""
"image-keyboard-response",371,320457,"0.0-3.120-0.120","vj1w101v08rdd34",712,"62.csv","","232","resources/trios/L4T4A1.jpg","38","restless",0.5,0.2,0.3,0.871399975800467,"false"
"image-keyboard-response",372,320859,"0.0-3.120-1.120","vj1w101v08rdd34",712,"62.csv","","null","resources/maskTrios/BT4B.jpg","null","",NA,NA,NA,NA,""
"image-keyboard-response",373,322061,"0.0-3.120-2.120","vj1w101v08rdd34",712,"62.csv","","null","resources/images/fishbone.png","null","",NA,NA,NA,NA,""
"image-keyboard-response",374,322369,"0.0-3.121-0.121","vj1w101v08rdd34",712,"62.csv","","306.0000000000582","resources/trios/L1T4A1.jpg","39","restless",0.5,0.2,0.3,0.121258301424549,"true"
"image-keyboard-response",375,322771,"0.0-3.121-1.121","vj1w101v08rdd34",712,"62.csv","","null","resources/maskTrios/BBA1.jpg","null","",NA,NA,NA,NA,""
"image-keyboard-response",376,323973,"0.0-3.121-2.121","vj1w101v08rdd34",712,"62.csv","","null","resources/images/coin2.png","null","",NA,NA,NA,NA,""
"image-keyboard-response",377,324226,"0.0-3.122-0.122","vj1w101v08rdd34",712,"62.csv","","252","resources/trios/L4T1A1.jpg","39","restless",0.5,0.2,0.3,0.224457191378836,"true"
"image-keyboard-response",378,324632,"0.0-3.122-1.122","vj1w101v08rdd34",712,"62.csv","","null","resources/maskTrios/BBA1.jpg","null","",NA,NA,NA,NA,""
"image-keyboard-response",379,325834,"0.0-3.122-2.122","vj1w101v08rdd34",712,"62.csv","","null","resources/images/coin2.png","null","",NA,NA,NA,NA,""
"image-keyboard-response",380,326132,"0.0-3.123-0.123","vj1w101v08rdd34",712,"62.csv","","296","resources/trios/L1T4A1.jpg","39","restless",0.5,0.2,0.3,0.255625013032929,"true"
"image-keyboard-response",381,326534,"0.0-3.123-1.123","vj1w101v08rdd34",712,"62.csv","","null","resources/maskTrios/BBA1.jpg","null","",NA,NA,NA,NA,""
"image-keyboard-response",382,327736,"0.0-3.123-2.123","vj1w101v08rdd34",712,"62.csv","","null","resources/images/coin2.png","null","",NA,NA,NA,NA,""
"image-keyboard-response",383,328051,"0.0-3.124-0.124","vj1w101v08rdd34",712,"62.csv","","313","resources/trios/L4T4A1.jpg","39","restless",0.5,0.2,0.3,0.218158138806468,"true"
"image-keyboard-response",384,328452,"0.0-3.124-1.124","vj1w101v08rdd34",712,"62.csv","","null","resources/maskTrios/BBA1.jpg","null","",NA,NA,NA,NA,""
"image-keyboard-response",385,329654,"0.0-3.124-2.124","vj1w101v08rdd34",712,"62.csv","","null","resources/images/coin2.png","null","",NA,NA,NA,NA,""
"image-keyboard-response",386,329894,"0.0-3.125-0.125","vj1w101v08rdd34",712,"62.csv","","239","resources/trios/L1T1A1.jpg","39","restless",0.5,0.2,0.2,0.884777520864218,"false"
"image-keyboard-response",387,330296,"0.0-3.125-1.125","vj1w101v08rdd34",712,"62.csv","","null","resources/maskTrios/BBA1.jpg","null","",NA,NA,NA,NA,""
"image-keyboard-response",388,331498,"0.0-3.125-2.125","vj1w101v08rdd34",712,"62.csv","","null","resources/images/fishbone.png","null","",NA,NA,NA,NA,""
"image-keyboard-response",389,331806,"0.0-3.126-0.126","vj1w101v08rdd34",712,"62.csv","","306","resources/trios/L1T4A3.jpg","39","restless",0.5,0.2,0.2,0.222150379016327,"false"
"image-keyboard-response",390,332208,"0.0-3.126-1.126","vj1w101v08rdd34",712,"62.csv","","null","resources/maskTrios/BBA3.jpg","null","",NA,NA,NA,NA,""
"image-keyboard-response",391,333410,"0.0-3.126-2.126","vj1w101v08rdd34",712,"62.csv","","null","resources/images/fishbone.png","null","",NA,NA,NA,NA,""
"image-keyboard-response",392,333792,"0.0-3.127-0.127","vj1w101v08rdd34",712,"62.csv","","381","resources/trios/L1T1A3.jpg","38","restless",0.5,0.2,0.3,0.885126059149125,"false"
"image-keyboard-response",393,334195,"0.0-3.127-1.127","vj1w101v08rdd34",712,"62.csv","","null","resources/maskTrios/BT1B.jpg","null","",NA,NA,NA,NA,""
"image-keyboard-response",394,335397,"0.0-3.127-2.127","vj1w101v08rdd34",712,"62.csv","","null","resources/images/fishbone.png","null","",NA,NA,NA,NA,""
"image-keyboard-response",395,335649,"0.0-3.128-0.128","vj1w101v08rdd34",712,"62.csv","","251","resources/trios/L4T1A1.jpg","38","restless",0.5,0.2,0.4,0.622624497746183,"false"
"image-keyboard-response",396,336052,"0.0-3.128-1.128","vj1w101v08rdd34",712,"62.csv","","null","resources/maskTrios/BT1B.jpg","null","",NA,NA,NA,NA,""
"image-keyboard-response",397,337254,"0.0-3.128-2.128","vj1w101v08rdd34",712,"62.csv","","null","resources/images/fishbone.png","null","",NA,NA,NA,NA,""
"image-keyboard-response",398,337577,"0.0-3.129-0.129","vj1w101v08rdd34",712,"62.csv","","320.9999999999418","resources/trios/L4T1A3.jpg","37","restless",0.5,0.2,0.4,0.814809785207914,"false"
"image-keyboard-response",399,337979,"0.0-3.129-1.129","vj1w101v08rdd34",712,"62.csv","","null","resources/maskTrios/L4BB.jpg","null","",NA,NA,NA,NA,""
"image-keyboard-response",400,339181,"0.0-3.129-2.129","vj1w101v08rdd34",712,"62.csv","","null","resources/images/fishbone.png","null","",NA,NA,NA,NA,""
"image-keyboard-response",401,339545,"0.0-3.130-0.130","vj1w101v08rdd34",712,"62.csv","","362","resources/trios/L1T4A3.jpg","37","restless",0.5,0.2,0.4,0.317124558664966,"true"
"image-keyboard-response",402,339947,"0.0-3.130-1.130","vj1w101v08rdd34",712,"62.csv","","null","resources/maskTrios/L1BB.jpg","null","",NA,NA,NA,NA,""
"image-keyboard-response",403,341149,"0.0-3.130-2.130","vj1w101v08rdd34",712,"62.csv","","null","resources/images/coin2.png","null","",NA,NA,NA,NA,""
"image-keyboard-response",404,341494,"0.0-3.131-0.131","vj1w101v08rdd34",712,"62.csv","","343.0000000000582","resources/trios/L4T1A3.jpg","37","restless",0.5,0.2,0.5,0.984882332705869,"false"
"image-keyboard-response",405,341896,"0.0-3.131-1.131","vj1w101v08rdd34",712,"62.csv","","null","resources/maskTrios/L4BB.jpg","null","",NA,NA,NA,NA,""
"image-keyboard-response",406,343099,"0.0-3.131-2.131","vj1w101v08rdd34",712,"62.csv","","null","resources/images/fishbone.png","null","",NA,NA,NA,NA,""
"image-keyboard-response",407,343383,"0.0-3.132-0.132","vj1w101v08rdd34",712,"62.csv","","283","resources/trios/L1T1A1.jpg","38","restless",0.5,0.2,0.5,0.128390657542338,"true"
"image-keyboard-response",408,343784,"0.0-3.132-1.132","vj1w101v08rdd34",712,"62.csv","","null","resources/maskTrios/BT1B.jpg","null","",NA,NA,NA,NA,""
"image-keyboard-response",409,344987,"0.0-3.132-2.132","vj1w101v08rdd34",712,"62.csv","","null","resources/images/coin2.png","null","",NA,NA,NA,NA,""
"image-keyboard-response",410,345281,"0.0-3.133-0.133","vj1w101v08rdd34",712,"62.csv","","293","resources/trios/L1T4A1.jpg","38","restless",0.5,0.2,0.5,0.322724387603525,"false"
"image-keyboard-response",411,345683,"0.0-3.133-1.133","vj1w101v08rdd34",712,"62.csv","","null","resources/maskTrios/BT4B.jpg","null","",NA,NA,NA,NA,""
"image-keyboard-response",412,346885,"0.0-3.133-2.133","vj1w101v08rdd34",712,"62.csv","","null","resources/images/fishbone.png","null","",NA,NA,NA,NA,""
"image-keyboard-response",413,347149,"0.0-3.134-0.134","vj1w101v08rdd34",712,"62.csv","","262","resources/trios/L1T1A3.jpg","39","restless",0.4,0.2,0.5,0.542489285315807,"false"
"image-keyboard-response",414,347551,"0.0-3.134-1.134","vj1w101v08rdd34",712,"62.csv","","null","resources/maskTrios/BBA3.jpg","null","",NA,NA,NA,NA,""
"image-keyboard-response",415,348753,"0.0-3.134-2.134","vj1w101v08rdd34",712,"62.csv","","null","resources/images/fishbone.png","null","",NA,NA,NA,NA,""
"image-keyboard-response",416,349085,"0.0-3.135-0.135","vj1w101v08rdd34",712,"62.csv","","330","resources/trios/L1T4A3.jpg","39","restless",0.4,0.2,0.5,0.906838402364331,"false"
"image-keyboard-response",417,349487,"0.0-3.135-1.135","vj1w101v08rdd34",712,"62.csv","","null","resources/maskTrios/BBA3.jpg","null","",NA,NA,NA,NA,""
"image-keyboard-response",418,350689,"0.0-3.135-2.135","vj1w101v08rdd34",712,"62.csv","","null","resources/images/fishbone.png","null","",NA,NA,NA,NA,""
"image-keyboard-response",419,351157,"0.0-3.136-0.136","vj1w101v08rdd34",712,"62.csv","","465.9999999999418","resources/trios/L4T4A1.jpg","39","restless",0.4,0.2,0.5,0.407559115980823,"true"
"image-keyboard-response",420,351559,"0.0-3.136-1.136","vj1w101v08rdd34",712,"62.csv","","null","resources/maskTrios/BBA1.jpg","null","",NA,NA,NA,NA,""
"image-keyboard-response",421,352761,"0.0-3.136-2.136","vj1w101v08rdd34",712,"62.csv","","null","resources/images/coin2.png","null","",NA,NA,NA,NA,""
"image-keyboard-response",422,353117,"0.0-3.137-0.137","vj1w101v08rdd34",712,"62.csv","","355","resources/trios/L4T4A1.jpg","39","restless",0.3,0.2,0.5,0.502541256014666,"false"
"image-keyboard-response",423,353522,"0.0-3.137-1.137","vj1w101v08rdd34",712,"62.csv","","null","resources/maskTrios/BBA1.jpg","null","",NA,NA,NA,NA,""
"image-keyboard-response",424,354725,"0.0-3.137-2.137","vj1w101v08rdd34",712,"62.csv","","null","resources/images/fishbone.png","null","",NA,NA,NA,NA,""
"image-keyboard-response",425,355083,"0.0-3.138-0.138","vj1w101v08rdd34",712,"62.csv","","353","resources/trios/L1T1A3.jpg","37","restless",0.3,0.2,0.5,0.0135443289041031,"true"
"image-keyboard-response",426,355486,"0.0-3.138-1.138","vj1w101v08rdd34",712,"62.csv","","null","resources/maskTrios/L1BB.jpg","null","",NA,NA,NA,NA,""
"image-keyboard-response",427,356687,"0.0-3.138-2.138","vj1w101v08rdd34",712,"62.csv","","null","resources/images/coin2.png","null","",NA,NA,NA,NA,""
"image-keyboard-response",428,357050,"0.0-3.139-0.139","vj1w101v08rdd34",712,"62.csv","","361","resources/trios/L1T1A3.jpg","38","restless",0.3,0.2,0.5,0.382901474268999,"false"
"image-keyboard-response",429,357453,"0.0-3.139-1.139","vj1w101v08rdd34",712,"62.csv","","null","resources/maskTrios/BT1B.jpg","null","",NA,NA,NA,NA,""
"image-keyboard-response",430,358655,"0.0-3.139-2.139","vj1w101v08rdd34",712,"62.csv","","null","resources/images/fishbone.png","null","",NA,NA,NA,NA,""
"image-keyboard-response",431,358685,"0.0-3.140-0.140","vj1w101v08rdd34",712,"62.csv","","28","resources/trios/L1T1A1.jpg","38","restless",0.3,0.3,0.5,0.132478863534784,"true"
"image-keyboard-response",432,359087,"0.0-3.140-1.140","vj1w101v08rdd34",712,"62.csv","","null","resources/maskTrios/BT1B.jpg","null","",NA,NA,NA,NA,""
"image-keyboard-response",433,360289,"0.0-3.140-2.140","vj1w101v08rdd34",712,"62.csv","","null","resources/images/coin2.png","null","",NA,NA,NA,NA,""
"image-keyboard-response",434,360332,"0.0-3.141-0.141","vj1w101v08rdd34",712,"62.csv","","42.00000000005821","resources/trios/L1T1A1.jpg","37","restless",0.3,0.3,0.5,0.476182612054782,"false"
"image-keyboard-response",435,360737,"0.0-3.141-1.141","vj1w101v08rdd34",712,"62.csv","","null","resources/maskTrios/L1BB.jpg","null","",NA,NA,NA,NA,""
"image-keyboard-response",436,361939,"0.0-3.141-2.141","vj1w101v08rdd34",712,"62.csv","","null","resources/images/fishbone.png","null","",NA,NA,NA,NA,""
"image-keyboard-response",437,362054,"0.0-3.142-0.142","vj1w101v08rdd34",712,"62.csv","","113","resources/trios/L4T1A1.jpg","39","restless",0.3,0.3,0.5,0.695156201783592,"false"
"image-keyboard-response",438,362456,"0.0-3.142-1.142","vj1w101v08rdd34",712,"62.csv","","null","resources/maskTrios/BBA1.jpg","null","",NA,NA,NA,NA,""
"image-keyboard-response",439,363658,"0.0-3.142-2.142","vj1w101v08rdd34",712,"62.csv","","null","resources/images/fishbone.png","null","",NA,NA,NA,NA,""
"image-keyboard-response",440,363660,"0.0-3.143-0.143","vj1w101v08rdd34",712,"62.csv","","1","resources/trios/L4T1A1.jpg","39","restless",0.3,0.3,0.5,0.310549081729729,"true"
"image-keyboard-response",441,364062,"0.0-3.143-1.143","vj1w101v08rdd34",712,"62.csv","","null","resources/maskTrios/BBA1.jpg","null","",NA,NA,NA,NA,""
"image-keyboard-response",442,365264,"0.0-3.143-2.143","vj1w101v08rdd34",712,"62.csv","","null","resources/images/coin2.png","null","",NA,NA,NA,NA,""
"image-keyboard-response",443,365394,"0.0-3.144-0.144","vj1w101v08rdd34",712,"62.csv","","129","resources/trios/L1T4A1.jpg","39","restless",0.3,0.3,0.5,0.356228253964134,"true"
"image-keyboard-response",444,365795,"0.0-3.144-1.144","vj1w101v08rdd34",712,"62.csv","","null","resources/maskTrios/BBA1.jpg","null","",NA,NA,NA,NA,""
"image-keyboard-response",445,366997,"0.0-3.144-2.144","vj1w101v08rdd34",712,"62.csv","","null","resources/images/coin2.png","null","",NA,NA,NA,NA,""
"image-keyboard-response",446,367110,"0.0-3.145-0.145","vj1w101v08rdd34",712,"62.csv","","112","resources/trios/L1T1A3.jpg","39","restless",0.4,0.3,0.5,0.512052773416145,"false"
"image-keyboard-response",447,367512,"0.0-3.145-1.145","vj1w101v08rdd34",712,"62.csv","","null","resources/maskTrios/BBA3.jpg","null","",NA,NA,NA,NA,""
"image-keyboard-response",448,368714,"0.0-3.145-2.145","vj1w101v08rdd34",712,"62.csv","","null","resources/images/fishbone.png","null","",NA,NA,NA,NA,""
"image-keyboard-response",449,368896,"0.0-3.146-0.146","vj1w101v08rdd34",712,"62.csv","","181","resources/trios/L1T1A1.jpg","37","restless",0.4,0.3,0.5,0.897323633114916,"false"
"image-keyboard-response",450,369297,"0.0-3.146-1.146","vj1w101v08rdd34",712,"62.csv","","null","resources/maskTrios/L1BB.jpg","null","",NA,NA,NA,NA,""
"image-keyboard-response",451,370499,"0.0-3.146-2.146","vj1w101v08rdd34",712,"62.csv","","null","resources/images/fishbone.png","null","",NA,NA,NA,NA,""
"image-keyboard-response",452,370661,"0.0-3.147-0.147","vj1w101v08rdd34",712,"62.csv","","160","resources/trios/L1T4A1.jpg","38","restless",0.4,0.3,0.5,0.569923103012439,"false"
"image-keyboard-response",453,371063,"0.0-3.147-1.147","vj1w101v08rdd34",712,"62.csv","","null","resources/maskTrios/BT4B.jpg","null","",NA,NA,NA,NA,""
"image-keyboard-response",454,372265,"0.0-3.147-2.147","vj1w101v08rdd34",712,"62.csv","","null","resources/images/fishbone.png","null","",NA,NA,NA,NA,""
"image-keyboard-response",455,372437,"0.0-3.148-0.148","vj1w101v08rdd34",712,"62.csv","","172","resources/trios/L4T4A1.jpg","39","restless",0.5,0.3,0.5,0.62926586751634,"false"
"image-keyboard-response",456,372840,"0.0-3.148-1.148","vj1w101v08rdd34",712,"62.csv","","null","resources/maskTrios/BBA1.jpg","null","",NA,NA,NA,NA,""
"image-keyboard-response",457,374042,"0.0-3.148-2.148","vj1w101v08rdd34",712,"62.csv","","null","resources/images/fishbone.png","null","",NA,NA,NA,NA,""
"image-keyboard-response",458,374278,"0.0-3.149-0.149","vj1w101v08rdd34",712,"62.csv","","235","resources/trios/L1T4A1.jpg","38","restless",0.5,0.3,0.5,0.786298461048722,"false"
"image-keyboard-response",459,374680,"0.0-3.149-1.149","vj1w101v08rdd34",712,"62.csv","","null","resources/maskTrios/BT4B.jpg","null","",NA,NA,NA,NA,""
"image-keyboard-response",460,375882,"0.0-3.149-2.149","vj1w101v08rdd34",712,"62.csv","","null","resources/images/fishbone.png","null","",NA,NA,NA,NA,""
"image-keyboard-response",461,376014,"0.0-3.150-0.150","vj1w101v08rdd34",712,"62.csv","","132","resources/trios/L4T4A3.jpg","38","restless",0.5,0.3,0.5,0.280859436739066,"true"
"image-keyboard-response",462,376417,"0.0-3.150-1.150","vj1w101v08rdd34",712,"62.csv","","null","resources/maskTrios/BT4B.jpg","null","",NA,NA,NA,NA,""
"image-keyboard-response",463,377619,"0.0-3.150-2.150","vj1w101v08rdd34",712,"62.csv","","null","resources/images/coin2.png","null","",NA,NA,NA,NA,""
"image-keyboard-response",464,377835,"0.0-3.151-0.151","vj1w101v08rdd34",712,"62.csv","","213","resources/trios/L4T1A3.jpg","39","restless",0.5,0.3,0.5,0.0903414654422878,"true"
"image-keyboard-response",465,378238,"0.0-3.151-1.151","vj1w101v08rdd34",712,"62.csv","","null","resources/maskTrios/BBA3.jpg","null","",NA,NA,NA,NA,""
"image-keyboard-response",466,379440,"0.0-3.151-2.151","vj1w101v08rdd34",712,"62.csv","","null","resources/images/coin2.png","null","",NA,NA,NA,NA,""
"image-keyboard-response",467,379687,"0.0-3.152-0.152","vj1w101v08rdd34",712,"62.csv","","245.9999999999418","resources/trios/L1T1A3.jpg","37","restless",0.5,0.2,0.5,0.295392407192,"true"
"image-keyboard-response",468,380089,"0.0-3.152-1.152","vj1w101v08rdd34",712,"62.csv","","null","resources/maskTrios/L1BB.jpg","null","",NA,NA,NA,NA,""
"image-keyboard-response",469,381292,"0.0-3.152-2.152","vj1w101v08rdd34",712,"62.csv","","null","resources/images/coin2.png","null","",NA,NA,NA,NA,""
"image-keyboard-response",470,381311,"0.0-3.153-0.153","vj1w101v08rdd34",712,"62.csv","","19","resources/trios/L1T4A3.jpg","39","restless",0.5,0.2,0.5,0.794507931544076,"false"
"image-keyboard-response",471,381714,"0.0-3.153-1.153","vj1w101v08rdd34",712,"62.csv","","null","resources/maskTrios/BBA3.jpg","null","",NA,NA,NA,NA,""
"image-keyboard-response",472,382916,"0.0-3.153-2.153","vj1w101v08rdd34",712,"62.csv","","null","resources/images/fishbone.png","null","",NA,NA,NA,NA,""
"image-keyboard-response",473,383075,"0.0-3.154-0.154","vj1w101v08rdd34",712,"62.csv","","158","resources/trios/L1T1A1.jpg","38","restless",0.5,0.2,0.5,0.91485921981217,"false"
"image-keyboard-response",474,383478,"0.0-3.154-1.154","vj1w101v08rdd34",712,"62.csv","","null","resources/maskTrios/BT1B.jpg","null","",NA,NA,NA,NA,""
"image-keyboard-response",475,384680,"0.0-3.154-2.154","vj1w101v08rdd34",712,"62.csv","","null","resources/images/fishbone.png","null","",NA,NA,NA,NA,""
"image-keyboard-response",476,384832,"0.0-3.155-0.155","vj1w101v08rdd34",712,"62.csv","","147","resources/trios/L4T1A3.jpg","38","restless",0.5,0.2,0.5,0.146647060064277,"true"
"image-keyboard-response",477,385234,"0.0-3.155-1.155","vj1w101v08rdd34",712,"62.csv","","null","resources/maskTrios/BT1B.jpg","null","",NA,NA,NA,NA,""
"image-keyboard-response",478,386436,"0.0-3.155-2.155","vj1w101v08rdd34",712,"62.csv","","null","resources/images/coin2.png","null","",NA,NA,NA,NA,""
"image-keyboard-response",479,386494,"0.0-3.156-0.156","vj1w101v08rdd34",712,"62.csv","","56.00000000005821","resources/trios/L1T1A1.jpg","37","restless",0.5,0.2,0.5,0.534706370778274,"false"
"image-keyboard-response",480,386896,"0.0-3.156-1.156","vj1w101v08rdd34",712,"62.csv","","null","resources/maskTrios/L1BB.jpg","null","",NA,NA,NA,NA,""
"image-keyboard-response",481,388098,"0.0-3.156-2.156","vj1w101v08rdd34",712,"62.csv","","null","resources/images/fishbone.png","null","",NA,NA,NA,NA,""
"image-keyboard-response",482,388125,"0.0-3.157-0.157","vj1w101v08rdd34",712,"62.csv","","26","resources/trios/L4T1A1.jpg","39","restless",0.5,0.2,0.5,0.568767933037858,"false"
"image-keyboard-response",483,388528,"0.0-3.157-1.157","vj1w101v08rdd34",712,"62.csv","","null","resources/maskTrios/BBA1.jpg","null","",NA,NA,NA,NA,""
"image-keyboard-response",484,389730,"0.0-3.157-2.157","vj1w101v08rdd34",712,"62.csv","","null","resources/images/fishbone.png","null","",NA,NA,NA,NA,""
"image-keyboard-response",485,389889,"0.0-3.158-0.158","vj1w101v08rdd34",712,"62.csv","","156.9999999999418","resources/trios/L4T4A1.jpg","37","restless",0.5,0.2,0.5,0.604808613982914,"false"
"image-keyboard-response",486,390290,"0.0-3.158-1.158","vj1w101v08rdd34",712,"62.csv","","null","resources/maskTrios/L4BB.jpg","null","",NA,NA,NA,NA,""
"image-keyboard-response",487,391492,"0.0-3.158-2.158","vj1w101v08rdd34",712,"62.csv","","null","resources/images/fishbone.png","null","",NA,NA,NA,NA,""
"image-keyboard-response",488,391681,"0.0-3.159-0.159","vj1w101v08rdd34",712,"62.csv","","188","resources/trios/L4T4A3.jpg","39","restless",0.5,0.2,0.5,0.772174896581764,"false"
"image-keyboard-response",489,392083,"0.0-3.159-1.159","vj1w101v08rdd34",712,"62.csv","","null","resources/maskTrios/BBA3.jpg","null","",NA,NA,NA,NA,""
"image-keyboard-response",490,393285,"0.0-3.159-2.159","vj1w101v08rdd34",712,"62.csv","","null","resources/images/fishbone.png","null","",NA,NA,NA,NA,""
"image-keyboard-response",491,393310,"0.0-3.160-0.160","vj1w101v08rdd34",712,"62.csv","","24","resources/trios/L1T4A1.jpg","37","restless",0.6,0.2,0.6,0.190086875017194,"true"
"image-keyboard-response",492,393713,"0.0-3.160-1.160","vj1w101v08rdd34",712,"62.csv","","null","resources/maskTrios/L1BB.jpg","null","",NA,NA,NA,NA,""
"image-keyboard-response",493,394916,"0.0-3.160-2.160","vj1w101v08rdd34",712,"62.csv","","null","resources/images/coin2.png","null","",NA,NA,NA,NA,""
"image-keyboard-response",494,395032,"0.0-3.161-0.161","vj1w101v08rdd34",712,"62.csv","","114.99999999994179","resources/trios/L1T4A3.jpg","38","restless",0.6,0.2,0.6,0.496758156679788,"false"
"image-keyboard-response",495,395433,"0.0-3.161-1.161","vj1w101v08rdd34",712,"62.csv","","null","resources/maskTrios/BT4B.jpg","null","",NA,NA,NA,NA,""
"image-keyboard-response",496,396636,"0.0-3.161-2.161","vj1w101v08rdd34",712,"62.csv","","null","resources/images/fishbone.png","null","",NA,NA,NA,NA,""
"image-keyboard-response",497,396664,"0.0-3.162-0.162","vj1w101v08rdd34",712,"62.csv","","28","resources/trios/L4T4A3.jpg","38","restless",0.6,0.2,0.6,0.60208626171967,"false"
"image-keyboard-response",498,397066,"0.0-3.162-1.162","vj1w101v08rdd34",712,"62.csv","","null","resources/maskTrios/BT4B.jpg","null","",NA,NA,NA,NA,""
"image-keyboard-response",499,398268,"0.0-3.162-2.162","vj1w101v08rdd34",712,"62.csv","","null","resources/images/fishbone.png","null","",NA,NA,NA,NA,""
"image-keyboard-response",500,398342,"0.0-3.163-0.163","vj1w101v08rdd34",712,"62.csv","","73","resources/trios/L4T1A1.jpg","37","restless",0.6,0.2,0.6,0.510727697474685,"true"
"image-keyboard-response",501,398744,"0.0-3.163-1.163","vj1w101v08rdd34",712,"62.csv","","null","resources/maskTrios/L4BB.jpg","null","",NA,NA,NA,NA,""
"image-keyboard-response",502,399947,"0.0-3.163-2.163","vj1w101v08rdd34",712,"62.csv","","null","resources/images/coin2.png","null","",NA,NA,NA,NA,""
"image-keyboard-response",503,400054,"0.0-3.164-0.164","vj1w101v08rdd34",712,"62.csv","","107","resources/trios/L4T4A3.jpg","38","restless",0.6,0.2,0.6,0.988998789992563,"false"
"image-keyboard-response",504,400459,"0.0-3.164-1.164","vj1w101v08rdd34",712,"62.csv","","null","resources/maskTrios/BT4B.jpg","null","",NA,NA,NA,NA,""
"image-keyboard-response",505,401662,"0.0-3.164-2.164","vj1w101v08rdd34",712,"62.csv","","null","resources/images/fishbone.png","null","",NA,NA,NA,NA,""
"image-keyboard-response",506,401670,"0.0-3.165-0.165","vj1w101v08rdd34",712,"62.csv","","6","resources/trios/L4T4A3.jpg","37","restless",0.6,0.2,0.6,0.0063928774571288,"true"
"image-keyboard-response",507,402072,"0.0-3.165-1.165","vj1w101v08rdd34",712,"62.csv","","null","resources/maskTrios/L4BB.jpg","null","",NA,NA,NA,NA,""
"image-keyboard-response",508,403275,"0.0-3.165-2.165","vj1w101v08rdd34",712,"62.csv","","null","resources/images/coin2.png","null","",NA,NA,NA,NA,""
"image-keyboard-response",509,403476,"0.0-3.166-0.166","vj1w101v08rdd34",712,"62.csv","","200","resources/trios/L1T1A3.jpg","39","restless",0.6,0.2,0.6,0.566913278755901,"true"
"image-keyboard-response",510,403879,"0.0-3.166-1.166","vj1w101v08rdd34",712,"62.csv","","null","resources/maskTrios/BBA3.jpg","null","",NA,NA,NA,NA,""
"image-keyboard-response",511,405081,"0.0-3.166-2.166","vj1w101v08rdd34",712,"62.csv","","null","resources/images/coin2.png","null","",NA,NA,NA,NA,""
"image-keyboard-response",512,405147,"0.0-3.167-0.167","vj1w101v08rdd34",712,"62.csv","","66","resources/trios/L1T1A1.jpg","39","restless",0.6,0.2,0.6,0.0780813429479355,"true"
"image-keyboard-response",513,405550,"0.0-3.167-1.167","vj1w101v08rdd34",712,"62.csv","","null","resources/maskTrios/BBA1.jpg","null","",NA,NA,NA,NA,""
"image-keyboard-response",514,406751,"0.0-3.167-2.167","vj1w101v08rdd34",712,"62.csv","","null","resources/images/coin2.png","null","",NA,NA,NA,NA,""
"image-keyboard-response",515,406819,"0.0-3.168-0.168","vj1w101v08rdd34",712,"62.csv","","67","resources/trios/L4T4A1.jpg","39","restless",0.6,0.2,0.6,0.991271865244103,"false"
"image-keyboard-response",516,407222,"0.0-3.168-1.168","vj1w101v08rdd34",712,"62.csv","","null","resources/maskTrios/BBA1.jpg","null","",NA,NA,NA,NA,""
"image-keyboard-response",517,408424,"0.0-3.168-2.168","vj1w101v08rdd34",712,"62.csv","","null","resources/images/fishbone.png","null","",NA,NA,NA,NA,""
"image-keyboard-response",518,408442,"0.0-3.169-0.169","vj1w101v08rdd34",712,"62.csv","","14","resources/trios/L4T1A1.jpg","39","restless",0.6,0.3,0.6,0.87429752870835,"false"
"image-keyboard-response",519,408845,"0.0-3.169-1.169","vj1w101v08rdd34",712,"62.csv","","null","resources/maskTrios/BBA1.jpg","null","",NA,NA,NA,NA,""
"image-keyboard-response",520,410046,"0.0-3.169-2.169","vj1w101v08rdd34",712,"62.csv","","null","resources/images/fishbone.png","null","",NA,NA,NA,NA,""
"image-keyboard-response",521,410166,"0.0-3.170-0.170","vj1w101v08rdd34",712,"62.csv","","118","resources/trios/L4T1A3.jpg","39","restless",0.6,0.3,0.6,0.909331728175841,"false"
"image-keyboard-response",522,410567,"0.0-3.170-1.170","vj1w101v08rdd34",712,"62.csv","","null","resources/maskTrios/BBA3.jpg","null","",NA,NA,NA,NA,""
"image-keyboard-response",523,411769,"0.0-3.170-2.170","vj1w101v08rdd34",712,"62.csv","","null","resources/images/fishbone.png","null","",NA,NA,NA,NA,""
"image-keyboard-response",524,411832,"0.0-3.171-0.171","vj1w101v08rdd34",712,"62.csv","","58","resources/trios/L4T1A3.jpg","39","restless",0.6,0.3,0.6,0.0767670721349385,"true"
"image-keyboard-response",525,412233,"0.0-3.171-1.171","vj1w101v08rdd34",712,"62.csv","","null","resources/maskTrios/BBA3.jpg","null","",NA,NA,NA,NA,""
"image-keyboard-response",526,413435,"0.0-3.171-2.171","vj1w101v08rdd34",712,"62.csv","","null","resources/images/coin2.png","null","",NA,NA,NA,NA,""
"image-keyboard-response",527,413621,"0.0-3.172-0.172","vj1w101v08rdd34",712,"62.csv","","184","resources/trios/L1T1A1.jpg","39","restless",0.6,0.3,0.6,0.743001542061146,"false"
"image-keyboard-response",528,414023,"0.0-3.172-1.172","vj1w101v08rdd34",712,"62.csv","","null","resources/maskTrios/BBA1.jpg","null","",NA,NA,NA,NA,""
"image-keyboard-response",529,415225,"0.0-3.172-2.172","vj1w101v08rdd34",712,"62.csv","","null","resources/images/fishbone.png","null","",NA,NA,NA,NA,""
"image-keyboard-response",530,415434,"0.0-3.173-0.173","vj1w101v08rdd34",712,"62.csv","","208.0000000000582","resources/trios/L1T4A1.jpg","39","restless",0.6,0.3,0.6,0.833522696089379,"false"
"image-keyboard-response",531,415836,"0.0-3.173-1.173","vj1w101v08rdd34",712,"62.csv","","null","resources/maskTrios/BBA1.jpg","null","",NA,NA,NA,NA,""
"image-keyboard-response",532,417038,"0.0-3.173-2.173","vj1w101v08rdd34",712,"62.csv","","null","resources/images/fishbone.png","null","",NA,NA,NA,NA,""
"image-keyboard-response",533,417095,"0.0-3.174-0.174","vj1w101v08rdd34",712,"62.csv","","55.00000000005821","resources/trios/L1T1A3.jpg","38","restless",0.6,0.4,0.6,0.480111313845887,"false"
"image-keyboard-response",534,417497,"0.0-3.174-1.174","vj1w101v08rdd34",712,"62.csv","","null","resources/maskTrios/BT1B.jpg","null","",NA,NA,NA,NA,""
"image-keyboard-response",535,418699,"0.0-3.174-2.174","vj1w101v08rdd34",712,"62.csv","","null","resources/images/fishbone.png","null","",NA,NA,NA,NA,""
"image-keyboard-response",536,418863,"0.0-3.175-0.175","vj1w101v08rdd34",712,"62.csv","","162","resources/trios/L1T1A1.jpg","37","restless",0.6,0.4,0.6,0.277112982490218,"true"
"image-keyboard-response",537,419265,"0.0-3.175-1.175","vj1w101v08rdd34",712,"62.csv","","null","resources/maskTrios/L1BB.jpg","null","",NA,NA,NA,NA,""
"image-keyboard-response",538,420467,"0.0-3.175-2.175","vj1w101v08rdd34",712,"62.csv","","null","resources/images/coin2.png","null","",NA,NA,NA,NA,""
"image-keyboard-response",539,420699,"0.0-3.176-0.176","vj1w101v08rdd34",712,"62.csv","","230","resources/trios/L4T4A3.jpg","38","restless",0.6,0.4,0.6,0.781223117037025,"false"
"image-keyboard-response",540,421103,"0.0-3.176-1.176","vj1w101v08rdd34",712,"62.csv","","null","resources/maskTrios/BT4B.jpg","null","",NA,NA,NA,NA,""
"image-keyboard-response",541,422304,"0.0-3.176-2.176","vj1w101v08rdd34",712,"62.csv","","null","resources/images/fishbone.png","null","",NA,NA,NA,NA,""
"image-keyboard-response",542,422830,"0.0-3.177-0.177","vj1w101v08rdd34",712,"62.csv","","525","resources/trios/L4T1A1.jpg","39","restless",0.6,0.4,0.6,0.448503875459558,"true"
"image-keyboard-response",543,423232,"0.0-3.177-1.177","vj1w101v08rdd34",712,"62.csv","","null","resources/maskTrios/BBA1.jpg","null","",NA,NA,NA,NA,""
"image-keyboard-response",544,424434,"0.0-3.177-2.177","vj1w101v08rdd34",712,"62.csv","","null","resources/images/coin2.png","null","",NA,NA,NA,NA,""
"image-keyboard-response",545,424935,"0.0-3.178-0.178","vj1w101v08rdd34",712,"62.csv","","500","resources/trios/L1T4A1.jpg","39","restless",0.5,0.4,0.7,0.899270877861898,"false"
"image-keyboard-response",546,425337,"0.0-3.178-1.178","vj1w101v08rdd34",712,"62.csv","","null","resources/maskTrios/BBA1.jpg","null","",NA,NA,NA,NA,""
"image-keyboard-response",547,426539,"0.0-3.178-2.178","vj1w101v08rdd34",712,"62.csv","","null","resources/images/fishbone.png","null","",NA,NA,NA,NA,""
"image-keyboard-response",548,427183,"0.0-3.179-0.179","vj1w101v08rdd34",712,"62.csv","","642","resources/trios/L1T4A1.jpg","38","restless",0.5,0.4,0.7,0.848585300551853,"false"
"image-keyboard-response",549,427586,"0.0-3.179-1.179","vj1w101v08rdd34",712,"62.csv","","null","resources/maskTrios/BT4B.jpg","null","",NA,NA,NA,NA,""
"image-keyboard-response",550,428788,"0.0-3.179-2.179","vj1w101v08rdd34",712,"62.csv","","null","resources/images/fishbone.png","null","",NA,NA,NA,NA,""
"image-keyboard-response",551,429061,"0.0-3.180-0.180","vj1w101v08rdd34",712,"62.csv","","271","resources/trios/L1T1A3.jpg","38","restless",0.5,0.4,0.7,0.907001972116628,"false"
"image-keyboard-response",552,429463,"0.0-3.180-1.180","vj1w101v08rdd34",712,"62.csv","","null","resources/maskTrios/BT1B.jpg","null","",NA,NA,NA,NA,""
"image-keyboard-response",553,430665,"0.0-3.180-2.180","vj1w101v08rdd34",712,"62.csv","","null","resources/images/fishbone.png","null","",NA,NA,NA,NA,""
"image-keyboard-response",554,431301,"0.0-3.181-0.181","vj1w101v08rdd34",712,"62.csv","","633.9999999999418","resources/trios/L1T1A1.jpg","37","restless",0.5,0.4,0.7,0.501727843476724,"false"
"image-keyboard-response",555,431704,"0.0-3.181-1.181","vj1w101v08rdd34",712,"62.csv","","null","resources/maskTrios/L1BB.jpg","null","",NA,NA,NA,NA,""
"image-keyboard-response",556,432906,"0.0-3.181-2.181","vj1w101v08rdd34",712,"62.csv","","null","resources/images/fishbone.png","null","",NA,NA,NA,NA,""
"image-keyboard-response",557,432927,"0.0-3.182-0.182","vj1w101v08rdd34",712,"62.csv","","19","resources/trios/L1T1A3.jpg","38","restless",0.5,0.4,0.7,0.317882385411358,"true"
"image-keyboard-response",558,433330,"0.0-3.182-1.182","vj1w101v08rdd34",712,"62.csv","","null","resources/maskTrios/BT1B.jpg","null","",NA,NA,NA,NA,""
"image-keyboard-response",559,434532,"0.0-3.182-2.182","vj1w101v08rdd34",712,"62.csv","","null","resources/images/coin2.png","null","",NA,NA,NA,NA,""
"image-keyboard-response",560,434831,"0.0-3.183-0.183","vj1w101v08rdd34",712,"62.csv","","298","resources/trios/L1T1A3.jpg","38","restless",0.5,0.4,0.7,0.482528177135924,"false"
"image-keyboard-response",561,435233,"0.0-3.183-1.183","vj1w101v08rdd34",712,"62.csv","","null","resources/maskTrios/BT1B.jpg","null","",NA,NA,NA,NA,""
"image-keyboard-response",562,436435,"0.0-3.183-2.183","vj1w101v08rdd34",712,"62.csv","","null","resources/images/fishbone.png","null","",NA,NA,NA,NA,""
"image-keyboard-response",563,436671,"0.0-3.184-0.184","vj1w101v08rdd34",712,"62.csv","","232","resources/trios/L1T1A3.jpg","38","restless",0.5,0.4,0.7,0.0925295088807613,"true"
"image-keyboard-response",564,437073,"0.0-3.184-1.184","vj1w101v08rdd34",712,"62.csv","","null","resources/maskTrios/BT1B.jpg","null","",NA,NA,NA,NA,""
"image-keyboard-response",565,438275,"0.0-3.184-2.184","vj1w101v08rdd34",712,"62.csv","","null","resources/images/coin2.png","null","",NA,NA,NA,NA,""
"image-keyboard-response",566,438293,"0.0-3.185-0.185","vj1w101v08rdd34",712,"62.csv","","16","resources/trios/L4T4A3.jpg","39","restless",0.5,0.3,0.7,0.52233331829078,"true"
"image-keyboard-response",567,438696,"0.0-3.185-1.185","vj1w101v08rdd34",712,"62.csv","","null","resources/maskTrios/BBA3.jpg","null","",NA,NA,NA,NA,""
"image-keyboard-response",568,439898,"0.0-3.185-2.185","vj1w101v08rdd34",712,"62.csv","","null","resources/images/coin2.png","null","",NA,NA,NA,NA,""
"image-keyboard-response",569,439926,"0.0-3.186-0.186","vj1w101v08rdd34",712,"62.csv","","26","resources/trios/L4T4A3.jpg","37","restless",0.5,0.3,0.7,0.68354667107703,"false"
"image-keyboard-response",570,440329,"0.0-3.186-1.186","vj1w101v08rdd34",712,"62.csv","","null","resources/maskTrios/L4BB.jpg","null","",NA,NA,NA,NA,""
"image-keyboard-response",571,441531,"0.0-3.186-2.186","vj1w101v08rdd34",712,"62.csv","","null","resources/images/fishbone.png","null","",NA,NA,NA,NA,""
"image-keyboard-response",572,441624,"0.0-3.187-0.187","vj1w101v08rdd34",712,"62.csv","","93","resources/trios/L1T1A3.jpg","38","restless",0.5,0.3,0.7,0.227786951778656,"true"
"image-keyboard-response",573,442026,"0.0-3.187-1.187","vj1w101v08rdd34",712,"62.csv","","null","resources/maskTrios/BT1B.jpg","null","",NA,NA,NA,NA,""
"image-keyboard-response",574,443229,"0.0-3.187-2.187","vj1w101v08rdd34",712,"62.csv","","null","resources/images/coin2.png","null","",NA,NA,NA,NA,""
"image-keyboard-response",575,443368,"0.0-3.188-0.188","vj1w101v08rdd34",712,"62.csv","","135.9999999999418","resources/trios/L4T1A1.jpg","38","restless",0.5,0.3,0.7,0.56834089944958,"false"
"image-keyboard-response",576,443770,"0.0-3.188-1.188","vj1w101v08rdd34",712,"62.csv","","null","resources/maskTrios/BT1B.jpg","null","",NA,NA,NA,NA,""
"image-keyboard-response",577,444972,"0.0-3.188-2.188","vj1w101v08rdd34",712,"62.csv","","null","resources/images/fishbone.png","null","",NA,NA,NA,NA,""
"image-keyboard-response",578,445039,"0.0-3.189-0.189","vj1w101v08rdd34",712,"62.csv","","65","resources/trios/L4T1A1.jpg","38","restless",0.5,0.3,0.7,0.277450658589104,"true"
"image-keyboard-response",579,445441,"0.0-3.189-1.189","vj1w101v08rdd34",712,"62.csv","","null","resources/maskTrios/BT1B.jpg","null","",NA,NA,NA,NA,""
"image-keyboard-response",580,446644,"0.0-3.189-2.189","vj1w101v08rdd34",712,"62.csv","","null","resources/images/coin2.png","null","",NA,NA,NA,NA,""
"image-keyboard-response",581,446967,"0.0-3.190-0.190","vj1w101v08rdd34",712,"62.csv","","322","resources/trios/L1T1A3.jpg","38","restless",0.5,0.3,0.6,0.473877873865557,"false"
"image-keyboard-response",582,447369,"0.0-3.190-1.190","vj1w101v08rdd34",712,"62.csv","","null","resources/maskTrios/BT1B.jpg","null","",NA,NA,NA,NA,""
"image-keyboard-response",583,448571,"0.0-3.190-2.190","vj1w101v08rdd34",712,"62.csv","","null","resources/images/fishbone.png","null","",NA,NA,NA,NA,""
"image-keyboard-response",584,448682,"0.0-3.191-0.191","vj1w101v08rdd34",712,"62.csv","","109","resources/trios/L4T1A1.jpg","38","restless",0.5,0.3,0.6,0.294214058948472,"true"
"image-keyboard-response",585,449084,"0.0-3.191-1.191","vj1w101v08rdd34",712,"62.csv","","null","resources/maskTrios/BT1B.jpg","null","",NA,NA,NA,NA,""
"image-keyboard-response",586,450286,"0.0-3.191-2.191","vj1w101v08rdd34",712,"62.csv","","null","resources/images/coin2.png","null","",NA,NA,NA,NA,""
"image-keyboard-response",587,450375,"0.0-3.192-0.192","vj1w101v08rdd34",712,"62.csv","","87","resources/trios/L4T1A3.jpg","37","restless",0.4,0.3,0.6,0.816835167067714,"false"
"image-keyboard-response",588,450778,"0.0-3.192-1.192","vj1w101v08rdd34",712,"62.csv","","null","resources/maskTrios/L4BB.jpg","null","",NA,NA,NA,NA,""
"image-keyboard-response",589,451980,"0.0-3.192-2.192","vj1w101v08rdd34",712,"62.csv","","null","resources/images/fishbone.png","null","",NA,NA,NA,NA,""
"image-keyboard-response",590,452010,"0.0-3.193-0.193","vj1w101v08rdd34",712,"62.csv","","29","resources/trios/L4T4A1.jpg","37","restless",0.4,0.3,0.6,0.869102637030709,"false"
"image-keyboard-response",591,452413,"0.0-3.193-1.193","vj1w101v08rdd34",712,"62.csv","","null","resources/maskTrios/L4BB.jpg","null","",NA,NA,NA,NA,""
"image-keyboard-response",592,453615,"0.0-3.193-2.193","vj1w101v08rdd34",712,"62.csv","","null","resources/images/fishbone.png","null","",NA,NA,NA,NA,""
"image-keyboard-response",593,453746,"0.0-3.194-0.194","vj1w101v08rdd34",712,"62.csv","","128","resources/trios/L1T4A1.jpg","39","restless",0.4,0.3,0.6,0.123838962496063,"true"
"image-keyboard-response",594,454148,"0.0-3.194-1.194","vj1w101v08rdd34",712,"62.csv","","null","resources/maskTrios/BBA1.jpg","null","",NA,NA,NA,NA,""
"image-keyboard-response",595,455349,"0.0-3.194-2.194","vj1w101v08rdd34",712,"62.csv","","null","resources/images/coin2.png","null","",NA,NA,NA,NA,""
"image-keyboard-response",596,455550,"0.0-3.195-0.195","vj1w101v08rdd34",712,"62.csv","","200","resources/trios/L1T4A3.jpg","39","restless",0.4,0.3,0.6,0.500930290202033,"true"
"image-keyboard-response",597,455952,"0.0-3.195-1.195","vj1w101v08rdd34",712,"62.csv","","null","resources/maskTrios/BBA3.jpg","null","",NA,NA,NA,NA,""
"image-keyboard-response",598,457154,"0.0-3.195-2.195","vj1w101v08rdd34",712,"62.csv","","null","resources/images/coin2.png","null","",NA,NA,NA,NA,""
"image-keyboard-response",599,457213,"0.0-3.196-0.196","vj1w101v08rdd34",712,"62.csv","","57","resources/trios/L4T4A3.jpg","38","restless",0.4,0.3,0.6,0.51312018921036,"false"
"image-keyboard-response",600,457618,"0.0-3.196-1.196","vj1w101v08rdd34",712,"62.csv","","null","resources/maskTrios/BT4B.jpg","null","",NA,NA,NA,NA,""
"image-keyboard-response",601,458819,"0.0-3.196-2.196","vj1w101v08rdd34",712,"62.csv","","null","resources/images/fishbone.png","null","",NA,NA,NA,NA,""
"image-keyboard-response",602,458892,"0.0-3.197-0.197","vj1w101v08rdd34",712,"62.csv","","72","resources/trios/L1T1A1.jpg","39","restless",0.4,0.3,0.6,0.00246330897117797,"true"
"image-keyboard-response",603,459294,"0.0-3.197-1.197","vj1w101v08rdd34",712,"62.csv","","null","resources/maskTrios/BBA1.jpg","null","",NA,NA,NA,NA,""
"image-keyboard-response",604,460496,"0.0-3.197-2.197","vj1w101v08rdd34",712,"62.csv","","null","resources/images/coin2.png","null","",NA,NA,NA,NA,""
"image-keyboard-response",605,460524,"0.0-3.198-0.198","vj1w101v08rdd34",712,"62.csv","","26","resources/trios/L1T4A1.jpg","38","restless",0.4,0.3,0.6,0.333836737006872,"false"
"image-keyboard-response",606,460926,"0.0-3.198-1.198","vj1w101v08rdd34",712,"62.csv","","null","resources/maskTrios/BT4B.jpg","null","",NA,NA,NA,NA,""
"image-keyboard-response",607,462128,"0.0-3.198-2.198","vj1w101v08rdd34",712,"62.csv","","null","resources/images/fishbone.png","null","",NA,NA,NA,NA,""
"image-keyboard-response",608,462136,"0.0-3.199-0.199","vj1w101v08rdd34",712,"62.csv","","7","resources/trios/L1T1A1.jpg","39","restless",0.4,0.3,0.6,0.0675773005645294,"true"
"image-keyboard-response",609,462539,"0.0-3.199-1.199","vj1w101v08rdd34",712,"62.csv","","null","resources/maskTrios/BBA1.jpg","null","",NA,NA,NA,NA,""
"image-keyboard-response",610,463744,"0.0-3.199-2.199","vj1w101v08rdd34",712,"62.csv","","null","resources/images/coin2.png","null","",NA,NA,NA,NA,""
"image-keyboard-response",611,464033,"0.0-3.200-0.200","vj1w101v08rdd34",712,"62.csv","","288","resources/trios/L4T1A3.jpg","39","restless",0.4,0.4,0.6,0.977624756999691,"false"
"image-keyboard-response",612,464435,"0.0-3.200-1.200","vj1w101v08rdd34",712,"62.csv","","null","resources/maskTrios/BBA3.jpg","null","",NA,NA,NA,NA,""
"image-keyboard-response",613,465637,"0.0-3.200-2.200","vj1w101v08rdd34",712,"62.csv","","null","resources/images/fishbone.png","null","",NA,NA,NA,NA,""
"image-keyboard-response",614,465939,"0.0-3.201-0.201","vj1w101v08rdd34",712,"62.csv","","300.9999999999418","resources/trios/L1T1A3.jpg","37","restless",0.4,0.3,0.6,0.944129591219674,"false"
"image-keyboard-response",615,466341,"0.0-3.201-1.201","vj1w101v08rdd34",712,"62.csv","","null","resources/maskTrios/L1BB.jpg","null","",NA,NA,NA,NA,""
"image-keyboard-response",616,467543,"0.0-3.201-2.201","vj1w101v08rdd34",712,"62.csv","","null","resources/images/fishbone.png","null","",NA,NA,NA,NA,""
"image-keyboard-response",617,467895,"0.0-3.202-0.202","vj1w101v08rdd34",712,"62.csv","","351","resources/trios/L4T1A1.jpg","38","restless",0.4,0.3,0.6,0.106212007207295,"true"
"image-keyboard-response",618,468296,"0.0-3.202-1.202","vj1w101v08rdd34",712,"62.csv","","null","resources/maskTrios/BT1B.jpg","null","",NA,NA,NA,NA,""
"image-keyboard-response",619,469497,"0.0-3.202-2.202","vj1w101v08rdd34",712,"62.csv","","null","resources/images/coin2.png","null","",NA,NA,NA,NA,""
"image-keyboard-response",620,469606,"0.0-3.203-0.203","vj1w101v08rdd34",712,"62.csv","","107","resources/trios/L4T1A1.jpg","38","restless",0.4,0.3,0.6,0.656611509675255,"false"
