"trial_type","trial_index","time_elapsed","internal_node_id","subject","participantCode","walkNumber","success","rt","stimulus","key_press","test_part","leftProb","midProb","rightProb","generatedNum","correct"
"pavlovia",0,978,"0.0-0.0","skn5vpde2eurr8u",48,"103.csv","","","","","",NA,NA,NA,NA,""
"fullscreen",1,6316,"0.0-1.0","skn5vpde2eurr8u",48,"103.csv","true","","","","",NA,NA,NA,NA,""
"html-keyboard-response",2,14485,"0.0-2.0-0.0","skn5vpde2eurr8u",48,"103.csv","","8167.800000000745","<p><font size='6'>Arrrgh!</p></font><p>Can you be the best pirate? Try to find lots of gold! But beware, some islands have more gold than others, and over time, the island with the most gold may change. Can YOU figure it out? </p><font size='6'>GOOD LUCK, CAPTAIN!!!</font><p>Press any key to begin</p>","32","",NA,NA,NA,NA,""
"image-keyboard-response",3,17493,"0.0-2.0-1.0","skn5vpde2eurr8u",48,"103.csv","","null","resources/image_sets/111.png","null","",NA,NA,NA,NA,""
"image-keyboard-response",4,27309,"0.0-2.0-2.0","skn5vpde2eurr8u",48,"103.csv","","9813.900000002235","resources/image_sets/left_highlight.png","37","",NA,NA,NA,NA,""
"image-keyboard-response",5,30482,"0.0-2.0-3.0","skn5vpde2eurr8u",48,"103.csv","","3171.099999997765","resources/image_sets/mid_highlight.png","38","",NA,NA,NA,NA,""
"image-keyboard-response",6,31322,"0.0-2.0-4.0","skn5vpde2eurr8u",48,"103.csv","","838.6999999992549","resources/image_sets/right_highlight.png","39","",NA,NA,NA,NA,""
"image-keyboard-response",7,34490,"0.0-2.0-5.0","skn5vpde2eurr8u",48,"103.csv","","3167.400000002235","resources/image_sets/111.png","13","",NA,NA,NA,NA,""
"image-keyboard-response",8,37307,"0.0-2.0-6.0","skn5vpde2eurr8u",48,"103.csv","","2815.39999999851","resources/images/coin2.png","13","",NA,NA,NA,NA,""
"image-keyboard-response",9,39083,"0.0-2.0-7.0","skn5vpde2eurr8u",48,"103.csv","","1774.0999999977648","resources/images/fishbone.png","13","",NA,NA,NA,NA,""
"html-keyboard-response",10,49996,"0.0-2.0-8.0","skn5vpde2eurr8u",48,"103.csv","","10911.800000000745","<p>Your first journey will be a long one, but you will get a well deserved break at the end</p><p>After the break you will have four more journeys, but each will be much shorter than the first, and you will have breaks in between each</p><p>Press Enter to begin</p>","13","",NA,NA,NA,NA,""
"image-keyboard-response",11,53681,"0.0-3.0-0.0","skn5vpde2eurr8u",48,"103.csv","","3682.300000000745","resources/trios/L2T4A3.jpg","39","restless",0.3,0.9,0.7,0.12610246431516,"true"
"image-keyboard-response",12,54090,"0.0-3.0-1.0","skn5vpde2eurr8u",48,"103.csv","","null","resources/maskTrios/BBA3.jpg","null","",NA,NA,NA,NA,""
"image-keyboard-response",13,55294,"0.0-3.0-2.0","skn5vpde2eurr8u",48,"103.csv","","null","resources/images/coin2.png","null","",NA,NA,NA,NA,""
"image-keyboard-response",14,60015,"0.0-3.1-0.1","skn5vpde2eurr8u",48,"103.csv","","4718.300000000745","resources/trios/L1T4A2.jpg","38","restless",0.3,0.8,0.7,0.589935734502266,"true"
"image-keyboard-response",15,60422,"0.0-3.1-1.1","skn5vpde2eurr8u",48,"103.csv","","null","resources/maskTrios/BT4B.jpg","null","",NA,NA,NA,NA,""
"image-keyboard-response",16,61627,"0.0-3.1-2.1","skn5vpde2eurr8u",48,"103.csv","","null","resources/images/coin2.png","null","",NA,NA,NA,NA,""
"image-keyboard-response",17,63037,"0.0-3.2-0.2","skn5vpde2eurr8u",48,"103.csv","","1407.300000000745","resources/trios/L1T4A3.jpg","39","restless",0.3,0.8,0.7,0.992816972588219,"false"
"image-keyboard-response",18,63444,"0.0-3.2-1.2","skn5vpde2eurr8u",48,"103.csv","","null","resources/maskTrios/BBA3.jpg","null","",NA,NA,NA,NA,""
"image-keyboard-response",19,64651,"0.0-3.2-2.2","skn5vpde2eurr8u",48,"103.csv","","null","resources/images/fishbone.png","null","",NA,NA,NA,NA,""
"image-keyboard-response",20,68724,"0.0-3.3-0.3","skn5vpde2eurr8u",48,"103.csv","","4071.199999999255","resources/trios/L1T4A2.jpg","37","restless",0.3,0.8,0.7,0.74946718545123,"false"
"image-keyboard-response",21,69130,"0.0-3.3-1.3","skn5vpde2eurr8u",48,"103.csv","","null","resources/maskTrios/L1BB.jpg","null","",NA,NA,NA,NA,""
"image-keyboard-response",22,70337,"0.0-3.3-2.3","skn5vpde2eurr8u",48,"103.csv","","null","resources/images/fishbone.png","null","",NA,NA,NA,NA,""
"image-keyboard-response",23,72912,"0.0-3.4-0.4","skn5vpde2eurr8u",48,"103.csv","","2572.10000000149","resources/trios/L1T1A3.jpg","38","restless",0.3,0.7,0.7,0.685826096365429,"true"
"image-keyboard-response",24,73319,"0.0-3.4-1.4","skn5vpde2eurr8u",48,"103.csv","","null","resources/maskTrios/BT1B.jpg","null","",NA,NA,NA,NA,""
"image-keyboard-response",25,74526,"0.0-3.4-2.4","skn5vpde2eurr8u",48,"103.csv","","null","resources/images/coin2.png","null","",NA,NA,NA,NA,""
"image-keyboard-response",26,75520,"0.0-3.5-0.5","skn5vpde2eurr8u",48,"103.csv","","992.1000000014901","resources/trios/L2T4A3.jpg","37","restless",0.3,0.7,0.7,0.771706695714444,"false"
"image-keyboard-response",27,75927,"0.0-3.5-1.5","skn5vpde2eurr8u",48,"103.csv","","null","resources/maskTrios/L2BB.jpg","null","",NA,NA,NA,NA,""
"image-keyboard-response",28,77134,"0.0-3.5-2.5","skn5vpde2eurr8u",48,"103.csv","","null","resources/images/fishbone.png","null","",NA,NA,NA,NA,""
"image-keyboard-response",29,79750,"0.0-3.6-0.6","skn5vpde2eurr8u",48,"103.csv","","2613.300000000745","resources/trios/L1T1A2.jpg","39","restless",0.3,0.7,0.8,0.341533059863902,"true"
"image-keyboard-response",30,80152,"0.0-3.6-1.6","skn5vpde2eurr8u",48,"103.csv","","null","resources/maskTrios/BBA2.jpg","null","",NA,NA,NA,NA,""
"image-keyboard-response",31,81358,"0.0-3.6-2.6","skn5vpde2eurr8u",48,"103.csv","","null","resources/images/coin2.png","null","",NA,NA,NA,NA,""
"image-keyboard-response",32,82644,"0.0-3.7-0.7","skn5vpde2eurr8u",48,"103.csv","","1284","resources/trios/L2T4A3.jpg","39","restless",0.2,0.7,0.8,0.853689433665212,"false"
"image-keyboard-response",33,83052,"0.0-3.7-1.7","skn5vpde2eurr8u",48,"103.csv","","null","resources/maskTrios/BBA3.jpg","null","",NA,NA,NA,NA,""
"image-keyboard-response",34,84258,"0.0-3.7-2.7","skn5vpde2eurr8u",48,"103.csv","","null","resources/images/fishbone.png","null","",NA,NA,NA,NA,""
"image-keyboard-response",35,89061,"0.0-3.8-0.8","skn5vpde2eurr8u",48,"103.csv","","4800.599999997765","resources/trios/L2T1A2.jpg","38","restless",0.2,0.7,0.8,0.104878922969621,"true"
"image-keyboard-response",36,89466,"0.0-3.8-1.8","skn5vpde2eurr8u",48,"103.csv","","null","resources/maskTrios/BT1B.jpg","null","",NA,NA,NA,NA,""
"image-keyboard-response",37,90674,"0.0-3.8-2.8","skn5vpde2eurr8u",48,"103.csv","","null","resources/images/coin2.png","null","",NA,NA,NA,NA,""
"image-keyboard-response",38,91936,"0.0-3.9-0.9","skn5vpde2eurr8u",48,"103.csv","","1260.1000000014901","resources/trios/L2T4A3.jpg","37","restless",0.2,0.7,0.8,0.3651265932135,"false"
"image-keyboard-response",39,92344,"0.0-3.9-1.9","skn5vpde2eurr8u",48,"103.csv","","null","resources/maskTrios/L2BB.jpg","null","",NA,NA,NA,NA,""
"image-keyboard-response",40,93550,"0.0-3.9-2.9","skn5vpde2eurr8u",48,"103.csv","","null","resources/images/fishbone.png","null","",NA,NA,NA,NA,""
"image-keyboard-response",41,94063,"0.0-3.10-0.10","skn5vpde2eurr8u",48,"103.csv","","510","resources/trios/L2T4A3.jpg","38","restless",0.2,0.7,0.8,0.308675362866101,"true"
"image-keyboard-response",42,94470,"0.0-3.10-1.10","skn5vpde2eurr8u",48,"103.csv","","null","resources/maskTrios/BT4B.jpg","null","",NA,NA,NA,NA,""
"image-keyboard-response",43,95675,"0.0-3.10-2.10","skn5vpde2eurr8u",48,"103.csv","","null","resources/images/coin2.png","null","",NA,NA,NA,NA,""
"image-keyboard-response",44,97015,"0.0-3.11-0.11","skn5vpde2eurr8u",48,"103.csv","","1337.300000000745","resources/trios/L1T4A2.jpg","39","restless",0.2,0.7,0.8,0.0980356329297063,"true"
"image-keyboard-response",45,97422,"0.0-3.11-1.11","skn5vpde2eurr8u",48,"103.csv","","null","resources/maskTrios/BBA2.jpg","null","",NA,NA,NA,NA,""
"image-keyboard-response",46,98624,"0.0-3.11-2.11","skn5vpde2eurr8u",48,"103.csv","","null","resources/images/coin2.png","null","",NA,NA,NA,NA,""
"image-keyboard-response",47,101315,"0.0-3.12-0.12","skn5vpde2eurr8u",48,"103.csv","","2688.60000000149","resources/trios/L2T1A2.jpg","37","restless",0.2,0.7,0.8,0.17884276023622,"true"
"image-keyboard-response",48,101723,"0.0-3.12-1.12","skn5vpde2eurr8u",48,"103.csv","","null","resources/maskTrios/L2BB.jpg","null","",NA,NA,NA,NA,""
"image-keyboard-response",49,102930,"0.0-3.12-2.12","skn5vpde2eurr8u",48,"103.csv","","null","resources/images/coin2.png","null","",NA,NA,NA,NA,""
"image-keyboard-response",50,106799,"0.0-3.13-0.13","skn5vpde2eurr8u",48,"103.csv","","3866.89999999851","resources/trios/L2T4A3.jpg","39","restless",0.2,0.7,0.8,0.202889629562159,"true"
"image-keyboard-response",51,107207,"0.0-3.13-1.13","skn5vpde2eurr8u",48,"103.csv","","null","resources/maskTrios/BBA3.jpg","null","",NA,NA,NA,NA,""
"image-keyboard-response",52,108410,"0.0-3.13-2.13","skn5vpde2eurr8u",48,"103.csv","","null","resources/images/coin2.png","null","",NA,NA,NA,NA,""
"image-keyboard-response",53,116179,"0.0-3.14-0.14","skn5vpde2eurr8u",48,"103.csv","","7766.60000000149","resources/trios/L1T1A3.jpg","39","restless",0.2,0.7,0.8,0.930669256203632,"false"
"image-keyboard-response",54,116587,"0.0-3.14-1.14","skn5vpde2eurr8u",48,"103.csv","","null","resources/maskTrios/BBA3.jpg","null","",NA,NA,NA,NA,""
"image-keyboard-response",55,117793,"0.0-3.14-2.14","skn5vpde2eurr8u",48,"103.csv","","null","resources/images/fishbone.png","null","",NA,NA,NA,NA,""
"image-keyboard-response",56,119045,"0.0-3.15-0.15","skn5vpde2eurr8u",48,"103.csv","","1249.300000000745","resources/trios/L1T1A3.jpg","37","restless",0.2,0.7,0.8,0.0110476867310008,"true"
"image-keyboard-response",57,119451,"0.0-3.15-1.15","skn5vpde2eurr8u",48,"103.csv","","null","resources/maskTrios/L1BB.jpg","null","",NA,NA,NA,NA,""
"image-keyboard-response",58,120658,"0.0-3.15-2.15","skn5vpde2eurr8u",48,"103.csv","","null","resources/images/coin2.png","null","",NA,NA,NA,NA,""
"image-keyboard-response",59,121804,"0.0-3.16-0.16","skn5vpde2eurr8u",48,"103.csv","","1143.300000000745","resources/trios/L2T4A2.jpg","38","restless",0.2,0.7,0.8,0.812282494749795,"false"
"image-keyboard-response",60,122206,"0.0-3.16-1.16","skn5vpde2eurr8u",48,"103.csv","","null","resources/maskTrios/BT4B.jpg","null","",NA,NA,NA,NA,""
"image-keyboard-response",61,123413,"0.0-3.16-2.16","skn5vpde2eurr8u",48,"103.csv","","null","resources/images/fishbone.png","null","",NA,NA,NA,NA,""
"image-keyboard-response",62,123870,"0.0-3.17-0.17","skn5vpde2eurr8u",48,"103.csv","","454.29999999701977","resources/trios/L1T4A2.jpg","39","restless",0.2,0.7,0.8,0.215295767649822,"true"
"image-keyboard-response",63,124277,"0.0-3.17-1.17","skn5vpde2eurr8u",48,"103.csv","","null","resources/maskTrios/BBA2.jpg","null","",NA,NA,NA,NA,""
"image-keyboard-response",64,125484,"0.0-3.17-2.17","skn5vpde2eurr8u",48,"103.csv","","null","resources/images/coin2.png","null","",NA,NA,NA,NA,""
"image-keyboard-response",65,126085,"0.0-3.18-0.18","skn5vpde2eurr8u",48,"103.csv","","598.1999999992549","resources/trios/L2T1A3.jpg","39","restless",0.2,0.7,0.9,0.535198623976732,"true"
"image-keyboard-response",66,126492,"0.0-3.18-1.18","skn5vpde2eurr8u",48,"103.csv","","null","resources/maskTrios/BBA3.jpg","null","",NA,NA,NA,NA,""
"image-keyboard-response",67,127694,"0.0-3.18-2.18","skn5vpde2eurr8u",48,"103.csv","","null","resources/images/coin2.png","null","",NA,NA,NA,NA,""
"image-keyboard-response",68,128058,"0.0-3.19-0.19","skn5vpde2eurr8u",48,"103.csv","","361.8999999985099","resources/trios/L2T1A2.jpg","39","restless",0.1,0.7,0.9,0.731071809769175,"true"
"image-keyboard-response",69,128465,"0.0-3.19-1.19","skn5vpde2eurr8u",48,"103.csv","","null","resources/maskTrios/BBA2.jpg","null","",NA,NA,NA,NA,""
"image-keyboard-response",70,129671,"0.0-3.19-2.19","skn5vpde2eurr8u",48,"103.csv","","null","resources/images/coin2.png","null","",NA,NA,NA,NA,""
"image-keyboard-response",71,130017,"0.0-3.20-0.20","skn5vpde2eurr8u",48,"103.csv","","343.80000000074506","resources/trios/L1T4A2.jpg","39","restless",0.1,0.7,0.9,0.215214138345238,"true"
"image-keyboard-response",72,130425,"0.0-3.20-1.20","skn5vpde2eurr8u",48,"103.csv","","null","resources/maskTrios/BBA2.jpg","null","",NA,NA,NA,NA,""
"image-keyboard-response",73,131632,"0.0-3.20-2.20","skn5vpde2eurr8u",48,"103.csv","","null","resources/images/coin2.png","null","",NA,NA,NA,NA,""
"image-keyboard-response",74,131981,"0.0-3.21-0.21","skn5vpde2eurr8u",48,"103.csv","","346.3999999985099","resources/trios/L2T1A2.jpg","39","restless",0.1,0.7,0.9,0.345912400702479,"true"
"image-keyboard-response",75,132388,"0.0-3.21-1.21","skn5vpde2eurr8u",48,"103.csv","","null","resources/maskTrios/BBA2.jpg","null","",NA,NA,NA,NA,""
"image-keyboard-response",76,133595,"0.0-3.21-2.21","skn5vpde2eurr8u",48,"103.csv","","null","resources/images/coin2.png","null","",NA,NA,NA,NA,""
"image-keyboard-response",77,133892,"0.0-3.22-0.22","skn5vpde2eurr8u",48,"103.csv","","294.3999999985099","resources/trios/L2T1A3.jpg","39","restless",0.1,0.8,0.9,0.196464017383432,"true"
"image-keyboard-response",78,134299,"0.0-3.22-1.22","skn5vpde2eurr8u",48,"103.csv","","null","resources/maskTrios/BBA3.jpg","null","",NA,NA,NA,NA,""
"image-keyboard-response",79,135506,"0.0-3.22-2.22","skn5vpde2eurr8u",48,"103.csv","","null","resources/images/coin2.png","null","",NA,NA,NA,NA,""
"image-keyboard-response",80,135807,"0.0-3.23-0.23","skn5vpde2eurr8u",48,"103.csv","","298.70000000298023","resources/trios/L1T1A3.jpg","39","restless",0.1,0.8,0.9,0.837696275462438,"true"
"image-keyboard-response",81,136214,"0.0-3.23-1.23","skn5vpde2eurr8u",48,"103.csv","","null","resources/maskTrios/BBA3.jpg","null","",NA,NA,NA,NA,""
"image-keyboard-response",82,137421,"0.0-3.23-2.23","skn5vpde2eurr8u",48,"103.csv","","null","resources/images/coin2.png","null","",NA,NA,NA,NA,""
"image-keyboard-response",83,137834,"0.0-3.24-0.24","skn5vpde2eurr8u",48,"103.csv","","410.6000000014901","resources/trios/L2T1A3.jpg","39","restless",0.1,0.8,0.9,0.372300899203896,"true"
"image-keyboard-response",84,138240,"0.0-3.24-1.24","skn5vpde2eurr8u",48,"103.csv","","null","resources/maskTrios/BBA3.jpg","null","",NA,NA,NA,NA,""
"image-keyboard-response",85,139444,"0.0-3.24-2.24","skn5vpde2eurr8u",48,"103.csv","","null","resources/images/coin2.png","null","",NA,NA,NA,NA,""
"image-keyboard-response",86,139837,"0.0-3.25-0.25","skn5vpde2eurr8u",48,"103.csv","","390.9000000022352","resources/trios/L2T4A2.jpg","39","restless",0.1,0.7,0.9,0.269704662276973,"true"
"image-keyboard-response",87,140242,"0.0-3.25-1.25","skn5vpde2eurr8u",48,"103.csv","","null","resources/maskTrios/BBA2.jpg","null","",NA,NA,NA,NA,""
"image-keyboard-response",88,141449,"0.0-3.25-2.25","skn5vpde2eurr8u",48,"103.csv","","null","resources/images/coin2.png","null","",NA,NA,NA,NA,""
"image-keyboard-response",89,141840,"0.0-3.26-0.26","skn5vpde2eurr8u",48,"103.csv","","388.80000000074506","resources/trios/L2T1A2.jpg","39","restless",0.1,0.7,0.9,0.82266253057201,"true"
"image-keyboard-response",90,142245,"0.0-3.26-1.26","skn5vpde2eurr8u",48,"103.csv","","null","resources/maskTrios/BBA2.jpg","null","",NA,NA,NA,NA,""
"image-keyboard-response",91,143452,"0.0-3.26-2.26","skn5vpde2eurr8u",48,"103.csv","","null","resources/images/coin2.png","null","",NA,NA,NA,NA,""
"image-keyboard-response",92,143767,"0.0-3.27-0.27","skn5vpde2eurr8u",48,"103.csv","","313.30000000074506","resources/trios/L2T4A3.jpg","39","restless",0.1,0.7,0.8,0.874429416081195,"false"
"image-keyboard-response",93,144171,"0.0-3.27-1.27","skn5vpde2eurr8u",48,"103.csv","","null","resources/maskTrios/BBA3.jpg","null","",NA,NA,NA,NA,""
"image-keyboard-response",94,145373,"0.0-3.27-2.27","skn5vpde2eurr8u",48,"103.csv","","null","resources/images/fishbone.png","null","",NA,NA,NA,NA,""
"image-keyboard-response",95,146161,"0.0-3.28-0.28","skn5vpde2eurr8u",48,"103.csv","","785.6000000014901","resources/trios/L2T1A3.jpg","37","restless",0.1,0.7,0.8,0.485302855378904,"false"
"image-keyboard-response",96,146569,"0.0-3.28-1.28","skn5vpde2eurr8u",48,"103.csv","","null","resources/maskTrios/L2BB.jpg","null","",NA,NA,NA,NA,""
"image-keyboard-response",97,147776,"0.0-3.28-2.28","skn5vpde2eurr8u",48,"103.csv","","null","resources/images/fishbone.png","null","",NA,NA,NA,NA,""
"image-keyboard-response",98,148240,"0.0-3.29-0.29","skn5vpde2eurr8u",48,"103.csv","","462.30000000074506","resources/trios/L1T4A2.jpg","39","restless",0.1,0.7,0.8,0.724160908332707,"true"
"image-keyboard-response",99,148646,"0.0-3.29-1.29","skn5vpde2eurr8u",48,"103.csv","","null","resources/maskTrios/BBA2.jpg","null","",NA,NA,NA,NA,""
"image-keyboard-response",100,149853,"0.0-3.29-2.29","skn5vpde2eurr8u",48,"103.csv","","null","resources/images/coin2.png","null","",NA,NA,NA,NA,""
"image-keyboard-response",101,150228,"0.0-3.30-0.30","skn5vpde2eurr8u",48,"103.csv","","373.1000000014901","resources/trios/L2T4A3.jpg","39","restless",0.1,0.7,0.8,0.677584245533737,"true"
"image-keyboard-response",102,150635,"0.0-3.30-1.30","skn5vpde2eurr8u",48,"103.csv","","null","resources/maskTrios/BBA3.jpg","null","",NA,NA,NA,NA,""
"image-keyboard-response",103,151843,"0.0-3.30-2.30","skn5vpde2eurr8u",48,"103.csv","","null","resources/images/coin2.png","null","",NA,NA,NA,NA,""
"image-keyboard-response",104,152193,"0.0-3.31-0.31","skn5vpde2eurr8u",48,"103.csv","","348.30000000074506","resources/trios/L2T4A2.jpg","39","restless",0.1,0.6,0.8,0.490890191241828,"true"
"image-keyboard-response",105,152601,"0.0-3.31-1.31","skn5vpde2eurr8u",48,"103.csv","","null","resources/maskTrios/BBA2.jpg","null","",NA,NA,NA,NA,""
"image-keyboard-response",106,153808,"0.0-3.31-2.31","skn5vpde2eurr8u",48,"103.csv","","null","resources/images/coin2.png","null","",NA,NA,NA,NA,""
"image-keyboard-response",107,154152,"0.0-3.32-0.32","skn5vpde2eurr8u",48,"103.csv","","341.9000000022352","resources/trios/L1T4A3.jpg","39","restless",0.2,0.6,0.8,0.831006965170338,"false"
"image-keyboard-response",108,154559,"0.0-3.32-1.32","skn5vpde2eurr8u",48,"103.csv","","null","resources/maskTrios/BBA3.jpg","null","",NA,NA,NA,NA,""
"image-keyboard-response",109,155762,"0.0-3.32-2.32","skn5vpde2eurr8u",48,"103.csv","","null","resources/images/fishbone.png","null","",NA,NA,NA,NA,""
"image-keyboard-response",110,156380,"0.0-3.33-0.33","skn5vpde2eurr8u",48,"103.csv","","615.1999999992549","resources/trios/L1T1A3.jpg","38","restless",0.2,0.6,0.8,0.336039885742502,"true"
"image-keyboard-response",111,156787,"0.0-3.33-1.33","skn5vpde2eurr8u",48,"103.csv","","null","resources/maskTrios/BT1B.jpg","null","",NA,NA,NA,NA,""
"image-keyboard-response",112,157994,"0.0-3.33-2.33","skn5vpde2eurr8u",48,"103.csv","","null","resources/images/coin2.png","null","",NA,NA,NA,NA,""
"image-keyboard-response",113,158383,"0.0-3.34-0.34","skn5vpde2eurr8u",48,"103.csv","","386.0999999977648","resources/trios/L1T4A2.jpg","39","restless",0.2,0.6,0.8,0.960721792877778,"false"
"image-keyboard-response",114,158788,"0.0-3.34-1.34","skn5vpde2eurr8u",48,"103.csv","","null","resources/maskTrios/BBA2.jpg","null","",NA,NA,NA,NA,""
"image-keyboard-response",115,159994,"0.0-3.34-2.34","skn5vpde2eurr8u",48,"103.csv","","null","resources/images/fishbone.png","null","",NA,NA,NA,NA,""
"image-keyboard-response",116,160441,"0.0-3.35-0.35","skn5vpde2eurr8u",48,"103.csv","","444.19999999925494","resources/trios/L2T1A3.jpg","37","restless",0.2,0.6,0.8,0.642232725584735,"false"
"image-keyboard-response",117,160848,"0.0-3.35-1.35","skn5vpde2eurr8u",48,"103.csv","","null","resources/maskTrios/L2BB.jpg","null","",NA,NA,NA,NA,""
"image-keyboard-response",118,162055,"0.0-3.35-2.35","skn5vpde2eurr8u",48,"103.csv","","null","resources/images/fishbone.png","null","",NA,NA,NA,NA,""
"image-keyboard-response",119,162411,"0.0-3.36-0.36","skn5vpde2eurr8u",48,"103.csv","","354.19999999925494","resources/trios/L2T1A3.jpg","39","restless",0.2,0.6,0.8,0.710958451676193,"true"
"image-keyboard-response",120,162818,"0.0-3.36-1.36","skn5vpde2eurr8u",48,"103.csv","","null","resources/maskTrios/BBA3.jpg","null","",NA,NA,NA,NA,""
"image-keyboard-response",121,164024,"0.0-3.36-2.36","skn5vpde2eurr8u",48,"103.csv","","null","resources/images/coin2.png","null","",NA,NA,NA,NA,""
"image-keyboard-response",122,164530,"0.0-3.37-0.37","skn5vpde2eurr8u",48,"103.csv","","504.1000000014901","resources/trios/L1T4A3.jpg","39","restless",0.2,0.5,0.8,0.0858091983858156,"true"
"image-keyboard-response",123,164937,"0.0-3.37-1.37","skn5vpde2eurr8u",48,"103.csv","","null","resources/maskTrios/BBA3.jpg","null","",NA,NA,NA,NA,""
"image-keyboard-response",124,166144,"0.0-3.37-2.37","skn5vpde2eurr8u",48,"103.csv","","null","resources/images/coin2.png","null","",NA,NA,NA,NA,""
"image-keyboard-response",125,166602,"0.0-3.38-0.38","skn5vpde2eurr8u",48,"103.csv","","455.30000000074506","resources/trios/L1T4A3.jpg","39","restless",0.2,0.5,0.7,0.637712084310758,"true"
"image-keyboard-response",126,167009,"0.0-3.38-1.38","skn5vpde2eurr8u",48,"103.csv","","null","resources/maskTrios/BBA3.jpg","null","",NA,NA,NA,NA,""
"image-keyboard-response",127,168216,"0.0-3.38-2.38","skn5vpde2eurr8u",48,"103.csv","","null","resources/images/coin2.png","null","",NA,NA,NA,NA,""
"image-keyboard-response",128,168605,"0.0-3.39-0.39","skn5vpde2eurr8u",48,"103.csv","","386.5","resources/trios/L1T4A2.jpg","39","restless",0.2,0.4,0.7,0.655594135819562,"true"
"image-keyboard-response",129,169012,"0.0-3.39-1.39","skn5vpde2eurr8u",48,"103.csv","","null","resources/maskTrios/BBA2.jpg","null","",NA,NA,NA,NA,""
"image-keyboard-response",130,170216,"0.0-3.39-2.39","skn5vpde2eurr8u",48,"103.csv","","null","resources/images/coin2.png","null","",NA,NA,NA,NA,""
"image-keyboard-response",131,170571,"0.0-3.40-0.40","skn5vpde2eurr8u",48,"103.csv","","352.0999999977648","resources/trios/L1T4A2.jpg","39","restless",0.2,0.4,0.7,0.0983156580186155,"true"
"image-keyboard-response",132,170974,"0.0-3.40-1.40","skn5vpde2eurr8u",48,"103.csv","","null","resources/maskTrios/BBA2.jpg","null","",NA,NA,NA,NA,""
"image-keyboard-response",133,172180,"0.0-3.40-2.40","skn5vpde2eurr8u",48,"103.csv","","null","resources/images/coin2.png","null","",NA,NA,NA,NA,""
"image-keyboard-response",134,172586,"0.0-3.41-0.41","skn5vpde2eurr8u",48,"103.csv","","404.5999999977648","resources/trios/L1T4A3.jpg","39","restless",0.2,0.4,0.6,0.794237470239769,"false"
"image-keyboard-response",135,172993,"0.0-3.41-1.41","skn5vpde2eurr8u",48,"103.csv","","null","resources/maskTrios/BBA3.jpg","null","",NA,NA,NA,NA,""
"image-keyboard-response",136,174200,"0.0-3.41-2.41","skn5vpde2eurr8u",48,"103.csv","","null","resources/images/fishbone.png","null","",NA,NA,NA,NA,""
"image-keyboard-response",137,174946,"0.0-3.42-0.42","skn5vpde2eurr8u",48,"103.csv","","744.5999999977648","resources/trios/L1T1A2.jpg","38","restless",0.2,0.4,0.6,0.321149938480607,"true"
"image-keyboard-response",138,175354,"0.0-3.42-1.42","skn5vpde2eurr8u",48,"103.csv","","null","resources/maskTrios/BT1B.jpg","null","",NA,NA,NA,NA,""
"image-keyboard-response",139,176561,"0.0-3.42-2.42","skn5vpde2eurr8u",48,"103.csv","","null","resources/images/coin2.png","null","",NA,NA,NA,NA,""
"image-keyboard-response",140,176935,"0.0-3.43-0.43","skn5vpde2eurr8u",48,"103.csv","","371.5","resources/trios/L1T4A3.jpg","39","restless",0.2,0.3,0.5,0.258147730298009,"true"
"image-keyboard-response",141,177342,"0.0-3.43-1.43","skn5vpde2eurr8u",48,"103.csv","","null","resources/maskTrios/BBA3.jpg","null","",NA,NA,NA,NA,""
"image-keyboard-response",142,178545,"0.0-3.43-2.43","skn5vpde2eurr8u",48,"103.csv","","null","resources/images/coin2.png","null","",NA,NA,NA,NA,""
"image-keyboard-response",143,178992,"0.0-3.44-0.44","skn5vpde2eurr8u",48,"103.csv","","445","resources/trios/L1T1A2.jpg","39","restless",0.2,0.3,0.5,0.0257950040403314,"true"
"image-keyboard-response",144,179400,"0.0-3.44-1.44","skn5vpde2eurr8u",48,"103.csv","","null","resources/maskTrios/BBA2.jpg","null","",NA,NA,NA,NA,""
"image-keyboard-response",145,180606,"0.0-3.44-2.44","skn5vpde2eurr8u",48,"103.csv","","null","resources/images/coin2.png","null","",NA,NA,NA,NA,""
"image-keyboard-response",146,181273,"0.0-3.45-0.45","skn5vpde2eurr8u",48,"103.csv","","664","resources/trios/L1T4A3.jpg","39","restless",0.2,0.3,0.5,0.386814410191786,"true"
"image-keyboard-response",147,181680,"0.0-3.45-1.45","skn5vpde2eurr8u",48,"103.csv","","null","resources/maskTrios/BBA3.jpg","null","",NA,NA,NA,NA,""
"image-keyboard-response",148,182887,"0.0-3.45-2.45","skn5vpde2eurr8u",48,"103.csv","","null","resources/images/coin2.png","null","",NA,NA,NA,NA,""
"image-keyboard-response",149,183665,"0.0-3.46-0.46","skn5vpde2eurr8u",48,"103.csv","","776.3999999985099","resources/trios/L2T1A2.jpg","39","restless",0.3,0.3,0.5,0.00694579751086155,"true"
"image-keyboard-response",150,184073,"0.0-3.46-1.46","skn5vpde2eurr8u",48,"103.csv","","null","resources/maskTrios/BBA2.jpg","null","",NA,NA,NA,NA,""
"image-keyboard-response",151,185280,"0.0-3.46-2.46","skn5vpde2eurr8u",48,"103.csv","","null","resources/images/coin2.png","null","",NA,NA,NA,NA,""
"image-keyboard-response",152,185941,"0.0-3.47-0.47","skn5vpde2eurr8u",48,"103.csv","","658.2999999970198","resources/trios/L1T1A2.jpg","39","restless",0.4,0.3,0.5,0.00447446055418599,"true"
"image-keyboard-response",153,186347,"0.0-3.47-1.47","skn5vpde2eurr8u",48,"103.csv","","null","resources/maskTrios/BBA2.jpg","null","",NA,NA,NA,NA,""
"image-keyboard-response",154,187553,"0.0-3.47-2.47","skn5vpde2eurr8u",48,"103.csv","","null","resources/images/coin2.png","null","",NA,NA,NA,NA,""
"image-keyboard-response",155,187976,"0.0-3.48-0.48","skn5vpde2eurr8u",48,"103.csv","","421.30000000074506","resources/trios/L1T4A2.jpg","38","restless",0.4,0.2,0.5,0.210669997500801,"false"
"image-keyboard-response",156,188384,"0.0-3.48-1.48","skn5vpde2eurr8u",48,"103.csv","","null","resources/maskTrios/BT4B.jpg","null","",NA,NA,NA,NA,""
"image-keyboard-response",157,189589,"0.0-3.48-2.48","skn5vpde2eurr8u",48,"103.csv","","null","resources/images/fishbone.png","null","",NA,NA,NA,NA,""
"image-keyboard-response",158,189929,"0.0-3.49-0.49","skn5vpde2eurr8u",48,"103.csv","","337.1000000014901","resources/trios/L2T4A2.jpg","39","restless",0.4,0.2,0.5,0.818145067207081,"false"
"image-keyboard-response",159,190332,"0.0-3.49-1.49","skn5vpde2eurr8u",48,"103.csv","","null","resources/maskTrios/BBA2.jpg","null","",NA,NA,NA,NA,""
"image-keyboard-response",160,191539,"0.0-3.49-2.49","skn5vpde2eurr8u",48,"103.csv","","null","resources/images/fishbone.png","null","",NA,NA,NA,NA,""
"image-keyboard-response",161,192407,"0.0-3.50-0.50","skn5vpde2eurr8u",48,"103.csv","","865.1000000014901","resources/trios/L2T1A2.jpg","38","restless",0.4,0.2,0.4,0.0248594477716331,"true"
"image-keyboard-response",162,192814,"0.0-3.50-1.50","skn5vpde2eurr8u",48,"103.csv","","null","resources/maskTrios/BT1B.jpg","null","",NA,NA,NA,NA,""
"image-keyboard-response",163,194019,"0.0-3.50-2.50","skn5vpde2eurr8u",48,"103.csv","","null","resources/images/coin2.png","null","",NA,NA,NA,NA,""
"image-keyboard-response",164,194769,"0.0-3.51-0.51","skn5vpde2eurr8u",48,"103.csv","","747.6999999992549","resources/trios/L2T4A3.jpg","39","restless",0.3,0.3,0.4,0.674237158633731,"false"
"image-keyboard-response",165,195177,"0.0-3.51-1.51","skn5vpde2eurr8u",48,"103.csv","","null","resources/maskTrios/BBA3.jpg","null","",NA,NA,NA,NA,""
"image-keyboard-response",166,196380,"0.0-3.51-2.51","skn5vpde2eurr8u",48,"103.csv","","null","resources/images/fishbone.png","null","",NA,NA,NA,NA,""
"image-keyboard-response",167,197006,"0.0-3.52-0.52","skn5vpde2eurr8u",48,"103.csv","","624","resources/trios/L1T1A2.jpg","39","restless",0.3,0.3,0.4,0.0840869865427942,"true"
"image-keyboard-response",168,197413,"0.0-3.52-1.52","skn5vpde2eurr8u",48,"103.csv","","null","resources/maskTrios/BBA2.jpg","null","",NA,NA,NA,NA,""
"image-keyboard-response",169,198620,"0.0-3.52-2.52","skn5vpde2eurr8u",48,"103.csv","","null","resources/images/coin2.png","null","",NA,NA,NA,NA,""
"image-keyboard-response",170,199031,"0.0-3.53-0.53","skn5vpde2eurr8u",48,"103.csv","","410","resources/trios/L2T1A3.jpg","39","restless",0.4,0.3,0.4,0.197989102246863,"true"
"image-keyboard-response",171,199439,"0.0-3.53-1.53","skn5vpde2eurr8u",48,"103.csv","","null","resources/maskTrios/BBA3.jpg","null","",NA,NA,NA,NA,""
"image-keyboard-response",172,200646,"0.0-3.53-2.53","skn5vpde2eurr8u",48,"103.csv","","null","resources/images/coin2.png","null","",NA,NA,NA,NA,""
"image-keyboard-response",173,201314,"0.0-3.54-0.54","skn5vpde2eurr8u",48,"103.csv","","665.8999999985099","resources/trios/L2T4A3.jpg","39","restless",0.4,0.3,0.4,0.286287772577646,"true"
"image-keyboard-response",174,201719,"0.0-3.54-1.54","skn5vpde2eurr8u",48,"103.csv","","null","resources/maskTrios/BBA3.jpg","null","",NA,NA,NA,NA,""
"image-keyboard-response",175,202926,"0.0-3.54-2.54","skn5vpde2eurr8u",48,"103.csv","","null","resources/images/coin2.png","null","",NA,NA,NA,NA,""
"image-keyboard-response",176,203425,"0.0-3.55-0.55","skn5vpde2eurr8u",48,"103.csv","","496.5","resources/trios/L1T1A2.jpg","39","restless",0.4,0.3,0.4,0.683798502350549,"false"
"image-keyboard-response",177,203832,"0.0-3.55-1.55","skn5vpde2eurr8u",48,"103.csv","","null","resources/maskTrios/BBA2.jpg","null","",NA,NA,NA,NA,""
"image-keyboard-response",178,205039,"0.0-3.55-2.55","skn5vpde2eurr8u",48,"103.csv","","null","resources/images/fishbone.png","null","",NA,NA,NA,NA,""
"image-keyboard-response",179,206268,"0.0-3.56-0.56","skn5vpde2eurr8u",48,"103.csv","","1227","resources/trios/L1T1A3.jpg","37","restless",0.4,0.3,0.4,0.745994609531986,"false"
"image-keyboard-response",180,206672,"0.0-3.56-1.56","skn5vpde2eurr8u",48,"103.csv","","null","resources/maskTrios/L1BB.jpg","null","",NA,NA,NA,NA,""
"image-keyboard-response",181,207879,"0.0-3.56-2.56","skn5vpde2eurr8u",48,"103.csv","","null","resources/images/fishbone.png","null","",NA,NA,NA,NA,""
"image-keyboard-response",182,208833,"0.0-3.57-0.57","skn5vpde2eurr8u",48,"103.csv","","952","resources/trios/L2T4A3.jpg","39","restless",0.4,0.3,0.4,0.464066070356561,"false"
"image-keyboard-response",183,209240,"0.0-3.57-1.57","skn5vpde2eurr8u",48,"103.csv","","null","resources/maskTrios/BBA3.jpg","null","",NA,NA,NA,NA,""
"image-keyboard-response",184,210447,"0.0-3.57-2.57","skn5vpde2eurr8u",48,"103.csv","","null","resources/images/fishbone.png","null","",NA,NA,NA,NA,""
"image-keyboard-response",185,210795,"0.0-3.58-0.58","skn5vpde2eurr8u",48,"103.csv","","344.9000000022352","resources/trios/L1T1A3.jpg","39","restless",0.4,0.4,0.4,0.387185245793239,"true"
"image-keyboard-response",186,211202,"0.0-3.58-1.58","skn5vpde2eurr8u",48,"103.csv","","null","resources/maskTrios/BBA3.jpg","null","",NA,NA,NA,NA,""
"image-keyboard-response",187,212409,"0.0-3.58-2.58","skn5vpde2eurr8u",48,"103.csv","","null","resources/images/coin2.png","null","",NA,NA,NA,NA,""
"image-keyboard-response",188,212973,"0.0-3.59-0.59","skn5vpde2eurr8u",48,"103.csv","","562.0999999977648","resources/trios/L1T1A2.jpg","39","restless",0.4,0.4,0.4,0.0722499032615911,"true"
"image-keyboard-response",189,213376,"0.0-3.59-1.59","skn5vpde2eurr8u",48,"103.csv","","null","resources/maskTrios/BBA2.jpg","null","",NA,NA,NA,NA,""
"image-keyboard-response",190,214582,"0.0-3.59-2.59","skn5vpde2eurr8u",48,"103.csv","","null","resources/images/coin2.png","null","",NA,NA,NA,NA,""
"image-keyboard-response",191,215405,"0.0-3.60-0.60","skn5vpde2eurr8u",48,"103.csv","","820.9000000022352","resources/trios/L1T1A3.jpg","39","restless",0.3,0.4,0.4,0.330325845627328,"true"
"image-keyboard-response",192,215812,"0.0-3.60-1.60","skn5vpde2eurr8u",48,"103.csv","","null","resources/maskTrios/BBA3.jpg","null","",NA,NA,NA,NA,""
"image-keyboard-response",193,217019,"0.0-3.60-2.60","skn5vpde2eurr8u",48,"103.csv","","null","resources/images/coin2.png","null","",NA,NA,NA,NA,""
"image-keyboard-response",194,218053,"0.0-3.61-0.61","skn5vpde2eurr8u",48,"103.csv","","1032.0999999977648","resources/trios/L1T4A3.jpg","39","restless",0.3,0.4,0.4,0.92252787238676,"false"
"image-keyboard-response",195,218458,"0.0-3.61-1.61","skn5vpde2eurr8u",48,"103.csv","","null","resources/maskTrios/BBA3.jpg","null","",NA,NA,NA,NA,""
"image-keyboard-response",196,219665,"0.0-3.61-2.61","skn5vpde2eurr8u",48,"103.csv","","null","resources/images/fishbone.png","null","",NA,NA,NA,NA,""
"image-keyboard-response",197,249550,"0.0-3.62-0.62","skn5vpde2eurr8u",48,"103.csv","","29883.10000000149","resources/trios/L1T1A3.jpg","39","restless",0.3,0.5,0.4,0.349311226015385,"true"
"image-keyboard-response",198,249957,"0.0-3.62-1.62","skn5vpde2eurr8u",48,"103.csv","","null","resources/maskTrios/BBA3.jpg","null","",NA,NA,NA,NA,""
"image-keyboard-response",199,251165,"0.0-3.62-2.62","skn5vpde2eurr8u",48,"103.csv","","null","resources/images/coin2.png","null","",NA,NA,NA,NA,""
"image-keyboard-response",200,255004,"0.0-3.63-0.63","skn5vpde2eurr8u",48,"103.csv","","3836.89999999851","resources/trios/L1T1A2.jpg","39","restless",0.3,0.6,0.4,0.937421180695162,"false"
"image-keyboard-response",201,255410,"0.0-3.63-1.63","skn5vpde2eurr8u",48,"103.csv","","null","resources/maskTrios/BBA2.jpg","null","",NA,NA,NA,NA,""
"image-keyboard-response",202,256617,"0.0-3.63-2.63","skn5vpde2eurr8u",48,"103.csv","","null","resources/images/fishbone.png","null","",NA,NA,NA,NA,""
"image-keyboard-response",203,257617,"0.0-3.64-0.64","skn5vpde2eurr8u",48,"103.csv","","996.9000000022352","resources/trios/L2T1A2.jpg","38","restless",0.3,0.6,0.4,0.427718209030792,"true"
"image-keyboard-response",204,258024,"0.0-3.64-1.64","skn5vpde2eurr8u",48,"103.csv","","null","resources/maskTrios/BT1B.jpg","null","",NA,NA,NA,NA,""
"image-keyboard-response",205,259231,"0.0-3.64-2.64","skn5vpde2eurr8u",48,"103.csv","","null","resources/images/coin2.png","null","",NA,NA,NA,NA,""
"image-keyboard-response",206,259630,"0.0-3.65-0.65","skn5vpde2eurr8u",48,"103.csv","","397","resources/trios/L2T1A3.jpg","38","restless",0.3,0.6,0.4,0.90872530603435,"false"
"image-keyboard-response",207,260033,"0.0-3.65-1.65","skn5vpde2eurr8u",48,"103.csv","","null","resources/maskTrios/BT1B.jpg","null","",NA,NA,NA,NA,""
"image-keyboard-response",208,261239,"0.0-3.65-2.65","skn5vpde2eurr8u",48,"103.csv","","null","resources/images/fishbone.png","null","",NA,NA,NA,NA,""
"image-keyboard-response",209,261703,"0.0-3.66-0.66","skn5vpde2eurr8u",48,"103.csv","","461","resources/trios/L2T4A3.jpg","38","restless",0.4,0.6,0.4,0.0472586743861427,"true"
"image-keyboard-response",210,262110,"0.0-3.66-1.66","skn5vpde2eurr8u",48,"103.csv","","null","resources/maskTrios/BT4B.jpg","null","",NA,NA,NA,NA,""
"image-keyboard-response",211,263317,"0.0-3.66-2.66","skn5vpde2eurr8u",48,"103.csv","","null","resources/images/coin2.png","null","",NA,NA,NA,NA,""
"image-keyboard-response",212,263812,"0.0-3.67-0.67","skn5vpde2eurr8u",48,"103.csv","","492.69999999925494","resources/trios/L2T1A2.jpg","38","restless",0.4,0.6,0.5,0.147111506954634,"true"
"image-keyboard-response",213,264219,"0.0-3.67-1.67","skn5vpde2eurr8u",48,"103.csv","","null","resources/maskTrios/BT1B.jpg","null","",NA,NA,NA,NA,""
"image-keyboard-response",214,265427,"0.0-3.67-2.67","skn5vpde2eurr8u",48,"103.csv","","null","resources/images/coin2.png","null","",NA,NA,NA,NA,""
"image-keyboard-response",215,265942,"0.0-3.68-0.68","skn5vpde2eurr8u",48,"103.csv","","512.8999999985099","resources/trios/L2T1A3.jpg","38","restless",0.4,0.6,0.4,0.259473517673143,"true"
"image-keyboard-response",216,266349,"0.0-3.68-1.68","skn5vpde2eurr8u",48,"103.csv","","null","resources/maskTrios/BT1B.jpg","null","",NA,NA,NA,NA,""
"image-keyboard-response",217,267557,"0.0-3.68-2.68","skn5vpde2eurr8u",48,"103.csv","","null","resources/images/coin2.png","null","",NA,NA,NA,NA,""
"image-keyboard-response",218,268073,"0.0-3.69-0.69","skn5vpde2eurr8u",48,"103.csv","","513.9000000022352","resources/trios/L1T1A2.jpg","38","restless",0.4,0.6,0.4,0.99762782535065,"false"
"image-keyboard-response",219,268480,"0.0-3.69-1.69","skn5vpde2eurr8u",48,"103.csv","","null","resources/maskTrios/BT1B.jpg","null","",NA,NA,NA,NA,""
"image-keyboard-response",220,269687,"0.0-3.69-2.69","skn5vpde2eurr8u",48,"103.csv","","null","resources/images/fishbone.png","null","",NA,NA,NA,NA,""
"image-keyboard-response",221,270203,"0.0-3.70-0.70","skn5vpde2eurr8u",48,"103.csv","","514","resources/trios/L1T1A2.jpg","37","restless",0.4,0.6,0.4,0.479088654393133,"false"
"image-keyboard-response",222,270611,"0.0-3.70-1.70","skn5vpde2eurr8u",48,"103.csv","","null","resources/maskTrios/L1BB.jpg","null","",NA,NA,NA,NA,""
"image-keyboard-response",223,271817,"0.0-3.70-2.70","skn5vpde2eurr8u",48,"103.csv","","null","resources/images/fishbone.png","null","",NA,NA,NA,NA,""
"image-keyboard-response",224,272153,"0.0-3.71-0.71","skn5vpde2eurr8u",48,"103.csv","","333.3999999985099","resources/trios/L1T1A3.jpg","39","restless",0.4,0.6,0.4,0.305341770528892,"true"
"image-keyboard-response",225,272560,"0.0-3.71-1.71","skn5vpde2eurr8u",48,"103.csv","","null","resources/maskTrios/BBA3.jpg","null","",NA,NA,NA,NA,""
"image-keyboard-response",226,273768,"0.0-3.71-2.71","skn5vpde2eurr8u",48,"103.csv","","null","resources/images/coin2.png","null","",NA,NA,NA,NA,""
"image-keyboard-response",227,274212,"0.0-3.72-0.72","skn5vpde2eurr8u",48,"103.csv","","441.5999999977648","resources/trios/L2T4A2.jpg","39","restless",0.4,0.6,0.4,0.119124650464629,"true"
"image-keyboard-response",228,274619,"0.0-3.72-1.72","skn5vpde2eurr8u",48,"103.csv","","null","resources/maskTrios/BBA2.jpg","null","",NA,NA,NA,NA,""
"image-keyboard-response",229,275826,"0.0-3.72-2.72","skn5vpde2eurr8u",48,"103.csv","","null","resources/images/coin2.png","null","",NA,NA,NA,NA,""
"image-keyboard-response",230,276249,"0.0-3.73-0.73","skn5vpde2eurr8u",48,"103.csv","","421","resources/trios/L1T4A3.jpg","39","restless",0.4,0.6,0.4,0.844854098645355,"false"
"image-keyboard-response",231,276654,"0.0-3.73-1.73","skn5vpde2eurr8u",48,"103.csv","","null","resources/maskTrios/BBA3.jpg","null","",NA,NA,NA,NA,""
"image-keyboard-response",232,277861,"0.0-3.73-2.73","skn5vpde2eurr8u",48,"103.csv","","null","resources/images/fishbone.png","null","",NA,NA,NA,NA,""
"image-keyboard-response",233,278458,"0.0-3.74-0.74","skn5vpde2eurr8u",48,"103.csv","","595.2000000029802","resources/trios/L2T1A3.jpg","38","restless",0.4,0.6,0.4,0.141932989776226,"true"
"image-keyboard-response",234,278865,"0.0-3.74-1.74","skn5vpde2eurr8u",48,"103.csv","","null","resources/maskTrios/BT1B.jpg","null","",NA,NA,NA,NA,""
"image-keyboard-response",235,280073,"0.0-3.74-2.74","skn5vpde2eurr8u",48,"103.csv","","null","resources/images/coin2.png","null","",NA,NA,NA,NA,""
"image-keyboard-response",236,280667,"0.0-3.75-0.75","skn5vpde2eurr8u",48,"103.csv","","592.0999999977648","resources/trios/L1T4A3.jpg","39","restless",0.4,0.5,0.4,0.0100580701318629,"true"
"image-keyboard-response",237,281071,"0.0-3.75-1.75","skn5vpde2eurr8u",48,"103.csv","","null","resources/maskTrios/BBA3.jpg","null","",NA,NA,NA,NA,""
"image-keyboard-response",238,282279,"0.0-3.75-2.75","skn5vpde2eurr8u",48,"103.csv","","null","resources/images/coin2.png","null","",NA,NA,NA,NA,""
"image-keyboard-response",239,282617,"0.0-3.76-0.76","skn5vpde2eurr8u",48,"103.csv","","335.9000000022352","resources/trios/L1T4A2.jpg","38","restless",0.4,0.5,0.4,0.752873299045993,"false"
"image-keyboard-response",240,283024,"0.0-3.76-1.76","skn5vpde2eurr8u",48,"103.csv","","null","resources/maskTrios/BT4B.jpg","null","",NA,NA,NA,NA,""
"image-keyboard-response",241,284228,"0.0-3.76-2.76","skn5vpde2eurr8u",48,"103.csv","","null","resources/images/fishbone.png","null","",NA,NA,NA,NA,""
"image-keyboard-response",242,284558,"0.0-3.77-0.77","skn5vpde2eurr8u",48,"103.csv","","327.69999999925494","resources/trios/L2T4A2.jpg","39","restless",0.4,0.6,0.4,0.83046849840359,"false"
"image-keyboard-response",243,284965,"0.0-3.77-1.77","skn5vpde2eurr8u",48,"103.csv","","null","resources/maskTrios/BBA2.jpg","null","",NA,NA,NA,NA,""
"image-keyboard-response",244,286172,"0.0-3.77-2.77","skn5vpde2eurr8u",48,"103.csv","","null","resources/images/fishbone.png","null","",NA,NA,NA,NA,""
"image-keyboard-response",245,286549,"0.0-3.78-0.78","skn5vpde2eurr8u",48,"103.csv","","374.69999999925494","resources/trios/L1T4A2.jpg","39","restless",0.4,0.6,0.4,0.243229007500086,"true"
"image-keyboard-response",246,286957,"0.0-3.78-1.78","skn5vpde2eurr8u",48,"103.csv","","null","resources/maskTrios/BBA2.jpg","null","",NA,NA,NA,NA,""
"image-keyboard-response",247,288164,"0.0-3.78-2.78","skn5vpde2eurr8u",48,"103.csv","","null","resources/images/coin2.png","null","",NA,NA,NA,NA,""
"image-keyboard-response",248,288537,"0.0-3.79-0.79","skn5vpde2eurr8u",48,"103.csv","","370.80000000074506","resources/trios/L1T1A3.jpg","39","restless",0.4,0.6,0.4,0.967727244462832,"false"
"image-keyboard-response",249,288945,"0.0-3.79-1.79","skn5vpde2eurr8u",48,"103.csv","","null","resources/maskTrios/BBA3.jpg","null","",NA,NA,NA,NA,""
"image-keyboard-response",250,290151,"0.0-3.79-2.79","skn5vpde2eurr8u",48,"103.csv","","null","resources/images/fishbone.png","null","",NA,NA,NA,NA,""
"image-keyboard-response",251,291947,"0.0-3.80-0.80","skn5vpde2eurr8u",48,"103.csv","","1794.2999999970198","resources/trios/L2T4A3.jpg","39","restless",0.4,0.6,0.4,0.0964140283843831,"true"
"image-keyboard-response",252,292355,"0.0-3.80-1.80","skn5vpde2eurr8u",48,"103.csv","","null","resources/maskTrios/BBA3.jpg","null","",NA,NA,NA,NA,""
"image-keyboard-response",253,293560,"0.0-3.80-2.80","skn5vpde2eurr8u",48,"103.csv","","null","resources/images/coin2.png","null","",NA,NA,NA,NA,""
"image-keyboard-response",254,296926,"0.0-3.81-0.81","skn5vpde2eurr8u",48,"103.csv","","3363.2000000029802","resources/trios/L2T1A3.jpg","39","restless",0.4,0.6,0.5,0.894234678132933,"false"
"image-keyboard-response",255,297333,"0.0-3.81-1.81","skn5vpde2eurr8u",48,"103.csv","","null","resources/maskTrios/BBA3.jpg","null","",NA,NA,NA,NA,""
"image-keyboard-response",256,298540,"0.0-3.81-2.81","skn5vpde2eurr8u",48,"103.csv","","null","resources/images/fishbone.png","null","",NA,NA,NA,NA,""
"image-keyboard-response",257,299259,"0.0-3.82-0.82","skn5vpde2eurr8u",48,"103.csv","","716.3999999985099","resources/trios/L2T4A2.jpg","39","restless",0.4,0.6,0.5,0.135938220423627,"true"
"image-keyboard-response",258,299663,"0.0-3.82-1.82","skn5vpde2eurr8u",48,"103.csv","","null","resources/maskTrios/BBA2.jpg","null","",NA,NA,NA,NA,""
"image-keyboard-response",259,300870,"0.0-3.82-2.82","skn5vpde2eurr8u",48,"103.csv","","null","resources/images/coin2.png","null","",NA,NA,NA,NA,""
"image-keyboard-response",260,301268,"0.0-3.83-0.83","skn5vpde2eurr8u",48,"103.csv","","395.69999999925494","resources/trios/L2T1A2.jpg","39","restless",0.4,0.6,0.5,0.0259340733485929,"true"
"image-keyboard-response",261,301672,"0.0-3.83-1.83","skn5vpde2eurr8u",48,"103.csv","","null","resources/maskTrios/BBA2.jpg","null","",NA,NA,NA,NA,""
"image-keyboard-response",262,302879,"0.0-3.83-2.83","skn5vpde2eurr8u",48,"103.csv","","null","resources/images/coin2.png","null","",NA,NA,NA,NA,""
"image-keyboard-response",263,303261,"0.0-3.84-0.84","skn5vpde2eurr8u",48,"103.csv","","379.6000000014901","resources/trios/L2T1A2.jpg","39","restless",0.3,0.6,0.5,0.418898643413247,"true"
"image-keyboard-response",264,303664,"0.0-3.84-1.84","skn5vpde2eurr8u",48,"103.csv","","null","resources/maskTrios/BBA2.jpg","null","",NA,NA,NA,NA,""
"image-keyboard-response",265,304871,"0.0-3.84-2.84","skn5vpde2eurr8u",48,"103.csv","","null","resources/images/coin2.png","null","",NA,NA,NA,NA,""
"image-keyboard-response",266,305219,"0.0-3.85-0.85","skn5vpde2eurr8u",48,"103.csv","","345.1000000014901","resources/trios/L1T1A3.jpg","39","restless",0.3,0.6,0.5,0.706406059006905,"false"
"image-keyboard-response",267,305626,"0.0-3.85-1.85","skn5vpde2eurr8u",48,"103.csv","","null","resources/maskTrios/BBA3.jpg","null","",NA,NA,NA,NA,""
"image-keyboard-response",268,306833,"0.0-3.85-2.85","skn5vpde2eurr8u",48,"103.csv","","null","resources/images/fishbone.png","null","",NA,NA,NA,NA,""
"image-keyboard-response",269,307504,"0.0-3.86-0.86","skn5vpde2eurr8u",48,"103.csv","","667.8000000007451","resources/trios/L2T1A3.jpg","38","restless",0.3,0.6,0.4,0.0251274569321094,"true"
"image-keyboard-response",270,307911,"0.0-3.86-1.86","skn5vpde2eurr8u",48,"103.csv","","null","resources/maskTrios/BT1B.jpg","null","",NA,NA,NA,NA,""
"image-keyboard-response",271,309115,"0.0-3.86-2.86","skn5vpde2eurr8u",48,"103.csv","","null","resources/images/coin2.png","null","",NA,NA,NA,NA,""
"image-keyboard-response",272,309437,"0.0-3.87-0.87","skn5vpde2eurr8u",48,"103.csv","","319.70000000298023","resources/trios/L1T1A2.jpg","38","restless",0.3,0.6,0.4,0.00931554929387812,"true"
"image-keyboard-response",273,309844,"0.0-3.87-1.87","skn5vpde2eurr8u",48,"103.csv","","null","resources/maskTrios/BT1B.jpg","null","",NA,NA,NA,NA,""
"image-keyboard-response",274,311052,"0.0-3.87-2.87","skn5vpde2eurr8u",48,"103.csv","","null","resources/images/coin2.png","null","",NA,NA,NA,NA,""
"image-keyboard-response",275,311430,"0.0-3.88-0.88","skn5vpde2eurr8u",48,"103.csv","","375.80000000074506","resources/trios/L1T1A2.jpg","37","restless",0.3,0.6,0.4,0.584970950552863,"false"
"image-keyboard-response",276,311837,"0.0-3.88-1.88","skn5vpde2eurr8u",48,"103.csv","","null","resources/maskTrios/L1BB.jpg","null","",NA,NA,NA,NA,""
"image-keyboard-response",277,313044,"0.0-3.88-2.88","skn5vpde2eurr8u",48,"103.csv","","null","resources/images/fishbone.png","null","",NA,NA,NA,NA,""
"image-keyboard-response",278,313430,"0.0-3.89-0.89","skn5vpde2eurr8u",48,"103.csv","","383.4000000022352","resources/trios/L1T1A3.jpg","38","restless",0.3,0.6,0.4,0.937539476245359,"false"
"image-keyboard-response",279,313837,"0.0-3.89-1.89","skn5vpde2eurr8u",48,"103.csv","","null","resources/maskTrios/BT1B.jpg","null","",NA,NA,NA,NA,""
"image-keyboard-response",280,315043,"0.0-3.89-2.89","skn5vpde2eurr8u",48,"103.csv","","null","resources/images/fishbone.png","null","",NA,NA,NA,NA,""
"image-keyboard-response",281,315653,"0.0-3.90-0.90","skn5vpde2eurr8u",48,"103.csv","","607","resources/trios/L2T4A3.jpg","38","restless",0.3,0.6,0.4,0.441667914594438,"true"
"image-keyboard-response",282,316060,"0.0-3.90-1.90","skn5vpde2eurr8u",48,"103.csv","","null","resources/maskTrios/BT4B.jpg","null","",NA,NA,NA,NA,""
"image-keyboard-response",283,317267,"0.0-3.90-2.90","skn5vpde2eurr8u",48,"103.csv","","null","resources/images/coin2.png","null","",NA,NA,NA,NA,""
"image-keyboard-response",284,317765,"0.0-3.91-0.91","skn5vpde2eurr8u",48,"103.csv","","495.1000000014901","resources/trios/L2T4A2.jpg","38","restless",0.3,0.5,0.4,0.0892746294116407,"true"
"image-keyboard-response",285,318172,"0.0-3.91-1.91","skn5vpde2eurr8u",48,"103.csv","","null","resources/maskTrios/BT4B.jpg","null","",NA,NA,NA,NA,""
"image-keyboard-response",286,319380,"0.0-3.91-2.91","skn5vpde2eurr8u",48,"103.csv","","null","resources/images/coin2.png","null","",NA,NA,NA,NA,""
"image-keyboard-response",287,320146,"0.0-3.92-0.92","skn5vpde2eurr8u",48,"103.csv","","763.6000000014901","resources/trios/L1T4A2.jpg","38","restless",0.3,0.5,0.4,0.773762103285352,"false"
"image-keyboard-response",288,320553,"0.0-3.92-1.92","skn5vpde2eurr8u",48,"103.csv","","null","resources/maskTrios/BT4B.jpg","null","",NA,NA,NA,NA,""
"image-keyboard-response",289,321756,"0.0-3.92-2.92","skn5vpde2eurr8u",48,"103.csv","","null","resources/images/fishbone.png","null","",NA,NA,NA,NA,""
"image-keyboard-response",290,322286,"0.0-3.93-0.93","skn5vpde2eurr8u",48,"103.csv","","527.8999999985099","resources/trios/L1T4A3.jpg","39","restless",0.3,0.5,0.4,0.300926865976424,"true"
"image-keyboard-response",291,322693,"0.0-3.93-1.93","skn5vpde2eurr8u",48,"103.csv","","null","resources/maskTrios/BBA3.jpg","null","",NA,NA,NA,NA,""
"image-keyboard-response",292,323901,"0.0-3.93-2.93","skn5vpde2eurr8u",48,"103.csv","","null","resources/images/coin2.png","null","",NA,NA,NA,NA,""
"image-keyboard-response",293,324481,"0.0-3.94-0.94","skn5vpde2eurr8u",48,"103.csv","","578.0999999977648","resources/trios/L1T1A2.jpg","39","restless",0.3,0.5,0.4,0.967520339462306,"false"
"image-keyboard-response",294,324889,"0.0-3.94-1.94","skn5vpde2eurr8u",48,"103.csv","","null","resources/maskTrios/BBA2.jpg","null","",NA,NA,NA,NA,""
"image-keyboard-response",295,326095,"0.0-3.94-2.94","skn5vpde2eurr8u",48,"103.csv","","null","resources/images/fishbone.png","null","",NA,NA,NA,NA,""
"image-keyboard-response",296,326560,"0.0-3.95-0.95","skn5vpde2eurr8u",48,"103.csv","","462.69999999925494","resources/trios/L1T1A3.jpg","37","restless",0.3,0.5,0.4,0.0141155295075264,"true"
"image-keyboard-response",297,326968,"0.0-3.95-1.95","skn5vpde2eurr8u",48,"103.csv","","null","resources/maskTrios/L1BB.jpg","null","",NA,NA,NA,NA,""
"image-keyboard-response",298,328174,"0.0-3.95-2.95","skn5vpde2eurr8u",48,"103.csv","","null","resources/images/coin2.png","null","",NA,NA,NA,NA,""
"image-keyboard-response",299,328603,"0.0-3.96-0.96","skn5vpde2eurr8u",48,"103.csv","","427.5","resources/trios/L2T4A2.jpg","37","restless",0.3,0.5,0.4,0.178303077714721,"true"
"image-keyboard-response",300,329011,"0.0-3.96-1.96","skn5vpde2eurr8u",48,"103.csv","","null","resources/maskTrios/L2BB.jpg","null","",NA,NA,NA,NA,""
"image-keyboard-response",301,330218,"0.0-3.96-2.96","skn5vpde2eurr8u",48,"103.csv","","null","resources/images/coin2.png","null","",NA,NA,NA,NA,""
"image-keyboard-response",302,330991,"0.0-3.97-0.97","skn5vpde2eurr8u",48,"103.csv","","770.5","resources/trios/L1T4A2.jpg","37","restless",0.2,0.5,0.4,0.337169917784844,"false"
"image-keyboard-response",303,331396,"0.0-3.97-1.97","skn5vpde2eurr8u",48,"103.csv","","null","resources/maskTrios/L1BB.jpg","null","",NA,NA,NA,NA,""
"image-keyboard-response",304,332603,"0.0-3.97-2.97","skn5vpde2eurr8u",48,"103.csv","","null","resources/images/fishbone.png","null","",NA,NA,NA,NA,""
"image-keyboard-response",305,332952,"0.0-3.98-0.98","skn5vpde2eurr8u",48,"103.csv","","346.69999999925494","resources/trios/L1T4A2.jpg","39","restless",0.3,0.5,0.4,0.342929263481121,"true"
"image-keyboard-response",306,333359,"0.0-3.98-1.98","skn5vpde2eurr8u",48,"103.csv","","null","resources/maskTrios/BBA2.jpg","null","",NA,NA,NA,NA,""
"image-keyboard-response",307,334567,"0.0-3.98-2.98","skn5vpde2eurr8u",48,"103.csv","","null","resources/images/coin2.png","null","",NA,NA,NA,NA,""
"image-keyboard-response",308,334876,"0.0-3.99-0.99","skn5vpde2eurr8u",48,"103.csv","","306.70000000298023","resources/trios/L2T4A2.jpg","39","restless",0.3,0.5,0.4,0.132601950705087,"true"
"image-keyboard-response",309,335283,"0.0-3.99-1.99","skn5vpde2eurr8u",48,"103.csv","","null","resources/maskTrios/BBA2.jpg","null","",NA,NA,NA,NA,""
"image-keyboard-response",310,336491,"0.0-3.99-2.99","skn5vpde2eurr8u",48,"103.csv","","null","resources/images/coin2.png","null","",NA,NA,NA,NA,""
"image-keyboard-response",311,336816,"0.0-3.100-0.100","skn5vpde2eurr8u",48,"103.csv","","323.3999999985099","resources/trios/L2T1A3.jpg","38","restless",0.4,0.5,0.4,0.30705662747876,"true"
"image-keyboard-response",312,337224,"0.0-3.100-1.100","skn5vpde2eurr8u",48,"103.csv","","null","resources/maskTrios/BT1B.jpg","null","",NA,NA,NA,NA,""
"image-keyboard-response",313,338430,"0.0-3.100-2.100","skn5vpde2eurr8u",48,"103.csv","","null","resources/images/coin2.png","null","",NA,NA,NA,NA,""
"image-keyboard-response",314,338818,"0.0-3.101-0.101","skn5vpde2eurr8u",48,"103.csv","","385.69999999925494","resources/trios/L1T4A2.jpg","38","restless",0.5,0.5,0.4,0.0832754873609778,"true"
"image-keyboard-response",315,339225,"0.0-3.101-1.101","skn5vpde2eurr8u",48,"103.csv","","null","resources/maskTrios/BT4B.jpg","null","",NA,NA,NA,NA,""
"image-keyboard-response",316,340433,"0.0-3.101-2.101","skn5vpde2eurr8u",48,"103.csv","","null","resources/images/coin2.png","null","",NA,NA,NA,NA,""
"image-keyboard-response",317,340860,"0.0-3.102-0.102","skn5vpde2eurr8u",48,"103.csv","","424.8999999985099","resources/trios/L1T1A3.jpg","37","restless",0.6,0.5,0.4,0.649412510462294,"false"
"image-keyboard-response",318,341268,"0.0-3.102-1.102","skn5vpde2eurr8u",48,"103.csv","","null","resources/maskTrios/L1BB.jpg","null","",NA,NA,NA,NA,""
"image-keyboard-response",319,342475,"0.0-3.102-2.102","skn5vpde2eurr8u",48,"103.csv","","null","resources/images/fishbone.png","null","",NA,NA,NA,NA,""
"image-keyboard-response",320,342864,"0.0-3.103-0.103","skn5vpde2eurr8u",48,"103.csv","","387","resources/trios/L1T4A2.jpg","37","restless",0.6,0.5,0.3,0.444681393361783,"true"
"image-keyboard-response",321,343267,"0.0-3.103-1.103","skn5vpde2eurr8u",48,"103.csv","","null","resources/maskTrios/L1BB.jpg","null","",NA,NA,NA,NA,""
"image-keyboard-response",322,344474,"0.0-3.103-2.103","skn5vpde2eurr8u",48,"103.csv","","null","resources/images/coin2.png","null","",NA,NA,NA,NA,""
"image-keyboard-response",323,344868,"0.0-3.104-0.104","skn5vpde2eurr8u",48,"103.csv","","390.9000000022352","resources/trios/L2T4A2.jpg","37","restless",0.6,0.5,0.2,0.882314944210798,"false"
"image-keyboard-response",324,345275,"0.0-3.104-1.104","skn5vpde2eurr8u",48,"103.csv","","null","resources/maskTrios/L2BB.jpg","null","",NA,NA,NA,NA,""
"image-keyboard-response",325,346482,"0.0-3.104-2.104","skn5vpde2eurr8u",48,"103.csv","","null","resources/images/fishbone.png","null","",NA,NA,NA,NA,""
"image-keyboard-response",326,346663,"0.0-3.105-0.105","skn5vpde2eurr8u",48,"103.csv","","178.80000000074506","resources/trios/L1T4A3.jpg","39","restless",0.6,0.5,0.2,0.689241445535463,"false"
"image-keyboard-response",327,347068,"0.0-3.105-1.105","skn5vpde2eurr8u",48,"103.csv","","null","resources/maskTrios/BBA3.jpg","null","",NA,NA,NA,NA,""
"image-keyboard-response",328,348275,"0.0-3.105-2.105","skn5vpde2eurr8u",48,"103.csv","","null","resources/images/fishbone.png","null","",NA,NA,NA,NA,""
"image-keyboard-response",329,348653,"0.0-3.106-0.106","skn5vpde2eurr8u",48,"103.csv","","375.4000000022352","resources/trios/L2T4A3.jpg","38","restless",0.6,0.5,0.2,0.0549074567280963,"true"
"image-keyboard-response",330,349060,"0.0-3.106-1.106","skn5vpde2eurr8u",48,"103.csv","","null","resources/maskTrios/BT4B.jpg","null","",NA,NA,NA,NA,""
"image-keyboard-response",331,350268,"0.0-3.106-2.106","skn5vpde2eurr8u",48,"103.csv","","null","resources/images/coin2.png","null","",NA,NA,NA,NA,""
"image-keyboard-response",332,350712,"0.0-3.107-0.107","skn5vpde2eurr8u",48,"103.csv","","442.19999999925494","resources/trios/L2T4A2.jpg","38","restless",0.7,0.5,0.2,0.644847751157485,"false"
"image-keyboard-response",333,351119,"0.0-3.107-1.107","skn5vpde2eurr8u",48,"103.csv","","null","resources/maskTrios/BT4B.jpg","null","",NA,NA,NA,NA,""
"image-keyboard-response",334,352326,"0.0-3.107-2.107","skn5vpde2eurr8u",48,"103.csv","","null","resources/images/fishbone.png","null","",NA,NA,NA,NA,""
"image-keyboard-response",335,352891,"0.0-3.108-0.108","skn5vpde2eurr8u",48,"103.csv","","562.4000000022352","resources/trios/L2T1A3.jpg","39","restless",0.7,0.5,0.2,0.358972447113985,"false"
"image-keyboard-response",336,353299,"0.0-3.108-1.108","skn5vpde2eurr8u",48,"103.csv","","null","resources/maskTrios/BBA3.jpg","null","",NA,NA,NA,NA,""
"image-keyboard-response",337,354506,"0.0-3.108-2.108","skn5vpde2eurr8u",48,"103.csv","","null","resources/images/fishbone.png","null","",NA,NA,NA,NA,""
"image-keyboard-response",338,354872,"0.0-3.109-0.109","skn5vpde2eurr8u",48,"103.csv","","363.8999999985099","resources/trios/L1T4A2.jpg","37","restless",0.7,0.5,0.2,0.339317825462891,"true"
"image-keyboard-response",339,355279,"0.0-3.109-1.109","skn5vpde2eurr8u",48,"103.csv","","null","resources/maskTrios/L1BB.jpg","null","",NA,NA,NA,NA,""
"image-keyboard-response",340,356486,"0.0-3.109-2.109","skn5vpde2eurr8u",48,"103.csv","","null","resources/images/coin2.png","null","",NA,NA,NA,NA,""
"image-keyboard-response",341,356957,"0.0-3.110-0.110","skn5vpde2eurr8u",48,"103.csv","","469.19999999925494","resources/trios/L2T1A2.jpg","37","restless",0.7,0.5,0.2,0.181785891734491,"true"
"image-keyboard-response",342,357364,"0.0-3.110-1.110","skn5vpde2eurr8u",48,"103.csv","","null","resources/maskTrios/L2BB.jpg","null","",NA,NA,NA,NA,""
"image-keyboard-response",343,358571,"0.0-3.110-2.110","skn5vpde2eurr8u",48,"103.csv","","null","resources/images/coin2.png","null","",NA,NA,NA,NA,""
"image-keyboard-response",344,359354,"0.0-3.111-0.111","skn5vpde2eurr8u",48,"103.csv","","780.8000000007451","resources/trios/L2T1A2.jpg","39","restless",0.7,0.5,0.2,0.282823866878863,"false"
"image-keyboard-response",345,359761,"0.0-3.111-1.111","skn5vpde2eurr8u",48,"103.csv","","null","resources/maskTrios/BBA2.jpg","null","",NA,NA,NA,NA,""
"image-keyboard-response",346,360968,"0.0-3.111-2.111","skn5vpde2eurr8u",48,"103.csv","","null","resources/images/fishbone.png","null","",NA,NA,NA,NA,""
"image-keyboard-response",347,361352,"0.0-3.112-0.112","skn5vpde2eurr8u",48,"103.csv","","382.5","resources/trios/L2T4A2.jpg","39","restless",0.7,0.5,0.2,0.140042286530284,"true"
"image-keyboard-response",348,361759,"0.0-3.112-1.112","skn5vpde2eurr8u",48,"103.csv","","null","resources/maskTrios/BBA2.jpg","null","",NA,NA,NA,NA,""
"image-keyboard-response",349,362966,"0.0-3.112-2.112","skn5vpde2eurr8u",48,"103.csv","","null","resources/images/coin2.png","null","",NA,NA,NA,NA,""
"image-keyboard-response",350,363565,"0.0-3.113-0.113","skn5vpde2eurr8u",48,"103.csv","","596.9000000022352","resources/trios/L2T4A3.jpg","39","restless",0.7,0.5,0.2,0.264637338082037,"false"
"image-keyboard-response",351,363972,"0.0-3.113-1.113","skn5vpde2eurr8u",48,"103.csv","","null","resources/maskTrios/BBA3.jpg","null","",NA,NA,NA,NA,""
"image-keyboard-response",352,365179,"0.0-3.113-2.113","skn5vpde2eurr8u",48,"103.csv","","null","resources/images/fishbone.png","null","",NA,NA,NA,NA,""
"image-keyboard-response",353,365947,"0.0-3.114-0.114","skn5vpde2eurr8u",48,"103.csv","","765.4000000022352","resources/trios/L2T1A2.jpg","38","restless",0.8,0.5,0.2,0.396943182070762,"true"
"image-keyboard-response",354,366354,"0.0-3.114-1.114","skn5vpde2eurr8u",48,"103.csv","","null","resources/maskTrios/BT1B.jpg","null","",NA,NA,NA,NA,""
"image-keyboard-response",355,367561,"0.0-3.114-2.114","skn5vpde2eurr8u",48,"103.csv","","null","resources/images/coin2.png","null","",NA,NA,NA,NA,""
"image-keyboard-response",356,368145,"0.0-3.115-0.115","skn5vpde2eurr8u",48,"103.csv","","582.1999999992549","resources/trios/L2T4A3.jpg","38","restless",0.8,0.5,0.2,0.663335477219625,"false"
"image-keyboard-response",357,368553,"0.0-3.115-1.115","skn5vpde2eurr8u",48,"103.csv","","null","resources/maskTrios/BT4B.jpg","null","",NA,NA,NA,NA,""
"image-keyboard-response",358,369760,"0.0-3.115-2.115","skn5vpde2eurr8u",48,"103.csv","","null","resources/images/fishbone.png","null","",NA,NA,NA,NA,""
"image-keyboard-response",359,370166,"0.0-3.116-0.116","skn5vpde2eurr8u",48,"103.csv","","404.29999999701977","resources/trios/L2T1A2.jpg","37","restless",0.8,0.5,0.1,0.866163322176255,"false"
"image-keyboard-response",360,370573,"0.0-3.116-1.116","skn5vpde2eurr8u",48,"103.csv","","null","resources/maskTrios/L2BB.jpg","null","",NA,NA,NA,NA,""
"image-keyboard-response",361,371775,"0.0-3.116-2.116","skn5vpde2eurr8u",48,"103.csv","","null","resources/images/fishbone.png","null","",NA,NA,NA,NA,""
"image-keyboard-response",362,372198,"0.0-3.117-0.117","skn5vpde2eurr8u",48,"103.csv","","420.70000000298023","resources/trios/L1T4A3.jpg","39","restless",0.7,0.5,0.1,0.175628534612016,"false"
"image-keyboard-response",363,372605,"0.0-3.117-1.117","skn5vpde2eurr8u",48,"103.csv","","null","resources/maskTrios/BBA3.jpg","null","",NA,NA,NA,NA,""
"image-keyboard-response",364,373807,"0.0-3.117-2.117","skn5vpde2eurr8u",48,"103.csv","","null","resources/images/fishbone.png","null","",NA,NA,NA,NA,""
"image-keyboard-response",365,374228,"0.0-3.118-0.118","skn5vpde2eurr8u",48,"103.csv","","420.19999999925494","resources/trios/L1T4A3.jpg","39","restless",0.7,0.5,0.1,0.252787400617874,"false"
"image-keyboard-response",366,374635,"0.0-3.118-1.118","skn5vpde2eurr8u",48,"103.csv","","null","resources/maskTrios/BBA3.jpg","null","",NA,NA,NA,NA,""
"image-keyboard-response",367,375842,"0.0-3.118-2.118","skn5vpde2eurr8u",48,"103.csv","","null","resources/images/fishbone.png","null","",NA,NA,NA,NA,""
"image-keyboard-response",368,376212,"0.0-3.119-0.119","skn5vpde2eurr8u",48,"103.csv","","368.5","resources/trios/L1T4A2.jpg","38","restless",0.7,0.5,0.1,0.780168132455039,"false"
"image-keyboard-response",369,376619,"0.0-3.119-1.119","skn5vpde2eurr8u",48,"103.csv","","null","resources/maskTrios/BT4B.jpg","null","",NA,NA,NA,NA,""
"image-keyboard-response",370,377821,"0.0-3.119-2.119","skn5vpde2eurr8u",48,"103.csv","","null","resources/images/fishbone.png","null","",NA,NA,NA,NA,""
"image-keyboard-response",371,378353,"0.0-3.120-0.120","skn5vpde2eurr8u",48,"103.csv","","530","resources/trios/L1T1A3.jpg","38","restless",0.7,0.5,0.1,0.663053183567315,"false"
"image-keyboard-response",372,378760,"0.0-3.120-1.120","skn5vpde2eurr8u",48,"103.csv","","null","resources/maskTrios/BT1B.jpg","null","",NA,NA,NA,NA,""
"image-keyboard-response",373,379967,"0.0-3.120-2.120","skn5vpde2eurr8u",48,"103.csv","","null","resources/images/fishbone.png","null","",NA,NA,NA,NA,""
"image-keyboard-response",374,380445,"0.0-3.121-0.121","skn5vpde2eurr8u",48,"103.csv","","476","resources/trios/L1T4A2.jpg","37","restless",0.7,0.5,0.1,0.673993245083591,"true"
"image-keyboard-response",375,380852,"0.0-3.121-1.121","skn5vpde2eurr8u",48,"103.csv","","null","resources/maskTrios/L1BB.jpg","null","",NA,NA,NA,NA,""
"image-keyboard-response",376,382059,"0.0-3.121-2.121","skn5vpde2eurr8u",48,"103.csv","","null","resources/images/coin2.png","null","",NA,NA,NA,NA,""
"image-keyboard-response",377,382500,"0.0-3.122-0.122","skn5vpde2eurr8u",48,"103.csv","","439.3999999985099","resources/trios/L2T4A2.jpg","37","restless",0.7,0.5,0.1,0.698784320661639,"true"
"image-keyboard-response",378,382907,"0.0-3.122-1.122","skn5vpde2eurr8u",48,"103.csv","","null","resources/maskTrios/L2BB.jpg","null","",NA,NA,NA,NA,""
"image-keyboard-response",379,384114,"0.0-3.122-2.122","skn5vpde2eurr8u",48,"103.csv","","null","resources/images/coin2.png","null","",NA,NA,NA,NA,""
"image-keyboard-response",380,384657,"0.0-3.123-0.123","skn5vpde2eurr8u",48,"103.csv","","541","resources/trios/L1T4A2.jpg","37","restless",0.7,0.5,0.1,0.719771882979239,"false"
"image-keyboard-response",381,385064,"0.0-3.123-1.123","skn5vpde2eurr8u",48,"103.csv","","null","resources/maskTrios/L1BB.jpg","null","",NA,NA,NA,NA,""
"image-keyboard-response",382,386271,"0.0-3.123-2.123","skn5vpde2eurr8u",48,"103.csv","","null","resources/images/fishbone.png","null","",NA,NA,NA,NA,""
"image-keyboard-response",383,386619,"0.0-3.124-0.124","skn5vpde2eurr8u",48,"103.csv","","346.19999999925494","resources/trios/L1T4A2.jpg","39","restless",0.7,0.4,0.1,0.761068379600821,"false"
"image-keyboard-response",384,387026,"0.0-3.124-1.124","skn5vpde2eurr8u",48,"103.csv","","null","resources/maskTrios/BBA2.jpg","null","",NA,NA,NA,NA,""
"image-keyboard-response",385,388233,"0.0-3.124-2.124","skn5vpde2eurr8u",48,"103.csv","","null","resources/images/fishbone.png","null","",NA,NA,NA,NA,""
"image-keyboard-response",386,388902,"0.0-3.125-0.125","skn5vpde2eurr8u",48,"103.csv","","667","resources/trios/L1T1A2.jpg","39","restless",0.7,0.4,0.1,0.689880861559398,"false"
"image-keyboard-response",387,389309,"0.0-3.125-1.125","skn5vpde2eurr8u",48,"103.csv","","null","resources/maskTrios/BBA2.jpg","null","",NA,NA,NA,NA,""
"image-keyboard-response",388,390515,"0.0-3.125-2.125","skn5vpde2eurr8u",48,"103.csv","","null","resources/images/fishbone.png","null","",NA,NA,NA,NA,""
"image-keyboard-response",389,390553,"0.0-3.126-0.126","skn5vpde2eurr8u",48,"103.csv","","35.599999997764826","resources/trios/L2T1A2.jpg","39","restless",0.7,0.4,0.1,0.158132478893797,"false"
"image-keyboard-response",390,390960,"0.0-3.126-1.126","skn5vpde2eurr8u",48,"103.csv","","null","resources/maskTrios/BBA2.jpg","null","",NA,NA,NA,NA,""
"image-keyboard-response",391,392166,"0.0-3.126-2.126","skn5vpde2eurr8u",48,"103.csv","","null","resources/images/fishbone.png","null","",NA,NA,NA,NA,""
"image-keyboard-response",392,392599,"0.0-3.127-0.127","skn5vpde2eurr8u",48,"103.csv","","431.1000000014901","resources/trios/L1T1A3.jpg","39","restless",0.7,0.4,0.1,0.339429402550445,"false"
"image-keyboard-response",393,393006,"0.0-3.127-1.127","skn5vpde2eurr8u",48,"103.csv","","null","resources/maskTrios/BBA3.jpg","null","",NA,NA,NA,NA,""
"image-keyboard-response",394,394213,"0.0-3.127-2.127","skn5vpde2eurr8u",48,"103.csv","","null","resources/images/fishbone.png","null","",NA,NA,NA,NA,""
"image-keyboard-response",395,395568,"0.0-3.128-0.128","skn5vpde2eurr8u",48,"103.csv","","1353.0999999977648","resources/trios/L1T4A2.jpg","39","restless",0.7,0.4,0.1,0.0141676064917569,"true"
"image-keyboard-response",396,395974,"0.0-3.128-1.128","skn5vpde2eurr8u",48,"103.csv","","null","resources/maskTrios/BBA2.jpg","null","",NA,NA,NA,NA,""
"image-keyboard-response",397,397177,"0.0-3.128-2.128","skn5vpde2eurr8u",48,"103.csv","","null","resources/images/coin2.png","null","",NA,NA,NA,NA,""
"image-keyboard-response",398,397855,"0.0-3.129-0.129","skn5vpde2eurr8u",48,"103.csv","","675.8999999985099","resources/trios/L1T1A3.jpg","39","restless",0.7,0.4,0.2,0.407224554221186,"false"
"image-keyboard-response",399,398261,"0.0-3.129-1.129","skn5vpde2eurr8u",48,"103.csv","","null","resources/maskTrios/BBA3.jpg","null","",NA,NA,NA,NA,""
"image-keyboard-response",400,399467,"0.0-3.129-2.129","skn5vpde2eurr8u",48,"103.csv","","null","resources/images/fishbone.png","null","",NA,NA,NA,NA,""
"image-keyboard-response",401,399901,"0.0-3.130-0.130","skn5vpde2eurr8u",48,"103.csv","","431.30000000074506","resources/trios/L2T1A3.jpg","38","restless",0.7,0.4,0.2,0.927467495555504,"false"
"image-keyboard-response",402,400308,"0.0-3.130-1.130","skn5vpde2eurr8u",48,"103.csv","","null","resources/maskTrios/BT1B.jpg","null","",NA,NA,NA,NA,""
"image-keyboard-response",403,401514,"0.0-3.130-2.130","skn5vpde2eurr8u",48,"103.csv","","null","resources/images/fishbone.png","null","",NA,NA,NA,NA,""
"image-keyboard-response",404,401953,"0.0-3.131-0.131","skn5vpde2eurr8u",48,"103.csv","","436.5","resources/trios/L1T4A3.jpg","37","restless",0.7,0.4,0.2,0.258775672585501,"true"
"image-keyboard-response",405,402356,"0.0-3.131-1.131","skn5vpde2eurr8u",48,"103.csv","","null","resources/maskTrios/L1BB.jpg","null","",NA,NA,NA,NA,""
"image-keyboard-response",406,403563,"0.0-3.131-2.131","skn5vpde2eurr8u",48,"103.csv","","null","resources/images/coin2.png","null","",NA,NA,NA,NA,""
"image-keyboard-response",407,404079,"0.0-3.132-0.132","skn5vpde2eurr8u",48,"103.csv","","514","resources/trios/L2T4A3.jpg","37","restless",0.7,0.4,0.2,0.699342063000229,"true"
"image-keyboard-response",408,404486,"0.0-3.132-1.132","skn5vpde2eurr8u",48,"103.csv","","null","resources/maskTrios/L2BB.jpg","null","",NA,NA,NA,NA,""
"image-keyboard-response",409,405693,"0.0-3.132-2.132","skn5vpde2eurr8u",48,"103.csv","","null","resources/images/coin2.png","null","",NA,NA,NA,NA,""
"image-keyboard-response",410,407316,"0.0-3.133-0.133","skn5vpde2eurr8u",48,"103.csv","","1620.5","resources/trios/L2T4A3.jpg","37","restless",0.7,0.4,0.3,0.451637310781174,"true"
"image-keyboard-response",411,407720,"0.0-3.133-1.133","skn5vpde2eurr8u",48,"103.csv","","null","resources/maskTrios/L2BB.jpg","null","",NA,NA,NA,NA,""
"image-keyboard-response",412,408923,"0.0-3.133-2.133","skn5vpde2eurr8u",48,"103.csv","","null","resources/images/coin2.png","null","",NA,NA,NA,NA,""
"image-keyboard-response",413,409814,"0.0-3.134-0.134","skn5vpde2eurr8u",48,"103.csv","","889.1999999992549","resources/trios/L1T4A2.jpg","39","restless",0.7,0.4,0.3,0.118887110543898,"true"
"image-keyboard-response",414,410221,"0.0-3.134-1.134","skn5vpde2eurr8u",48,"103.csv","","null","resources/maskTrios/BBA2.jpg","null","",NA,NA,NA,NA,""
"image-keyboard-response",415,411428,"0.0-3.134-2.134","skn5vpde2eurr8u",48,"103.csv","","null","resources/images/coin2.png","null","",NA,NA,NA,NA,""
"image-keyboard-response",416,411931,"0.0-3.135-0.135","skn5vpde2eurr8u",48,"103.csv","","500.6000000014901","resources/trios/L2T1A2.jpg","39","restless",0.7,0.4,0.3,0.723937661345032,"false"
"image-keyboard-response",417,412338,"0.0-3.135-1.135","skn5vpde2eurr8u",48,"103.csv","","null","resources/maskTrios/BBA2.jpg","null","",NA,NA,NA,NA,""
"image-keyboard-response",418,413545,"0.0-3.135-2.135","skn5vpde2eurr8u",48,"103.csv","","null","resources/images/fishbone.png","null","",NA,NA,NA,NA,""
"image-keyboard-response",419,413979,"0.0-3.136-0.136","skn5vpde2eurr8u",48,"103.csv","","431.8999999985099","resources/trios/L1T1A3.jpg","38","restless",0.7,0.4,0.3,0.347169366268737,"true"
"image-keyboard-response",420,414386,"0.0-3.136-1.136","skn5vpde2eurr8u",48,"103.csv","","null","resources/maskTrios/BT1B.jpg","null","",NA,NA,NA,NA,""
"image-keyboard-response",421,415593,"0.0-3.136-2.136","skn5vpde2eurr8u",48,"103.csv","","null","resources/images/coin2.png","null","",NA,NA,NA,NA,""
"image-keyboard-response",422,418174,"0.0-3.137-0.137","skn5vpde2eurr8u",48,"103.csv","","2578.599999997765","resources/trios/L1T4A2.jpg","37","restless",0.7,0.4,0.3,0.280647300055928,"true"
"image-keyboard-response",423,418578,"0.0-3.137-1.137","skn5vpde2eurr8u",48,"103.csv","","null","resources/maskTrios/L1BB.jpg","null","",NA,NA,NA,NA,""
"image-keyboard-response",424,419785,"0.0-3.137-2.137","skn5vpde2eurr8u",48,"103.csv","","null","resources/images/coin2.png","null","",NA,NA,NA,NA,""
"image-keyboard-response",425,423962,"0.0-3.138-0.138","skn5vpde2eurr8u",48,"103.csv","","4174.900000002235","resources/trios/L2T1A2.jpg","39","restless",0.7,0.4,0.3,0.902797969190362,"false"
"image-keyboard-response",426,424365,"0.0-3.138-1.138","skn5vpde2eurr8u",48,"103.csv","","null","resources/maskTrios/BBA2.jpg","null","",NA,NA,NA,NA,""
"image-keyboard-response",427,425571,"0.0-3.138-2.138","skn5vpde2eurr8u",48,"103.csv","","null","resources/images/fishbone.png","null","",NA,NA,NA,NA,""
"image-keyboard-response",428,426014,"0.0-3.139-0.139","skn5vpde2eurr8u",48,"103.csv","","440.5999999977648","resources/trios/L2T1A3.jpg","38","restless",0.7,0.4,0.3,0.397440953689539,"true"
"image-keyboard-response",429,426421,"0.0-3.139-1.139","skn5vpde2eurr8u",48,"103.csv","","null","resources/maskTrios/BT1B.jpg","null","",NA,NA,NA,NA,""
"image-keyboard-response",430,427628,"0.0-3.139-2.139","skn5vpde2eurr8u",48,"103.csv","","null","resources/images/coin2.png","null","",NA,NA,NA,NA,""
"image-keyboard-response",431,431180,"0.0-3.140-0.140","skn5vpde2eurr8u",48,"103.csv","","3550.099999997765","resources/trios/L2T4A3.jpg","38","restless",0.7,0.3,0.3,0.560149957722379,"false"
"image-keyboard-response",432,431588,"0.0-3.140-1.140","skn5vpde2eurr8u",48,"103.csv","","null","resources/maskTrios/BT4B.jpg","null","",NA,NA,NA,NA,""
"image-keyboard-response",433,432795,"0.0-3.140-2.140","skn5vpde2eurr8u",48,"103.csv","","null","resources/images/fishbone.png","null","",NA,NA,NA,NA,""
"image-keyboard-response",434,468985,"0.0-3.141-0.141","skn5vpde2eurr8u",48,"103.csv","","36189.099999997765","resources/trios/L2T4A3.jpg","39","restless",0.7,0.3,0.3,0.263395591576512,"true"
"image-keyboard-response",435,469388,"0.0-3.141-1.141","skn5vpde2eurr8u",48,"103.csv","","null","resources/maskTrios/BBA3.jpg","null","",NA,NA,NA,NA,""
"image-keyboard-response",436,470595,"0.0-3.141-2.141","skn5vpde2eurr8u",48,"103.csv","","null","resources/images/coin2.png","null","",NA,NA,NA,NA,""
"image-keyboard-response",437,471078,"0.0-3.142-0.142","skn5vpde2eurr8u",48,"103.csv","","481","resources/trios/L2T4A2.jpg","39","restless",0.7,0.3,0.3,0.190745814669223,"true"
"image-keyboard-response",438,471486,"0.0-3.142-1.142","skn5vpde2eurr8u",48,"103.csv","","null","resources/maskTrios/BBA2.jpg","null","",NA,NA,NA,NA,""
"image-keyboard-response",439,472693,"0.0-3.142-2.142","skn5vpde2eurr8u",48,"103.csv","","null","resources/images/coin2.png","null","",NA,NA,NA,NA,""
"image-keyboard-response",440,473175,"0.0-3.143-0.143","skn5vpde2eurr8u",48,"103.csv","","479.80000000074506","resources/trios/L2T4A3.jpg","39","restless",0.7,0.3,0.3,0.312605852381013,"false"
"image-keyboard-response",441,473582,"0.0-3.143-1.143","skn5vpde2eurr8u",48,"103.csv","","null","resources/maskTrios/BBA3.jpg","null","",NA,NA,NA,NA,""
"image-keyboard-response",442,474789,"0.0-3.143-2.143","skn5vpde2eurr8u",48,"103.csv","","null","resources/images/fishbone.png","null","",NA,NA,NA,NA,""
"image-keyboard-response",443,476427,"0.0-3.144-0.144","skn5vpde2eurr8u",48,"103.csv","","1636.199999999255","resources/trios/L2T4A3.jpg","38","restless",0.7,0.3,0.3,0.309198451749725,"false"
"image-keyboard-response",444,476835,"0.0-3.144-1.144","skn5vpde2eurr8u",48,"103.csv","","null","resources/maskTrios/BT4B.jpg","null","",NA,NA,NA,NA,""
"image-keyboard-response",445,478041,"0.0-3.144-2.144","skn5vpde2eurr8u",48,"103.csv","","null","resources/images/fishbone.png","null","",NA,NA,NA,NA,""
"image-keyboard-response",446,478427,"0.0-3.145-0.145","skn5vpde2eurr8u",48,"103.csv","","384.5999999977648","resources/trios/L1T1A2.jpg","38","restless",0.7,0.3,0.3,0.18165565951503,"true"
"image-keyboard-response",447,478834,"0.0-3.145-1.145","skn5vpde2eurr8u",48,"103.csv","","null","resources/maskTrios/BT1B.jpg","null","",NA,NA,NA,NA,""
"image-keyboard-response",448,480041,"0.0-3.145-2.145","skn5vpde2eurr8u",48,"103.csv","","null","resources/images/coin2.png","null","",NA,NA,NA,NA,""
"image-keyboard-response",449,480503,"0.0-3.146-0.146","skn5vpde2eurr8u",48,"103.csv","","459.19999999925494","resources/trios/L1T1A2.jpg","38","restless",0.7,0.3,0.3,0.301313286302143,"false"
"image-keyboard-response",450,480910,"0.0-3.146-1.146","skn5vpde2eurr8u",48,"103.csv","","null","resources/maskTrios/BT1B.jpg","null","",NA,NA,NA,NA,""
"image-keyboard-response",451,482115,"0.0-3.146-2.146","skn5vpde2eurr8u",48,"103.csv","","null","resources/images/fishbone.png","null","",NA,NA,NA,NA,""
"image-keyboard-response",452,482505,"0.0-3.147-0.147","skn5vpde2eurr8u",48,"103.csv","","388.1000000014901","resources/trios/L1T4A3.jpg","37","restless",0.7,0.3,0.3,0.0205477782310519,"true"
"image-keyboard-response",453,482912,"0.0-3.147-1.147","skn5vpde2eurr8u",48,"103.csv","","null","resources/maskTrios/L1BB.jpg","null","",NA,NA,NA,NA,""
"image-keyboard-response",454,484119,"0.0-3.147-2.147","skn5vpde2eurr8u",48,"103.csv","","null","resources/images/coin2.png","null","",NA,NA,NA,NA,""
"image-keyboard-response",455,484631,"0.0-3.148-0.148","skn5vpde2eurr8u",48,"103.csv","","510","resources/trios/L2T4A3.jpg","37","restless",0.6,0.3,0.3,0.909682074079909,"false"
"image-keyboard-response",456,485038,"0.0-3.148-1.148","skn5vpde2eurr8u",48,"103.csv","","null","resources/maskTrios/L2BB.jpg","null","",NA,NA,NA,NA,""
"image-keyboard-response",457,486245,"0.0-3.148-2.148","skn5vpde2eurr8u",48,"103.csv","","null","resources/images/fishbone.png","null","",NA,NA,NA,NA,""
"image-keyboard-response",458,486555,"0.0-3.149-0.149","skn5vpde2eurr8u",48,"103.csv","","307.80000000074506","resources/trios/L2T4A2.jpg","39","restless",0.7,0.4,0.3,0.443793321446689,"false"
"image-keyboard-response",459,486962,"0.0-3.149-1.149","skn5vpde2eurr8u",48,"103.csv","","null","resources/maskTrios/BBA2.jpg","null","",NA,NA,NA,NA,""
"image-keyboard-response",460,488168,"0.0-3.149-2.149","skn5vpde2eurr8u",48,"103.csv","","null","resources/images/fishbone.png","null","",NA,NA,NA,NA,""
"image-keyboard-response",461,488520,"0.0-3.150-0.150","skn5vpde2eurr8u",48,"103.csv","","349.8999999985099","resources/trios/L1T4A2.jpg","39","restless",0.6,0.4,0.4,0.822505663309321,"false"
"image-keyboard-response",462,488924,"0.0-3.150-1.150","skn5vpde2eurr8u",48,"103.csv","","null","resources/maskTrios/BBA2.jpg","null","",NA,NA,NA,NA,""
"image-keyboard-response",463,490130,"0.0-3.150-2.150","skn5vpde2eurr8u",48,"103.csv","","null","resources/images/fishbone.png","null","",NA,NA,NA,NA,""
"image-keyboard-response",464,490504,"0.0-3.151-0.151","skn5vpde2eurr8u",48,"103.csv","","371.19999999925494","resources/trios/L2T4A2.jpg","38","restless",0.5,0.4,0.4,0.455442555343096,"false"
"image-keyboard-response",465,490911,"0.0-3.151-1.151","skn5vpde2eurr8u",48,"103.csv","","null","resources/maskTrios/BT4B.jpg","null","",NA,NA,NA,NA,""
"image-keyboard-response",466,492118,"0.0-3.151-2.151","skn5vpde2eurr8u",48,"103.csv","","null","resources/images/fishbone.png","null","",NA,NA,NA,NA,""
"image-keyboard-response",467,492400,"0.0-3.152-0.152","skn5vpde2eurr8u",48,"103.csv","","280.30000000074506","resources/trios/L1T4A2.jpg","37","restless",0.5,0.4,0.3,0.60876069335439,"false"
"image-keyboard-response",468,492807,"0.0-3.152-1.152","skn5vpde2eurr8u",48,"103.csv","","null","resources/maskTrios/L1BB.jpg","null","",NA,NA,NA,NA,""
"image-keyboard-response",469,494014,"0.0-3.152-2.152","skn5vpde2eurr8u",48,"103.csv","","null","resources/images/fishbone.png","null","",NA,NA,NA,NA,""
"image-keyboard-response",470,494314,"0.0-3.153-0.153","skn5vpde2eurr8u",48,"103.csv","","298.0999999977648","resources/trios/L1T4A3.jpg","39","restless",0.5,0.4,0.3,0.850001251420471,"false"
"image-keyboard-response",471,494722,"0.0-3.153-1.153","skn5vpde2eurr8u",48,"103.csv","","null","resources/maskTrios/BBA3.jpg","null","",NA,NA,NA,NA,""
"image-keyboard-response",472,495928,"0.0-3.153-2.153","skn5vpde2eurr8u",48,"103.csv","","null","resources/images/fishbone.png","null","",NA,NA,NA,NA,""
"image-keyboard-response",473,496266,"0.0-3.154-0.154","skn5vpde2eurr8u",48,"103.csv","","335.1000000014901","resources/trios/L2T4A3.jpg","39","restless",0.5,0.4,0.3,0.293701649142917,"true"
"image-keyboard-response",474,496673,"0.0-3.154-1.154","skn5vpde2eurr8u",48,"103.csv","","null","resources/maskTrios/BBA3.jpg","null","",NA,NA,NA,NA,""
"image-keyboard-response",475,497880,"0.0-3.154-2.154","skn5vpde2eurr8u",48,"103.csv","","null","resources/images/coin2.png","null","",NA,NA,NA,NA,""
"image-keyboard-response",476,498279,"0.0-3.155-0.155","skn5vpde2eurr8u",48,"103.csv","","397.1000000014901","resources/trios/L2T4A2.jpg","39","restless",0.5,0.4,0.3,0.0867857796377038,"true"
"image-keyboard-response",477,498687,"0.0-3.155-1.155","skn5vpde2eurr8u",48,"103.csv","","null","resources/maskTrios/BBA2.jpg","null","",NA,NA,NA,NA,""
"image-keyboard-response",478,499894,"0.0-3.155-2.155","skn5vpde2eurr8u",48,"103.csv","","null","resources/images/coin2.png","null","",NA,NA,NA,NA,""
"image-keyboard-response",479,500524,"0.0-3.156-0.156","skn5vpde2eurr8u",48,"103.csv","","628.4000000022352","resources/trios/L1T4A2.jpg","39","restless",0.5,0.4,0.2,0.742237878507249,"false"
"image-keyboard-response",480,500931,"0.0-3.156-1.156","skn5vpde2eurr8u",48,"103.csv","","null","resources/maskTrios/BBA2.jpg","null","",NA,NA,NA,NA,""
"image-keyboard-response",481,502137,"0.0-3.156-2.156","skn5vpde2eurr8u",48,"103.csv","","null","resources/images/fishbone.png","null","",NA,NA,NA,NA,""
"image-keyboard-response",482,502635,"0.0-3.157-0.157","skn5vpde2eurr8u",48,"103.csv","","496.5","resources/trios/L1T1A2.jpg","38","restless",0.5,0.4,0.2,0.262273380660577,"true"
"image-keyboard-response",483,503042,"0.0-3.157-1.157","skn5vpde2eurr8u",48,"103.csv","","null","resources/maskTrios/BT1B.jpg","null","",NA,NA,NA,NA,""
"image-keyboard-response",484,504250,"0.0-3.157-2.157","skn5vpde2eurr8u",48,"103.csv","","null","resources/images/coin2.png","null","",NA,NA,NA,NA,""
"image-keyboard-response",485,504681,"0.0-3.158-0.158","skn5vpde2eurr8u",48,"103.csv","","428.80000000074506","resources/trios/L2T4A3.jpg","38","restless",0.6,0.4,0.2,0.660105283408214,"false"
"image-keyboard-response",486,505083,"0.0-3.158-1.158","skn5vpde2eurr8u",48,"103.csv","","null","resources/maskTrios/BT4B.jpg","null","",NA,NA,NA,NA,""
"image-keyboard-response",487,506290,"0.0-3.158-2.158","skn5vpde2eurr8u",48,"103.csv","","null","resources/images/fishbone.png","null","",NA,NA,NA,NA,""
"image-keyboard-response",488,506863,"0.0-3.159-0.159","skn5vpde2eurr8u",48,"103.csv","","570.3999999985099","resources/trios/L2T1A3.jpg","37","restless",0.6,0.4,0.2,0.392295726944855,"true"
"image-keyboard-response",489,507270,"0.0-3.159-1.159","skn5vpde2eurr8u",48,"103.csv","","null","resources/maskTrios/L2BB.jpg","null","",NA,NA,NA,NA,""
"image-keyboard-response",490,508477,"0.0-3.159-2.159","skn5vpde2eurr8u",48,"103.csv","","null","resources/images/coin2.png","null","",NA,NA,NA,NA,""
"image-keyboard-response",491,509080,"0.0-3.160-0.160","skn5vpde2eurr8u",48,"103.csv","","600.3999999985099","resources/trios/L1T1A3.jpg","39","restless",0.6,0.4,0.2,0.987161727732855,"false"
"image-keyboard-response",492,509487,"0.0-3.160-1.160","skn5vpde2eurr8u",48,"103.csv","","null","resources/maskTrios/BBA3.jpg","null","",NA,NA,NA,NA,""
"image-keyboard-response",493,510694,"0.0-3.160-2.160","skn5vpde2eurr8u",48,"103.csv","","null","resources/images/fishbone.png","null","",NA,NA,NA,NA,""
"image-keyboard-response",494,511029,"0.0-3.161-0.161","skn5vpde2eurr8u",48,"103.csv","","333.1000000014901","resources/trios/L1T1A3.jpg","37","restless",0.6,0.4,0.2,0.646150476977392,"false"
"image-keyboard-response",495,511436,"0.0-3.161-1.161","skn5vpde2eurr8u",48,"103.csv","","null","resources/maskTrios/L1BB.jpg","null","",NA,NA,NA,NA,""
"image-keyboard-response",496,512639,"0.0-3.161-2.161","skn5vpde2eurr8u",48,"103.csv","","null","resources/images/fishbone.png","null","",NA,NA,NA,NA,""
"image-keyboard-response",497,512983,"0.0-3.162-0.162","skn5vpde2eurr8u",48,"103.csv","","342.29999999701977","resources/trios/L1T4A3.jpg","38","restless",0.6,0.4,0.3,0.674296858114573,"false"
"image-keyboard-response",498,513391,"0.0-3.162-1.162","skn5vpde2eurr8u",48,"103.csv","","null","resources/maskTrios/BT4B.jpg","null","",NA,NA,NA,NA,""
"image-keyboard-response",499,514597,"0.0-3.162-2.162","skn5vpde2eurr8u",48,"103.csv","","null","resources/images/fishbone.png","null","",NA,NA,NA,NA,""
"image-keyboard-response",500,514876,"0.0-3.163-0.163","skn5vpde2eurr8u",48,"103.csv","","276","resources/trios/L2T1A3.jpg","39","restless",0.6,0.4,0.3,0.375490075925156,"false"
"image-keyboard-response",501,515283,"0.0-3.163-1.163","skn5vpde2eurr8u",48,"103.csv","","null","resources/maskTrios/BBA3.jpg","null","",NA,NA,NA,NA,""
"image-keyboard-response",502,516490,"0.0-3.163-2.163","skn5vpde2eurr8u",48,"103.csv","","null","resources/images/fishbone.png","null","",NA,NA,NA,NA,""
"image-keyboard-response",503,516798,"0.0-3.164-0.164","skn5vpde2eurr8u",48,"103.csv","","306.3999999985099","resources/trios/L2T4A2.jpg","37","restless",0.7,0.4,0.3,0.325801082579375,"true"
"image-keyboard-response",504,517205,"0.0-3.164-1.164","skn5vpde2eurr8u",48,"103.csv","","null","resources/maskTrios/L2BB.jpg","null","",NA,NA,NA,NA,""
"image-keyboard-response",505,518410,"0.0-3.164-2.164","skn5vpde2eurr8u",48,"103.csv","","null","resources/images/coin2.png","null","",NA,NA,NA,NA,""
"image-keyboard-response",506,518783,"0.0-3.165-0.165","skn5vpde2eurr8u",48,"103.csv","","370.3999999985099","resources/trios/L1T1A3.jpg","37","restless",0.7,0.4,0.3,0.63741250792893,"true"
"image-keyboard-response",507,519190,"0.0-3.165-1.165","skn5vpde2eurr8u",48,"103.csv","","null","resources/maskTrios/L1BB.jpg","null","",NA,NA,NA,NA,""
"image-keyboard-response",508,520397,"0.0-3.165-2.165","skn5vpde2eurr8u",48,"103.csv","","null","resources/images/coin2.png","null","",NA,NA,NA,NA,""
"image-keyboard-response",509,520909,"0.0-3.166-0.166","skn5vpde2eurr8u",48,"103.csv","","509.5","resources/trios/L2T4A2.jpg","37","restless",0.7,0.4,0.3,0.509414030056477,"true"
"image-keyboard-response",510,521313,"0.0-3.166-1.166","skn5vpde2eurr8u",48,"103.csv","","null","resources/maskTrios/L2BB.jpg","null","",NA,NA,NA,NA,""
"image-keyboard-response",511,522520,"0.0-3.166-2.166","skn5vpde2eurr8u",48,"103.csv","","null","resources/images/coin2.png","null","",NA,NA,NA,NA,""
"image-keyboard-response",512,522952,"0.0-3.167-0.167","skn5vpde2eurr8u",48,"103.csv","","430.20000000298023","resources/trios/L2T1A2.jpg","37","restless",0.7,0.4,0.3,0.770742614071601,"false"
"image-keyboard-response",513,523360,"0.0-3.167-1.167","skn5vpde2eurr8u",48,"103.csv","","null","resources/maskTrios/L2BB.jpg","null","",NA,NA,NA,NA,""
"image-keyboard-response",514,524567,"0.0-3.167-2.167","skn5vpde2eurr8u",48,"103.csv","","null","resources/images/fishbone.png","null","",NA,NA,NA,NA,""
"image-keyboard-response",515,524914,"0.0-3.168-0.168","skn5vpde2eurr8u",48,"103.csv","","345.3999999985099","resources/trios/L2T4A2.jpg","38","restless",0.7,0.4,0.4,0.259150525590975,"true"
"image-keyboard-response",516,525321,"0.0-3.168-1.168","skn5vpde2eurr8u",48,"103.csv","","null","resources/maskTrios/BT4B.jpg","null","",NA,NA,NA,NA,""
"image-keyboard-response",517,526529,"0.0-3.168-2.168","skn5vpde2eurr8u",48,"103.csv","","null","resources/images/coin2.png","null","",NA,NA,NA,NA,""
"image-keyboard-response",518,527009,"0.0-3.169-0.169","skn5vpde2eurr8u",48,"103.csv","","478.20000000298023","resources/trios/L1T1A2.jpg","39","restless",0.7,0.4,0.4,0.800791135071478,"false"
"image-keyboard-response",519,527416,"0.0-3.169-1.169","skn5vpde2eurr8u",48,"103.csv","","null","resources/maskTrios/BBA2.jpg","null","",NA,NA,NA,NA,""
"image-keyboard-response",520,528623,"0.0-3.169-2.169","skn5vpde2eurr8u",48,"103.csv","","null","resources/images/fishbone.png","null","",NA,NA,NA,NA,""
"image-keyboard-response",521,528970,"0.0-3.170-0.170","skn5vpde2eurr8u",48,"103.csv","","344.80000000074506","resources/trios/L2T4A3.jpg","38","restless",0.7,0.4,0.4,0.297286992661529,"true"
"image-keyboard-response",522,529374,"0.0-3.170-1.170","skn5vpde2eurr8u",48,"103.csv","","null","resources/maskTrios/BT4B.jpg","null","",NA,NA,NA,NA,""
"image-keyboard-response",523,530579,"0.0-3.170-2.170","skn5vpde2eurr8u",48,"103.csv","","null","resources/images/coin2.png","null","",NA,NA,NA,NA,""
"image-keyboard-response",524,531247,"0.0-3.171-0.171","skn5vpde2eurr8u",48,"103.csv","","666.2000000029802","resources/trios/L1T4A3.jpg","38","restless",0.7,0.4,0.4,0.284873730213983,"true"
"image-keyboard-response",525,531654,"0.0-3.171-1.171","skn5vpde2eurr8u",48,"103.csv","","null","resources/maskTrios/BT4B.jpg","null","",NA,NA,NA,NA,""
"image-keyboard-response",526,532860,"0.0-3.171-2.171","skn5vpde2eurr8u",48,"103.csv","","null","resources/images/coin2.png","null","",NA,NA,NA,NA,""
"image-keyboard-response",527,533429,"0.0-3.172-0.172","skn5vpde2eurr8u",48,"103.csv","","566.6000000014901","resources/trios/L2T4A3.jpg","38","restless",0.7,0.4,0.4,0.0122681594187837,"true"
"image-keyboard-response",528,533836,"0.0-3.172-1.172","skn5vpde2eurr8u",48,"103.csv","","null","resources/maskTrios/BT4B.jpg","null","",NA,NA,NA,NA,""
"image-keyboard-response",529,535040,"0.0-3.172-2.172","skn5vpde2eurr8u",48,"103.csv","","null","resources/images/coin2.png","null","",NA,NA,NA,NA,""
"image-keyboard-response",530,535487,"0.0-3.173-0.173","skn5vpde2eurr8u",48,"103.csv","","445.30000000074506","resources/trios/L2T4A2.jpg","38","restless",0.7,0.4,0.4,0.774083185033512,"false"
"image-keyboard-response",531,535893,"0.0-3.173-1.173","skn5vpde2eurr8u",48,"103.csv","","null","resources/maskTrios/BT4B.jpg","null","",NA,NA,NA,NA,""
"image-keyboard-response",532,537100,"0.0-3.173-2.173","skn5vpde2eurr8u",48,"103.csv","","null","resources/images/fishbone.png","null","",NA,NA,NA,NA,""
"image-keyboard-response",533,537605,"0.0-3.174-0.174","skn5vpde2eurr8u",48,"103.csv","","502.19999999925494","resources/trios/L1T4A2.jpg","37","restless",0.7,0.4,0.4,0.506949352632112,"true"
"image-keyboard-response",534,538012,"0.0-3.174-1.174","skn5vpde2eurr8u",48,"103.csv","","null","resources/maskTrios/L1BB.jpg","null","",NA,NA,NA,NA,""
"image-keyboard-response",535,539219,"0.0-3.174-2.174","skn5vpde2eurr8u",48,"103.csv","","null","resources/images/coin2.png","null","",NA,NA,NA,NA,""
"image-keyboard-response",536,539653,"0.0-3.175-0.175","skn5vpde2eurr8u",48,"103.csv","","431.70000000298023","resources/trios/L2T1A3.jpg","37","restless",0.8,0.4,0.4,0.557374571901644,"true"
"image-keyboard-response",537,540056,"0.0-3.175-1.175","skn5vpde2eurr8u",48,"103.csv","","null","resources/maskTrios/L2BB.jpg","null","",NA,NA,NA,NA,""
"image-keyboard-response",538,541263,"0.0-3.175-2.175","skn5vpde2eurr8u",48,"103.csv","","null","resources/images/coin2.png","null","",NA,NA,NA,NA,""
"image-keyboard-response",539,541671,"0.0-3.176-0.176","skn5vpde2eurr8u",48,"103.csv","","405.30000000074506","resources/trios/L1T1A2.jpg","37","restless",0.7,0.4,0.4,0.976661574938831,"false"
"image-keyboard-response",540,542078,"0.0-3.176-1.176","skn5vpde2eurr8u",48,"103.csv","","null","resources/maskTrios/L1BB.jpg","null","",NA,NA,NA,NA,""
"image-keyboard-response",541,543281,"0.0-3.176-2.176","skn5vpde2eurr8u",48,"103.csv","","null","resources/images/fishbone.png","null","",NA,NA,NA,NA,""
"image-keyboard-response",542,543605,"0.0-3.177-0.177","skn5vpde2eurr8u",48,"103.csv","","322.30000000074506","resources/trios/L1T4A3.jpg","39","restless",0.7,0.4,0.4,0.0254449709378699,"true"
"image-keyboard-response",543,544012,"0.0-3.177-1.177","skn5vpde2eurr8u",48,"103.csv","","null","resources/maskTrios/BBA3.jpg","null","",NA,NA,NA,NA,""
"image-keyboard-response",544,545216,"0.0-3.177-2.177","skn5vpde2eurr8u",48,"103.csv","","null","resources/images/coin2.png","null","",NA,NA,NA,NA,""
"image-keyboard-response",545,545542,"0.0-3.178-0.178","skn5vpde2eurr8u",48,"103.csv","","323.19999999925494","resources/trios/L1T4A2.jpg","39","restless",0.7,0.5,0.4,0.761655801544979,"false"
"image-keyboard-response",546,545948,"0.0-3.178-1.178","skn5vpde2eurr8u",48,"103.csv","","null","resources/maskTrios/BBA2.jpg","null","",NA,NA,NA,NA,""
"image-keyboard-response",547,547154,"0.0-3.178-2.178","skn5vpde2eurr8u",48,"103.csv","","null","resources/images/fishbone.png","null","",NA,NA,NA,NA,""
"image-keyboard-response",548,547512,"0.0-3.179-0.179","skn5vpde2eurr8u",48,"103.csv","","355.80000000074506","resources/trios/L1T4A3.jpg","38","restless",0.7,0.5,0.4,0.715943858786045,"false"
"image-keyboard-response",549,547916,"0.0-3.179-1.179","skn5vpde2eurr8u",48,"103.csv","","null","resources/maskTrios/BT4B.jpg","null","",NA,NA,NA,NA,""
"image-keyboard-response",550,549122,"0.0-3.179-2.179","skn5vpde2eurr8u",48,"103.csv","","null","resources/images/fishbone.png","null","",NA,NA,NA,NA,""
"image-keyboard-response",551,549428,"0.0-3.180-0.180","skn5vpde2eurr8u",48,"103.csv","","304.19999999925494","resources/trios/L1T4A2.jpg","37","restless",0.7,0.5,0.4,0.949293486309973,"false"
"image-keyboard-response",552,549835,"0.0-3.180-1.180","skn5vpde2eurr8u",48,"103.csv","","null","resources/maskTrios/L1BB.jpg","null","",NA,NA,NA,NA,""
"image-keyboard-response",553,551042,"0.0-3.180-2.180","skn5vpde2eurr8u",48,"103.csv","","null","resources/images/fishbone.png","null","",NA,NA,NA,NA,""
"image-keyboard-response",554,551442,"0.0-3.181-0.181","skn5vpde2eurr8u",48,"103.csv","","397.9000000022352","resources/trios/L2T1A3.jpg","38","restless",0.7,0.5,0.4,0.313650305390198,"true"
"image-keyboard-response",555,551849,"0.0-3.181-1.181","skn5vpde2eurr8u",48,"103.csv","","null","resources/maskTrios/BT1B.jpg","null","",NA,NA,NA,NA,""
"image-keyboard-response",556,553057,"0.0-3.181-2.181","skn5vpde2eurr8u",48,"103.csv","","null","resources/images/coin2.png","null","",NA,NA,NA,NA,""
"image-keyboard-response",557,553461,"0.0-3.182-0.182","skn5vpde2eurr8u",48,"103.csv","","402.19999999925494","resources/trios/L1T4A2.jpg","39","restless",0.7,0.5,0.4,0.944805099364238,"false"
"image-keyboard-response",558,553868,"0.0-3.182-1.182","skn5vpde2eurr8u",48,"103.csv","","null","resources/maskTrios/BBA2.jpg","null","",NA,NA,NA,NA,""
"image-keyboard-response",559,555073,"0.0-3.182-2.182","skn5vpde2eurr8u",48,"103.csv","","null","resources/images/fishbone.png","null","",NA,NA,NA,NA,""
"image-keyboard-response",560,555428,"0.0-3.183-0.183","skn5vpde2eurr8u",48,"103.csv","","352.8999999985099","resources/trios/L1T1A3.jpg","38","restless",0.7,0.4,0.4,0.280253757760143,"true"
"image-keyboard-response",561,555835,"0.0-3.183-1.183","skn5vpde2eurr8u",48,"103.csv","","null","resources/maskTrios/BT1B.jpg","null","",NA,NA,NA,NA,""
"image-keyboard-response",562,557042,"0.0-3.183-2.183","skn5vpde2eurr8u",48,"103.csv","","null","resources/images/coin2.png","null","",NA,NA,NA,NA,""
"image-keyboard-response",563,557476,"0.0-3.184-0.184","skn5vpde2eurr8u",48,"103.csv","","432.0999999977648","resources/trios/L2T1A2.jpg","38","restless",0.7,0.3,0.4,0.115483963586883,"true"
"image-keyboard-response",564,557884,"0.0-3.184-1.184","skn5vpde2eurr8u",48,"103.csv","","null","resources/maskTrios/BT1B.jpg","null","",NA,NA,NA,NA,""
"image-keyboard-response",565,559091,"0.0-3.184-2.184","skn5vpde2eurr8u",48,"103.csv","","null","resources/images/coin2.png","null","",NA,NA,NA,NA,""
"image-keyboard-response",566,559675,"0.0-3.185-0.185","skn5vpde2eurr8u",48,"103.csv","","582.2999999970198","resources/trios/L2T4A2.jpg","38","restless",0.6,0.3,0.4,0.907971775379872,"false"
"image-keyboard-response",567,560083,"0.0-3.185-1.185","skn5vpde2eurr8u",48,"103.csv","","null","resources/maskTrios/BT4B.jpg","null","",NA,NA,NA,NA,""
"image-keyboard-response",568,561289,"0.0-3.185-2.185","skn5vpde2eurr8u",48,"103.csv","","null","resources/images/fishbone.png","null","",NA,NA,NA,NA,""
"image-keyboard-response",569,561604,"0.0-3.186-0.186","skn5vpde2eurr8u",48,"103.csv","","312.80000000074506","resources/trios/L1T1A3.jpg","37","restless",0.6,0.3,0.4,0.949592143475539,"false"
"image-keyboard-response",570,562012,"0.0-3.186-1.186","skn5vpde2eurr8u",48,"103.csv","","null","resources/maskTrios/L1BB.jpg","null","",NA,NA,NA,NA,""
"image-keyboard-response",571,563219,"0.0-3.186-2.186","skn5vpde2eurr8u",48,"103.csv","","null","resources/images/fishbone.png","null","",NA,NA,NA,NA,""
"image-keyboard-response",572,563558,"0.0-3.187-0.187","skn5vpde2eurr8u",48,"103.csv","","337","resources/trios/L2T1A3.jpg","37","restless",0.6,0.3,0.4,0.945732695694114,"false"
"image-keyboard-response",573,563965,"0.0-3.187-1.187","skn5vpde2eurr8u",48,"103.csv","","null","resources/maskTrios/L2BB.jpg","null","",NA,NA,NA,NA,""
"image-keyboard-response",574,565167,"0.0-3.187-2.187","skn5vpde2eurr8u",48,"103.csv","","null","resources/images/fishbone.png","null","",NA,NA,NA,NA,""
"image-keyboard-response",575,565829,"0.0-3.188-0.188","skn5vpde2eurr8u",48,"103.csv","","659.5","resources/trios/L2T1A3.jpg","39","restless",0.6,0.3,0.4,0.858433001964792,"false"
"image-keyboard-response",576,566236,"0.0-3.188-1.188","skn5vpde2eurr8u",48,"103.csv","","null","resources/maskTrios/BBA3.jpg","null","",NA,NA,NA,NA,""
"image-keyboard-response",577,567443,"0.0-3.188-2.188","skn5vpde2eurr8u",48,"103.csv","","null","resources/images/fishbone.png","null","",NA,NA,NA,NA,""
"image-keyboard-response",578,567987,"0.0-3.189-0.189","skn5vpde2eurr8u",48,"103.csv","","541","resources/trios/L1T4A2.jpg","39","restless",0.6,0.3,0.4,0.0377050507730088,"true"
"image-keyboard-response",579,568390,"0.0-3.189-1.189","skn5vpde2eurr8u",48,"103.csv","","null","resources/maskTrios/BBA2.jpg","null","",NA,NA,NA,NA,""
"image-keyboard-response",580,569597,"0.0-3.189-2.189","skn5vpde2eurr8u",48,"103.csv","","null","resources/images/coin2.png","null","",NA,NA,NA,NA,""
"image-keyboard-response",581,569960,"0.0-3.190-0.190","skn5vpde2eurr8u",48,"103.csv","","360.3999999985099","resources/trios/L2T4A2.jpg","39","restless",0.6,0.3,0.4,0.815208969140805,"false"
"image-keyboard-response",582,570367,"0.0-3.190-1.190","skn5vpde2eurr8u",48,"103.csv","","null","resources/maskTrios/BBA2.jpg","null","",NA,NA,NA,NA,""
"image-keyboard-response",583,571574,"0.0-3.190-2.190","skn5vpde2eurr8u",48,"103.csv","","null","resources/images/fishbone.png","null","",NA,NA,NA,NA,""
"image-keyboard-response",584,571925,"0.0-3.191-0.191","skn5vpde2eurr8u",48,"103.csv","","348","resources/trios/L1T1A3.jpg","39","restless",0.6,0.3,0.4,0.198984818919121,"true"
"image-keyboard-response",585,572332,"0.0-3.191-1.191","skn5vpde2eurr8u",48,"103.csv","","null","resources/maskTrios/BBA3.jpg","null","",NA,NA,NA,NA,""
"image-keyboard-response",586,573539,"0.0-3.191-2.191","skn5vpde2eurr8u",48,"103.csv","","null","resources/images/coin2.png","null","",NA,NA,NA,NA,""
"image-keyboard-response",587,574080,"0.0-3.192-0.192","skn5vpde2eurr8u",48,"103.csv","","538.5","resources/trios/L2T4A2.jpg","39","restless",0.6,0.3,0.4,0.608379852456817,"false"
"image-keyboard-response",588,574487,"0.0-3.192-1.192","skn5vpde2eurr8u",48,"103.csv","","null","resources/maskTrios/BBA2.jpg","null","",NA,NA,NA,NA,""
"image-keyboard-response",589,575694,"0.0-3.192-2.192","skn5vpde2eurr8u",48,"103.csv","","null","resources/images/fishbone.png","null","",NA,NA,NA,NA,""
"image-keyboard-response",590,578823,"0.0-3.193-0.193","skn5vpde2eurr8u",48,"103.csv","","3126.5","resources/trios/L1T1A3.jpg","38","restless",0.6,0.3,0.5,0.144630544771555,"true"
"image-keyboard-response",591,579230,"0.0-3.193-1.193","skn5vpde2eurr8u",48,"103.csv","","null","resources/maskTrios/BT1B.jpg","null","",NA,NA,NA,NA,""
"image-keyboard-response",592,580437,"0.0-3.193-2.193","skn5vpde2eurr8u",48,"103.csv","","null","resources/images/coin2.png","null","",NA,NA,NA,NA,""
"image-keyboard-response",593,581480,"0.0-3.194-0.194","skn5vpde2eurr8u",48,"103.csv","","1040.800000000745","resources/trios/L1T1A3.jpg","38","restless",0.6,0.3,0.5,0.968513193690998,"false"
"image-keyboard-response",594,581887,"0.0-3.194-1.194","skn5vpde2eurr8u",48,"103.csv","","null","resources/maskTrios/BT1B.jpg","null","",NA,NA,NA,NA,""
"image-keyboard-response",595,583094,"0.0-3.194-2.194","skn5vpde2eurr8u",48,"103.csv","","null","resources/images/fishbone.png","null","",NA,NA,NA,NA,""
"image-keyboard-response",596,584121,"0.0-3.195-0.195","skn5vpde2eurr8u",48,"103.csv","","1024.8999999985099","resources/trios/L2T4A2.jpg","38","restless",0.6,0.3,0.5,0.494345924494628,"false"
"image-keyboard-response",597,584529,"0.0-3.195-1.195","skn5vpde2eurr8u",48,"103.csv","","null","resources/maskTrios/BT4B.jpg","null","",NA,NA,NA,NA,""
"image-keyboard-response",598,585735,"0.0-3.195-2.195","skn5vpde2eurr8u",48,"103.csv","","null","resources/images/fishbone.png","null","",NA,NA,NA,NA,""
"image-keyboard-response",599,587607,"0.0-3.196-0.196","skn5vpde2eurr8u",48,"103.csv","","1869.7000000029802","resources/trios/L2T4A2.jpg","38","restless",0.6,0.3,0.5,0.265800298194667,"true"
"image-keyboard-response",600,588011,"0.0-3.196-1.196","skn5vpde2eurr8u",48,"103.csv","","null","resources/maskTrios/BT4B.jpg","null","",NA,NA,NA,NA,""
"image-keyboard-response",601,589215,"0.0-3.196-2.196","skn5vpde2eurr8u",48,"103.csv","","null","resources/images/coin2.png","null","",NA,NA,NA,NA,""
"image-keyboard-response",602,590417,"0.0-3.197-0.197","skn5vpde2eurr8u",48,"103.csv","","1200.4000000022352","resources/trios/L2T4A2.jpg","38","restless",0.6,0.3,0.5,0.0633715250824205,"true"
"image-keyboard-response",603,590825,"0.0-3.197-1.197","skn5vpde2eurr8u",48,"103.csv","","null","resources/maskTrios/BT4B.jpg","null","",NA,NA,NA,NA,""
"image-keyboard-response",604,592032,"0.0-3.197-2.197","skn5vpde2eurr8u",48,"103.csv","","null","resources/images/coin2.png","null","",NA,NA,NA,NA,""
"image-keyboard-response",605,594017,"0.0-3.198-0.198","skn5vpde2eurr8u",48,"103.csv","","1983","resources/trios/L2T4A2.jpg","38","restless",0.6,0.3,0.5,0.803944405162909,"false"
"image-keyboard-response",606,594425,"0.0-3.198-1.198","skn5vpde2eurr8u",48,"103.csv","","null","resources/maskTrios/BT4B.jpg","null","",NA,NA,NA,NA,""
"image-keyboard-response",607,595632,"0.0-3.198-2.198","skn5vpde2eurr8u",48,"103.csv","","null","resources/images/fishbone.png","null","",NA,NA,NA,NA,""
"image-keyboard-response",608,596405,"0.0-3.199-0.199","skn5vpde2eurr8u",48,"103.csv","","770.9000000022352","resources/trios/L2T1A3.jpg","37","restless",0.6,0.3,0.6,0.779071779048882,"false"
"image-keyboard-response",609,596812,"0.0-3.199-1.199","skn5vpde2eurr8u",48,"103.csv","","null","resources/maskTrios/L2BB.jpg","null","",NA,NA,NA,NA,""
